// General information: 
//  MT Manager version: 2022.2.0 
//  XDA version: 2022.2.0 build 7381 rev 124627 built on 2023-07-19
// Device information: 
//  DeviceId: 00B4C223
//  ProductCode: MTW2-3A7G6
//  Firmware Version: 4.6.0
//  Hardware Version: 2.0.0
// Device settings: 
//  Filter Profile: human(46.1)
//  Option Flags: Orientation Smoother Disabled, Position/Velocity Smoother Disabled, Continuous Zero Rotation Update Disabled, AHS Disabled, ICC Disabled
// Coordinate system: ENU
PacketCounter	SampleTimeFine	Acc_X	Acc_Y	Acc_Z	Gyr_X	Gyr_Y	Gyr_Z	Mag_X	Mag_Y	Mag_Z	Roll	Pitch	Yaw
37441		-5.770864	-0.948631	8.124172	0.001112	-0.001596	0.006170	-0.591064	0.164307	-1.184814	-6.593612	35.480024	107.371144
37442		-5.762448	-0.914907	8.123669	-0.004385	-0.006583	0.004594	-0.591064	0.170898	-1.184326	-6.593427	35.474543	107.372255
37443		-5.770166	-0.948340	8.124702	-0.000740	-0.004971	0.006559	-0.592773	0.169922	-1.185303	-6.590733	35.472270	107.374423
37444		-5.764552	-0.948995	8.148567	-0.002596	0.001150	0.004007	-0.589111	0.169434	-1.190186	-6.590124	35.471165	107.374498
37445		-5.775529	-0.947231	8.101069	-0.001173	-0.003246	0.005285	-0.584961	0.163330	-1.187256	-6.588276	35.469790	107.375636
37446		-5.758671	-0.949630	8.172621	-0.002902	-0.005841	0.003129	-0.587891	0.167725	-1.177979	-6.587878	35.464662	107.375657
37447		-5.761195	-0.914374	8.124618	-0.002655	-0.003987	0.006751	-0.586182	0.169678	-1.186035	-6.586251	35.462962	107.377879
37448		-5.736575	-0.955860	8.117599	-0.002162	-0.000575	0.005282	-0.586670	0.167236	-1.178955	-6.584803	35.460980	107.378980
37449		-5.786860	-0.925951	8.105337	-0.001172	-0.003245	0.005285	-0.585449	0.167236	-1.180420	-6.582955	35.459606	107.380117
37450		-5.763573	-0.948316	8.149338	-0.004633	0.001355	0.006744	-0.577637	0.169678	-1.181152	-6.582427	35.458833	107.382081
37451		-5.736523	-0.955423	8.117687	0.001236	-0.000817	0.003625	-0.587402	0.172119	-1.178955	-6.579986	35.458732	107.381863
37452		-5.754299	-0.933713	8.097475	-0.005436	0.000447	0.004394	-0.590332	0.175537	-1.182861	-6.580836	35.457296	107.382252
37453		-5.748965	-0.934423	8.121131	0.001051	0.002762	0.005973	-0.584717	0.168701	-1.180420	-6.577717	35.459386	107.383386
37454		-5.775079	-0.946001	8.101533	-0.001235	0.001113	0.005088	-0.588623	0.166992	-1.180176	-6.575913	35.458387	107.384205
37455		-5.741199	-0.900365	8.120197	-0.001791	0.002059	0.006359	-0.593994	0.167725	-1.184570	-6.574232	35.460101	107.385665
37456		-5.760492	-0.932066	8.073314	-0.002161	-0.000574	0.005282	-0.594727	0.172363	-1.181885	-6.572800	35.458169	107.386757
37457		-5.749518	-0.933590	8.120836	-0.002717	0.000373	0.006554	-0.585449	0.167725	-1.181396	-6.571492	35.458936	107.388489
37458		-5.749608	-0.933498	8.120782	-0.000556	0.000946	0.001271	-0.588379	0.173340	-1.181641	-6.570842	35.457621	107.386653
37459		-5.782444	-0.925164	8.128511	-0.000987	0.002968	0.008710	-0.586426	0.176758	-1.187500	-6.567789	35.460007	107.389684
37460		-5.782562	-0.924902	8.128457	-0.001605	-0.001519	0.004011	-0.592529	0.167480	-1.187744	-6.566515	35.457481	107.389960
37461		-5.749779	-0.932945	8.120725	-0.002532	-0.003206	0.004206	-0.586426	0.168945	-1.183350	-6.565886	35.456058	107.390339
37462		-5.787808	-0.923911	8.104893	-0.002161	-0.000573	0.005283	-0.588379	0.169922	-1.189697	-6.564460	35.454167	107.391427
37463		-5.749605	-0.932767	8.120869	-0.003087	-0.002259	0.005477	-0.585205	0.163574	-1.183105	-6.563678	35.453365	107.392619
37464		-5.749536	-0.932757	8.120919	-0.003520	-0.000535	0.004203	-0.589355	0.170654	-1.188232	-6.563473	35.451441	107.392948
37465		-5.775410	-0.944425	8.101481	0.001114	-0.001595	0.006171	-0.591797	0.167480	-1.181152	-6.560033	35.451063	107.394571
37466		-5.775258	-0.944356	8.101598	-0.005251	-0.003129	0.002046	-0.585205	0.175781	-1.185547	-6.561578	35.447535	107.393599
37467		-5.749191	-0.932420	8.121202	0.001114	-0.001595	0.006171	-0.590088	0.167236	-1.182861	-6.558138	35.447157	107.395222
37468		-5.767051	-0.910315	8.100966	-0.000984	0.002969	0.008712	-0.583984	0.169678	-1.178467	-6.554827	35.447550	107.398414
37469		-5.769886	-0.944330	8.125368	-0.000801	-0.000610	0.006363	-0.586182	0.168945	-1.185547	-6.552452	35.447745	107.400092
37470		-5.755091	-0.930518	8.097279	0.000249	0.001855	0.003623	-0.583984	0.167236	-1.191162	-6.550445	35.447187	107.399817
37471		-5.755252	-0.930307	8.097189	-0.001233	0.001115	0.005089	-0.595215	0.173584	-1.178711	-6.548916	35.448281	107.400467
37472		-5.749923	-0.930944	8.120853	-0.001788	0.002061	0.006361	-0.589111	0.170898	-1.180176	-6.546980	35.448033	107.402086
37473		-5.776063	-0.942666	8.101221	-0.003148	0.002100	0.005281	-0.581055	0.158203	-1.184326	-6.546515	35.449700	107.402790
37474		-5.765178	-0.944249	8.148675	-0.000678	0.000168	0.003818	-0.583984	0.170898	-1.186035	-6.544890	35.448223	107.402782
37475		-5.794000	-0.920543	8.080924	0.000004	0.000299	0.008715	-0.589600	0.169922	-1.178223	-6.541144	35.449089	107.406031
37476		-5.750476	-0.930110	8.120557	-0.002592	0.001154	0.004009	-0.593506	0.162354	-1.178223	-6.540589	35.448202	107.406074
37477		-5.775121	-0.888390	8.127554	-0.003702	0.003047	0.006553	-0.588623	0.166504	-1.182373	-6.539970	35.450491	107.407592
37478		-5.791672	-0.955350	8.128862	-0.002160	-0.000571	0.005284	-0.587158	0.171875	-1.181152	-6.538565	35.448717	107.408668
37479		-5.756427	-0.929035	8.096500	-0.002592	0.001154	0.004010	-0.589355	0.166748	-1.183105	-6.538253	35.449763	107.408560
37480		-5.738731	-0.950662	8.116686	-0.001605	-0.001517	0.004012	-0.583984	0.175781	-1.174805	-6.537010	35.447384	107.408817
37481		-5.763149	-0.908945	8.123841	-0.004074	0.000415	0.005476	-0.584961	0.173096	-1.184814	-6.536919	35.448104	107.409793
37482		-5.771651	-0.942135	8.124369	0.002788	0.005358	0.008133	-0.576416	0.165527	-1.182617	-6.531812	35.449918	107.412376
37483		-5.777453	-0.941028	8.100420	-0.005433	0.000454	0.004396	-0.591797	0.168945	-1.179443	-6.532939	35.450590	107.412595
37484		-5.756989	-0.928417	8.096172	-0.004569	-0.002995	0.006945	-0.582031	0.167480	-1.187012	-6.532145	35.447586	107.415018
37485		-5.777272	-0.941040	8.100547	-0.001605	-0.001517	0.004012	-0.583252	0.173828	-1.186279	-6.531142	35.447112	107.415126
37486		-5.771682	-0.941707	8.124396	-0.000245	-0.001555	0.005092	-0.599121	0.163574	-1.182861	-6.528696	35.444822	107.416130
37487		-5.763386	-0.907991	8.123780	-0.001605	-0.001517	0.004012	-0.585449	0.168457	-1.185303	-6.527693	35.444348	107.416238
37488		-5.771540	-0.941335	8.124541	-0.002281	-0.001347	0.007831	-0.591064	0.164551	-1.186768	-6.525314	35.442366	107.419142
37489		-5.772770	-0.922063	8.175640	-0.002591	0.001156	0.004010	-0.592773	0.165527	-1.183105	-6.525001	35.443412	107.419035
37490		-5.789339	-0.919432	8.104309	-0.003641	-0.001308	0.006751	-0.588135	0.167236	-1.190186	-6.523843	35.441393	107.421179
37491		-5.738972	-0.949266	8.116679	-0.001482	-0.000739	0.001466	-0.598145	0.167480	-1.178711	-6.523838	35.441196	107.419446
37492		-5.771611	-0.941044	8.124524	-0.002713	0.000378	0.006557	-0.587646	0.167480	-1.191895	-6.522311	35.440138	107.421316
37493		-5.771547	-0.940946	8.124581	-0.002532	-0.003202	0.004207	-0.587402	0.171387	-1.189209	-6.521682	35.438716	107.421694
37494		-5.750954	-0.928129	8.120445	-0.001727	-0.002293	0.006559	-0.591797	0.164551	-1.187012	-6.519472	35.436150	107.423775
37495		-5.761869	-0.926235	8.073002	-0.001604	-0.001516	0.004013	-0.585693	0.164063	-1.191406	-6.518469	35.435676	107.423883
37496		-5.757376	-0.907908	8.148008	-0.002532	-0.003201	0.004207	-0.588135	0.171631	-1.182617	-6.517634	35.432454	107.424392
37497		-5.750481	-0.927683	8.120831	0.000188	-0.003279	0.006367	-0.592041	0.166504	-1.185791	-6.514569	35.431129	107.426286
37498		-5.765184	-0.940841	8.149065	0.000188	-0.003279	0.006367	-0.581543	0.165283	-1.181641	-6.511298	35.428011	107.428310
37499		-5.762200	-0.906345	8.124805	-0.003338	-0.004109	0.001855	-0.587402	0.169189	-1.178223	-6.512042	35.425921	107.427117
37500		-5.758143	-0.960547	8.122004	0.000009	0.000301	0.008718	-0.592529	0.171387	-1.187256	-6.508087	35.425005	107.430498
37501		-5.755493	-0.925911	8.097522	-0.002036	0.000210	0.002739	-0.588867	0.167969	-1.189941	-6.507927	35.425431	107.429579
37502		-5.755427	-0.925878	8.097572	-0.001050	-0.002462	0.002741	-0.590576	0.162842	-1.172607	-6.506880	35.422562	107.428997
37503		-5.787951	-0.917599	8.105508	-0.002157	-0.000567	0.005286	-0.580078	0.166016	-1.188477	-6.505722	35.422711	107.429919
37504		-5.744296	-0.927379	8.145208	-0.000122	-0.000777	0.002547	-0.591553	0.169678	-1.185059	-6.504301	35.420809	107.429070
37505		-5.749977	-0.926128	8.121365	0.001866	0.003672	0.008330	-0.588135	0.169189	-1.195068	-6.499801	35.423568	107.431781
37506		-5.755683	-0.924794	8.097514	-0.000797	-0.000606	0.006366	-0.592529	0.170898	-1.186279	-6.497232	35.422016	107.433581
37507		-5.770695	-0.938064	8.125519	0.000253	0.001856	0.003625	-0.585449	0.165527	-1.185791	-6.495477	35.423436	107.433150
37508		-5.755931	-0.923991	8.097430	0.002729	0.000223	0.010879	-0.591064	0.169434	-1.188477	-6.489102	35.422663	107.438036
37509		-5.762673	-0.903671	8.124767	-0.003395	0.000250	0.001659	-0.582764	0.167725	-1.176514	-6.490160	35.423042	107.436359
37510		-5.776569	-0.936299	8.101597	-0.001782	0.002066	0.006364	-0.586182	0.169189	-1.186523	-6.488283	35.423039	107.437945
37511		-5.795591	-0.895250	8.132433	-0.001228	0.001119	0.005092	-0.592529	0.172607	-1.186523	-6.486749	35.424134	107.438598
37512		-5.730492	-0.911461	8.116649	-0.002710	0.000382	0.006559	-0.586426	0.171387	-1.190674	-6.485248	35.423200	107.440451
37513		-5.776942	-0.935664	8.101405	0.000685	0.000132	0.004900	-0.582275	0.171631	-1.188232	-6.482650	35.423721	107.441048
37514		-5.771599	-0.936151	8.125098	0.001061	0.002765	0.005978	-0.591309	0.171631	-1.177979	-6.479336	35.424119	107.442305
37515		-5.756747	-0.922458	8.097024	-0.004445	-0.002211	0.004401	-0.594482	0.171875	-1.180664	-6.479772	35.423274	107.442739
37516		-5.763293	-0.902476	8.124460	-0.001604	-0.001513	0.004014	-0.591309	0.162842	-1.188721	-6.478588	35.421119	107.442964
37517		-5.766141	-0.936686	8.148867	-0.000299	0.002804	0.004898	-0.587158	0.160400	-1.183594	-6.476678	35.423162	107.443347
37518		-5.763526	-0.902016	8.124346	-0.000796	-0.000605	0.006367	-0.581787	0.170654	-1.187012	-6.474118	35.421688	107.445145
37519		-5.751477	-0.922614	8.120703	-0.001781	0.002068	0.006365	-0.592529	0.161621	-1.183350	-6.472429	35.423406	107.446612
37520		-5.759935	-0.955835	8.121289	0.000133	0.001080	0.006173	-0.588135	0.167236	-1.180908	-6.469496	35.422889	107.448135
37521		-5.769451	-0.900408	8.100365	-0.004069	0.000423	0.005479	-0.592041	0.168457	-1.178955	-6.469401	35.423614	107.449114
37522		-5.772283	-0.934722	8.124776	-0.000675	0.000172	0.003820	-0.594727	0.168213	-1.187012	-6.467847	35.422440	107.449064
37523		-5.751717	-0.921898	8.120614	-0.000620	-0.004185	0.004016	-0.592529	0.162842	-1.181641	-6.466156	35.420446	107.449385
37524		-5.739444	-0.942764	8.117103	-0.005429	0.000464	0.004399	-0.585938	0.165527	-1.184326	-6.467108	35.419484	107.449716
37525		-5.778694	-0.914523	8.152329	-0.000243	-0.001552	0.005095	-0.588379	0.170654	-1.183105	-6.464886	35.419058	107.450582
37526		-5.769236	-0.899914	8.100572	-0.002156	-0.000564	0.005287	-0.589111	0.167480	-1.184814	-6.463561	35.417583	107.451608
37527		-5.772034	-0.934157	8.125018	-0.000674	0.000172	0.003820	-0.591797	0.162109	-1.188477	-6.462181	35.418057	107.451447
37528		-5.757089	-0.920411	8.097015	-0.000243	-0.001552	0.005095	-0.587402	0.165039	-1.186768	-6.459792	35.416015	107.452422
37529		-5.795079	-0.910964	8.081236	0.001670	-0.002541	0.004902	-0.585693	0.165771	-1.189941	-6.456506	35.415015	107.453231
37530		-5.739246	-0.941521	8.117387	-0.000674	0.000172	0.003820	-0.590332	0.165527	-1.181885	-6.454962	35.413894	107.453174
37531		-5.777542	-0.932122	8.101385	-0.000971	0.002978	0.008720	-0.584229	0.168457	-1.178467	-6.451897	35.416282	107.456214
37532		-5.763864	-0.899059	8.124434	0.001117	-0.001592	0.006175	-0.584473	0.162354	-1.178711	-6.448304	35.414320	107.457938
37533		-5.772187	-0.932333	8.125119	-0.002586	0.001161	0.004013	-0.586182	0.172607	-1.182617	-6.447986	35.415370	107.457835
37534		-5.757363	-0.918721	8.097011	-0.002708	0.000386	0.006561	-0.590576	0.168701	-1.187256	-6.446519	35.414573	107.459669
37535		-5.784560	-0.911284	8.128574	-0.002586	0.001162	0.004013	-0.594482	0.170410	-1.184082	-6.446201	35.415623	107.459565
37536		-5.772479	-0.932077	8.124941	-0.002155	-0.000563	0.005288	-0.586182	0.167969	-1.184570	-6.444893	35.414200	107.460577
37537		-5.764140	-0.898368	8.124315	-0.000243	-0.001551	0.005095	-0.582764	0.166748	-1.182617	-6.442671	35.413775	107.461444
37538		-5.752175	-0.919031	8.120615	-0.002761	0.004744	0.006366	-0.589111	0.165527	-1.186279	-6.441512	35.415476	107.462799
37539		-5.790216	-0.909809	8.104769	-0.002479	-0.007552	0.004404	-0.584961	0.167480	-1.178467	-6.440576	35.411590	107.463656
37540		-5.757624	-0.917917	8.096917	-0.001830	0.006428	0.006172	-0.591797	0.163818	-1.180420	-6.439041	35.414242	107.464747
37541		-5.764520	-0.897868	8.124100	-0.004997	-0.001257	0.005675	-0.580811	0.171143	-1.183594	-6.439321	35.414022	107.465995
37542		-5.784971	-0.910456	8.128374	-0.000673	0.000173	0.003821	-0.580811	0.159424	-1.177734	-6.437791	35.412975	107.465932
37543		-5.763421	-0.916856	8.072965	-0.003515	-0.000521	0.004208	-0.587891	0.164551	-1.181885	-6.437850	35.413079	107.466097
37544		-5.744087	-0.885090	8.119835	-0.002155	-0.000562	0.005288	-0.592529	0.173096	-1.184082	-6.436530	35.411730	107.467144
37545		-5.734770	-0.940387	8.140658	-0.003394	0.000254	0.001660	-0.596680	0.165527	-1.182617	-6.437586	35.412113	107.465469
37546		-5.770002	-0.896819	8.100370	0.000309	-0.002500	0.003822	-0.593750	0.169434	-1.185791	-6.435380	35.409537	107.465603
37547		-5.772743	-0.931118	8.124863	-0.005548	-0.000307	0.006949	-0.590576	0.167969	-1.192139	-6.435504	35.409940	107.467667
37548		-5.784863	-0.910043	8.128497	0.001118	-0.001592	0.006176	-0.588135	0.164551	-1.187500	-6.431918	35.408062	107.469377
37549		-5.757611	-0.917260	8.097001	-0.005374	-0.003888	0.004596	-0.583496	0.165527	-1.184570	-6.432731	35.406274	107.470078
37550		-5.772375	-0.930816	8.125159	-0.001602	-0.001510	0.004015	-0.586182	0.163330	-1.185303	-6.431579	35.404331	107.470285
37551		-5.784284	-0.909988	8.128915	-0.004822	-0.004836	0.003323	-0.590820	0.164795	-1.175781	-6.432548	35.401922	107.470172
37552		-5.758018	-0.898431	8.148604	-0.003892	-0.003153	0.003129	-0.584473	0.166748	-1.189453	-6.432997	35.398993	107.469891
37553		-5.751150	-0.918563	8.121394	-0.005374	-0.003887	0.004597	-0.593994	0.169678	-1.179199	-6.433810	35.397206	107.470593
37554		-5.788802	-0.909636	8.105798	-0.003168	-0.007683	-0.000497	-0.571533	0.165527	-1.179443	-6.435108	35.391469	107.468119
37555		-5.750207	-0.918949	8.122018	-0.003461	-0.004877	0.004404	-0.590820	0.162842	-1.178711	-6.434858	35.389106	107.468764
37556		-5.770411	-0.931812	8.126440	-0.007164	-0.002121	0.002243	-0.592041	0.174072	-1.192383	-6.437587	35.386737	107.467779
37557		-5.749720	-0.919499	8.122301	-0.003341	-0.004101	0.001856	-0.589111	0.162842	-1.185791	-6.438333	35.384653	107.466584
37558		-5.761464	-0.898817	8.126163	-0.004270	-0.005784	0.002050	-0.581543	0.177979	-1.178223	-6.439323	35.380177	107.465739
37559		-5.748926	-0.919996	8.122806	-0.006182	-0.004794	0.002244	-0.593750	0.180176	-1.179688	-6.441508	35.377723	107.464869
37560		-5.769018	-0.932904	8.127303	-0.004821	-0.004835	0.003324	-0.596436	0.167480	-1.182861	-6.442345	35.373887	107.464837
37561		-5.748225	-0.920379	8.123259	-0.001980	-0.004142	0.002936	-0.588623	0.162842	-1.185547	-6.441872	35.371848	107.464400
37562		-5.775005	-0.913355	8.155074	-0.007973	-0.003027	-0.000109	-0.596680	0.165527	-1.188477	-6.445980	35.368826	107.461840
37563		-5.765295	-0.899252	8.103451	-0.003460	-0.004876	0.004404	-0.591064	0.170654	-1.178955	-6.445729	35.366464	107.462486
37564		-5.779980	-0.912851	8.131655	-0.004442	-0.002202	0.004405	-0.589844	0.170410	-1.187988	-6.446030	35.364215	107.463007
37565		-5.741577	-0.922194	8.147712	-0.004270	-0.005783	0.002051	-0.590088	0.163574	-1.192139	-6.447152	35.361185	107.462081
37566		-5.765484	-0.880532	8.155188	-0.002530	-0.003192	0.004211	-0.587646	0.167236	-1.181152	-6.446390	35.358369	107.462543
37567		-5.778942	-0.913329	8.132339	-0.006560	-0.007423	0.001165	-0.598389	0.171875	-1.184082	-6.449107	35.354348	107.461129
37568		-5.752389	-0.901904	8.152196	-0.002358	-0.006772	0.001857	-0.588379	0.165283	-1.186523	-6.449032	35.349352	107.460233
37569		-5.762936	-0.900241	8.105019	-0.005749	-0.006516	0.003520	-0.592529	0.163330	-1.187988	-6.450375	35.345999	107.460391
37570		-5.762361	-0.900274	8.105425	-0.000566	-0.008538	0.004210	-0.590576	0.171875	-1.184082	-6.448234	35.340160	107.461284
37571		-5.776556	-0.913820	8.133979	-0.004216	-0.010137	0.002246	-0.590332	0.170410	-1.191406	-6.449048	35.334664	107.460838
37572		-5.783978	-0.947664	8.135237	-0.005956	-0.012725	0.000087	-0.584229	0.160889	-1.177734	-6.451473	35.326188	107.459172
37573		-5.707892	-0.877536	8.146063	-0.001806	-0.007720	0.000583	-0.590088	0.164307	-1.187012	-6.451687	35.321960	107.457375
37574		-5.741630	-0.922930	8.127633	-0.005197	-0.007462	0.002247	-0.590820	0.171875	-1.196533	-6.453037	35.316631	107.456823
37575		-5.741115	-0.923105	8.127977	-0.002907	-0.005822	0.003132	-0.596191	0.171387	-1.182373	-6.452939	35.313648	107.456656
37576		-5.773057	-0.915148	8.136314	-0.006937	-0.010050	0.000089	-0.587891	0.164307	-1.186035	-6.456049	35.306705	107.454779
37577		-5.760282	-0.936527	8.133081	-0.007108	-0.006471	0.002443	-0.589111	0.168945	-1.184082	-6.458606	35.303308	107.454183
37578		-5.759716	-0.936889	8.133441	-0.003167	-0.007676	-0.000496	-0.587158	0.166016	-1.187012	-6.459897	35.297697	107.451724
37579		-5.750988	-0.903588	8.133051	-0.004438	-0.002200	0.004408	-0.580811	0.168457	-1.191650	-6.460328	35.296859	107.452161
37580		-5.732954	-0.925775	8.153376	-0.007918	-0.007376	0.000090	-0.584229	0.163330	-1.188477	-6.464120	35.291468	107.450079
37581		-5.776264	-0.915930	8.114029	-0.003076	-0.002243	0.005487	-0.589844	0.169678	-1.185547	-6.463333	35.290675	107.451272
37582		-5.743408	-0.924191	8.106294	-0.002905	-0.005821	0.003132	-0.587646	0.163818	-1.183594	-6.463101	35.286371	107.451193
37583		-5.757980	-0.937749	8.134571	-0.002526	-0.003191	0.004213	-0.581787	0.169678	-1.182861	-6.462469	35.284956	107.451572
37584		-5.757849	-0.937684	8.134671	-0.003626	-0.001294	0.006762	-0.590088	0.173096	-1.189209	-6.461400	35.283479	107.453666
37585		-5.725091	-0.945749	8.126886	-0.000733	-0.004957	0.006565	-0.586182	0.168457	-1.180664	-6.458713	35.281210	107.455825
37586		-5.719335	-0.946655	8.150783	-0.006348	-0.001208	0.004605	-0.593994	0.161865	-1.193115	-6.460088	35.279642	107.456389
37587		-5.710252	-0.932190	8.098799	-0.001819	0.006424	0.006180	-0.593018	0.163086	-1.184814	-6.458698	35.283827	107.457381
37588		-5.758141	-0.937426	8.134494	-0.006518	0.002371	0.006960	-0.591064	0.164551	-1.187256	-6.459379	35.284443	107.459328
37589		-5.725880	-0.945798	8.126324	-0.003560	0.003837	0.004021	-0.588379	0.166992	-1.178711	-6.459738	35.287016	107.459018
37590		-5.750585	-0.904111	8.133278	-0.005090	0.007459	0.005298	-0.586426	0.166504	-1.188232	-6.460519	35.290443	107.459388
37591		-5.782764	-0.914950	8.089603	-0.004540	0.006510	0.004023	-0.585693	0.165283	-1.181152	-6.461561	35.294539	107.458868
37592		-5.760213	-0.937922	8.132970	-0.007000	0.008451	0.005494	-0.577637	0.167725	-1.186279	-6.463400	35.298563	107.459291
37593		-5.726457	-0.893074	8.151355	-0.007380	0.005821	0.004414	-0.583008	0.171143	-1.181152	-6.465880	35.302291	107.459099
37594		-5.787577	-0.949951	8.112487	-0.001869	0.010780	0.005990	-0.591064	0.166504	-1.185547	-6.464691	35.307690	107.459668
37595		-5.721485	-0.913103	8.122816	-0.005520	0.009185	0.004026	-0.590332	0.172852	-1.183838	-6.466416	35.313309	107.458938
37596		-5.748036	-0.924995	8.102921	-0.006399	0.003149	0.004412	-0.585938	0.162598	-1.184326	-6.468115	35.314243	107.459015
37597		-5.730992	-0.946806	8.122602	-0.001986	0.010005	0.008539	-0.583984	0.170166	-1.185547	-6.466032	35.320620	107.461370
37598		-5.738173	-0.926651	8.149605	-0.002198	0.003796	0.005101	-0.582275	0.166260	-1.181396	-6.465073	35.321990	107.461887
37599		-5.732127	-0.946497	8.121837	-0.003727	0.007419	0.006379	-0.585938	0.159912	-1.177246	-6.464740	35.326755	107.462940
37600		-5.762578	-0.903662	8.104893	-0.002797	0.009101	0.006186	-0.590576	0.170166	-1.182617	-6.463928	35.331227	107.463818
37601		-5.752234	-0.905569	8.151899	-0.005087	0.007463	0.005300	-0.584473	0.166992	-1.184570	-6.464812	35.335948	107.464114
37602		-5.769623	-0.902647	8.080063	-0.001866	0.010783	0.005993	-0.587891	0.167725	-1.181396	-6.463632	35.341356	107.464686
37603		-5.748114	-0.906526	8.174664	-0.006398	0.003152	0.004412	-0.583984	0.168945	-1.184814	-6.465428	35.343565	107.464703
37604		-5.771579	-0.884045	8.130543	-0.006279	0.003928	0.001864	-0.591309	0.167236	-1.186279	-6.468126	35.344819	107.462939
37605		-5.747855	-0.926014	8.122880	-0.003176	0.006472	0.005105	-0.586182	0.160889	-1.179199	-6.467949	35.348963	107.463177
37606		-5.760299	-0.905006	8.126302	-0.001218	0.001123	0.005100	-0.582520	0.158691	-1.188477	-6.466296	35.348826	107.463931
37607		-5.780801	-0.917537	8.130544	-0.002959	-0.001464	0.002938	-0.586426	0.167725	-1.192139	-6.466506	35.348312	107.463284
37608		-5.760161	-0.905048	8.126395	-0.003890	-0.003146	0.003131	-0.591553	0.163086	-1.184814	-6.466975	35.345636	107.462986
37609		-5.759870	-0.905129	8.126592	-0.003460	-0.004871	0.004404	-0.585449	0.165039	-1.189697	-6.466724	35.343277	107.463632
37610		-5.747605	-0.926059	8.123052	-0.003508	-0.000515	0.004214	-0.592773	0.165527	-1.182861	-6.466663	35.342165	107.463885
37611		-5.754162	-0.906068	8.150482	0.001360	-0.000044	0.001080	-0.593994	0.166260	-1.182861	-6.465213	35.342340	107.461829
37612		-5.756548	-0.870946	8.102537	-0.007803	-0.006593	-0.002466	-0.585693	0.171875	-1.181641	-6.470042	35.337332	107.457902
37613		-5.729362	-0.948776	8.143492	-0.007159	-0.002107	0.002248	-0.593018	0.167236	-1.187988	-6.472907	35.336407	107.456825
37614		-5.764528	-0.905530	8.103298	-0.006110	0.000350	-0.000493	-0.587646	0.161865	-1.182617	-6.476295	35.335504	107.453684
37615		-5.729252	-0.949910	8.143437	-0.008400	-0.001287	-0.001380	-0.586426	0.164307	-1.183350	-6.481373	35.334811	107.450010
37616		-5.740315	-0.948501	8.095854	-0.005298	0.001255	0.001862	-0.587891	0.162109	-1.180420	-6.483365	35.334595	107.448496
37617		-5.757943	-0.926826	8.075735	-0.002959	-0.001464	0.002938	-0.601563	0.170166	-1.176270	-6.483574	35.334080	107.447850
37618		-5.732810	-0.896534	8.146508	-0.005130	-0.002324	-0.000497	-0.593018	0.170166	-1.186768	-6.486281	35.331661	107.444962
37619		-5.746824	-0.929119	8.123256	-0.000835	0.003752	0.006183	-0.580566	0.163086	-1.189209	-6.484203	35.334326	107.446167
37620		-5.752825	-0.928476	8.099124	-0.009857	0.007471	-0.002837	-0.589355	0.180420	-1.187744	-6.491003	35.337355	107.440832
37621		-5.756335	-0.963459	8.122940	-0.003604	0.008198	0.003836	-0.593994	0.166748	-1.184570	-6.491664	35.342399	107.440045
37622		-5.754093	-0.929181	8.098142	-0.005895	0.006561	0.002950	-0.596436	0.163818	-1.179688	-6.493839	35.345282	107.438801
37623		-5.749195	-0.930442	8.121426	-0.004964	0.008243	0.002757	-0.588379	0.162109	-1.189697	-6.495716	35.350282	107.437257
37624		-5.723953	-0.918988	8.140391	-0.006181	0.009365	0.007858	-0.580566	0.173340	-1.185059	-6.496183	35.355093	107.439267
37625		-5.738800	-0.951571	8.116531	-0.005130	0.011824	0.005118	-0.586182	0.170898	-1.187500	-6.497368	35.362285	107.439086
37626		-5.711093	-0.905545	8.110898	-0.003816	0.016137	0.006010	-0.596924	0.166748	-1.186279	-6.497556	35.370846	107.439224
37627		-5.759081	-0.929562	8.094552	-0.004102	0.018942	0.010920	-0.583252	0.168457	-1.174805	-6.496133	35.382466	107.442528
37628		-5.725535	-0.973392	8.133574	-0.009540	0.019124	0.006601	-0.592773	0.158447	-1.185303	-6.499493	35.392761	107.442869
37629		-5.733195	-0.972556	8.108270	-0.005597	0.032065	0.009282	-0.588379	0.166016	-1.181396	-6.500194	35.411745	107.443985
37630		-5.730395	-0.973389	8.130151	-0.004234	0.032024	0.010365	-0.584961	0.180176	-1.173096	-6.499592	35.429626	107.445929
37631		-5.750733	-0.951035	8.108143	-0.000580	0.033620	0.012337	-0.590820	0.165283	-1.183350	-6.496251	35.449693	107.449057
37632		-5.771238	-0.928424	8.086019	-0.000193	0.036257	0.013426	-0.586182	0.161621	-1.181152	-6.492309	35.470190	107.452776
37633		-5.769031	-0.928481	8.107572	0.003967	0.041264	0.013939	-0.587646	0.168701	-1.185547	-6.486060	35.494712	107.456421
37634		-5.739774	-0.935687	8.097508	0.001984	0.037130	0.016872	-0.593750	0.169922	-1.181885	-6.479497	35.515934	107.462503
37635		-5.798690	-0.903039	8.059185	0.007506	0.042093	0.018470	-0.588623	0.166992	-1.189941	-6.469409	35.541220	107.469262
37636		-5.779077	-0.924537	8.100865	0.004025	0.036924	0.014136	-0.582520	0.167969	-1.181396	-6.462775	35.562148	107.473447
37637		-5.823028	-0.948194	8.107270	0.006537	0.030923	0.021585	-0.585938	0.167480	-1.185791	-6.451447	35.581274	107.483285
37638		-5.830563	-0.945592	8.082159	0.003007	0.016246	0.020165	-0.581055	0.169189	-1.187012	-6.441985	35.590837	107.493335
37639		-5.715374	-0.937478	8.104729	0.008366	0.024795	0.024129	-0.581299	0.155273	-1.185059	-6.428280	35.606634	107.505451
37640		-5.813777	-0.929306	8.075747	0.003570	0.015609	0.027625	-0.582764	0.160156	-1.186279	-6.415417	35.616314	107.520792
37641		-5.605423	-1.050419	8.171331	0.008912	0.042394	0.028309	-0.581299	0.170898	-1.183838	-6.400486	35.642394	107.534465
37642		-5.991856	-0.827746	8.089767	-0.001640	0.040575	0.032202	-0.584229	0.166504	-1.171387	-6.389890	35.666561	107.551046
37643		-5.727263	-1.000205	8.170170	-0.018584	0.023384	0.035044	-0.578125	0.170410	-1.180420	-6.387071	35.682243	107.570950
37644		-5.687391	-0.993283	8.109088	-0.008052	0.029583	0.030982	-0.577881	0.164551	-1.184082	-6.380136	35.700089	107.587547
37645		-5.876410	-0.839048	8.080445	-0.025333	0.037507	0.026535	-0.572021	0.174316	-1.182373	-6.385296	35.723269	107.600387
37646		-5.724471	-0.947989	8.237894	-0.019112	0.060854	0.029788	-0.580566	0.169189	-1.188232	-6.386605	35.758849	107.613691
37647		-5.755096	-0.977641	8.162860	-0.009715	0.078023	0.036676	-0.579590	0.165771	-1.186035	-6.380496	35.805745	107.630479
37648		-5.890428	-0.873150	8.116925	-0.022083	0.063813	0.032557	-0.571533	0.167969	-1.185303	-6.382486	35.843149	107.645519
37649		-5.889110	-0.821103	8.163384	-0.024442	0.074998	0.022397	-0.567871	0.175537	-1.183594	-6.390525	35.887413	107.652527
37650		-5.902686	-0.874136	8.107908	-0.028909	0.077214	0.026624	-0.570801	0.168701	-1.188232	-6.399463	35.932104	107.662336
37651		-5.818268	-0.880491	8.107590	-0.024708	0.081935	0.018438	-0.575684	0.167969	-1.184570	-6.409608	35.980067	107.666001
37652		-5.899758	-0.808903	8.096512	-0.023024	0.102063	0.019946	-0.572510	0.168945	-1.188721	-6.419068	36.038472	107.669164
37653		-5.966380	-0.812630	8.078144	-0.025270	0.096093	0.019238	-0.566650	0.172119	-1.191895	-6.429867	36.094548	107.672255
37654		-5.846492	-0.882112	8.066901	-0.023802	0.078253	0.012290	-0.572510	0.166992	-1.181152	-6.441824	36.138924	107.671894
37655		-5.951902	-0.822813	8.036961	-0.034286	0.063021	0.007917	-0.561768	0.165527	-1.183838	-6.460957	36.175444	107.669610
37656		-5.900762	-0.875231	8.018087	-0.026714	0.072153	0.006667	-0.574707	0.166504	-1.179199	-6.476635	36.216005	107.665774
37657		-5.903292	-0.842558	7.989306	-0.029557	0.075881	0.006882	-0.570068	0.166748	-1.178223	-6.494119	36.259777	107.661698
37658		-5.919696	-0.930744	7.957919	-0.018288	0.073456	0.008144	-0.564453	0.167725	-1.178711	-6.504431	36.301172	107.658778
37659		-5.945437	-0.944403	7.957830	-0.024855	0.052894	0.009720	-0.563721	0.169189	-1.179688	-6.516958	36.332043	107.658533
37660		-5.830954	-0.886643	8.007013	-0.018991	0.046271	0.006779	-0.562500	0.166748	-1.176758	-6.526972	36.357908	107.656792
37661		-5.989232	-0.883626	7.962416	-0.014931	0.046128	0.010058	-0.569824	0.174072	-1.182129	-6.533354	36.384949	107.657320
37662		-5.949623	-0.894932	8.000265	-0.012850	0.032745	0.007813	-0.564697	0.176025	-1.172119	-6.538768	36.403186	107.657396
37663		-5.914652	-0.904994	8.014658	-0.010551	0.034387	0.008734	-0.561523	0.168701	-1.178467	-6.542634	36.423457	107.657933
37664		-5.929363	-0.884254	8.016180	-0.009737	0.030912	0.011269	-0.565186	0.169434	-1.181152	-6.544723	36.440889	107.660600
37665		-5.928226	-0.938917	8.011212	-0.012417	0.022242	0.009407	-0.561279	0.172363	-1.177246	-6.548791	36.454291	107.662598
37666		-5.902515	-0.946547	7.978602	-0.009715	0.022141	0.011593	-0.560791	0.166016	-1.182129	-6.550304	36.466760	107.666207
37667		-5.906234	-0.927878	8.028500	-0.007814	0.021132	0.011407	-0.567383	0.166016	-1.181641	-6.550839	36.479661	107.669710
37668		-5.945627	-0.918320	8.010711	-0.009558	0.018538	0.009209	-0.562988	0.171631	-1.179443	-6.553096	36.489928	107.671922
37669		-5.910964	-0.892224	7.978121	-0.007553	0.018615	0.015222	-0.557861	0.174072	-1.177490	-6.551752	36.501645	107.678332
37670		-5.963948	-0.914473	7.936811	-0.005653	0.017604	0.015036	-0.562500	0.173340	-1.187500	-6.549270	36.511772	107.684746
37671		-5.978853	-0.874695	7.990876	-0.007490	0.005140	0.006951	-0.561035	0.163086	-1.181885	-6.550720	36.515278	107.686395
37672		-5.978863	-0.874988	7.990837	-0.005684	-0.005742	0.000878	-0.565186	0.170898	-1.183350	-6.553086	36.511208	107.684685
37673		-5.945329	-0.883757	7.984157	-0.001875	-0.016548	0.000817	-0.558350	0.164307	-1.186523	-6.552854	36.501968	107.683755
37674		-5.990212	-0.907447	7.968952	-0.002709	-0.021538	0.007349	-0.571533	0.167480	-1.175293	-6.550018	36.489344	107.687915
37675		-5.867815	-0.955868	7.992951	0.002061	-0.039431	0.007433	-0.565918	0.166016	-1.178711	-6.543641	36.467511	107.693527
37676		-6.000451	-0.920159	8.000717	-0.001732	-0.037399	0.007813	-0.574463	0.164551	-1.186035	-6.539296	36.445897	107.699297
37677		-5.939849	-0.933706	8.114667	0.005557	-0.029841	0.011679	-0.563721	0.169922	-1.176758	-6.529601	36.429799	107.707127
37678		-5.935903	-0.879431	8.143545	0.002708	-0.026124	0.011885	-0.566895	0.171875	-1.178223	-6.521554	36.414878	107.714853
37679		-5.923889	-0.880812	8.192691	0.002703	-0.021733	0.011728	-0.567139	0.168457	-1.181152	-6.513872	36.403396	107.722053
37680		-5.748397	-0.960851	8.252037	-0.000985	0.003009	0.008763	-0.563477	0.167969	-1.178223	-6.510641	36.404847	107.725218
37681		-5.956358	-0.871446	8.200267	-0.010620	0.007296	0.012255	-0.568848	0.171387	-1.180176	-6.511764	36.409924	107.730447
37682		-5.823731	-1.013384	8.312898	-0.021106	0.045780	0.012105	-0.562256	0.176270	-1.185791	-6.520704	36.435913	107.732524
37683		-5.787295	-1.114079	8.369720	-0.029894	0.091892	0.031512	-0.557129	0.169434	-1.182617	-6.528833	36.490401	107.744537
37684		-5.528793	-1.308815	8.570284	-0.046531	0.162527	0.056035	-0.558105	0.170166	-1.184570	-6.539481	36.585663	107.768237
37685		-5.119730	-1.580426	8.927466	-0.069736	0.312095	0.128800	-0.557129	0.176514	-1.177246	-6.539849	36.771848	107.831400
37686		-4.725656	-1.729410	9.102562	-0.086177	0.683456	0.250503	-0.548828	0.177490	-1.181396	-6.515292	37.176129	107.951287
37687		-4.785003	-0.772684	9.854710	-0.226293	0.967844	0.273599	-0.538818	0.171875	-1.187744	-6.573944	37.745043	108.064972
37688		-4.420448	-0.872604	10.750826	-0.388917	1.259721	0.219977	-0.520752	0.177734	-1.177002	-6.764357	38.475094	108.114588
37689		-5.864712	-0.488832	10.037958	-0.406438	1.439686	0.240121	-0.495850	0.183350	-1.182373	-6.966580	39.310618	108.160446
37690		-6.145666	-0.006505	9.951824	-0.617021	1.540297	0.240387	-0.480957	0.195068	-1.168701	-7.297579	40.201492	108.192750
37691		-6.953073	0.320937	10.096600	-0.868706	1.571614	0.217134	-0.459717	0.205811	-1.158691	-7.791048	41.110584	108.196454
37692		-7.388704	-0.678807	9.751559	-1.099962	1.500688	0.161846	-0.445068	0.213623	-1.174561	-8.447317	41.972688	108.154072
37693		-7.397603	-1.903020	9.514870	-1.189661	1.369154	0.125062	-0.422607	0.227295	-1.154053	-9.174198	42.758906	108.084172
37694		-7.960484	-2.038188	9.114302	-1.200976	1.163188	0.186752	-0.409424	0.243896	-1.155029	-9.866551	43.431462	108.074904
37695		-7.393486	-2.178593	8.841115	-1.259666	1.018282	0.264893	-0.389160	0.257568	-1.151611	-10.544625	44.032531	108.135381
37696		-6.423791	-2.842475	8.814291	-1.165438	0.799548	0.288477	-0.381592	0.268066	-1.142822	-11.138189	44.510969	108.238780
37697		-6.323056	-4.211388	8.291955	-0.896093	0.695929	0.280847	-0.378174	0.270996	-1.145996	-11.573544	44.933517	108.347085
37698		-7.018716	-3.658893	9.090365	-0.501316	0.574220	0.294302	-0.363281	0.277588	-1.136230	-11.762428	45.286906	108.483445
37699		-5.937922	-2.489518	8.991923	-0.210088	0.366789	0.244567	-0.365234	0.276123	-1.136475	-11.787638	45.521150	108.614473
37700		-4.459936	-1.318782	8.729303	-0.083969	0.241948	0.225860	-0.353760	0.276611	-1.134277	-11.736232	45.679956	108.751557
37701		-3.402351	-0.634761	8.575134	-0.121093	0.200402	0.261390	-0.345215	0.284912	-1.127930	-11.679484	45.822698	108.925041
37702		-3.197054	-0.423736	8.368740	-0.243487	0.191865	0.328956	-0.341797	0.281250	-1.124268	-11.652332	45.964585	109.154823
37703		-3.519947	-0.621589	8.147490	-0.360435	0.140702	0.425104	-0.351807	0.278564	-1.129150	-11.628948	46.092611	109.471681
37704		-3.684213	-0.796209	7.948831	-0.409867	0.015143	0.520633	-0.346436	0.278809	-1.120850	-11.562302	46.156579	109.887436
37705		-3.236252	-1.115035	7.727688	-0.397804	-0.122973	0.614965	-0.342285	0.287598	-1.117920	-11.416621	46.157645	110.402861
37706		-2.912766	-1.152907	7.735093	-0.359152	-0.216479	0.708395	-0.360596	0.277100	-1.120850	-11.183599	46.110520	111.008984
37707		-3.019815	-0.936428	7.857773	-0.340646	-0.293720	0.774513	-0.357666	0.281738	-1.114502	-10.893710	46.030257	111.679921
37708		-3.346851	-1.072727	7.930611	-0.340554	-0.378554	0.796082	-0.357178	0.285889	-1.110596	-10.584182	45.896545	112.379420
37709		-3.663502	-1.169261	8.113674	-0.364486	-0.464393	0.784041	-0.362549	0.273926	-1.121338	-10.289537	45.716215	113.079038
37710		-4.059472	-1.461121	8.120449	-0.375270	-0.589754	0.756574	-0.372559	0.276611	-1.120850	-10.008960	45.453855	113.770438
37711		-4.362341	-1.656027	8.272777	-0.376757	-0.716455	0.691215	-0.371826	0.278564	-1.124023	-9.760043	45.117423	114.421867
37712		-4.658650	-1.767011	8.176510	-0.372974	-0.841253	0.580581	-0.389404	0.286621	-1.117676	-9.567124	44.691524	114.995589
37713		-4.856320	-2.073731	8.044385	-0.348454	-0.956092	0.428696	-0.395264	0.287109	-1.119873	-9.440884	44.191804	115.458364
37714		-4.919887	-2.307336	7.850498	-0.297711	-1.049900	0.260054	-0.406006	0.274170	-1.124756	-9.376397	43.615784	115.795240
37715		-4.955033	-2.537857	7.686110	-0.221641	-1.096774	0.078936	-0.421143	0.276855	-1.115234	-9.365177	43.003141	115.994018
37716		-5.032833	-2.667842	7.477833	-0.124441	-1.132988	-0.104291	-0.437744	0.286377	-1.120361	-9.394576	42.345738	116.053975
37717		-5.208889	-2.693369	7.335005	0.002927	-1.137155	-0.286715	-0.445068	0.286865	-1.120117	-9.443044	41.676107	115.976273
37718		-5.212918	-2.564384	7.211937	0.134429	-1.128741	-0.471774	-0.471436	0.276367	-1.130127	-9.508345	40.986344	115.759150
37719		-5.419960	-2.216984	7.267077	0.251631	-1.100192	-0.658928	-0.482910	0.280273	-1.125000	-9.594098	40.302077	115.403304
37720		-5.520872	-2.104742	7.337947	0.342659	-1.056181	-0.818202	-0.493896	0.274414	-1.123779	-9.701542	39.619455	114.928832
37721		-5.700486	-1.902059	7.341235	0.412425	-1.012209	-0.938149	-0.516602	0.261230	-1.132080	-9.818231	38.956767	114.368446
37722		-5.961102	-1.716216	7.357585	0.464493	-0.978220	-1.024891	-0.523926	0.256104	-1.132568	-9.938866	38.296354	113.747319
37723		-6.225177	-1.550640	7.324273	0.500387	-0.961035	-1.094239	-0.536377	0.250000	-1.133301	-10.059365	37.645205	113.082469
37724		-6.340268	-1.439376	7.229164	0.530812	-0.920938	-1.138775	-0.555664	0.241211	-1.135742	-10.175391	37.003713	112.387786
37725		-6.464384	-1.481253	7.158337	0.547557	-0.875879	-1.140539	-0.561035	0.234619	-1.132813	-10.274453	36.393811	111.693943
37726		-6.880826	-1.481100	7.007184	0.573943	-0.825473	-1.116370	-0.576416	0.227539	-1.131592	-10.343581	35.806782	111.016521
37727		-7.271606	-1.525195	6.746464	0.609574	-0.794172	-1.080764	-0.591553	0.214844	-1.128418	-10.370628	35.247809	110.365737
37728		-7.333435	-1.567380	6.487857	0.654433	-0.766812	-1.043519	-0.587891	0.208496	-1.134521	-10.352375	34.701209	109.741239
37729		-7.374110	-1.510591	6.235512	0.694077	-0.711218	-1.007327	-0.598145	0.195557	-1.134033	-10.293826	34.196852	109.138439
37730		-7.258772	-1.423449	5.887825	0.707347	-0.609196	-0.964312	-0.614746	0.188721	-1.135254	-10.213417	33.748641	108.554698
37731		-7.094773	-1.374635	5.584412	0.691889	-0.478659	-0.933382	-0.622803	0.172119	-1.134277	-10.133796	33.384219	107.978355
37732		-6.896495	-1.288273	5.334832	0.665565	-0.288208	-0.898205	-0.637695	0.170654	-1.138428	-10.065977	33.125553	107.404110
37733		-6.950378	-1.124356	5.014477	0.600321	-0.079532	-0.868789	-0.629639	0.160400	-1.139160	-10.035506	32.993795	106.826036
37734		-6.864525	-1.166688	4.792462	0.531243	0.155723	-0.834676	-0.625000	0.153564	-1.136963	-10.047136	32.992995	106.243089
37735		-7.007973	-1.300355	4.503424	0.476553	0.403116	-0.770720	-0.626709	0.142334	-1.133057	-10.083103	33.143219	105.673346
37736		-7.293635	-1.317343	4.216427	0.453179	0.650330	-0.666377	-0.614014	0.142090	-1.133789	-10.113339	33.438456	105.142556
37737		-7.477733	-1.338750	3.980799	0.469410	0.876293	-0.519191	-0.605957	0.133789	-1.135498	-10.097734	33.880536	104.682108
37738		-6.726666	-4.551111	4.282625	0.696388	1.148258	-0.308976	-0.586914	0.116943	-1.135254	-9.894987	34.493778	104.330282
37739		-6.591456	-1.352215	1.922251	1.068730	1.930665	0.468869	-0.558838	0.110107	-1.140381	-9.225401	35.629221	104.426663
37740		-36.428029	-16.256717	4.138000	2.603887	2.355234	2.018954	-0.527100	0.078369	-1.131836	-7.031239	37.125478	105.608528
37741		-30.166395	24.828307	8.202569	0.285529	-1.165211	0.222395	-0.549316	0.073242	-1.133301	-6.713086	36.478017	105.863419
37742		0.324961	1.995937	5.732458	0.077512	-1.037683	0.166561	-0.562256	0.068115	-1.131348	-6.548936	35.899412	106.063072
37743		-8.030041	-1.185163	9.473899	0.394192	-0.606049	0.135974	-0.572998	0.062744	-1.126709	-6.239353	35.563140	106.203260
37744		-5.913357	-1.069511	10.680423	0.243137	-1.042494	-0.041292	-0.583008	0.072266	-1.130615	-6.070903	34.967478	106.250204
37745		-0.258741	-2.735538	12.872860	0.083489	-0.236461	0.046190	-0.591309	0.061279	-1.130371	-5.994513	34.835674	106.296859
37746		-7.208665	-0.595026	8.659692	0.034010	0.435461	0.040697	-0.581787	0.055908	-1.134033	-5.976636	35.086238	106.290672
37747		-5.970147	-0.667576	7.513779	-0.060204	0.197206	0.017923	-0.580322	0.057129	-1.134033	-6.012002	35.199831	106.285927
37748		-5.659091	-0.946635	7.924611	-0.036300	0.113625	0.027026	-0.572266	0.062744	-1.131348	-6.026351	35.266318	106.293698
37749		-5.480694	-0.778684	7.926880	-0.017079	0.167703	0.048110	-0.581055	0.068359	-1.134033	-6.023625	35.364914	106.312122
37750		-6.535222	-0.365846	7.389498	-0.005225	0.119375	0.030582	-0.572998	0.064941	-1.128174	-6.018956	35.434882	106.321964
37751		-6.186330	-0.362602	7.957107	-0.034364	-0.015198	-0.007599	-0.576904	0.063477	-1.127930	-6.040847	35.425911	106.314957
37752		-5.746505	-1.189897	8.289116	-0.038908	-0.009363	-0.021057	-0.573730	0.056396	-1.131348	-6.070803	35.419539	106.298241
37753		-5.927548	-1.189175	8.130591	-0.008661	-0.012756	-0.002054	-0.568848	0.058105	-1.132568	-6.075819	35.412291	106.294939
37754		-5.910877	-0.838029	8.136652	-0.006872	-0.023999	0.003292	-0.579346	0.064941	-1.134521	-6.076989	35.399043	106.296302
37755		-5.857543	-0.868204	8.151533	-0.010866	-0.047603	-0.002494	-0.576660	0.061768	-1.131348	-6.081942	35.371915	106.295289
37756		-5.799604	-0.934132	8.216127	-0.024459	-0.066317	-0.007375	-0.571777	0.068604	-1.138184	-6.095674	35.333917	106.292356
37757		-5.780323	-0.923878	8.190717	-0.037538	-0.037845	-0.010997	-0.571777	0.063477	-1.136475	-6.119752	35.311830	106.284694
37758		-5.799904	-0.978910	8.071446	-0.037030	-0.043913	-0.009492	-0.580322	0.070068	-1.136475	-6.142501	35.286454	106.278634
37759		-5.775523	-1.038147	8.142727	-0.027736	-0.045960	-0.005514	-0.573486	0.065918	-1.132324	-6.158382	35.260076	106.275432
37760		-5.843663	-0.865806	8.041825	-0.016865	-0.070602	0.003167	-0.571777	0.066162	-1.133545	-6.163336	35.220272	106.280215
37761		-5.767330	-0.684057	8.233528	-0.031758	-0.040398	-0.002798	-0.575684	0.064209	-1.126709	-6.180660	35.197228	106.278503
37762		-5.786941	-0.665810	8.191658	-0.049990	-0.048558	-0.012613	-0.588135	0.065674	-1.124756	-6.211859	35.169012	106.270657
37763		-5.750545	-0.822064	8.181700	-0.066662	-0.026408	-0.026650	-0.575195	0.062256	-1.139160	-6.259344	35.152451	106.251295
37764		-5.773446	-0.788051	8.189022	-0.078065	-0.010270	-0.031044	-0.581543	0.065918	-1.136230	-6.315646	35.144868	106.227747
37765		-5.726033	-0.913677	8.199536	-0.077701	0.001882	-0.032929	-0.576660	0.072754	-1.135498	-6.373204	35.143989	106.201864
37766		-5.776759	-0.944596	8.160649	-0.048624	-0.020057	-0.020430	-0.575928	0.059082	-1.134033	-6.407921	35.131468	106.186493
37767		-5.792832	-0.907171	8.193134	-0.019654	-0.052275	-0.002440	-0.582275	0.068604	-1.135254	-6.417560	35.101680	106.186079
37768		-5.736232	-0.832431	8.260548	-0.043874	-0.034917	-0.015264	-0.579834	0.075684	-1.137451	-6.446800	35.081020	106.175487
37769		-5.696514	-0.899575	8.251441	-0.051061	-0.027590	-0.015979	-0.579834	0.067871	-1.135986	-6.480945	35.064411	106.163743
37770		-5.785582	-0.974293	8.171170	-0.059485	-0.019450	-0.020313	-0.576172	0.067871	-1.130127	-6.521815	35.052202	106.148454
37771		-5.697081	-0.856158	8.255559	-0.047672	-0.018011	-0.011877	-0.577637	0.070313	-1.130859	-6.552797	35.041301	106.138829
37772		-5.775192	-1.024462	8.093194	-0.063565	0.005084	-0.023486	-0.579102	0.074219	-1.139160	-6.598381	35.042823	106.119392
37773		-5.786608	-0.862862	8.252013	-0.029455	-0.025085	-0.013784	-0.587646	0.074951	-1.143311	-6.619348	35.027761	106.109029
37774		-5.777983	-0.959600	8.147943	-0.041043	-0.015153	-0.021538	-0.586914	0.080078	-1.135742	-6.650306	35.017880	106.092584
37775		-5.670868	-0.881471	8.201381	-0.040315	-0.009885	-0.019390	-0.584717	0.072021	-1.133057	-6.680423	35.011086	106.077112
37776		-5.729995	-0.943489	8.163253	-0.036147	0.000291	-0.021644	-0.575684	0.081055	-1.135010	-6.709326	35.009967	106.059350
37777		-5.731165	-0.948657	8.161832	-0.055365	0.034183	-0.028348	-0.585938	0.068848	-1.134766	-6.753707	35.027632	106.034049
37778		-5.708298	-1.046135	8.127240	0.020998	-0.011794	-0.008274	-0.587402	0.082275	-1.136719	-6.743971	35.020518	106.026569
37779		-5.680032	-0.948015	8.147798	-0.047486	0.041899	-0.019738	-0.583252	0.075195	-1.133545	-6.780782	35.043143	106.006599
37780		-5.681043	-0.918195	8.120432	-0.040201	0.045149	-0.015813	-0.584961	0.078857	-1.137695	-6.811838	35.067903	105.989163
37781		-5.823967	-1.102676	8.019717	-0.005300	0.015574	-0.012524	-0.581543	0.077393	-1.134277	-6.820373	35.076027	105.976359
37782		-5.668509	-0.924587	8.188407	-0.009374	0.030597	-0.012729	-0.583252	0.079102	-1.135254	-6.831869	35.092716	105.962251
37783		-5.679530	-1.032304	8.108805	-0.009405	0.055018	-0.012633	-0.585693	0.074951	-1.142334	-6.844703	35.123267	105.946072
37784		-5.715051	-0.972553	8.140422	-0.014482	0.043158	-0.010191	-0.579834	0.073242	-1.134277	-6.858738	35.147258	105.932660
37785		-5.724483	-0.973457	8.113690	-0.014835	0.055455	-0.008230	-0.580811	0.069336	-1.134033	-6.872968	35.178353	105.919480
37786		-5.622397	-0.981217	8.184746	-0.014929	0.084262	-0.008307	-0.577637	0.076904	-1.139893	-6.888522	35.225843	105.903900
37787		-5.645014	-1.014864	8.155155	0.003602	0.143639	-0.005850	-0.578125	0.079590	-1.138916	-6.895559	35.307257	105.884917
37788		-5.663661	-1.012750	8.122361	0.023630	0.179934	0.012485	-0.574707	0.081299	-1.137451	-6.885356	35.410570	105.875734
37789		-5.838258	-1.008605	8.048970	0.036292	0.167149	0.011618	-0.567871	0.076416	-1.122314	-6.867797	35.506560	105.866952
37790		-5.817927	-0.958580	8.058913	0.054422	0.159358	0.012353	-0.565918	0.080811	-1.136230	-6.839000	35.598159	105.859462
37791		-5.851031	-1.020517	8.028281	0.039396	0.134836	0.011597	-0.559814	0.070557	-1.136475	-6.818068	35.675771	105.853453
37792		-5.820308	-0.991295	8.013278	0.031945	0.110725	0.009885	-0.568115	0.074463	-1.135742	-6.800765	35.739543	105.848371
37793		-5.856146	-0.981293	8.038900	0.022003	0.093947	0.015576	-0.562012	0.070801	-1.136963	-6.786155	35.794165	105.848617
37794		-5.867822	-0.924229	8.036741	0.025768	0.081411	0.011987	-0.563477	0.071533	-1.134033	-6.770091	35.841406	105.847487
37795		-5.896730	-0.899600	7.988306	0.021840	0.067338	0.003146	-0.554932	0.062500	-1.130859	-6.759368	35.880049	105.841256
37796		-5.891448	-0.952967	8.006364	0.015533	0.042315	0.005007	-0.566895	0.070801	-1.135254	-6.750117	35.904582	105.838501
37797		-5.851549	-0.960830	8.044421	0.013536	0.038135	0.007918	-0.557861	0.066406	-1.130127	-6.740760	35.926932	105.838061
37798		-5.892222	-0.950833	8.026161	0.008532	0.026993	0.007756	-0.553955	0.072266	-1.134521	-6.733641	35.942935	105.838516
37799		-5.901799	-0.983572	8.025725	0.000170	0.011693	0.009408	-0.560059	0.076904	-1.123535	-6.730035	35.950339	105.841324
37800		-5.882073	-0.970004	8.021322	-0.000004	0.001354	0.014862	-0.568604	0.079102	-1.139893	-6.723630	35.952235	105.848900
37801		-5.856335	-0.957057	8.041387	0.001247	-0.009302	0.012703	-0.557617	0.072998	-1.131104	-6.717026	35.947912	105.855765
37802		-5.875508	-0.915493	8.072392	-0.000307	-0.005673	0.013967	-0.566162	0.075928	-1.137939	-6.710827	35.945749	105.863291
37803		-5.861706	-0.882268	8.096096	-0.007510	-0.013315	0.010170	-0.568359	0.072754	-1.133789	-6.710092	35.938972	105.868705
37804		-5.858564	-0.901817	8.045813	-0.011925	-0.015856	0.005823	-0.559326	0.073242	-1.127686	-6.713409	35.930465	105.871353
37805		-5.827249	-0.944498	8.063823	-0.010296	-0.018411	0.010722	-0.560791	0.074463	-1.133057	-6.713797	35.920826	105.877576
37806		-5.846541	-0.957675	8.068593	-0.014753	-0.011117	0.012163	-0.555420	0.073975	-1.132813	-6.716348	35.915435	105.884289
37807		-5.837828	-0.924639	8.068413	-0.016669	-0.010133	0.012345	-0.558350	0.070313	-1.134277	-6.720121	35.910616	105.890967
37808		-5.842183	-0.870919	8.071127	-0.020032	0.005099	0.017040	-0.560547	0.065430	-1.134766	-6.724475	35.914775	105.899763
37809		-5.853372	-0.886411	8.121841	-0.026448	0.021855	0.009589	-0.558838	0.076904	-1.134766	-6.736542	35.927973	105.901854
37810		-5.918768	-0.945364	8.057971	-0.031696	0.003410	-0.000179	-0.556641	0.078125	-1.138184	-6.754581	35.930009	105.898698
37811		-5.765107	-0.948140	8.098269	-0.028578	0.020988	0.006154	-0.566406	0.080078	-1.132080	-6.769247	35.942483	105.898439
37812		-5.759460	-0.917308	8.095680	-0.045581	0.035807	0.002525	-0.561279	0.070313	-1.126709	-6.795719	35.963126	105.894473
37813		-5.752289	-1.064305	8.135114	-0.041360	0.061337	0.012135	-0.568115	0.077881	-1.137207	-6.817235	35.998962	105.895021
37814		-5.748035	-0.998583	8.105185	-0.033532	0.096999	0.014692	-0.562744	0.074951	-1.132324	-6.834823	36.055221	105.894435
37815		-5.876838	-1.042089	8.097680	-0.019027	0.127330	0.025441	-0.555664	0.076660	-1.134277	-6.841320	36.129507	105.898756
37816		-5.745513	-0.984791	8.260718	-0.019227	0.149346	0.024598	-0.554443	0.070557	-1.129395	-6.849234	36.216205	105.900692
37817		-5.730499	-1.184612	8.361474	0.006133	0.215905	0.028976	-0.548828	0.072021	-1.135254	-6.844270	36.341121	105.899998
37818		-5.538417	-1.320289	8.397765	0.024324	0.280731	0.044338	-0.544434	0.077148	-1.136230	-6.825551	36.503859	105.904774
37819		-5.735634	-1.412482	8.386405	0.113503	0.383243	0.082785	-0.543213	0.070801	-1.132324	-6.744642	36.727623	105.928274
37820		-5.788306	-1.355629	8.417684	0.160817	0.481001	0.104163	-0.534180	0.077881	-1.134766	-6.631920	37.008231	105.959411
37821		-5.940483	-1.148813	8.441254	0.151339	0.560919	0.141502	-0.526855	0.066406	-1.129395	-6.511907	37.336905	106.011449
37822		-6.044452	-0.919500	8.522919	0.098049	0.631485	0.155426	-0.520264	0.070557	-1.131592	-6.418959	37.706328	106.068762
37823		-6.170909	-0.509605	8.832466	0.030890	0.648638	0.132932	-0.517090	0.070313	-1.132568	-6.374500	38.084274	106.109300
37824		-6.081481	-0.231165	9.144156	0.003562	0.715971	0.099760	-0.501953	0.075439	-1.127930	-6.363432	38.498118	106.120811
37825		-5.894762	-0.054833	9.780389	-0.087320	0.749498	0.055237	-0.499023	0.076660	-1.126465	-6.426571	38.928534	106.096879
37826		-4.583673	0.913339	12.063799	-0.294507	0.941883	-0.001840	-0.489502	0.071289	-1.122070	-6.646039	39.464199	106.013442
37827		-4.469766	0.250843	11.708543	-0.476664	1.306454	-0.123305	-0.460205	0.076904	-1.127197	-7.052174	40.199089	105.802868
37828		-4.972713	-0.337107	11.221290	-0.583961	1.634247	-0.176269	-0.449219	0.084717	-1.113770	-7.574645	41.113986	105.511076
37829		-4.634713	-0.255167	11.540981	-0.679487	1.970644	-0.221270	-0.424072	0.090332	-1.116455	-8.213908	42.215044	105.132325
37830		-4.547705	-0.557067	11.540155	-0.745613	2.378550	-0.257992	-0.394043	0.094727	-1.113281	-8.965200	43.538907	104.652602
37831		-4.991702	-0.554858	11.479395	-0.797863	2.798662	-0.269987	-0.358154	0.098633	-1.102783	-9.827433	45.095677	104.070205
37832		-4.705996	-1.018394	11.295947	-0.817193	3.204582	-0.282760	-0.323242	0.120605	-1.095947	-10.800129	46.870831	103.365362
37833		-4.894605	-1.273966	10.936315	-0.762956	3.630813	-0.261529	-0.279785	0.117432	-1.075684	-11.852322	48.881165	102.533803
37834		-5.177441	-2.023763	10.067097	-0.680574	4.025308	-0.219078	-0.231689	0.129395	-1.066895	-12.978394	51.103604	101.569619
37835		-6.557921	-2.197978	9.277431	-0.527744	4.373123	-0.123847	-0.182861	0.141846	-1.041748	-14.131553	53.522731	100.492497
37836		-8.557570	-1.274935	9.056376	-0.529398	4.711331	-0.078691	-0.136230	0.153564	-1.012695	-15.474629	56.117501	99.217638
37837		-12.456542	-1.143236	8.721518	-0.702078	4.907217	-0.081515	-0.075439	0.149902	-0.984863	-17.188328	58.802502	97.660334
37838		-14.579588	-0.416811	8.444383	-1.060919	4.686134	-0.150161	-0.026367	0.165283	-0.957764	-19.400790	61.321132	95.806181
37839		-13.580727	-0.504746	7.890088	-1.580664	4.354066	-0.223380	0.018066	0.179199	-0.927490	-22.239643	63.607351	93.624573
37840		-12.744053	-1.502078	6.768752	-2.071677	4.000232	-0.270626	0.058594	0.202393	-0.906006	-25.685901	65.635264	91.121482
37841		-10.984465	-3.313113	5.698270	-2.254876	3.700647	-0.169412	0.092773	0.220703	-0.868408	-29.442160	67.469728	88.433921
37842		-9.013980	-4.017314	5.369366	-2.207600	3.305230	0.002454	0.126221	0.234619	-0.841797	-33.171004	69.084722	85.778980
37843		-7.227337	-4.743490	3.972283	-1.936728	3.039428	0.265911	0.141357	0.248779	-0.816162	-36.659793	70.599276	83.242994
37844		-6.729507	-4.880528	3.124935	-1.549240	2.644445	0.506704	0.175049	0.253418	-0.790527	-39.631784	71.965838	81.039627
37845		-5.115526	-4.841147	3.421621	-1.032856	2.027754	0.716926	0.182373	0.259766	-0.775146	-41.642692	73.113908	79.550116
37846		-4.074871	-3.742653	5.443755	-0.611515	1.070827	0.937725	0.192627	0.251221	-0.765381	-42.018730	73.924340	79.520689
37847		-10.251550	-2.267867	5.920106	-0.338786	0.099902	1.303749	0.194580	0.233643	-0.769531	-40.365616	74.458244	81.438564
37848		-7.863392	-1.222440	7.865665	-0.264169	-0.849465	1.374544	0.173828	0.219971	-0.762695	-37.196801	74.566512	84.881196
37849		-3.374967	-1.737361	6.775728	-0.363219	-1.409147	1.401583	0.157959	0.213623	-0.779053	-33.372779	74.370207	89.064087
37850		-1.176790	-1.871542	5.850104	-0.311314	-1.686850	1.460770	0.148438	0.212402	-0.802002	-29.253837	73.972777	93.528069
37851		-0.549851	-1.948357	5.451973	-0.295186	-1.754287	1.487799	0.127197	0.190430	-0.798096	-25.256329	73.468573	97.866604
37852		-0.782696	-2.137199	5.074572	-0.242575	-1.761010	1.482232	0.115967	0.173828	-0.820801	-21.494595	72.871886	101.939373
37853		-1.121258	-2.438067	4.912780	-0.154696	-1.761384	1.428295	0.084717	0.164063	-0.827637	-18.054988	72.198325	105.635998
37854		-1.794832	-2.393821	4.967770	-0.053161	-1.810590	1.305653	0.067139	0.152588	-0.848145	-15.009019	71.408798	108.872193
37855		-2.520896	-2.443431	5.271169	0.043462	-1.932790	1.131362	0.033203	0.144531	-0.863281	-12.405216	70.486119	111.598444
37856		-3.216493	-2.444456	5.565801	0.127786	-2.091128	0.915791	0.019775	0.133057	-0.868408	-10.282661	69.406466	113.778203
37857		-3.883708	-2.114455	5.857650	0.167379	-2.308193	0.659563	-0.014648	0.126953	-0.887207	-8.669520	68.164121	115.403629
37858		-4.322079	-1.692684	5.987295	0.154283	-2.556620	0.365583	-0.044678	0.121094	-0.897705	-7.589412	66.735243	116.475900
37859		-4.550002	-1.495286	6.117327	0.092944	-2.807231	0.050083	-0.084961	0.106689	-0.914307	-7.017706	65.143594	117.041590
37860		-4.608346	-1.718046	6.084054	0.040911	-3.020746	-0.244159	-0.116455	0.114014	-0.929199	-6.854791	63.399880	117.195112
37861		-4.443968	-1.954917	6.173665	0.034271	-3.166840	-0.504631	-0.150635	0.112793	-0.936279	-6.969513	61.563915	117.041535
37862		-4.501601	-2.141154	6.248342	0.064598	-3.251670	-0.725940	-0.196045	0.113037	-0.949951	-7.260828	59.654502	116.663584
37863		-4.612129	-2.290660	6.409971	0.141116	-3.296294	-0.900242	-0.224365	0.113281	-0.967773	-7.620600	57.715044	116.145711
37864		-4.759364	-2.235815	6.671993	0.259599	-3.323609	-1.048612	-0.272461	0.112549	-0.977783	-7.989271	55.737184	115.525819
37865		-5.168744	-2.104676	7.236903	0.350879	-3.329127	-1.167978	-0.309082	0.105713	-0.986572	-8.343484	53.754049	114.843663
37866		-5.970858	-2.076432	7.886254	0.406253	-3.324160	-1.254840	-0.353027	0.105957	-0.987061	-8.678730	51.753974	114.129097
37867		-7.339063	-2.392133	8.142822	0.422952	-3.359723	-1.340957	-0.380859	0.094482	-0.991211	-9.004324	49.733776	113.393331
37868		-9.052627	-2.842188	7.993560	0.479824	-3.411171	-1.435989	-0.429688	0.092529	-1.000488	-9.302801	47.662989	112.628976
37869		-10.239210	-3.266204	7.586629	0.637727	-3.476477	-1.542197	-0.464844	0.083496	-0.998291	-9.515642	45.553427	111.830772
37870		-11.258423	-2.587784	7.308503	0.895750	-3.456733	-1.646900	-0.499756	0.078369	-1.000000	-9.595729	43.433483	110.983029
37871		-12.939081	-2.334914	6.760223	1.023142	-3.408819	-1.669584	-0.541748	0.063232	-0.995850	-9.573915	41.348325	110.143149
37872		-14.752738	-1.718604	5.867654	1.086229	-3.288605	-1.550014	-0.571045	0.046143	-0.994629	-9.432782	39.333721	109.398401
37873		-16.383949	-0.355839	4.918086	1.000559	-3.102570	-1.392150	-0.602783	0.038330	-0.987305	-9.254401	37.450162	108.759540
37874		-17.565860	0.956448	3.644607	0.748769	-2.848642	-1.217630	-0.634521	0.030762	-0.986328	-9.143886	35.719173	108.223482
37875		-18.142522	2.073381	2.386762	0.358639	-2.512392	-1.020135	-0.656250	0.028320	-0.990479	-9.181350	34.204986	107.796283
37876		-18.247813	2.555619	0.826791	-0.078349	-2.101571	-0.775945	-0.681152	0.022705	-0.982910	-9.388824	32.938507	107.499881
37877		-12.941192	-5.435647	3.204942	0.688857	-1.116828	-0.110373	-0.688721	0.016113	-0.985596	-8.968375	32.296739	107.544217
37878		-14.065453	0.064860	-12.087030	0.802218	0.788350	1.004682	-0.683105	0.012695	-0.981689	-8.188729	32.824594	108.136570
37879		-19.712242	11.838147	-9.554292	0.465995	1.729367	1.500750	-0.675049	0.002197	-0.980957	-7.448998	33.923312	108.992479
37880		-31.225519	-3.308260	4.799231	0.343261	3.259103	0.803021	-0.636475	-0.003418	-0.973145	-7.098894	35.832183	109.257724
37881		-46.575275	11.236879	6.001317	0.899619	-0.999464	0.695472	-0.642334	-0.015381	-0.983643	-6.252569	35.309855	109.823313
37882		5.004134	0.097179	12.073276	-0.490635	-2.467347	-0.413057	-0.664795	-0.007080	-0.981445	-6.586014	33.880971	109.727112
37883		3.023400	-12.803477	15.521347	-0.145526	-0.418653	-0.030725	-0.672852	-0.003662	-0.986084	-6.662261	33.640793	109.736601
37884		-8.018134	1.792263	8.123248	0.476908	0.848454	0.148680	-0.670410	-0.013916	-0.979736	-6.369099	34.134231	109.769237
37885		-5.505293	2.814425	7.583904	0.082176	0.375753	0.098084	-0.665039	-0.017578	-0.980469	-6.299865	34.354542	109.805295
37886		-7.309796	-0.900075	7.232456	-0.056633	0.177193	-0.017883	-0.664063	-0.019287	-0.980713	-6.346324	34.455295	109.776774
37887		-4.030743	-2.107815	8.461343	-0.068565	0.072549	0.006299	-0.667725	-0.011230	-0.979248	-6.386027	34.497139	109.772750
37888		-6.692023	-0.649324	7.838091	-0.025172	0.102706	0.059853	-0.659424	-0.008789	-0.980957	-6.380998	34.560421	109.803493
37889		-6.453791	-0.384455	8.098795	-0.089558	0.016070	-0.002789	-0.663574	-0.013672	-0.976807	-6.433834	34.569524	109.797530
37890		-5.574016	-1.608488	8.212388	-0.073024	-0.034370	0.012868	-0.662842	-0.013916	-0.977783	-6.468539	34.551885	109.806457
37891		-5.811945	-0.694981	8.321808	-0.039847	0.003289	0.034774	-0.651855	-0.012939	-0.976563	-6.477603	34.556131	109.827451
37892		-6.151303	-0.738797	8.202171	-0.058801	-0.075230	-0.000577	-0.660889	-0.013672	-0.976074	-6.507638	34.514349	109.830294
37893		-5.636614	-0.949821	8.316845	-0.049369	-0.089589	0.009913	-0.661621	-0.005859	-0.969971	-6.527761	34.464122	109.841425
37894		-5.659011	-0.980504	8.248522	-0.047962	-0.030845	0.005407	-0.658691	-0.003662	-0.983398	-6.551203	34.448009	109.844933
37895		-5.702064	-0.845490	8.272838	-0.062215	-0.029725	-0.001395	-0.663574	-0.008789	-0.984131	-6.585772	34.431123	109.843551
37896		-5.655724	-0.936598	8.255335	-0.071980	-0.017136	-0.015520	-0.661133	-0.009033	-0.974121	-6.631743	34.421424	109.831548
37897		-5.635220	-1.073865	8.264549	-0.035571	-0.007503	-0.013544	-0.658691	-0.008545	-0.983154	-6.656777	34.416378	109.820026
37898		-5.623790	-0.883033	8.302845	-0.028102	0.024952	-0.008003	-0.664063	-0.006836	-0.983154	-6.676597	34.431104	109.809824
37899		-5.777452	-0.822852	8.292931	-0.025879	0.043540	-0.016465	-0.655518	-0.003174	-0.981934	-6.699557	34.454902	109.792157
37900		-5.761778	-0.974593	8.247557	-0.014743	0.036452	-0.015354	-0.658203	-0.011230	-0.981201	-6.715122	34.475663	109.775939
37901		-5.668918	-0.950463	8.224824	-0.011108	0.017019	-0.015319	-0.667969	-0.007080	-0.984619	-6.727973	34.484438	109.761196
37902		-5.643784	-0.960282	8.191441	-0.025967	0.014002	-0.018115	-0.662842	-0.009766	-0.980957	-6.750028	34.492225	109.744885
37903		-5.665555	-0.975634	8.194571	-0.036807	0.009936	-0.015140	-0.665039	0.000000	-0.979492	-6.777214	34.496974	109.730835
37904		-5.635197	-0.934979	8.190166	-0.050041	0.003554	-0.010482	-0.663330	-0.008057	-0.987793	-6.809603	34.499311	109.720641
37905		-5.740299	-1.015985	8.158336	-0.055437	-0.005218	-0.003107	-0.663330	-0.008301	-0.977539	-6.842054	34.496245	109.716143
37906		-5.634740	-0.944053	8.189439	-0.046039	-0.001817	-0.004574	-0.658447	0.002686	-0.979248	-6.869592	34.495916	109.710469
37907		-5.709792	-0.908360	8.211153	-0.053529	-0.001920	-0.003463	-0.667969	0.003662	-0.989502	-6.901242	34.494697	109.705454
37908		-5.665130	-0.980298	8.243803	-0.036589	0.010254	-0.006285	-0.658691	-0.002197	-0.975586	-6.924597	34.501103	109.697594
37909		-5.699996	-0.953011	8.153315	-0.013709	0.004522	-0.008228	-0.664551	0.000488	-0.985840	-6.935601	34.503216	109.688751
37910		-5.604423	-0.966423	8.178003	-0.030881	0.024427	-0.007505	-0.662598	-0.007813	-0.973389	-6.956841	34.517586	109.678853
37911		-5.710711	-1.044719	8.145434	-0.011060	0.003555	-0.003529	-0.664307	-0.007813	-0.977539	-6.964448	34.519471	109.673332
37912		-5.617178	-0.949254	8.181065	-0.032401	0.010753	-0.005641	-0.657715	-0.002930	-0.980713	-6.985187	34.526182	109.665864
37913		-5.685008	-1.056077	8.112159	-0.017850	-0.009470	0.002882	-0.653320	0.003906	-0.976318	-6.993551	34.521105	109.665868
37914		-5.646475	-1.069303	8.127295	-0.030523	-0.008144	0.005981	-0.662354	-0.004395	-0.979492	-7.007766	34.517869	109.668019
37915		-5.698444	-1.056350	8.192199	-0.014758	-0.007842	0.008711	-0.663086	-0.003174	-0.980957	-7.012157	34.514126	109.671910
37916		-5.690234	-0.986884	8.146196	-0.024065	0.001776	0.009831	-0.662354	-0.000977	-0.977539	-7.021655	34.516794	109.675870
37917		-5.651887	-0.982517	8.212877	-0.011417	-0.003883	0.006849	-0.667480	-0.003662	-0.975830	-7.025049	34.515172	109.678141
37918		-5.608096	-0.941587	8.257692	0.009875	-0.031979	0.006978	-0.658447	-0.004883	-0.983398	-7.014591	34.498437	109.683001
37919		-5.689297	-0.932867	8.153029	-0.011841	0.010076	0.007810	-0.654297	-0.004150	-0.972656	-7.018526	34.504821	109.684749
37920		-5.621893	-1.114786	8.119153	-0.004401	0.001516	0.006937	-0.664063	0.000000	-0.987061	-7.017866	34.507119	109.686739
37921		-5.622386	-1.026297	8.228229	-0.000975	0.000624	0.016578	-0.655029	-0.001221	-0.970215	-7.011692	34.508741	109.695340
37922		-5.623584	-1.113710	8.118129	-0.010313	0.030356	0.022239	-0.655762	-0.001465	-0.984863	-7.009833	34.528497	109.705438
37923		-5.621570	-1.043833	8.197039	-0.003014	0.036800	0.028591	-0.664551	-0.004395	-0.984619	-7.001859	34.551529	109.719268
37924		-5.674514	-1.009597	8.184252	-0.002977	0.053371	0.030694	-0.656982	0.003418	-0.990234	-6.993593	34.584949	109.733258
37925		-5.704766	-1.054711	8.207895	0.005809	0.064840	0.035445	-0.660889	0.001465	-0.979980	-6.979198	34.624401	109.749469
37926		-5.701730	-0.997969	8.107080	0.022098	0.044053	0.032332	-0.655762	-0.008545	-0.984619	-6.955447	34.652621	109.765410
37927		-5.677478	-1.021711	8.170959	0.030910	0.047627	0.034757	-0.657227	-0.006348	-0.983887	-6.926073	34.682225	109.782645
37928		-5.635334	-0.996311	8.183237	0.013723	0.079062	0.040284	-0.662109	-0.001221	-0.986328	-6.905624	34.730888	109.801190
37929		-5.760795	-0.955244	8.110577	0.027622	0.068191	0.041086	-0.655273	-0.005371	-0.984131	-6.876569	34.772613	109.821135
37930		-5.695463	-1.009952	8.159898	0.010015	0.068998	0.038584	-0.656982	0.000488	-0.979248	-6.858375	34.815414	109.839412
37931		-5.740249	-0.940883	8.146329	0.015802	0.067385	0.032738	-0.655518	-0.006104	-0.983154	-6.839302	34.856098	109.853696
37932		-5.697850	-0.916325	8.158727	0.013741	0.054666	0.035903	-0.656982	-0.007813	-0.973633	-6.819306	34.890547	109.871355
37933		-5.840411	-0.908608	8.189496	0.004859	0.042433	0.033703	-0.654053	0.000488	-0.969482	-6.804898	34.917093	109.888420
37934		-5.653222	-0.875956	8.244348	-0.008630	0.064376	0.024987	-0.643555	-0.000732	-0.976807	-6.802475	34.956314	109.897735
37935		-5.862351	-0.919285	8.082960	-0.019247	0.074160	0.025026	-0.653564	-0.000732	-0.980713	-6.806810	35.000320	109.906167
37936		-5.770673	-0.913989	8.157813	-0.013874	0.041337	0.022528	-0.652344	-0.001953	-0.984863	-6.807252	35.026261	109.915696
37937		-5.738015	-0.872361	8.175378	-0.038793	0.051530	0.018272	-0.655029	-0.005127	-0.978027	-6.824396	35.056934	109.921309
37938		-5.732027	-0.857840	8.121261	-0.027754	0.040029	0.019504	-0.655273	-0.001953	-0.977051	-6.833921	35.081920	109.928846
37939		-5.719074	-0.920523	8.183402	-0.043296	0.073023	0.020977	-0.650879	-0.005127	-0.988525	-6.853597	35.125007	109.934533
37940		-5.731372	-0.920743	8.154730	-0.051810	0.086404	0.029516	-0.647705	0.000488	-0.980469	-6.875116	35.177052	109.945147
37941		-5.678346	-1.048322	8.097907	-0.041463	0.095024	0.030413	-0.648926	-0.007813	-0.976074	-6.891030	35.233304	109.955524
37942		-5.837539	-0.951855	8.186231	-0.030600	0.110611	0.032364	-0.652832	0.004883	-0.978027	-6.900426	35.299304	109.966062
37943		-5.656525	-0.955572	8.133996	-0.029104	0.143576	0.028970	-0.641113	-0.007568	-0.978760	-6.912198	35.383077	109.971322
37944		-5.758452	-1.017433	8.064569	-0.024852	0.152068	0.032063	-0.642334	0.000244	-0.976074	-6.920434	35.472625	109.978134
37945		-5.680811	-1.030768	8.209107	-0.020426	0.168798	0.046386	-0.638428	0.000000	-0.984863	-6.921401	35.571948	109.993412
37946		-5.675151	-1.072160	8.188818	-0.013018	0.219713	0.044479	-0.641602	0.003174	-0.974365	-6.921124	35.700808	110.003172
37947		-5.824495	-0.982144	8.363820	-0.015351	0.241177	0.044567	-0.640137	0.003174	-0.978760	-6.923450	35.841173	110.011059
37948		-5.478211	-1.209364	8.620848	0.006294	0.310315	0.048187	-0.636719	0.000732	-0.983398	-6.915052	36.021790	110.015740
37949		-5.561238	-1.691036	8.539764	0.073676	0.432927	0.077907	-0.627441	0.000244	-0.988525	-6.862017	36.273514	110.030934
37950		-5.606725	-2.029653	8.331540	0.169948	0.527030	0.139032	-0.622070	-0.004150	-0.983398	-6.732288	36.583488	110.082061
37951		-5.597690	-2.185508	8.421522	0.304935	0.702111	0.231648	-0.616455	-0.000977	-0.974609	-6.493476	36.998499	110.185978
37952		-5.799662	-1.631346	8.983593	0.308687	0.776367	0.308268	-0.607910	-0.009521	-0.977051	-6.220523	37.460780	110.341705
37953		-6.445203	-0.868647	9.613645	0.189950	0.734472	0.289963	-0.600098	-0.005615	-0.976563	-6.018671	37.897058	110.490842
37954		-5.967735	-0.288416	10.062489	0.044072	0.770036	0.213519	-0.590332	-0.016113	-0.977051	-5.933949	38.349132	110.584182
37955		-4.944791	0.201931	12.249484	-0.049673	0.948696	0.196900	-0.573975	-0.005859	-0.983643	-5.917561	38.901588	110.653049
37956		-2.978993	1.554621	14.408341	-0.210325	1.414671	0.101737	-0.564941	-0.018799	-0.976074	-6.059700	39.713990	110.615805
37957		-4.690455	-0.148466	11.792432	-0.431937	1.945577	0.020147	-0.542969	-0.010254	-0.971191	-6.400030	40.823531	110.469302
37958		-4.585679	-0.461170	11.670859	-0.499990	2.321691	-0.020849	-0.519775	0.004395	-0.977539	-6.832177	42.143017	110.246131
37959		-3.803751	-1.044135	11.736659	-0.541182	2.847106	-0.020353	-0.480225	0.005371	-0.978760	-7.340683	43.760495	109.952243
37960		-3.957527	-1.257517	11.304961	-0.538552	3.471962	0.050966	-0.444580	0.011963	-0.963867	-7.881519	45.734983	109.619234
37961		-4.769061	-0.909430	10.681174	-0.570556	4.009830	0.111902	-0.407471	0.020996	-0.955811	-8.490632	48.018235	109.230176
37962		-6.145298	-0.099726	10.182910	-0.666200	4.410061	0.110548	-0.355713	0.027588	-0.943848	-9.252300	50.522770	108.726001
37963		-7.489322	-0.141752	9.542857	-0.867618	4.710470	0.053821	-0.300537	0.026123	-0.924316	-10.295352	53.187763	108.029760
37964		-11.153130	-0.044752	8.970019	-1.169765	4.716115	-0.081564	-0.257813	0.048096	-0.911377	-11.754858	55.828901	107.057881
37965		-14.252554	-0.517464	8.952724	-1.540521	4.328871	-0.180348	-0.209473	0.061523	-0.889648	-13.635077	58.225793	105.867010
37966		-13.049152	-1.724131	7.724200	-1.979893	3.923770	-0.184000	-0.166504	0.087891	-0.885498	-15.906597	60.370502	104.542062
37967		-13.537917	-3.216324	6.246416	-2.199077	3.547217	-0.084038	-0.145264	0.102295	-0.864258	-18.348116	62.298382	103.193712
37968		-10.481686	-3.532021	5.597328	-2.161026	3.073165	0.146215	-0.115723	0.120605	-0.844482	-20.589507	63.983997	102.066715
37969		-9.015049	-3.594635	4.703738	-2.024315	2.737753	0.377740	-0.085205	0.140381	-0.833496	-22.548411	65.521880	101.181377
37970		-7.609163	-3.934073	4.455761	-1.708825	2.240801	0.590869	-0.060059	0.153809	-0.825928	-23.972277	66.832384	100.692751
37971		-6.385121	-3.651038	5.166316	-1.356230	1.651761	0.805465	-0.051270	0.166504	-0.810303	-24.679268	67.884265	100.766680
37972		-4.534697	-3.180156	6.601606	-1.026662	1.045503	0.981321	-0.041260	0.167236	-0.807617	-24.613685	68.660113	101.468182
37973		-4.533117	-2.040141	6.857617	-0.859836	0.549629	1.200784	-0.034668	0.166992	-0.797852	-23.815849	69.228969	102.848983
37974		-8.259709	-1.377806	7.089283	-0.751237	0.055172	1.353577	-0.039795	0.160645	-0.799072	-22.384159	69.558691	104.836121
37975		-5.043349	-1.701042	7.065628	-0.746934	-0.522467	1.291815	-0.039551	0.171387	-0.794922	-20.674542	69.551373	107.115388
37976		-3.249260	-1.945401	6.466679	-0.676842	-0.905740	1.257892	-0.044922	0.162598	-0.805664	-18.790622	69.302070	109.539629
37977		-1.957352	-2.190448	6.117938	-0.584264	-1.102230	1.219752	-0.063721	0.161377	-0.809326	-16.879593	68.914529	111.941411
37978		-1.599225	-2.358221	5.739345	-0.461622	-1.183699	1.148387	-0.073975	0.163818	-0.818848	-15.048973	68.438741	114.188366
37979		-1.848303	-2.531943	5.478462	-0.333291	-1.237465	1.052952	-0.083252	0.152588	-0.829102	-13.349558	67.899111	116.222735
37980		-2.277574	-2.478650	5.443794	-0.198365	-1.307053	0.904127	-0.104248	0.152588	-0.827393	-11.845683	67.276106	117.970500
37981		-2.680772	-2.568460	5.440106	-0.066414	-1.397818	0.714557	-0.120361	0.146729	-0.839600	-10.579120	66.569997	119.386534
37982		-2.987737	-2.693018	5.605479	0.074076	-1.512086	0.494487	-0.141602	0.144531	-0.847900	-9.567253	65.761069	120.444613
37983		-3.283006	-2.852101	5.695779	0.214479	-1.626004	0.270500	-0.157959	0.148193	-0.846191	-8.791309	64.866095	121.161284
37984		-3.605794	-2.924687	5.842872	0.356490	-1.734164	0.051560	-0.170654	0.136719	-0.854004	-8.225039	63.881959	121.561268
37985		-3.961445	-2.797188	5.973389	0.466769	-1.835711	-0.159029	-0.194580	0.147217	-0.870850	-7.847076	62.827831	121.682830
37986		-4.401749	-2.477768	6.151036	0.528302	-1.919422	-0.373402	-0.224854	0.136475	-0.875244	-7.670522	61.703032	121.538977
37987		-4.951534	-2.061465	6.374219	0.513178	-2.026595	-0.588438	-0.244141	0.132324	-0.880127	-7.702778	60.507292	121.164180
37988		-5.464650	-1.748986	6.553786	0.465971	-2.135030	-0.829705	-0.277100	0.126221	-0.892578	-7.964762	59.223978	120.551325
37989		-5.802083	-1.673228	6.813913	0.393860	-2.239071	-1.061288	-0.300293	0.134766	-0.891602	-8.425973	57.867535	119.743997
37990		-6.002106	-1.870614	6.976068	0.340287	-2.343593	-1.247480	-0.319580	0.131592	-0.900635	-9.013883	56.424852	118.810836
37991		-6.318885	-2.048713	7.225313	0.321366	-2.439930	-1.389005	-0.343994	0.139160	-0.903320	-9.649325	54.916294	117.816216
37992		-6.678656	-2.177449	7.435094	0.343746	-2.527177	-1.487495	-0.383545	0.126953	-0.908447	-10.270097	53.335308	116.805768
37993		-7.136280	-2.146923	7.633963	0.375293	-2.612875	-1.551420	-0.406494	0.136963	-0.916992	-10.838243	51.700665	115.816583
37994		-7.396940	-1.983808	7.813161	0.417466	-2.673117	-1.600617	-0.441406	0.134277	-0.918945	-11.345264	50.013550	114.853020
37995		-7.538503	-1.953863	7.938363	0.431743	-2.725681	-1.632564	-0.468018	0.134277	-0.910645	-11.796356	48.295845	113.927336
37996		-7.520549	-2.077938	7.967986	0.461969	-2.735445	-1.615804	-0.507568	0.136230	-0.909180	-12.165136	46.562642	113.065514
37997		-7.443568	-2.381634	7.960327	0.518370	-2.718547	-1.560901	-0.537842	0.134521	-0.918457	-12.424323	44.850177	112.285921
37998		-7.623634	-2.545549	7.930199	0.583657	-2.658205	-1.469551	-0.557373	0.126465	-0.915283	-12.566910	43.173110	111.597499
37999		-8.153957	-2.740512	7.816449	0.655883	-2.564106	-1.366182	-0.584717	0.125000	-0.913330	-12.596319	41.568622	110.993506
38000		-8.899857	-2.940688	7.557205	0.732638	-2.439022	-1.286257	-0.609131	0.110107	-0.909912	-12.535852	40.036452	110.441563
38001		-9.848453	-3.217349	7.021226	0.814750	-2.288448	-1.210559	-0.631348	0.109863	-0.906738	-12.391996	38.606354	109.928961
38002		-11.123983	-3.378358	6.301908	0.915234	-2.121841	-1.129240	-0.644775	0.097900	-0.898438	-12.159595	37.273354	109.451896
38003		-12.342250	-3.197104	5.418132	0.995050	-1.915804	-1.047705	-0.665771	0.092285	-0.897705	-11.856488	36.074713	109.001706
38004		-13.733601	-2.535615	4.441575	0.992757	-1.724768	-0.966948	-0.682617	0.078369	-0.896973	-11.532680	34.987952	108.578057
38005		-14.779136	-1.873152	3.308122	0.885318	-1.565876	-0.907066	-0.699219	0.068604	-0.894287	-11.253457	34.005716	108.172147
38006		-15.488714	-1.385038	2.302192	0.736070	-1.394447	-0.862611	-0.711670	0.070313	-0.890625	-11.051500	33.120691	107.772587
38007		-15.695317	-0.945946	1.331283	0.572424	-1.236947	-0.811104	-0.720703	0.068604	-0.882080	-10.929501	32.336317	107.388173
38008		-15.390072	-0.795446	0.572278	0.412271	-1.056968	-0.740402	-0.735107	0.062500	-0.883789	-10.882486	31.657347	107.029053
38009		-12.665227	-5.836408	1.453518	0.643321	-0.807998	-0.647899	-0.737305	0.050537	-0.885986	-10.683123	31.133077	106.700620
38010		-10.892007	-1.556578	-2.889689	1.244473	0.632543	0.355887	-0.737793	0.039307	-0.879883	-9.888243	31.523441	106.856533
38011		-11.765649	-1.833845	-5.974113	1.482901	1.072731	0.484515	-0.717773	0.033203	-0.885742	-8.930449	32.175191	107.057945
38012		-11.870745	2.300246	-4.060613	1.848046	1.834103	0.815359	-0.703369	0.012207	-0.879395	-7.673316	33.281397	107.423611
38013		-5.063524	9.247498	4.205829	0.685806	2.730250	-0.193877	-0.675781	-0.000488	-0.875977	-7.493979	34.817460	107.038788
38014		-63.425326	2.317440	19.286938	1.484423	2.144162	0.820358	-0.658936	-0.004395	-0.876221	-6.417797	36.093731	107.425664
38015		-2.006320	22.527784	6.367901	-0.073001	-2.292070	0.206332	-0.684814	-0.010010	-0.882080	-6.272418	34.801711	107.745230
38016		8.107830	-2.351808	10.711114	-0.191213	-1.872813	-0.158810	-0.691650	-0.008789	-0.882324	-6.361679	33.727521	107.776392
38017		-7.832136	-12.802628	12.349616	0.131088	0.489200	-0.012396	-0.690430	-0.001465	-0.872314	-6.311750	34.005449	107.727871
38018		-6.754768	-1.202010	7.520514	0.034472	0.163092	-0.043328	-0.687012	-0.007568	-0.874512	-6.315063	34.097081	107.683010
38019		-5.233006	2.805455	9.358022	0.092086	0.447818	0.069914	-0.687256	-0.014893	-0.875244	-6.254022	34.356640	107.694422
38020		-6.330886	-1.951969	7.320368	-0.102820	0.225739	-0.064605	-0.692627	-0.007080	-0.871826	-6.347085	34.482644	107.630041
38021		-5.032865	-0.895486	8.055770	-0.047489	0.181958	-0.016117	-0.688721	-0.009521	-0.867188	-6.388285	34.585363	107.602080
38022		-5.635819	-0.707572	7.696493	-0.049348	0.146808	-0.009329	-0.685303	-0.000732	-0.864014	-6.426025	34.669882	107.581596
38023		-6.107552	-1.303105	7.514790	-0.051649	0.077778	0.000063	-0.679932	-0.010498	-0.881348	-6.458783	34.714297	107.572768
38024		-6.012071	-1.224880	7.817863	-0.050999	0.050769	-0.000195	-0.679443	-0.004883	-0.871582	-6.489701	34.744755	107.566005
38025		-5.724598	-1.769067	7.941694	-0.014410	-0.001357	0.029610	-0.682861	-0.004395	-0.868652	-6.485936	34.746027	107.583834
38026		-5.807866	-1.348970	8.037207	0.033622	-0.028092	0.063173	-0.684814	-0.003662	-0.873291	-6.439912	34.735696	107.627127
38027		-5.971287	-0.597170	8.250163	0.050446	-0.092467	0.073525	-0.678223	-0.002441	-0.881836	-6.377641	34.687880	107.682457
38028		-5.884688	-0.306915	8.479423	0.017083	-0.085930	0.040082	-0.687988	-0.011719	-0.876221	-6.347738	34.643093	107.714159
38029		-5.718799	-0.762171	8.369185	-0.039837	-0.076767	0.007183	-0.686768	-0.006104	-0.875488	-6.364101	34.599967	107.722259
38030		-5.683928	-0.847420	8.285220	-0.078119	-0.053718	-0.012423	-0.686768	-0.003418	-0.874268	-6.410756	34.570171	107.715175
38031		-5.767846	-0.832540	8.208668	-0.098246	-0.028399	-0.028267	-0.682129	0.005127	-0.879150	-6.476595	34.552314	107.695064
38032		-5.782708	-0.926517	8.158765	-0.088508	-0.041064	-0.022778	-0.689697	-0.010010	-0.881104	-6.533766	34.529025	107.679911
38033		-5.627889	-0.886400	8.200658	-0.081610	-0.001219	-0.012683	-0.691895	-0.008789	-0.882568	-6.585156	34.527626	107.668459
38034		-5.806566	-0.826891	8.222337	-0.068173	-0.002451	-0.019482	-0.679199	-0.005615	-0.876709	-6.631101	34.526501	107.652550
38035		-5.770479	-0.807749	8.189813	-0.071923	-0.004731	-0.018866	-0.692871	0.001221	-0.875244	-6.679199	34.522676	107.637114
38036		-5.771597	-0.957020	8.331968	-0.063949	-0.005694	-0.029959	-0.688232	0.001465	-0.876953	-6.726654	34.518982	107.614244
38037		-5.610757	-1.096745	8.308830	-0.062131	0.014517	-0.019650	-0.683350	-0.001709	-0.884521	-6.770335	34.526036	107.596702
38038		-5.743190	-1.173988	8.158767	-0.044367	0.005449	-0.016717	-0.688965	-0.009277	-0.876953	-6.801915	34.529531	107.582064
38039		-5.618003	-1.229621	8.199497	-0.034221	0.012981	-0.002056	-0.693604	-0.002930	-0.879395	-6.822654	34.536891	107.576787
38040		-5.682647	-1.124970	8.196000	-0.019491	0.001703	0.006387	-0.680908	0.000244	-0.888672	-6.830800	34.539807	107.578395
38041		-5.675364	-1.055259	8.149095	-0.001238	-0.022640	0.022360	-0.681885	-0.003662	-0.871582	-6.821414	34.528564	107.592922
38042		-5.628985	-0.870595	8.201635	-0.026507	-0.018142	0.020653	-0.689209	0.006836	-0.874023	-6.827087	34.521150	107.606011
38043		-5.567236	-0.906448	8.260328	-0.034024	-0.000248	0.018523	-0.681885	0.005371	-0.883057	-6.839040	34.522385	107.616036
38044		-5.650591	-1.082355	8.193029	-0.032150	0.003076	0.018147	-0.686768	0.006592	-0.880371	-6.849909	34.526852	107.625646
38045		-5.749283	-0.948515	8.099722	-0.000279	-0.002839	0.018990	-0.683594	0.003174	-0.881104	-6.842223	34.526647	107.636207
38046		-5.680087	-1.056542	8.125747	-0.012702	0.010047	0.011441	-0.676270	0.005615	-0.873779	-6.844908	34.534615	107.640607
38047		-5.673878	-0.737885	8.244937	-0.031378	0.017496	0.008726	-0.686279	0.003418	-0.877441	-6.860012	34.545278	107.642395
38048		-5.649258	-0.745853	8.211429	0.000417	0.028936	0.008952	-0.679688	0.002930	-0.875977	-6.857034	34.563811	107.643509
38049		-5.510786	-0.890474	8.191976	0.007091	0.010159	0.008709	-0.687500	0.009277	-0.881836	-6.849758	34.570298	107.645895
38050		-5.865224	-1.027791	8.040151	-0.038336	0.030114	0.005462	-0.679199	-0.001709	-0.879883	-6.870387	34.589242	107.644510
38051		-5.651792	-0.801370	8.203544	-0.001073	0.010085	0.013611	-0.682861	0.006104	-0.878662	-6.865862	34.596024	107.650288
38052		-5.672964	-1.101751	8.085707	-0.055420	0.038571	0.010038	-0.682373	-0.002197	-0.875000	-6.894882	34.620092	107.651355
38053		-5.770156	-0.862459	8.174221	0.009977	-0.006584	0.008911	-0.682373	0.007324	-0.875488	-6.885079	34.617071	107.655275
38054		-5.569755	-0.936092	8.245606	-0.036559	0.037023	0.007503	-0.686279	0.015381	-0.886475	-6.904221	34.640080	107.654711
38055		-5.745742	-1.051353	8.050534	-0.020743	0.037618	0.010337	-0.683838	0.004639	-0.875732	-6.913561	34.662300	107.655917
38056		-5.607249	-1.198347	8.180244	-0.010593	0.041285	0.013846	-0.685791	0.000000	-0.876709	-6.915543	34.688158	107.659372
38057		-5.698355	-0.816866	8.149610	-0.015495	0.036287	0.008414	-0.679688	-0.001465	-0.882568	-6.922571	34.709488	107.659354
38058		-5.602423	-1.131705	8.151276	-0.025523	0.068461	0.009949	-0.675293	-0.002930	-0.882080	-6.935951	34.750519	107.657819
38059		-5.748188	-1.004282	8.113634	-0.004490	0.075897	0.021910	-0.683594	0.000244	-0.876709	-6.933251	34.795312	107.663804
38060		-5.719285	-1.065712	8.097004	0.010202	0.064575	0.030356	-0.685791	0.006836	-0.883789	-6.917919	34.835530	107.676729
38061		-5.806666	-1.021633	8.090621	0.035760	0.061866	0.035777	-0.679932	0.009521	-0.877197	-6.885962	34.873294	107.693540
38062		-5.680571	-0.964590	8.185478	0.017351	0.066592	0.028083	-0.679932	0.010986	-0.873047	-6.867498	34.914491	107.704769
38063		-5.747523	-1.051285	8.038936	0.023630	0.075906	0.034479	-0.682861	-0.001709	-0.887207	-6.843627	34.960142	107.719562
38064		-5.711675	-1.023693	8.177186	0.023432	0.078730	0.039462	-0.682617	-0.003418	-0.881836	-6.817690	35.009002	107.737731
38065		-5.758928	-0.972302	8.109619	0.028580	0.094050	0.039544	-0.674561	-0.000488	-0.876465	-6.789766	35.065308	107.754608
38066		-5.733987	-0.977299	8.096693	0.014796	0.080195	0.034337	-0.672363	0.002686	-0.874512	-6.770829	35.114630	107.769166
38067		-5.810261	-0.973094	8.183335	0.018373	0.089681	0.038601	-0.669678	0.001221	-0.873291	-6.748856	35.168375	107.785821
38068		-5.720555	-0.996036	8.154353	0.021333	0.082409	0.035957	-0.684570	-0.000977	-0.870605	-6.725574	35.219047	107.801386
38069		-5.813582	-0.897122	8.149199	0.016558	0.125192	0.049064	-0.676758	0.000977	-0.875244	-6.702042	35.293689	107.822497
38070		-5.800238	-0.935701	8.134461	0.004532	0.105171	0.046316	-0.668457	0.007080	-0.880859	-6.685214	35.357982	107.843496
38071		-5.757377	-0.930686	8.115454	-0.026350	0.138348	0.046854	-0.671387	-0.004639	-0.871582	-6.687694	35.439956	107.862067
38072		-5.822716	-0.933339	8.118658	-0.027195	0.149871	0.046671	-0.668457	0.000488	-0.880371	-6.690952	35.529695	107.879700
38073		-5.883203	-0.936223	7.994331	-0.013579	0.162044	0.048373	-0.667725	0.006348	-0.875732	-6.686558	35.625255	107.897428
38074		-5.939675	-0.779320	8.081184	-0.017654	0.132063	0.054911	-0.668457	0.008057	-0.880615	-6.680056	35.705403	107.922346
38075		-5.715946	-1.004904	8.006815	-0.040727	0.103088	0.046223	-0.658447	0.003418	-0.876709	-6.689203	35.767269	107.943454
38076		-5.807725	-0.876029	8.125869	-0.035894	0.158075	0.049089	-0.664063	0.010742	-0.881104	-6.696720	35.861825	107.962178
38077		-5.829680	-1.032601	8.032467	-0.005605	0.150872	0.063111	-0.665283	0.000000	-0.882813	-6.681020	35.952011	107.991253
38078		-5.831187	-0.961467	8.150458	0.008904	0.168337	0.067153	-0.662354	-0.002441	-0.882324	-6.655793	36.053585	108.021935
38079		-5.876708	-0.893807	8.175302	0.040338	0.209662	0.064680	-0.662354	0.004639	-0.876465	-6.615765	36.177312	108.047478
38080		-5.869351	-0.896299	8.282234	0.022272	0.215113	0.045551	-0.658936	0.000732	-0.889648	-6.593909	36.304035	108.059327
38081		-5.858673	-0.938295	8.459071	0.031008	0.254548	0.031008	-0.655029	0.004883	-0.875000	-6.575291	36.451080	108.057626
38082		-5.812011	-1.135759	8.688130	0.041125	0.335219	0.035489	-0.647461	0.003662	-0.883057	-6.552559	36.645462	108.052717
38083		-5.817599	-1.669805	8.324222	0.094801	0.430805	0.057246	-0.643555	0.002441	-0.877930	-6.494701	36.894549	108.055525
38084		-5.777249	-1.658740	8.257321	0.157360	0.519113	0.126419	-0.649902	-0.010498	-0.887451	-6.374992	37.199414	108.101171
38085		-5.659082	-1.221802	8.469809	0.139541	0.659058	0.185480	-0.625732	-0.007080	-0.892090	-6.245922	37.586554	108.178993
38086		-5.609125	-0.486136	8.879255	0.028888	0.768870	0.237344	-0.631592	0.000977	-0.874268	-6.161136	38.040324	108.287033
38087		-6.461400	-0.764986	8.530502	-0.084285	0.792266	0.214550	-0.625244	0.006592	-0.881104	-6.151357	38.504965	108.377783
38088		-4.641792	-0.970430	9.207508	-0.094511	1.072799	0.202286	-0.612549	0.003906	-0.874756	-6.165606	39.129566	108.438208
38089		-4.654583	0.147861	10.640743	-0.175385	1.541232	0.242235	-0.588135	-0.000244	-0.886719	-6.230890	40.022589	108.490546
38090		-3.656191	-0.000594	11.425994	-0.385338	2.031247	0.173391	-0.572998	0.000977	-0.881348	-6.477227	41.190976	108.448096
38091		-5.081096	-0.383917	10.011564	-0.551239	2.596124	0.103529	-0.545898	0.007568	-0.880615	-6.895950	42.675353	108.291392
38092		-6.732740	0.349107	9.826015	-0.646800	2.811943	-0.065652	-0.506348	0.023926	-0.870605	-7.493057	44.269340	107.959071
38093		-7.536289	0.682423	9.361005	-0.718191	2.703340	-0.274697	-0.488525	0.021973	-0.865723	-8.273714	45.782096	107.434683
38094		-7.788289	0.560188	8.843899	-0.849481	2.544109	-0.399313	-0.462402	0.028076	-0.856445	-9.232002	47.188018	106.781317
38095		-8.335291	0.730466	8.664205	-1.170805	2.339285	-0.411768	-0.436523	0.045898	-0.866943	-10.412598	48.468443	106.091068
38096		-8.561195	0.212992	8.316546	-1.567906	2.140097	-0.370932	-0.421875	0.063965	-0.865234	-11.823349	49.630505	105.409444
38097		-8.722826	-0.867092	7.698026	-1.864227	1.897159	-0.285718	-0.404053	0.076416	-0.859619	-13.367698	50.655519	104.786721
38098		-9.089362	-1.655196	7.463521	-2.100640	1.624583	-0.214225	-0.383545	0.100830	-0.846680	-15.000798	51.527590	104.231508
38099		-9.367144	-2.108866	7.056528	-2.354679	1.279651	-0.189351	-0.371094	0.122070	-0.849121	-16.739299	52.202905	103.734149
38100		-11.688772	-2.440548	6.559115	-2.583710	1.002384	-0.083871	-0.356201	0.151855	-0.854980	-18.505169	52.735298	103.370932
38101		-9.701186	-2.677450	6.389904	-2.654370	0.576313	0.011321	-0.354736	0.184570	-0.847168	-20.163566	53.048631	103.196123
38102		-7.201781	-5.097577	5.922836	-2.296986	0.259280	0.240750	-0.358887	0.199463	-0.844971	-21.377528	53.236017	103.320619
38103		-5.762234	-5.541993	6.310982	-1.620157	0.048982	0.496233	-0.347656	0.215332	-0.844727	-21.966376	53.366617	103.741646
38104		-4.693009	-4.296225	6.885158	-0.946641	-0.116698	0.705768	-0.352051	0.227783	-0.843994	-21.970111	53.455144	104.409682
38105		-5.189778	-2.974480	6.424840	-0.480817	-0.247666	0.901830	-0.356934	0.225586	-0.847412	-21.527521	53.514325	105.300830
38106		-7.142000	-1.595171	7.268795	-0.169552	-0.456330	0.979051	-0.359375	0.231201	-0.848145	-20.790767	53.471902	106.335587
38107		-5.390578	-1.103513	7.273587	-0.074746	-0.760933	0.935200	-0.366943	0.221191	-0.847656	-19.955282	53.249295	107.427852
38108		-3.896835	-1.180640	6.872042	-0.048566	-0.895858	0.922605	-0.372070	0.227051	-0.851563	-19.091422	52.940900	108.540134
38109		-3.121587	-1.468552	6.460047	-0.024936	-0.924880	0.935657	-0.389404	0.218506	-0.856934	-18.215142	52.609910	109.656204
38110		-3.161692	-1.781740	6.224599	0.017852	-0.920051	0.964075	-0.384766	0.219238	-0.862305	-17.311687	52.274820	110.780039
38111		-3.587101	-1.964779	6.079309	0.078866	-0.921520	0.969843	-0.395752	0.211426	-0.871826	-16.387715	51.930264	111.891303
38112		-3.918811	-2.047788	5.798965	0.182884	-0.966638	0.922952	-0.407959	0.207520	-0.860596	-15.445724	51.540801	112.954680
38113		-3.715562	-2.309578	5.530687	0.346135	-1.019732	0.829257	-0.417969	0.203857	-0.861328	-14.486566	51.098833	113.926902
38114		-3.430614	-2.729983	5.605137	0.541310	-0.999381	0.753874	-0.420166	0.202393	-0.862305	-13.491295	50.645562	114.807258
38115		-3.862498	-2.560012	5.793969	0.697206	-0.938125	0.677675	-0.441406	0.195801	-0.869385	-12.488758	50.208948	115.587203
38116		-4.624631	-2.122322	6.125831	0.785961	-0.907981	0.564155	-0.444092	0.185791	-0.864502	-11.533367	49.765121	116.243970
38117		-5.562617	-1.697444	6.556503	0.782701	-0.918645	0.402376	-0.453857	0.182861	-0.867676	-10.701646	49.293047	116.745324
38118		-6.277738	-1.295570	6.897556	0.687398	-0.997076	0.180200	-0.456055	0.176270	-0.869629	-10.072903	48.747383	117.053853
38119		-6.682609	-1.192940	7.032178	0.565655	-1.098424	-0.073796	-0.473389	0.169922	-0.868164	-9.674810	48.120097	117.150262
38120		-6.709925	-1.609074	7.056641	0.462604	-1.183420	-0.317938	-0.489258	0.163330	-0.877686	-9.483836	47.418762	117.047566
38121		-6.829252	-2.013714	6.899276	0.445316	-1.243105	-0.526548	-0.498047	0.168701	-0.872314	-9.423263	46.666644	116.779163
38122		-6.883532	-2.186161	6.734653	0.493411	-1.280034	-0.689736	-0.510986	0.164307	-0.871338	-9.423035	45.875953	116.385603
38123		-6.950505	-2.154822	6.677682	0.558660	-1.296970	-0.830251	-0.526611	0.162109	-0.876709	-9.456554	45.064891	115.886979
38124		-6.936118	-2.075395	6.657611	0.621860	-1.296136	-0.918423	-0.539795	0.157471	-0.877441	-9.492713	44.243283	115.325944
38125		-6.968507	-1.959903	6.623960	0.667262	-1.258358	-0.968741	-0.555176	0.148193	-0.877930	-9.522107	43.440519	114.728887
38126		-7.012740	-1.953908	6.566921	0.702040	-1.215224	-0.990649	-0.566406	0.155518	-0.880371	-9.535458	42.657441	114.117431
38127		-7.013635	-1.996460	6.569494	0.747986	-1.153927	-0.980957	-0.583008	0.147461	-0.873047	-9.511746	41.912409	113.512943
38128		-6.999551	-2.140116	6.472926	0.810721	-1.091315	-0.943337	-0.595215	0.141113	-0.880371	-9.428985	41.204355	112.934829
38129		-6.939425	-2.261460	6.522360	0.892169	-1.015554	-0.871296	-0.599609	0.134033	-0.881836	-9.262497	40.549150	112.405290
38130		-6.907169	-2.354575	6.800764	0.954966	-0.930275	-0.758478	-0.606689	0.122803	-0.881836	-9.007268	39.951663	111.950867
38131		-7.413776	-2.222096	7.191728	0.936648	-0.863493	-0.619110	-0.621338	0.117920	-0.879639	-8.698266	39.408254	111.591400
38132		-8.312242	-1.639440	7.592348	0.820484	-0.879950	-0.484483	-0.628418	0.110840	-0.866699	-8.390966	38.866319	111.330932
38133		-8.896365	-0.898714	7.823984	0.605786	-0.989288	-0.427956	-0.642578	0.110596	-0.877197	-8.172225	38.270147	111.122077
38134		-8.594221	-0.651144	7.790707	0.344301	-1.105129	-0.430645	-0.656982	0.103760	-0.877441	-8.095820	37.606533	110.922891
38135		-7.930693	-0.863407	7.425447	0.110614	-1.162590	-0.457522	-0.671875	0.108154	-0.872559	-8.158098	36.910110	110.712268
38136		-7.357459	-1.325164	6.930593	-0.021057	-1.123519	-0.495285	-0.680176	0.104004	-0.874512	-8.310259	36.230713	110.474385
38137		-7.011199	-1.581024	6.492275	-0.047596	-1.001340	-0.540300	-0.689209	0.110596	-0.875977	-8.498464	35.617952	110.196924
38138		-6.784430	-1.504572	6.181691	-0.025134	-0.835974	-0.589830	-0.707520	0.113525	-0.864258	-8.699231	35.092358	109.872077
38139		-6.546894	-1.235318	5.823474	0.013722	-0.617448	-0.644631	-0.709717	0.118652	-0.869141	-8.907880	34.686260	109.490309
38140		-6.237767	-0.999607	5.547439	0.027573	-0.372195	-0.712051	-0.712158	0.117676	-0.865967	-9.146550	34.410369	109.038811
38141		-5.349547	-4.124526	5.733754	0.448656	0.171837	-0.626933	-0.706787	0.112061	-0.863525	-9.143035	34.450505	108.587089
38142		-4.004102	-1.184141	0.770117	0.708822	0.992224	-0.274934	-0.703857	0.106934	-0.872559	-8.906792	34.986154	108.286298
38143		-5.629445	-0.091072	1.874490	0.964296	1.452235	-0.114577	-0.687012	0.103027	-0.867188	-8.489560	35.798762	108.049521
38144		-7.938389	-3.552675	3.509280	1.071691	2.055734	0.101250	-0.667725	0.090820	-0.860352	-7.957796	36.972070	107.908438
38145		-54.056519	10.069326	11.193260	1.360751	1.373167	1.141701	-0.663086	0.076172	-0.864502	-6.758973	37.836236	108.595384
38146		-2.222607	13.437006	3.836351	-0.300239	-0.937491	0.069388	-0.664795	0.079590	-0.860596	-6.851591	37.309200	108.722564
38147		-3.358988	-5.468465	8.683101	-0.232888	-0.151192	0.059278	-0.668457	0.092529	-0.864746	-6.951336	37.227393	108.775129
38148		-8.405485	-3.134607	8.608915	-0.016754	-0.348163	-0.065042	-0.671631	0.089600	-0.861084	-6.969886	37.026316	108.756456
38149		-3.687978	-2.058089	9.520975	-0.003217	-0.257755	-0.002097	-0.672607	0.088623	-0.864014	-6.959022	36.879686	108.774499
38150		-6.002760	0.316938	8.874300	0.061472	0.037749	0.070042	-0.675049	0.084473	-0.863037	-6.895298	36.907353	108.818361
38151		-6.359081	-1.163985	7.762879	-0.008414	0.030046	0.001850	-0.676025	0.085449	-0.868896	-6.900746	36.924682	108.814220
38152		-6.751379	-1.653079	7.472774	-0.013473	-0.015386	-0.024605	-0.672363	0.088379	-0.864502	-6.917553	36.915575	108.795387
38153		-6.178759	-1.474411	7.802970	-0.022183	-0.084889	-0.016139	-0.671631	0.078613	-0.868164	-6.932614	36.866287	108.788372
38154		-5.901121	-1.239537	8.049149	-0.003222	-0.077697	-0.009759	-0.681396	0.087646	-0.861572	-6.934048	36.822806	108.785454
38155		-5.936436	-1.118252	8.046313	0.026177	-0.037441	0.013720	-0.668945	0.087646	-0.865967	-6.911132	36.802568	108.795564
38156		-6.126902	-1.032215	7.820529	0.039306	-0.047978	0.027402	-0.670898	0.086914	-0.869629	-6.873970	36.778523	108.816438
38157		-6.143629	-0.787169	7.825162	0.034034	-0.078575	0.019736	-0.674072	0.078857	-0.866211	-6.841923	36.735288	108.834296
38158		-6.014155	-0.840191	7.875811	0.023408	-0.093034	0.003656	-0.673584	0.088867	-0.858398	-6.821707	36.683986	108.842095
38159		-5.876564	-1.042100	7.987340	0.023949	-0.093975	0.002368	-0.684814	0.086670	-0.860352	-6.802078	36.630798	108.848874
38160		-5.866861	-1.147949	7.982945	0.035724	-0.085025	0.013380	-0.677979	0.078125	-0.856934	-6.771149	36.584696	108.862826
38161		-5.910193	-1.056349	7.981063	0.044456	-0.081838	0.027400	-0.678955	0.084717	-0.871338	-6.729869	36.540094	108.886241
38162		-6.025838	-0.871536	8.027081	0.040819	-0.083275	0.025391	-0.686035	0.083740	-0.868408	-6.691144	36.495759	108.908445
38163		-5.992977	-0.820525	8.006167	0.030880	-0.089613	0.016696	-0.687744	0.076660	-0.860840	-6.661852	36.445995	108.924830
38164		-5.963207	-0.859993	8.003706	0.025360	-0.097983	0.012536	-0.678223	0.083496	-0.869141	-6.636734	36.392412	108.939071
38165		-5.982580	-0.849703	8.041310	0.027309	-0.102625	0.009881	-0.685791	0.082520	-0.870850	-6.611782	36.334780	108.951628
38166		-5.986774	-0.771357	8.056743	0.026504	-0.103465	0.007507	-0.684082	0.074951	-0.866211	-6.587908	36.277727	108.962690
38167		-5.978405	-0.769068	8.063175	0.023510	-0.105096	0.001641	-0.681152	0.085205	-0.873047	-6.568518	36.218140	108.969557
38168		-5.951580	-0.825233	7.985727	0.021993	-0.106046	-0.005692	-0.687256	0.076172	-0.864746	-6.552640	36.158742	108.971461
38169		-5.931549	-0.845104	7.988289	0.025354	-0.114375	-0.009708	-0.689453	0.080322	-0.861816	-6.536510	36.093128	108.971025
38170		-5.920581	-0.898186	7.990820	0.022483	-0.127274	-0.011536	-0.695068	0.078369	-0.867432	-6.521789	36.021262	108.970483
38171		-5.866809	-0.964829	8.033302	0.024402	-0.120294	-0.009367	-0.691406	0.083008	-0.861816	-6.505808	35.952301	108.970721
38172		-5.894556	-0.914819	7.977954	0.031238	-0.128212	-0.017627	-0.687012	0.079102	-0.866455	-6.488570	35.879498	108.965920
38173		-5.861735	-0.992726	8.024068	0.033490	-0.119378	-0.011758	-0.689209	0.077637	-0.868652	-6.468440	35.810904	108.964353
38174		-5.798478	-1.007638	8.118865	0.040070	-0.129279	-0.003495	-0.692627	0.073975	-0.864990	-6.440330	35.738402	108.969489
38175		-5.817190	-0.922965	8.063711	0.038377	-0.103477	0.001208	-0.689209	0.075928	-0.858398	-6.412867	35.679694	108.975683
38176		-5.739554	-0.961119	8.176193	0.024277	-0.090003	-0.003532	-0.699707	0.078125	-0.863770	-6.395691	35.629534	108.977611
38177		-5.921410	-0.847087	8.107235	0.032278	-0.079264	-0.001059	-0.697754	0.075928	-0.869385	-6.373795	35.584464	108.980260
38178		-5.781030	-0.867659	8.155795	0.022907	-0.086255	-0.002126	-0.698486	0.079102	-0.863525	-6.357032	35.536514	108.982834
38179		-5.706200	-0.832823	8.172789	0.018565	-0.067538	-0.004537	-0.695313	0.077881	-0.873291	-6.344961	35.497901	108.982100
38180		-5.834198	-0.863017	8.128137	0.021514	-0.042291	-0.000529	-0.689453	0.076172	-0.862793	-6.330347	35.475066	108.982347
38181		-5.734337	-0.872705	8.158475	0.017786	-0.048118	-0.002392	-0.697510	0.087891	-0.859619	-6.318738	35.447647	108.981586
38182		-5.901708	-0.837509	8.102560	0.013714	-0.047846	-0.005635	-0.697510	0.075684	-0.867188	-6.310418	35.421313	108.978681
38183		-5.673385	-0.868757	8.152156	0.008970	-0.043773	-0.002564	-0.697754	0.074951	-0.865723	-6.304129	35.396358	108.977456
38184		-5.717938	-0.889896	8.138221	0.006864	-0.027892	-0.003970	-0.697510	0.070068	-0.865234	-6.299951	35.381482	108.974170
38185		-5.826625	-0.926893	8.036852	0.010551	-0.034365	-0.004292	-0.695068	0.079590	-0.864990	-6.293877	35.361776	108.971008
38186		-5.922881	-0.805993	8.020633	0.017059	-0.024343	-0.000389	-0.703369	0.068604	-0.866699	-6.282574	35.349136	108.969943
38187		-5.732574	-0.844748	8.152353	0.012374	-0.039773	-0.004382	-0.699951	0.079346	-0.864258	-6.275253	35.326346	108.967127
38188		-5.825716	-0.869788	8.173703	0.008839	-0.012271	-0.002130	-0.708984	0.078613	-0.856934	-6.269895	35.320469	108.963919
38189		-5.669048	-0.897546	8.162138	0.006714	-0.025047	0.001048	-0.702148	0.076416	-0.863037	-6.264281	35.306405	108.963759
38190		-5.855311	-0.839966	8.085522	0.003747	-0.018015	-0.005068	-0.702881	0.070313	-0.857422	-6.262772	35.297058	108.958940
38191		-5.843465	-0.843846	8.133647	0.000562	-0.004564	-0.003744	-0.705078	0.074463	-0.861328	-6.263521	35.294361	108.953866
38192		-5.639192	-0.888078	8.184264	-0.009227	-0.009843	-0.006053	-0.699463	0.074707	-0.874268	-6.270201	35.289605	108.947735
38193		-5.825827	-0.869030	8.153663	-0.012253	0.000780	-0.009733	-0.708740	0.081055	-0.860352	-6.280942	35.289576	108.938074
38194		-5.752123	-0.856513	8.137195	-0.009276	0.014441	-0.010521	-0.702637	0.074219	-0.864990	-6.290529	35.298351	108.926962
38195		-5.955853	-0.832019	8.034865	-0.013154	-0.004459	-0.011993	-0.698975	0.078369	-0.858643	-6.302467	35.295193	108.916126
38196		-5.569210	-0.914861	8.191179	-0.009626	-0.008104	-0.007313	-0.698486	0.073730	-0.864990	-6.309955	35.291328	108.908989
38197		-5.815600	-0.876807	8.049891	-0.013216	0.007082	-0.007243	-0.702637	0.073975	-0.864990	-6.320527	35.295039	108.900578
38198		-5.752492	-0.862277	8.136325	-0.010847	0.013002	-0.006466	-0.695313	0.068848	-0.855957	-6.329320	35.303227	108.892398
38199		-5.827512	-0.858149	8.053320	-0.010075	-0.010723	-0.008444	-0.700195	0.068359	-0.865723	-6.337781	35.296721	108.884526
38200		-5.796376	-0.814604	8.049856	-0.011854	0.006997	-0.006160	-0.696289	0.072510	-0.862549	-6.346759	35.301501	108.877024
38201		-5.762964	-0.862618	8.088741	-0.015621	-0.011137	-0.010203	-0.695068	0.075439	-0.868896	-6.359087	35.294645	108.867960
38202		-5.831857	-0.880262	8.128114	-0.013118	0.015799	-0.007491	-0.699951	0.077637	-0.867432	-6.369718	35.304346	108.858844
38203		-5.832212	-0.881827	8.127690	-0.013252	-0.005217	-0.009425	-0.700195	0.074951	-0.862793	-6.380640	35.300908	108.849863
38204		-5.661052	-0.880812	8.139283	-0.020715	-0.008930	-0.010829	-0.694824	0.070557	-0.862549	-6.395856	35.296307	108.840346
38205		-5.804062	-0.911300	8.044427	-0.022831	-0.001008	-0.014548	-0.700684	0.078857	-0.856201	-6.414520	35.294934	108.827465
38206		-5.719421	-0.886059	8.127264	-0.019670	0.009383	-0.008939	-0.703125	0.075195	-0.861084	-6.429205	35.300865	108.817831
38207		-5.719173	-0.942541	8.121559	-0.019574	0.018099	-0.009186	-0.701660	0.076904	-0.865723	-6.444712	35.310709	108.807187
38208		-5.774444	-0.910148	8.085587	-0.020921	0.010245	-0.012581	-0.697266	0.075439	-0.866943	-6.461631	35.316877	108.794937
38209		-5.676055	-1.032302	8.102710	-0.020563	0.004151	-0.011200	-0.698975	0.076904	-0.870117	-6.477886	35.318646	108.783982
38210		-5.856136	-0.909398	8.127726	-0.017667	0.029352	-0.007210	-0.704346	0.079590	-0.867920	-6.491666	35.336021	108.773955
38211		-5.766765	-0.920582	8.130014	-0.020512	0.008514	-0.011322	-0.698242	0.069824	-0.858154	-6.508147	35.340261	108.762564
38212		-5.783061	-0.953927	8.104841	-0.021540	0.018401	-0.006383	-0.701172	0.075928	-0.863525	-6.523319	35.351445	108.753973
38213		-5.752153	-0.965142	8.095572	-0.014682	0.014368	-0.003422	-0.708740	0.082031	-0.862549	-6.533546	35.359527	108.747624
38214		-5.785677	-0.956706	8.102647	-0.007732	0.019051	-0.000702	-0.698242	0.069580	-0.869873	-6.538555	35.371439	108.742936
38215		-5.824454	-0.945869	8.086162	-0.007932	0.009563	0.002102	-0.694092	0.068359	-0.862793	-6.542463	35.377145	108.740824
38216		-5.805326	-0.880142	8.086699	-0.006112	0.004146	0.001994	-0.694824	0.076904	-0.854980	-6.544772	35.380742	108.739207
38217		-5.777719	-0.925128	8.101620	-0.005543	-0.000411	-0.001759	-0.691895	0.079590	-0.862061	-6.548409	35.380518	108.735198
38218		-5.783001	-0.923754	8.077925	-0.007966	-0.002742	-0.000102	-0.698975	0.081055	-0.862549	-6.552308	35.380049	108.732670
38219		-5.760836	-0.949597	8.121088	-0.007009	-0.001092	-0.000276	-0.698242	0.080078	-0.863525	-6.556154	35.379535	108.729751
38220		-5.772343	-0.928636	8.125138	-0.005321	0.008613	0.006828	-0.696289	0.072021	-0.864014	-6.556267	35.385973	108.731148
38221		-5.799382	-0.938920	8.104750	-0.010696	0.005386	0.000062	-0.700439	0.072754	-0.862305	-6.562390	35.389168	108.727945
38222		-5.784576	-0.908404	8.128591	-0.005153	0.005797	0.001821	-0.701172	0.073486	-0.860596	-6.564304	35.393667	108.726071
38223		-5.779240	-0.928126	8.100192	-0.007469	0.004237	0.000914	-0.699707	0.074951	-0.859375	-6.568182	35.396263	108.723554
38224		-5.790696	-0.907439	8.104250	-0.008427	0.002588	0.001088	-0.698486	0.077148	-0.864014	-6.572119	35.398877	108.721425
38225		-5.802218	-0.886907	8.108247	-0.012670	0.005676	0.002855	-0.698730	0.084717	-0.862305	-6.578259	35.402419	108.720147
38226		-5.796698	-0.907152	8.079913	-0.011592	0.000151	-0.002209	-0.696777	0.073486	-0.863770	-6.585229	35.403422	108.715913
38227		-5.817892	-0.919861	8.083492	-0.008827	0.004329	-0.000165	-0.701904	0.082764	-0.862793	-6.590326	35.405999	108.712633
38228		-5.796953	-0.908903	8.079533	-0.012656	-0.002270	0.000528	-0.690186	0.077393	-0.859375	-6.596686	35.405798	108.710505
38229		-5.796863	-0.909759	8.079502	-0.008874	-0.000030	-0.000047	-0.702637	0.071533	-0.862549	-6.601559	35.405901	108.707659
38230		-5.806711	-0.926208	8.130928	-0.007612	-0.008840	0.001267	-0.708740	0.079590	-0.860840	-6.604421	35.402003	108.706579
38231		-5.779355	-0.934224	8.099408	-0.007055	-0.005448	-0.000159	-0.694580	0.083984	-0.866455	-6.608043	35.399015	108.704093
38232		-5.773433	-0.936757	8.123431	-0.006654	-0.007189	0.001095	-0.692871	0.081787	-0.862793	-6.610505	35.396036	108.702759
38233		-5.778519	-0.935109	8.099903	-0.004290	-0.001271	0.001885	-0.701660	0.073486	-0.858887	-6.611912	35.395560	108.701363
38234		-5.746243	-0.945076	8.091754	-0.011805	-0.001390	0.002921	-0.700439	0.071045	-0.863525	-6.616860	35.395992	108.700833
38235		-5.789604	-0.915003	8.104180	-0.008023	0.000849	0.002345	-0.693359	0.073242	-0.867432	-6.620319	35.396753	108.699586
38236		-5.783943	-0.934774	8.075982	-0.008023	0.000850	0.002345	-0.704834	0.079102	-0.857178	-6.623441	35.398413	108.698473
38237		-5.806299	-0.892868	8.084605	-0.010338	-0.000708	0.001438	-0.691162	0.079346	-0.869385	-6.628520	35.398227	108.696719
38238		-5.789586	-0.916957	8.103972	-0.012761	-0.003038	0.003094	-0.697510	0.075439	-0.866211	-6.633870	35.397718	108.696444
38239		-5.810304	-0.929575	8.107895	-0.010386	-0.005066	0.001554	-0.698486	0.079834	-0.858887	-6.638724	35.395059	108.695126
38240		-5.805225	-0.895166	8.085122	-0.010032	-0.011166	0.002923	-0.704590	0.077637	-0.862305	-6.642198	35.389905	108.695392
38241		-5.798947	-0.897903	8.109377	-0.009924	-0.010392	0.000361	-0.693115	0.087158	-0.862305	-6.647019	35.384136	108.693674
38242		-5.796313	-0.970421	8.053246	-0.012688	-0.014565	-0.001683	-0.701904	0.081055	-0.870850	-6.653711	35.376737	108.691004
38243		-5.764483	-0.909297	8.102614	-0.010927	-0.016398	0.000650	-0.699707	0.076416	-0.870361	-6.658706	35.367569	108.689979
38244		-5.750827	-0.985866	8.094016	-0.011729	-0.012914	-0.001854	-0.701172	0.072021	-0.856934	-6.664996	35.361091	108.687056
38245		-5.800429	-0.882320	8.140105	-0.007158	-0.006216	0.002407	-0.684570	0.080078	-0.861084	-6.667601	35.357834	108.686429
38246		-5.792895	-0.956341	8.107352	-0.005185	-0.006502	-0.000387	-0.706055	0.072510	-0.865967	-6.669852	35.355093	108.684008
38247		-5.771209	-0.945120	8.103952	-0.008456	-0.009707	-0.001120	-0.706055	0.073486	-0.858398	-6.674459	35.349615	108.681205
38248		-5.749501	-0.934001	8.100554	-0.008007	-0.007090	0.000018	-0.704346	0.081055	-0.865723	-6.678138	35.346558	108.679114
38249		-5.781217	-0.925323	8.108994	-0.010275	-0.004287	-0.001002	-0.703857	0.064697	-0.862549	-6.683995	35.344172	108.675953
38250		-5.765214	-0.912469	8.081664	-0.012589	-0.005842	-0.001907	-0.695557	0.080322	-0.855957	-6.691135	35.341687	108.672417
38251		-5.806960	-0.937308	8.089346	-0.012436	-0.000710	-0.004583	-0.699463	0.084961	-0.858643	-6.699844	35.341097	108.666465
38252		-5.714766	-0.984739	8.139779	-0.010722	-0.006902	-0.002139	-0.700928	0.080566	-0.862061	-6.705957	35.337988	108.662856
38253		-5.845622	-0.856353	8.130826	-0.011242	0.002006	0.001508	-0.700684	0.072754	-0.866211	-6.711653	35.339349	108.660930
38254		-5.757561	-0.973115	8.100527	-0.011526	-0.003417	-0.004642	-0.702393	0.084961	-0.861816	-6.719399	35.338046	108.655291
38255		-5.811661	-0.922237	8.117716	-0.011229	-0.005933	-0.000827	-0.698242	0.079590	-0.864014	-6.725652	35.334733	108.652388
38256		-5.758173	-0.920534	8.105831	-0.005644	-0.001175	0.000811	-0.701660	0.074463	-0.864502	-6.727936	35.335063	108.650368
38257		-5.816799	-0.921064	8.094126	-0.001971	0.000286	0.002795	-0.698975	0.077148	-0.861084	-6.727719	35.335532	108.649481
38258		-5.777312	-0.987710	8.104895	-0.015289	-0.013589	-0.006398	-0.698486	0.084229	-0.864014	-6.737845	35.328308	108.643456
38259		-5.804241	-0.943980	8.090522	-0.002465	-0.006686	0.001770	-0.700928	0.084961	-0.859863	-6.737992	35.324740	108.642428
38260		-5.750407	-0.941822	8.078926	-0.004272	-0.009207	-0.000447	-0.694336	0.077637	-0.859619	-6.739617	35.320403	108.640192
38261		-5.797514	-0.946429	8.115097	-0.001107	-0.006780	0.002848	-0.706299	0.075195	-0.863770	-6.738546	35.316854	108.639924
38262		-5.787040	-0.913478	8.116140	-0.002808	-0.008525	-0.001930	-0.694580	0.077881	-0.867188	-6.739963	35.312799	108.636597
38263		-5.780541	-0.933143	8.088524	-0.006585	-0.010760	-0.001351	-0.697510	0.075684	-0.859619	-6.743533	35.306704	108.633729
38264		-5.746283	-0.980564	8.127715	-0.009854	-0.013961	-0.002082	-0.701660	0.083740	-0.859131	-6.748787	35.299539	108.630747
38265		-5.773045	-0.936744	8.113503	-0.006584	-0.010758	-0.001350	-0.700928	0.078369	-0.864502	-6.752355	35.293444	108.627881
38266		-5.755775	-0.960741	8.133155	-0.006941	-0.004660	-0.002713	-0.700195	0.081055	-0.867188	-6.756639	35.291519	108.623691
38267		-5.771823	-0.937956	8.114233	-0.004269	-0.009204	-0.000445	-0.698486	0.075684	-0.863281	-6.758589	35.286369	108.621330
38268		-5.754534	-0.961626	8.133928	-0.005284	-0.007271	0.002178	-0.708984	0.072754	-0.856201	-6.759830	35.283280	108.620765
38269		-5.738372	-0.948300	8.106782	-0.008852	-0.007954	-0.002365	-0.701172	0.083496	-0.863281	-6.765238	35.278712	108.616962
38270		-5.775561	-0.920639	8.143547	-0.010210	-0.007859	-0.003442	-0.705566	0.075928	-0.861572	-6.771536	35.274899	108.612529
38271		-5.769476	-0.940549	8.115602	-0.007104	-0.001855	0.002301	-0.705078	0.078369	-0.865234	-6.774355	35.274116	108.611475
38272		-5.741308	-0.985877	8.130588	-0.012178	-0.007573	-0.000645	-0.708252	0.076904	-0.856445	-6.780668	35.270647	108.608969
38273		-5.778534	-0.975206	8.115349	-0.007955	-0.002725	-0.000088	-0.712402	0.079590	-0.869629	-6.784893	35.269206	108.606322
38274		-5.757168	-0.964093	8.111701	-0.009864	-0.006019	0.000259	-0.704102	0.074707	-0.861084	-6.789594	35.266673	108.604317
38275		-5.756820	-0.964741	8.111870	-0.010027	-0.003216	0.005272	-0.697998	0.077881	-0.866211	-6.792826	35.265316	108.605447
38276		-5.755215	-1.019794	8.106898	-0.011729	-0.004957	0.000495	-0.705078	0.079346	-0.861572	-6.798553	35.263396	108.603517
38277		-5.767388	-0.944990	8.116570	-0.009922	-0.002439	0.002711	-0.699707	0.074707	-0.858154	-6.802794	35.262308	108.602798
38278		-5.777027	-0.978740	8.115996	-0.009415	-0.003404	0.001399	-0.701416	0.082275	-0.857910	-6.806910	35.261324	108.601367
38279		-5.755864	-0.967455	8.112225	-0.007609	-0.000887	0.003615	-0.706299	0.079590	-0.851807	-6.809536	35.261180	108.601149
38280		-5.755873	-0.967847	8.112172	-0.008115	0.000079	0.004927	-0.698730	0.082520	-0.860840	-6.811658	35.262411	108.601886
38281		-5.734869	-0.956324	8.108318	-0.006250	-0.000982	0.004692	-0.701660	0.079834	-0.857178	-6.813067	35.262286	108.602426
38282		-5.767130	-0.947242	8.116490	-0.007057	0.002503	0.002192	-0.705078	0.076416	-0.866211	-6.815802	35.264702	108.601055
38283		-5.772791	-0.945510	8.092621	-0.005192	0.001442	0.001957	-0.701904	0.077637	-0.857422	-6.817821	35.265770	108.599487
38284		-5.750885	-0.971187	8.135373	-0.006308	0.002597	0.007144	-0.699463	0.080322	-0.854980	-6.818139	35.268569	108.601559
38285		-5.756619	-0.969264	8.111473	-0.005698	0.002408	0.003270	-0.700195	0.081787	-0.858154	-6.819967	35.270276	108.600825
38286		-5.762327	-0.967338	8.087592	-0.004340	0.002312	0.004346	-0.697998	0.072266	-0.860596	-6.820272	35.272715	108.600970
38287		-5.783508	-0.979297	8.091263	-0.005294	0.000666	0.004519	-0.707031	0.084961	-0.870361	-6.821282	35.273516	108.601253
38288		-5.762734	-0.950550	8.139279	-0.003430	-0.000396	0.004284	-0.699463	0.072510	-0.862061	-6.820963	35.274405	108.601578
38289		-5.762489	-0.967549	8.087451	-0.003026	-0.002139	0.005533	-0.695801	0.083740	-0.861328	-6.820131	35.273680	108.602801
38290		-5.756955	-0.969646	8.111190	-0.003429	-0.000396	0.004284	-0.694092	0.080566	-0.868408	-6.819813	35.274562	108.603125
38291		-5.762161	-0.967350	8.087709	0.000151	-0.007652	0.006484	-0.701660	0.086670	-0.864258	-6.816512	35.270765	108.605470
38292		-5.757449	-0.931735	8.064961	0.001152	-0.001650	0.006201	-0.697021	0.072266	-0.863525	-6.812739	35.271057	108.607234
38293		-5.761705	-0.949754	8.140101	-0.003923	-0.007362	0.003254	-0.707031	0.076660	-0.858398	-6.813087	35.267205	108.607304
38294		-5.745666	-0.935826	8.112952	-0.001610	-0.005812	0.004158	-0.698486	0.077637	-0.861084	-6.811519	35.264984	108.607991
38295		-5.728766	-0.959115	8.132372	-0.003025	-0.002137	0.005534	-0.701660	0.082031	-0.859863	-6.810686	35.264259	108.609214
38296		-5.770774	-0.982714	8.140015	-0.001967	0.000286	0.002799	-0.708252	0.083740	-0.860840	-6.810161	35.265405	108.608447
38297		-5.755378	-0.968738	8.112417	-0.002979	0.002217	0.005425	-0.700684	0.082520	-0.855957	-6.809556	35.267151	108.609232
38298		-5.787660	-0.959103	8.120641	-0.000711	-0.000587	0.006438	-0.707275	0.077637	-0.865234	-6.806809	35.268040	108.611072
38299		-5.761010	-0.949167	8.140661	-0.000655	-0.004165	0.003985	-0.703369	0.085449	-0.868896	-6.805143	35.266056	108.611384
38300		-5.750765	-0.932963	8.089616	-0.001564	-0.001457	0.004049	-0.708496	0.083252	-0.862061	-6.803805	35.266282	108.611631
38301		-5.772030	-0.927505	8.145271	-0.000262	0.002025	0.007578	-0.710693	0.082520	-0.863281	-6.800766	35.268064	108.613933
38302		-5.766415	-0.946396	8.117098	-0.001058	-0.002422	0.002736	-0.700195	0.079102	-0.864014	-6.799618	35.267645	108.613347
38303		-5.766288	-0.946393	8.117188	-0.002922	-0.001360	0.002972	-0.701660	0.075439	-0.859619	-6.799794	35.267188	108.612720
38304		-5.766208	-0.946286	8.117257	-0.000205	-0.001553	0.005125	-0.705322	0.075439	-0.865723	-6.797237	35.267419	108.613726
38305		-5.750391	-0.932258	8.089962	-0.004430	-0.006394	0.004568	-0.700928	0.079102	-0.864258	-6.797393	35.264207	108.614629
38306		-5.750334	-0.915215	8.141992	-0.000608	0.000190	0.003876	-0.695801	0.074951	-0.866943	-6.795653	35.265339	108.614621
38307		-5.776701	-0.924821	8.122219	-0.003474	-0.004748	0.004395	-0.692871	0.071289	-0.860840	-6.795410	35.263051	108.615267
38308		-5.765421	-0.929077	8.169823	-0.000552	-0.003388	0.001423	-0.704590	0.077148	-0.864990	-6.794450	35.261974	108.613848
38309		-5.760463	-0.911081	8.095191	-0.005180	-0.006486	-0.000384	-0.706543	0.083984	-0.868896	-6.797024	35.258374	108.611308
38310		-5.774207	-0.979741	8.117882	-0.006743	-0.007941	0.003665	-0.701416	0.076904	-0.859863	-6.798486	35.254851	108.611832
38311		-5.737058	-0.954228	8.086957	-0.003923	-0.007358	0.003255	-0.701416	0.081787	-0.872070	-6.798834	35.251001	108.611900
38312		-5.763151	-0.946949	8.119350	-0.002564	-0.007455	0.004332	-0.699219	0.079834	-0.854004	-6.797661	35.247794	108.612847
38313		-5.746901	-0.932864	8.092372	0.000209	-0.011226	0.004031	-0.703369	0.080566	-0.864258	-6.795144	35.241796	108.613777
38314		-5.772645	-0.942421	8.073066	-0.003519	-0.009100	0.004506	-0.698242	0.078125	-0.863281	-6.794368	35.237659	108.614981
38315		-5.750998	-0.913583	8.121660	-0.001654	-0.010162	0.004269	-0.699951	0.074951	-0.860107	-6.792875	35.232283	108.615988
38316		-5.781169	-0.958410	8.125345	-0.001553	-0.009385	0.001706	-0.708252	0.079346	-0.857910	-6.792083	35.227789	108.615265
38317		-5.721555	-0.975190	8.085600	-0.002609	-0.011806	0.004443	-0.706543	0.076904	-0.865479	-6.790988	35.221489	108.616530
38318		-5.753016	-0.948713	8.146365	-0.002057	-0.008419	0.003020	-0.699951	0.076416	-0.857178	-6.790006	35.217628	108.616641
38319		-5.736731	-0.934732	8.119398	-0.001148	-0.011126	0.002957	-0.707275	0.075928	-0.866699	-6.788705	35.211614	108.616814
38320		-5.741523	-0.932534	8.096227	-0.002562	-0.007452	0.004334	-0.697266	0.075928	-0.869385	-6.787529	35.208384	108.617760
38321		-5.739764	-0.986823	8.091442	-0.002561	-0.007452	0.004334	-0.705566	0.077393	-0.865967	-6.786660	35.204554	108.618587
38322		-5.755733	-0.946389	8.124676	-0.002607	-0.011804	0.004445	-0.698242	0.078125	-0.858154	-6.785261	35.198850	108.619970
38323		-5.755012	-0.946416	8.125184	-0.002461	-0.006675	0.001772	-0.708740	0.070557	-0.867432	-6.785400	35.195288	108.618948
38324		-5.764277	-0.979473	8.124969	-0.001651	-0.010158	0.004271	-0.700195	0.077393	-0.868896	-6.783602	35.190503	108.620073
38325		-5.753792	-0.946368	8.126053	-0.003469	-0.004743	0.004399	-0.708008	0.082275	-0.863525	-6.783357	35.188218	108.620721
38326		-5.768783	-0.977366	8.102001	-0.003919	-0.007353	0.003260	-0.699219	0.075195	-0.862305	-6.783400	35.184955	108.620909
38327		-5.741685	-0.967916	8.122212	-0.003819	-0.006577	0.000697	-0.698730	0.081787	-0.864258	-6.784753	35.181377	108.619131
38328		-5.746783	-0.948962	8.150735	-0.002964	-0.005708	0.003086	-0.699219	0.083740	-0.850830	-6.784401	35.179032	108.619060
38329		-5.719939	-0.956251	8.118866	-0.000100	-0.000776	0.002563	-0.704590	0.076660	-0.861572	-6.783150	35.178880	108.618101
38330		-5.735182	-0.970345	8.146551	-0.007142	-0.006191	0.002424	-0.703613	0.075195	-0.867188	-6.785435	35.176208	108.617610
38331		-5.745806	-0.966384	8.099452	-0.006286	-0.005323	0.004813	-0.708496	0.080811	-0.858398	-6.786610	35.173622	108.618593
38332		-5.756565	-0.945143	8.104215	-0.000649	-0.004161	0.003987	-0.702393	0.077637	-0.859131	-6.784647	35.172204	108.619020
38333		-5.750670	-0.947066	8.128182	-0.000244	-0.005903	0.005237	-0.703613	0.079590	-0.865234	-6.782163	35.169316	108.620346
38334		-5.734841	-0.915928	8.152833	-0.000649	-0.004161	0.003988	-0.696777	0.079102	-0.866455	-6.780200	35.167893	108.620774
38335		-5.738996	-0.967982	8.124104	-0.003016	-0.002132	0.005540	-0.701416	0.072266	-0.862793	-6.779363	35.167172	108.621999
38336		-5.755425	-0.927487	8.157015	-0.002108	-0.004839	0.005476	-0.706543	0.072754	-0.862793	-6.777606	35.165457	108.623518
38337		-5.755077	-0.944203	8.105381	0.000711	-0.004259	0.005063	-0.706299	0.074707	-0.864014	-6.774723	35.163493	108.624586
38338		-5.749398	-0.946198	8.129183	-0.003421	-0.000390	0.004291	-0.702881	0.082031	-0.856934	-6.774405	35.164223	108.624914
38339		-5.743561	-0.965481	8.101151	-0.005278	-0.007252	0.002187	-0.697754	0.076904	-0.871094	-6.775964	35.160362	108.624228
38340		-5.754442	-0.944170	8.105835	0.000254	0.001058	0.006267	-0.697998	0.078125	-0.851074	-6.772818	35.162045	108.625811
38341		-5.716704	-0.955622	8.121218	-0.002009	-0.004063	0.002913	-0.701172	0.080811	-0.861572	-6.772365	35.160047	108.625367
38342		-5.759580	-0.941745	8.082470	-0.002107	-0.004838	0.005477	-0.707764	0.078857	-0.868408	-6.770609	35.158316	108.626887
38343		-5.737273	-0.967089	8.125427	0.000758	0.000092	0.004953	-0.703125	0.077881	-0.861328	-6.767951	35.158820	108.627519
38344		-5.764844	-0.922138	8.110943	-0.002107	-0.004838	0.005477	-0.701904	0.082031	-0.856445	-6.766196	35.157085	108.629037
38345		-5.721404	-0.952882	8.098198	-0.004375	-0.002032	0.004467	-0.703613	0.075928	-0.866943	-6.766573	35.156347	108.629506
38346		-5.747953	-0.945338	8.130304	0.002118	-0.000006	0.006028	-0.698242	0.072510	-0.863525	-6.762406	35.157394	108.631009
38347		-5.757783	-0.978045	8.129744	-0.000649	-0.004160	0.003988	-0.706543	0.075195	-0.871094	-6.760738	35.155413	108.631321
38348		-5.726714	-0.933107	8.126653	-0.002465	0.001255	0.004118	-0.700684	0.082520	-0.856445	-6.760025	35.157043	108.631388
38349		-5.736719	-0.966159	8.125930	-0.001458	-0.000677	0.001489	-0.705566	0.080322	-0.864502	-6.759988	35.156875	108.629673
38350		-5.753325	-0.942752	8.106794	-0.003420	-0.000388	0.004292	-0.706299	0.078613	-0.865479	-6.759674	35.157575	108.630001
38351		-5.731195	-0.968283	8.149602	-0.000601	0.000191	0.003878	-0.701416	0.086182	-0.858887	-6.758230	35.158063	108.629877
38352		-5.753321	-0.942556	8.106819	-0.003015	-0.002129	0.005542	-0.701904	0.072266	-0.863281	-6.757102	35.157851	108.631216
38353		-5.753156	-0.942413	8.106953	-0.001152	-0.003193	0.005303	-0.707764	0.080811	-0.861328	-6.755242	35.156508	108.632363
38354		-5.730785	-0.968068	8.149916	-0.005231	-0.002898	0.002078	-0.700195	0.080322	-0.864990	-6.756736	35.155621	108.631353
38355		-5.736383	-0.965831	8.126206	-0.000750	0.002991	0.008897	-0.706299	0.080078	-0.864014	-6.753499	35.158040	108.634491
38356		-5.747470	-0.944412	8.130753	-0.003369	-0.003963	0.001838	-0.702393	0.080078	-0.857422	-6.753974	35.156525	108.633402
38357		-5.726239	-0.932500	8.127058	0.001164	-0.001649	0.006203	-0.713623	0.077637	-0.851807	-6.750499	35.156122	108.635048
38358		-5.752745	-0.941737	8.107323	-0.000196	-0.001550	0.005128	-0.702881	0.080811	-0.861816	-6.747953	35.156194	108.636051
38359		-5.714946	-0.953172	8.122743	-0.001151	-0.003193	0.005303	-0.700195	0.081055	-0.867188	-6.746092	35.154852	108.637198
38360		-5.746916	-0.943415	8.131261	-0.000196	-0.001550	0.005129	-0.699707	0.081543	-0.863525	-6.743546	35.154920	108.638199
38361		-5.720231	-0.933643	8.151181	-0.003014	-0.002128	0.005543	-0.703857	0.081055	-0.865234	-6.742707	35.154200	108.639425
38362		-5.725538	-0.931349	8.127684	0.001312	-0.004449	0.001185	-0.706787	0.076416	-0.864990	-6.740740	35.152346	108.637921
38363		-5.751759	-0.923758	8.160024	-0.000746	-0.004933	0.006553	-0.703125	0.074707	-0.862793	-6.738064	35.150097	108.640080
38364		-5.740372	-0.962010	8.103824	-0.006187	-0.004539	0.002254	-0.706299	0.077148	-0.862549	-6.739959	35.148257	108.639327
38365		-5.745568	-0.942997	8.132261	-0.000648	-0.004158	0.003989	-0.706299	0.084229	-0.864990	-6.738291	35.146277	108.639638
38366		-5.745201	-0.942940	8.132528	-0.002964	-0.005702	0.003089	-0.698730	0.073730	-0.863281	-6.737951	35.143827	108.639563
38367		-5.739272	-0.962097	8.104592	-0.001506	-0.005026	0.001600	-0.701904	0.075439	-0.863037	-6.737691	35.141193	108.638283
38368		-5.717815	-0.950468	8.101016	-0.004324	-0.005603	0.002015	-0.706299	0.071533	-0.861572	-6.738566	35.138722	108.637448
38369		-5.738491	-0.962345	8.105116	-0.002008	-0.004059	0.002914	-0.705322	0.073486	-0.861328	-6.738113	35.136726	108.637003
38370		-5.759348	-0.957187	8.160971	-0.003417	-0.000386	0.004294	-0.700195	0.067383	-0.859863	-6.737805	35.137371	108.637325
38371		-5.711511	-0.952908	8.125190	-0.002364	-0.005893	-0.000790	-0.706299	0.075684	-0.858643	-6.738952	35.134083	108.634454
38372		-5.711207	-0.953076	8.125384	-0.004372	-0.002028	0.004470	-0.711914	0.082275	-0.859863	-6.739045	35.133800	108.635034
38373		-5.731951	-0.965107	8.129418	-0.007141	-0.006179	0.002430	-0.703125	0.085205	-0.865967	-6.741626	35.130565	108.634427
38374		-5.727239	-0.930137	8.106613	-0.002915	-0.001352	0.002980	-0.699707	0.080078	-0.861816	-6.741515	35.130561	108.633923
38375		-5.737137	-0.946393	8.157825	-0.004777	-0.000287	0.003220	-0.697510	0.075928	-0.859131	-6.742704	35.130732	108.633382
38376		-5.748077	-0.942403	8.110556	-0.007546	-0.004437	0.001181	-0.703125	0.079590	-0.868408	-6.745820	35.128846	108.631869
38377		-5.721302	-0.933375	8.130434	-0.007497	-0.000088	0.001072	-0.703369	0.083740	-0.866455	-6.749437	35.128985	108.629816
38378		-5.768733	-0.955097	8.114577	-0.004323	-0.005601	0.002015	-0.698730	0.071045	-0.863281	-6.750317	35.126488	108.628982
38379		-5.747629	-0.943575	8.110737	-0.006185	0.003387	0.004602	-0.703613	0.078857	-0.865234	-6.751933	35.128842	108.629098
38380		-5.736448	-0.965300	8.106211	-0.007999	-0.007044	0.000041	-0.699707	0.076660	-0.858643	-6.755642	35.125387	108.627005
38381		-5.709563	-0.956072	8.126187	-0.003416	-0.000385	0.004296	-0.707031	0.087646	-0.864014	-6.755616	35.125575	108.627219
38382		-5.720468	-0.934975	8.130837	-0.004728	-0.003860	0.000766	-0.695801	0.083252	-0.859863	-6.757314	35.123974	108.625381
38383		-5.746769	-0.944793	8.111205	-0.003367	-0.003959	0.001840	-0.704590	0.080811	-0.860107	-6.758073	35.121963	108.624182
38384		-5.740903	-0.947241	8.135062	-0.004728	-0.003859	0.000766	-0.711670	0.079102	-0.867920	-6.759770	35.120359	108.622338
38385		-5.729433	-0.968916	8.130740	-0.005181	-0.006467	-0.000375	-0.706543	0.081299	-0.863770	-6.762336	35.116772	108.619805
38386		-5.729041	-0.969221	8.130980	-0.005325	-0.003668	0.004646	-0.699707	0.076660	-0.865479	-6.762833	35.115532	108.620639
38387		-5.703193	-0.922428	8.104410	-0.002364	-0.005890	-0.000791	-0.703369	0.073486	-0.864990	-6.763978	35.112245	108.617769
38388		-5.754787	-0.962401	8.163575	-0.006184	-0.004534	0.002257	-0.702148	0.078369	-0.860596	-6.765882	35.110346	108.617011
38389		-5.739137	-0.948648	8.136145	-0.003414	-0.000385	0.004297	-0.708496	0.078369	-0.860596	-6.765854	35.110534	108.617225
38390		-5.691308	-0.927454	8.152207	-0.004823	-0.004634	0.003331	-0.707275	0.079590	-0.866943	-6.766546	35.108645	108.617234
38391		-5.706481	-0.958597	8.128054	-0.005682	-0.005499	0.000942	-0.701660	0.075439	-0.858643	-6.768917	35.105697	108.615537
38392		-5.743886	-0.947016	8.112988	-0.001552	-0.001451	0.004055	-0.697266	0.084229	-0.860352	-6.767595	35.105661	108.615779
38393		-5.722693	-0.935188	8.109242	-0.002507	-0.003092	0.004230	-0.709717	0.078369	-0.862793	-6.766946	35.104304	108.616171
38394		-5.737848	-0.949246	8.136984	-0.004321	-0.005599	0.002016	-0.702393	0.074463	-0.868408	-6.767830	35.101767	108.615345
38395		-5.731775	-0.951722	8.160974	-0.005276	-0.007239	0.002191	-0.698730	0.079346	-0.862793	-6.769386	35.097913	108.614661
38396		-5.736890	-0.949682	8.137609	-0.003462	-0.004733	0.004406	-0.704346	0.079346	-0.864258	-6.768862	35.096026	108.615408
