// General information: 
//  MT Manager version: 2022.2.0 
//  XDA version: 2022.2.0 build 7381 rev 124627 built on 2023-07-19
// Device information: 
//  DeviceId: 00B4BCF6
//  ProductCode: MTW2-3A7G6
//  Firmware Version: 4.6.0
//  Hardware Version: 2.0.0
// Device settings: 
//  Filter Profile: human(46.1)
//  Option Flags: Orientation Smoother Disabled, Position/Velocity Smoother Disabled, Continuous Zero Rotation Update Disabled, AHS Disabled, ICC Disabled
// Coordinate system: ENU
PacketCounter	SampleTimeFine	Acc_X	Acc_Y	Acc_Z	Gyr_X	Gyr_Y	Gyr_Z	Mag_X	Mag_Y	Mag_Z	Roll	Pitch	Yaw
58344		-5.951431	1.872761	7.645607	-0.007044	0.001427	-0.008191	-0.138184	-0.638916	-0.922363	14.181860	37.240276	34.943745
58345		-5.961325	1.910469	7.631636	-0.008490	0.002918	-0.006405	-0.140625	-0.642334	-0.915283	14.178752	37.239230	34.943085
58346		-5.956417	1.918275	7.609383	-0.003906	0.002022	-0.006237	-0.137695	-0.626221	-0.908203	14.178041	37.237588	34.942261
58347		-5.947132	1.878771	7.623317	-0.005264	0.002603	-0.007811	-0.143066	-0.641602	-0.919434	14.176155	37.236564	34.940565
58348		-5.939774	1.898805	7.633192	-0.006710	0.004094	-0.006025	-0.143799	-0.647217	-0.911133	14.174135	37.236035	34.940809
58349		-5.957516	1.915793	7.609148	-0.003566	0.002586	-0.009272	-0.139648	-0.634521	-0.911377	14.172603	37.235206	34.938090
58350		-5.935239	1.905795	7.610855	-0.005686	0.000847	-0.006617	-0.134277	-0.642822	-0.918945	14.170612	37.232944	34.935802
58351		-5.963244	1.905379	7.631410	-0.007045	0.001427	-0.008190	-0.143799	-0.637695	-0.911621	14.167420	37.231320	34.933634
58352		-5.971150	1.883353	7.621590	-0.009076	-0.001223	-0.008895	-0.134277	-0.636719	-0.909912	14.162285	37.228248	34.929900
58353		-5.955826	1.924070	7.641683	-0.007215	0.001145	-0.006673	-0.139404	-0.636230	-0.918213	14.159607	37.226254	34.928742
58354		-5.941339	1.892875	7.633447	-0.009681	0.003780	-0.009495	-0.137939	-0.637695	-0.921875	14.154392	37.226058	34.925864
58355		-5.941706	1.891793	7.633429	-0.003819	0.001113	-0.009595	-0.138916	-0.638428	-0.910156	14.152423	37.224456	34.922661
58356		-5.964640	1.899970	7.631667	-0.009769	0.004690	-0.006135	-0.145996	-0.635742	-0.916016	14.148671	37.224283	34.922377
58357		-5.939987	1.901983	7.665509	-0.006794	0.002902	-0.007865	-0.139404	-0.635010	-0.920166	14.145918	37.223432	34.920696
58358		-5.965602	1.897834	7.631446	-0.007480	0.006713	-0.010306	-0.133789	-0.642334	-0.917725	14.141915	37.224942	34.919028
58359		-5.966301	1.896805	7.631156	-0.006040	0.007325	-0.006891	-0.139893	-0.635986	-0.920654	14.140475	37.226412	34.918805
58360		-5.944514	1.886697	7.632504	-0.007148	0.009379	-0.008139	-0.141113	-0.643555	-0.920654	14.137872	37.229137	34.917916
58361		-5.954753	1.924407	7.618336	-0.008492	0.002917	-0.006404	-0.141357	-0.637207	-0.913086	14.134764	37.228090	34.917258
58362		-5.947925	1.872605	7.600059	-0.003907	0.002024	-0.006236	-0.141113	-0.640381	-0.910889	14.134055	37.226429	34.916236
58363		-5.990874	1.902355	7.628760	-0.005265	0.002604	-0.007809	-0.133789	-0.637451	-0.920166	14.132171	37.225404	34.914542
58364		-5.940783	1.891716	7.610042	-0.008825	0.000251	-0.008571	-0.133057	-0.637207	-0.914063	14.127464	37.223111	34.911268
58365		-5.946185	1.882021	7.632357	-0.005686	0.000847	-0.006617	-0.135986	-0.641602	-0.913574	14.125655	37.220943	34.910098
58366		-5.968981	1.890161	7.630709	-0.010272	0.001740	-0.006785	-0.140137	-0.635986	-0.915039	14.121038	37.219244	34.907677
58367		-5.933696	1.909484	7.620330	-0.007296	-0.000046	-0.008515	-0.143555	-0.636963	-0.916504	14.117411	37.216845	34.905026
58368		-5.947000	1.878842	7.632505	-0.007822	0.006149	-0.007270	-0.137451	-0.631104	-0.916260	14.114441	37.217612	34.904755
58369		-5.939826	1.898813	7.642319	-0.005016	0.004079	-0.007483	-0.141113	-0.642334	-0.916992	14.112994	37.217361	34.903548
58370		-5.948037	1.877202	7.632101	-0.004854	0.006462	-0.003799	-0.144287	-0.636475	-0.914063	14.113219	37.217836	34.905560
58371		-5.926075	1.867292	7.633536	-0.004426	0.006120	-0.010191	-0.141357	-0.635254	-0.914063	14.111183	37.219098	34.902822
58372		-5.951325	1.935244	7.627535	-0.004264	0.008502	-0.006507	-0.137939	-0.636719	-0.910156	14.110824	37.221054	34.903415
58373		-5.950236	1.874751	7.630989	-0.006902	0.010854	-0.007810	-0.139160	-0.631104	-0.907471	14.108877	37.224613	34.903168
58374		-5.945870	1.882489	7.608357	-0.005874	0.007609	-0.008405	-0.134521	-0.631348	-0.912354	14.106709	37.226364	34.901283
58375		-5.966717	1.902865	7.638496	-0.005874	0.007609	-0.008404	-0.141602	-0.638428	-0.920410	14.104755	37.228203	34.900052
58376		-5.962170	1.910667	7.615993	-0.004596	0.005837	-0.008674	-0.133789	-0.630127	-0.920410	14.102990	37.229019	34.898837
58377		-5.955569	1.858790	7.597463	-0.007823	0.006148	-0.007269	-0.135986	-0.638428	-0.917236	14.100243	37.229888	34.898141
58378		-5.945956	1.890948	7.639502	-0.005016	0.004080	-0.007482	-0.137451	-0.635742	-0.915283	14.098537	37.229591	34.897649
58379		-5.968974	1.899224	7.637639	-0.006715	0.004093	-0.006022	-0.133057	-0.629150	-0.915771	14.096735	37.229143	34.897464
58380		-5.941623	1.897988	7.617024	-0.003317	0.004067	-0.008942	-0.131592	-0.635254	-0.912109	14.095390	37.229033	34.895700
58381		-5.969983	1.897425	7.637297	-0.009353	0.006445	-0.007325	-0.139893	-0.635986	-0.914063	14.091775	37.230074	34.895018
58382		-5.940341	1.908349	7.648783	-0.003158	0.006448	-0.005257	-0.144287	-0.632080	-0.916504	14.092362	37.230763	34.894894
58383		-5.943377	1.895522	7.616270	-0.003067	0.005542	-0.008616	-0.141113	-0.635254	-0.915283	14.091707	37.231482	34.893152
58384		-5.949151	1.886070	7.638220	-0.004937	0.005271	-0.005640	-0.135010	-0.634766	-0.913574	14.090968	37.231510	34.894732
58385		-5.949609	1.885420	7.638024	-0.001958	0.003487	-0.007369	-0.139893	-0.632324	-0.920166	14.091258	37.230913	34.893501
58386		-5.965217	1.914727	7.645946	-0.003678	0.010545	-0.009210	-0.141357	-0.633057	-0.919189	14.090280	37.234419	34.892931
58387		-5.951019	1.883979	7.637281	-0.005107	0.004987	-0.004123	-0.137451	-0.634521	-0.915039	14.090295	37.234203	34.894228
58388		-5.968946	1.901148	7.613067	-0.002818	0.007016	-0.008289	-0.144287	-0.635010	-0.916504	14.089827	37.235599	34.893972
58389		-5.939329	1.912188	7.624531	-0.004767	0.005555	-0.007156	-0.142090	-0.641113	-0.906006	14.088817	37.236122	34.893252
58390		-5.970209	1.899589	7.612466	-0.004348	0.007313	-0.008346	-0.135254	-0.634766	-0.918945	14.087546	37.237644	34.891054
58391		-5.953483	1.880999	7.636095	-0.003238	0.005258	-0.007099	-0.134766	-0.643799	-0.915771	14.087404	37.237994	34.890322
58392		-5.976508	1.889337	7.634198	-0.005265	0.002606	-0.007808	-0.134277	-0.643555	-0.919678	14.085303	37.236915	34.887421
58393		-5.941422	1.908901	7.623724	-0.006624	0.003186	-0.009381	-0.131348	-0.635498	-0.911621	14.082037	37.236432	34.884733
58394		-5.932155	1.869216	7.637517	-0.005017	0.004080	-0.007482	-0.135498	-0.635986	-0.914795	14.080382	37.236144	34.881492
58395		-5.965099	1.916286	7.621560	-0.005721	0.009990	-0.004716	-0.134766	-0.644775	-0.923340	14.080326	37.238792	34.883251
58396		-5.938903	1.858913	7.658911	-0.003930	0.009072	-0.009534	-0.138916	-0.637207	-0.913818	14.078944	37.241543	34.880435
58397		-5.949383	1.896926	7.644596	-0.001290	0.006722	-0.008231	-0.139893	-0.631104	-0.922363	14.079595	37.242864	34.879169
58398		-5.957810	1.875414	7.634094	-0.002323	0.009966	-0.007634	-0.139648	-0.642334	-0.915771	14.079990	37.245798	34.880323
58399		-5.945783	1.904326	7.621468	-0.005800	0.008799	-0.006559	-0.127930	-0.632080	-0.917480	14.078984	37.248041	34.880588
58400		-5.976775	1.891627	7.609295	-0.005878	0.007610	-0.008401	-0.141113	-0.633789	-0.909668	14.076795	37.249827	34.878521
58401		-5.960061	1.872898	7.632954	-0.006468	0.005566	-0.005696	-0.138916	-0.637695	-0.923096	14.075428	37.250152	34.878822
58402		-5.922965	1.904781	7.654417	-0.003682	0.010547	-0.009206	-0.134521	-0.631348	-0.914063	14.074464	37.253615	34.878113
58403		-5.978986	1.889210	7.608159	-0.004613	0.007934	-0.003469	-0.135986	-0.633301	-0.908447	14.075352	37.254946	34.880383
58404		-5.957035	1.879491	7.609570	-0.001368	0.005533	-0.010072	-0.129639	-0.632568	-0.920898	14.074816	37.255785	34.877259
58405		-5.957671	1.878763	7.609251	-0.004520	0.007029	-0.006828	-0.136963	-0.634033	-0.919922	14.074241	37.257082	34.877026
58406		-5.927978	1.889892	7.620826	-0.003658	0.003500	-0.005909	-0.140137	-0.636963	-0.921143	14.073888	37.256245	34.878214
58407		-5.948681	1.910437	7.651092	-0.003068	0.005544	-0.008613	-0.139893	-0.639160	-0.912109	14.073233	37.256965	34.876474
58408		-5.934332	1.879704	7.642498	-0.004521	0.007029	-0.006827	-0.145508	-0.634766	-0.914063	14.072441	37.258132	34.876088
58409		-5.962673	1.879456	7.662666	-0.000599	0.002909	-0.005794	-0.129395	-0.632324	-0.912109	14.074114	37.256995	34.875855
58410		-5.930170	1.887241	7.619777	-0.005632	0.009084	-0.008073	-0.136963	-0.628174	-0.915283	14.072356	37.259500	34.875062
58411		-5.976063	1.904544	7.615912	-0.004769	0.005555	-0.007154	-0.138184	-0.636963	-0.918213	14.071345	37.260023	34.874342
58412		-5.946500	1.915742	7.627391	-0.001215	0.007913	-0.006385	-0.133301	-0.631592	-0.929932	14.072678	37.261646	34.875861
58413		-5.960001	1.885446	7.639163	-0.004769	0.005555	-0.007154	-0.138672	-0.636230	-0.913818	14.071666	37.262169	34.875142
58414		-5.945556	1.854740	7.630623	-0.003239	0.005260	-0.007097	-0.128906	-0.636719	-0.911133	14.071237	37.262440	34.876291
58415		-5.976014	1.914060	7.646998	-0.001957	0.003490	-0.007367	-0.140625	-0.638428	-0.927979	14.071528	37.261845	34.875062
58416		-5.953954	1.904320	7.648515	-0.004522	0.007029	-0.006827	-0.129150	-0.638428	-0.916748	14.070710	37.263067	34.874555
58417		-5.934166	1.882225	7.617906	-0.007041	0.001426	-0.008194	-0.137695	-0.639893	-0.917725	14.067520	37.261440	34.872388
58418		-5.957312	1.890562	7.615890	-0.000969	0.009388	-0.006056	-0.136719	-0.638916	-0.915527	14.069340	37.263871	34.871447
58419		-5.950192	1.911017	7.625697	-0.001093	-0.000039	-0.006448	-0.145752	-0.633057	-0.907959	14.070140	37.261187	34.870241
58420		-5.971038	1.859849	7.627564	-0.002822	0.007020	-0.008284	-0.130615	-0.640381	-0.922363	14.069720	37.262518	34.868411
58421		-5.958742	1.888972	7.615166	-0.002052	0.004395	-0.004007	-0.129395	-0.637939	-0.919189	14.071472	37.261958	34.869686
58422		-5.987046	1.888767	7.635334	-0.003411	0.004975	-0.005581	-0.138428	-0.631836	-0.918701	14.071596	37.261911	34.868887
58423		-5.959609	1.887926	7.614747	-0.002128	0.003205	-0.005850	-0.132813	-0.630371	-0.920166	14.072400	37.260947	34.868667
58424		-5.960004	1.887495	7.614544	-0.000352	0.004385	-0.005465	-0.134766	-0.628662	-0.921387	14.074216	37.260492	34.871036
58425		-5.965627	1.878152	7.636568	-0.005435	0.002320	-0.006294	-0.133057	-0.626709	-0.915039	14.072843	37.259097	34.870351
58426		-5.953267	1.907060	7.624287	-0.004524	0.007029	-0.006826	-0.138428	-0.628418	-0.907715	14.071958	37.260318	34.872320
58427		-5.943895	1.867717	7.638004	-0.001092	-0.000038	-0.006448	-0.136475	-0.634766	-0.919922	14.072759	37.257634	34.871115
58428		-5.953844	1.905862	7.624137	-0.005606	0.002035	-0.004778	-0.137939	-0.642822	-0.911133	14.071653	37.255746	34.871703
58429		-5.944387	1.866456	7.637929	-0.003659	0.003500	-0.005908	-0.139648	-0.627441	-0.913818	14.071587	37.254954	34.871494
58430		-5.959678	1.895900	7.646149	-0.002717	0.001160	-0.003147	-0.131592	-0.634766	-0.913330	14.072767	37.252338	34.872009
58431		-5.969825	1.862411	7.603744	-0.002129	0.003206	-0.005850	-0.139160	-0.633545	-0.918213	14.073570	37.251373	34.871790
58432		-5.960244	1.894856	7.645966	-0.003905	0.002026	-0.006236	-0.140869	-0.633789	-0.909912	14.072823	37.249711	34.870836
58433		-5.955209	1.903044	7.623774	-0.004247	0.001454	-0.003205	-0.139648	-0.637451	-0.910400	14.073345	37.247404	34.872156
58434		-5.966014	1.884928	7.668015	-0.001958	0.003492	-0.007365	-0.139893	-0.632813	-0.917236	14.073437	37.246658	34.869775
58435		-5.938569	1.884100	7.647443	-0.000257	0.003483	-0.008823	-0.139893	-0.625732	-0.913818	14.074086	37.246262	34.867528
58436		-5.956364	1.901336	7.623298	-0.005114	0.004983	-0.004122	-0.139648	-0.634766	-0.923096	14.073819	37.245907	34.870673
58437		-5.964313	1.879893	7.613051	-0.002300	0.002920	-0.004334	-0.140625	-0.632324	-0.916260	14.075135	37.244573	34.871462
58438		-5.949455	1.921136	7.633144	-0.005606	0.002034	-0.004778	-0.132813	-0.640625	-0.922852	14.074007	37.242676	34.873387
58439		-5.959705	1.887476	7.590675	-0.001712	0.004967	-0.007037	-0.139648	-0.641113	-0.912598	14.074734	37.242855	34.872647
58440		-5.957793	1.898988	7.622767	-0.003905	0.002026	-0.006235	-0.141113	-0.638184	-0.916504	14.074024	37.241190	34.870496
58441		-5.963285	1.889532	7.644912	-0.002450	0.000543	-0.008021	-0.141113	-0.640625	-0.914551	14.073444	37.239048	34.868295
58442		-5.930339	1.897487	7.602375	-0.004248	0.001454	-0.003205	-0.137695	-0.628418	-0.916016	14.073762	37.236593	34.868845
58443		-5.958460	1.897279	7.622671	-0.000600	0.002912	-0.005791	-0.135986	-0.637451	-0.912598	14.075436	37.235458	34.868615
58444		-5.936148	1.887620	7.624374	-0.003809	0.001123	-0.009594	-0.139160	-0.638184	-0.915771	14.073227	37.233753	34.865368
58445		-5.928903	1.907763	7.634413	-0.005361	0.003508	-0.004450	-0.141113	-0.638184	-0.917480	14.072802	37.232762	34.866178
58446		-5.989573	1.883294	7.610581	-0.003735	0.002312	-0.007750	-0.136475	-0.634766	-0.918701	14.071569	37.231429	34.864091
58447		-5.942350	1.876643	7.646339	-0.003906	0.002026	-0.006235	-0.140625	-0.635742	-0.916504	14.071067	37.229862	34.863396
58448		-5.957660	1.905948	7.654611	-0.004077	0.001740	-0.004720	-0.140625	-0.641113	-0.916016	14.070826	37.227809	34.864103
58449		-5.954941	1.902003	7.600165	-0.003906	0.002026	-0.006235	-0.139404	-0.634277	-0.913818	14.070324	37.226242	34.863408
58450		-5.935477	1.895701	7.656363	-0.002793	-0.000029	-0.004990	-0.133057	-0.633301	-0.915039	14.070555	37.223226	34.862488
58451		-5.943103	1.874260	7.646338	-0.004494	-0.000021	-0.003533	-0.140137	-0.635986	-0.916016	14.070640	37.220145	34.863321
58452		-5.960666	1.891373	7.622413	-0.005265	0.002606	-0.007808	-0.139648	-0.633301	-0.917969	14.068511	37.219020	34.861379
58453		-5.930723	1.902478	7.634318	-0.002696	-0.000930	-0.008349	-0.135986	-0.637939	-0.909668	14.067497	37.216105	34.858692
58454		-5.966294	1.881137	7.644635	-0.004077	0.001740	-0.004719	-0.137207	-0.629150	-0.916504	14.067280	37.214053	34.858228
58455		-5.938720	1.880312	7.624178	-0.003661	0.003501	-0.005906	-0.130859	-0.637451	-0.923096	14.067213	37.213260	34.858021
58456		-5.959366	1.900761	7.654573	-0.005608	0.002033	-0.004777	-0.129395	-0.641846	-0.913574	14.066066	37.211429	34.859233
58457		-5.926456	1.908685	7.612041	-0.005779	0.001746	-0.003262	-0.136719	-0.631592	-0.927246	14.065716	37.209293	34.860564
58458		-5.954600	1.908046	7.632416	-0.005169	0.001705	-0.011166	-0.148193	-0.639404	-0.916992	14.062115	37.208178	34.856090
58459		-5.954895	1.907160	7.632407	-0.005608	0.002033	-0.004777	-0.139404	-0.638916	-0.923828	14.061254	37.206412	34.856414
58460		-5.967891	1.876728	7.644472	-0.004152	0.000552	-0.006563	-0.137207	-0.635742	-0.916992	14.060091	37.203895	34.855984
58461		-5.940310	1.875741	7.624065	-0.006722	0.004087	-0.006021	-0.134766	-0.640381	-0.915283	14.058284	37.203444	34.855799
58462		-5.940580	1.874991	7.624039	-0.004323	0.000265	-0.005048	-0.141113	-0.635010	-0.910889	14.057638	37.200639	34.854187
58463		-5.915878	1.877427	7.658090	-0.003907	0.002027	-0.006234	-0.134521	-0.627441	-0.916016	14.057137	37.199073	34.853494
58464		-5.956138	1.903589	7.632328	-0.003907	0.002027	-0.006234	-0.135986	-0.638916	-0.920410	14.056375	37.197386	34.853285
58465		-5.956386	1.902958	7.632292	-0.004078	0.001740	-0.004719	-0.134766	-0.639160	-0.918213	14.056384	37.195449	34.853599
58466		-5.939514	1.884385	7.656025	-0.004190	0.007604	-0.009850	-0.135742	-0.635254	-0.914551	14.054551	37.197403	34.850333
58467		-5.957601	1.901476	7.631714	-0.004629	0.007931	-0.003461	-0.142334	-0.630859	-0.913818	14.055429	37.198732	34.852607
58468		-5.955756	1.912929	7.663807	-0.004152	0.000552	-0.006563	-0.149902	-0.636230	-0.917969	14.054247	37.196256	34.851725
58469		-5.958411	1.900151	7.631411	-0.004703	0.006743	-0.005305	-0.142334	-0.633789	-0.920654	14.054179	37.197182	34.852505
58470		-5.958881	1.899440	7.631221	-0.003736	0.002314	-0.007749	-0.138184	-0.637451	-0.917969	14.052915	37.195774	34.853040
58471		-5.959216	1.898633	7.631160	-0.005266	0.002607	-0.007807	-0.134521	-0.636475	-0.921143	14.051033	37.194749	34.851351
58472		-5.929423	1.909680	7.643010	-0.005266	0.002607	-0.007807	-0.135742	-0.631348	-0.919434	14.048901	37.193633	34.849483
58473		-5.954721	1.905865	7.608816	-0.003418	0.004976	-0.005575	-0.139404	-0.634277	-0.915283	14.049269	37.193614	34.849765
58474		-5.930295	1.908124	7.642722	-0.006626	0.003187	-0.009379	-0.136719	-0.635986	-0.909180	14.045739	37.193020	34.847894
58475		-5.938244	1.886366	7.632469	-0.005120	0.004981	-0.004118	-0.144775	-0.636475	-0.921631	14.045747	37.192802	34.849193
58476		-5.955926	1.903518	7.608460	-0.004151	0.000552	-0.006563	-0.142822	-0.639893	-0.917236	14.044596	37.190306	34.847675
58477		-5.938891	1.884889	7.632331	-0.004851	0.004369	-0.008992	-0.140625	-0.640137	-0.912842	14.042638	37.190425	34.845467
58478		-5.922026	1.866258	7.656068	-0.004950	0.005269	-0.005633	-0.135254	-0.635010	-0.912598	14.041961	37.190408	34.844175
58479		-5.939923	1.883568	7.631854	-0.000114	0.005866	-0.005129	-0.135742	-0.636963	-0.912109	14.044504	37.190822	34.844924
58480		-5.963067	1.892100	7.629774	-0.003419	0.004976	-0.005574	-0.128906	-0.633545	-0.922363	14.044665	37.190711	34.842986
58481		-5.935578	1.891205	7.609296	-0.006968	0.002612	-0.006350	-0.136475	-0.635986	-0.916016	14.042423	37.189486	34.842314
58482		-5.941111	1.881697	7.631390	-0.000846	0.001443	-0.006117	-0.135254	-0.637451	-0.912842	14.043389	37.187537	34.841600
58483		-5.958874	1.898910	7.607304	-0.004779	0.005556	-0.007147	-0.140625	-0.638184	-0.919434	14.042375	37.188059	34.840886
58484		-5.939763	1.892324	7.663330	-0.006725	0.004086	-0.006020	-0.139160	-0.630859	-0.915771	14.040356	37.187487	34.839470
58485		-5.965029	1.888484	7.629137	-0.003663	0.003502	-0.005904	-0.147217	-0.635742	-0.922852	14.040289	37.186695	34.839266
58486		-5.960092	1.896680	7.606905	-0.003907	0.002027	-0.006233	-0.141846	-0.640137	-0.913574	14.039515	37.184943	34.841112
58487		-5.935517	1.899039	7.640932	-0.005438	0.002319	-0.006292	-0.134766	-0.629639	-0.920654	14.038144	37.183547	34.840431
58488		-5.966001	1.886354	7.628904	-0.003493	0.003790	-0.007418	-0.139404	-0.635010	-0.918457	14.037321	37.183005	34.839456
58489		-5.936246	1.897625	7.640717	-0.002205	0.002023	-0.007689	-0.138184	-0.640625	-0.915039	14.037181	37.181639	34.837748
58490		-5.959207	1.905945	7.638830	-0.005366	0.003506	-0.004447	-0.147705	-0.634766	-0.916992	14.036543	37.180518	34.837572
58491		-5.954296	1.914027	7.616614	-0.005267	0.002607	-0.007806	-0.137207	-0.632080	-0.918945	14.034661	37.179492	34.835884
58492		-5.937253	1.895222	7.640530	-0.006870	0.001713	-0.009709	-0.144531	-0.626953	-0.926514	14.030705	37.178057	34.834736
58493		-5.937586	1.894334	7.640491	-0.005366	0.003506	-0.004447	-0.140381	-0.638672	-0.909668	14.030277	37.177064	34.835549
58494		-5.937936	1.893564	7.640411	-0.005267	0.002608	-0.007806	-0.137695	-0.637939	-0.914795	14.028130	37.175863	34.836164
58495		-5.945732	1.871826	7.630219	-0.005439	0.002319	-0.006291	-0.143555	-0.636719	-0.925049	14.026759	37.174467	34.835484
58496		-5.928056	1.909631	7.596056	-0.005268	0.002608	-0.007805	-0.142822	-0.633301	-0.923584	14.024643	37.173296	34.834491
58497		-5.938991	1.891002	7.640225	-0.006555	0.004374	-0.007534	-0.137207	-0.631348	-0.923340	14.022324	37.173214	34.833302
58498		-5.962135	1.899069	7.638258	-0.006484	0.005560	-0.005689	-0.132324	-0.635254	-0.909912	14.020629	37.173411	34.837414
58499		-5.950346	1.871730	7.684222	-0.001089	-0.000029	-0.006446	-0.145996	-0.639648	-0.915527	14.021437	37.170730	34.836217
58500		-5.940200	1.888831	7.639822	-0.006241	0.007035	-0.005358	-0.137939	-0.628174	-0.914307	14.020330	37.171687	34.834275
58501		-5.970831	1.876280	7.627609	-0.002062	0.004397	-0.003999	-0.136963	-0.643311	-0.920410	14.022078	37.171128	34.835555
58502		-5.933642	1.908515	7.649577	-0.005268	0.002608	-0.007805	-0.136963	-0.633301	-0.914307	14.019963	37.170002	34.833239
58503		-5.954138	1.857057	7.651342	-0.003908	0.002028	-0.006232	-0.140625	-0.637207	-0.920410	14.019463	37.168435	34.832549
58504		-5.918990	1.877199	7.641168	-0.004151	0.000554	-0.006563	-0.134033	-0.628662	-0.923096	14.018292	37.165973	34.831324
58505		-5.959242	1.903142	7.615472	-0.008672	0.002613	-0.004893	-0.140137	-0.638916	-0.919434	14.015688	37.164546	34.831670
58506		-5.919590	1.875481	7.641124	-0.005025	0.004083	-0.007474	-0.134033	-0.638672	-0.928467	14.013949	37.164208	34.832029
58507		-5.937257	1.892658	7.617138	-0.001089	-0.000028	-0.006446	-0.136719	-0.637451	-0.920410	14.014758	37.161528	34.830832
58508		-5.940710	1.895184	7.671413	-0.006243	0.007034	-0.005357	-0.141357	-0.635254	-0.917725	14.013542	37.162567	34.832162
58509		-5.943354	1.882419	7.638951	-0.003908	0.002028	-0.006232	-0.139893	-0.632324	-0.919434	14.013042	37.161001	34.831473
58510		-5.943638	1.881690	7.638910	-0.005439	0.002319	-0.006291	-0.135254	-0.632813	-0.912842	14.011415	37.159451	34.832186
58511		-5.961399	1.898881	7.614848	-0.001893	0.004687	-0.005512	-0.135986	-0.633789	-0.904785	14.012652	37.159263	34.832462
58512		-5.926988	1.862644	7.662565	-0.005611	0.002030	-0.004776	-0.143311	-0.637451	-0.913086	14.011612	37.157403	34.828712
58513		-5.937197	1.900708	7.648763	-0.002206	0.002027	-0.007688	-0.142578	-0.624756	-0.915283	14.011474	37.156037	34.827007
58514		-5.944861	1.879109	7.638594	-0.005853	0.000556	-0.005107	-0.145752	-0.635498	-0.920898	14.009934	37.153296	34.828346
58515		-5.909765	1.899278	7.628410	-0.003666	0.003503	-0.005901	-0.142090	-0.639648	-0.906250	14.009867	37.152504	34.828145
58516		-5.950746	1.868783	7.660586	-0.005268	0.002609	-0.007804	-0.132324	-0.631348	-0.907715	14.007829	37.151262	34.825193
58517		-5.938393	1.897892	7.648533	-0.002135	0.003213	-0.005842	-0.143555	-0.633545	-0.914795	14.008633	37.150299	34.824982
58518		-5.923561	1.867418	7.640022	-0.005198	0.003794	-0.005959	-0.133789	-0.632568	-0.920898	14.007480	37.149556	34.823232
58519		-5.963908	1.893501	7.614223	-0.004080	0.001740	-0.004718	-0.143066	-0.633789	-0.914063	14.007489	37.147619	34.823548
58520		-5.939399	1.895917	7.648242	-0.005198	0.003794	-0.005959	-0.139404	-0.631836	-0.920898	14.006287	37.146882	34.824098
58521		-5.924609	1.865289	7.639730	-0.005027	0.004083	-0.007473	-0.138916	-0.631348	-0.915771	14.004839	37.146630	34.822901
58522		-5.957668	1.912121	7.624038	-0.005027	0.004083	-0.007473	-0.137939	-0.633789	-0.920654	14.003105	37.146253	34.823548
58523		-5.953376	1.863644	7.659794	-0.005269	0.002609	-0.007804	-0.138184	-0.640625	-0.919434	14.001224	37.145227	34.821864
58524		-5.933749	1.913530	7.657860	-0.006247	0.007034	-0.005355	-0.139893	-0.634521	-0.918701	14.000044	37.146216	34.822386
58525		-5.959019	1.909710	7.623587	-0.003909	0.002029	-0.006231	-0.141357	-0.633301	-0.909912	13.999545	37.144650	34.821697
58526		-5.949377	1.870150	7.637277	-0.006800	0.002899	-0.007863	-0.140869	-0.637695	-0.910889	13.996580	37.143634	34.819581
58527		-5.942275	1.890231	7.647416	-0.003909	0.002029	-0.006231	-0.149414	-0.625244	-0.910156	13.996080	37.142068	34.818894
58528		-5.944566	1.877379	7.615218	-0.007696	-0.001814	-0.007343	-0.143311	-0.629639	-0.917236	13.992341	37.138282	34.817083
58529		-5.947560	1.879571	7.669946	-0.006749	-0.004158	-0.004588	-0.141357	-0.633057	-0.914063	13.990257	37.133048	34.816467
58530		-5.944299	1.875668	7.615849	-0.006336	-0.002394	-0.005770	-0.136719	-0.639160	-0.921387	13.987843	37.128784	34.816849
58531		-5.964656	1.895619	7.646701	-0.008179	-0.004763	-0.008005	-0.149414	-0.634033	-0.918701	13.983438	37.123687	34.813745
58532		-5.951603	1.924615	7.635279	-0.004340	-0.007978	-0.003620	-0.139893	-0.632324	-0.917725	13.982514	37.116023	34.814286
58533		-5.948647	1.864126	7.639318	-0.009882	-0.004763	-0.006550	-0.140625	-0.631836	-0.925537	13.977747	37.110724	34.812198
58534		-5.980402	1.838955	7.595689	-0.011019	-0.010951	-0.006362	-0.138916	-0.639160	-0.916748	13.971458	37.101843	34.811864
58535		-5.962591	1.891680	7.649288	-0.008368	-0.013296	-0.005063	-0.141846	-0.629395	-0.916504	13.967293	37.091594	34.809335
58536		-5.946294	1.860923	7.641930	-0.009022	-0.016535	-0.004213	-0.142822	-0.639404	-0.912354	13.962547	37.079303	34.806409
58537		-5.939663	1.868770	7.621160	-0.011519	-0.022143	-0.005597	-0.135254	-0.642822	-0.918945	13.955431	37.064207	34.801978
58538		-5.930728	1.888506	7.632825	-0.009576	-0.020668	-0.006721	-0.142822	-0.630371	-0.919434	13.948975	37.049988	34.792970
58539		-5.917107	1.860588	7.680209	-0.012740	-0.019194	-0.003476	-0.140381	-0.633301	-0.911865	13.942363	37.036239	34.790532
58540		-5.925830	1.898109	7.667824	-0.010457	-0.017138	-0.007628	-0.143066	-0.634277	-0.915283	13.935284	37.024076	34.785990
58541		-5.894641	1.908814	7.680955	-0.011747	-0.015374	-0.007353	-0.138428	-0.636963	-0.917236	13.928016	37.012986	34.781518
58542		-5.901141	1.886636	7.671777	-0.009563	-0.012423	-0.008145	-0.141113	-0.642334	-0.918457	13.921770	37.003533	34.775607
58543		-5.900488	1.885457	7.672569	-0.010541	-0.008001	-0.005693	-0.148926	-0.634033	-0.916504	13.916658	36.996313	34.773567
58544		-5.917578	1.902175	7.649263	-0.008187	-0.004760	-0.007999	-0.144531	-0.633057	-0.913330	13.912091	36.991034	34.769401
58545		-5.900075	1.883374	7.673398	-0.004230	-0.000625	-0.008403	-0.141357	-0.630127	-0.916504	13.910227	36.988290	34.766747
58546		-5.937827	1.850001	7.651160	0.002693	0.003823	-0.005334	-0.140869	-0.634033	-0.919678	13.913837	36.987451	34.767352
58547		-5.898073	1.951207	7.647575	-0.004015	0.002925	-0.002866	-0.145508	-0.632080	-0.915527	13.914784	36.985917	34.769166
58548		-5.900969	1.882184	7.673002	-0.000612	0.002928	-0.005779	-0.143311	-0.628906	-0.913818	13.916217	36.984645	34.769733
58549		-5.894060	1.902601	7.682942	-0.001322	0.006748	-0.008199	-0.143555	-0.630615	-0.912598	13.916869	36.985973	34.768494
58550		-5.900089	1.893248	7.704528	0.002465	0.010593	-0.007089	-0.142578	-0.633057	-0.916016	13.920313	36.989129	34.769318
58551		-5.933452	1.869163	7.659435	0.004719	0.014727	-0.006035	-0.133789	-0.628662	-0.917480	13.926162	36.994596	34.770962
58552		-5.897218	1.902185	7.680622	0.004620	0.015619	-0.002676	-0.132813	-0.635498	-0.921143	13.933177	37.000034	34.775278
58553		-5.915352	1.848497	7.626983	0.005939	0.011780	-0.008155	-0.140137	-0.634033	-0.914551	13.938531	37.004155	34.774938
58554		-5.919037	1.908184	7.622708	0.004138	0.012671	-0.003340	-0.142578	-0.630859	-0.917969	13.944721	37.008071	34.776578
58555		-5.922465	1.839780	7.647574	0.006479	0.007669	-0.004221	-0.152588	-0.632324	-0.913818	13.951606	37.009363	34.778269
58556		-5.958884	1.890624	7.686011	0.003075	0.007665	-0.001309	-0.144287	-0.635010	-0.923828	13.957522	37.010010	34.784384
58557		-5.924042	1.911775	7.675484	0.005587	0.002955	-0.003703	-0.144531	-0.628906	-0.914551	13.963622	37.008608	34.785619
58558		-5.929066	1.831410	7.668483	0.003885	0.002953	-0.002248	-0.145508	-0.634521	-0.917480	13.969078	37.006832	34.790699
58559		-5.964991	1.882219	7.707309	0.003234	-0.000287	-0.001398	-0.145020	-0.632813	-0.915771	13.974458	37.003309	34.792978
58560		-5.933915	1.879371	7.632602	0.002753	-0.003236	-0.002062	-0.142334	-0.630615	-0.911865	13.978744	36.998046	34.795555
58561		-5.926314	1.900370	7.642946	0.002753	-0.003236	-0.002062	-0.139893	-0.646240	-0.914307	13.983261	36.992975	34.796859
58562		-5.948674	1.909397	7.641379	0.002172	-0.005292	0.000633	-0.135986	-0.628174	-0.917969	13.988219	36.986266	34.795820
58563		-5.908296	1.882768	7.667219	0.003093	-0.002655	-0.005089	-0.140381	-0.632568	-0.914551	13.991724	36.981937	34.795117
58564		-5.915299	1.862104	7.657258	0.004655	-0.007926	0.003444	-0.148438	-0.636230	-0.916504	13.998844	36.973447	34.800112
58565		-5.930126	1.892282	7.665942	0.004284	-0.003525	-0.002004	-0.142578	-0.631592	-0.924316	14.004230	36.968206	34.801404
58566		-5.965138	1.871682	7.676213	0.007178	-0.004393	-0.000376	-0.139648	-0.642822	-0.908447	14.011586	36.962083	34.806735
58567		-5.906659	1.884363	7.668088	0.009520	-0.009395	-0.001256	-0.145508	-0.631348	-0.924561	14.019671	36.953476	34.807526
58568		-5.921359	1.914791	7.676803	0.008469	-0.006157	-0.000650	-0.140625	-0.625977	-0.908203	14.027541	36.946461	34.808185
58569		-5.893107	1.915313	7.656614	0.005816	-0.003814	-0.001947	-0.151611	-0.644287	-0.913574	14.033796	36.941051	34.809462
58570		-5.922869	1.903585	7.644816	0.005575	-0.005289	-0.002278	-0.142334	-0.634277	-0.916504	14.039457	36.934666	34.808739
58571		-5.892581	1.915857	7.656882	0.004694	-0.001760	-0.003186	-0.145020	-0.637939	-0.916504	14.044765	36.930570	34.809510
58572		-5.915395	1.924981	7.654945	0.005656	0.004138	-0.001861	-0.141602	-0.633301	-0.911621	14.051570	36.929436	34.812143
58573		-5.845323	1.910656	7.692377	0.006226	-0.002049	-0.003129	-0.148193	-0.633789	-0.916260	14.057749	36.925172	34.812903
58574		-5.928277	1.895773	7.666510	0.007358	0.004140	-0.003317	-0.147705	-0.639160	-0.918457	14.064912	36.924210	34.815116
58575		-5.893461	1.917031	7.655911	0.006236	0.006194	-0.004557	-0.141602	-0.637451	-0.918213	14.071362	36.924726	34.816318
58576		-5.899136	1.908281	7.677636	0.005755	0.003244	-0.005219	-0.137695	-0.636963	-0.907959	14.076735	36.923549	34.816740
58577		-5.899510	1.908377	7.677325	0.005925	0.003535	-0.006733	-0.152100	-0.645508	-0.916992	14.081820	36.922889	34.815966
58578		-5.910135	1.947026	7.663201	0.003512	0.007351	-0.007699	-0.148438	-0.642578	-0.923096	14.085407	36.924318	34.811454
58579		-5.848024	1.911296	7.690164	0.001810	0.007350	-0.006243	-0.139648	-0.634766	-0.918213	14.088739	36.925710	34.811685
58580		-5.926442	1.904697	7.641770	0.002630	0.010880	-0.008608	-0.150146	-0.632813	-0.918945	14.091675	36.929265	34.811921
58581		-5.889830	1.937476	7.663325	0.003342	0.007061	-0.006185	-0.155518	-0.640137	-0.919678	14.095877	36.930489	34.812143
58582		-5.903198	1.907465	7.674716	0.003921	0.009117	-0.008881	-0.148682	-0.631836	-0.912842	14.099265	36.932925	34.815089
58583		-5.904123	1.907356	7.674031	0.004061	0.011486	-0.005191	-0.146729	-0.641357	-0.916992	14.104759	36.936469	34.816774
58584		-5.927941	1.916182	7.671374	0.004880	0.015016	-0.007556	-0.138672	-0.641357	-0.922852	14.109903	36.942090	34.818330
58585		-5.880719	1.895337	7.619601	0.006172	0.013253	-0.007829	-0.138428	-0.631836	-0.921631	14.115692	36.946983	34.818492
58586		-5.925372	1.925169	7.647178	0.007370	0.020628	-0.006173	-0.153564	-0.640137	-0.915771	14.123315	36.955728	34.822463
58587		-5.904228	1.916456	7.647755	0.006651	0.016203	-0.007166	-0.145508	-0.638916	-0.917480	14.129967	36.962168	34.823603
58588		-5.858147	1.910737	7.682594	0.003587	0.016779	-0.007283	-0.150635	-0.630371	-0.910889	14.134699	36.968688	34.826136
58589		-5.902064	1.925510	7.623224	0.009447	0.024476	-0.003605	-0.142822	-0.643799	-0.918457	14.145316	36.979226	34.831204
58590		-5.931939	1.925801	7.641926	0.008017	0.023869	-0.007022	-0.137939	-0.634766	-0.916504	14.153420	36.989697	34.834526
58591		-5.888763	1.908399	7.643806	0.010675	0.029771	-0.007151	-0.145508	-0.642334	-0.912842	14.163820	37.003673	34.838063
58592		-5.891414	1.980424	7.670882	0.010362	0.018868	-0.007895	-0.150146	-0.639893	-0.917480	14.172380	37.011578	34.837706
58593		-5.876953	1.879355	7.632557	0.008317	0.018287	-0.003414	-0.145264	-0.641357	-0.913086	14.181783	37.018649	34.841831
58594		-5.959944	1.948302	7.666223	0.012506	0.023902	-0.003483	-0.142334	-0.634277	-0.912354	14.193993	37.028608	34.847196
58595		-5.893956	1.922392	7.670016	0.013429	0.026536	-0.009204	-0.148926	-0.644043	-0.921143	14.204778	37.041073	34.848749
58596		-5.912534	1.868783	7.615854	0.008591	0.017681	-0.008284	-0.137207	-0.644531	-0.917725	14.212027	37.048292	34.850590
58597		-5.882407	1.893756	7.658487	0.021524	0.030133	-0.003037	-0.136475	-0.645508	-0.911621	14.230423	37.061886	34.857075
58598		-5.938310	1.963398	7.670995	0.017509	0.033049	-0.005913	-0.140137	-0.644531	-0.916504	14.245488	37.077460	34.857015
58599		-5.855024	1.976729	7.640232	0.019105	0.033949	-0.004007	-0.135742	-0.641602	-0.919678	14.262508	37.093307	34.863512
58600		-5.929872	2.007816	7.685902	0.024655	0.055475	-0.005364	-0.151611	-0.647461	-0.912598	14.284236	37.121226	34.871246
58601		-5.853284	1.884565	7.705456	0.024176	0.052525	-0.006023	-0.144287	-0.643799	-0.910156	14.305320	37.147669	34.879655
58602		-6.014359	1.932562	7.602174	0.016941	0.042514	0.002401	-0.133057	-0.638916	-0.917725	14.324666	37.167054	34.889713
58603		-5.893826	1.935163	7.682941	0.026070	0.064333	-0.003370	-0.135254	-0.642578	-0.914551	14.349246	37.199669	34.902102
58604		-5.840004	1.877699	7.641992	0.035601	0.063189	-0.006013	-0.140137	-0.650635	-0.912109	14.377819	37.231986	34.911530
58605		-6.161586	1.932445	7.581416	0.039917	0.066216	0.006097	-0.134766	-0.640625	-0.914307	14.414575	37.264289	34.930909
58606		-5.856662	1.862555	7.623215	0.033064	0.051420	-0.000753	-0.141846	-0.645996	-0.913818	14.442780	37.289223	34.939771
58607		-6.034486	1.885416	7.584635	0.043790	0.069175	0.003871	-0.134033	-0.647217	-0.919678	14.481190	37.323467	34.958192
58608		-5.933677	1.895491	7.608655	0.040185	0.049125	0.004121	-0.129150	-0.637451	-0.917969	14.515282	37.346402	34.971777
58609		-5.966534	1.943213	7.534407	0.043659	0.053597	0.010117	-0.132568	-0.642334	-0.908936	14.554606	37.371090	34.991805
58610		-5.985648	1.848637	7.568481	0.041709	0.048841	0.004196	-0.140381	-0.645508	-0.909668	14.589506	37.393953	35.007500
58611		-5.950524	1.742389	7.530050	0.056839	0.057212	0.011979	-0.140869	-0.647217	-0.911133	14.637618	37.420354	35.029541
58612		-6.052881	1.834210	7.535775	0.064775	0.045249	0.024428	-0.135498	-0.647461	-0.913818	14.694096	37.438063	35.056548
58613		-5.962499	1.874832	7.513762	0.090198	0.049852	0.033880	-0.133057	-0.648438	-0.915283	14.769856	37.457158	35.092605
58614		-6.031911	1.923056	7.534712	0.101544	0.054376	0.040555	-0.135498	-0.648682	-0.906738	14.855251	37.477639	35.133203
58615		-5.986257	1.983480	7.508224	0.092921	0.033431	0.041820	-0.133789	-0.647949	-0.909912	14.934156	37.486392	35.171837
58616		-6.156266	2.121509	7.594144	0.083485	0.025446	0.042542	-0.132813	-0.648682	-0.916992	15.006862	37.490452	35.207546
58617		-5.875711	2.071018	7.450947	0.049737	-0.008969	0.030942	-0.134766	-0.646729	-0.911377	15.051594	37.477286	35.230683
58618		-6.019201	2.053373	7.485449	0.063165	0.004351	0.031677	-0.134033	-0.654297	-0.912842	15.105531	37.471284	35.258410
58619		-6.032602	1.974881	7.554743	0.064548	0.000048	0.043607	-0.128418	-0.654053	-0.911377	15.165124	37.461177	35.292035
58620		-5.995978	2.003808	7.543570	0.080474	-0.007839	0.044929	-0.139404	-0.656006	-0.914551	15.233254	37.446465	35.322446
58621		-6.037674	2.043033	7.570383	0.078733	-0.012751	0.054885	-0.138184	-0.661621	-0.906738	15.304229	37.427519	35.361447
58622		-5.964305	2.094039	7.549700	0.083350	-0.020654	0.058423	-0.131836	-0.657227	-0.904541	15.378247	37.403481	35.397680
58623		-6.032836	2.134079	7.597259	0.074265	-0.028067	0.056134	-0.130859	-0.658691	-0.922607	15.445330	37.375808	35.434529
58624		-5.981308	2.064637	7.606973	0.052750	-0.044993	0.049247	-0.135254	-0.656006	-0.910889	15.494907	37.339852	35.461204
58625		-5.960314	2.125860	7.660621	0.045040	-0.044738	0.047060	-0.137207	-0.657227	-0.916016	15.539385	37.304313	35.488444
58626		-5.963684	2.182654	7.680166	0.033796	-0.046857	0.044088	-0.130127	-0.652588	-0.909668	15.575597	37.268011	35.513211
58627		-5.907735	2.190355	7.695705	0.027314	-0.019038	0.030176	-0.142578	-0.664307	-0.908447	15.605768	37.249227	35.533635
58628		-5.917968	2.219864	7.649156	0.026501	-0.002374	0.019224	-0.134033	-0.666504	-0.912598	15.632600	37.241286	35.547579
58629		-5.897503	2.201158	7.618213	0.027817	0.016028	0.005631	-0.137695	-0.657959	-0.907227	15.656862	37.245626	35.557772
58630		-5.931532	2.178921	7.571678	0.031387	0.041899	0.000098	-0.141357	-0.660889	-0.911377	15.683717	37.265062	35.565585
58631		-5.968316	2.100780	7.583071	0.027130	0.050357	-0.006475	-0.138672	-0.655273	-0.903320	15.706564	37.290208	35.574081
58632		-5.955076	2.084012	7.604287	0.004474	0.045843	-0.010917	-0.132080	-0.659180	-0.906982	15.713827	37.313413	35.577896
58633		-5.999951	2.126435	7.661614	-0.008563	0.037635	-0.005771	-0.133545	-0.657959	-0.908447	15.715029	37.331431	35.584414
58634		-5.980864	2.072846	7.512633	-0.050783	0.002395	-0.013400	-0.139404	-0.659180	-0.916016	15.684427	37.331168	35.577728
58635		-5.962654	2.105926	7.479314	-0.062983	-0.002307	-0.010643	-0.139893	-0.656250	-0.916992	15.647675	37.327909	35.573076
58636		-5.944941	2.169100	7.563977	-0.024929	0.013642	-0.013639	-0.136719	-0.656738	-0.905518	15.633057	37.333774	35.571017
58637		-5.958592	2.136198	7.576616	-0.040391	-0.002318	-0.015053	-0.142334	-0.658203	-0.908447	15.607395	37.331186	35.563306
58638		-5.971396	2.030907	7.561963	-0.032842	0.005386	-0.012827	-0.132568	-0.659912	-0.910400	15.587716	37.332339	35.557420
58639		-5.931016	2.014064	7.620601	-0.022746	0.016587	-0.014428	-0.138184	-0.648926	-0.900635	15.574646	37.340085	35.553803
58640		-5.944215	2.037526	7.573391	-0.025448	0.021047	-0.010571	-0.139648	-0.664307	-0.914795	15.561954	37.349593	35.553207
58641		-5.958155	2.133139	7.553674	-0.023501	0.022512	-0.011690	-0.136475	-0.662109	-0.902344	15.550296	37.360187	35.552631
58642		-6.061813	2.106210	7.439265	-0.065260	-0.018014	-0.017245	-0.135986	-0.653564	-0.907715	15.507496	37.349111	35.536234
58643		-5.903844	2.140163	7.602577	-0.022800	-0.003198	-0.018488	-0.134033	-0.656006	-0.908447	15.490364	37.346551	35.525973
58644		-5.893519	2.026775	7.590024	-0.023639	-0.006710	-0.016107	-0.137451	-0.661377	-0.902832	15.473125	37.341579	35.516389
58645		-6.020914	2.039927	7.590604	-0.006709	0.037911	-0.008649	-0.134033	-0.644043	-0.904785	15.474154	37.360211	35.520868
58646		-5.938576	2.108607	7.557870	-0.037519	-0.003178	-0.013402	-0.134033	-0.655762	-0.907959	15.450526	37.356745	35.513812
58647		-5.929849	2.138421	7.600743	-0.035788	0.005049	-0.016319	-0.135742	-0.656738	-0.915039	15.427827	37.358400	35.506641
58648		-6.047946	2.183605	7.644031	-0.022220	0.017435	-0.018949	-0.137207	-0.648438	-0.909668	15.413012	37.367183	35.499275
58649		-5.881526	2.049870	7.554760	-0.051391	0.020551	-0.023985	-0.135498	-0.653076	-0.905273	15.379937	37.378563	35.489741
58650		-5.898862	2.074708	7.562389	-0.041734	0.018457	-0.029935	-0.136963	-0.660156	-0.907715	15.349400	37.389530	35.476508
58651		-5.957827	2.070292	7.601608	-0.043770	0.034383	-0.028400	-0.137939	-0.651855	-0.913574	15.320413	37.409214	35.466522
58652		-5.988325	1.993519	7.592592	-0.042775	0.029944	-0.030818	-0.136475	-0.645020	-0.909424	15.290269	37.426630	35.452629
58653		-5.946878	2.042625	7.623906	-0.043779	0.034385	-0.028392	-0.142090	-0.652832	-0.904785	15.261258	37.446305	35.442619
58654		-5.967382	2.054962	7.598271	-0.047300	0.040251	-0.030649	-0.132324	-0.652588	-0.907471	15.229720	37.469333	35.433069
58655		-5.978476	2.028463	7.586661	-0.048181	0.043779	-0.031575	-0.135742	-0.660156	-0.915771	15.197893	37.494671	35.422588
58656		-5.900729	2.038799	7.611211	-0.035395	0.062101	-0.031411	-0.134033	-0.650391	-0.911621	15.175388	37.529962	35.413406
58657		-5.981373	2.039536	7.591424	-0.042634	0.065307	-0.032953	-0.131348	-0.649902	-0.907959	15.148600	37.567405	35.405995
58658		-5.946605	2.064527	7.555840	-0.021713	0.081849	-0.038787	-0.138428	-0.654297	-0.908691	15.132988	37.614706	35.397510
58659		-6.005397	2.057184	7.537314	-0.029937	0.065958	-0.031704	-0.134521	-0.652344	-0.918457	15.114050	37.652319	35.391053
58660		-5.943170	2.026509	7.540737	-0.027996	0.067434	-0.032808	-0.126465	-0.648926	-0.909180	15.095725	37.690674	35.383369
58661		-5.994776	2.040328	7.532200	-0.022055	0.082489	-0.033890	-0.132813	-0.650635	-0.911621	15.082245	37.737754	35.378465
58662		-6.008451	2.098825	7.578249	-0.041044	0.079409	-0.040969	-0.126953	-0.643066	-0.919922	15.054273	37.784018	35.367665
58663		-6.052659	2.143611	7.611746	-0.043753	0.092561	-0.055908	-0.130371	-0.645996	-0.911865	15.020026	37.839941	35.349175
58664		-6.008006	2.065200	7.834715	-0.029529	0.109430	-0.057434	-0.122314	-0.647461	-0.915771	14.994878	37.905245	35.335794
58665		-5.970865	2.110360	7.806328	-0.019774	0.142751	-0.065410	-0.121826	-0.646973	-0.912598	14.975971	37.990341	35.319965
58666		-5.907199	2.083585	7.727674	-0.015012	0.188381	-0.082334	-0.117920	-0.647461	-0.913086	14.957446	38.103062	35.301226
58667		-6.023976	2.164674	7.723721	0.009498	0.224882	-0.072356	-0.117920	-0.655029	-0.907959	14.961729	38.234643	35.295861
58668		-5.993134	2.150958	7.692254	-0.013786	0.256218	-0.088470	-0.115479	-0.647949	-0.908203	14.949113	38.385792	35.282576
58669		-6.019436	2.267129	7.887518	-0.024393	0.302836	-0.127169	-0.111084	-0.644287	-0.911621	14.918925	38.568620	35.253054
58670		-6.119862	2.104466	7.761819	-0.060441	0.345522	-0.156362	-0.105957	-0.645996	-0.913330	14.859742	38.779161	35.210531
58671		-6.106251	1.829637	7.837140	-0.027146	0.407996	-0.177851	-0.104004	-0.655273	-0.907227	14.817248	39.027630	35.164199
58672		-6.241923	1.808254	7.724334	0.032738	0.457964	-0.169084	-0.096680	-0.635986	-0.906738	14.818524	39.302260	35.130652
58673		-6.239655	2.134349	7.732301	0.032997	0.508991	-0.199238	-0.086426	-0.649902	-0.901611	14.812256	39.609790	35.087645
58674		-6.181530	2.070309	7.570938	0.033572	0.521352	-0.234408	-0.081787	-0.650391	-0.902588	14.791051	39.929122	35.021042
58675		-6.207211	1.965383	7.722376	0.106614	0.488844	-0.212809	-0.076904	-0.653076	-0.904541	14.817495	40.227472	34.963888
58676		-6.330356	1.737383	7.847222	0.124768	0.526499	-0.208885	-0.065918	-0.654297	-0.903564	14.860592	40.545929	34.912786
58677		-5.949362	1.606972	8.160769	0.154040	0.519878	-0.184579	-0.062256	-0.653564	-0.896484	14.931177	40.857375	34.882377
58678		-5.810482	1.607012	8.756051	0.155064	0.639760	-0.195019	-0.052490	-0.652344	-0.902832	15.012790	41.236578	34.864732
58679		-6.095236	1.358415	8.211895	0.195283	0.771812	-0.187098	-0.046631	-0.654785	-0.897461	15.139275	41.687850	34.883516
58680		-6.127270	1.709286	8.063481	0.203885	0.853324	-0.171250	-0.033936	-0.663330	-0.893311	15.290478	42.181502	34.931602
58681		-6.461965	1.451119	7.893897	0.258965	0.924668	-0.148544	-0.024170	-0.662598	-0.887451	15.496917	42.711262	35.014436
58682		-6.350543	1.801984	7.889720	0.283232	0.996735	-0.135655	-0.006104	-0.661133	-0.883057	15.737016	43.278209	35.123839
58683		-6.358070	1.880675	7.815661	0.288235	1.084099	-0.142548	-0.000732	-0.660889	-0.886719	15.993565	43.894378	35.253279
58684		-6.288912	2.315125	7.935337	0.309080	1.176528	-0.146051	0.011230	-0.679688	-0.875977	16.278947	44.561044	35.405855
58685		-6.164747	2.377394	8.092995	0.284802	1.308300	-0.174549	0.018555	-0.673584	-0.871582	16.562464	45.304676	35.573176
58686		-6.092313	2.740020	8.268195	0.291754	1.506460	-0.212859	0.040771	-0.672119	-0.866455	16.868762	46.162139	35.764776
58687		-5.997762	2.933184	8.526307	0.261589	1.738840	-0.263744	0.061279	-0.678955	-0.861328	17.179365	47.155318	35.982789
58688		-5.733083	2.993102	9.007260	0.261474	2.075540	-0.339731	0.085449	-0.674072	-0.854492	17.519453	48.344011	36.237244
58689		-5.888351	2.741426	9.247512	0.295679	2.510381	-0.430764	0.113281	-0.687988	-0.840820	17.927601	49.785502	36.550370
58690		-6.743956	2.345458	9.146662	0.341782	2.890075	-0.479949	0.142578	-0.687500	-0.824951	18.439217	51.439826	36.956453
58691		-8.095473	2.176482	8.775191	0.417784	3.130782	-0.494989	0.178711	-0.690674	-0.809570	19.083307	53.225787	37.464920
58692		-9.195021	1.780759	8.537574	0.617206	3.213602	-0.487808	0.212646	-0.690430	-0.788818	19.927758	55.049801	38.068151
58693		-11.011547	2.073919	8.534904	0.970264	3.205745	-0.447597	0.249023	-0.712402	-0.766113	21.085997	56.856196	38.792325
58694		-12.522771	4.066389	8.518819	1.146639	3.049167	-0.439890	0.275146	-0.713867	-0.752441	22.401511	58.567261	39.569038
58695		-11.370036	5.269437	7.827338	0.992559	2.897331	-0.565084	0.313477	-0.721924	-0.728271	23.567817	60.218039	40.260760
58696		-11.131794	4.589796	7.462226	0.742492	2.727791	-0.716297	0.344482	-0.726563	-0.709717	24.469823	61.807431	40.803420
58697		-10.458123	3.973969	6.921009	0.605180	2.538635	-0.829063	0.369629	-0.736816	-0.684326	25.168038	63.323027	41.196940
58698		-9.116804	4.140244	6.625641	0.519150	2.417862	-0.932070	0.383789	-0.735596	-0.665283	25.702454	64.798014	41.458345
58699		-7.967859	3.952704	6.326368	0.396723	2.307831	-1.049661	0.412109	-0.729980	-0.645996	26.013998	66.246190	41.548511
58700		-6.681550	3.354483	6.284160	0.286299	2.122203	-1.117043	0.433105	-0.740234	-0.633545	26.087491	67.614007	41.448058
58701		-5.358726	2.640361	6.714019	0.252885	1.822730	-1.130854	0.457764	-0.727539	-0.605713	25.927781	68.832688	41.117737
58702		-4.168469	2.348361	7.092759	0.291637	1.482289	-1.105654	0.471924	-0.720703	-0.595215	25.566033	69.866931	40.550614
58703		-7.518417	1.295842	6.782319	0.430869	1.215572	-1.134586	0.473633	-0.728516	-0.583740	25.008778	70.770366	39.694329
58704		-7.284731	1.258126	7.344187	0.632013	0.742579	-0.925600	0.491699	-0.731689	-0.572266	24.492745	71.372600	38.764060
58705		-5.491813	1.792843	7.143795	0.748013	0.280034	-0.718341	0.492920	-0.741455	-0.564941	24.003191	71.683963	37.793783
58706		-4.045771	2.197717	6.754954	0.753794	-0.067150	-0.558370	0.492188	-0.739258	-0.571045	23.508456	71.771145	36.816070
58707		-2.797859	2.356300	6.574140	0.679453	-0.296118	-0.441005	0.494385	-0.736816	-0.556152	22.999361	71.711086	35.867774
58708		-2.329378	2.190980	6.393694	0.581248	-0.453829	-0.370298	0.486084	-0.746094	-0.559082	22.448171	71.546383	34.934207
58709		-2.234701	1.816153	6.297175	0.496448	-0.602745	-0.302339	0.479980	-0.751465	-0.556396	21.876342	71.287994	34.028563
58710		-2.514692	1.509844	6.317510	0.461029	-0.768838	-0.214538	0.477539	-0.756348	-0.555420	21.340542	70.916567	33.181190
58711		-2.864961	1.475075	6.438163	0.443072	-0.971280	-0.105946	0.469971	-0.758301	-0.563477	20.870209	70.415385	32.411434
58712		-3.229424	1.711448	6.467499	0.407879	-1.180449	0.010362	0.459717	-0.766846	-0.562012	20.467702	69.773037	31.732972
58713		-3.494088	1.856150	6.504809	0.340994	-1.413870	0.142637	0.443848	-0.774414	-0.577637	20.128085	68.981068	31.159055
58714		-3.595913	2.184869	6.522734	0.250702	-1.620218	0.272775	0.437256	-0.770508	-0.581299	19.846241	68.047516	30.699967
58715		-3.938200	2.221353	6.428919	0.137601	-1.823409	0.398419	0.423096	-0.779053	-0.592529	19.600042	66.983224	30.345865
58716		-4.322952	2.147203	6.369714	0.032411	-2.006432	0.541081	0.396973	-0.788574	-0.596436	19.416058	65.788083	30.122954
58717		-4.697405	2.084454	6.247196	-0.058259	-2.176283	0.685080	0.375488	-0.792236	-0.621094	19.297098	64.477759	30.026259
58718		-5.032846	2.034078	6.146593	-0.131517	-2.333711	0.842232	0.354004	-0.799072	-0.640137	19.256938	63.048051	30.063616
58719		-5.390135	2.001766	6.121233	-0.209987	-2.459907	0.981756	0.322754	-0.806396	-0.644043	19.268875	61.528176	30.210560
58720		-5.886819	1.868090	6.144902	-0.269098	-2.562140	1.101298	0.300537	-0.821045	-0.659180	19.317894	59.925693	30.441590
58721		-6.490398	1.729078	6.192574	-0.326075	-2.644074	1.185863	0.271484	-0.823975	-0.675537	19.369758	58.267422	30.717245
58722		-7.235285	1.582423	6.223797	-0.362338	-2.723206	1.245125	0.239502	-0.835938	-0.699219	19.409918	56.550211	31.009370
58723		-7.883715	1.701694	6.268563	-0.406325	-2.803423	1.281020	0.216064	-0.833740	-0.705078	19.414536	54.787540	31.294258
58724		-8.521026	1.842555	6.281291	-0.456778	-2.858652	1.279681	0.173096	-0.842285	-0.724121	19.360448	52.990516	31.549293
58725		-8.941271	2.025362	6.282211	-0.527300	-2.902917	1.253612	0.151855	-0.834961	-0.729492	19.228204	51.179567	31.761891
58726		-9.386248	2.309832	6.147264	-0.605982	-2.921665	1.195582	0.110352	-0.846191	-0.749268	19.004602	49.364978	31.920584
58727		-9.889821	2.491762	5.939445	-0.672989	-2.908529	1.129442	0.071045	-0.846680	-0.762939	18.707105	47.575035	32.035411
58728		-10.624344	2.619786	5.615188	-0.716524	-2.876210	1.063990	0.042236	-0.853516	-0.768311	18.358259	45.810353	32.118048
58729		-11.263141	2.780403	5.168415	-0.740427	-2.820313	1.009726	-0.000488	-0.841797	-0.777832	17.984181	44.090863	32.186023
58730		-11.909433	2.855237	4.597335	-0.726078	-2.725587	0.953890	-0.032227	-0.834229	-0.786865	17.612695	42.428755	32.248629
58731		-12.586716	2.641675	3.873162	-0.659368	-2.595138	0.899644	-0.055908	-0.838379	-0.787109	17.280044	40.852000	32.313346
58732		-12.976387	2.472917	3.155911	-0.523232	-2.410744	0.850614	-0.092773	-0.833740	-0.797363	17.033279	39.380729	32.392948
58733		-13.230093	2.400129	2.368528	-0.344231	-2.169011	0.804531	-0.125488	-0.838867	-0.801514	16.902859	38.053859	32.496321
58734		-13.594116	2.361348	1.469341	-0.154026	-1.870500	0.754306	-0.145508	-0.846191	-0.802979	16.896706	36.895635	32.628197
58735		-13.683328	2.303625	0.623259	0.026308	-1.532169	0.699692	-0.168945	-0.846191	-0.802246	17.009794	35.935327	32.789665
58736		-13.341353	2.098874	-0.227311	0.197405	-1.138362	0.624821	-0.180176	-0.844971	-0.797607	17.234160	35.200114	32.977502
58737		-12.092138	1.610375	-0.975457	0.378540	-0.670898	0.543772	-0.189941	-0.851563	-0.798096	17.582384	34.736401	33.202893
58738		-9.066495	7.303843	1.882756	-0.279068	0.310295	0.189766	-0.195068	-0.850586	-0.790771	17.535807	34.867295	33.397694
58739		-9.027401	4.329512	-3.870237	-0.478000	1.903677	-0.437850	-0.166016	-0.851074	-0.799561	17.327970	35.979369	33.507913
58740		-22.655656	16.294188	-3.701622	-1.847911	2.929446	-1.400304	-0.131348	-0.845459	-0.803223	16.058748	37.812228	33.153477
58741		-60.906516	-22.160584	1.665726	-1.211171	1.083936	-1.585785	-0.120117	-0.821777	-0.808594	14.809163	38.649071	32.252179
58742		-1.147878	-12.911794	6.676601	-1.427703	-2.732882	-0.451350	-0.140137	-0.809326	-0.817383	13.502019	37.191088	31.452435
58743		0.456289	-2.023486	10.288371	-0.760814	-1.755138	-0.037723	-0.164795	-0.799561	-0.821533	12.883475	36.213418	31.143278
58744		-5.638538	7.448044	14.668002	0.133965	-0.689824	0.199584	-0.168945	-0.795898	-0.822754	12.980711	35.799493	31.174798
58745		-1.386263	1.661538	11.694601	0.108690	0.330449	-0.015365	-0.163086	-0.795410	-0.823730	13.071767	35.982423	31.220211
58746		-8.626014	-1.722213	6.848718	0.256677	0.630678	0.041609	-0.157227	-0.800293	-0.821045	13.299906	36.325330	31.354229
58747		-5.233894	2.319034	7.967327	0.363908	0.445945	0.178718	-0.154541	-0.810303	-0.818115	13.629973	36.546436	31.555272
58748		-6.818851	3.020569	6.562237	0.313519	0.456567	0.172882	-0.144531	-0.813965	-0.810791	13.931370	36.773482	31.755957
58749		-6.331207	2.716844	7.177253	0.220680	0.251774	0.101442	-0.154785	-0.812256	-0.819580	14.130373	36.895780	31.873394
58750		-5.895054	2.089976	7.806020	0.167162	0.218620	0.071980	-0.152100	-0.818115	-0.807373	14.283222	37.003703	31.964998
58751		-6.111086	2.074163	7.307563	0.106173	0.240992	0.046659	-0.136475	-0.814697	-0.823486	14.393579	37.127283	32.043585
58752		-6.260637	2.558115	7.124844	0.076523	0.169946	0.022383	-0.142822	-0.817871	-0.810547	14.469138	37.214996	32.092735
58753		-6.126380	2.739401	7.056033	-0.006616	0.080577	-0.019194	-0.136230	-0.815674	-0.815186	14.470158	37.258864	32.097120
58754		-6.006155	2.526009	7.189474	-0.078834	0.007932	-0.066109	-0.143066	-0.816406	-0.811768	14.401914	37.269341	32.055602
58755		-6.108988	1.947095	7.351890	-0.100363	-0.022254	-0.072220	-0.143799	-0.820557	-0.819580	14.315648	37.263674	32.004539
58756		-6.177969	1.462049	7.532228	-0.097841	-0.068786	-0.054492	-0.147217	-0.815430	-0.814941	14.233200	37.229831	31.957499
58757		-6.053076	1.280244	7.844209	-0.051084	-0.060288	-0.030231	-0.143799	-0.817383	-0.812988	14.188887	37.197028	31.929057
58758		-5.936145	1.189908	7.970895	0.035362	-0.019389	0.014608	-0.140381	-0.814697	-0.821045	14.217196	37.180870	31.938975
58759		-5.968697	1.523223	7.821190	0.102491	0.025860	0.052512	-0.144043	-0.817383	-0.823730	14.304950	37.184245	31.983441
58760		-5.934339	1.906516	7.647159	0.130587	0.044370	0.072595	-0.141846	-0.822754	-0.814209	14.419031	37.195207	32.045050
58761		-5.989666	2.198954	7.549887	0.122777	0.046557	0.075600	-0.139893	-0.816406	-0.821045	14.530408	37.206626	32.109344
58762		-6.056488	2.229738	7.484583	0.092549	0.025057	0.056366	-0.140381	-0.827148	-0.814209	14.613813	37.209036	32.156227
58763		-5.980227	2.169298	7.525923	0.068585	-0.003527	0.044103	-0.155762	-0.814209	-0.811035	14.675406	37.197102	32.189536
58764		-5.959471	2.024121	7.605382	0.046053	-0.021719	0.034013	-0.142578	-0.825928	-0.812012	14.717616	37.176758	32.212340
58765		-5.925897	1.921646	7.704420	0.061695	-0.010610	0.037434	-0.143799	-0.822754	-0.812744	14.771637	37.161826	32.239673
58766		-5.978349	2.088626	7.752582	0.052125	-0.010861	0.038218	-0.146973	-0.831055	-0.814697	14.820249	37.146847	32.267338
58767		-5.990720	2.037848	7.701483	0.034504	-0.016189	0.031061	-0.147461	-0.818115	-0.809082	14.855360	37.129725	32.289176
58768		-5.988099	2.122305	7.705823	0.020454	-0.011495	0.018267	-0.148926	-0.818848	-0.818115	14.877364	37.117295	32.302835
58769		-5.933036	2.076374	7.779374	0.025557	-0.001726	0.012700	-0.146729	-0.824951	-0.816406	14.901244	37.110868	32.314567
58770		-5.907718	2.053422	7.694786	0.026656	0.003546	0.009090	-0.137207	-0.826904	-0.813477	14.924628	37.108103	32.324625
58771		-5.918616	2.106316	7.710634	0.019772	0.014656	-0.001885	-0.142090	-0.825439	-0.810059	14.940909	37.112892	32.329258
58772		-5.916533	2.035289	7.682479	0.022474	0.030595	-0.004855	-0.143799	-0.835693	-0.819092	14.959085	37.127148	32.334650
58773		-5.990527	1.966333	7.637691	0.026956	0.030783	-0.001310	-0.147949	-0.823975	-0.810059	14.981536	37.140776	32.342682
58774		-5.968702	1.973606	7.669263	0.026360	0.036033	-0.003481	-0.141846	-0.833008	-0.815430	15.003134	37.157832	32.350054
58775		-5.960558	2.073115	7.625710	0.028258	0.037539	-0.004612	-0.146729	-0.831055	-0.812012	15.025720	37.175684	32.357068
58776		-5.986728	2.149818	7.592969	0.015289	0.032666	-0.009744	-0.150879	-0.820068	-0.812500	15.037979	37.191801	32.359479
58777		-6.013023	2.076353	7.585174	-0.003714	0.018147	-0.017246	-0.142090	-0.829834	-0.821289	15.034763	37.200798	32.354110
58778		-5.975326	2.037777	7.578943	-0.002291	0.023959	-0.023880	-0.141602	-0.826172	-0.813721	15.030037	37.214197	32.345080
58779		-5.964668	2.011407	7.624563	-0.006728	0.024983	-0.025608	-0.149170	-0.826660	-0.813721	15.022345	37.228218	32.335171
58780		-5.949423	2.060785	7.619885	-0.009795	0.025485	-0.025753	-0.144043	-0.821045	-0.814209	15.012696	37.242736	32.325117
58781		-5.958183	2.036619	7.609166	-0.016175	0.023788	-0.028169	-0.139893	-0.829346	-0.816895	14.998369	37.256473	32.313194
58782		-5.979659	2.036604	7.551766	-0.018689	0.017825	-0.027960	-0.144531	-0.822021	-0.815918	14.981822	37.267072	32.300168
58783		-5.950314	1.992872	7.622861	-0.019789	0.012555	-0.024349	-0.139404	-0.836914	-0.810547	14.965757	37.274021	32.288800
58784		-5.965857	1.933837	7.571321	-0.017562	0.019189	-0.019713	-0.143311	-0.827881	-0.815674	14.953474	37.284148	32.281755
58785		-5.955137	1.974871	7.589458	-0.007957	0.020661	-0.018657	-0.143066	-0.823730	-0.812744	14.947493	37.294739	32.275847
58786		-5.950863	1.994895	7.597817	-0.007835	0.024302	-0.013199	-0.143555	-0.818115	-0.815430	14.944097	37.306731	32.274277
58787		-5.972470	1.996606	7.539791	-0.005327	0.030267	-0.013403	-0.143555	-0.831543	-0.809326	14.942917	37.321863	32.273807
58788		-5.939543	2.030903	7.559344	-0.001531	0.033284	-0.015659	-0.134766	-0.820068	-0.816650	14.943104	37.339190	32.272192
58789		-5.941617	2.042885	7.588963	-0.002690	0.044999	-0.018178	-0.139893	-0.819092	-0.807373	14.943079	37.363183	32.271134
58790		-6.004202	2.013871	7.562494	-0.003618	0.049707	-0.017325	-0.145020	-0.825684	-0.811768	14.943220	37.389843	32.271412
58791		-5.984843	2.004664	7.562276	-0.010127	0.039238	-0.015176	-0.143555	-0.821045	-0.825684	14.939551	37.410204	32.271374
58792		-5.970288	1.986958	7.584648	-0.007989	0.043447	-0.014173	-0.130127	-0.826660	-0.810303	14.937815	37.432933	32.272683
58793		-5.979151	1.977292	7.604331	-0.005777	0.050083	-0.009530	-0.134033	-0.823486	-0.820068	14.940258	37.458463	32.278598
58794		-5.995677	2.081439	7.558212	-0.008551	0.059622	-0.015760	-0.132813	-0.824219	-0.812744	14.939358	37.490378	32.281811
58795		-5.986365	2.067829	7.634048	-0.021828	0.054186	-0.017912	-0.134521	-0.822266	-0.819092	14.929515	37.519418	32.282642
58796		-5.997624	2.110384	7.593941	-0.036578	0.055340	-0.028352	-0.129639	-0.826904	-0.818359	14.906715	37.550817	32.276257
58797		-6.002918	2.024451	7.587602	-0.051553	0.049877	-0.029078	-0.133545	-0.823975	-0.810547	14.874581	37.579115	32.268461
58798		-5.934140	1.924025	7.565799	-0.035588	0.062775	-0.026786	-0.132568	-0.825684	-0.809082	14.853831	37.614393	32.264511
58799		-5.926708	1.976998	7.613124	-0.014157	0.083298	-0.019370	-0.136719	-0.826904	-0.822021	14.851028	37.659770	32.269671
58800		-5.992752	1.948094	7.583379	0.009564	0.108307	-0.012438	-0.129395	-0.824219	-0.813477	14.867441	37.718149	32.284206
58801		-6.043341	1.959635	7.517136	0.022776	0.118332	-0.001449	-0.127930	-0.822998	-0.817383	14.897505	37.780286	32.308474
58802		-6.068713	1.990504	7.517051	0.020866	0.107114	0.000909	-0.126465	-0.824707	-0.813477	14.926068	37.836024	32.332229
58803		-6.036649	2.022575	7.478147	0.012935	0.094735	-0.002208	-0.127441	-0.817139	-0.810059	14.947564	37.885192	32.351663
58804		-6.095480	1.949312	7.485506	0.008728	0.088743	-0.000592	-0.129883	-0.816406	-0.810059	14.966499	37.930968	32.371011
58805		-6.091346	2.034418	7.407974	0.002026	0.076778	0.001202	-0.124756	-0.831787	-0.806396	14.981206	37.969683	32.389530
58806		-6.082419	2.035478	7.514862	-0.013982	0.061450	-0.004789	-0.125488	-0.818848	-0.811523	14.982208	38.000971	32.400848
58807		-6.029728	2.048074	7.504084	-0.025819	0.060618	-0.015439	-0.120605	-0.824707	-0.808105	14.971920	38.033204	32.404658
58808		-6.028586	2.066791	7.510551	-0.027134	0.063567	-0.013385	-0.128174	-0.820801	-0.810791	14.961921	38.066936	32.410334
58809		-6.039166	2.055081	7.529485	-0.032389	0.067143	-0.019438	-0.131592	-0.829102	-0.809814	14.946885	38.103373	32.412545
58810		-6.033775	2.013834	7.540630	-0.025934	0.086134	-0.024559	-0.127686	-0.823486	-0.815674	14.935338	38.151246	32.414585
58811		-6.067682	2.035672	7.619547	-0.024628	0.083192	-0.026603	-0.128662	-0.816650	-0.818115	14.923485	38.197627	32.414746
58812		-6.127869	1.944385	7.595340	-0.033954	0.099266	-0.036834	-0.123291	-0.815918	-0.810303	14.903503	38.254575	32.410574
58813		-6.079010	1.886673	7.609945	-0.031842	0.114412	-0.035189	-0.118652	-0.828613	-0.804688	14.887371	38.319507	32.410502
58814		-6.135303	1.964617	7.570123	-0.046439	0.132553	-0.035999	-0.120850	-0.821289	-0.817871	14.864428	38.394758	32.413105
58815		-6.163305	1.988777	7.569571	-0.026554	0.137863	-0.037878	-0.117432	-0.821777	-0.810547	14.852846	38.473072	32.415477
58816		-6.099910	1.970028	7.547681	-0.026415	0.136938	-0.041193	-0.124268	-0.829102	-0.808838	14.839575	38.551511	32.415181
58817		-6.036652	2.058278	7.593214	-0.010899	0.169079	-0.055412	-0.120361	-0.823486	-0.816895	14.832850	38.649688	32.410953
58818		-6.166042	1.956567	7.623812	-0.002370	0.181389	-0.060026	-0.110107	-0.819336	-0.812988	14.830207	38.755499	32.405620
58819		-6.128369	2.063003	7.882820	0.004487	0.219488	-0.073794	-0.113281	-0.824219	-0.811279	14.830024	38.884291	32.397786
58820		-6.115078	2.081281	7.858017	0.012593	0.276527	-0.088335	-0.104004	-0.827637	-0.814697	14.834526	39.046934	32.390216
58821		-6.157808	2.227110	7.945860	0.056481	0.328809	-0.105144	-0.109375	-0.819092	-0.812256	14.863044	39.240875	32.380710
58822		-6.190071	2.397906	7.962662	0.045274	0.405100	-0.153884	-0.101318	-0.821289	-0.812500	14.872019	39.484333	32.350729
58823		-6.173029	2.526409	8.028077	0.062720	0.483578	-0.202489	-0.100586	-0.830811	-0.814209	14.878290	39.778300	32.300839
58824		-6.329118	2.426881	8.011476	0.047970	0.548938	-0.248968	-0.083008	-0.831055	-0.804688	14.862064	40.115357	32.229543
58825		-6.173973	1.751751	8.286624	0.067319	0.599882	-0.279029	-0.078125	-0.824951	-0.805664	14.848660	40.484964	32.145851
58826		-5.672509	1.180586	8.995473	0.118779	0.677119	-0.265501	-0.071045	-0.818848	-0.802490	14.880077	40.895388	32.086492
58827		-5.852267	1.095607	8.832895	0.178444	0.802063	-0.226938	-0.061768	-0.825439	-0.803711	14.980404	41.369320	32.080302
58828		-6.029755	0.994340	8.708128	0.265951	0.924483	-0.177505	-0.052002	-0.829834	-0.796631	15.172133	41.903548	32.136515
58829		-6.084431	1.231028	8.142391	0.309162	1.037461	-0.144175	-0.041992	-0.828125	-0.792969	15.423698	42.495083	32.244104
58830		-6.127254	1.322428	7.950848	0.356901	1.119606	-0.108309	-0.021973	-0.838623	-0.787109	15.736554	43.125891	32.400700
58831		-6.075531	2.224524	8.092666	0.383016	1.223169	-0.108533	-0.023193	-0.839355	-0.785889	16.085991	43.813267	32.586496
58832		-5.990970	2.320325	8.179843	0.382274	1.369002	-0.143246	-0.000488	-0.840576	-0.773926	16.446212	44.585362	32.786258
58833		-6.146159	2.712879	7.936851	0.378245	1.499224	-0.183044	0.010254	-0.848633	-0.762207	16.812952	45.434764	32.995322
58834		-6.283341	2.429613	8.017917	0.353593	1.638334	-0.228857	0.038086	-0.846191	-0.760010	17.173512	46.366792	33.212589
58835		-6.344751	2.505277	8.150502	0.335986	1.799197	-0.266166	0.047119	-0.851318	-0.753174	17.543767	47.392498	33.453136
58836		-6.376605	2.265092	8.231332	0.338959	1.973378	-0.298958	0.075439	-0.849365	-0.739990	17.943547	48.517432	33.727341
58837		-6.389974	2.025608	8.348780	0.344318	2.176939	-0.323658	0.090088	-0.855469	-0.737061	18.391613	49.756628	34.056064
58838		-6.710770	1.827841	8.455781	0.367072	2.394103	-0.330890	0.114990	-0.861572	-0.723389	18.920079	51.112608	34.466255
58839		-6.659190	1.753452	8.577178	0.410705	2.628805	-0.331418	0.144043	-0.863037	-0.713623	19.564250	52.593463	34.983337
58840		-7.252202	1.817689	8.478940	0.466238	2.887805	-0.334792	0.163818	-0.864014	-0.689209	20.353682	54.209653	35.631506
58841		-8.252591	1.995022	8.160987	0.517594	3.096630	-0.309493	0.201416	-0.864502	-0.675049	21.321984	55.927107	36.448110
58842		-9.807937	2.105290	7.835657	0.555779	3.232068	-0.273620	0.229492	-0.875732	-0.658691	22.478675	57.699113	37.447417
58843		-12.097531	2.522332	7.419645	0.660101	3.215424	-0.195064	0.255127	-0.878418	-0.633545	23.880826	59.432834	38.644761
58844		-11.755404	4.074714	6.915977	0.716804	3.112975	-0.198285	0.275146	-0.878662	-0.612305	25.417531	61.096538	39.939271
58845		-10.260502	4.841939	6.760447	0.679094	3.083657	-0.331327	0.307373	-0.888428	-0.587158	26.954894	62.761839	41.237995
58846		-10.293475	4.957799	6.765908	0.585378	3.049802	-0.513425	0.343750	-0.890869	-0.564209	28.405301	64.440977	42.480603
58847		-10.066468	4.751571	6.359259	0.517192	2.989260	-0.670274	0.358887	-0.898193	-0.537598	29.787641	66.120266	43.673631
58848		-9.457154	4.926224	6.129006	0.456913	2.976011	-0.820560	0.382080	-0.892334	-0.511963	31.134185	67.823205	44.850137
58849		-8.936703	4.418644	5.785872	0.408875	2.963368	-0.958321	0.405518	-0.885498	-0.494873	32.471783	69.551434	46.031986
58850		-8.251896	3.716663	5.331574	0.391767	2.925737	-1.066220	0.430664	-0.886230	-0.463135	33.840264	71.283505	47.244086
58851		-7.652671	3.120007	4.642304	0.416086	2.881105	-1.135545	0.459961	-0.881348	-0.437744	35.330828	73.007699	48.557167
58852		-6.961132	3.043716	4.113992	0.447162	2.818597	-1.214584	0.482910	-0.876953	-0.412109	36.939945	74.716702	49.963449
58853		-5.865349	3.016582	3.961059	0.436892	2.755561	-1.294859	0.515625	-0.862549	-0.390869	38.679474	76.414692	51.498776
58854		-5.636822	3.016286	3.857445	0.441444	2.571705	-1.343372	0.516357	-0.869385	-0.365234	40.458341	78.035005	53.061353
58855		-6.975330	2.815017	3.713365	0.487370	2.234275	-1.386598	0.536621	-0.849854	-0.344727	41.983062	79.517138	54.328795
58856		-11.562345	1.765733	3.475653	0.533435	1.627225	-1.333124	0.556885	-0.849365	-0.328613	42.651144	80.714575	54.694773
58857		-10.409818	1.760015	4.592541	0.669418	0.847089	-1.046192	0.563721	-0.847412	-0.316895	42.311413	81.472966	53.960493
58858		-8.551741	2.112521	4.994004	0.777514	0.216917	-0.743310	0.566895	-0.844238	-0.314453	41.155090	81.842903	52.339678
58859		-6.861794	2.341274	4.628913	0.777759	-0.328587	-0.490127	0.567139	-0.847900	-0.312500	39.259250	81.876056	49.972208
58860		-5.096972	2.460193	4.515543	0.723021	-0.739304	-0.272517	0.564209	-0.862793	-0.308838	37.024490	81.632686	47.293651
58861		-3.941998	2.510303	4.445593	0.625665	-0.981565	-0.119485	0.560791	-0.861816	-0.311768	34.836704	81.213080	44.716429
58862		-3.383566	2.377984	4.427763	0.502720	-1.103128	0.001485	0.552490	-0.870605	-0.319336	32.924531	80.680953	42.486610
58863		-3.411714	2.172785	4.277811	0.373168	-1.175948	0.119157	0.546387	-0.877930	-0.321533	31.375208	80.069893	40.696145
58864		-3.759539	2.178372	4.319588	0.227881	-1.252085	0.236502	0.539795	-0.878906	-0.320801	30.133085	79.377005	39.299215
58865		-4.437474	2.136888	4.290900	0.075634	-1.387604	0.350446	0.520996	-0.881836	-0.339355	29.066663	78.582368	38.166439
58866		-4.897295	2.024461	4.251561	-0.085914	-1.597431	0.474270	0.504639	-0.888916	-0.345215	28.080347	77.641350	37.206951
58867		-5.221960	1.710559	4.232298	-0.224177	-1.837622	0.592957	0.495605	-0.891113	-0.357422	27.145595	76.546817	36.377575
58868		-5.640237	1.281446	4.153715	-0.325419	-2.078762	0.733988	0.476318	-0.899658	-0.383301	26.328793	75.286513	35.725833
58869		-5.904920	1.098062	4.185333	-0.402102	-2.307730	0.869018	0.462158	-0.904541	-0.394531	25.630013	73.875739	35.237765
58870		-6.007173	0.808869	4.193759	-0.450137	-2.488644	0.981003	0.438721	-0.914551	-0.411865	25.043364	72.338975	34.892332
58871		-6.063271	0.601705	4.326253	-0.472588	-2.621955	1.065177	0.402344	-0.925537	-0.430420	24.552789	70.715259	34.658358
58872		-6.394717	0.421680	4.311785	-0.474961	-2.715145	1.109778	0.380127	-0.926025	-0.449219	24.119121	69.028211	34.484432
58873		-6.842006	0.446912	4.183470	-0.464962	-2.811378	1.130452	0.358398	-0.935791	-0.474609	23.707969	67.289171	34.326205
58874		-7.117812	0.455602	4.214227	-0.445261	-2.909347	1.118344	0.328857	-0.955566	-0.489502	23.282871	65.497350	34.138814
58875		-7.405739	0.515423	4.437243	-0.420667	-2.984339	1.087837	0.303711	-0.950928	-0.512939	22.845345	63.676014	33.918923
58876		-7.697194	0.766175	4.530759	-0.391532	-3.041881	1.039466	0.270020	-0.959961	-0.527100	22.392359	61.830505	33.659835
58877		-8.013035	1.151667	4.650225	-0.388892	-3.073887	0.986747	0.239502	-0.972412	-0.547852	21.922695	59.982228	33.374938
58878		-8.292188	1.386708	4.789936	-0.409993	-3.099160	0.935853	0.193359	-0.964844	-0.569336	21.429965	58.126437	33.072388
58879		-8.664948	1.589217	4.916769	-0.442317	-3.118065	0.895369	0.170166	-0.971924	-0.577881	20.922893	56.271369	32.768131
58880		-8.984386	1.682552	5.091049	-0.471283	-3.139881	0.876967	0.139404	-0.975098	-0.597412	20.419061	54.403243	32.481848
58881		-9.320746	1.956613	5.315482	-0.502243	-3.151059	0.868901	0.104004	-0.970947	-0.620117	19.926788	52.533059	32.224715
58882		-9.665766	2.095946	5.457652	-0.531303	-3.146371	0.857027	0.066650	-0.975342	-0.629395	19.444039	50.662827	31.994999
58883		-10.171835	2.175391	5.508202	-0.543420	-3.113390	0.860594	0.017090	-0.979004	-0.635986	18.993937	48.812303	31.810411
58884		-10.688886	2.321006	5.388248	-0.531443	-3.034678	0.872231	-0.007813	-0.975342	-0.653809	18.597327	46.997985	31.683938
58885		-11.074113	2.663329	5.112997	-0.536676	-2.923855	0.891474	-0.047607	-0.974609	-0.657227	18.247805	45.243422	31.622676
58886		-11.390314	3.111988	4.782651	-0.559503	-2.771769	0.912392	-0.092773	-0.974365	-0.672852	17.935075	43.564462	31.631315
58887		-11.756685	3.528206	4.385635	-0.611978	-2.586343	0.918190	-0.119629	-0.965576	-0.664551	17.633509	41.988999	31.700419
58888		-12.179921	3.728986	3.910062	-0.662835	-2.375469	0.916689	-0.144043	-0.968506	-0.679932	17.338549	40.526343	31.826144
58889		-12.543079	3.830522	3.262087	-0.699731	-2.150748	0.911816	-0.187988	-0.961426	-0.685791	17.054312	39.190982	32.004851
58890		-12.687445	3.700838	2.583282	-0.713411	-1.909773	0.909340	-0.205322	-0.952393	-0.694336	16.793281	37.986242	32.238393
58891		-12.642561	3.430839	1.902760	-0.685705	-1.650061	0.923513	-0.239258	-0.947754	-0.683350	16.584736	36.925010	32.537959
58892		-12.497084	3.093929	1.342213	-0.611965	-1.363444	0.938282	-0.258057	-0.941406	-0.688232	16.455112	36.017495	32.906021
58893		-12.293186	2.504755	0.764557	-0.485934	-1.054944	0.947915	-0.277100	-0.935547	-0.684814	16.431516	35.280364	33.339544
58894		-11.648068	2.394031	3.975755	-0.888220	-0.131552	0.846135	-0.291748	-0.927002	-0.691650	16.239822	35.066564	33.886122
58895		-9.593626	8.116341	-4.134232	-1.101937	1.237058	0.574680	-0.277100	-0.921631	-0.696533	15.976405	35.652509	34.518207
58896		-24.699042	7.556522	-5.285110	-1.828489	2.744792	-0.241584	-0.250244	-0.905029	-0.711182	15.146450	37.200059	34.880470
58897		-43.218297	-21.196686	8.336646	-1.634744	0.190810	-1.341887	-0.250488	-0.887939	-0.717773	13.666447	37.493656	33.981256
58898		-6.356805	-18.350331	8.605915	-1.261005	-2.110465	-0.270502	-0.266113	-0.864502	-0.726074	12.628210	36.348696	33.451864
58899		3.223887	5.790995	14.959755	-0.056673	-1.061036	0.196534	-0.264404	-0.877197	-0.714111	12.583297	35.727347	33.427050
58900		-3.612974	13.221460	9.575690	0.296123	0.228969	0.216869	-0.273926	-0.879150	-0.724854	12.864730	35.824958	33.615084
58901		-4.368124	-2.251782	8.389341	0.105706	0.638308	0.014032	-0.268311	-0.875488	-0.724854	12.994563	36.176096	33.729256
58902		-8.349319	-0.384567	5.852539	0.526275	0.499004	0.210086	-0.263184	-0.882813	-0.720703	13.434080	36.423737	33.958923
58903		-5.861832	4.635618	7.154679	0.414462	0.261436	0.191973	-0.260742	-0.882813	-0.707764	13.780785	36.539901	34.139017
58904		-6.961234	2.263909	7.181883	0.210952	0.137675	0.072494	-0.264893	-0.884033	-0.711670	13.949525	36.603427	34.215916
58905		-6.475307	1.920671	7.519601	0.130067	0.018662	0.039989	-0.270508	-0.888184	-0.718506	14.046595	36.604696	34.250111
58906		-5.978832	1.746928	7.910475	0.128386	0.019819	0.043295	-0.257813	-0.894531	-0.713135	14.144027	36.606608	34.286670
58907		-6.148681	1.899006	7.734380	0.118502	0.038247	0.046511	-0.256104	-0.891846	-0.708984	14.239216	36.617747	34.328814
58908		-6.159770	2.308494	7.732238	0.078512	0.009088	0.029007	-0.256104	-0.893066	-0.707031	14.301051	36.615631	34.353605
58909		-6.023860	2.220577	7.888536	0.016831	-0.031590	0.000893	-0.268066	-0.896484	-0.709961	14.311840	36.594388	34.351908
58910		-5.787918	1.911611	7.790286	0.010489	-0.010753	0.004879	-0.274902	-0.891357	-0.716309	14.322676	36.584660	34.356516
58911		-5.954870	1.799110	7.729152	0.026309	0.010696	0.010803	-0.267578	-0.895996	-0.714355	14.347425	36.585486	34.369128
58912		-5.983653	1.858650	7.690153	0.039926	0.011190	0.019957	-0.266602	-0.892090	-0.711670	14.383639	36.585786	34.388028
58913		-5.908932	1.859503	7.705002	0.057698	0.014098	0.022039	-0.264404	-0.896240	-0.708496	14.431360	36.586885	34.409010
58914		-5.931382	1.829592	7.790672	0.068644	0.027527	0.032179	-0.271729	-0.900879	-0.714355	14.490792	36.594477	34.439263
58915		-5.962501	1.824334	7.775403	0.064747	0.027782	0.041440	-0.258057	-0.899414	-0.715820	14.552010	36.600345	34.476103
58916		-5.876461	1.914746	7.719426	0.067999	0.031968	0.048960	-0.265625	-0.897217	-0.716064	14.618467	36.607924	34.518763
58917		-5.934772	2.118039	7.701764	0.057499	0.025932	0.048392	-0.265625	-0.889404	-0.714355	14.678216	36.611694	34.560092
58918		-5.923161	2.153873	7.687982	0.026148	0.013108	0.036706	-0.268555	-0.896240	-0.709717	14.713630	36.610532	34.590899
58919		-5.886119	2.107407	7.648383	0.018983	0.010918	0.022951	-0.266602	-0.894531	-0.703857	14.739217	36.609642	34.611947
58920		-5.862332	2.113438	7.681787	0.013369	0.012896	0.018149	-0.267090	-0.900146	-0.716553	14.759656	36.611044	34.629910
58921		-5.891213	2.114262	7.700799	-0.000361	0.013291	0.012332	-0.261230	-0.893066	-0.712646	14.770046	36.613008	34.644060
58922		-5.795202	1.950085	7.682974	0.008162	0.022816	0.005559	-0.267578	-0.901855	-0.710449	14.783407	36.621735	34.655146
58923		-5.899398	1.967335	7.716503	0.014907	0.038844	0.014309	-0.257813	-0.901855	-0.711670	14.806144	36.637560	34.675325
58924		-5.897345	1.922739	7.749327	0.030281	0.051161	0.026163	-0.274658	-0.898193	-0.710938	14.843768	36.658952	34.705825
58925		-5.921855	2.003579	7.717938	0.030406	0.050271	0.022813	-0.258545	-0.894043	-0.700928	14.880174	36.679836	34.734002
58926		-5.967153	1.964471	7.713721	0.025400	0.049328	0.023781	-0.257568	-0.904541	-0.716797	14.913859	36.700530	34.762568
58927		-5.940097	2.036532	7.665111	0.015993	0.040069	0.022599	-0.268311	-0.901123	-0.712158	14.940837	36.715772	34.788762
58928		-5.918043	2.099156	7.638948	0.019146	0.037439	0.017546	-0.257324	-0.898926	-0.708496	14.967086	36.730784	34.810866
58929		-5.948500	2.100332	7.656614	0.003870	0.027495	0.009368	-0.268555	-0.896484	-0.704590	14.980289	36.741008	34.825624
58930		-5.907846	2.003186	7.652973	-0.004913	0.021485	0.007339	-0.269043	-0.893311	-0.708740	14.986792	36.748690	34.837747
58931		-5.865138	1.974459	7.623838	0.001445	0.021860	0.007962	-0.260010	-0.896484	-0.710205	14.997408	36.756000	34.850499
58932		-5.966878	2.059820	7.631950	0.006090	0.022219	0.010022	-0.266357	-0.895020	-0.709961	15.011409	36.763685	34.864615
58933		-5.893262	2.056040	7.647512	-0.001267	0.022996	0.004799	-0.267578	-0.894775	-0.717773	15.019295	36.772089	34.875398
58934		-5.907181	2.026023	7.658026	-0.001398	0.019438	-0.000732	-0.263428	-0.894043	-0.702393	15.024256	36.779828	34.881575
58935		-5.897717	2.043908	7.612801	0.000357	0.020640	-0.000325	-0.261475	-0.892090	-0.707275	15.030697	36.787687	34.888386
58936		-5.957050	2.030563	7.619029	-0.004954	0.015848	-0.003390	-0.270996	-0.900391	-0.716309	15.032125	36.793831	34.892064
58937		-5.872739	1.987112	7.649136	-0.004912	0.017034	-0.001546	-0.255127	-0.904541	-0.712158	15.034643	36.799876	34.897364
58938		-5.870927	2.067356	7.654778	-0.004647	0.019698	0.000633	-0.256592	-0.895996	-0.703369	15.038339	36.807551	34.904537
58939		-5.874018	2.054747	7.621233	-0.006333	0.025851	-0.004546	-0.267822	-0.904297	-0.706299	15.039784	36.818920	34.909403
58940		-5.848815	1.998387	7.657667	0.000085	0.038034	0.000198	-0.260742	-0.898682	-0.715332	15.048061	36.836800	34.919686
58941		-5.862643	2.037109	7.641036	0.007178	0.050198	-0.002938	-0.268799	-0.904297	-0.716064	15.060635	36.861400	34.930198
58942		-5.941928	2.042003	7.620582	0.011490	0.056144	-0.004466	-0.263672	-0.898682	-0.705811	15.075547	36.889985	34.940644
58943		-5.897299	2.105664	7.628574	-0.003828	0.049467	-0.005633	-0.265137	-0.903320	-0.709229	15.080634	36.914579	34.949175
58944		-5.898975	2.033024	7.597069	-0.010918	0.052909	-0.008687	-0.261230	-0.902588	-0.708984	15.080609	36.941999	34.956111
58945		-5.914601	2.013889	7.637922	-0.006567	0.060041	-0.008366	-0.257568	-0.901855	-0.700928	15.084186	36.972850	34.964732
58946		-5.910695	2.102281	7.619135	-0.009095	0.061471	-0.013041	-0.259521	-0.898926	-0.712646	15.084363	37.005652	34.970259
58947		-5.946307	2.075983	7.570788	-0.015820	0.060512	-0.010659	-0.261719	-0.905518	-0.708984	15.081748	37.037105	34.977386
58948		-5.910191	2.060046	7.626482	-0.014729	0.062268	-0.019707	-0.251465	-0.904541	-0.709717	15.076011	37.071340	34.978444
58949		-5.931494	2.087198	7.631007	-0.017363	0.065777	-0.019184	-0.258057	-0.898926	-0.709717	15.069545	37.106977	34.980641
58950		-5.933501	2.069089	7.540937	-0.024782	0.064184	-0.028117	-0.266113	-0.900635	-0.706787	15.054738	37.143520	34.976212
58951		-5.920984	2.059946	7.594192	-0.026649	0.070051	-0.031782	-0.257324	-0.892822	-0.706543	15.038141	37.183397	34.970442
58952		-5.934667	2.022933	7.547916	-0.026874	0.068575	-0.032113	-0.252686	-0.895996	-0.707275	15.020933	37.222958	34.964027
58953		-5.934959	1.983867	7.612425	-0.018119	0.074597	-0.030028	-0.259033	-0.897217	-0.707031	15.010447	37.265088	34.960290
58954		-5.966919	2.060845	7.634492	-0.014035	0.079073	-0.031866	-0.247314	-0.906494	-0.709961	15.001860	37.310417	34.955977
58955		-5.955866	2.052203	7.686651	-0.015719	0.085236	-0.037034	-0.251953	-0.894531	-0.711670	14.990976	37.359472	34.949325
58956		-5.989061	2.021091	7.582125	-0.014120	0.092330	-0.041702	-0.260498	-0.902588	-0.704590	14.979659	37.413588	34.940607
58957		-6.019010	2.037779	7.606613	-0.017901	0.097886	-0.042426	-0.255371	-0.907471	-0.715088	14.966643	37.470442	34.932520
58958		-6.000861	1.965944	7.607064	-0.015761	0.100870	-0.043164	-0.254883	-0.901611	-0.702881	14.954695	37.529496	34.924331
58959		-6.026562	1.979768	7.576675	-0.010151	0.105081	-0.044902	-0.246582	-0.893066	-0.712402	14.945845	37.590696	34.915816
58960		-6.028781	1.997429	7.581011	-0.010541	0.104498	-0.041878	-0.247559	-0.895996	-0.714844	14.937809	37.651564	34.909163
58961		-6.019493	2.033325	7.541439	-0.008216	0.107779	-0.044117	-0.246094	-0.900391	-0.715332	14.930675	37.714139	34.901664
58962		-6.034479	2.020795	7.556960	-0.010709	0.110399	-0.046946	-0.242920	-0.896729	-0.712891	14.921013	37.779018	34.892532
58963		-6.090402	2.009745	7.480744	-0.016749	0.104419	-0.044035	-0.246582	-0.895752	-0.713379	14.908604	37.839719	34.884424
58964		-6.094672	1.957757	7.510672	-0.018731	0.104373	-0.056925	-0.247070	-0.901855	-0.703613	14.889312	37.902728	34.867116
58965		-6.044928	1.978281	7.531183	-0.021105	0.099918	-0.056518	-0.250000	-0.904053	-0.708740	14.868451	37.962769	34.849342
58966		-6.081017	2.029101	7.486855	-0.023771	0.103425	-0.055998	-0.238037	-0.892334	-0.713379	14.846479	38.025105	34.832421
58967		-6.124635	2.013502	7.522105	-0.032633	0.104463	-0.061372	-0.247803	-0.894775	-0.711914	14.817343	38.088365	34.811987
58968		-6.111221	1.986811	7.486900	-0.036362	0.099389	-0.064412	-0.244385	-0.896729	-0.704834	14.783944	38.149683	34.788285
58969		-6.130574	2.006548	7.435344	-0.038953	0.092268	-0.066204	-0.239990	-0.903320	-0.707275	14.747569	38.206872	34.762053
58970		-6.144820	1.978607	7.420115	-0.035395	0.084069	-0.067640	-0.240234	-0.895752	-0.706543	14.711439	38.260150	34.733100
58971		-6.142185	1.909419	7.365233	-0.042226	0.074514	-0.062444	-0.234619	-0.900879	-0.719238	14.672678	38.306927	34.706104
58972		-6.137288	1.887955	7.440620	-0.041177	0.063911	-0.058304	-0.239746	-0.893311	-0.712158	14.634902	38.347651	34.679898
58973		-6.097237	1.877182	7.475391	-0.031754	0.064970	-0.055555	-0.243896	-0.895996	-0.708984	14.603973	38.388113	34.655906
58974		-6.069765	1.848773	7.553220	-0.023192	0.078119	-0.056586	-0.239746	-0.893555	-0.712646	14.578794	38.436445	34.633442
58975		-6.121456	1.953892	7.581462	0.003814	0.115523	-0.044108	-0.234375	-0.893311	-0.715332	14.579003	38.503275	34.626800
58976		-6.079797	1.919761	7.493591	-0.002937	0.112458	-0.061322	-0.234131	-0.890381	-0.710449	14.567200	38.571318	34.607246
58977		-6.072736	1.922953	7.575838	0.014230	0.123125	-0.057256	-0.234375	-0.896240	-0.717773	14.568400	38.644258	34.592646
58978		-6.164335	1.962612	7.699373	0.022229	0.143960	-0.056617	-0.232910	-0.899658	-0.709717	14.576674	38.729083	34.582210
58979		-6.099024	1.874962	7.646865	0.047634	0.180797	-0.061811	-0.227051	-0.896729	-0.713135	14.601636	38.834662	34.575045
58980		-6.246576	2.189036	7.702682	0.045772	0.194072	-0.070164	-0.226074	-0.890137	-0.708740	14.623176	38.949221	34.564309
58981		-6.200631	1.935111	7.708578	0.092650	0.218969	-0.086850	-0.212891	-0.905029	-0.708496	14.667212	39.079594	34.546507
58982		-6.171815	2.197849	7.816132	0.088079	0.270899	-0.102846	-0.218018	-0.901855	-0.702148	14.707392	39.241478	34.526958
58983		-6.156857	2.406581	8.008423	-0.058646	0.445924	-0.201930	-0.214355	-0.898926	-0.716064	14.639329	39.514354	34.469241
58984		-6.239299	2.140481	7.670049	0.034985	0.412082	-0.192875	-0.212646	-0.897217	-0.712158	14.624346	39.767490	34.411089
58985		-6.231359	1.966906	7.833378	0.057700	0.433719	-0.198175	-0.206299	-0.894531	-0.709473	14.622325	40.033018	34.353036
58986		-6.265617	1.449505	7.808854	0.082859	0.471134	-0.204415	-0.195313	-0.891846	-0.709473	14.635865	40.320535	34.297224
58987		-6.022474	1.314794	8.165797	0.134873	0.514079	-0.174545	-0.188232	-0.903809	-0.704346	14.698594	40.627211	34.271489
58988		-6.204422	1.443852	7.949404	0.168170	0.573494	-0.155746	-0.181885	-0.902832	-0.711670	14.796829	40.964393	34.271252
58989		-6.151779	1.426824	8.180779	0.194787	0.627535	-0.129264	-0.179199	-0.895752	-0.698730	14.930886	41.327310	34.302097
58990		-6.281221	1.646127	7.924656	0.237951	0.693395	-0.109180	-0.169922	-0.900635	-0.702393	15.109042	41.723878	34.362159
58991		-6.134666	2.097008	8.126866	0.249450	0.761998	-0.101793	-0.164307	-0.906250	-0.697266	15.308766	42.156862	34.443912
58992		-6.278881	1.962900	7.679176	0.259446	0.834402	-0.117529	-0.161133	-0.903809	-0.701904	15.518325	42.632210	34.531300
58993		-6.339677	2.031547	7.672771	0.287444	0.890373	-0.120082	-0.151367	-0.908936	-0.694580	15.753695	43.138385	34.631981
58994		-6.416478	2.103921	7.714816	0.274403	0.961154	-0.134429	-0.137939	-0.923584	-0.689453	15.987512	43.685656	34.740548
58995		-6.462485	2.071178	7.777548	0.283276	1.032615	-0.135994	-0.120850	-0.913086	-0.687744	16.240613	44.272025	34.868193
58996		-6.413947	2.154804	7.893215	0.306317	1.131892	-0.156373	-0.123047	-0.919678	-0.686523	16.515932	44.915916	35.007537
58997		-6.242566	2.458215	8.062015	0.307970	1.273766	-0.189693	-0.114990	-0.915771	-0.673828	16.803167	45.642574	35.160405
58998		-5.940328	2.482146	8.395160	0.338473	1.496144	-0.242238	-0.088379	-0.924316	-0.673584	17.123265	46.499299	35.332832
58999		-5.779154	2.715742	8.677796	0.357725	1.797094	-0.307867	-0.066406	-0.935791	-0.671143	17.480862	47.531119	35.538519
59000		-5.801673	2.412056	8.919130	0.403697	2.170350	-0.376432	-0.039063	-0.934570	-0.663818	17.909258	48.777467	35.800414
59001		-6.553394	2.035196	8.788937	0.460097	2.504145	-0.412057	-0.020996	-0.931641	-0.648926	18.439109	50.210558	36.147685
59002		-7.056097	1.845784	8.706218	0.502377	2.760670	-0.395497	0.002930	-0.936523	-0.646240	19.094942	51.777000	36.618667
59003		-7.787492	1.660471	8.298499	0.574116	2.931546	-0.378859	0.028076	-0.946777	-0.633301	19.894645	53.429020	37.208420
59004		-8.841759	1.441922	7.821719	0.683862	3.008114	-0.319575	0.052734	-0.940186	-0.619629	20.887270	55.104039	37.946095
59005		-10.033370	1.580275	7.548743	0.847647	3.035266	-0.217269	0.082275	-0.948975	-0.606201	22.150485	56.763729	38.881965
59006		-12.022496	2.687883	7.362626	1.023234	2.907782	-0.151819	0.098145	-0.957764	-0.577148	23.634441	58.327967	39.943444
59007		-11.673150	4.590580	6.796040	0.951426	2.753653	-0.215991	0.124023	-0.972168	-0.556152	25.082934	59.812362	40.993917
59008		-11.690446	4.404325	6.543701	0.760948	2.553411	-0.333745	0.146240	-0.970215	-0.550293	26.341191	61.208921	41.936296
59009		-11.071715	4.280439	6.096677	0.626543	2.279350	-0.455797	0.165771	-0.974609	-0.540527	27.372868	62.487970	42.696731
59010		-9.868601	4.299112	5.568727	0.488594	2.151335	-0.593761	0.181396	-0.973877	-0.518066	28.197045	63.732368	43.304726
59011		-9.357960	3.704994	5.535876	0.415120	2.034701	-0.689007	0.209961	-0.970947	-0.504883	28.877855	64.941023	43.793737
59012		-8.094952	3.488044	5.564962	0.358007	1.826553	-0.750929	0.214600	-0.978271	-0.493652	29.381012	66.059776	44.119079
59013		-6.580807	3.118965	5.700657	0.290095	1.518785	-0.832987	0.234375	-0.973389	-0.482666	29.582557	67.048043	44.155234
59014		-5.433625	2.524254	6.078233	0.307411	1.149085	-0.903467	0.251221	-0.964844	-0.470459	29.460114	67.870944	43.829832
59015		-4.699481	1.997091	6.588634	0.435468	0.791720	-1.064084	0.262451	-0.965576	-0.466064	28.937846	68.560240	42.996395
59016		-8.052826	1.109233	6.488678	0.585485	0.480042	-1.294815	0.274170	-0.966309	-0.458252	27.930516	69.150052	41.554606
59017		-6.390652	1.283940	6.938472	0.834368	0.055094	-1.254201	0.281738	-0.949707	-0.454834	26.762077	69.504159	39.792510
59018		-4.697559	2.411036	6.662977	0.923386	-0.294623	-1.229638	0.284424	-0.956299	-0.443115	25.397760	69.656765	37.770152
59019		-3.713870	2.794087	6.288962	0.850998	-0.537467	-1.218354	0.283936	-0.953613	-0.446533	23.834609	69.663591	35.580768
59020		-3.331447	2.864772	6.095690	0.760950	-0.686906	-1.187637	0.291748	-0.952637	-0.440674	22.177978	69.561465	33.346255
59021		-3.176229	2.765288	5.933734	0.649928	-0.787792	-1.088484	0.283203	-0.951904	-0.445557	20.568766	69.364520	31.227900
59022		-3.111829	2.571653	5.853294	0.543650	-0.869561	-0.922824	0.280273	-0.955322	-0.439697	19.131711	69.069376	29.355555
59023		-3.314880	2.549069	5.771089	0.436326	-0.946344	-0.710404	0.287842	-0.950439	-0.439209	17.944870	68.680913	27.812907
59024		-3.427412	2.527979	5.795921	0.313874	-1.028963	-0.471220	0.273682	-0.943848	-0.446289	17.033020	68.193476	26.636894
59025		-3.743174	2.425373	5.825988	0.211283	-1.118487	-0.211892	0.262939	-0.950439	-0.446533	16.421627	67.610991	25.844059
59026		-4.115771	2.499258	5.865458	0.098115	-1.214553	0.065732	0.254883	-0.946777	-0.458740	16.107394	66.925909	25.440172
59027		-4.608386	2.681204	5.872564	-0.016339	-1.338681	0.332955	0.230713	-0.949219	-0.453857	16.039056	66.132411	25.373526
59028		-5.049551	2.696344	5.820353	-0.137833	-1.471853	0.568963	0.219482	-0.959717	-0.465576	16.144123	65.225029	25.573186
59029		-5.457559	2.532888	5.819252	-0.242025	-1.615983	0.787430	0.204590	-0.951660	-0.475586	16.380883	64.206171	25.985995
59030		-5.682454	2.342352	5.783960	-0.324905	-1.750226	0.972324	0.184326	-0.959961	-0.484375	16.703957	63.079233	26.551938
59031		-5.993973	2.136214	5.819820	-0.382861	-1.871064	1.120408	0.160400	-0.956299	-0.501221	17.072483	61.863226	27.212425
59032		-6.349885	2.040836	5.885993	-0.424701	-1.975911	1.232830	0.127930	-0.957520	-0.507813	17.452356	60.565249	27.921089
59033		-6.792610	1.979756	5.839129	-0.463662	-2.071800	1.303150	0.105713	-0.961914	-0.524170	17.800128	59.204088	28.627714
59034		-7.138822	1.821065	5.918806	-0.481913	-2.155445	1.335128	0.079590	-0.952637	-0.529297	18.096683	57.786064	29.296950
59035		-7.550084	1.686314	5.989319	-0.480184	-2.220697	1.343922	0.053223	-0.954834	-0.552979	18.342234	56.332971	29.914764
59036		-8.049445	1.712540	5.978779	-0.476535	-2.270749	1.330805	0.014893	-0.948486	-0.554443	18.530192	54.850060	30.471061
59037		-8.494020	1.797899	6.014068	-0.468563	-2.316596	1.310237	-0.007813	-0.951660	-0.560547	18.665247	53.348866	30.966527
59038		-8.860196	2.019381	6.017439	-0.481944	-2.339167	1.281808	-0.044189	-0.947754	-0.572021	18.741835	51.836375	31.408082
59039		-9.195204	2.294168	5.991186	-0.534518	-2.342124	1.248036	-0.067871	-0.937988	-0.586426	18.745246	50.332052	31.803292
59040		-9.369219	2.546852	5.879922	-0.606055	-2.321393	1.206450	-0.099365	-0.940186	-0.597412	18.670624	48.843095	32.158792
59041		-9.676947	2.672965	5.741359	-0.698429	-2.280046	1.150208	-0.122070	-0.936768	-0.606689	18.507390	47.391032	32.474142
59042		-9.916426	2.702547	5.698682	-0.775175	-2.231518	1.099239	-0.158447	-0.919678	-0.614746	18.273739	45.971742	32.760785
59043		-10.005360	2.711221	5.526439	-0.823003	-2.182452	1.046129	-0.188721	-0.916504	-0.621582	17.989004	44.593107	33.020662
59044		-9.998479	2.686942	5.382898	-0.840851	-2.099881	0.988751	-0.217285	-0.895752	-0.623291	17.676131	43.267172	33.261270
59045		-10.025443	2.628283	5.132707	-0.822461	-1.996932	0.931137	-0.238037	-0.898193	-0.630615	17.360598	42.011770	33.487958
59046		-10.133846	2.409750	4.902092	-0.764848	-1.870487	0.868784	-0.262939	-0.875732	-0.637939	17.066287	40.833913	33.702435
59047		-10.267814	2.130578	4.687840	-0.670344	-1.737446	0.830531	-0.282959	-0.870361	-0.632568	16.826326	39.739258	33.921991
59048		-10.399544	2.081990	4.443569	-0.555887	-1.599032	0.800972	-0.313965	-0.865967	-0.639160	16.655310	38.723206	34.151933
59049		-10.531444	2.145432	4.313109	-0.444439	-1.460329	0.766922	-0.331787	-0.855469	-0.643066	16.548309	37.792147	34.386894
59050		-10.526999	2.195248	4.175004	-0.346184	-1.307609	0.723891	-0.347168	-0.837402	-0.643799	16.494988	36.949790	34.622371
59051		-10.401036	2.268113	4.062724	-0.266934	-1.170059	0.665665	-0.364258	-0.839600	-0.640625	16.476230	36.195046	34.843951
59052		-10.166293	2.163630	3.920496	-0.194976	-1.017918	0.601086	-0.378906	-0.834229	-0.643555	16.487655	35.532341	35.050456
59053		-9.789712	2.014645	3.911350	-0.122327	-0.867431	0.533952	-0.389893	-0.829834	-0.635254	16.528958	34.965216	35.239728
59054		-9.515309	1.965248	3.899503	-0.041886	-0.713457	0.464313	-0.393311	-0.822266	-0.632813	16.604916	34.492205	35.411307
59055		-9.206972	1.968745	3.953137	0.036691	-0.564261	0.394561	-0.405762	-0.823486	-0.637695	16.714301	34.113983	35.564269
59056		-8.931086	1.890605	3.927804	0.110607	-0.425678	0.325011	-0.406982	-0.821289	-0.635986	16.854330	33.821722	35.697425
59057		-7.645091	3.953006	6.057456	0.105705	-0.276659	0.281744	-0.412598	-0.813721	-0.633545	16.990967	33.619388	35.830571
59058		-5.904375	2.730339	4.181158	-0.305882	0.521893	-0.102492	-0.412598	-0.810059	-0.630127	16.840400	33.917838	35.870783
59059		-7.529891	3.680556	0.886577	-0.524621	0.943709	-0.320998	-0.416748	-0.805176	-0.640137	16.529415	34.484897	35.848449
59060		-8.015265	2.975306	0.691762	-1.063308	1.648716	-0.696702	-0.388184	-0.785889	-0.648193	15.840526	35.498938	35.705248
59061		-9.688077	-2.368694	2.576969	-0.877262	2.462710	-0.553297	-0.356689	-0.774658	-0.664063	15.396504	36.939573	35.800829
59062		-47.826165	1.727205	6.453364	-0.745895	2.115050	-1.080603	-0.337891	-0.774658	-0.656982	14.756056	38.266800	35.447633
59063		-12.788559	-12.204937	5.976366	-1.246943	-2.131688	-0.247372	-0.348389	-0.766846	-0.660156	13.707612	37.114183	34.897892
59064		3.938493	-4.786690	7.429875	-0.778087	-1.688493	-0.136198	-0.378906	-0.752686	-0.666504	13.042806	36.188653	34.527538
59065		-7.592403	8.281187	12.933138	-0.165641	-0.240011	-0.005339	-0.374512	-0.757813	-0.666260	12.927300	36.051821	34.488933
59066		-2.758444	3.670486	9.646560	-0.015890	-0.253016	0.065604	-0.373535	-0.759766	-0.660889	12.925191	35.899427	34.497339
59067		-5.285539	0.261547	7.864591	0.089261	0.421777	0.011281	-0.377197	-0.753906	-0.662842	13.024472	36.129947	34.575538
59068		-7.936858	1.191354	6.759919	0.266876	0.168590	0.122705	-0.366211	-0.750732	-0.664307	13.247423	36.205191	34.690743
59069		-4.663685	2.643347	8.120493	0.187184	0.117210	0.113976	-0.380615	-0.763428	-0.667725	13.416689	36.251943	34.792029
59070		-6.638176	2.643952	7.227038	0.110042	0.132593	0.076220	-0.366211	-0.759277	-0.663086	13.527864	36.312823	34.869861
59071		-6.487263	2.175323	7.321360	0.023212	0.003654	0.015498	-0.372070	-0.763916	-0.669678	13.551980	36.309234	34.884485
59072		-5.646033	1.631933	7.947331	0.014509	-0.004331	0.008165	-0.372070	-0.748047	-0.666504	13.567218	36.302946	34.892623
59073		-6.094641	1.602629	7.846360	0.039088	0.043029	0.019500	-0.378418	-0.754639	-0.662842	13.605962	36.320738	34.916587
59074		-6.226353	1.538570	7.835221	0.044712	0.030398	0.021844	-0.368652	-0.758545	-0.664063	13.647527	36.331929	34.939977
59075		-6.007162	1.834978	7.744171	0.049581	0.004763	0.025920	-0.372559	-0.763184	-0.666504	13.691129	36.327520	34.961984
59076		-5.966268	1.964768	7.808788	0.046679	-0.004955	0.021860	-0.364746	-0.762939	-0.662598	13.730291	36.319013	34.979435
59077		-5.881606	1.915263	7.804745	0.047775	0.012997	0.026066	-0.375488	-0.763184	-0.666748	13.773732	36.319142	35.002923
59078		-5.846050	1.802386	7.787376	0.047152	0.009739	0.026862	-0.371826	-0.759766	-0.665039	13.816679	36.318104	35.026305
59079		-5.879647	1.657815	7.820079	0.064065	0.021617	0.038954	-0.374268	-0.770020	-0.664795	13.875594	36.321229	35.060159
59080		-5.892261	1.844881	7.811217	0.079132	0.029980	0.046908	-0.367432	-0.761963	-0.660156	13.947097	36.328646	35.100829
59081		-5.868722	1.972329	7.729649	0.073187	0.032564	0.047004	-0.377197	-0.764404	-0.660156	14.015659	36.336679	35.142134
59082		-5.916097	1.998069	7.721928	0.075318	0.039885	0.055223	-0.371338	-0.760498	-0.674072	14.089418	36.348359	35.190283
59083		-5.988737	1.950940	7.704131	0.049935	0.016393	0.044560	-0.371582	-0.765381	-0.658447	14.142024	36.347670	35.227128
59084		-5.908579	1.962067	7.697395	0.049155	0.019078	0.040333	-0.369873	-0.774170	-0.664063	14.192586	36.349805	35.261418
59085		-5.829153	1.915240	7.747284	0.051824	0.016741	0.041626	-0.373779	-0.764404	-0.656738	14.245111	36.349669	35.296299
59086		-5.887909	1.908500	7.751830	0.051609	0.025864	0.043676	-0.367432	-0.768555	-0.661133	14.299156	36.355045	35.334089
59087		-5.833995	1.999355	7.772433	0.055460	0.038306	0.042049	-0.378418	-0.769287	-0.659668	14.356196	36.366768	35.373064
59088		-5.814718	1.985894	7.738607	0.048169	0.041485	0.040554	-0.372803	-0.763916	-0.664063	14.408656	36.381195	35.411485
59089		-5.973938	1.979995	7.690440	0.028341	0.034824	0.035757	-0.372559	-0.766357	-0.658447	14.447255	36.391828	35.445544
59090		-5.860504	1.952736	7.731450	0.026599	0.024199	0.034805	-0.367676	-0.766113	-0.658447	14.483216	36.397442	35.476965
59091		-5.851511	1.964763	7.653332	0.033734	0.021879	0.039677	-0.378906	-0.763672	-0.661621	14.525158	36.400296	35.511441
59092		-5.887391	2.041885	7.755604	0.034861	0.019819	0.040905	-0.375244	-0.763428	-0.657471	14.567891	36.402564	35.546293
59093		-5.907023	2.053541	7.696720	0.036243	0.034904	0.036465	-0.365723	-0.766113	-0.658691	14.611354	36.413062	35.580901
59094		-5.834758	2.040979	7.679193	0.012861	0.024700	0.028953	-0.369873	-0.762207	-0.656738	14.637132	36.419724	35.608409
59095		-5.885215	1.979952	7.664765	0.009539	0.027689	0.018196	-0.378174	-0.759033	-0.659912	14.657071	36.428842	35.629152
59096		-5.892795	1.972641	7.684557	0.014856	0.032439	0.021321	-0.367188	-0.774170	-0.664795	14.681714	36.440881	35.652811
59097		-5.901596	1.953826	7.671779	0.008184	0.028278	0.016620	-0.369385	-0.765137	-0.666016	14.700309	36.450541	35.672589
59098		-5.883886	2.007134	7.669640	0.021459	0.024832	0.021787	-0.364014	-0.768311	-0.655029	14.728122	36.458281	35.695209
59099		-5.890056	2.058158	7.632562	0.020923	0.028981	0.017899	-0.371094	-0.766113	-0.661377	14.754630	36.468131	35.716011
59100		-5.895961	2.062060	7.685375	0.006322	0.014150	0.010100	-0.377686	-0.767578	-0.651123	14.767846	36.471643	35.728653
59101		-5.854607	2.011521	7.591371	0.005429	0.008253	0.008698	-0.378174	-0.772705	-0.663086	14.779477	36.471343	35.739359
59102		-5.859516	2.107934	7.740431	-0.005588	0.007579	0.005982	-0.375000	-0.766357	-0.656982	14.783477	36.471812	35.747973
59103		-5.837705	2.005110	7.646944	-0.005303	0.015288	-0.000221	-0.369629	-0.762695	-0.661133	14.786068	36.476712	35.753814
59104		-5.837568	2.016038	7.678873	-0.007695	0.010840	0.000161	-0.374268	-0.770752	-0.661865	14.786833	36.479832	35.759014
59105		-5.839765	2.003986	7.645666	-0.009876	0.017300	0.001419	-0.376953	-0.770752	-0.655029	14.787694	36.485607	35.766351
59106		-5.854434	2.102157	7.629078	-0.000880	0.014138	0.001506	-0.365967	-0.771973	-0.667480	14.793274	36.490353	35.773078
59107		-5.835654	2.024306	7.654478	-0.006593	0.027646	0.002442	-0.369873	-0.760254	-0.662598	14.797558	36.501709	35.783006
59108		-5.837677	2.023594	7.653123	-0.011313	0.024986	-0.003349	-0.373291	-0.772705	-0.659912	14.796352	36.513170	35.788368
59109		-5.868144	2.021904	7.671370	-0.008017	0.025898	-0.002850	-0.369141	-0.762695	-0.659180	14.797465	36.524331	35.794333
59110		-5.912225	1.978981	7.667985	-0.003782	0.024441	0.000384	-0.374756	-0.768555	-0.651123	14.802050	36.534941	35.802172
59111		-5.872164	2.021070	7.668513	-0.004464	0.029453	-0.000142	-0.367920	-0.777588	-0.664063	14.806700	36.547674	35.810655
59112		-5.913926	2.047245	7.640736	-0.006892	0.023837	-0.001621	-0.364502	-0.772461	-0.660889	14.808617	36.558239	35.817005
59113		-5.899677	2.016867	7.631195	-0.012428	0.017616	-0.005107	-0.376709	-0.763916	-0.667480	14.805384	36.565143	35.819910
59114		-5.895287	2.024866	7.608731	-0.015947	0.015230	-0.005958	-0.364258	-0.763916	-0.656738	14.799400	36.571575	35.821701
59115		-5.869259	1.966718	7.645544	-0.008895	0.010568	-0.004784	-0.378418	-0.761963	-0.656006	14.797557	36.574528	35.823542
59116		-5.862663	1.998000	7.688177	-0.007187	0.020028	-0.005684	-0.375244	-0.758545	-0.666504	14.797225	36.583576	35.826396
59117		-5.846081	2.036884	7.654281	-0.006897	0.023837	-0.001616	-0.376953	-0.765625	-0.664063	14.799273	36.593416	35.832843
59118		-5.864883	2.054272	7.628979	-0.005207	0.022696	-0.004904	-0.368652	-0.765869	-0.656250	14.800687	36.603824	35.836723
59119		-5.917885	2.061398	7.644980	-0.005429	0.021222	-0.005256	-0.373291	-0.762939	-0.665283	14.801796	36.612747	35.840182
59120		-5.897705	2.039908	7.613923	-0.020438	0.014046	-0.011408	-0.368164	-0.773193	-0.659180	14.790872	36.619313	35.837999
59121		-5.885513	1.939431	7.629127	-0.014069	0.014396	-0.010755	-0.365723	-0.761230	-0.663086	14.784024	36.625260	35.836418
59122		-5.878929	1.970341	7.671907	-0.006729	0.013544	-0.005510	-0.368652	-0.767578	-0.665039	14.783325	36.630683	35.838213
59123		-5.919941	1.996218	7.644703	-0.007569	0.019415	-0.002668	-0.368408	-0.763672	-0.659912	14.784079	36.638228	35.843128
59124		-5.891971	2.007838	7.656787	-0.001044	0.018906	-0.005378	-0.367676	-0.770264	-0.658691	14.787273	36.646601	35.845990
59125		-5.887573	2.016733	7.634095	-0.004971	0.014737	-0.005082	-0.376465	-0.773926	-0.656982	14.788013	36.651907	35.848387
59126		-5.856849	2.097219	7.622330	-0.006541	0.013852	-0.007015	-0.365234	-0.772705	-0.653564	14.786834	36.657717	35.849199
59127		-5.870848	2.065636	7.632534	-0.013249	0.017961	-0.013062	-0.378174	-0.769531	-0.648926	14.779891	36.665976	35.846673
59128		-5.888208	1.953268	7.634414	-0.012943	0.012334	-0.009529	-0.368408	-0.773682	-0.664063	14.773848	36.671308	35.845475
59129		-5.923838	1.941520	7.674969	-0.010555	0.016785	-0.009898	-0.368164	-0.768311	-0.660156	14.769624	36.678452	35.844917
59130		-5.895371	1.999300	7.597832	-0.001206	0.019767	-0.002008	-0.369873	-0.765625	-0.658936	14.774212	36.686801	35.850265
59131		-5.969745	2.026412	7.644304	-0.006574	0.012686	-0.008872	-0.365234	-0.771240	-0.668945	14.772247	36.691526	35.849669
59132		-5.905967	2.059139	7.648412	-0.010468	0.009683	-0.006720	-0.364990	-0.761230	-0.665527	14.768487	36.694977	35.849925
59133		-5.902085	2.055455	7.593795	-0.019186	0.009958	-0.015410	-0.367676	-0.769775	-0.662354	14.756298	36.699144	35.844314
59134		-5.891941	2.025358	7.639566	-0.022733	0.006405	-0.018128	-0.371094	-0.765137	-0.652588	14.740446	36.702441	35.836092
59135		-5.938114	2.039627	7.635128	-0.024932	0.002262	-0.019265	-0.373047	-0.758789	-0.656494	14.722535	36.702903	35.826414
59136		-5.940919	1.967272	7.659738	-0.028668	-0.001600	-0.020479	-0.363525	-0.759277	-0.664551	14.701444	36.702100	35.815114
59137		-5.899349	2.006329	7.662593	-0.026124	0.001996	-0.024208	-0.373291	-0.767090	-0.660156	14.680778	36.703128	35.801971
59138		-5.916743	2.020801	7.639120	-0.031776	-0.002205	-0.022488	-0.372803	-0.765137	-0.660645	14.657010	36.702272	35.789173
59139		-5.940829	1.967630	7.694498	-0.034823	-0.011079	-0.023186	-0.364502	-0.760254	-0.670166	14.630371	36.695895	35.774374
59140		-5.910599	2.022181	7.619806	-0.037523	-0.009899	-0.026345	-0.369873	-0.766846	-0.664795	14.600891	36.691320	35.757524
59141		-5.938625	2.016438	7.640887	-0.046720	-0.017655	-0.027346	-0.369873	-0.763428	-0.666016	14.565019	36.681884	35.738676
59142		-5.898998	1.973137	7.636668	-0.050050	-0.019732	-0.029709	-0.368164	-0.759766	-0.669434	14.525931	36.672322	35.717750
59143		-5.925475	1.977801	7.691025	-0.050900	-0.024464	-0.029269	-0.374756	-0.765869	-0.664063	14.486161	36.659365	35.696375
59144		-5.893709	1.995161	7.739472	-0.058877	-0.026866	-0.033715	-0.373535	-0.759033	-0.655029	14.439624	36.646392	35.671431
59145		-5.892052	1.988312	7.742495	-0.066320	-0.033428	-0.034284	-0.368652	-0.775146	-0.661133	14.388026	36.629148	35.645029
59146		-5.853742	2.060674	7.680948	-0.072545	-0.034633	-0.038295	-0.366699	-0.764893	-0.664307	14.330983	36.612473	35.615583
59147		-5.924979	1.975073	7.603807	-0.082570	-0.042022	-0.047245	-0.370361	-0.761475	-0.662109	14.263874	36.592248	35.578758
59148		-5.885845	1.812528	7.714058	-0.071017	-0.045497	-0.040638	-0.369385	-0.764160	-0.664551	14.205664	36.569816	35.545852
59149		-5.850892	1.898229	7.739812	-0.055920	-0.034833	-0.028881	-0.366211	-0.761230	-0.667480	14.162201	36.550948	35.523053
59150		-5.870550	1.959438	7.684290	-0.046407	-0.032707	-0.024363	-0.374023	-0.761963	-0.662598	14.126166	36.533297	35.503688
59151		-5.931063	1.989670	7.658944	-0.043583	-0.035891	-0.026438	-0.374756	-0.759521	-0.666016	14.090703	36.513476	35.482436
59152		-5.862804	2.029710	7.699679	-0.048413	-0.047119	-0.029447	-0.380859	-0.768799	-0.664063	14.049981	36.488502	35.457100
59153		-5.914836	1.940353	7.678945	-0.044388	-0.050052	-0.026583	-0.375732	-0.772705	-0.662598	14.012585	36.460806	35.433349
59154		-5.780234	1.874984	7.717367	-0.042271	-0.053342	-0.020783	-0.368652	-0.749268	-0.666016	13.978363	36.431143	35.412992
59155		-5.817216	1.897490	7.694665	-0.037496	-0.032682	-0.017181	-0.373291	-0.754639	-0.665771	13.950597	36.411784	35.398779
59156		-5.831314	1.923070	7.705986	-0.028593	-0.028697	-0.020265	-0.373047	-0.756592	-0.668457	13.926970	36.395731	35.383053
59157		-5.813548	1.890713	7.699104	-0.024825	-0.023676	-0.017182	-0.372314	-0.757324	-0.664551	13.907400	36.381371	35.370407
59158		-5.798864	1.929544	7.722804	-0.021022	-0.017500	-0.012237	-0.375000	-0.758789	-0.671387	13.892553	36.370427	35.362161
59159		-5.860412	1.961437	7.696590	-0.037037	-0.023455	-0.022959	-0.359619	-0.764893	-0.666748	13.863656	36.356977	35.345578
59160		-5.895418	1.924467	7.674316	-0.033087	-0.018117	-0.021379	-0.370850	-0.758057	-0.666992	13.838106	36.346934	35.330929
59161		-5.800736	1.908385	7.750109	-0.039054	-0.027276	-0.025608	-0.376465	-0.756836	-0.669678	13.806603	36.331708	35.311889
59162		-5.817679	1.910881	7.695842	-0.044201	-0.021117	-0.027801	-0.375000	-0.761475	-0.664063	13.771775	36.320857	35.292317
59163		-5.851667	1.883441	7.706533	-0.053667	-0.020932	-0.028563	-0.367676	-0.760742	-0.667480	13.731350	36.309544	35.272336
59164		-5.849722	1.888559	7.741329	-0.050932	-0.015832	-0.031919	-0.369629	-0.749512	-0.667480	13.691529	36.302170	35.250836
59165		-5.821991	1.873373	7.690687	-0.045297	-0.011602	-0.033637	-0.371582	-0.758057	-0.669189	13.654771	36.296717	35.228942
59166		-5.867369	1.885490	7.687961	-0.034551	-0.009239	-0.024206	-0.374756	-0.761963	-0.667725	13.628157	36.291947	35.213891
59167		-5.803187	1.857489	7.749526	-0.026231	-0.007350	-0.024651	-0.380615	-0.759766	-0.668945	13.606427	36.287633	35.198927
59168		-5.848840	1.870761	7.746314	-0.027194	-0.004962	-0.027359	-0.376221	-0.762451	-0.671631	13.583167	36.285657	35.182419
59169		-5.856808	1.835683	7.703129	-0.025366	-0.001462	-0.023199	-0.378662	-0.760742	-0.664307	13.563112	36.284417	35.169444
59170		-5.833380	1.835072	7.738266	-0.019876	0.003602	-0.021550	-0.376221	-0.757080	-0.662842	13.547266	36.286420	35.158380
59171		-5.879548	1.849469	7.734404	-0.016158	0.001173	-0.013837	-0.373779	-0.751465	-0.660156	13.536575	36.285387	35.152314
59172		-5.870345	1.797551	7.714422	-0.021109	0.002505	-0.009164	-0.370605	-0.756592	-0.664307	13.524978	36.285112	35.149625
59173		-5.877247	1.774669	7.703602	-0.016411	-0.001448	-0.016065	-0.373047	-0.753418	-0.663086	13.512974	36.282916	35.141585
59174		-5.871739	1.782652	7.682369	-0.012510	-0.003557	-0.009856	-0.379395	-0.755615	-0.665771	13.505420	36.279356	35.137409
59175		-5.837087	1.745385	7.729910	0.003229	-0.001377	-0.003236	-0.372070	-0.762451	-0.667480	13.509923	36.275481	35.138247
59176		-5.823978	1.787304	7.751933	0.010150	0.005392	0.003714	-0.371826	-0.750000	-0.676025	13.521773	36.275091	35.144931
59177		-5.842444	1.795991	7.695147	0.015306	-0.000763	0.005894	-0.374268	-0.755127	-0.660889	13.536987	36.270333	35.152178
59178		-5.864791	1.817465	7.724906	0.031245	0.019764	0.008863	-0.375244	-0.751709	-0.668457	13.564438	36.277251	35.164809
59179		-5.795701	1.805959	7.762720	0.023899	-0.001392	0.016036	-0.371338	-0.757080	-0.671875	13.588656	36.270775	35.178952
59180		-5.831045	1.834228	7.682215	0.024623	-0.000107	0.010026	-0.373047	-0.756836	-0.663574	13.610823	36.266458	35.189070
59181		-5.845532	1.876725	7.723906	0.022598	-0.010222	0.013862	-0.381836	-0.760986	-0.662109	13.632526	36.255348	35.200226
59182		-5.858500	1.838430	7.701187	0.035240	0.009381	0.016328	-0.381836	-0.753906	-0.664063	13.664284	36.255453	35.216279
59183		-5.764406	1.888666	7.718185	0.031203	-0.004554	0.017513	-0.381836	-0.756104	-0.661621	13.692960	36.246996	35.230893
59184		-5.800908	1.951630	7.790021	0.037669	0.004416	0.015376	-0.376221	-0.756348	-0.667480	13.725224	36.244450	35.245451
59185		-5.921895	1.873045	7.638610	0.023892	-0.001386	0.016041	-0.376465	-0.755615	-0.661621	13.749417	36.237944	35.259571
59186		-5.779427	1.927006	7.725813	0.015065	-0.008525	0.012037	-0.375488	-0.753662	-0.666992	13.766074	36.228639	35.269635
59187		-5.890859	1.889612	7.651883	0.016424	-0.009119	0.013607	-0.379395	-0.762451	-0.664551	13.784215	36.218155	35.280760
59188		-5.820543	1.877022	7.690893	0.011058	-0.004436	0.011056	-0.369141	-0.758789	-0.658691	13.798579	36.211254	35.290833
59189		-5.877866	1.865147	7.697382	0.017438	-0.004064	0.011684	-0.375244	-0.759033	-0.661865	13.817016	36.203840	35.301478
59190		-5.832977	1.887122	7.580206	0.021933	-0.014636	0.012793	-0.380615	-0.759766	-0.659912	13.837288	36.191021	35.311010
59191		-5.761778	1.978180	7.748710	0.015389	-0.009039	0.007168	-0.376465	-0.764648	-0.669434	13.852205	36.181453	35.317688
59192		-5.731666	1.991901	7.761900	0.011601	-0.003477	0.006547	-0.376465	-0.757324	-0.665039	13.865132	36.175691	35.324804
59193		-5.807608	1.986329	7.712016	0.002682	-0.002342	0.001276	-0.374268	-0.760742	-0.668457	13.871041	36.170656	35.328556
59194		-5.748357	2.010292	7.738561	-0.014810	-0.005718	-0.005770	-0.377686	-0.756836	-0.659424	13.863607	36.165331	35.326806
59195		-5.784290	1.975644	7.715011	-0.015808	-0.004487	-0.010346	-0.375000	-0.754395	-0.658691	13.853981	36.160698	35.322186
59196		-5.795649	1.954001	7.758693	-0.016933	0.003867	-0.018056	-0.375000	-0.754150	-0.656006	13.841306	36.162383	35.313605
59197		-5.837969	1.908952	7.756310	-0.015574	0.003273	-0.016486	-0.378174	-0.753418	-0.663574	13.830096	36.162906	35.306074
59198		-5.745902	1.942570	7.741120	-0.012802	0.009525	-0.017981	-0.370605	-0.764404	-0.663818	13.820386	36.167722	35.298505
59199		-5.758535	1.921048	7.783800	-0.009198	0.020514	-0.019897	-0.380615	-0.765625	-0.668457	13.813164	36.178303	35.291544
59200		-5.816489	1.883018	7.669020	0.001965	0.030964	-0.018110	-0.370361	-0.758545	-0.672363	13.814006	36.195054	35.287518
59201		-5.810602	1.924819	7.743535	0.007780	0.035516	-0.021334	-0.371826	-0.760498	-0.662598	13.817424	36.214178	35.282107
59202		-5.812709	1.935321	7.773991	0.009208	0.037228	-0.016034	-0.381104	-0.761475	-0.665283	13.823890	36.234129	35.280578
59203		-5.830244	1.882507	7.716804	0.006271	0.036944	-0.019534	-0.375732	-0.763428	-0.665527	13.827318	36.253802	35.276651
59204		-5.849718	1.911332	7.723403	0.010994	0.039582	-0.013737	-0.379883	-0.757813	-0.667725	13.835984	36.274742	35.277111
59205		-5.859560	1.890309	7.709952	0.004363	0.036580	-0.016595	-0.379150	-0.760742	-0.672119	13.839483	36.293811	35.275155
59206		-5.885447	1.898172	7.705658	0.007227	0.034561	-0.016818	-0.377686	-0.754639	-0.668457	13.844229	36.312379	35.272639
59207		-5.865298	1.889118	7.705880	-0.000562	0.027335	-0.014390	-0.380859	-0.762451	-0.664551	13.844876	36.326003	35.270634
59208		-5.866563	1.899018	7.737150	-0.002567	0.023511	-0.017045	-0.371582	-0.760254	-0.673096	13.842802	36.338454	35.266081
59209		-5.862841	1.907462	7.714403	-0.008599	0.017483	-0.014189	-0.373047	-0.758057	-0.666260	13.837931	36.346569	35.262536
59210		-5.876862	1.875421	7.723947	-0.007590	0.022540	-0.016109	-0.372314	-0.763916	-0.666992	13.833261	36.358350	35.258462
59211		-5.866308	1.904478	7.712505	-0.007886	0.012473	-0.013702	-0.375977	-0.757080	-0.669922	13.828491	36.363610	35.254399
59212		-5.844826	1.894606	7.713973	-0.010540	0.015965	-0.013116	-0.376465	-0.756348	-0.671631	13.822691	36.371320	35.251271
59213		-5.852797	1.872305	7.702200	-0.007521	0.013113	-0.016706	-0.373535	-0.758301	-0.663574	13.816962	36.377346	35.245239
59214		-5.854142	1.870717	7.701563	-0.010756	0.014492	-0.013478	-0.377930	-0.753906	-0.674561	13.810739	36.384283	35.241608
59215		-5.842415	1.910768	7.723050	-0.005918	0.015146	-0.012906	-0.374512	-0.764160	-0.662354	13.807688	36.390921	35.238546
59216		-5.885527	1.866738	7.719451	-0.005461	0.019244	-0.010317	-0.376221	-0.757324	-0.660645	13.806272	36.400067	35.237905
59217		-5.875738	1.885319	7.675321	-0.004775	0.013081	-0.011696	-0.379395	-0.759521	-0.670410	13.804163	36.405389	35.235327
59218		-5.882559	1.874489	7.696289	-0.004958	0.012761	-0.010194	-0.368652	-0.747070	-0.666016	13.802432	36.410910	35.233670
59219		-5.854153	1.886019	7.709003	-0.004395	0.008582	-0.006341	-0.375488	-0.751465	-0.669434	13.802284	36.412998	35.234029
59220		-5.862336	1.853548	7.664800	-0.004455	0.006277	-0.010070	-0.369385	-0.761719	-0.660400	13.800237	36.414892	35.231356
59221		-5.849059	1.905078	7.719426	-0.002700	0.007478	-0.009638	-0.372314	-0.759521	-0.666016	13.799595	36.416816	35.229248
59222		-5.857236	1.872694	7.675196	-0.002884	0.007157	-0.008136	-0.373047	-0.762207	-0.665039	13.799330	36.418933	35.228061
59223		-5.839208	1.923383	7.675427	-0.001526	0.006565	-0.006563	-0.372803	-0.752441	-0.666260	13.800532	36.419929	35.227925
59224		-5.851094	1.903241	7.718336	-0.001526	0.006565	-0.006563	-0.374756	-0.758057	-0.662354	13.801632	36.421499	35.227726
59225		-5.852827	1.891870	7.685073	0.001022	0.011352	-0.008409	-0.378174	-0.759766	-0.673096	13.804018	36.425411	35.227126
59226		-5.869814	1.920528	7.693623	-0.002319	0.002978	-0.004284	-0.374268	-0.758057	-0.664063	13.805239	36.424671	35.227894
59227		-5.859620	1.880945	7.706089	-0.004455	0.006277	-0.010070	-0.367188	-0.761475	-0.666016	13.803293	36.425987	35.225284
59228		-5.861024	1.869137	7.673172	-0.005248	0.002691	-0.007791	-0.374268	-0.760254	-0.663818	13.801368	36.425564	35.223579
59229		-5.871192	1.918026	7.693196	-0.006790	0.002963	-0.007862	-0.368652	-0.764404	-0.664551	13.798657	36.424733	35.221933
59230		-5.860805	1.878005	7.705904	-0.008573	0.000610	-0.010159	-0.367188	-0.747803	-0.666016	13.793646	36.423475	35.218238
59231		-5.826133	1.899053	7.697602	-0.008332	0.003235	-0.007932	-0.377441	-0.756348	-0.665283	13.790050	36.422805	35.216590
59232		-5.855076	1.896495	7.716977	-0.006394	0.004757	-0.009000	-0.371826	-0.764404	-0.664551	13.787182	36.423692	35.214401
59233		-5.862072	1.874814	7.705718	-0.006761	0.004115	-0.005996	-0.371826	-0.752441	-0.665527	13.785369	36.423247	35.214241
59234		-5.856054	1.894866	7.716635	-0.000015	0.005142	-0.008355	-0.370117	-0.756104	-0.663086	13.786459	36.424258	35.212563
59235		-5.834842	1.874959	7.685636	-0.005545	0.010648	-0.007548	-0.376465	-0.770264	-0.668945	13.785364	36.427661	35.212438
59236		-5.886872	1.881080	7.702571	-0.000227	0.003670	-0.008718	-0.374268	-0.758789	-0.665039	13.786036	36.427898	35.210260
59237		-5.846006	1.923527	7.705027	-0.001133	0.008360	-0.007700	-0.375732	-0.760254	-0.672607	13.787176	36.430048	35.209642
59238		-5.853149	1.902229	7.693551	-0.003466	0.005044	-0.005493	-0.370605	-0.763428	-0.662109	13.787456	36.430608	35.209929
59239		-5.860155	1.880930	7.682173	-0.001741	0.005094	-0.006924	-0.363770	-0.764648	-0.665039	13.788238	36.430834	35.209293
59240		-5.889038	1.878809	7.701470	-0.003890	0.002098	-0.006219	-0.378906	-0.751709	-0.662109	13.787681	36.429852	35.208579
59241		-5.837148	1.882202	7.716873	-0.003707	0.002420	-0.007720	-0.373535	-0.764404	-0.667969	13.786739	36.428699	35.206938
59242		-5.854596	1.899860	7.693035	-0.001174	0.000914	-0.003074	-0.370850	-0.754395	-0.664551	13.788910	36.426625	35.208198
59243		-5.832077	1.890898	7.695108	-0.006395	0.004756	-0.009000	-0.367920	-0.754150	-0.658203	13.786138	36.426948	35.206069
59244		-5.844661	1.859496	7.705444	-0.003679	0.003571	-0.005855	-0.373291	-0.758789	-0.667725	13.786001	36.426729	35.205857
59245		-5.825742	1.921040	7.738599	-0.002888	0.007159	-0.008132	-0.371338	-0.756348	-0.667969	13.785837	36.428270	35.204736
59246		-5.862308	1.887000	7.713814	-0.007514	0.007973	-0.008344	-0.366943	-0.759521	-0.670654	13.782924	36.430837	35.203549
59247		-5.851692	1.905656	7.670340	-0.006395	0.004756	-0.009000	-0.375000	-0.762207	-0.660400	13.780152	36.431159	35.201420
59248		-5.864355	1.873990	7.680664	-0.007937	0.005028	-0.009071	-0.367920	-0.753418	-0.667725	13.776402	36.432183	35.199233
59249		-5.857572	1.904259	7.724483	-0.012775	0.004368	-0.009646	-0.381348	-0.758545	-0.672363	13.769670	36.432376	35.196590
59250		-5.841941	1.873677	7.715320	-0.010048	0.009480	-0.012989	-0.372314	-0.758545	-0.668213	13.763549	36.436409	35.192447
59251		-5.866387	1.869829	7.680126	-0.006396	0.004757	-0.008999	-0.369141	-0.764404	-0.664551	13.760777	36.436731	35.190318
59252		-5.854005	1.910154	7.702280	-0.009480	0.005299	-0.009141	-0.374756	-0.759766	-0.671631	13.756141	36.437910	35.188128
59253		-5.843918	1.870153	7.714678	-0.005974	0.007703	-0.008271	-0.380371	-0.755615	-0.671631	13.754205	36.439772	35.187001
59254		-5.861860	1.887409	7.690567	-0.006158	0.007381	-0.006770	-0.371094	-0.756836	-0.669189	13.752656	36.441783	35.186804
59255		-5.816012	1.880633	7.727414	-0.009270	0.006772	-0.008777	-0.375000	-0.757813	-0.664795	13.748531	36.443196	35.185170
59256		-5.885484	1.904509	7.720450	-0.003617	0.012173	-0.008609	-0.373047	-0.755371	-0.666260	13.748165	36.448120	35.184511
59257		-5.869982	1.874656	7.710988	-0.006159	0.007381	-0.006770	-0.375488	-0.759033	-0.658447	13.746708	36.449598	35.184369
59258		-5.854313	1.844749	7.701661	-0.004249	0.007755	-0.009701	-0.374268	-0.764648	-0.664063	13.745087	36.452210	35.182207
59259		-5.872163	1.862078	7.677595	-0.003312	0.004217	-0.008857	-0.365723	-0.755371	-0.664551	13.744085	36.452211	35.180085
59260		-5.882691	1.911043	7.697498	-0.006344	0.007059	-0.005268	-0.373047	-0.761719	-0.663574	13.743014	36.453831	35.180872
59261		-5.877908	1.861561	7.731632	-0.002769	-0.001116	-0.006876	-0.373291	-0.763672	-0.658203	13.742601	36.450594	35.179218
59262		-5.872441	1.870916	7.710023	-0.002322	0.002980	-0.004282	-0.370361	-0.763184	-0.661621	13.743830	36.449807	35.179998
59263		-5.860637	1.901135	7.699469	-0.002506	0.002658	-0.002780	-0.366699	-0.758057	-0.672363	13.745631	36.448114	35.181816
59264		-5.861679	1.889810	7.666634	-0.004075	0.001778	-0.004717	-0.369629	-0.757080	-0.673096	13.745557	36.446714	35.182092
59265		-5.873137	1.869439	7.709851	-0.004285	0.000305	-0.005081	-0.372803	-0.765381	-0.663330	13.745156	36.444025	35.181919
59266		-5.831765	1.912018	7.712878	-0.001594	-0.002031	-0.003802	-0.373535	-0.765869	-0.669189	13.746496	36.440380	35.182184
59267		-5.866863	1.889196	7.721130	-0.003681	0.003573	-0.005854	-0.372803	-0.761475	-0.669678	13.746453	36.439614	35.182030
59268		-5.815067	1.892627	7.736569	-0.005249	0.002693	-0.007790	-0.367432	-0.761719	-0.669922	13.744536	36.439137	35.180336
59269		-5.884020	1.916869	7.729889	-0.002297	0.004131	-0.002416	-0.366943	-0.754639	-0.665771	13.746755	36.438213	35.182655
59270		-5.845872	1.868303	7.690158	-0.003865	0.003250	-0.004353	-0.375732	-0.757813	-0.658691	13.747102	36.437574	35.183435
59271		-5.851872	1.857827	7.711626	-0.003681	0.003573	-0.005854	-0.376221	-0.753662	-0.663818	13.747058	36.436808	35.183281
59272		-5.863798	1.885351	7.666112	-0.002323	0.002980	-0.004281	-0.374512	-0.762207	-0.665039	13.748290	36.436006	35.184064
59273		-5.868999	1.885775	7.720343	-0.003681	0.003573	-0.005853	-0.369385	-0.760010	-0.669678	13.748247	36.435240	35.183911
59274		-5.869256	1.885326	7.720257	-0.001174	0.000915	-0.003073	-0.368164	-0.757813	-0.661377	13.750426	36.433123	35.185179
59275		-5.870300	1.874036	7.687399	-0.003681	0.003573	-0.005853	-0.374268	-0.755615	-0.665283	13.750382	36.432357	35.185026
59276		-5.863418	1.905054	7.731230	-0.004049	0.002928	-0.002851	-0.374512	-0.763916	-0.670654	13.751207	36.431327	35.186790
59277		-5.824184	1.867407	7.724466	-0.001778	-0.002353	-0.002302	-0.368652	-0.757324	-0.670898	13.753117	36.426780	35.188090
59278		-5.835809	1.895034	7.679162	-0.004075	0.001778	-0.004717	-0.376465	-0.758057	-0.667236	13.753046	36.425359	35.188368
59279		-5.835224	1.905318	7.711919	-0.004259	0.001455	-0.003216	-0.372559	-0.761475	-0.660156	13.753541	36.423056	35.189680
59280		-5.835520	1.904864	7.711808	-0.002113	0.004454	-0.003916	-0.371826	-0.756592	-0.667725	13.755193	36.423012	35.190967
59281		-5.871760	1.871315	7.686948	-0.001694	0.007399	-0.003186	-0.374756	-0.764160	-0.659668	13.757768	36.424013	35.193306
59282		-5.865784	1.891795	7.697849	0.000762	0.002441	-0.004138	-0.373535	-0.756348	-0.668457	13.760775	36.422877	35.194098
59283		-5.848827	1.873357	7.721496	0.000921	0.001614	-0.007504	-0.379395	-0.752197	-0.666748	13.762493	36.421247	35.192471
59284		-5.865655	1.901965	7.730294	-0.003631	0.005873	-0.002122	-0.370361	-0.766846	-0.666504	13.764156	36.421743	35.195240
59285		-5.815278	1.884094	7.680236	-0.001409	-0.001707	-0.005304	-0.380615	-0.760254	-0.665039	13.765108	36.417964	35.194572
59286		-5.848818	1.882992	7.753982	-0.000597	0.003034	-0.005710	-0.365479	-0.754883	-0.657715	13.766752	36.417366	35.194378
59287		-5.855122	1.920626	7.686817	-0.000571	0.004184	-0.003844	-0.372070	-0.755127	-0.671387	13.769376	36.416667	35.195717
59288		-5.831959	1.922912	7.721494	-0.000178	0.005980	-0.004980	-0.373047	-0.748291	-0.665283	13.771857	36.417605	35.196528
59289		-5.845327	1.881118	7.698798	-0.001905	0.005926	-0.003551	-0.383789	-0.760742	-0.661865	13.774013	36.417835	35.198366
59290		-5.845881	1.880813	7.698452	0.001549	0.006033	-0.006409	-0.376221	-0.757813	-0.660889	13.776903	36.418994	35.198199
59291		-5.817261	1.892931	7.711421	-0.001327	0.008045	-0.006188	-0.373291	-0.759277	-0.667480	13.778521	36.420763	35.198573
59292		-5.847186	1.880069	7.697643	-0.000178	0.005980	-0.004980	-0.376465	-0.756592	-0.665283	13.781003	36.421694	35.199385
59293		-5.835855	1.910395	7.686766	-0.001094	0.010668	-0.003957	-0.369385	-0.756592	-0.665283	13.783935	36.424618	35.201746
59294		-5.854341	1.869565	7.718236	0.000031	0.007453	-0.004615	-0.372314	-0.761719	-0.668213	13.786837	36.426315	35.203062
59295		-5.848601	1.890031	7.728987	0.000030	0.007453	-0.004615	-0.377930	-0.753662	-0.663330	13.789819	36.427540	35.204424
59296		-5.866497	1.907941	7.704739	0.001757	0.007507	-0.006044	-0.377686	-0.757568	-0.660400	13.793129	36.429458	35.204761
59297		-5.849825	1.889545	7.728179	-0.000572	0.004184	-0.003844	-0.367188	-0.757324	-0.669189	13.795753	36.428759	35.206100
59298		-5.873861	1.886655	7.692950	-0.000387	0.004507	-0.005345	-0.366699	-0.761230	-0.663086	13.797819	36.428910	35.206412
59299		-5.821589	1.901442	7.740941	0.000239	0.008926	-0.004250	-0.372314	-0.754395	-0.665283	13.801219	36.430904	35.208276
59300		-5.868720	1.906718	7.703349	-0.001745	0.005099	-0.006918	-0.381836	-0.760986	-0.665527	13.801921	36.431596	35.207600
59301		-5.823556	1.889887	7.707416	0.001572	0.007184	-0.004542	-0.372314	-0.757568	-0.660645	13.805790	36.432661	35.208966
59302		-5.870006	1.906186	7.702500	0.000238	0.008926	-0.004250	-0.371094	-0.755859	-0.656494	13.809112	36.435114	35.210788
59303		-5.847981	1.897695	7.704132	0.000631	0.010722	-0.005385	-0.373779	-0.759521	-0.659912	13.812452	36.438263	35.212173
59304		-5.848738	1.897526	7.703599	0.001387	0.006861	-0.003041	-0.376953	-0.764648	-0.660889	13.816722	36.439399	35.214479
59305		-5.848696	1.908209	7.735897	0.000238	0.008926	-0.004249	-0.372314	-0.756348	-0.656738	13.820123	36.441393	35.216345
59306		-5.879318	1.884585	7.689288	-0.001906	0.005926	-0.003551	-0.373779	-0.759521	-0.667236	13.822202	36.442074	35.218141
59307		-5.850670	1.896797	7.702312	0.001757	0.007508	-0.006042	-0.373779	-0.753418	-0.662354	13.825593	36.443525	35.218525
59308		-5.873564	1.915643	7.732361	0.000237	0.008926	-0.004249	-0.376221	-0.755859	-0.671631	13.828918	36.445969	35.220351
59309		-5.875607	1.893806	7.666376	0.001179	0.005388	-0.003406	-0.375244	-0.759277	-0.663330	13.832847	36.445879	35.222198
