// General information: 
//  MT Manager version: 2022.2.0 
//  XDA version: 2022.2.0 build 7381 rev 124627 built on 2023-07-19
// Device information: 
//  DeviceId: 00B4BCF6
//  ProductCode: MTW2-3A7G6
//  Firmware Version: 4.6.0
//  Hardware Version: 2.0.0
// Device settings: 
//  Filter Profile: human(46.1)
//  Option Flags: Orientation Smoother Disabled, Position/Velocity Smoother Disabled, Continuous Zero Rotation Update Disabled, AHS Disabled, ICC Disabled
// Coordinate system: ENU
PacketCounter	SampleTimeFine	Acc_X	Acc_Y	Acc_Z	Gyr_X	Gyr_Y	Gyr_Z	Mag_X	Mag_Y	Mag_Z	Roll	Pitch	Yaw
18090		-6.403170	1.701808	7.295047	-0.007126	-0.003929	-0.008546	-0.071045	-0.626221	-0.917480	13.292619	40.664178	23.640244
18091		-6.407761	1.678172	7.269566	-0.004361	0.003144	-0.006841	-0.074707	-0.614258	-0.917480	13.291518	40.663193	23.638017
18092		-6.408948	1.682766	7.311489	-0.001920	-0.001334	-0.011426	-0.071045	-0.612549	-0.909180	13.289225	40.660402	23.632895
18093		-6.407255	1.749406	7.274412	-0.006543	0.002450	-0.011140	-0.073975	-0.611084	-0.913818	13.284698	40.659563	23.629611
18094		-6.395162	1.664890	7.299559	-0.005515	0.004127	-0.010229	-0.072998	-0.618652	-0.910156	13.281536	40.659659	23.626318
18095		-6.404592	1.696981	7.294923	-0.004168	0.003760	-0.008291	-0.070557	-0.609131	-0.914795	13.279895	40.659170	23.624768
18096		-6.400479	1.718799	7.320425	-0.005196	0.002084	-0.009202	-0.069824	-0.612061	-0.907715	13.277178	40.657992	23.621875
18097		-6.419674	1.710934	7.306627	-0.003849	0.001717	-0.007264	-0.070068	-0.614014	-0.914307	13.275959	40.656254	23.621261
18098		-6.418919	1.704723	7.264693	-0.002434	0.000095	-0.011006	-0.071045	-0.615479	-0.918945	13.273736	40.654203	23.616698
18099		-6.405889	1.693499	7.294594	-0.005003	0.007232	-0.008897	-0.061768	-0.614990	-0.918213	13.271701	40.655755	23.615745
18100		-6.426345	1.690849	7.322512	-0.004809	0.003317	-0.012101	-0.072021	-0.607422	-0.923096	13.267957	40.655645	23.610935
18101		-6.425818	1.684473	7.280408	-0.001727	0.003816	-0.011122	-0.066406	-0.616211	-0.917480	13.266309	40.655618	23.608849
18102		-6.388469	1.697552	7.307731	-0.005518	0.004128	-0.010231	-0.062500	-0.614258	-0.917236	13.263145	40.655714	23.605555
18103		-6.384413	1.719328	7.333220	-0.003656	0.002334	-0.008714	-0.070801	-0.611084	-0.914795	13.261414	40.654554	23.602844
18104		-6.427988	1.687139	7.321925	-0.003656	0.002334	-0.008714	-0.073975	-0.623047	-0.916992	13.259841	40.653450	23.600354
18105		-6.383014	1.706775	7.249270	-0.006225	0.000408	-0.010115	-0.073975	-0.615723	-0.920654	13.255769	40.651329	23.596806
18106		-6.384213	1.711130	7.291260	-0.004684	0.000658	-0.009626	-0.066406	-0.615479	-0.914063	13.252982	40.649409	23.593356
18107		-6.423345	1.701427	7.305621	-0.004812	0.003319	-0.012102	-0.063721	-0.606689	-0.911865	13.249082	40.649192	23.589140
18108		-6.403756	1.702102	7.277407	-0.005585	0.000851	-0.006306	-0.072021	-0.617432	-0.909668	13.247390	40.646945	23.588164
18109		-6.409611	1.683640	7.293606	-0.006482	0.005730	-0.015069	-0.068604	-0.626221	-0.916016	13.241391	40.648478	23.581107
18110		-6.430029	1.680672	7.321620	-0.006547	0.002452	-0.011144	-0.071045	-0.621826	-0.911621	13.237013	40.647759	23.576853
18111		-6.410501	1.681205	7.293385	-0.005006	0.002703	-0.010654	-0.072998	-0.614746	-0.919678	13.233689	40.646999	23.570622
18112		-6.420047	1.713059	7.288771	-0.007385	0.005924	-0.011749	-0.069336	-0.612549	-0.918457	13.228932	40.648294	23.566523
18113		-6.387153	1.703349	7.290507	-0.003658	0.002336	-0.008715	-0.065430	-0.615723	-0.923828	13.227178	40.647077	23.565724
18114		-6.425306	1.688390	7.262861	-0.005715	0.003513	-0.008784	-0.065430	-0.613525	-0.915283	13.224526	40.646639	23.563389
18115		-6.406767	1.694446	7.276544	-0.005200	0.002086	-0.009206	-0.064453	-0.618896	-0.922852	13.221629	40.645396	23.561074
18116		-6.402659	1.716000	7.302176	-0.010533	0.002145	-0.008805	-0.068848	-0.615234	-0.912598	13.216053	40.644197	23.558486
18117		-6.412701	1.674735	7.292940	-0.005711	-0.001017	-0.010541	-0.073730	-0.608643	-0.916260	13.211902	40.641381	23.553725
18118		-6.407444	1.691024	7.276743	-0.006935	0.001219	-0.008247	-0.077881	-0.610352	-0.918701	13.208550	40.639592	23.551387
18119		-6.380759	1.669237	7.336918	-0.008284	0.001587	-0.010187	-0.072754	-0.613281	-0.910400	13.203344	40.638105	23.550751
18120		-6.422402	1.704476	7.288709	-0.004879	0.000043	-0.008180	-0.079102	-0.611816	-0.912354	13.201071	40.635651	23.548261
18121		-6.428036	1.686232	7.305018	-0.002952	0.001529	-0.010588	-0.067871	-0.617188	-0.917969	13.198773	40.634178	23.544913
18122		-6.374935	1.678454	7.278800	-0.005072	-0.000575	-0.006731	-0.069824	-0.611572	-0.916992	13.197014	40.631189	23.543382
18123		-6.409421	1.691542	7.318951	-0.004171	-0.000765	-0.010052	-0.075195	-0.617188	-0.922607	13.193993	40.628437	23.539694
18124		-6.409552	1.690516	7.319073	-0.008671	0.000351	-0.007290	-0.069824	-0.614502	-0.916748	13.190009	40.626038	23.537913
18125		-6.389858	1.691081	7.290992	-0.006036	0.001029	-0.011569	-0.067627	-0.621338	-0.909424	13.185396	40.624450	23.534324
18126		-6.410017	1.688336	7.319169	-0.005396	0.001470	-0.007758	-0.068359	-0.612549	-0.921143	13.183190	40.622737	23.532392
18127		-6.375890	1.673467	7.279111	-0.005204	0.002089	-0.009207	-0.075439	-0.614502	-0.913086	13.180329	40.621467	23.528252
18128		-6.400893	1.726517	7.328380	-0.003986	0.004384	-0.009743	-0.062988	-0.615967	-0.925293	13.178308	40.621639	23.525362
18129		-6.396667	1.669825	7.306948	-0.005528	0.004133	-0.010234	-0.071289	-0.616943	-0.920166	13.174969	40.621635	23.522601
18130		-6.391672	1.685925	7.290597	-0.009637	0.001955	-0.012129	-0.076904	-0.615234	-0.909180	13.168296	40.620762	23.517540
18131		-6.406591	1.700371	7.302383	-0.003987	0.004385	-0.009744	-0.065918	-0.611816	-0.913818	13.166134	40.620781	23.514701
18132		-6.412381	1.681912	7.318577	-0.008288	0.001588	-0.010190	-0.066650	-0.618408	-0.916992	13.161121	40.619450	23.511002
18133		-6.407273	1.698098	7.302314	-0.006747	0.001839	-0.009699	-0.065674	-0.618652	-0.916992	13.157097	40.618120	23.506597
18134		-6.402221	1.714355	7.285992	-0.007264	0.003265	-0.009277	-0.079346	-0.613525	-0.914063	13.153296	40.617605	23.503858
18135		-6.413409	1.678404	7.318481	-0.008805	0.003014	-0.009768	-0.069580	-0.609619	-0.915283	13.148204	40.616876	23.500628
18136		-6.393791	1.678965	7.290344	-0.006231	0.000413	-0.010123	-0.072754	-0.612061	-0.916992	13.144271	40.614880	23.496778
18137		-6.417586	1.726469	7.297950	-0.007965	-0.000457	-0.009165	-0.066406	-0.614258	-0.924316	13.139519	40.612154	23.494799
18138		-6.394039	1.676885	7.290606	-0.002823	-0.001129	-0.008115	-0.082764	-0.615967	-0.912354	13.138328	40.609035	23.492160
18139		-6.428538	1.689771	7.330802	-0.007256	-0.001263	-0.011038	-0.074951	-0.611084	-0.911865	13.133021	40.606068	23.488615
18140		-6.394214	1.674633	7.290970	-0.009507	-0.000707	-0.009657	-0.071533	-0.622314	-0.917969	13.127310	40.603385	23.484917
18141		-6.423285	1.704678	7.314985	-0.007641	-0.002501	-0.008140	-0.065918	-0.612305	-0.913086	13.123060	40.599361	23.481537
18142		-6.380752	1.662059	7.321518	-0.005907	-0.001630	-0.009098	-0.072998	-0.610352	-0.908691	13.119578	40.596090	23.478092
18143		-6.390060	1.694074	7.317215	-0.005208	0.002092	-0.009210	-0.071045	-0.615723	-0.916748	13.116700	40.594807	23.474279
18144		-6.404923	1.708606	7.329057	-0.006559	0.002460	-0.011150	-0.074951	-0.605225	-0.911377	13.112319	40.594085	23.470027
18145		-6.361733	1.660684	7.293306	-0.005726	0.003518	-0.008787	-0.072021	-0.612793	-0.917480	13.109487	40.593509	23.468721
18146		-6.424766	1.699531	7.314883	-0.003294	0.008112	-0.009855	-0.073975	-0.617676	-0.912598	13.108225	40.595772	23.466388
18147		-6.429560	1.676058	7.288989	-0.003341	0.000299	-0.007694	-0.069336	-0.607910	-0.913330	13.106953	40.593253	23.464113
18148		-6.392093	1.689536	7.316488	-0.003544	0.004208	-0.004483	-0.071533	-0.614014	-0.921387	13.107682	40.592640	23.465060
18149		-6.431309	1.679841	7.330654	-0.007786	0.004693	-0.008855	-0.068115	-0.612305	-0.911377	13.103750	40.592758	23.464089
18150		-6.392942	1.687786	7.316150	-0.002126	0.002596	-0.008228	-0.063965	-0.609375	-0.915283	13.103322	40.591732	23.462008
18151		-6.397593	1.664369	7.290356	-0.003668	0.002345	-0.008720	-0.065186	-0.617188	-0.912109	13.101572	40.590562	23.458531
18152		-6.432312	1.677347	7.330345	-0.003150	0.000919	-0.009143	-0.068604	-0.614990	-0.917725	13.099933	40.588719	23.455491
18153		-6.412657	1.678183	7.302192	-0.006752	0.001842	-0.009703	-0.076416	-0.607910	-0.913330	13.095920	40.587382	23.450384
18154		-6.393015	1.679059	7.274020	-0.003860	0.001725	-0.007271	-0.066162	-0.621338	-0.910889	13.094859	40.585745	23.448858
18155		-6.413207	1.676391	7.302120	-0.005210	0.002094	-0.009212	-0.067871	-0.621094	-0.916016	13.091999	40.584436	23.444810
18156		-6.433351	1.673723	7.330261	-0.003342	0.000300	-0.007695	-0.071533	-0.615479	-0.918945	13.090874	40.582058	23.442729
18157		-6.399071	1.659097	7.290260	-0.004693	0.000668	-0.009636	-0.070557	-0.610840	-0.917969	13.087945	40.580030	23.438055
18158		-6.413846	1.673833	7.302146	-0.003860	0.001725	-0.007271	-0.063721	-0.617920	-0.919922	13.086884	40.578393	23.436528
18159		-6.395223	1.680122	7.315921	-0.003151	0.000920	-0.009144	-0.072510	-0.620850	-0.919922	13.085058	40.576475	23.433654
18160		-6.399729	1.656722	7.290223	-0.004052	0.001105	-0.005823	-0.070801	-0.612549	-0.921875	13.084511	40.574304	23.433087
18161		-6.394597	1.673352	7.273944	-0.002960	0.001541	-0.010594	-0.071777	-0.613525	-0.914063	13.082181	40.572869	23.429653
18162		-6.410391	1.693332	7.327821	-0.005076	-0.000572	-0.006738	-0.064209	-0.614502	-0.920410	13.080424	40.569881	23.428127
18163		-6.395861	1.676953	7.316090	-0.004557	-0.001997	-0.007162	-0.071777	-0.611572	-0.910889	13.078423	40.566066	23.425956
18164		-6.382517	1.665694	7.346222	-0.007464	0.002647	-0.007832	-0.070557	-0.614258	-0.916748	13.075132	40.565016	23.424176
18165		-6.410756	1.690724	7.328104	-0.002824	-0.001124	-0.008120	-0.072510	-0.608643	-0.915527	13.073776	40.561770	23.421444
18166		-6.415163	1.667301	7.302483	-0.005595	0.000853	-0.006315	-0.065430	-0.612305	-0.914551	13.072082	40.559522	23.420472
18167		-6.381917	1.658100	7.304407	-0.001801	0.000553	-0.007204	-0.073486	-0.614014	-0.917480	13.071905	40.557124	23.419563
18168		-6.411137	1.688516	7.328280	-0.004367	-0.001376	-0.008612	-0.072266	-0.605469	-0.914551	13.069571	40.553930	23.416524
18169		-6.382162	1.656563	7.304541	-0.003863	0.001726	-0.007272	-0.075684	-0.614258	-0.914307	13.068302	40.552150	23.417018
18170		-6.372767	1.695888	7.313954	-0.003863	0.001727	-0.007272	-0.069824	-0.614502	-0.913086	13.067241	40.550514	23.415492
18171		-6.397151	1.670538	7.316430	-0.004176	-0.000755	-0.010062	-0.071045	-0.611084	-0.905273	13.064241	40.547705	23.410926
18172		-6.416220	1.662639	7.302617	-0.002130	0.002600	-0.008230	-0.074463	-0.613281	-0.908447	13.063812	40.546680	23.408847
18173		-6.364264	1.660271	7.318283	-0.008299	0.001590	-0.010198	-0.068359	-0.613525	-0.911621	13.058666	40.545194	23.403219
18174		-6.392539	1.685035	7.300214	-0.006428	-0.000203	-0.008681	-0.067627	-0.617188	-0.928711	13.055249	40.542662	23.400330
18175		-6.392631	1.683978	7.300377	-0.008161	-0.001076	-0.007725	-0.081055	-0.613281	-0.910889	13.051005	40.539440	23.398107
18176		-6.399135	1.670705	7.358730	-0.006429	-0.000202	-0.008682	-0.069824	-0.612061	-0.910400	13.047589	40.536909	23.395219
18177		-6.383713	1.648937	7.304911	-0.005216	0.002096	-0.009214	-0.071533	-0.611328	-0.922119	13.044717	40.535544	23.392007
18178		-6.398552	1.663489	7.316811	-0.006949	0.001222	-0.008258	-0.070801	-0.611084	-0.915039	13.041363	40.533753	23.389673
18179		-6.379905	1.669651	7.330659	-0.005597	0.000854	-0.006316	-0.064697	-0.615479	-0.919434	13.039448	40.531388	23.390597
18180		-6.374628	1.686323	7.314544	-0.002306	-0.002546	-0.008547	-0.071777	-0.604248	-0.919678	13.038200	40.527531	23.387411
18181		-6.398907	1.660995	7.317067	-0.005407	0.001475	-0.007766	-0.066895	-0.615967	-0.910889	13.035750	40.525738	23.387441
18182		-6.341495	1.676179	7.316584	-0.004888	0.000051	-0.008190	-0.073975	-0.616699	-0.913818	13.033480	40.523285	23.384958
18183		-6.375204	1.683739	7.314637	-0.006447	0.004325	-0.006917	-0.071777	-0.615234	-0.911865	13.031266	40.522927	23.381484
18184		-6.380914	1.665431	7.330741	-0.003675	0.002350	-0.008723	-0.066406	-0.613037	-0.910400	13.029691	40.521825	23.379001
18185		-6.394713	1.675136	7.300588	-0.000781	0.002234	-0.006289	-0.069092	-0.614990	-0.914307	13.030775	40.520235	23.375963
18186		-6.410721	1.695111	7.354322	-0.007990	0.004072	-0.007410	-0.071533	-0.613281	-0.924561	13.027545	40.519925	23.374738
18187		-6.381847	1.663094	7.330459	-0.005598	0.000854	-0.006317	-0.073730	-0.616699	-0.914307	13.025649	40.517562	23.374488
18188		-6.395670	1.672617	7.300327	-0.001754	0.003848	-0.011129	-0.069580	-0.614746	-0.907959	13.024193	40.517607	23.370494
18189		-6.396041	1.671857	7.300176	-0.004576	0.002531	-0.005401	-0.075439	-0.602539	-0.924316	13.023576	40.516032	23.368090
18190		-6.396338	1.671104	7.300089	-0.003676	0.002351	-0.008723	-0.075684	-0.610107	-0.927002	13.022000	40.514931	23.365608
18191		-6.392343	1.692987	7.325772	-0.004056	0.001107	-0.005825	-0.065186	-0.614014	-0.911621	13.021142	40.512592	23.372118
18192		-6.392517	1.692245	7.325791	-0.005599	0.000854	-0.006318	-0.067383	-0.618408	-0.915527	13.019447	40.510344	23.371148
18193		-6.420994	1.644337	7.302566	-0.003016	-0.001741	-0.006675	-0.077148	-0.614014	-0.919922	13.018634	40.506624	23.366033
18194		-6.392760	1.691173	7.325827	0.000881	0.004346	-0.001556	-0.073242	-0.610596	-0.911377	13.023308	40.505711	23.369153
18195		-6.363904	1.659576	7.301835	-0.007472	0.002648	-0.007836	-0.064697	-0.617676	-0.918701	13.019829	40.504480	23.368511
18196		-6.393345	1.689883	7.325614	-0.000262	0.000812	-0.006714	-0.071533	-0.616943	-0.922852	13.020999	40.502260	23.367243
18197		-6.384300	1.656413	7.329835	-0.003035	0.002785	-0.004908	-0.069580	-0.618408	-0.913574	13.021477	40.500823	23.366841
18198		-6.364566	1.657817	7.301657	-0.001994	-0.000064	-0.005758	-0.060791	-0.609863	-0.913574	13.022014	40.497991	23.366127
18199		-6.412687	1.681248	7.311698	-0.001994	-0.000064	-0.005758	-0.075439	-0.608643	-0.916992	13.022380	40.495102	23.362946
18200		-6.365898	1.661920	7.343646	-0.004768	0.001909	-0.003952	-0.068604	-0.614014	-0.918457	13.022406	40.493138	23.363892
18201		-6.394125	1.687164	7.325560	-0.005979	-0.000391	-0.003421	-0.081055	-0.608154	-0.914307	13.021522	40.489681	23.366454
18202		-6.399673	1.669032	7.341734	-0.002657	0.004030	-0.007806	-0.072998	-0.616699	-0.915771	13.021154	40.489398	23.364931
18203		-6.379979	1.670478	7.313515	-0.000642	-0.000432	-0.003816	-0.064697	-0.609375	-0.918945	13.023170	40.485903	23.366786
18204		-6.385406	1.652430	7.329771	-0.007852	0.001402	-0.004938	-0.076172	-0.614014	-0.909912	13.020902	40.483783	23.366922
18205		-6.381282	1.674316	7.355592	-0.003726	-0.000939	-0.004802	-0.074707	-0.613281	-0.920898	13.020612	40.480220	23.366570
18206		-6.393707	1.678929	7.283719	-0.003726	-0.000939	-0.004802	-0.074707	-0.613037	-0.908203	13.020515	40.476776	23.366409
18207		-6.381334	1.673043	7.355837	-0.005079	-0.000570	-0.006745	-0.077881	-0.608154	-0.918701	13.018584	40.473616	23.365062
18208		-6.394917	1.682594	7.325920	-0.005079	-0.000569	-0.006745	-0.083740	-0.613525	-0.911377	13.016828	40.470628	23.363538
18209		-6.380380	1.666281	7.314122	-0.005079	-0.000569	-0.006745	-0.076172	-0.607666	-0.917480	13.014879	40.467396	23.364549
18210		-6.361654	1.672837	7.327986	-0.001163	0.000992	-0.003391	-0.072021	-0.609375	-0.914307	13.017136	40.464848	23.365751
18211		-6.400559	1.663176	7.342291	-0.007854	0.001402	-0.004939	-0.063232	-0.613770	-0.914063	13.014639	40.462578	23.367885
18212		-6.391222	1.702548	7.351826	-0.002516	0.001362	-0.005334	-0.078613	-0.616699	-0.920898	13.015237	40.460486	23.367725
18213		-6.395654	1.679296	7.326033	-0.003869	0.001731	-0.007276	-0.077393	-0.614014	-0.915771	13.013995	40.458738	23.365378
18214		-6.367646	1.652624	7.344228	-0.006812	-0.001446	-0.005790	-0.069580	-0.609619	-0.916504	13.011606	40.455138	23.364407
18215		-6.362373	1.669330	7.328162	-0.003538	-0.000315	-0.006252	-0.072510	-0.608154	-0.921631	13.010796	40.452083	23.363876
18216		-6.414714	1.669953	7.312508	-0.003538	-0.000315	-0.006252	-0.069092	-0.613037	-0.925049	13.010187	40.449174	23.362758
18217		-6.382599	1.665955	7.356348	-0.006644	0.003703	-0.005470	-0.069092	-0.607910	-0.914551	13.008349	40.448306	23.365701
18218		-6.415015	1.668725	7.312525	-0.000499	-0.003101	-0.001344	-0.072510	-0.607422	-0.910400	13.011510	40.443209	23.367711
18219		-6.372060	1.700096	7.324058	-0.002517	0.001363	-0.005334	-0.077148	-0.606934	-0.914551	13.011893	40.441007	23.367083
18220		-6.362759	1.666547	7.328461	-0.004937	-0.003239	-0.004273	-0.071289	-0.607422	-0.917480	13.011102	40.436211	23.366921
18221		-6.420288	1.649660	7.329118	-0.005791	0.000232	-0.004871	-0.076660	-0.612549	-0.909180	13.009682	40.433278	23.368962
18222		-6.357429	1.682688	7.312585	-0.003206	-0.002362	-0.005229	-0.071777	-0.611572	-0.912109	13.009525	40.429095	23.368248
18223		-6.381465	1.657532	7.315163	-0.003206	-0.002362	-0.005229	-0.075195	-0.611816	-0.919434	13.009215	40.424752	23.365699
18224		-6.376032	1.674446	7.299206	-0.002684	-0.003785	-0.005655	-0.075928	-0.618164	-0.921631	13.008999	40.419829	23.364431
18225		-6.377039	1.678933	7.341391	-0.005270	-0.001192	-0.005297	-0.070313	-0.617676	-0.917236	13.007560	40.416143	23.365159
18226		-6.395845	1.671239	7.327708	-0.004627	-0.000761	-0.001480	-0.068604	-0.614990	-0.924805	13.008547	40.412369	23.367465
18227		-6.381302	1.655271	7.315817	-0.002518	0.001363	-0.005334	-0.078369	-0.608643	-0.922607	13.008948	40.410196	23.366521
18228		-6.371928	1.694908	7.325376	-0.002896	0.000116	-0.002436	-0.075439	-0.607910	-0.919922	13.010569	40.407035	23.368275
18229		-6.344036	1.668448	7.343391	-0.007168	0.005127	-0.005044	-0.071289	-0.605713	-0.913330	13.008790	40.406836	23.373224
18230		-6.382060	1.653561	7.315543	-0.003751	0.003587	-0.003033	-0.072998	-0.615234	-0.918213	13.010018	40.405690	23.375128
18231		-6.377187	1.670531	7.299094	-0.001641	0.005712	-0.006887	-0.074463	-0.608887	-0.921143	13.010648	40.406110	23.374216
18232		-6.359964	1.682097	7.354615	-0.004916	0.004581	-0.006425	-0.074707	-0.618408	-0.914063	13.009705	40.405956	23.373801
18233		-6.397931	1.667323	7.326779	-0.001687	0.002417	-0.002966	-0.078125	-0.616699	-0.911133	13.011833	40.403996	23.375731
18234		-6.364821	1.658417	7.328514	-0.004916	0.004581	-0.006425	-0.075684	-0.612305	-0.923096	13.010890	40.403843	23.375316
18235		-6.378841	1.668156	7.298191	-0.002353	0.006512	-0.005012	-0.076416	-0.609131	-0.916504	13.012127	40.404401	23.376664
18236		-6.380497	1.672668	7.339817	-0.003185	0.005459	-0.007381	-0.073730	-0.605957	-0.921387	13.011819	40.404861	23.375697
18237		-6.375652	1.689458	7.323394	-0.005105	0.003957	-0.004977	-0.073730	-0.613770	-0.910400	13.011128	40.404025	23.379194
18238		-6.366654	1.655913	7.327488	-0.003752	0.003587	-0.003034	-0.072266	-0.604004	-0.922119	13.012354	40.402879	23.381097
18239		-6.362845	1.677854	7.353092	-0.004205	0.003782	-0.008301	-0.076904	-0.613281	-0.915771	13.010612	40.402399	23.379614
18240		-6.382138	1.669997	7.338998	-0.003897	0.006259	-0.005507	-0.086670	-0.606689	-0.918213	13.010874	40.403063	23.380157
18241		-6.386872	1.646622	7.312908	-0.004539	0.005830	-0.009324	-0.070801	-0.618652	-0.920654	13.008701	40.403733	23.381377
18242		-6.349753	1.659911	7.340384	-0.005748	0.003528	-0.008796	-0.073730	-0.610596	-0.920654	13.006040	40.403298	23.379046
18243		-6.383665	1.667414	7.338258	-0.003186	0.005460	-0.007382	-0.073242	-0.614746	-0.922607	13.005524	40.403646	23.378244
18244		-6.397876	1.676953	7.307806	-0.006108	0.010101	-0.008048	-0.071777	-0.616211	-0.913086	13.003733	40.406783	23.377574
18245		-6.346162	1.675066	7.323258	-0.000976	0.001619	-0.004841	-0.066650	-0.623047	-0.915283	13.005302	40.404650	23.376477
18246		-6.379919	1.682797	7.321211	-0.004206	0.003783	-0.008302	-0.077393	-0.618164	-0.921631	13.003786	40.404293	23.374551
18247		-6.365698	1.666532	7.309090	-0.004918	0.004582	-0.006427	-0.070801	-0.614258	-0.927979	13.002715	40.404019	23.371195
18248		-6.386009	1.663550	7.337095	-0.006768	0.001851	-0.009717	-0.074951	-0.612061	-0.925049	12.998847	40.402765	23.367906
18249		-6.405163	1.655445	7.323153	-0.004207	0.003784	-0.008303	-0.084961	-0.620117	-0.917480	12.997061	40.402294	23.369362
18250		-6.353343	1.653440	7.338737	-0.004919	0.004582	-0.006428	-0.083252	-0.611328	-0.912598	12.996116	40.402142	23.368946
18251		-6.381922	1.678611	7.320427	-0.003565	0.004212	-0.004484	-0.082764	-0.609863	-0.919678	12.996699	40.401239	23.371312
18252		-6.387651	1.660336	7.336393	-0.006273	0.004953	-0.008372	-0.072998	-0.609375	-0.923584	12.994095	40.401544	23.369534
18253		-6.382760	1.677076	7.320048	-0.003042	0.002789	-0.004910	-0.080322	-0.615234	-0.914795	12.994487	40.400017	23.373919
18254		-6.369569	1.666052	7.349953	-0.004396	0.003159	-0.006854	-0.076416	-0.605957	-0.920654	12.993483	40.399124	23.372950
18255		-6.379294	1.698249	7.345584	-0.004396	0.003159	-0.006854	-0.073242	-0.613037	-0.911133	12.992263	40.398045	23.373844
18256		-6.369158	1.659529	7.307670	-0.003377	0.004837	-0.005934	-0.076904	-0.604004	-0.913086	12.992464	40.397971	23.373834
18257		-6.404304	1.672169	7.347412	-0.005255	0.006631	-0.007452	-0.076660	-0.612305	-0.911621	12.990867	40.398952	23.371363
18258		-6.390164	1.655907	7.335206	-0.004920	0.004583	-0.006429	-0.074951	-0.616455	-0.914063	12.989921	40.398800	23.370947
18259		-6.361223	1.697404	7.316520	-0.003566	0.004212	-0.004485	-0.074219	-0.607422	-0.917725	12.990487	40.398032	23.369464
18260		-6.377341	1.644225	7.364942	-0.003349	0.000314	-0.007707	-0.071533	-0.610840	-0.914063	12.989366	40.395661	23.367388
18261		-6.381648	1.693949	7.344532	-0.003873	0.001737	-0.007281	-0.080078	-0.615723	-0.913818	12.988072	40.393920	23.365557
18262		-6.391207	1.653155	7.334918	-0.003538	-0.000311	-0.006258	-0.075684	-0.614014	-0.919922	12.987463	40.391013	23.364438
18263		-6.396562	1.634907	7.351184	-0.005080	-0.000566	-0.006753	-0.064453	-0.608643	-0.920410	12.985535	40.387846	23.362767
18264		-6.367344	1.676340	7.332776	-0.004062	0.001112	-0.005832	-0.069336	-0.618164	-0.917236	12.984983	40.385679	23.362201
18265		-6.372885	1.658108	7.348876	-0.004398	0.003160	-0.006855	-0.075195	-0.612549	-0.918213	12.983754	40.384758	23.358898
18266		-6.367905	1.674872	7.332624	-0.003874	0.001738	-0.007282	-0.071045	-0.613281	-0.919434	12.982691	40.383126	23.357375
18267		-6.368036	1.674209	7.332662	-0.003726	-0.000936	-0.004810	-0.076172	-0.613037	-0.911865	12.982377	40.379566	23.357063
18268		-6.368137	1.673657	7.332700	-0.002520	0.001367	-0.005337	-0.080322	-0.614746	-0.916748	12.982972	40.377478	23.356903
18269		-6.382864	1.688467	7.344738	-0.004745	-0.002614	-0.005731	-0.067627	-0.611084	-0.917969	12.981504	40.373025	23.354974
18270		-6.392235	1.647762	7.335236	-0.001996	-0.000056	-0.005764	-0.071533	-0.606445	-0.924072	12.982042	40.370197	23.354261
18271		-6.349453	1.679019	7.346890	-0.003727	-0.000936	-0.004810	-0.074219	-0.614014	-0.922607	12.981661	40.366695	23.355390
18272		-6.387056	1.664045	7.319274	-0.005081	-0.000565	-0.006754	-0.075439	-0.606689	-0.915283	12.979905	40.363710	23.353866
18273		-6.364215	1.692990	7.359094	-0.005269	-0.001191	-0.005306	-0.073730	-0.614746	-0.910645	12.978420	40.360052	23.354512
18274		-6.368348	1.669660	7.333428	-0.005081	-0.000565	-0.006755	-0.072998	-0.610352	-0.921387	12.976664	40.357067	23.352988
18275		-6.368479	1.668996	7.333466	-0.002521	0.001368	-0.005338	-0.075928	-0.609131	-0.922119	12.977063	40.354856	23.351574
18276		-6.368687	1.668577	7.333380	-0.001691	0.002419	-0.002967	-0.075439	-0.619873	-0.918213	12.979373	40.353050	23.353329
18277		-6.388923	1.666043	7.361329	-0.000602	0.002875	-0.007740	-0.073975	-0.609863	-0.916260	12.979887	40.351962	23.351951
18278		-6.364066	1.685139	7.316883	-0.003570	0.004213	-0.004485	-0.072998	-0.616211	-0.914551	12.980596	40.351353	23.352896
18279		-6.364392	1.684454	7.316758	-0.006131	0.002280	-0.005902	-0.075439	-0.617676	-0.918457	12.978766	40.349723	23.350880
18280		-6.368699	1.661146	7.290921	-0.004064	0.001113	-0.005833	-0.082764	-0.612793	-0.921143	12.978214	40.347556	23.350314
18281		-6.370133	1.665500	7.332824	-0.002145	0.002620	-0.008236	-0.077881	-0.608398	-0.923828	12.977599	40.346342	23.348938
18282		-6.386216	1.685158	7.386732	-0.007337	-0.000024	-0.005376	-0.072021	-0.612061	-0.922363	12.975264	40.343482	23.348516
18283		-6.351698	1.671203	7.346732	-0.000266	0.000827	-0.006718	-0.081543	-0.617920	-0.914063	12.976162	40.341141	23.350168
18284		-6.365381	1.680959	7.316701	-0.005607	0.000858	-0.006329	-0.072998	-0.611572	-0.914551	12.974463	40.338896	23.349196
18285		-6.385547	1.678051	7.344793	-0.003876	0.001739	-0.007283	-0.070557	-0.612549	-0.920898	12.973249	40.337087	23.345856
18286		-6.352376	1.669039	7.346638	-0.004401	0.003162	-0.006856	-0.070801	-0.611816	-0.909668	12.972242	40.336196	23.344887
18287		-6.347427	1.685969	7.330360	-0.000791	0.002250	-0.006292	-0.073242	-0.609375	-0.916016	12.973269	40.334648	23.341907
18288		-6.366492	1.678176	7.316373	-0.003689	0.002366	-0.008732	-0.080811	-0.611816	-0.918701	12.971695	40.333554	23.339429
18289		-6.362713	1.699833	7.342152	-0.007675	0.002024	-0.006399	-0.074951	-0.610596	-0.913574	12.968683	40.331800	23.339769
18290		-6.372368	1.658945	7.332368	-0.000416	0.003504	-0.009190	-0.070557	-0.616699	-0.914551	12.968891	40.331401	23.337149
18291		-6.382186	1.691053	7.328036	-0.007488	0.002651	-0.007849	-0.073486	-0.616699	-0.918701	12.965421	40.330242	23.332596
18292		-6.367827	1.674896	7.315963	-0.001317	0.003674	-0.005865	-0.078125	-0.613281	-0.916016	12.966707	40.329509	23.332439
18293		-6.369493	1.679133	7.357702	-0.006095	0.005583	-0.009824	-0.072510	-0.613770	-0.918457	12.963414	40.330198	23.328507
18294		-6.373989	1.655558	7.331724	-0.005232	0.002111	-0.009229	-0.078613	-0.619385	-0.919189	12.960692	40.329025	23.325623
18295		-6.360769	1.644343	7.361684	-0.004591	0.002536	-0.005408	-0.072510	-0.613037	-0.926270	12.960027	40.327450	23.324100
18296		-6.355789	1.661136	7.345477	-0.006133	0.002280	-0.005905	-0.072754	-0.616455	-0.908691	12.958384	40.325944	23.323680
18297		-6.369588	1.670628	7.315406	-0.005233	0.002112	-0.009229	-0.073486	-0.614258	-0.915039	12.955474	40.324669	23.318984
18298		-6.371011	1.674989	7.357333	-0.001168	0.000998	-0.003394	-0.081299	-0.611084	-0.911621	12.957725	40.322125	23.320186
18299		-6.356690	1.658837	7.345217	-0.008166	0.006750	-0.009894	-0.077148	-0.615479	-0.913574	12.953347	40.323442	23.316412
18300		-6.346515	1.693115	7.312852	0.000785	-0.002013	-0.007573	-0.072021	-0.616211	-0.917725	12.954409	40.319753	23.314047
18301		-6.357263	1.657335	7.345061	-0.006999	0.005751	-0.006500	-0.075928	-0.612305	-0.912354	12.952211	40.320126	23.311092
18302		-6.389963	1.659648	7.300977	-0.005947	0.002907	-0.007354	-0.079346	-0.615723	-0.916748	12.950056	40.319156	23.309716
18303		-6.358120	1.655542	7.344723	-0.004743	0.005213	-0.007880	-0.086182	-0.608887	-0.912842	12.948430	40.319354	23.306915
18304		-6.353329	1.672473	7.328338	-0.002033	0.004470	-0.003989	-0.079102	-0.613281	-0.917725	12.950283	40.318825	23.308266
18305		-6.388434	1.684937	7.368179	-0.008016	0.004074	-0.007424	-0.076904	-0.607666	-0.918457	12.946842	40.318246	23.308542
18306		-6.367593	1.681377	7.297997	-0.000793	0.002254	-0.006292	-0.076172	-0.614014	-0.908691	12.948072	40.316775	23.307834
18307		-6.341041	1.659747	7.357838	-0.008168	0.006751	-0.009896	-0.073242	-0.618896	-0.916260	12.943662	40.318114	23.305113
18308		-6.355309	1.669085	7.327394	-0.003880	0.009569	-0.009428	-0.078369	-0.610107	-0.917480	12.942435	40.321130	23.303339
18309		-6.413304	1.651852	7.327378	-0.002523	0.001371	-0.005340	-0.073730	-0.606934	-0.917480	12.942849	40.318895	23.301884
18310		-6.370968	1.683057	7.338858	-0.005271	0.006636	-0.007454	-0.075684	-0.612061	-0.922119	12.941440	40.320020	23.301062
18311		-6.347304	1.633976	7.330775	-0.003202	0.005470	-0.007385	-0.082275	-0.619629	-0.914795	12.940845	40.320366	23.302919
18312		-6.353318	1.688739	7.352151	-0.003202	0.005470	-0.007385	-0.076660	-0.617676	-0.920898	12.940528	40.320831	23.301952
18313		-6.357931	1.665454	7.325945	-0.003542	0.007520	-0.008407	-0.076904	-0.604492	-0.919678	12.939635	40.322354	23.297968
18314		-6.373408	1.679944	7.337452	-0.005612	0.008686	-0.008477	-0.076172	-0.606934	-0.912109	12.937769	40.324755	23.296742
18315		-6.373982	1.679232	7.337116	-0.001320	0.003677	-0.005866	-0.071045	-0.612793	-0.913818	12.938763	40.323866	23.300751
18316		-6.355787	1.685807	7.350689	-0.004257	0.008314	-0.006531	-0.072021	-0.611816	-0.918457	12.938555	40.325809	23.300887
18317		-6.365718	1.644870	7.340538	-0.005086	0.007264	-0.008905	-0.080811	-0.614258	-0.911133	12.936421	40.327403	23.297667
18318		-6.375879	1.676969	7.335985	-0.003731	0.006893	-0.006959	-0.077393	-0.610840	-0.919434	12.936158	40.328608	23.297251
18319		-6.343007	1.668113	7.337576	-0.001474	0.006356	-0.008338	-0.078857	-0.613770	-0.926270	12.936298	40.329472	23.295780
18320		-6.357246	1.677782	7.307063	-0.004599	0.010365	-0.007554	-0.078613	-0.608887	-0.913330	12.935633	40.332692	23.295513
18321		-6.348486	1.644163	7.310738	-0.002189	0.007150	-0.006462	-0.079102	-0.606689	-0.915039	12.936275	40.333775	23.298298
18322		-6.369196	1.641322	7.338315	-0.002529	0.009200	-0.007484	-0.074707	-0.609375	-0.918457	12.936702	40.336336	23.297886
18323		-6.369954	1.640627	7.337813	-0.004259	0.008315	-0.006533	-0.075195	-0.610840	-0.913086	12.936226	40.338112	23.300970
18324		-6.380106	1.672795	7.333263	-0.005461	0.006008	-0.006009	-0.072266	-0.607178	-0.907227	12.935325	40.338701	23.301102
18325		-6.367110	1.661732	7.363025	-0.001134	0.004307	-0.007316	-0.078613	-0.612549	-0.911865	12.935906	40.338389	23.297799
18326		-6.381120	1.671422	7.332694	-0.005275	0.006637	-0.007458	-0.078613	-0.605469	-0.913086	12.934493	40.339515	23.296975
18327		-6.349442	1.667391	7.376383	-0.004934	0.004587	-0.006436	-0.071533	-0.605713	-0.921631	12.933335	40.339151	23.297352
18328		-6.368712	1.659495	7.362144	-0.004448	0.007687	-0.005084	-0.074219	-0.610840	-0.920654	12.933636	40.340558	23.298443
18329		-6.377515	1.686797	7.315667	-0.005650	0.005380	-0.004561	-0.076416	-0.613525	-0.914551	12.932919	40.340531	23.303261
18330		-6.344562	1.677971	7.317344	-0.001475	0.006359	-0.008338	-0.081299	-0.608154	-0.919434	12.933234	40.341614	23.301745
18331		-6.389192	1.650273	7.347145	-0.004262	0.008316	-0.006534	-0.074707	-0.611572	-0.917480	12.932807	40.343343	23.303897
18332		-6.360797	1.691781	7.328367	-0.006145	0.010110	-0.008055	-0.080078	-0.601563	-0.913086	12.930990	40.346484	23.303220
18333		-6.332077	1.660302	7.303951	-0.002532	0.009203	-0.007485	-0.070557	-0.613281	-0.919189	12.931146	40.348862	23.305775
18334		-6.391542	1.647990	7.345613	-0.002191	0.007152	-0.006463	-0.076904	-0.613037	-0.924072	12.932027	40.350148	23.305767
18335		-6.368250	1.672008	7.343050	-0.005089	0.007267	-0.008909	-0.075684	-0.614014	-0.912842	12.929850	40.351709	23.305322
18336		-6.368895	1.671218	7.342671	-0.001476	0.006360	-0.008339	-0.082520	-0.612793	-0.912842	12.930165	40.352793	23.303806
18337		-6.349448	1.672841	7.314279	-0.003922	0.006266	-0.005513	-0.082520	-0.606201	-0.915771	12.930288	40.353223	23.302676
18338		-6.366235	1.692446	7.367754	-0.002534	0.009204	-0.007486	-0.076416	-0.618408	-0.917969	12.930711	40.355786	23.302264
18339		-6.376149	1.651640	7.357472	-0.004264	0.008317	-0.006536	-0.068848	-0.616699	-0.919189	12.930312	40.357493	23.303962
18340		-6.376779	1.650882	7.357096	-0.005465	0.006009	-0.006012	-0.072510	-0.608398	-0.916748	12.929407	40.358083	23.304091
18341		-6.385556	1.678235	7.310620	-0.002380	0.006524	-0.005015	-0.071289	-0.612061	-0.921387	12.930569	40.358790	23.303155
18342		-6.377973	1.649629	7.356342	-0.004265	0.008318	-0.006536	-0.072754	-0.611328	-0.914551	12.930354	40.360735	23.303289
18343		-6.388120	1.681864	7.351824	-0.003394	0.004846	-0.005941	-0.073975	-0.608887	-0.912598	12.930304	40.360593	23.302621
18344		-6.379068	1.648388	7.355671	-0.002381	0.006525	-0.005015	-0.075684	-0.609863	-0.917969	12.931696	40.361343	23.303568
18345		-6.387747	1.675829	7.309257	-0.002864	0.003424	-0.006368	-0.080078	-0.610107	-0.920654	12.931596	40.360394	23.303416
18346		-6.361421	1.654349	7.368996	-0.004795	0.009739	-0.006110	-0.074463	-0.605225	-0.917969	12.931435	40.363079	23.304102
18347		-6.375477	1.664104	7.338573	-0.003581	0.004216	-0.004492	-0.078125	-0.629639	-0.921143	12.931831	40.362286	23.310078
18348		-6.370683	1.680931	7.322274	-0.006291	0.004961	-0.008389	-0.083740	-0.605957	-0.912109	12.929210	40.362595	23.308290
18349		-6.376340	1.662743	7.338132	-0.000685	0.004102	-0.002044	-0.077637	-0.611572	-0.918213	12.932642	40.361321	23.310174
18350		-6.361926	1.647028	7.325951	-0.003394	0.004846	-0.005942	-0.081543	-0.611084	-0.913574	12.932830	40.361252	23.310159
18351		-6.371952	1.679313	7.321541	-0.003395	0.004846	-0.005942	-0.079590	-0.614014	-0.915527	12.932827	40.360937	23.311855
18352		-6.373719	1.683597	7.363309	-0.002865	0.003425	-0.006369	-0.076416	-0.614502	-0.915283	12.932961	40.360129	23.311289
18353		-6.391494	1.670791	7.307135	-0.005467	0.006010	-0.006015	-0.084961	-0.620361	-0.923096	12.931915	40.360507	23.310322
18354		-6.359869	1.666916	7.350858	-0.004112	0.005638	-0.004066	-0.078369	-0.619141	-0.921631	12.932668	40.360640	23.311816
18355		-6.379174	1.659175	7.336477	-0.003443	0.009368	-0.004162	-0.074951	-0.613770	-0.921143	12.934047	40.362580	23.315760
18356		-6.369190	1.693972	7.303979	-0.001698	0.002424	-0.002971	-0.081055	-0.614990	-0.915527	12.936353	40.360777	23.317515
18357		-6.365222	1.642946	7.324004	-0.003208	0.005477	-0.007391	-0.070313	-0.611328	-0.909668	12.935851	40.361048	23.317252
18358		-6.395310	1.672849	7.347628	-0.005125	0.003959	-0.004993	-0.072266	-0.612793	-0.907471	12.935402	40.360362	23.317784
18359		-6.366012	1.641665	7.323604	-0.003770	0.003587	-0.003044	-0.067627	-0.614746	-0.919189	12.936489	40.359161	23.311925
18360		-6.357217	1.681274	7.333280	-0.003052	0.002796	-0.004920	-0.080322	-0.619873	-0.915527	12.937135	40.357816	23.312314
18361		-6.401409	1.653690	7.363307	-0.003427	0.001536	-0.002022	-0.074463	-0.617188	-0.919434	12.938667	40.355286	23.310967
18362		-6.362880	1.662785	7.349189	-0.000793	0.002263	-0.006296	-0.081543	-0.614258	-0.916504	12.939897	40.353820	23.310258
18363		-6.395397	1.665405	7.304949	-0.003209	0.005478	-0.007392	-0.075439	-0.614502	-0.915283	12.939413	40.354091	23.308525
18364		-6.358341	1.679423	7.332730	0.000187	0.000630	-0.001449	-0.074219	-0.616211	-0.919189	12.943326	40.351091	23.311093
18365		-6.368944	1.643784	7.364861	-0.006324	0.001650	-0.004472	-0.077148	-0.613525	-0.912842	12.942012	40.348926	23.309589
18366		-6.363926	1.660938	7.348701	-0.000156	0.002682	-0.002471	-0.080566	-0.611572	-0.912842	12.945467	40.347202	23.311753
18367		-6.396269	1.663826	7.304546	-0.003240	0.002166	-0.003472	-0.073242	-0.608887	-0.913818	12.946468	40.345097	23.312041
18368		-6.355260	1.700389	7.358323	-0.001886	0.001794	-0.001522	-0.078125	-0.611084	-0.922852	12.949285	40.342756	23.314750
18369		-6.373708	1.619877	7.338472	-0.002760	0.005266	-0.002118	-0.080811	-0.612305	-0.918701	12.951415	40.342302	23.320357
18370		-6.379658	1.675079	7.360108	0.000718	-0.000791	-0.001876	-0.074463	-0.610352	-0.920166	12.955273	40.338562	23.322371
18371		-6.368700	1.637179	7.322272	-0.002073	0.001163	-0.000073	-0.080566	-0.608398	-0.917969	12.958335	40.335512	23.329007
18372		-6.346352	1.666792	7.362034	0.001386	0.002940	-0.001971	-0.071045	-0.618652	-0.925293	12.962937	40.333867	23.331580
18373		-6.365233	1.659529	7.347887	-0.000343	0.002052	-0.001022	-0.075439	-0.613770	-0.922119	12.966637	40.331483	23.336754
18374		-6.375052	1.692411	7.343554	0.000668	0.003731	-0.000095	-0.076172	-0.615967	-0.914063	12.971803	40.330038	23.340833
18375		-6.379113	1.669890	7.317460	-0.000343	0.002052	-0.001022	-0.081299	-0.604980	-0.915283	12.975570	40.327645	23.343058
18376		-6.360649	1.677040	7.331273	0.001386	0.002940	-0.001971	-0.075928	-0.621094	-0.925293	12.980171	40.326001	23.345630
18377		-6.351451	1.644165	7.335067	0.001335	0.007461	-0.000190	-0.074707	-0.615723	-0.919434	12.985835	40.326464	23.353065
18378		-6.361310	1.677081	7.330690	0.000718	-0.000791	-0.001876	-0.070068	-0.615234	-0.919189	12.989690	40.322724	23.355076
18379		-6.371098	1.709823	7.326414	-0.000500	0.004734	-0.003494	-0.069824	-0.610596	-0.921631	12.992465	40.322235	23.354865
18380		-6.348481	1.666213	7.360328	-0.002760	0.005266	-0.002118	-0.079346	-0.612061	-0.919189	12.994874	40.321907	23.357721
18381		-6.347465	1.661217	7.318038	0.002397	0.004619	-0.001044	-0.078125	-0.615234	-0.917725	13.000377	40.320992	23.363699
18382		-6.382677	1.674038	7.357727	-0.003959	0.002957	-0.001597	-0.079590	-0.626953	-0.912354	13.002093	40.319308	23.366547
18383		-6.362896	1.676151	7.329526	0.000855	0.004361	-0.001544	-0.078613	-0.610352	-0.912842	13.006713	40.318186	23.364319
18384		-6.359423	1.698574	7.355145	-0.001406	0.004894	-0.000169	-0.072021	-0.607178	-0.914551	13.010780	40.317399	23.368539
18385		-6.363568	1.676041	7.328968	0.000667	0.003731	-0.000095	-0.070313	-0.620850	-0.915283	13.015680	40.315838	23.373441
18386		-6.345222	1.683215	7.342689	-0.001406	0.004894	-0.000169	-0.077881	-0.603760	-0.924316	13.019747	40.315050	23.377661
18387		-6.377526	1.686316	7.298474	0.000188	0.000631	-0.001449	-0.076904	-0.620850	-0.917725	13.023371	40.311974	23.381651
18388		-6.384303	1.673132	7.356522	-0.005605	0.000859	-0.006350	-0.066162	-0.615479	-0.922119	13.021663	40.309732	23.380662
18389		-6.364426	1.674971	7.328468	-0.000156	0.002682	-0.002471	-0.083008	-0.616699	-0.916260	13.024924	40.307989	23.379232
18390		-6.368438	1.652200	7.302452	-0.003428	0.001535	-0.002024	-0.074951	-0.614502	-0.919922	13.026586	40.305566	23.381524
18391		-6.379656	1.689595	7.340203	-0.003959	0.002957	-0.001597	-0.073486	-0.613525	-0.911377	13.028121	40.303681	23.384348
18392		-6.361261	1.696341	7.354072	-0.003053	0.002797	-0.004922	-0.074463	-0.609863	-0.910889	13.028763	40.302337	23.384732
18393		-6.333307	1.670289	7.372023	-0.000688	0.004104	-0.002045	-0.075439	-0.612549	-0.913330	13.032081	40.301263	23.384387
18394		-6.360480	1.690855	7.311675	-0.002230	0.003845	-0.002546	-0.075195	-0.611572	-0.913086	13.034434	40.300196	23.386688
18395		-6.357137	1.713006	7.337262	-0.003824	0.008109	-0.001266	-0.080566	-0.614258	-0.917236	13.036746	40.301227	23.389306
18396		-6.381547	1.687863	7.338958	-0.000500	0.004735	-0.003494	-0.081055	-0.614014	-0.919922	13.039739	40.300779	23.391064
18397		-6.363310	1.694848	7.352643	-0.001219	0.005525	-0.001618	-0.078369	-0.609375	-0.910889	13.043089	40.300291	23.396159
18398		-6.349067	1.679357	7.340248	-0.000366	0.009887	-0.003162	-0.078857	-0.604248	-0.916016	13.046881	40.302676	23.399033
18399		-6.363262	1.689612	7.309541	0.001176	0.010145	-0.002661	-0.072266	-0.617920	-0.917480	13.051537	40.304952	23.406064
18400		-6.360323	1.711831	7.334774	-0.002252	0.011681	-0.004686	-0.076660	-0.612061	-0.909180	13.053724	40.308535	23.408128
18401		-6.361212	1.711374	7.334110	-0.001720	0.010260	-0.005113	-0.075684	-0.615479	-0.921143	13.055709	40.311285	23.405715
18402		-6.347343	1.695450	7.321491	-0.003231	0.013316	-0.009535	-0.079346	-0.614258	-0.916260	13.055219	40.316408	23.404507
18403		-6.357950	1.727526	7.316674	-0.001636	0.009053	-0.010815	-0.075928	-0.606934	-0.915283	13.054361	40.319156	23.402149
18404		-6.369394	1.691416	7.348164	-0.004962	0.012427	-0.008589	-0.078857	-0.608154	-0.916016	13.053230	40.323661	23.401483
18405		-6.389165	1.683206	7.333397	-0.004587	0.013690	-0.011487	-0.072021	-0.614014	-0.924561	13.050777	40.329083	23.403119
18406		-6.347989	1.714010	7.344497	-0.006098	0.016746	-0.015911	-0.072754	-0.615967	-0.918945	13.045999	40.336945	23.397824
18407		-6.310784	1.722133	7.329562	-0.006632	0.018168	-0.015485	-0.070801	-0.613037	-0.914307	13.041009	40.345507	23.393495
18408		-6.336549	1.695527	7.330370	-0.011285	0.025230	-0.019133	-0.080078	-0.614014	-0.917480	13.032659	40.358521	23.387275
18409		-6.329722	1.733686	7.338844	-0.006762	0.024170	-0.021881	-0.067383	-0.606201	-0.912598	13.025288	40.371156	23.378051
18410		-6.320778	1.694054	7.299540	-0.010281	0.026912	-0.018208	-0.074951	-0.613037	-0.911621	13.018129	40.384988	23.372787
18411		-6.319593	1.714211	7.323827	-0.015036	0.032138	-0.026113	-0.082764	-0.613770	-0.918213	13.004838	40.402700	23.360727
18412		-6.332073	1.744636	7.317824	-0.008874	0.033177	-0.024103	-0.077881	-0.617676	-0.917969	12.996363	40.420788	23.352192
18413		-6.357407	1.712293	7.275807	-0.012374	0.036195	-0.034312	-0.075684	-0.613525	-0.926270	12.981220	40.441575	23.337672
18414		-6.347552	1.698773	7.303585	-0.012601	0.043406	-0.035007	-0.085205	-0.611816	-0.917480	12.966525	40.466773	23.322849
18415		-6.384869	1.703383	7.298871	-0.017766	0.044052	-0.036099	-0.072510	-0.620117	-0.917236	12.948177	40.492159	23.313085
18416		-6.378066	1.734902	7.264486	-0.018337	0.039120	-0.041715	-0.079834	-0.609863	-0.910400	12.926496	40.515817	23.292580
18417		-6.269766	1.701585	7.340686	-0.017286	0.050482	-0.038675	-0.073730	-0.604736	-0.916992	12.908016	40.545179	23.273998
18418		-6.311572	1.683113	7.309377	-0.020230	0.058444	-0.043283	-0.066650	-0.613525	-0.914795	12.886574	40.579819	23.255554
18419		-6.383916	1.694571	7.301307	-0.021100	0.065249	-0.047814	-0.076660	-0.612061	-0.919189	12.862946	40.618713	23.235671
18420		-6.295054	1.721757	7.326181	-0.020676	0.065036	-0.042543	-0.070801	-0.612793	-0.917480	12.842268	40.656931	23.218823
18421		-6.410978	1.632978	7.341359	-0.020840	0.074089	-0.038988	-0.072998	-0.616943	-0.917969	12.824003	40.699495	23.207963
18422		-6.487269	1.449497	7.226427	-0.017066	0.076865	-0.029895	-0.062012	-0.609131	-0.922119	12.812720	40.742706	23.202371
18423		-6.429977	1.614139	7.390208	-0.002005	0.070370	-0.019780	-0.063477	-0.612305	-0.916748	12.814017	40.780873	23.203279
18424		-6.486419	1.508509	7.253045	0.000632	0.077479	-0.018013	-0.060547	-0.607178	-0.914063	12.818659	40.822916	23.206551
18425		-6.424716	1.592555	7.326604	0.009907	0.077563	-0.006784	-0.070313	-0.613525	-0.913086	12.833831	40.863547	23.215528
18426		-6.443835	1.603114	7.291155	0.006922	0.082207	-0.007482	-0.062744	-0.611572	-0.908447	12.847713	40.906890	23.227405
18427		-6.441478	1.643359	7.295598	0.000084	0.090144	0.002629	-0.061523	-0.607666	-0.906738	12.863394	40.953173	23.243626
18428		-6.398019	1.647844	7.348487	0.006883	0.088584	-0.001466	-0.061035	-0.607422	-0.913818	12.880925	40.999305	23.261080
18429		-6.416239	1.653302	7.270083	-0.006027	0.105460	-0.005194	-0.060059	-0.606445	-0.919434	12.890952	41.055235	23.276594
18430		-6.465822	1.579404	7.354902	0.000387	0.102632	-0.006387	-0.054199	-0.611084	-0.917969	12.903992	41.109836	23.292840
18431		-6.445161	1.553932	7.366823	0.011767	0.098533	-0.005006	-0.049316	-0.613037	-0.910889	12.923486	41.161945	23.310827
18432		-6.504650	1.555034	7.343110	0.013769	0.105243	-0.007081	-0.051025	-0.609131	-0.916504	12.944219	41.218085	23.327076
18433		-6.518030	1.579082	7.247651	0.016179	0.111734	-0.003873	-0.056396	-0.609375	-0.915527	12.968437	41.277528	23.341589
18434		-6.516444	1.688130	7.214182	0.015300	0.108867	-0.010532	-0.059326	-0.607910	-0.907471	12.988846	41.336126	23.355981
18435		-6.553146	1.672715	7.292092	0.017772	0.113819	-0.025469	-0.058105	-0.614746	-0.911133	13.003712	41.399242	23.359926
18436		-6.495995	1.588512	7.326013	0.031008	0.110918	-0.038883	-0.055664	-0.609375	-0.908447	13.019458	41.462636	23.353634
18437		-6.554404	1.583899	7.258896	0.036213	0.116967	-0.045637	-0.048340	-0.614014	-0.914307	13.035421	41.530071	23.340268
18438		-6.590829	1.509098	7.158177	0.039254	0.116026	-0.036437	-0.049805	-0.609863	-0.913818	13.057702	41.596003	23.336722
18439		-6.601868	1.515327	7.191949	0.052554	0.110497	-0.021013	-0.046143	-0.614014	-0.904297	13.094387	41.656801	23.342666
18440		-6.562466	1.709714	7.150451	0.063724	0.104291	-0.009936	-0.047363	-0.608643	-0.914307	13.142562	41.712742	23.356982
18441		-6.594928	1.761257	7.149879	0.061257	0.095980	-0.017427	-0.041016	-0.617920	-0.910156	13.184450	41.764963	23.362403
18442		-6.587950	1.681557	7.167350	0.068264	0.093579	-0.014739	-0.051270	-0.609375	-0.913086	13.231691	41.815541	23.371386
18443		-6.597342	1.521514	7.165325	0.063683	0.083089	-0.018389	-0.048096	-0.614014	-0.908447	13.273054	41.860662	23.375162
18444		-6.652916	1.453172	7.136470	0.066048	0.062409	0.009207	-0.033936	-0.617188	-0.908691	13.327403	41.890693	23.396680
18445		-6.615085	1.604790	7.045827	0.065337	0.053869	0.021442	-0.043213	-0.624268	-0.909912	13.386260	41.914343	23.422578
18446		-6.622676	1.661040	7.020751	0.060529	0.052444	0.021316	-0.047363	-0.617188	-0.914551	13.442396	41.937179	23.451483
18447		-6.618137	1.639395	7.063481	0.059810	0.030870	0.035457	-0.046387	-0.618896	-0.911133	13.502460	41.945974	23.484165
18448		-6.634670	1.661310	7.072169	0.063256	0.019640	0.035490	-0.042480	-0.625488	-0.903564	13.563360	41.948591	23.517846
18449		-6.579386	1.786110	7.144608	0.059782	0.017849	0.037343	-0.040283	-0.623047	-0.915771	13.622855	41.949842	23.547386
18450		-6.603597	1.767934	7.143978	0.060471	0.013743	0.039424	-0.044678	-0.627930	-0.906494	13.683417	41.948592	23.582947
18451		-6.579046	1.726443	7.135263	0.055375	0.017691	0.034307	-0.041748	-0.617188	-0.905762	13.738819	41.950181	23.610261
18452		-6.565957	1.649907	7.158499	0.057292	0.019626	0.044351	-0.042725	-0.625732	-0.910156	13.800744	41.951479	23.650586
18453		-6.569195	1.802899	7.166255	0.056788	0.024375	0.040796	-0.045166	-0.627441	-0.910400	13.860946	41.955857	23.688131
18454		-6.535013	1.869415	7.130136	0.047220	0.023380	0.044805	-0.043701	-0.631348	-0.900146	13.917801	41.959118	23.729497
18455		-6.536152	1.875056	7.127610	0.034369	0.030534	0.038815	-0.048340	-0.630371	-0.910645	13.965142	41.967071	23.759557
18456		-6.522740	1.864091	7.113448	0.022156	0.041436	0.032703	-0.038818	-0.629883	-0.912109	14.003854	41.981996	23.795253
18457		-6.588182	1.832747	7.124663	0.015323	0.042617	0.024276	-0.037354	-0.622559	-0.910156	14.034458	41.998680	23.819211
18458		-6.565910	1.787179	7.115089	0.010957	0.044313	0.025490	-0.041504	-0.625732	-0.908691	14.063546	42.016177	23.850091
18459		-6.556103	1.779337	7.142714	0.007672	0.041289	0.021657	-0.038574	-0.625732	-0.903320	14.088195	42.032562	23.878309
18460		-6.597155	1.912238	7.120607	0.003149	0.043802	0.016130	-0.040771	-0.631348	-0.907715	14.108092	42.051062	23.902126
18461		-6.566620	1.904847	7.121097	-0.007502	0.043383	0.004273	-0.043213	-0.626221	-0.904297	14.115780	42.070992	23.912058
18462		-6.621124	1.904511	7.100696	-0.013649	0.038585	-0.006297	-0.045410	-0.628418	-0.895996	14.114169	42.089722	23.918124
18463		-6.573283	1.761639	7.148291	-0.011177	0.036817	-0.013323	-0.043213	-0.625244	-0.907959	14.110185	42.108304	23.913506
18464		-6.539247	1.702102	7.169844	-0.002620	0.047711	-0.012001	-0.048096	-0.630615	-0.901123	14.113185	42.132902	23.917020
18465		-6.603487	1.689988	7.206225	0.007818	0.058684	-0.004868	-0.041260	-0.624512	-0.903320	14.127063	42.162404	23.923373
18466		-6.578578	1.733094	7.184287	0.017136	0.070650	-0.001166	-0.043701	-0.626465	-0.904053	14.149762	42.198229	23.939362
18467		-6.609347	1.827851	7.122883	0.026840	0.070832	0.001574	-0.041016	-0.623047	-0.907227	14.179298	42.233624	23.956137
18468		-6.598994	1.814567	7.106529	0.029115	0.070307	0.000235	-0.038574	-0.628906	-0.905762	14.209582	42.269050	23.973177
18469		-6.610650	1.843950	7.054520	0.027097	0.074789	-0.003858	-0.038818	-0.621826	-0.902832	14.237043	42.307439	23.987658
18470		-6.627468	1.810503	7.081317	0.023403	0.070509	-0.004794	-0.032959	-0.632813	-0.910645	14.261597	42.343675	24.001025
18471		-6.609600	1.696276	7.106938	0.029840	0.069532	-0.001643	-0.038330	-0.629150	-0.903809	14.291129	42.378891	24.015815
18472		-6.621547	1.754217	7.122578	0.032118	0.072748	0.005490	-0.038086	-0.632568	-0.903564	14.326236	42.414902	24.037409
18473		-6.640098	1.840165	7.091040	0.036755	0.078745	0.007334	-0.027832	-0.632324	-0.903809	14.365658	42.453841	24.056702
18474		-6.621813	1.868188	7.083660	0.037368	0.082510	0.007193	-0.029785	-0.626221	-0.900635	14.405994	42.495007	24.081554
18475		-6.607556	1.946225	7.054995	0.044170	0.085041	-0.007498	-0.030518	-0.629150	-0.912109	14.442956	42.539742	24.094716
18476		-6.616479	1.925933	7.022557	0.033533	0.093982	0.001746	-0.025391	-0.627197	-0.900879	14.479930	42.588028	24.117803
18477		-6.625526	1.860491	7.052655	0.026168	0.100340	0.002125	-0.027832	-0.631592	-0.901855	14.513503	42.639835	24.144150
18478		-6.609899	1.702615	7.139164	0.038177	0.108946	0.012295	-0.028809	-0.629883	-0.899170	14.560630	42.694881	24.178245
18479		-6.564337	1.730004	7.174655	0.061167	0.132325	0.029474	-0.027832	-0.641357	-0.898193	14.632803	42.760364	24.227898
18480		-6.685030	1.653457	7.179916	0.082597	0.155457	0.046106	-0.030518	-0.630615	-0.899658	14.729220	42.836217	24.296997
18481		-6.678401	1.508550	7.302618	0.098660	0.204745	0.058949	-0.025391	-0.631592	-0.896729	14.848372	42.937293	24.379549
18482		-6.744192	1.823242	7.112429	0.110485	0.251553	0.052025	-0.021484	-0.642090	-0.898682	14.977659	43.065271	24.473151
18483		-6.734210	1.971232	6.991547	0.118412	0.256473	0.036719	-0.023438	-0.647461	-0.896973	15.104682	43.198050	24.552425
18484		-6.837660	1.849305	6.982076	0.111825	0.250475	0.028921	-0.018555	-0.634521	-0.890137	15.223675	43.328593	24.629431
18485		-6.816891	1.845566	6.925761	0.114374	0.240105	0.030863	-0.008057	-0.644287	-0.902832	15.344112	43.452896	24.700147
18486		-6.843941	1.865067	6.876731	0.105874	0.226582	0.031969	-0.014893	-0.645752	-0.897705	15.458815	43.569544	24.775521
18487		-6.876556	2.004919	6.697096	0.094534	0.200815	0.025890	-0.007568	-0.648438	-0.897461	15.560300	43.672821	24.836676
18488		-6.822449	2.016553	6.603302	0.060974	0.159092	0.010910	-0.011230	-0.645020	-0.888184	15.628972	43.755282	24.882388
18489		-6.856643	2.068364	6.597575	0.037626	0.123971	-0.003864	-0.001953	-0.641602	-0.898926	15.671293	43.820567	24.905841
18490		-6.836554	2.023214	6.699083	0.017396	0.094574	-0.017320	-0.011475	-0.647705	-0.897705	15.690707	43.871760	24.916380
18491		-6.820420	2.003068	6.755158	0.008235	0.081403	-0.031986	-0.004639	-0.636963	-0.895996	15.694927	43.917880	24.912602
18492		-6.883396	1.983799	6.746372	-0.003114	0.066092	-0.042823	-0.002197	-0.645020	-0.890625	15.684813	43.957313	24.897504
18493		-6.837971	1.862870	6.821500	-0.003712	0.055218	-0.047098	0.000488	-0.650879	-0.891602	15.670217	43.991310	24.878040
18494		-6.846011	1.792019	6.855574	0.001195	0.052854	-0.055353	-0.002197	-0.641113	-0.894287	15.653872	44.025372	24.850439
18495		-6.820047	1.809719	6.923718	0.008973	0.054853	-0.054094	-0.001709	-0.641113	-0.894775	15.642741	44.060221	24.823331
18496		-6.866349	1.774569	6.905408	0.014930	0.057866	-0.047710	0.000244	-0.650146	-0.893311	15.639040	44.095861	24.802628
18497		-6.853340	1.897454	6.856743	0.021193	0.059596	-0.046993	-0.009033	-0.644531	-0.893311	15.639342	44.132197	24.782452
18498		-6.886478	1.876642	6.895098	0.023641	0.049268	-0.050171	-0.009033	-0.647217	-0.895752	15.637988	44.163472	24.757979
18499		-6.895811	1.922530	6.755049	0.024657	0.049082	-0.053471	-0.003174	-0.634766	-0.886963	15.635196	44.194949	24.730625
18500		-6.880957	1.854961	6.762965	0.026170	0.037039	-0.057565	0.003662	-0.646973	-0.893311	15.629448	44.220616	24.697797
18501		-6.904820	1.894604	6.723396	0.015894	0.027839	-0.060527	-0.000488	-0.651367	-0.894531	15.614587	44.241515	24.660985
18502		-6.864807	1.850776	6.732068	0.013259	0.018115	-0.064964	0.000488	-0.641846	-0.889648	15.594576	44.257868	24.618344
18503		-6.847903	1.877725	6.771587	0.008206	0.011607	-0.070662	0.000732	-0.645020	-0.887939	15.567401	44.271343	24.569558
18504		-6.869301	1.938504	6.759007	0.006915	0.017943	-0.079226	0.008789	-0.652832	-0.886230	15.536006	44.289764	24.515841
18505		-6.841948	1.954546	6.829602	0.000176	0.020955	-0.083601	0.008545	-0.644287	-0.894531	15.498618	44.310361	24.458648
18506		-6.832783	1.983026	6.795750	-0.002269	0.030168	-0.091426	0.005371	-0.641602	-0.886719	15.457127	44.337348	24.398055
18507		-6.895533	1.935584	6.764040	-0.006825	0.035329	-0.099640	0.011719	-0.644775	-0.894775	15.409078	44.368265	24.332236
18508		-6.861554	1.893615	6.814121	-0.011739	0.031352	-0.102599	0.011230	-0.638184	-0.893555	15.356165	44.397532	24.263134
18509		-6.913208	1.835253	6.813745	-0.017559	0.036079	-0.106067	0.010010	-0.643311	-0.887207	15.298442	44.429754	24.192382
18510		-6.920488	1.759786	6.849264	-0.012346	0.038037	-0.102056	0.010986	-0.646484	-0.883545	15.246303	44.462539	24.124960
18511		-6.923574	1.796287	6.783356	-0.010244	0.041332	-0.094926	0.004150	-0.646729	-0.892334	15.199458	44.495879	24.063267
18512		-6.894120	1.921746	6.751614	-0.010521	0.041506	-0.100249	0.015625	-0.645752	-0.893799	15.149693	44.530230	23.997820
18513		-6.923745	1.844639	6.813151	-0.012760	0.040147	-0.103204	0.009521	-0.638672	-0.891357	15.096556	44.564071	23.929638
18514		-6.898558	1.878719	6.793974	-0.021035	0.037651	-0.108365	0.012939	-0.645996	-0.895264	15.035604	44.597409	23.856914
18515		-6.891959	1.860056	6.823202	-0.028829	0.035619	-0.109684	0.017090	-0.642578	-0.891846	14.968872	44.629603	23.782723
18516		-6.890359	1.846706	6.894074	-0.027962	0.038149	-0.115554	0.007568	-0.647461	-0.893066	14.899899	44.664158	23.704318
18517		-6.918952	1.811346	6.892369	-0.033343	0.048546	-0.114986	0.018311	-0.645020	-0.892334	14.829368	44.704157	23.628267
18518		-6.864059	1.769493	6.915239	-0.028518	0.057798	-0.111847	0.014648	-0.632324	-0.887451	14.764723	44.748921	23.556574
18519		-6.951746	1.693440	6.882120	-0.023477	0.067682	-0.110167	0.011963	-0.639648	-0.895752	14.704988	44.798702	23.488062
18520		-6.889695	1.716432	6.938591	-0.016595	0.081011	-0.106633	0.016357	-0.643311	-0.886475	14.653128	44.855470	23.424941
18521		-6.894796	1.635201	6.928783	-0.010311	0.095779	-0.102726	0.025391	-0.644043	-0.892334	14.608822	44.919638	23.367733
18522		-6.978822	1.718847	6.842980	-0.002698	0.099779	-0.097217	0.018066	-0.635254	-0.893799	14.572559	44.985385	23.315556
18523		-6.939946	1.786004	6.860245	-0.002657	0.107548	-0.094280	0.019043	-0.644043	-0.894531	14.538722	45.054828	23.267113
18524		-6.961928	1.742571	6.770094	0.001458	0.110515	-0.093734	0.018311	-0.636963	-0.889893	14.508071	45.125985	23.219623
18525		-6.976684	1.741548	6.803639	-0.002147	0.119942	-0.098331	0.020996	-0.645508	-0.883057	14.473820	45.202814	23.170398
18526		-6.967946	1.788804	6.861890	-0.000019	0.122168	-0.102203	0.026855	-0.625732	-0.889893	14.439001	45.281609	23.118357
18527		-6.903567	1.854330	6.924354	-0.001740	0.138383	-0.108982	0.020996	-0.639648	-0.882324	14.401367	45.370157	23.064044
18528		-6.906149	1.816003	7.034022	0.004140	0.167969	-0.120817	0.024170	-0.645508	-0.886963	14.364725	45.476973	23.006261
18529		-6.923052	1.763470	7.084233	0.008727	0.205673	-0.131746	0.040771	-0.639404	-0.885010	14.329593	45.606015	22.946866
18530		-6.875128	1.742782	7.193987	0.004312	0.244170	-0.143344	0.038086	-0.636475	-0.886719	14.290782	45.758275	22.886167
18531		-6.926438	1.619610	7.000140	0.025678	0.290110	-0.137294	0.038330	-0.645020	-0.886475	14.273814	45.934985	22.838943
18532		-7.011260	1.413058	6.996882	0.045135	0.323279	-0.122510	0.040527	-0.635742	-0.883789	14.281350	46.128203	22.810500
18533		-7.025940	1.376319	6.978553	0.060001	0.347034	-0.105612	0.047119	-0.632813	-0.881836	14.310417	46.331980	22.800260
18534		-7.066598	1.456507	6.924561	0.077495	0.368273	-0.088878	0.048584	-0.642578	-0.878418	14.362753	46.545424	22.808249
18535		-7.102086	1.532738	6.827043	0.084328	0.392688	-0.076007	0.046875	-0.648438	-0.884521	14.430288	46.770329	22.831849
18536		-7.142529	1.705749	6.756946	0.081741	0.407096	-0.073431	0.059814	-0.644043	-0.880615	14.500751	47.003088	22.861276
18537		-7.163232	1.837373	6.536009	0.071427	0.417647	-0.081878	0.061768	-0.648926	-0.875488	14.562125	47.242615	22.886261
18538		-7.216981	1.949736	6.469848	0.059203	0.427441	-0.094823	0.068848	-0.650635	-0.876709	14.610876	47.489698	22.903502
18539		-7.161034	1.938257	6.540148	0.055388	0.430190	-0.109608	0.069824	-0.640381	-0.874023	14.649010	47.740188	22.908935
18540		-7.177203	1.733906	6.595962	0.039030	0.459312	-0.125648	0.084229	-0.645752	-0.865967	14.673004	48.009393	22.908240
18541		-7.256447	1.742322	6.710056	0.043223	0.481018	-0.130873	0.081055	-0.642822	-0.871094	14.699572	48.291134	22.907835
18542		-7.269179	1.624299	6.635397	0.040626	0.510793	-0.135324	0.089600	-0.644287	-0.869873	14.727149	48.590276	22.910713
18543		-7.317090	1.535707	6.577168	0.042432	0.532949	-0.134126	0.101074	-0.646240	-0.875000	14.760156	48.901231	22.919598
18544		-7.394249	1.497723	6.446224	0.044117	0.554186	-0.120828	0.110107	-0.649170	-0.858643	14.806776	49.222290	22.945009
18545		-7.484197	1.539203	6.357748	0.044655	0.559501	-0.113880	0.108887	-0.647461	-0.859863	14.859379	49.544975	22.977879
18546		-7.534175	1.364699	6.234580	0.040622	0.568999	-0.103316	0.119385	-0.652100	-0.854492	14.919149	49.871627	23.022910
18547		-7.608544	1.326174	6.173648	0.051473	0.555706	-0.074662	0.124756	-0.642578	-0.853027	15.002307	50.186348	23.090296
18548		-7.698189	1.421074	6.061182	0.049830	0.541455	-0.055891	0.131592	-0.654297	-0.854248	15.095935	50.490622	23.172042
18549		-7.748692	1.577640	5.919717	0.041398	0.518354	-0.044449	0.136230	-0.648193	-0.851318	15.189191	50.780032	23.259386
18550		-7.698008	1.715837	5.805277	0.029022	0.498257	-0.040407	0.135986	-0.640869	-0.847900	15.275943	51.057925	23.346956
18551		-7.613856	1.905691	5.883006	0.016889	0.487609	-0.047203	0.151611	-0.647461	-0.844238	15.349916	51.330606	23.426881
18552		-7.547962	2.056303	6.065879	0.004556	0.497069	-0.064746	0.148193	-0.645508	-0.838623	15.407782	51.611400	23.494770
18553		-7.587925	2.041776	6.246838	-0.011380	0.522034	-0.088795	0.160400	-0.646729	-0.840088	15.445058	51.909326	23.547953
18554		-7.619462	1.969354	6.407170	-0.013719	0.565787	-0.110321	0.162598	-0.659668	-0.839355	15.475294	52.234968	23.593530
18555		-7.669457	1.825274	6.437933	-0.010179	0.620186	-0.129643	0.175781	-0.645996	-0.839111	15.504919	52.593275	23.635712
18556		-7.726390	1.742051	6.571880	0.011060	0.682564	-0.141668	0.179443	-0.647705	-0.828125	15.551608	52.988157	23.683683
18557		-7.795994	1.693751	6.619098	0.015504	0.761182	-0.150469	0.191162	-0.657471	-0.825195	15.611333	53.427407	23.744637
18558		-7.874589	1.593436	6.754770	0.037759	0.845864	-0.150827	0.196289	-0.655029	-0.818848	15.703239	53.913732	23.829199
18559		-7.945423	1.759717	6.803166	0.060206	0.959594	-0.159153	0.205322	-0.652344	-0.814941	15.828472	54.463572	23.938598
18560		-7.960250	1.800983	6.849196	0.078868	1.102989	-0.180715	0.218506	-0.654297	-0.819580	15.983626	55.096050	24.070575
18561		-8.362370	1.456911	6.700394	0.164997	1.258204	-0.187658	0.237549	-0.656738	-0.806396	16.224004	55.814351	24.245189
18562		-8.951703	1.479643	6.492042	0.316427	1.328702	-0.172646	0.245117	-0.655518	-0.798584	16.590548	56.568891	24.465540
18563		-9.296501	2.150256	6.355843	0.424898	1.328168	-0.185128	0.259277	-0.658447	-0.787354	17.021591	57.323842	24.686964
18564		-8.919852	2.589253	6.036038	0.431971	1.322406	-0.232689	0.265625	-0.660156	-0.773193	17.428561	58.083296	24.873071
18565		-8.900285	2.715587	5.834114	0.395547	1.350645	-0.303080	0.281738	-0.666504	-0.770752	17.772520	58.869176	25.008348
18566		-8.975870	2.642962	5.917156	0.370042	1.371647	-0.361021	0.302246	-0.669678	-0.766846	18.066356	59.676836	25.101023
18567		-9.122805	2.492005	6.076296	0.352368	1.397735	-0.429427	0.316406	-0.665039	-0.749268	18.302304	60.510133	25.137970
18568		-9.241301	2.543302	6.008930	0.372519	1.432477	-0.490569	0.323242	-0.670654	-0.730957	18.508491	61.373868	25.127216
18569		-9.239072	2.986731	5.876349	0.358202	1.446672	-0.563142	0.345215	-0.673340	-0.725098	18.641946	62.257941	25.043473
18570		-9.380028	2.491272	5.525870	0.319997	1.461280	-0.641313	0.361816	-0.680176	-0.714355	18.676342	63.164961	24.873458
18571		-9.019576	2.144035	5.402998	0.319658	1.472516	-0.691166	0.374512	-0.673828	-0.712646	18.654065	64.086536	24.641885
18572		-8.966446	2.031742	5.156890	0.333033	1.470337	-0.732104	0.395264	-0.683350	-0.694580	18.581748	65.015027	24.348105
18573		-8.946743	1.903585	4.912726	0.358152	1.445462	-0.761952	0.411377	-0.686523	-0.682617	18.463468	65.934471	23.990296
18574		-8.770129	1.812608	4.913178	0.354748	1.361169	-0.793952	0.418701	-0.675781	-0.675781	18.248643	66.814172	23.531634
18575		-8.309003	1.597569	5.013670	0.355431	1.219741	-0.824631	0.432617	-0.669922	-0.662109	17.906924	67.620580	22.937908
18576		-7.937166	1.379612	5.401171	0.381198	1.022434	-0.833038	0.451172	-0.679199	-0.650879	17.449111	68.319936	22.206121
18577		-6.903715	1.088048	5.957412	0.437002	0.811745	-0.864509	0.457275	-0.676514	-0.639893	16.849432	68.905784	21.291009
18578		-6.620541	0.784005	6.056524	0.520499	0.624796	-0.969213	0.467529	-0.673340	-0.635254	16.023476	69.402598	20.085804
18579		-8.320460	-0.033665	5.933220	0.598999	0.438000	-1.064797	0.473633	-0.679199	-0.625977	14.974869	69.802747	18.598741
18580		-7.261426	0.324631	6.039751	0.723602	0.159717	-0.980733	0.479736	-0.672119	-0.622070	13.973168	70.028212	17.088465
18581		-6.368499	0.814890	6.085484	0.768643	-0.079170	-0.905333	0.474365	-0.674072	-0.614502	13.003050	70.100297	15.585898
18582		-5.494577	1.048792	6.071622	0.740588	-0.242015	-0.827503	0.471191	-0.670410	-0.611328	12.076588	70.064362	14.146892
18583		-4.967521	1.423366	6.032107	0.661529	-0.344289	-0.760553	0.477051	-0.682373	-0.614746	11.182837	69.954074	12.790371
18584		-4.795939	1.464331	5.982753	0.549326	-0.424206	-0.689861	0.478271	-0.676758	-0.613281	10.324250	69.785599	11.538424
18585		-4.854950	1.312250	6.095956	0.471891	-0.496002	-0.597008	0.474854	-0.677734	-0.613770	9.562854	69.559691	10.435981
18586		-5.257427	1.175509	6.230936	0.443818	-0.605034	-0.478280	0.467773	-0.677002	-0.618896	8.958620	69.258285	9.516579
18587		-5.665211	1.130208	6.234223	0.432796	-0.747700	-0.352536	0.471191	-0.687012	-0.614502	8.525069	68.860355	8.784688
18588		-5.838895	1.406290	6.224904	0.411503	-0.920199	-0.212264	0.454346	-0.683838	-0.617432	8.266902	68.353211	8.251895
18589		-5.789842	1.676961	6.171156	0.358116	-1.083347	-0.102244	0.444336	-0.692139	-0.620117	8.118910	67.741814	7.868917
18590		-5.712490	1.715542	6.182179	0.284735	-1.215055	0.004058	0.438232	-0.701660	-0.626465	8.061545	67.048942	7.627739
18591		-5.727825	1.583188	6.112536	0.226722	-1.305879	0.115861	0.426514	-0.701904	-0.637695	8.109621	66.293280	7.536398
18592		-5.936348	1.343367	6.064379	0.182412	-1.374782	0.239842	0.410889	-0.702637	-0.646484	8.276021	65.490742	7.601842
18593		-6.175864	1.209290	6.006970	0.154594	-1.423673	0.385989	0.401855	-0.709473	-0.648193	8.587184	64.645686	7.845032
18594		-6.432410	1.187757	6.027286	0.105451	-1.466725	0.525982	0.387451	-0.716309	-0.654053	9.006132	63.765773	8.240840
18595		-6.706274	1.148892	6.023424	0.050601	-1.497435	0.655177	0.370117	-0.719971	-0.668945	9.506198	62.852661	8.765790
18596		-7.024232	1.120977	6.089717	-0.019668	-1.530436	0.755643	0.351074	-0.729492	-0.678955	10.033701	61.911640	9.371400
18597		-7.419927	1.170274	6.136034	-0.068921	-1.570457	0.827153	0.339111	-0.733154	-0.684570	10.562873	60.935492	10.016615
18598		-7.683496	1.313493	6.158045	-0.126910	-1.616309	0.870119	0.326416	-0.741455	-0.696777	11.054320	59.928905	10.662753
18599		-8.122593	1.573096	6.130216	-0.194744	-1.650211	0.892337	0.303711	-0.744873	-0.700684	11.485656	58.895468	11.291078
18600		-8.505989	1.662027	6.181289	-0.269019	-1.706836	0.891434	0.287598	-0.754395	-0.707031	11.829344	57.831003	11.873255
18601		-8.682310	1.543259	6.186366	-0.310635	-1.738108	0.877157	0.263916	-0.742432	-0.711914	12.102114	56.746254	12.406585
18602		-8.919960	1.362466	6.044075	-0.308795	-1.757334	0.863708	0.245361	-0.751953	-0.734131	12.335567	55.653937	12.897832
18603		-9.136383	1.270670	5.934931	-0.281702	-1.764536	0.855618	0.228027	-0.755859	-0.739990	12.554382	54.554684	13.358976
18604		-9.163636	1.302922	5.912491	-0.245736	-1.751190	0.852066	0.199463	-0.762695	-0.743408	12.772437	53.465178	13.799817
18605		-9.143522	1.365114	5.898720	-0.229040	-1.703596	0.848887	0.191162	-0.768311	-0.759033	12.986674	52.398892	14.230301
18606		-9.167209	1.455691	5.896060	-0.214744	-1.647727	0.837575	0.164551	-0.772461	-0.764648	13.192446	51.367110	14.645494
18607		-9.175232	1.613973	5.822692	-0.218868	-1.576575	0.819487	0.147217	-0.777832	-0.767090	13.379057	50.373773	15.045188
18608		-9.073533	1.669402	5.820430	-0.236296	-1.500582	0.805496	0.128662	-0.779297	-0.775635	13.544291	49.426620	15.435381
18609		-8.953221	1.766783	5.791056	-0.263699	-1.409126	0.800447	0.115967	-0.779053	-0.789795	13.692239	48.527730	15.829152
18610		-8.992176	1.742681	5.835535	-0.299976	-1.302309	0.795799	0.096436	-0.784912	-0.794434	13.821382	47.690959	16.230625
18611		-9.063956	1.794463	5.766322	-0.322809	-1.196201	0.786892	0.078613	-0.791016	-0.796387	13.937576	46.911291	16.637732
18612		-9.302197	1.858513	5.693985	-0.351847	-1.102263	0.763985	0.056641	-0.789307	-0.796387	14.028190	46.189096	17.037274
18613		-9.526704	1.819834	5.628830	-0.365302	-1.022384	0.726979	0.047119	-0.790771	-0.803467	14.093325	45.513625	17.417021
18614		-9.750746	1.709147	5.562581	-0.363163	-0.966288	0.688089	0.040039	-0.795898	-0.803223	14.139026	44.876954	17.771673
18615		-9.826184	1.453420	5.497962	-0.334094	-0.929686	0.656886	0.025635	-0.790039	-0.806641	14.183389	44.262500	18.104861
18616		-9.655377	1.127387	5.427545	-0.287802	-0.910179	0.645437	0.000000	-0.793945	-0.813721	14.245383	43.662567	18.428612
18617		-9.351644	1.011497	5.455549	-0.223241	-0.888043	0.648614	-0.007568	-0.795654	-0.809082	14.343490	43.072035	18.754906
18618		-9.093450	1.201220	5.488802	-0.178908	-0.865457	0.634474	-0.027344	-0.803711	-0.816162	14.457273	42.497729	19.070169
18619		-8.883446	1.376051	5.456708	-0.165479	-0.833700	0.598478	-0.027344	-0.797607	-0.808105	14.559462	41.943828	19.360435
18620		-8.666057	1.375476	5.391879	-0.166235	-0.790203	0.554828	-0.044922	-0.800293	-0.812988	14.640958	41.421948	19.622980
18621		-8.517504	1.429313	5.363068	-0.175033	-0.740642	0.515310	-0.058594	-0.795410	-0.819336	14.700743	40.931253	19.863156
18622		-8.354475	1.365908	5.291514	-0.180409	-0.691926	0.471431	-0.068115	-0.800781	-0.817871	14.739809	40.475566	20.078271
18623		-8.212822	1.313016	5.224223	-0.180012	-0.630349	0.430610	-0.077637	-0.804443	-0.815674	14.765019	40.058244	20.273835
18624		-8.036792	1.260472	5.093884	-0.166222	-0.573665	0.400192	-0.079102	-0.806641	-0.826660	14.789223	39.678323	20.456816
18625		-7.974350	1.312380	5.035521	-0.146081	-0.514578	0.377645	-0.094727	-0.804932	-0.809570	14.819964	39.332913	20.633646
18626		-7.873561	1.390878	4.939358	-0.121808	-0.445554	0.354796	-0.110107	-0.802246	-0.811523	14.861275	39.030452	20.806101
18627		-7.925120	1.444227	4.880697	-0.097673	-0.379842	0.330850	-0.116211	-0.798828	-0.813477	14.912035	38.766506	20.972945
18628		-8.080022	1.601015	4.755406	-0.085776	-0.311460	0.312169	-0.111572	-0.811279	-0.817871	14.968509	38.544343	21.138599
18629		-8.028221	1.763524	4.685169	-0.084993	-0.251670	0.279127	-0.119141	-0.811279	-0.820313	15.016850	38.358937	21.291478
18630		-7.984519	1.803006	4.557987	-0.082084	-0.182669	0.255386	-0.117920	-0.804932	-0.820801	15.064091	38.216254	21.440161
18631		-7.883717	1.726724	4.501359	-0.068031	-0.114268	0.237545	-0.120850	-0.810791	-0.819336	15.118987	38.113037	21.588846
18632		-7.776566	1.617304	4.443459	-0.035216	-0.033413	0.220130	-0.133789	-0.813232	-0.808594	15.194431	38.057942	21.740385
18633		-7.647301	1.570603	4.482642	0.018530	0.050988	0.205445	-0.122314	-0.812256	-0.816895	15.303969	38.050772	21.897579
18634		-7.723993	1.724416	4.451680	0.070160	0.141589	0.177024	-0.122803	-0.814941	-0.812988	15.441756	38.098457	22.052345
18635		-7.810255	1.881207	4.555142	0.113694	0.220406	0.131855	-0.126221	-0.811768	-0.806152	15.594629	38.195693	22.191060
18636		-7.765743	2.006294	4.658864	0.122191	0.272457	0.078808	-0.120117	-0.811035	-0.814209	15.736301	38.330145	22.303313
18637		-7.643133	1.927806	4.721564	0.153015	0.314124	0.025287	-0.122314	-0.812988	-0.807617	15.877968	38.495297	22.386863
18638		-7.543900	1.904942	4.728342	0.178117	0.363656	-0.021517	-0.116211	-0.825439	-0.819092	16.020393	38.695349	22.448140
18639		-7.294494	1.970209	4.862986	0.204342	0.413669	-0.059328	-0.113770	-0.825439	-0.811768	16.168168	38.928564	22.493741
18640		-7.232659	2.021687	5.034818	0.244685	0.482469	-0.093886	-0.096680	-0.819092	-0.802002	16.333389	39.205319	22.530045
18641		-4.154623	9.747725	9.622119	-0.837395	1.081697	-0.544058	-0.093018	-0.811035	-0.808594	15.751862	39.883288	22.366900
18642		-18.889213	5.884518	8.778479	-1.430404	1.471919	-1.259021	-0.072754	-0.802979	-0.813477	14.531688	40.882147	21.745318
18643		-22.416194	-9.450218	5.372381	-0.159757	-0.494785	-0.209266	-0.078857	-0.799561	-0.813477	14.284015	40.633774	21.502579
18644		2.424557	-2.191132	8.879003	-0.408228	-0.908267	-0.323668	-0.089355	-0.788330	-0.815918	13.793913	40.170313	21.103987
18645		-7.435386	0.357835	7.327233	-0.508683	-0.136915	-0.425287	-0.086914	-0.794434	-0.815918	13.291269	40.147729	20.773302
18646		-5.888567	3.257997	8.918518	-0.392789	-0.339082	-0.215066	-0.091064	-0.777344	-0.829346	12.932608	39.982921	20.562390
18647		-5.807958	1.521950	8.203474	-0.411178	-0.170906	-0.122037	-0.091553	-0.778320	-0.819580	12.626014	39.899531	20.448568
18648		-6.168028	1.348630	8.513212	-0.299906	0.084668	-0.077416	-0.089844	-0.779297	-0.823486	12.431161	39.952989	20.409357
18649		-7.113017	1.531333	7.268032	-0.071416	0.055537	0.009734	-0.092773	-0.776367	-0.827148	12.404763	39.979476	20.428772
18650		-6.252315	2.016990	7.806435	-0.031375	0.109706	0.060666	-0.082275	-0.774902	-0.833252	12.431042	40.029873	20.494277
18651		-6.514088	1.927208	7.373306	-0.004345	0.136192	0.051596	-0.082520	-0.779297	-0.822021	12.471214	40.096313	20.557368
18652		-6.382224	1.762665	7.405277	-0.010405	0.152326	0.019569	-0.081055	-0.780762	-0.821777	12.494819	40.175585	20.599907
18653		-6.558275	1.415943	7.303558	-0.020004	0.153531	0.000018	-0.079102	-0.779541	-0.830078	12.503726	40.258079	20.628256
18654		-6.505536	1.474301	7.303881	-0.020792	0.140975	-0.008750	-0.088379	-0.778320	-0.835449	12.506936	40.334502	20.648321
18655		-6.530773	1.639584	7.217129	-0.030047	0.123739	-0.012724	-0.073242	-0.771973	-0.836426	12.500981	40.401920	20.662529
18656		-6.425889	1.674758	7.211360	-0.043079	0.093314	-0.026442	-0.075195	-0.777344	-0.825439	12.478002	40.453878	20.661846
18657		-6.427529	1.805163	7.246949	-0.071609	0.082949	-0.032568	-0.076660	-0.776123	-0.820801	12.434449	40.500943	20.654784
18658		-6.463593	1.730030	7.235781	-0.093262	0.075136	-0.048271	-0.072266	-0.775879	-0.833496	12.370296	40.545414	20.634983
18659		-6.485596	1.553336	7.266701	-0.100974	0.061216	-0.041749	-0.074707	-0.766357	-0.831299	12.303157	40.581429	20.617526
18660		-6.538067	1.406199	7.321250	-0.095845	0.053418	-0.031257	-0.065186	-0.768799	-0.829102	12.243300	40.611636	20.606633
18661		-6.557948	1.412373	7.330810	-0.086347	0.049192	-0.021731	-0.075684	-0.766357	-0.832520	12.192813	40.638468	20.601904
18662		-6.449329	1.291327	7.419243	-0.067481	0.052541	-0.010274	-0.074707	-0.766113	-0.823975	12.159149	40.665633	20.606285
18663		-6.448692	1.423503	7.457297	-0.044610	0.061188	0.013175	-0.073730	-0.765625	-0.827393	12.150578	40.694971	20.629191
18664		-6.441737	1.570646	7.436617	-0.038770	0.073244	0.023048	-0.079102	-0.781494	-0.835449	12.151570	40.729715	20.661478
18665		-6.435609	1.600156	7.358153	-0.035333	0.082119	0.025732	-0.073242	-0.766357	-0.832275	12.156580	40.769259	20.697020
18666		-6.436512	1.707438	7.326662	-0.035886	0.085696	0.016432	-0.064697	-0.767578	-0.832275	12.157385	40.811773	20.726439
18667		-6.478858	1.598620	7.303849	-0.040673	0.084178	0.016331	-0.077637	-0.767090	-0.827637	12.155075	40.853601	20.755402
18668		-6.435831	1.603069	7.357608	-0.043113	0.096505	0.010062	-0.066650	-0.765381	-0.830078	12.149836	40.902940	20.781862
18669		-6.427198	1.495352	7.351094	-0.039887	0.092589	0.009304	-0.066406	-0.774414	-0.834473	12.145503	40.950326	20.806993
18670		-6.477036	1.436411	7.306768	-0.039481	0.102702	0.015236	-0.066406	-0.765381	-0.830322	12.145566	41.002515	20.838311
18671		-6.450259	1.519200	7.292815	-0.033557	0.108417	0.019068	-0.063721	-0.765381	-0.820068	12.151334	41.057588	20.873257
18672		-6.489823	1.547319	7.309159	-0.030317	0.116656	0.023217	-0.063721	-0.768066	-0.830078	12.162102	41.116624	20.912806
18673		-6.537816	1.575338	7.210813	-0.031470	0.119845	0.010045	-0.062256	-0.765625	-0.829102	12.165964	41.179178	20.942955
18674		-6.471166	1.601922	7.219815	-0.024645	0.102598	0.018995	-0.065186	-0.767578	-0.826172	12.176546	41.230843	20.977196
18675		-6.513614	1.543915	7.288688	-0.031484	0.109546	0.009371	-0.057373	-0.766846	-0.829102	12.179071	41.287706	21.005261
18676		-6.539348	1.443963	7.278232	-0.021823	0.095577	0.016876	-0.057861	-0.761719	-0.824707	12.189576	41.335690	21.036863
18677		-6.580503	1.608631	7.222939	-0.021681	0.089247	0.010810	-0.058350	-0.766357	-0.835449	12.196337	41.381004	21.062787
18678		-6.593989	1.476505	7.217772	-0.018645	0.082853	0.007256	-0.056152	-0.768555	-0.829590	12.202633	41.423021	21.085214
18679		-6.570047	1.542166	7.221538	-0.015954	0.075163	0.006627	-0.053711	-0.763916	-0.837402	12.209161	41.460953	21.105785
18680		-6.594133	1.560370	7.270370	-0.017551	0.071240	-0.002464	-0.056885	-0.764893	-0.827881	12.210074	41.497641	21.119104
18681		-6.549506	1.537902	7.257729	-0.011865	0.065665	-0.010277	-0.054932	-0.763672	-0.830078	12.209585	41.532302	21.125522
18682		-6.571500	1.618753	7.229037	-0.013051	0.059682	-0.018321	-0.049805	-0.761230	-0.825684	12.203985	41.564440	21.125117
18683		-6.561734	1.579449	7.188153	-0.013586	0.050753	-0.018537	-0.051270	-0.761230	-0.844238	12.196810	41.591749	21.122938
18684		-6.577347	1.518987	7.190728	-0.012817	0.051812	-0.016139	-0.049805	-0.763184	-0.820557	12.191577	41.619215	21.122884
18685		-6.556536	1.566089	7.212361	-0.003968	0.047105	-0.010361	-0.058594	-0.761475	-0.828857	12.193586	41.643493	21.126234
18686		-6.526450	1.558823	7.212381	-0.005112	0.051748	-0.005259	-0.050293	-0.758789	-0.828369	12.198182	41.669606	21.134326
18687		-6.516504	1.480847	7.275299	0.005953	0.063911	0.004391	-0.055176	-0.766357	-0.826172	12.215055	41.701506	21.151476
18688		-6.538813	1.564177	7.245772	0.005082	0.078385	0.002910	-0.058350	-0.760010	-0.833008	12.232475	41.741541	21.170050
18689		-6.536160	1.578041	7.182945	0.005693	0.073626	0.006455	-0.051270	-0.760254	-0.830811	12.251330	41.778619	21.190377
18690		-6.552220	1.611299	7.173702	0.004955	0.069220	0.008010	-0.052246	-0.768066	-0.829102	12.270288	41.812893	21.211342
18691		-6.579703	1.586147	7.170354	0.007045	0.066289	0.003845	-0.048828	-0.759033	-0.831299	12.287868	41.846169	21.228565
18692		-6.544684	1.460967	7.224928	0.006710	0.093152	-0.027917	-0.059570	-0.768799	-0.839355	12.292473	41.898214	21.226488
18693		-6.596330	1.499914	7.210803	0.020584	0.091194	0.001601	-0.044922	-0.765869	-0.826904	12.319463	41.945698	21.246154
18694		-6.569612	1.495047	7.207439	0.028090	0.102747	-0.007661	-0.049316	-0.770752	-0.826416	12.347603	42.000637	21.260957
18695		-6.573540	1.492248	7.158498	0.029852	0.098812	0.003613	-0.054199	-0.770752	-0.825928	12.381848	42.052120	21.283492
18696		-6.603375	1.469287	7.152438	0.037462	0.103942	0.014816	-0.053223	-0.760498	-0.830078	12.426946	42.104947	21.315555
18697		-6.640851	1.525398	7.193627	0.048958	0.098540	0.024620	-0.047363	-0.766602	-0.830566	12.482861	42.153655	21.354034
18698		-6.667654	1.567844	7.109208	0.049699	0.097792	0.022730	-0.049805	-0.777832	-0.831299	12.538453	42.202015	21.391223
18699		-6.628455	1.624745	7.100048	0.046878	0.089330	0.023858	-0.044922	-0.770996	-0.823486	12.591917	42.245613	21.427758
18700		-6.635658	1.606472	7.067770	0.034325	0.080511	0.022178	-0.045898	-0.761719	-0.823486	12.636610	42.284330	21.461778
18701		-6.667294	1.589253	7.104833	0.032598	0.079581	0.023089	-0.043945	-0.765381	-0.828125	12.680524	42.322531	21.496222
18702		-6.626179	1.577015	7.133549	0.031667	0.074529	0.026113	-0.038086	-0.770508	-0.827637	12.725126	42.357370	21.532319
18703		-6.618729	1.571547	7.158674	0.031804	0.078847	0.033177	-0.044922	-0.774170	-0.826660	12.773758	42.393844	21.574389
18704		-6.680777	1.624831	7.113812	0.032562	0.076569	0.039547	-0.045410	-0.771240	-0.821533	12.826080	42.428072	21.621123
18705		-6.667926	1.637656	7.123132	0.026262	0.074757	0.038840	-0.043457	-0.771240	-0.826660	12.874080	42.461484	21.666908
18706		-6.709617	1.671293	7.025546	0.025680	0.072832	0.043211	-0.036377	-0.765381	-0.823242	12.924023	42.493096	21.715898
18707		-6.704082	1.552151	7.035926	0.011018	0.068484	0.037404	-0.042480	-0.764160	-0.832520	12.961939	42.523135	21.759626
18708		-6.705224	1.600890	7.083228	0.011047	0.063305	0.037112	-0.037842	-0.775879	-0.823730	12.999359	42.550162	21.802439
18709		-6.663398	1.655927	7.076888	0.011621	0.061897	0.036702	-0.039063	-0.772705	-0.820313	13.036570	42.576574	21.844570
18710		-6.702397	1.642483	7.042774	0.004764	0.063015	0.028146	-0.045898	-0.770020	-0.820313	13.065840	42.604560	21.880616
18711		-6.653710	1.668789	7.083274	-0.000589	0.062913	0.028377	-0.039307	-0.774902	-0.821777	13.091985	42.632586	21.916689
18712		-6.712933	1.673951	7.101970	0.002471	0.065020	0.021204	-0.038574	-0.774658	-0.822754	13.116686	42.662569	21.947892
18713		-6.658464	1.598495	7.069129	0.006719	0.072510	-0.002982	-0.036865	-0.779541	-0.827881	13.132110	42.700006	21.961930
18714		-6.712846	1.620897	7.071575	0.003191	0.062748	0.027574	-0.034668	-0.778564	-0.816650	13.160302	42.727874	21.997629
18715		-6.722174	1.672829	7.046742	-0.000758	0.058619	0.021279	-0.031982	-0.775879	-0.831543	13.182320	42.754385	22.027681
18716		-6.727171	1.650945	7.017129	-0.009463	0.052964	0.014815	-0.040771	-0.768799	-0.818115	13.195558	42.778444	22.052001
18717		-6.746365	1.665828	7.025122	-0.009539	0.040101	0.011458	-0.041016	-0.775391	-0.818115	13.205280	42.795900	22.071329
18718		-6.727442	1.668568	6.995893	-0.015390	0.037738	0.003557	-0.033203	-0.779297	-0.819824	13.207489	42.812934	22.084398
18719		-6.706931	1.693314	6.993026	-0.019132	0.030897	-0.000213	-0.029297	-0.768311	-0.818848	13.204585	42.826784	22.093223
18720		-6.714436	1.673754	7.007267	-0.025176	0.027891	-0.006654	-0.039307	-0.776611	-0.820801	13.194719	42.839662	22.096771
18721		-6.703051	1.684318	7.062711	-0.026656	0.025762	-0.011463	-0.025635	-0.771973	-0.817627	13.181066	42.852121	22.096121
18722		-6.722778	1.673171	7.046296	-0.028330	0.029700	-0.022782	-0.031738	-0.777832	-0.822754	13.161259	42.868114	22.087710
18723		-6.703633	1.604664	7.054580	-0.028485	0.027220	-0.025587	-0.032471	-0.767578	-0.831055	13.139413	42.883226	22.076557
18724		-6.735156	1.602537	7.007688	-0.033007	0.017796	-0.023522	-0.038330	-0.770020	-0.828857	13.115087	42.892669	22.065448
18725		-6.757078	1.618362	7.059730	-0.025360	0.017426	-0.025058	-0.035645	-0.774902	-0.828613	13.094105	42.902241	22.052940
18726		-6.753059	1.632368	7.043489	-0.030028	0.008876	-0.029782	-0.031982	-0.767334	-0.822510	13.067152	42.907511	22.035468
18727		-6.756416	1.650695	6.955308	-0.031803	-0.001568	-0.036219	-0.031006	-0.770752	-0.831787	13.034392	42.907916	22.011086
18728		-6.721777	1.661755	6.986339	-0.038581	-0.008991	-0.041097	-0.031250	-0.771729	-0.819336	12.994519	42.904658	21.981835
18729		-6.720421	1.610639	7.050087	-0.042563	-0.011282	-0.043142	-0.031494	-0.774902	-0.820068	12.950848	42.900508	21.950474
18730		-6.696374	1.653163	7.076771	-0.041986	-0.009332	-0.047530	-0.023682	-0.765625	-0.827637	12.905655	42.897851	21.916270
18731		-6.693599	1.619093	7.010359	-0.050145	-0.011202	-0.054140	-0.030029	-0.776123	-0.830811	12.851953	42.895111	21.876552
18732		-6.704167	1.508393	7.079621	-0.041764	-0.010497	-0.053273	-0.029053	-0.768066	-0.826416	12.803777	42.892490	21.837775
18733		-6.720799	1.584956	7.055545	-0.035538	-0.006841	-0.048283	-0.032959	-0.764160	-0.823975	12.762006	42.891395	21.803287
18734		-6.704930	1.564698	7.045463	-0.034420	-0.004476	-0.048801	-0.033691	-0.763428	-0.829102	12.721072	42.891531	21.768966
18735		-6.706502	1.536600	7.020243	-0.030985	-0.005951	-0.046652	-0.039795	-0.768555	-0.826660	12.682861	42.890691	21.735878
18736		-6.682890	1.579932	7.046507	-0.029469	-0.005652	-0.046110	-0.027588	-0.763916	-0.828613	12.646025	42.889798	21.703409
18737		-6.711147	1.530929	7.063817	-0.029077	-0.007715	-0.045056	-0.037109	-0.759766	-0.819336	12.609534	42.887739	21.671240
18738		-6.710117	1.548350	7.090901	-0.030605	-0.008005	-0.045609	-0.039307	-0.761963	-0.819092	12.572039	42.885437	21.638757
18739		-6.659819	1.613059	7.074660	-0.031264	-0.001394	-0.044919	-0.030029	-0.762695	-0.827881	12.535099	42.886865	21.607770
18740		-6.667175	1.567431	7.064543	-0.022909	0.006063	-0.052004	-0.035156	-0.759033	-0.831299	12.500313	42.893196	21.572790
18741		-6.706820	1.641408	7.066196	-0.024055	0.007078	-0.055479	-0.032227	-0.773926	-0.825684	12.462982	42.900639	21.535166
18742		-6.669995	1.556546	7.064287	-0.027912	0.010628	-0.058700	-0.028320	-0.758789	-0.839111	12.422351	42.910317	21.495822
18743		-6.719149	1.453531	7.012974	-0.026398	0.010930	-0.058158	-0.028320	-0.764404	-0.829346	12.382702	42.920204	21.456776
18744		-6.685917	1.464200	7.042792	-0.026048	0.010684	-0.052831	-0.035400	-0.755859	-0.820068	12.346170	42.929154	21.421896
18745		-6.730689	1.451984	7.095740	-0.021748	0.016113	-0.049432	-0.025635	-0.768066	-0.827881	12.314285	42.940839	21.390354
18746		-6.721115	1.505928	7.089622	-0.017232	0.018820	-0.043512	-0.031738	-0.764404	-0.833008	12.288556	42.953177	21.363932
18747		-6.718764	1.587766	7.036847	-0.017811	0.021801	-0.051370	-0.029785	-0.764893	-0.828369	12.258527	42.968259	21.331823
18748		-6.721152	1.582724	7.035703	-0.021222	0.021468	-0.057812	-0.031006	-0.763916	-0.824707	12.223321	42.983797	21.294866
18749		-6.734955	1.518760	7.039820	-0.021968	0.020419	-0.060234	-0.031250	-0.754639	-0.828613	12.186093	42.999149	21.255705
18750		-6.748769	1.454653	7.043853	-0.017580	0.022229	-0.065387	-0.033447	-0.755371	-0.824463	12.149056	43.015994	21.213027
18751		-6.739886	1.507616	7.037496	-0.015659	0.020465	-0.063786	-0.029053	-0.760498	-0.824463	12.113539	43.031764	21.171103
18752		-6.758746	1.425820	7.057136	-0.011838	0.020311	-0.064556	-0.026611	-0.766357	-0.827637	12.079960	43.047395	21.128695
18753		-6.755841	1.438827	7.040324	-0.010890	0.018646	-0.059628	-0.026123	-0.762451	-0.833740	12.049099	43.061612	21.089614
18754		-6.718326	1.468442	7.053713	-0.007289	0.021220	-0.062916	-0.019531	-0.761475	-0.831055	12.019040	43.077523	21.048569
18755		-6.731747	1.496199	7.048010	-0.006252	0.014361	-0.058286	-0.028320	-0.765381	-0.824463	11.991019	43.089149	21.009777
18756		-6.732890	1.514192	7.073222	-0.003201	0.016541	-0.065452	-0.021240	-0.762939	-0.822510	11.961411	43.102709	20.965984
18757		-6.759396	1.528936	7.010617	-0.005280	0.015852	-0.069891	-0.034668	-0.763672	-0.828369	11.927988	43.116515	20.918492
18758		-6.744134	1.441114	7.034398	-0.007827	0.019039	-0.071109	-0.020264	-0.767334	-0.822998	11.892991	43.132108	20.870717
18759		-6.729243	1.444301	7.048289	-0.001750	0.020250	-0.068907	-0.026611	-0.759766	-0.826660	11.862546	43.148224	20.824647
18760		-6.709444	1.465953	7.046287	-0.000521	0.025092	-0.066602	-0.021240	-0.764893	-0.830811	11.834719	43.166642	20.781264
18761		-6.767690	1.463518	7.067023	0.000946	0.028788	-0.070042	-0.025879	-0.752930	-0.827637	11.806104	43.187644	20.735645
18762		-6.720598	1.438977	7.058000	0.005815	0.032825	-0.067033	-0.017334	-0.762939	-0.824219	11.782472	43.210421	20.693119
18763		-6.750585	1.413468	7.097889	0.011649	0.035190	-0.059080	-0.017090	-0.761475	-0.835449	11.766406	43.233704	20.656908
18764		-6.759262	1.392509	7.110684	0.020299	0.042473	-0.060812	-0.019043	-0.770264	-0.832764	11.755352	43.261147	20.620667
18765		-6.764416	1.458868	7.071497	0.031900	0.042933	-0.051998	-0.022705	-0.761475	-0.826416	11.755423	43.287935	20.591109
18766		-6.774607	1.508202	7.047769	0.040886	0.042301	-0.051503	-0.027100	-0.762695	-0.823486	11.761020	43.314194	20.561982
18767		-6.787265	1.516903	7.127821	0.049266	0.043083	-0.050605	-0.018311	-0.760254	-0.826416	11.771764	43.340906	20.533505
18768		-6.746044	1.592788	7.149196	0.066279	0.043497	-0.054549	-0.021729	-0.766357	-0.816162	11.790400	43.368201	20.502210
18769		-6.754688	1.598988	7.186700	0.087606	0.047567	-0.059361	-0.019775	-0.758545	-0.813721	11.818951	43.398461	20.467701
18770		-6.753676	1.642761	7.192084	0.111894	0.054075	-0.058789	-0.026611	-0.758545	-0.820801	11.862631	43.432210	20.434852
18771		-6.736392	1.696500	7.211456	0.135446	0.068780	-0.065830	-0.014160	-0.767822	-0.819092	11.917522	43.475156	20.398827
18772		-6.741689	1.611624	7.214484	0.151305	0.074541	-0.066199	-0.018555	-0.768799	-0.824219	11.982141	43.521301	20.363643
18773		-6.791699	1.474831	7.218235	0.154012	0.084042	-0.056311	-0.010498	-0.769043	-0.820313	12.054492	43.571712	20.337575
18774		-6.683709	1.319905	7.326174	0.155058	0.124577	-0.054050	-0.014648	-0.773438	-0.827637	12.133484	43.644495	20.320182
18775		-6.791450	1.226846	7.243408	0.171691	0.181284	-0.051648	-0.013916	-0.780518	-0.818115	12.229726	43.748844	20.314113
18776		-6.779075	1.281014	7.211363	0.185343	0.213766	-0.040255	-0.009766	-0.775635	-0.819336	12.344060	43.869918	20.322773
18777		-6.796095	1.314930	7.218991	0.194092	0.251442	-0.037169	-0.013428	-0.769531	-0.812256	12.469606	44.011750	20.340478
18778		-6.639114	1.454908	7.475627	0.195158	0.277399	-0.042794	-0.004639	-0.785400	-0.810547	12.596416	44.168702	20.358941
18779		-6.851658	1.618089	7.224605	0.166582	0.322725	-0.056439	-0.003174	-0.775879	-0.806641	12.705129	44.352728	20.375020
18780		-6.735593	1.530113	7.214593	0.147903	0.347957	-0.073514	0.002197	-0.787842	-0.811768	12.797525	44.552943	20.382886
18781		-6.703135	1.665035	7.279060	0.117600	0.393875	-0.094831	0.014648	-0.783691	-0.801025	12.866656	44.781548	20.382468
18782		-6.862861	1.590788	7.084069	0.121521	0.431377	-0.113240	0.008057	-0.796875	-0.804443	12.933064	45.033419	20.374868
18783		-6.888297	1.743671	7.262223	0.108846	0.468893	-0.124112	0.012207	-0.780762	-0.812744	12.990948	45.307654	20.365667
18784		-6.810783	1.579047	7.120712	0.114205	0.517764	-0.137899	0.020508	-0.790039	-0.807129	13.050945	45.610943	20.355025
18785		-6.968921	1.340690	7.038614	0.136190	0.539903	-0.126887	0.024658	-0.795166	-0.800049	13.132875	45.925158	20.357610
18786		-6.977613	1.383456	7.055075	0.145336	0.567807	-0.110349	0.039063	-0.789795	-0.789307	13.234191	46.252783	20.379678
18787		-7.007664	1.331569	6.992503	0.157062	0.608440	-0.100732	0.042969	-0.790771	-0.792236	13.354091	46.601744	20.418146
18788		-7.091513	1.324000	6.956069	0.171823	0.635370	-0.084832	0.056396	-0.790039	-0.789795	13.497146	46.963560	20.476410
18789		-7.125881	1.366209	6.875820	0.186417	0.662411	-0.069014	0.050293	-0.793213	-0.788086	13.663306	47.338160	20.554593
18790		-7.140816	1.527046	6.780579	0.194491	0.687762	-0.059539	0.063965	-0.796143	-0.791992	13.845923	47.725453	20.648180
18791		-7.221161	1.450471	6.733326	0.188408	0.717508	-0.056538	0.076416	-0.798096	-0.779297	14.033504	48.128613	20.752725
18792		-7.226904	1.579812	6.639785	0.195996	0.749175	-0.054036	0.074951	-0.794678	-0.770264	14.234942	48.548830	20.869168
18793		-7.306043	1.544399	6.596785	0.188197	0.772890	-0.050598	0.082764	-0.795654	-0.775635	14.440632	48.981379	20.996606
18794		-7.332487	1.621108	6.546547	0.189473	0.790927	-0.046484	0.089844	-0.802002	-0.772461	14.656351	49.423095	21.135322
18795		-7.406377	1.667613	6.517682	0.181885	0.822055	-0.047740	0.096680	-0.807861	-0.760986	14.875586	49.881811	21.283586
18796		-7.417774	1.729146	6.454731	0.175899	0.842587	-0.052580	0.113037	-0.802246	-0.756592	15.096135	50.352317	21.436864
18797		-7.482172	1.743973	6.355243	0.164968	0.875988	-0.058133	0.120850	-0.809814	-0.750977	15.316688	50.841646	21.597348
18798		-7.513201	1.792017	6.344374	0.150377	0.904319	-0.063413	0.127441	-0.809326	-0.755615	15.535497	51.347129	21.765048
18799		-7.576302	1.884663	6.331027	0.138925	0.937517	-0.073339	0.133301	-0.806885	-0.744385	15.751819	51.871944	21.936894
18800		-7.608604	1.880808	6.338766	0.123503	0.970969	-0.083026	0.141113	-0.813477	-0.735596	15.964657	52.416424	22.114116
18801		-7.696071	1.984273	6.326781	0.106346	1.006983	-0.096355	0.153809	-0.817383	-0.738037	16.170636	52.982306	22.293899
18802		-7.732567	1.902570	6.400554	0.100317	1.060948	-0.116014	0.158447	-0.817627	-0.732666	16.376404	53.580768	22.476215
18803		-7.777739	1.893278	6.397524	0.100948	1.122555	-0.138283	0.177490	-0.805420	-0.721924	16.585452	54.216128	22.660833
18804		-7.827404	1.898848	6.446601	0.103944	1.194459	-0.154725	0.190674	-0.818604	-0.711670	16.807515	54.893413	22.857671
18805		-8.037812	1.853362	6.431153	0.123289	1.285745	-0.178968	0.197266	-0.819336	-0.717285	17.051326	55.624096	23.065921
18806		-8.187882	1.896635	6.306584	0.137849	1.371022	-0.195050	0.214600	-0.822510	-0.704590	17.321972	56.403853	23.294476
18807		-8.430564	2.001196	6.037899	0.152787	1.449178	-0.219780	0.225830	-0.813721	-0.700195	17.612376	57.229686	23.534422
18808		-8.775774	2.002282	5.978918	0.198263	1.511166	-0.253464	0.240967	-0.814209	-0.689453	17.930862	58.094779	23.774371
18809		-9.220422	1.984081	5.946990	0.294204	1.550448	-0.272995	0.258545	-0.822998	-0.674072	18.313681	58.983652	24.023136
18810		-9.695843	2.377408	6.077239	0.372800	1.584045	-0.284972	0.272949	-0.824463	-0.663086	18.759834	59.892284	24.290703
18811		-9.451547	2.977295	6.063591	0.382628	1.647542	-0.325635	0.287109	-0.827393	-0.652588	19.214634	60.841483	24.559342
18812		-9.222134	3.439707	6.055027	0.311122	1.784302	-0.430944	0.299072	-0.823242	-0.638916	19.594726	61.883957	24.786845
18813		-9.540146	3.431991	6.062901	0.240364	1.925346	-0.545071	0.320557	-0.814209	-0.625244	19.889441	63.023536	24.961561
18814		-9.973258	3.159233	5.935476	0.216133	1.983459	-0.647501	0.338135	-0.821045	-0.613281	20.100487	64.214488	25.056505
18815		-10.310584	3.065775	5.547844	0.256470	1.974291	-0.732134	0.352295	-0.813965	-0.603027	20.246338	65.416631	25.052975
18816		-10.643086	3.249063	5.209260	0.299004	1.909149	-0.853343	0.381104	-0.823242	-0.594971	20.244527	66.608253	24.861136
18817		-10.945954	3.058934	4.784331	0.296954	1.767196	-0.964785	0.391113	-0.819824	-0.563721	20.016778	67.744811	24.427170
18818		-10.801162	2.782429	4.464281	0.260101	1.544288	-1.044711	0.417480	-0.818848	-0.560791	19.511182	68.776094	23.720139
18819		-9.960541	2.078427	4.433181	0.245179	1.280753	-1.099725	0.423828	-0.800293	-0.547852	18.724185	69.671467	22.725910
18820		-8.807321	1.165922	4.377486	0.278574	1.022536	-1.160325	0.437988	-0.810547	-0.541504	17.656096	70.431874	21.417596
18821		-7.610920	0.481181	5.291601	0.488562	0.707587	-1.182402	0.440918	-0.804932	-0.530029	16.433111	71.013780	19.823179
18822		-6.288125	-0.060796	6.152793	0.721248	0.448475	-1.375165	0.448730	-0.799805	-0.525146	14.825365	71.469923	17.686589
18823		-9.394333	-1.093821	5.902271	0.912300	0.229021	-1.689724	0.471436	-0.790771	-0.509766	12.616938	71.822811	14.806891
18824		-8.917047	-0.437452	6.272419	1.159553	-0.123298	-1.712274	0.474365	-0.792236	-0.500244	10.309742	71.945127	11.678134
18825		-6.727276	0.997489	6.177172	1.250253	-0.473121	-1.690687	0.470947	-0.789307	-0.506104	7.981525	71.827180	8.472637
18826		-5.296557	1.408116	6.011840	1.181937	-0.687251	-1.675099	0.469971	-0.783936	-0.507324	5.649142	71.546756	5.300309
18827		-4.225965	1.448163	5.949650	1.092593	-0.751205	-1.602881	0.476074	-0.785156	-0.499023	3.470415	71.186422	2.338193
18828		-3.781750	1.432319	5.927644	0.994473	-0.752467	-1.462116	0.476807	-0.791992	-0.501709	1.567710	70.789432	-0.279179
18829		-3.680361	1.432828	5.857184	0.885858	-0.747246	-1.252435	0.475098	-0.784180	-0.501221	0.035829	70.367141	-2.443996
18830		-3.895439	1.423942	5.936632	0.783070	-0.784490	-0.989745	0.469482	-0.778076	-0.491943	-1.062545	69.909735	-4.091142
18831		-4.127511	1.480877	6.046603	0.679170	-0.858423	-0.704387	0.467773	-0.788086	-0.498047	-1.716503	69.404012	-5.206039
18832		-4.268152	1.543161	6.199926	0.586863	-0.958650	-0.412516	0.458984	-0.778320	-0.495361	-1.942398	68.844735	-5.809968
18833		-4.312604	1.569843	6.236114	0.506168	-1.077977	-0.139387	0.457031	-0.790283	-0.505127	-1.791468	68.220439	-5.961914
18834		-4.257717	1.622173	6.296670	0.425195	-1.187024	0.114275	0.438721	-0.795166	-0.505371	-1.330527	67.539604	-5.729649
18835		-4.330598	1.530490	6.373219	0.340123	-1.273822	0.342245	0.433105	-0.800293	-0.501709	-0.628042	66.808559	-5.181484
18836		-4.490357	1.280381	6.433609	0.282204	-1.342714	0.565983	0.423096	-0.814941	-0.526367	0.291876	66.037337	-4.356563
18837		-4.742499	1.171726	6.571778	0.229843	-1.418843	0.789446	0.407715	-0.828857	-0.525635	1.406476	65.212771	-3.280114
18838		-5.178405	1.176182	6.761885	0.179396	-1.504655	0.990044	0.388428	-0.832520	-0.533447	2.656713	64.328080	-2.014084
18839		-5.649204	1.162550	6.922220	0.115734	-1.605886	1.163742	0.373291	-0.850342	-0.537842	3.980437	63.365506	-0.615962
18840		-6.155002	1.074354	7.070293	0.050703	-1.709798	1.313629	0.361084	-0.843018	-0.545654	5.325467	62.324840	0.860547
18841		-6.550980	0.939033	7.036698	-0.014698	-1.817107	1.426630	0.329102	-0.864014	-0.551758	6.637907	61.198411	2.357087
18842		-6.885257	0.924295	7.078705	-0.057468	-1.925099	1.512614	0.306396	-0.866943	-0.569580	7.890522	59.991328	3.830174
18843		-7.156221	0.969210	7.032318	-0.106191	-2.011248	1.544611	0.279297	-0.880371	-0.572998	9.029020	58.715225	5.221447
18844		-7.387819	1.139905	7.024450	-0.154173	-2.051967	1.558939	0.263672	-0.889893	-0.588623	10.047971	57.404324	6.523660
18845		-7.657303	1.469491	6.752193	-0.209727	-2.055089	1.545842	0.237549	-0.901123	-0.592285	10.935856	56.078959	7.726381
18846		-7.634806	1.857409	6.628745	-0.299599	-2.000151	1.529011	0.209717	-0.906738	-0.611328	11.690793	54.779846	8.848992
18847		-7.825808	1.953215	6.687726	-0.408684	-1.880610	1.550025	0.189209	-0.917480	-0.622803	12.354726	53.534560	9.954100
18848		-8.231246	2.246587	6.840728	-0.530975	-1.738450	1.609679	0.158691	-0.925781	-0.626709	12.959016	52.357047	11.089753
18849		-9.201106	2.708999	6.999280	-0.679691	-1.632453	1.701594	0.128174	-0.928467	-0.637695	13.508829	51.216850	12.282348
18850		-9.895122	2.901962	7.119006	-0.839683	-1.615598	1.792634	0.115967	-0.923584	-0.648438	13.981421	50.070014	13.512938
18851		-10.378234	2.985611	6.991744	-0.986262	-1.664646	1.889259	0.078857	-0.935547	-0.651123	14.375938	48.873599	14.772590
18852		-10.405607	2.801078	6.737267	-1.114141	-1.723687	1.962862	0.054932	-0.920898	-0.676514	14.684862	47.631751	16.039326
18853		-10.171815	2.623568	6.596789	-1.187803	-1.738276	2.021716	0.020020	-0.931885	-0.680176	14.937048	46.366266	17.311832
18854		-10.039925	2.549373	6.383743	-1.229555	-1.684247	2.026799	-0.021240	-0.915283	-0.699707	15.131588	45.129373	18.563932
18855		-10.039241	2.587751	6.168118	-1.248820	-1.590555	1.970638	-0.045166	-0.918945	-0.706787	15.257753	43.947581	19.761045
18856		-10.259037	2.545747	5.907481	-1.245793	-1.497068	1.854030	-0.071777	-0.913330	-0.713867	15.303561	42.836504	20.863592
18857		-10.466312	2.280714	5.740322	-1.192235	-1.409922	1.672330	-0.104004	-0.902832	-0.726318	15.272310	41.798403	21.828864
18858		-10.732724	1.992451	5.492690	-1.073755	-1.338462	1.461200	-0.120117	-0.898438	-0.737061	15.194417	40.834828	22.639464
18859		-10.729793	1.543764	5.121975	-0.891125	-1.288677	1.228129	-0.147461	-0.895508	-0.746338	15.101512	39.932266	23.281091
18860		-10.456654	1.230919	4.688336	-0.661813	-1.216504	0.983110	-0.175781	-0.890137	-0.732422	15.025839	39.109176	23.754678
18861		-9.968843	1.004378	4.414152	-0.415826	-1.112803	0.749438	-0.187012	-0.891846	-0.730957	14.991798	38.376430	24.077885
18862		-9.752994	0.917080	4.200955	-0.173603	-0.966920	0.546547	-0.205566	-0.889648	-0.745117	15.021015	37.756599	24.283111
18863		-9.936179	1.143018	3.978209	0.005840	-0.818472	0.378385	-0.221436	-0.884521	-0.740234	15.095310	37.241985	24.396497
18864		-10.023767	1.640090	3.711694	0.097817	-0.716825	0.226135	-0.237549	-0.884033	-0.728516	15.168891	36.808050	24.422052
18865		-10.076293	2.155955	3.446575	0.090660	-0.636497	0.085048	-0.239502	-0.890625	-0.724121	15.188568	36.438168	24.364706
18866		-9.936049	2.252344	3.238628	0.021537	-0.571639	-0.040156	-0.245605	-0.888428	-0.729248	15.125754	36.124409	24.234077
18867		-9.439893	1.858359	2.978904	-0.014124	-0.473698	-0.119605	-0.256592	-0.888672	-0.719727	15.022104	35.875308	24.068102
18868		-9.044527	1.371358	2.800981	-0.004277	-0.332047	-0.149934	-0.258789	-0.891357	-0.729736	14.928357	35.710083	23.908331
18869		-8.811472	1.190372	2.670413	0.045520	-0.170988	-0.144009	-0.261963	-0.881592	-0.718994	14.882958	35.632083	23.782251
18870		-8.720409	1.257431	2.638648	0.094076	-0.020904	-0.111462	-0.263672	-0.889648	-0.722656	14.894394	35.633285	23.705676
18871		-8.712346	1.375568	2.731217	0.122838	0.112134	-0.085087	-0.265381	-0.894287	-0.722412	14.946714	35.703649	23.671152
18872		-8.769161	1.462506	2.832852	0.127973	0.205087	-0.057591	-0.264893	-0.898438	-0.716797	15.022947	35.822056	23.672459
18873		-7.075401	0.795060	5.601456	0.062001	0.381073	-0.058995	-0.265381	-0.899170	-0.715576	15.079833	36.037682	23.705286
18874		-7.647608	3.443368	1.259056	-0.122574	1.144316	-0.090138	-0.253662	-0.897705	-0.721436	15.102579	36.680521	23.858495
18875		-6.379253	0.515726	2.329642	-0.302531	1.400143	-0.179108	-0.239746	-0.896484	-0.718750	15.015946	37.478047	23.998744
18876		-3.038119	2.180173	8.702963	-0.489550	1.829306	-0.218660	-0.219238	-0.889404	-0.722168	14.856070	38.519408	24.191181
18877		-11.085490	3.846068	8.576408	-0.619281	1.991142	-0.601628	-0.210938	-0.881104	-0.729004	14.469123	39.706570	24.136886
18878		-39.601285	1.235303	7.581800	-1.235072	1.272823	-0.979251	-0.181152	-0.867920	-0.735840	13.455189	40.546084	23.658338
18879		0.036613	-5.079240	6.781598	-0.470182	-1.940268	-0.075641	-0.201416	-0.869873	-0.746582	12.941716	39.470663	23.275343
18880		-0.201059	2.898676	9.077233	-0.555627	-0.140794	-0.381067	-0.203613	-0.862793	-0.739258	12.437851	39.436396	22.980026
18881		-13.053507	2.082455	9.367570	-0.398596	0.296123	-0.165263	-0.202637	-0.860352	-0.746338	12.167181	39.619151	22.910344
18882		-3.590856	0.539676	9.231114	0.056576	-0.175784	0.132783	-0.199707	-0.855957	-0.737305	12.247829	39.501117	22.982706
18883		-7.056936	1.433623	6.804905	-0.076656	0.307812	0.065521	-0.197754	-0.852539	-0.742920	12.269374	39.662322	23.082254
18884		-6.007108	2.725147	7.191356	0.010887	0.138077	0.101285	-0.199707	-0.856689	-0.734619	12.341070	39.723736	23.181385
18885		-6.442489	2.389438	7.143952	-0.038650	0.201103	0.015036	-0.193604	-0.850586	-0.745605	12.350669	39.831302	23.227785
18886		-6.502325	1.654832	7.065085	-0.039152	0.150455	-0.029299	-0.189941	-0.859131	-0.748535	12.334347	39.915588	23.233968
18887		-6.669668	1.540210	7.184686	-0.032593	0.108254	-0.050472	-0.198730	-0.854736	-0.745850	12.307370	39.979217	23.217807
18888		-6.567552	1.836308	7.302701	-0.031307	0.054177	-0.051465	-0.192871	-0.852295	-0.743408	12.275233	40.012312	23.192376
18889		-6.355149	1.727859	7.406339	-0.045179	0.060381	-0.059763	-0.191162	-0.854492	-0.737305	12.231698	40.050266	23.161706
18890		-6.469752	1.632612	7.417683	-0.055706	0.074703	-0.063760	-0.193604	-0.848389	-0.748535	12.181795	40.096316	23.130434
18891		-6.588242	1.192072	7.443027	-0.042072	0.052492	-0.042745	-0.192627	-0.854004	-0.735352	12.147167	40.127759	23.110873
18892		-6.432003	1.301176	7.511802	-0.009268	0.042347	-0.014951	-0.188721	-0.851318	-0.736816	12.143547	40.149776	23.110166
18893		-6.301939	1.668292	7.487153	-0.004302	0.050845	0.002381	-0.191162	-0.855469	-0.740723	12.151670	40.174855	23.123376
18894		-6.358076	1.667350	7.466183	-0.018293	0.066708	-0.003693	-0.191895	-0.852783	-0.742188	12.150689	40.209160	23.134772
18895		-6.352289	1.651649	7.294110	-0.026019	0.065396	-0.006376	-0.192383	-0.846436	-0.735107	12.143728	40.243438	23.143871
18896		-6.406092	1.532275	7.367732	-0.025117	0.060154	-0.010105	-0.192139	-0.846191	-0.739746	12.135140	40.274846	23.149529
18897		-6.454774	1.431717	7.425818	-0.012375	0.065357	-0.004415	-0.198242	-0.857666	-0.739990	12.136933	40.308868	23.160064
18898		-6.420799	1.372751	7.443149	-0.008859	0.067331	0.006248	-0.194336	-0.859375	-0.741699	12.146179	40.342325	23.178878
18899		-6.454266	1.398578	7.420613	0.002903	0.070858	0.010974	-0.185547	-0.849121	-0.747070	12.164629	40.377567	23.201613
18900		-6.462236	1.541661	7.390046	-0.002439	0.074341	0.019818	-0.190918	-0.856201	-0.744629	12.184788	40.413303	23.231563
18901		-6.382250	1.535593	7.405757	-0.004347	0.077924	0.022554	-0.184082	-0.849854	-0.738770	12.205390	40.451089	23.263992
18902		-6.382966	1.623658	7.351184	-0.019107	0.094560	0.018303	-0.191406	-0.845459	-0.747803	12.217439	40.498316	23.296114
18903		-6.423368	1.630376	7.342474	-0.024700	0.097276	0.016092	-0.178711	-0.848145	-0.742188	12.225375	40.547708	23.326937
18904		-6.447706	1.596515	7.252947	-0.036662	0.099929	0.004967	-0.189209	-0.848145	-0.748779	12.221611	40.599554	23.350146
18905		-6.460749	1.531922	7.365344	-0.031714	0.090072	0.011086	-0.184814	-0.855225	-0.739014	12.222449	40.645519	23.376174
18906		-6.484185	1.498022	7.276409	-0.031562	0.085580	0.009233	-0.184570	-0.852539	-0.740967	12.222212	40.688813	23.400269
18907		-6.469910	1.525430	7.313186	-0.027172	0.080541	0.011896	-0.181396	-0.845703	-0.745605	12.225097	40.729343	23.425402
18908		-6.486817	1.582267	7.373864	-0.019883	0.078771	0.013195	-0.189209	-0.855469	-0.751953	12.232801	40.768341	23.451370
18909		-6.495618	1.513064	7.246861	-0.025311	0.071813	0.008738	-0.176514	-0.853271	-0.731445	12.234362	40.804363	23.472807
18910		-6.467215	1.599104	7.281138	-0.022100	0.059251	0.011481	-0.183105	-0.852295	-0.732910	12.237966	40.832637	23.494408
18911		-6.455422	1.583672	7.266022	-0.022899	0.053075	0.008660	-0.175781	-0.845947	-0.746826	12.238935	40.858176	23.512801
18912		-6.510394	1.582649	7.245017	-0.022352	0.046491	0.007827	-0.176514	-0.852051	-0.742188	12.239310	40.879748	23.529666
18913		-6.467085	1.563393	7.276072	-0.017594	0.034182	0.011123	-0.181885	-0.846924	-0.737549	12.242546	40.894410	23.546861
18914		-6.498185	1.518628	7.289494	-0.018351	0.034837	0.000512	-0.180176	-0.846436	-0.739502	12.240451	40.910345	23.556444
18915		-6.449178	1.517663	7.305684	-0.013556	0.034628	0.008896	-0.178467	-0.848389	-0.746338	12.244978	40.925526	23.572069
18916		-6.461851	1.550356	7.300266	-0.010104	0.034825	0.015292	-0.182861	-0.854492	-0.735596	12.254793	40.939657	23.592610
18917		-6.492400	1.575780	7.279814	-0.014903	0.035040	0.006901	-0.178467	-0.845215	-0.742188	12.257634	40.955306	23.606833
18918		-6.530235	1.560946	7.247952	-0.012434	0.026630	0.007631	-0.184326	-0.845215	-0.745361	12.261540	40.965777	23.620386
18919		-6.475541	1.509566	7.283315	-0.008804	0.022317	0.012190	-0.176270	-0.846436	-0.737305	12.269112	40.973659	23.636488
18920		-6.489810	1.520999	7.251389	-0.007806	0.034344	0.013961	-0.180420	-0.847656	-0.753662	12.279574	40.987676	23.655989
18921		-6.495448	1.525030	7.291210	-0.001083	0.035727	0.020014	-0.179932	-0.850830	-0.745117	12.296806	41.002106	23.680068
18922		-6.469191	1.570074	7.273458	-0.004154	0.042140	0.023603	-0.176514	-0.851563	-0.741943	12.314902	41.019301	23.708002
18923		-6.497700	1.455353	7.277804	0.003688	0.037272	0.032692	-0.182129	-0.854004	-0.746338	12.341231	41.033031	23.741762
18924		-6.498210	1.479444	7.301854	0.008342	0.046651	0.030836	-0.179688	-0.857910	-0.748291	12.370526	41.051846	23.775829
18925		-6.505902	1.533961	7.280007	0.021010	0.048406	0.040528	-0.187012	-0.847900	-0.739746	12.411825	41.070815	23.817253
18926		-6.505306	1.535155	7.234501	0.025214	0.047856	0.045053	-0.174561	-0.847900	-0.748535	12.457903	41.088515	23.862124
18927		-6.519676	1.597758	7.296437	0.031369	0.047143	0.042954	-0.187012	-0.854248	-0.742432	12.506243	41.106427	23.905201
18928		-6.501202	1.606509	7.265925	0.030224	0.048225	0.039513	-0.183105	-0.853271	-0.741211	12.552589	41.124966	23.946083
18929		-6.524792	1.676223	7.255273	0.019703	0.055680	0.030706	-0.182861	-0.855469	-0.738770	12.589256	41.149128	23.981542
18930		-6.719710	1.853615	7.235336	0.028841	0.062325	-0.020805	-0.177246	-0.862793	-0.740234	12.606927	41.183052	23.980023
18931		-6.110419	1.396995	7.345605	-0.010569	0.114185	-0.213297	-0.167969	-0.854004	-0.741699	12.513144	41.270342	23.843790
18932		-6.717373	1.706488	7.108363	0.020190	0.040418	0.020928	-0.179932	-0.848877	-0.747070	12.543919	41.286825	23.869651
18933		-6.563070	1.634678	7.153439	-0.002046	0.032237	0.002198	-0.177734	-0.849121	-0.737305	12.551685	41.301434	23.880083
18934		-6.522946	1.619220	7.227475	-0.010148	0.024420	0.001932	-0.177490	-0.852051	-0.745605	12.554015	41.311326	23.889169
18935		-6.526687	1.596538	7.199235	-0.014908	0.024630	-0.006474	-0.174561	-0.851563	-0.740723	12.549325	41.322761	23.891890
18936		-6.523657	1.544552	7.216572	-0.007868	0.020512	0.004516	-0.175781	-0.848389	-0.742676	12.553807	41.330147	23.902256
18937		-6.480708	1.620072	7.283783	-0.008597	0.035045	0.003257	-0.177246	-0.851807	-0.736572	12.558663	41.346194	23.913953
18938		-6.509583	1.620142	7.194046	-0.006802	0.037635	-0.005824	-0.175049	-0.844727	-0.739258	12.560552	41.364442	23.919464
18939		-6.516264	1.622222	7.233611	-0.011958	0.041694	-0.010963	-0.174805	-0.848389	-0.732910	12.557219	41.385976	23.921676
18940		-6.526716	1.580669	7.219571	-0.008090	0.034526	-0.016401	-0.171631	-0.846191	-0.733887	12.552818	41.403804	23.918787
18941		-6.453737	1.625488	7.262591	-0.013198	0.052372	-0.024670	-0.174072	-0.855469	-0.736328	12.543183	41.433015	23.912546
18942		-6.521945	1.633935	7.209789	-0.010782	0.067340	-0.037307	-0.175537	-0.852783	-0.740967	12.530508	41.471795	23.899490
18943		-6.397724	1.604369	7.261365	-0.010079	0.084809	-0.052965	-0.169189	-0.844482	-0.736328	12.512202	41.522658	23.877474
18944		-6.522443	1.705047	7.221468	-0.006358	0.134820	-0.084440	-0.166260	-0.846436	-0.742676	12.486047	41.605023	23.840308
18945		-6.530998	1.510855	7.142475	0.010376	0.131794	-0.089779	-0.168457	-0.854004	-0.745605	12.466210	41.686708	23.798414
18946		-6.617732	1.505741	7.183853	0.017539	0.114579	-0.077098	-0.170654	-0.848145	-0.739502	12.454992	41.756822	23.763233
18947		-6.625463	1.572115	7.142810	0.017886	0.097808	-0.053725	-0.163574	-0.848877	-0.744385	12.453562	41.815026	23.742622
18948		-6.677385	1.540650	7.163038	0.013513	0.081234	-0.038769	-0.165283	-0.852539	-0.745605	12.455444	41.861747	23.730620
18949		-6.616055	1.524830	7.165583	0.009022	0.065651	-0.030559	-0.168457	-0.850830	-0.747803	12.456948	41.899100	23.722051
18950		-6.648576	1.548976	7.142702	0.002420	0.051215	-0.022482	-0.158691	-0.850342	-0.745850	12.457304	41.927012	23.717297
18951		-6.650478	1.569433	7.166634	-0.000319	0.036556	-0.015145	-0.160645	-0.846191	-0.740723	12.457959	41.946184	23.715478
18952		-6.648737	1.565028	7.122711	-0.006294	0.024122	-0.011395	-0.161133	-0.851074	-0.738037	12.455884	41.957569	23.714558
18953		-6.627883	1.519796	7.155715	-0.010478	0.010863	-0.012815	-0.165283	-0.851074	-0.743896	12.449034	41.962079	23.710221
18954		-6.604093	1.565505	7.182384	-0.013421	0.009334	-0.007183	-0.163086	-0.848145	-0.742188	12.443350	41.964670	23.710012
18955		-6.645890	1.579106	7.105965	-0.013229	0.001387	-0.005096	-0.163086	-0.855225	-0.736816	12.437753	41.962924	23.709908
18956		-6.628238	1.584823	7.121791	-0.015846	-0.008178	-0.009867	-0.163574	-0.856689	-0.741455	12.427387	41.956048	23.704773
18957		-6.617152	1.550307	7.126389	-0.017772	-0.014972	-0.007923	-0.162842	-0.847656	-0.737793	12.415955	41.945499	23.699833
18958		-6.643170	1.525939	7.169663	-0.023713	-0.023978	-0.008087	-0.164795	-0.854492	-0.744141	12.400234	41.929560	23.693428
18959		-6.567163	1.549560	7.191232	-0.023746	-0.027408	-0.004180	-0.165771	-0.850098	-0.744629	12.385894	41.911591	23.689257
18960		-6.610698	1.565649	7.159226	-0.028555	-0.028871	-0.004424	-0.168945	-0.844482	-0.742920	12.368712	41.892462	23.684814
18961		-6.592523	1.548832	7.150207	-0.029868	-0.033649	-0.006816	-0.166992	-0.851074	-0.744141	12.348868	41.871319	23.677651
18962		-6.584612	1.564667	7.137824	-0.027548	-0.034126	-0.008123	-0.158447	-0.847656	-0.747314	12.329847	41.849699	23.669584
18963		-6.558416	1.539552	7.201358	-0.034274	-0.033764	-0.009949	-0.159180	-0.847900	-0.735352	12.305916	41.828871	23.660074
18964		-6.613746	1.566049	7.139395	-0.030057	-0.030879	-0.009289	-0.170898	-0.840576	-0.742676	12.285251	41.809207	23.651691
18965		-6.525984	1.508268	7.225441	-0.032368	-0.035582	-0.008375	-0.167969	-0.848633	-0.744385	12.263025	41.787163	23.643093
18966		-6.565340	1.520714	7.151868	-0.030696	-0.027705	-0.004578	-0.166016	-0.844727	-0.744141	12.244716	41.768699	23.638789
18967		-6.583392	1.535724	7.207773	-0.027790	-0.029598	-0.006310	-0.169678	-0.840088	-0.731689	12.226814	41.749748	23.632739
18968		-6.501753	1.577447	7.214233	-0.025868	-0.022801	-0.008246	-0.167480	-0.847900	-0.741455	12.209982	41.734473	23.626497
18969		-6.541296	1.542170	7.200188	-0.024327	-0.013915	-0.011197	-0.176514	-0.839355	-0.744873	12.193332	41.724891	23.619343
18970		-6.517555	1.565359	7.201563	-0.022607	-0.007792	-0.011688	-0.166260	-0.841797	-0.733398	12.178280	41.718435	23.612964
18971		-6.564637	1.559590	7.141175	-0.023552	-0.000848	-0.016183	-0.168701	-0.843018	-0.740234	12.160999	41.716767	23.604193
18972		-6.571814	1.516524	7.129860	-0.029272	-0.005738	-0.021706	-0.164307	-0.835449	-0.741211	12.137350	41.712667	23.590635
18973		-6.525366	1.446979	7.224881	-0.024142	0.000570	-0.015760	-0.167969	-0.850586	-0.750977	12.120098	41.711739	23.582414
18974		-6.508425	1.451729	7.240141	-0.020564	0.011798	-0.009978	-0.160400	-0.844482	-0.739014	12.109177	41.716046	23.580485
18975		-6.488599	1.569580	7.275124	-0.016380	0.025049	-0.008520	-0.166260	-0.843750	-0.737793	12.102603	41.727956	23.581633
18976		-6.552517	1.600252	7.251054	-0.017915	0.033412	-0.012588	-0.160889	-0.842041	-0.742188	12.094210	41.744684	23.581221
18977		-6.547340	1.591846	7.165006	-0.020604	0.039422	-0.016202	-0.163086	-0.842773	-0.740234	12.082913	41.765563	23.578910
18978		-6.544180	1.559704	7.207901	-0.013451	0.043855	-0.021167	-0.169678	-0.847412	-0.743164	12.073896	41.789171	23.573723
18979		-6.590024	1.502683	7.162348	-0.022534	0.049883	-0.021295	-0.161865	-0.852295	-0.743896	12.060056	41.816518	23.569256
18980		-6.575717	1.458938	7.234897	-0.014842	0.054649	-0.022387	-0.163818	-0.843994	-0.742676	12.050771	41.846318	23.564868
18981		-6.545036	1.471126	7.262175	-0.010088	0.057865	-0.017847	-0.169189	-0.845703	-0.742920	12.046632	41.877723	23.564258
18982		-6.572422	1.513430	7.224300	-0.006721	0.071868	-0.014521	-0.159912	-0.856689	-0.742920	12.047791	41.916231	23.568548
18983		-6.571020	1.551789	7.231584	-0.004178	0.075521	-0.021175	-0.164063	-0.841553	-0.743896	12.047256	41.957922	23.568266
18984		-6.612675	1.583656	7.135376	-0.003169	0.078912	-0.028396	-0.163574	-0.845703	-0.743652	12.044220	42.002036	23.563235
18985		-6.591525	1.603730	7.088787	-0.009447	0.078891	-0.037428	-0.166016	-0.843018	-0.741699	12.032818	42.047556	23.551229
18986		-6.604073	1.512121	7.131961	-0.013452	0.080140	-0.043466	-0.159180	-0.848877	-0.741699	12.016374	42.094156	23.534988
18987		-6.628357	1.431795	7.144763	-0.005970	0.075609	-0.039596	-0.152832	-0.838623	-0.741699	12.005470	42.138091	23.520773
18988		-6.643804	1.482503	7.163348	-0.007822	0.079154	-0.049398	-0.165771	-0.849121	-0.740967	11.989081	42.184839	23.499836
18989		-6.609802	1.511812	7.174232	-0.005572	0.080436	-0.046411	-0.154785	-0.845215	-0.739502	11.975406	42.232284	23.481186
18990		-6.651183	1.494013	7.137796	0.001159	0.083546	-0.048478	-0.155518	-0.840088	-0.744141	11.965038	42.281377	23.461590
18991		-6.655732	1.533826	7.186074	0.005966	0.088487	-0.052134	-0.152588	-0.843262	-0.738525	11.955865	42.334008	23.439841
18992		-6.607398	1.528192	7.157836	0.009672	0.085878	-0.055730	-0.155273	-0.843018	-0.733398	11.946858	42.385264	23.415064
18993		-6.659950	1.543420	7.117158	0.015410	0.092509	-0.058395	-0.163574	-0.847168	-0.741211	11.940257	42.440883	23.389151
18994		-6.640818	1.493653	7.102550	0.022430	0.098024	-0.070111	-0.152832	-0.842285	-0.746338	11.932420	42.500647	23.355333
18995		-6.668927	1.529427	7.175808	0.029478	0.104256	-0.070768	-0.155029	-0.852051	-0.736328	11.928711	42.564311	23.321831
18996		-6.678614	1.505506	7.141207	0.038726	0.107606	-0.075570	-0.151855	-0.847656	-0.745605	11.928331	42.630089	23.285319
18997		-6.723491	1.397728	7.108409	0.046543	0.109661	-0.074178	-0.148438	-0.851074	-0.745361	11.933125	42.697184	23.250017
18998		-6.703362	1.393091	7.146549	0.057707	0.108458	-0.062395	-0.140381	-0.845459	-0.742188	11.950436	42.761884	23.223639
18999		-6.757163	1.411601	7.103378	0.070414	0.110985	-0.053948	-0.146240	-0.852295	-0.747314	11.979469	42.827332	23.203979
19000		-6.742925	1.486925	7.035430	0.070630	0.103042	-0.051882	-0.154541	-0.848633	-0.740479	12.009027	42.887763	23.184785
19001		-6.738745	1.546983	7.024613	0.073928	0.099093	-0.052580	-0.140869	-0.851563	-0.742920	12.039469	42.946399	23.164284
19002		-6.740613	1.567046	7.002089	0.069685	0.092753	-0.049381	-0.138184	-0.846924	-0.740234	12.068650	43.000780	23.145372
19003		-6.782384	1.483543	6.997391	0.062081	0.082024	-0.059802	-0.139893	-0.849365	-0.738281	12.086620	43.050733	23.116578
19004		-6.772244	1.469775	6.979984	0.056624	0.075056	-0.051841	-0.138428	-0.850342	-0.735596	12.105035	43.095505	23.092896
19005		-6.749946	1.445208	6.993933	0.055744	0.064728	-0.049281	-0.133789	-0.856201	-0.737305	12.122912	43.134520	23.069327
19006		-6.760088	1.448980	7.030772	0.052655	0.060740	-0.046521	-0.137939	-0.855713	-0.739502	12.140212	43.170643	23.047374
19007		-6.793071	1.474418	7.006239	0.050107	0.063987	-0.047742	-0.139160	-0.847900	-0.736328	12.155560	43.209067	23.024865
19008		-6.791998	1.562084	6.952558	0.042154	0.059502	-0.052046	-0.137451	-0.857666	-0.734131	12.163772	43.245171	22.998457
19009		-6.830110	1.519717	7.004405	0.029516	0.048295	-0.056993	-0.136719	-0.850098	-0.735596	12.160636	43.275929	22.966220
19010		-6.783883	1.497270	6.994547	0.028871	0.038633	-0.055857	-0.130859	-0.849854	-0.734375	12.156814	43.300804	22.933392
19011		-6.791759	1.589739	7.026290	0.027543	0.039039	-0.057895	-0.135254	-0.849365	-0.743896	12.150975	43.326483	22.898893
19012		-6.732872	1.647347	7.040710	0.029261	0.032364	-0.061971	-0.128174	-0.855713	-0.736572	12.143389	43.348579	22.860284
19013		-6.775819	1.585609	7.108638	0.033746	0.045318	-0.067773	-0.140381	-0.859131	-0.738525	12.136552	43.378957	22.819184
19014		-6.706903	1.585161	7.213360	0.046446	0.058267	-0.071089	-0.134033	-0.853760	-0.730957	12.136874	43.416656	22.777797
19015		-6.724483	1.547747	7.237633	0.069181	0.085707	-0.070698	-0.135498	-0.857178	-0.731689	12.153327	43.470003	22.741098
19016		-6.749842	1.494006	7.274516	0.099996	0.118380	-0.067485	-0.132813	-0.850342	-0.736084	12.193055	43.540953	22.712466
19017		-6.777389	1.464750	7.335429	0.134915	0.154041	-0.063610	-0.130127	-0.863037	-0.732422	12.258783	43.631729	22.692707
19018		-6.774087	1.457501	7.310752	0.162234	0.187331	-0.055899	-0.132324	-0.861084	-0.729736	12.348436	43.739911	22.684823
19019		-6.789885	1.444613	7.267711	0.180233	0.220730	-0.047445	-0.122314	-0.867920	-0.726563	12.456831	43.866044	22.689277
19020		-6.785529	1.321637	7.292354	0.203279	0.240081	-0.039730	-0.119629	-0.856201	-0.724121	12.585376	44.001743	22.703588
19021		-6.787870	1.386083	7.341351	0.209473	0.271641	-0.032185	-0.114502	-0.869873	-0.721436	12.725525	44.154393	22.729593
19022		-6.785891	1.428362	7.205375	0.209049	0.298290	-0.026969	-0.119873	-0.869873	-0.726074	12.872259	44.320943	22.765159
19023		-6.742025	1.473087	7.245051	0.203154	0.325827	-0.028536	-0.110840	-0.878174	-0.715332	13.018551	44.503267	22.804968
19024		-6.789056	1.527913	7.183097	0.192132	0.359837	-0.032725	-0.111816	-0.861816	-0.716553	13.161454	44.704780	22.848652
19025		-6.811716	1.488378	7.174381	0.183468	0.399334	-0.039451	-0.110107	-0.873291	-0.724854	13.301284	44.929370	22.895017
19026		-6.899958	1.418231	6.984999	0.183726	0.416769	-0.032662	-0.107422	-0.871582	-0.719971	13.448445	45.162452	22.951184
19027		-6.885827	1.503924	6.981104	0.191233	0.436021	-0.028308	-0.100342	-0.872070	-0.710205	13.605650	45.405798	23.015371
19028		-6.947493	1.628955	7.031411	0.188579	0.453618	-0.024289	-0.096436	-0.879883	-0.716553	13.767401	45.658040	23.087616
19029		-6.881398	1.764060	6.869999	0.180979	0.493890	-0.036243	-0.093750	-0.873779	-0.713623	13.924557	45.934397	23.159373
19030		-6.988323	1.490134	6.935945	0.186796	0.513963	-0.039492	-0.082275	-0.879883	-0.709717	14.087652	46.222008	23.234236
19031		-6.972693	1.679081	6.972693	0.190623	0.543367	-0.036148	-0.083984	-0.881348	-0.700439	14.260374	46.525529	23.319170
19032		-7.072155	1.516166	6.895015	0.199032	0.576940	-0.029773	-0.071533	-0.891602	-0.708008	14.448702	46.846395	23.418324
19033		-7.131224	1.451688	6.869490	0.203844	0.608685	-0.021812	-0.064697	-0.883789	-0.700439	14.651136	47.183668	23.532630
19034		-7.194755	1.416077	6.794478	0.214790	0.636256	-0.006358	-0.063232	-0.886230	-0.705322	14.876189	47.533485	23.668356
19035		-7.207487	1.448187	6.777708	0.234965	0.667140	0.009755	-0.060059	-0.889648	-0.699707	15.130180	47.897785	23.826979
19036		-7.250569	1.533325	6.688348	0.240065	0.697580	0.022319	-0.043213	-0.887695	-0.696289	15.403681	48.276350	24.006790
19037		-7.264813	1.749735	6.644949	0.243998	0.723218	0.032498	-0.048828	-0.895508	-0.696777	15.693794	48.667064	24.204889
19038		-7.256498	1.674762	6.582284	0.236127	0.755839	0.032109	-0.041748	-0.899414	-0.685303	15.989736	49.074986	24.415323
19039		-7.296294	1.864560	6.531717	0.232548	0.789542	0.033418	-0.035156	-0.902832	-0.692139	16.295168	49.500655	24.639840
19040		-7.364307	1.959702	6.512652	0.217908	0.828584	0.029022	-0.020020	-0.906006	-0.665527	16.602537	49.947563	24.876253
19041		-7.356155	1.959772	6.536950	0.198074	0.874052	0.026718	-0.010010	-0.901611	-0.676514	16.911502	50.419086	25.128126
19042		-7.201500	2.112023	6.694099	0.179149	0.969863	0.017698	-0.003174	-0.906494	-0.668945	17.230250	50.943594	25.404683
19043		-6.973509	2.187177	6.879470	0.157645	1.132967	0.017340	-0.002930	-0.906982	-0.669678	17.579077	51.556390	25.733552
19044		-6.810595	2.348333	7.016222	0.159625	1.386413	-0.031802	0.010010	-0.905762	-0.662598	17.963161	52.314653	26.102491
19045		-6.681212	2.387969	7.033076	0.179506	1.748170	-0.092000	0.034912	-0.908691	-0.655273	18.416796	53.278923	26.540338
19046		-7.614943	2.220074	6.604513	0.209323	2.034502	-0.126482	0.052246	-0.908936	-0.654053	18.959210	54.402588	27.060923
19047		-8.141669	2.560463	6.327055	0.272089	2.202301	-0.184553	0.062500	-0.914795	-0.648682	19.572396	55.624766	27.616552
19048		-9.305368	2.923673	5.747060	0.319929	2.149289	-0.304753	0.085449	-0.916992	-0.630615	20.141173	56.838483	28.077638
19049		-10.102753	2.635841	5.366626	0.355159	1.891032	-0.399345	0.106201	-0.912109	-0.623047	20.604131	57.929895	28.383217
19050		-11.096340	2.493427	4.996960	0.418311	1.503592	-0.441570	0.113281	-0.919678	-0.620117	20.961770	58.821232	28.519224
19051		-11.712340	3.030561	4.967322	0.516574	1.033124	-0.453432	0.126221	-0.930176	-0.602783	21.213927	59.463064	28.465759
19052		-10.751163	3.460497	4.836248	0.479217	0.806720	-0.554457	0.134766	-0.912598	-0.606201	21.273915	60.005089	28.214828
19053		-10.485276	3.684951	5.288254	0.336446	0.588152	-0.629308	0.142334	-0.920166	-0.596924	21.097607	60.445709	27.787192
19054		-9.382873	2.870786	5.987141	0.089716	0.348810	-0.704548	0.150391	-0.915283	-0.591309	20.611589	60.772306	27.167923
19055		-7.949056	1.744221	6.669039	-0.050817	0.141121	-0.757055	0.158447	-0.924561	-0.590820	19.908158	60.994463	26.393636
19056		-6.189391	1.067072	7.222600	-0.015947	0.008783	-0.805247	0.161621	-0.909668	-0.592041	19.121426	61.149508	25.502742
