// General information: 
//  MT Manager version: 2022.2.0 
//  XDA version: 2022.2.0 build 7381 rev 124627 built on 2023-07-19
// Device information: 
//  DeviceId: 00B4C3A0
//  ProductCode: MTW2-3A7G6
//  Firmware Version: 4.6.0
//  Hardware Version: 2.0.0
// Device settings: 
//  Filter Profile: human(46.1)
//  Option Flags: Orientation Smoother Disabled, Position/Velocity Smoother Disabled, Continuous Zero Rotation Update Disabled, AHS Disabled, ICC Disabled
// Coordinate system: ENU
PacketCounter	SampleTimeFine	Acc_X	Acc_Y	Acc_Z	Gyr_X	Gyr_Y	Gyr_Z	Mag_X	Mag_Y	Mag_Z	Roll	Pitch	Yaw
33390		9.548847	0.450522	-1.055750	-0.012270	0.004494	0.001624	-0.360596	-0.169922	0.683838	151.851125	-81.039070	-4.743735
33391		9.556896	0.428048	-1.050692	-0.016914	0.000111	-0.000188	-0.359375	-0.171387	0.685791	151.846911	-81.037908	-4.744023
33392		9.567644	0.438478	-1.019594	-0.009933	-0.001742	0.002524	-0.368164	-0.172607	0.678467	151.860882	-81.045407	-4.758095
33393		9.554892	0.406627	-1.023763	-0.006289	-0.000096	-0.000191	-0.357666	-0.177246	0.693359	151.863102	-81.044140	-4.758732
33394		9.562172	0.372580	-1.072385	0.017002	-0.000240	-0.002033	-0.352783	-0.178711	0.692627	151.874077	-81.051439	-4.754836
33395		9.572218	0.371266	-1.094436	0.023163	0.005648	0.001122	-0.367432	-0.180908	0.689209	151.887531	-81.053429	-4.749764
33396		9.601084	0.357987	-1.080098	0.027802	0.010487	-0.007215	-0.360596	-0.171143	0.689209	151.869411	-81.064470	-4.711009
33397		9.615953	0.411699	-1.101749	0.027064	0.018098	-0.008997	-0.354248	-0.174561	0.680420	151.831151	-81.070014	-4.651326
33398		9.614136	0.390879	-1.072877	0.027451	0.022655	-0.009219	-0.357910	-0.175049	0.687500	151.786822	-81.086323	-4.585388
33399		9.608355	0.435497	-1.102349	0.023155	0.028490	-0.010510	-0.362305	-0.171631	0.681641	151.723254	-81.096687	-4.502358
33400		9.578497	0.439810	-1.033072	0.019248	0.027689	-0.011280	-0.355957	-0.172119	0.686279	151.657884	-81.115165	-4.419980
33401		9.580751	0.462064	-1.057555	0.008970	0.026919	-0.010021	-0.354492	-0.172363	0.682129	151.590086	-81.124841	-4.340902
33402		9.573600	0.496858	-1.006691	0.010354	0.023025	-0.004974	-0.352539	-0.181152	0.681152	151.548701	-81.142139	-4.288020
33403		9.542365	0.477455	-1.044596	0.004413	0.021953	-0.003906	-0.359619	-0.170654	0.682129	151.506432	-81.150964	-4.237427
33404		9.550610	0.455144	-1.037666	-0.000011	0.022387	-0.001495	-0.355957	-0.176758	0.687744	151.470265	-81.168914	-4.196732
33405		9.561480	0.465772	-1.004700	0.004369	0.016422	-0.002422	-0.355957	-0.180664	0.682617	151.442310	-81.175351	-4.160654
33406		9.550952	0.455670	-1.034285	-0.003778	0.015791	-0.005225	-0.361816	-0.174805	0.692139	151.402998	-81.188930	-4.119342
33407		9.509599	0.437492	-1.050766	-0.006639	0.012068	-0.002207	-0.354492	-0.175537	0.675537	151.377019	-81.193229	-4.091646
33408		9.520377	0.448032	-1.018564	-0.007984	0.009851	0.002154	-0.351318	-0.168457	0.679443	151.369968	-81.205999	-4.084690
33409		9.499729	0.438773	-1.026626	-0.015349	0.007141	-0.000346	-0.356934	-0.170410	0.685059	151.353730	-81.208330	-4.071904
33410		9.528555	0.425459	-1.012320	-0.013964	0.003246	0.004704	-0.357178	-0.170166	0.687256	151.364991	-81.218053	-4.086043
33411		9.553460	0.477475	-1.056938	-0.023241	0.005668	0.000332	-0.349609	-0.176025	0.687744	151.349044	-81.219829	-4.078126
33412		9.564177	0.488066	-1.025195	-0.022896	0.004694	0.001594	-0.361328	-0.175049	0.678223	151.342174	-81.229387	-4.079549
33413		9.592980	0.474890	-1.011007	-0.024067	0.002214	0.001510	-0.357910	-0.175293	0.682129	151.335729	-81.229750	-4.081727
33414		9.584407	0.486079	-1.068839	-0.023981	0.002085	-0.000713	-0.359619	-0.179443	0.688477	151.323807	-81.237875	-4.079208
33415		9.569629	0.433057	-1.045909	-0.022072	-0.003047	0.001154	-0.366943	-0.174316	0.680420	151.326729	-81.235495	-4.089706
33416		9.572250	0.466326	-1.019545	-0.029839	0.000882	-0.001873	-0.361084	-0.172852	0.687988	151.309165	-81.243035	-4.084760
33417		9.567522	0.412182	-1.019139	-0.026456	-0.008277	0.002818	-0.355957	-0.172363	0.687744	151.324348	-81.238484	-4.110204
33418		9.559443	0.434757	-1.024438	-0.033968	-0.005193	0.003274	-0.352783	-0.172607	0.683594	151.333789	-81.243942	-4.134066
33419		9.580134	0.444040	-1.015941	-0.033190	-0.007272	0.003574	-0.354980	-0.179688	0.693115	151.345778	-81.240102	-4.160183
33420		9.549845	0.447229	-0.949954	-0.032502	-0.009222	0.006094	-0.358643	-0.182129	0.685547	151.372735	-81.243897	-4.201735
33421		9.549187	0.435625	-1.004030	-0.026472	-0.008277	0.002810	-0.351807	-0.181396	0.678955	151.387852	-81.239340	-4.227122
33422		9.590000	0.442767	-1.040172	-0.024434	-0.008004	0.000974	-0.359375	-0.175537	0.687988	151.399357	-81.242435	-4.249712
33423		9.590546	0.454509	-0.987180	-0.022353	-0.002197	-0.002337	-0.366455	-0.176025	0.687744	151.389199	-81.239524	-4.247138
33424		9.589915	0.443274	-1.040743	-0.019797	-0.003621	0.002793	-0.349854	-0.171875	0.671387	151.401497	-81.246016	-4.265924
33425		9.629313	0.440789	-0.996055	-0.024481	-0.001874	-0.008430	-0.361572	-0.183105	0.690186	151.369648	-81.241595	-4.242638
33426		9.608544	0.432029	-1.005045	-0.008338	-0.000372	0.001633	-0.353516	-0.174805	0.675293	151.379710	-81.248699	-4.253539
33427		9.589845	0.444404	-1.040901	-0.000259	0.000850	-0.003482	-0.357910	-0.178955	0.677734	151.373040	-81.247005	-4.241687
33428		9.607957	0.421064	-1.058096	0.006425	0.005506	-0.003493	-0.353516	-0.172363	0.683350	151.364384	-81.255609	-4.225185
33429		9.587871	0.423523	-1.013026	0.011591	0.008659	-0.004853	-0.360840	-0.168457	0.668945	151.346069	-81.257465	-4.194683
33430		9.577286	0.413540	-1.043274	0.008418	0.011440	-0.004580	-0.352783	-0.171143	0.686035	151.325093	-81.268833	-4.163277
33431		9.566732	0.403512	-1.073330	0.007981	0.012543	-0.003619	-0.357422	-0.168213	0.691406	151.301733	-81.272977	-4.129763
33432		9.567429	0.415373	-1.018717	0.003380	0.013694	-0.006917	-0.359131	-0.170898	0.683838	151.266687	-81.284748	-4.086358
33433		9.580250	0.447454	-1.013344	0.002290	0.010619	0.000922	-0.358643	-0.170166	0.682861	151.258326	-81.289172	-4.071319
33434		9.546907	0.406472	-1.025537	0.002467	0.010366	-0.003522	-0.360107	-0.170654	0.683350	151.238982	-81.300445	-4.044713
33435		9.549592	0.439695	-0.998383	0.004470	0.005106	-0.003881	-0.353760	-0.170654	0.677979	151.226003	-81.300774	-4.023738
33436		9.590587	0.447078	-1.032896	0.009146	0.015023	-0.003533	-0.354248	-0.178955	0.680664	151.202185	-81.314176	-3.989053
33437		9.646190	0.399299	-0.976937	0.009966	0.018478	-0.004708	-0.365234	-0.177002	0.682373	151.165410	-81.320987	-3.940822
33438		9.638306	0.422040	-0.980208	0.009838	0.013071	-0.001011	-0.353271	-0.177002	0.689453	151.152353	-81.334337	-3.917832
33439		9.611760	0.456841	-1.019553	0.004711	0.015451	-0.001129	-0.360352	-0.178955	0.680908	151.129705	-81.340614	-3.886939
33440		9.632662	0.465987	-1.008972	-0.000595	0.018086	0.003196	-0.362305	-0.176758	0.683105	151.115822	-81.357425	-3.869084
33441		9.604117	0.479119	-1.020848	-0.005632	0.020339	0.000855	-0.358643	-0.174805	0.682617	151.084773	-81.366699	-3.835691
33442		9.565510	0.493350	-1.010118	-0.010120	0.026429	0.004003	-0.365967	-0.169189	0.685547	151.052508	-81.388117	-3.804351
33443		9.503613	0.465240	-1.034738	-0.018844	0.021498	0.005842	-0.360840	-0.171875	0.680420	151.028098	-81.399350	-3.785332
33444		9.545782	0.494902	-0.961126	-0.027880	0.023078	0.004942	-0.368652	-0.176514	0.678955	150.995016	-81.419476	-3.762428
33445		9.550704	0.548996	-0.959433	-0.037047	0.019250	0.007736	-0.362793	-0.170898	0.683838	150.970469	-81.430107	-3.753818
33446		9.527614	0.506390	-0.993169	-0.043041	0.012640	0.010259	-0.365479	-0.174805	0.682861	150.964909	-81.446585	-3.768057
33447		9.556048	0.481224	-1.031532	-0.048125	0.009361	0.009385	-0.369629	-0.173340	0.688721	150.957749	-81.452721	-3.783449
33448		9.506753	0.484621	-1.053282	-0.049581	0.007258	0.015955	-0.361572	-0.173828	0.683350	150.977389	-81.468197	-3.826661
33449		9.494176	0.451921	-1.056758	-0.053063	0.005357	0.014207	-0.361816	-0.179688	0.689941	150.990986	-81.473665	-3.865902
33450		9.515014	0.460429	-1.046961	-0.051029	0.005633	0.012371	-0.365967	-0.171387	0.681641	151.001611	-81.486890	-3.901401
33451		9.515119	0.459768	-1.046291	-0.050255	0.003553	0.012666	-0.358887	-0.176758	0.678467	151.015101	-81.491025	-3.938907
33452		9.566376	0.465194	-1.103046	-0.047581	0.007532	0.014106	-0.366211	-0.176758	0.688477	151.030432	-81.505606	-3.976957
33453		9.613803	0.438689	-1.052461	-0.037188	0.008180	0.010660	-0.362793	-0.181885	0.687744	151.036176	-81.511500	-3.999057
33454		9.593241	0.428796	-1.060350	-0.028547	0.013232	0.011062	-0.359619	-0.175049	0.682129	151.041137	-81.528297	-4.015881
33455		9.642413	0.412947	-1.089606	-0.026314	0.013265	0.004789	-0.358154	-0.167725	0.685059	151.023927	-81.535111	-4.008474
33456		9.624864	0.447376	-1.017343	-0.025626	0.011307	0.007307	-0.355957	-0.176025	0.677490	151.023073	-81.549395	-4.016864
33457		9.622865	0.425275	-0.989101	-0.018936	0.015959	0.007321	-0.363037	-0.179199	0.683838	151.013571	-81.558263	-4.012976
33458		9.612484	0.414480	-1.018844	-0.018247	0.014000	0.009839	-0.363281	-0.182861	0.680908	151.019885	-81.574614	-4.025455
33459		9.584365	0.438464	-0.977741	-0.013707	0.013453	0.005222	-0.354736	-0.184082	0.681396	151.010958	-81.581643	-4.019121
33460		9.584510	0.438030	-0.976517	-0.016931	0.010698	0.006952	-0.357422	-0.180420	0.678711	151.014082	-81.595517	-4.028508
33461		9.546178	0.463124	-0.913552	-0.012484	0.010273	0.004557	-0.365479	-0.183350	0.681152	151.009563	-81.600767	-4.025921
33462		9.568824	0.482615	-0.983569	-0.011219	0.012631	0.002432	-0.360840	-0.176758	0.678223	150.996919	-81.614459	-4.015731
33463		9.558808	0.483226	-0.960079	-0.013809	0.013574	0.007441	-0.359131	-0.173340	0.675293	150.995206	-81.622164	-4.016749
33464		9.556407	0.450135	-0.985158	-0.013236	0.017892	0.002797	-0.359375	-0.178711	0.681396	150.973450	-81.638393	-3.997636
33465		9.556934	0.461081	-0.930190	-0.011223	0.012631	0.002430	-0.369873	-0.176270	0.684082	150.957895	-81.644233	-3.983166
33466		9.577454	0.459015	-0.972925	-0.007714	0.020065	0.002721	-0.359375	-0.174316	0.675049	150.934134	-81.661858	-3.958725
33467		9.606350	0.445242	-0.957135	-0.012610	0.021590	0.006073	-0.353760	-0.182861	0.687012	150.913132	-81.673197	-3.939553
33468		9.567713	0.459333	-0.946651	-0.012074	0.020371	0.002890	-0.348633	-0.178223	0.680908	150.887515	-81.690488	-3.916335
33469		9.578099	0.458386	-0.966846	-0.015894	0.019457	-0.000124	-0.363770	-0.169678	0.680420	150.847322	-81.699028	-3.879671
33470		9.552166	0.504653	-0.952118	-0.019121	0.016701	0.001601	-0.362305	-0.179688	0.693359	150.820513	-81.714040	-3.858634
33471		9.539277	0.461975	-1.008378	-0.021426	0.017285	-0.000056	-0.359863	-0.177490	0.689209	150.781386	-81.721506	-3.826253
33472		9.549955	0.472065	-0.975388	-0.025194	0.015748	0.004850	-0.354736	-0.174561	0.678711	150.763061	-81.737355	-3.817284
33473		9.599493	0.467538	-0.950823	-0.029557	0.016054	0.005016	-0.360596	-0.169189	0.680420	150.738982	-81.745622	-3.804818
33474		9.589444	0.468348	-0.927094	-0.028676	0.013855	0.003091	-0.359863	-0.181152	0.678223	150.717113	-81.759621	-3.793962
33475		9.599790	0.467473	-0.947856	-0.030195	0.012359	0.001730	-0.363525	-0.178955	0.677246	150.688404	-81.765118	-3.777187
33476		9.597383	0.434896	-0.973244	-0.028241	0.012755	0.002126	-0.365234	-0.181641	0.677979	150.664521	-81.778532	-3.765172
33477		9.607993	0.445021	-0.940607	-0.025844	0.012053	0.001560	-0.355469	-0.184814	0.674561	150.638242	-81.783828	-3.748334
33478		9.608111	0.445101	-0.939358	-0.021486	0.011747	0.001394	-0.360840	-0.172119	0.683350	150.617575	-81.796432	-3.736179
33479		9.605961	0.423416	-0.911308	-0.015958	0.013919	0.001330	-0.360352	-0.173096	0.685791	150.592453	-81.802592	-3.714789
33480		9.621096	0.477363	-0.932088	-0.013161	0.012750	-0.008117	-0.360596	-0.176514	0.683105	150.542206	-81.813036	-3.665925
33481		9.641885	0.487217	-0.921533	-0.011747	0.014362	-0.004536	-0.361328	-0.178467	0.677246	150.498182	-81.817758	-3.623001
33482		9.587865	0.437724	-0.943149	-0.003025	0.013750	-0.004864	-0.359619	-0.171875	0.683838	150.462541	-81.829583	-3.583938
33483		9.590484	0.470753	-0.915045	-0.003125	0.013867	-0.002643	-0.358398	-0.174805	0.680176	150.430876	-81.834585	-3.548512
33484		9.592894	0.492872	-0.940314	-0.001857	0.016228	-0.004762	-0.367432	-0.167480	0.677246	150.391625	-81.847535	-3.504529
33485		9.570041	0.462412	-0.921277	-0.001513	0.015246	-0.003504	-0.364746	-0.178467	0.681641	150.355040	-81.852974	-3.463202
33486		9.580417	0.461773	-0.941948	-0.001614	0.015362	-0.001283	-0.355469	-0.181396	0.681885	150.328924	-81.866773	-3.432186
33487		9.559885	0.452769	-0.949564	-0.000447	0.017840	-0.001181	-0.358643	-0.176758	0.683594	150.295746	-81.874156	-3.393685
33488		9.557737	0.431199	-0.921165	-0.004366	0.017046	-0.001982	-0.362549	-0.176270	0.685547	150.262531	-81.888180	-3.358159
33489		9.557889	0.431360	-0.919511	0.003913	0.017534	-0.001343	-0.363770	-0.172852	0.675781	150.231737	-81.895359	-3.319544
33490		9.578738	0.440801	-0.908361	-0.002278	0.022869	-0.005260	-0.366943	-0.178711	0.686035	150.176135	-81.911565	-3.259451
33491		9.599580	0.450474	-0.897112	0.003319	0.019384	-0.006084	-0.365479	-0.173096	0.672363	150.124508	-81.918302	-3.200140
33492		9.581494	0.474481	-0.877889	0.002496	0.015923	-0.004927	-0.360352	-0.181152	0.685303	150.086124	-81.931246	-3.154846
33493		9.560930	0.465665	-0.885781	-0.000386	0.012182	-0.001951	-0.354248	-0.177734	0.677979	150.061181	-81.935577	-3.124633
33494		9.596742	0.528425	-0.897577	-0.003612	0.009423	-0.000234	-0.362793	-0.182861	0.684814	150.049286	-81.946226	-3.110348
33495		9.576244	0.530460	-0.852525	-0.004577	0.006713	-0.004778	-0.357422	-0.184082	0.676025	150.023014	-81.947031	-3.081219
33496		9.545224	0.511385	-0.892648	0.004981	0.003388	0.003126	-0.357178	-0.177246	0.689697	150.039511	-81.955773	-3.091126
33497		9.615139	0.504902	-0.913311	-0.003024	0.007574	0.004506	-0.360596	-0.178467	0.685791	150.044965	-81.959662	-3.093140
33498		9.604850	0.494731	-0.943743	-0.004405	0.011505	-0.000533	-0.367188	-0.180908	0.687012	150.027040	-81.971358	-3.072660
33499		9.604953	0.494650	-0.942735	-0.007733	0.008862	0.003404	-0.363281	-0.172363	0.689453	150.023299	-81.975570	-3.068113
33500		9.582024	0.463610	-0.924539	-0.014775	0.005194	0.002096	-0.356934	-0.179932	0.679199	150.020980	-81.985146	-3.068985
33501		9.563851	0.487044	-0.906435	-0.014776	0.005194	0.002096	-0.362305	-0.182861	0.672363	150.016041	-81.987164	-3.067304
33502		9.532948	0.478773	-0.893024	-0.018694	0.004400	0.001291	-0.358643	-0.188721	0.679199	150.010712	-81.995710	-3.068813
33503		9.571876	0.464580	-0.900901	-0.024125	0.002112	-0.000877	-0.360107	-0.171387	0.684326	149.996199	-81.995347	-3.062872
33504		9.535351	0.500852	-0.918957	-0.020312	0.003021	0.002147	-0.360596	-0.183350	0.684570	149.995771	-82.003490	-3.069775
33505		9.592601	0.473888	-0.890912	-0.028597	0.002533	0.001498	-0.363037	-0.173584	0.681152	149.986221	-82.004016	-3.071434
33506		9.594962	0.495643	-0.917482	-0.020345	-0.002522	0.003598	-0.357910	-0.175537	0.673584	150.002088	-82.009914	-3.094425
33507		9.631419	0.448684	-0.952673	-0.022997	-0.000951	0.000676	-0.366699	-0.178467	0.687012	149.999954	-82.008475	-3.100332
33508		9.594895	0.484661	-0.970899	-0.022139	0.001869	0.007443	-0.365723	-0.174316	0.684814	150.019559	-82.017607	-3.128015
33509		9.584665	0.485044	-0.948401	-0.024893	0.003554	0.006741	-0.355469	-0.172852	0.676025	150.028613	-82.020141	-3.146317
33510		9.572019	0.452684	-0.952582	-0.021526	0.005557	0.010729	-0.356201	-0.172119	0.678223	150.053055	-82.031920	-3.178139
33511		9.553890	0.475246	-0.934452	-0.027167	0.003499	0.012997	-0.355957	-0.173584	0.683105	150.083167	-82.036212	-3.219019
33512		9.554001	0.474384	-0.933753	-0.031062	0.008252	0.010740	-0.359375	-0.175537	0.685791	150.097204	-82.049118	-3.245912
33513		9.595357	0.481374	-0.967959	-0.031581	0.004452	0.005227	-0.368164	-0.181152	0.674072	150.095303	-82.051662	-3.257020
33514		9.566916	0.505411	-0.927574	-0.036404	0.005856	0.006341	-0.365723	-0.184082	0.686768	150.094869	-82.062443	-3.272816
33515		9.572531	0.460657	-0.895946	-0.034377	0.000595	0.005969	-0.365234	-0.180664	0.689697	150.101929	-82.063282	-3.294587
33516		9.587669	0.514077	-0.917643	-0.037857	-0.001292	0.004195	-0.361572	-0.181641	0.681885	150.107345	-82.070060	-3.317160
33517		9.554312	0.483906	-0.878402	-0.037792	-0.006948	0.003416	-0.352539	-0.174072	0.683350	150.118819	-82.066423	-3.345364
33518		9.525669	0.497461	-0.892727	-0.039416	-0.008329	0.004266	-0.361084	-0.179199	0.681641	150.138891	-82.069266	-3.383575
33519		9.564414	0.472582	-0.955170	-0.037702	-0.007058	0.001190	-0.361084	-0.177490	0.673340	150.142687	-82.064937	-3.403975
33520		9.582656	0.459691	-0.919937	-0.032403	-0.010214	0.007027	-0.362305	-0.178467	0.678711	150.180304	-82.067708	-3.455930
33521		9.572192	0.449681	-0.952271	-0.033821	-0.011814	0.003435	-0.362793	-0.180420	0.681885	150.204016	-82.061653	-3.494194
33522		9.611100	0.445703	-0.907966	-0.036789	-0.009907	0.007175	-0.353516	-0.186035	0.676514	150.238896	-82.064687	-3.545839
33523		9.613388	0.467235	-0.935528	-0.035210	-0.014072	0.007758	-0.355469	-0.182617	0.685303	150.281773	-82.058730	-3.604257
33524		9.592603	0.457758	-0.946123	-0.034424	-0.016155	0.008048	-0.355469	-0.174072	0.685059	150.334244	-82.058618	-3.673054
33525		9.613167	0.466379	-0.938225	-0.036396	-0.016548	0.007639	-0.363281	-0.184570	0.682617	150.380924	-82.051380	-3.736000
33526		9.602789	0.466667	-0.917379	-0.033265	-0.013678	0.008156	-0.356201	-0.179443	0.679443	150.429176	-82.052682	-3.798948
33527		9.582016	0.457119	-0.927853	-0.026927	-0.013592	0.008405	-0.358154	-0.184814	0.684570	150.477908	-82.047120	-3.858487
33528		9.579397	0.424379	-0.956206	-0.027900	-0.016282	0.003848	-0.357178	-0.176025	0.683838	150.519203	-82.045796	-3.911738
33529		9.581804	0.456431	-0.930373	-0.021382	-0.011424	0.008363	-0.360840	-0.180908	0.684082	150.566481	-82.041291	-3.966604
33530		9.581400	0.435132	-1.038412	-0.016073	-0.008374	0.004847	-0.363525	-0.187744	0.677246	150.602139	-82.044231	-4.006740
33531		9.571125	0.435518	-1.016538	-0.002963	0.001903	0.003745	-0.359619	-0.183594	0.681152	150.616632	-82.045071	-4.017845
33532		9.617943	0.398338	-1.020274	-0.003998	0.004868	-0.000020	-0.360596	-0.178711	0.676514	150.615035	-82.053305	-4.014279
33533		9.587044	0.390095	-1.006891	-0.002377	0.006250	-0.000870	-0.359863	-0.182861	0.686279	150.604611	-82.055018	-3.999886
33534		9.581713	0.445333	-0.983547	-0.002722	0.007238	-0.002125	-0.353760	-0.178467	0.681396	150.591633	-82.063759	-3.983497
33535		9.592056	0.444841	-1.004827	-0.003962	0.010416	-0.001451	-0.359375	-0.178223	0.686768	150.569782	-82.067386	-3.958485
33536		9.581892	0.445561	-0.981689	-0.008100	0.009842	0.002178	-0.359131	-0.186035	0.683105	150.564054	-82.078499	-3.952283
33537		9.612969	0.453833	-0.993383	-0.009239	0.012914	0.000633	-0.359375	-0.181396	0.681641	150.541532	-82.083958	-3.929646
33538		9.584633	0.477936	-0.952320	-0.010414	0.010438	0.000516	-0.356201	-0.181396	0.672852	150.527062	-82.094977	-3.916523
33539		9.623604	0.463380	-0.959837	-0.015831	0.007493	0.006248	-0.358154	-0.177734	0.676270	150.531890	-82.099314	-3.925313
33540		9.576928	0.499955	-0.955003	-0.011451	0.007184	0.006095	-0.356445	-0.187744	0.682617	150.543843	-82.110068	-3.939379
33541		9.580033	0.422332	-0.950722	-0.009521	0.002028	0.007930	-0.353271	-0.182617	0.691406	150.569482	-82.112151	-3.965527
33542		9.580085	0.421615	-0.950512	-0.013559	0.001348	0.009337	-0.360840	-0.179199	0.679443	150.603649	-82.120988	-4.003418
33543		9.569712	0.411256	-0.981896	-0.012664	-0.000840	0.007406	-0.366211	-0.182129	0.680908	150.631473	-82.121487	-4.033590
33544		9.567351	0.388680	-0.955465	-0.010250	-0.001542	0.006847	-0.362061	-0.179688	0.683838	150.664339	-82.128318	-4.067745
33545		9.590420	0.419230	-0.972821	-0.013736	-0.003421	0.005067	-0.363525	-0.188721	0.678223	150.688366	-82.126868	-4.094704
33546		9.592790	0.440909	-0.999546	-0.007732	-0.002349	0.004068	-0.354980	-0.175781	0.690430	150.714364	-82.132494	-4.120832
33547		9.603182	0.450331	-0.968415	-0.012842	-0.005609	0.003136	-0.351807	-0.180908	0.686035	150.736359	-82.129406	-4.145221
33548		9.592868	0.450825	-0.946759	-0.012842	-0.005609	0.003135	-0.360840	-0.177246	0.676270	150.763149	-82.132859	-4.174505
33549		9.615894	0.481714	-0.964422	-0.016779	-0.006393	0.002321	-0.360840	-0.172852	0.679932	150.781510	-82.129148	-4.197503
33550		9.564198	0.464194	-0.961421	-0.017332	-0.005195	0.005506	-0.364258	-0.180420	0.683105	150.813377	-82.133540	-4.234316
33551		9.587228	0.494827	-0.979162	-0.020133	-0.009053	0.006234	-0.354736	-0.178467	0.678467	150.849331	-82.129589	-4.277014
33552		9.556226	0.486001	-0.966975	-0.023447	-0.006163	0.008724	-0.352783	-0.185059	0.680176	150.891304	-82.134381	-4.327966
33553		9.564110	0.462674	-0.963032	-0.017889	-0.003997	0.008690	-0.358398	-0.177490	0.680420	150.927225	-82.133636	-4.369334
33554		9.553689	0.452563	-0.994624	-0.021340	-0.000324	0.005486	-0.357666	-0.177734	0.679688	150.947148	-82.140308	-4.397126
33555		9.551353	0.430100	-0.967939	-0.014260	0.003326	0.006827	-0.359863	-0.186768	0.683838	150.963664	-82.142709	-4.416805
33556		9.590280	0.415443	-0.975816	-0.018055	0.007990	0.002370	-0.360107	-0.184082	0.687256	150.957286	-82.152771	-4.416070
33557		9.572051	0.428426	-1.010817	-0.017712	0.006999	0.003623	-0.364990	-0.182129	0.686768	150.952793	-82.156121	-4.416537
33558		9.595384	0.469504	-0.973512	-0.020131	0.007702	0.004180	-0.367432	-0.174316	0.680908	150.952159	-82.166685	-4.422555
33559		9.585206	0.469930	-0.950540	-0.020134	0.007702	0.004180	-0.358887	-0.176025	0.676758	150.946885	-82.170542	-4.423634
33560		9.608527	0.510878	-0.913327	-0.029400	0.003867	0.006865	-0.361084	-0.185059	0.678711	150.958745	-82.179769	-4.447099
33561		9.587743	0.491481	-0.975800	-0.020867	0.004134	0.003090	-0.364502	-0.181885	0.684326	150.956310	-82.181535	-4.451469
33562		9.624267	0.454636	-0.957363	-0.023153	0.004048	0.009341	-0.359375	-0.178467	0.688721	150.980352	-82.191584	-4.484362
33563		9.595763	0.467887	-0.970547	-0.026991	0.003165	0.006302	-0.358154	-0.183594	0.680664	150.988121	-82.193758	-4.502573
33564		9.590887	0.413081	-0.970841	-0.023503	0.005039	0.008085	-0.357178	-0.175537	0.681152	151.005610	-82.203824	-4.528793
33565		9.562389	0.426475	-0.983921	-0.016935	0.004916	0.003905	-0.354492	-0.181152	0.681885	151.006848	-82.206208	-4.534595
33566		9.580745	0.413092	-0.947602	-0.016937	0.004916	0.003904	-0.355957	-0.176025	0.680908	151.013350	-82.214887	-4.545857
33567		9.567973	0.381185	-0.952251	-0.014174	0.003222	0.004599	-0.356934	-0.179932	0.684326	151.022167	-82.216615	-4.557713
33568		9.570425	0.403044	-0.978343	-0.013726	0.002129	0.003631	-0.362305	-0.178711	0.677002	151.035203	-82.223827	-4.573611
33569		9.573025	0.434888	-0.950763	-0.012311	0.003712	0.007227	-0.363037	-0.187012	0.686279	151.053765	-82.226529	-4.594225
33570		9.554799	0.447542	-0.986203	-0.007471	0.002307	0.006112	-0.356445	-0.182129	0.687744	151.078954	-82.234687	-4.619106
33571		9.585830	0.455367	-0.998708	-0.007472	0.002307	0.006112	-0.361328	-0.173096	0.687012	151.099083	-82.236374	-4.638502
33572		9.593752	0.432279	-0.994060	-0.002141	0.005362	0.002616	-0.361328	-0.186768	0.677734	151.108421	-82.244985	-4.643674
33573		9.575670	0.455356	-0.975660	-0.002141	0.005362	0.002616	-0.357666	-0.175293	0.674072	151.112545	-82.247235	-4.643835
33574		9.614592	0.440821	-0.983481	-0.003278	0.008440	0.001077	-0.364990	-0.183350	0.680420	151.109516	-82.256847	-4.637979
33575		9.635373	0.449638	-0.973335	-0.004905	0.007057	0.001920	-0.362549	-0.182617	0.675537	151.106037	-82.259755	-4.632065
33576		9.576029	0.464892	-0.919921	-0.004668	0.006164	0.005392	-0.358154	-0.182373	0.679199	151.122564	-82.269546	-4.646730
33577		9.606980	0.462751	-0.985670	-0.006983	0.006767	0.003729	-0.357666	-0.175293	0.689209	151.125171	-82.272809	-4.648158
33578		9.646019	0.458114	-0.939912	-0.004220	0.005072	0.004425	-0.358887	-0.182373	0.685059	151.140783	-82.281634	-4.661169
33579		9.578686	0.485873	-0.944585	-0.008269	0.004392	0.005824	-0.368164	-0.181885	0.688477	151.155270	-82.284285	-4.675329
33580		9.565909	0.453774	-0.949303	-0.005848	0.003690	0.005267	-0.365479	-0.181885	0.683838	151.175641	-82.292823	-4.694146
33581		9.555542	0.443915	-0.980629	-0.008548	-0.000267	0.003764	-0.363037	-0.177979	0.680176	151.191867	-82.292565	-4.710223
33582		9.545240	0.444352	-0.958646	-0.007199	-0.003543	0.000863	-0.365479	-0.189941	0.686523	151.210029	-82.296174	-4.727547
33583		9.586600	0.462113	-0.940254	-0.004435	-0.005239	0.001559	-0.361328	-0.180420	0.683594	151.230567	-82.292809	-4.745596
33584		9.565841	0.453213	-0.950248	-0.005507	-0.007813	-0.000786	-0.362549	-0.178955	0.684570	151.252240	-82.293834	-4.765922
33585		9.557925	0.475885	-0.955143	-0.004092	-0.006232	0.002811	-0.360840	-0.177002	0.684570	151.279618	-82.290313	-4.790676
33586		9.586284	0.451895	-0.995927	0.001649	-0.009822	-0.000237	-0.357666	-0.184326	0.686768	151.311613	-82.290348	-4.816632
33587		9.567929	0.464958	-1.032580	-0.007349	-0.008997	0.004495	-0.359619	-0.185547	0.688232	151.348948	-82.285897	-4.853317
33588		9.606826	0.460312	-0.988313	-0.006901	-0.010089	0.003528	-0.361084	-0.188232	0.686768	151.390592	-82.286794	-4.894649
33589		9.562888	0.420199	-0.981767	-0.007974	-0.012662	0.001182	-0.356689	-0.187988	0.686768	151.422620	-82.279583	-4.926340
33590		9.586060	0.461259	-0.946159	-0.006796	-0.010188	0.001307	-0.358154	-0.181641	0.683838	151.456265	-82.279808	-4.959875
33591		9.573119	0.429631	-0.952205	-0.007140	-0.009195	0.000055	-0.360840	-0.178467	0.684570	151.477507	-82.274029	-4.980201
33592		9.583306	0.429033	-0.975229	-0.004825	-0.009799	0.001717	-0.360596	-0.186279	0.672852	151.513052	-82.274469	-5.013774
33593		9.565104	0.452394	-0.958026	-0.012670	-0.005802	-0.001334	-0.356689	-0.182373	0.682861	151.519092	-82.270017	-5.021955
33594		9.565030	0.452550	-0.958698	-0.007142	-0.009195	0.000054	-0.353271	-0.181641	0.683838	151.546059	-82.270216	-5.048925
33595		9.585660	0.461331	-0.950172	-0.009326	-0.009387	0.004083	-0.350342	-0.185791	0.683105	151.581286	-82.265436	-5.084628
33596		9.593429	0.438528	-0.946858	-0.006694	-0.010286	-0.000914	-0.353271	-0.178711	0.682861	151.607216	-82.264673	-5.110213
33597		9.582867	0.429093	-0.979509	-0.009610	-0.014045	0.002020	-0.367676	-0.179443	0.684814	151.643891	-82.256978	-5.147543
33598		9.562220	0.430084	-0.936507	-0.007639	-0.013656	0.002430	-0.355469	-0.180908	0.674561	151.688080	-82.255604	-5.191325
33599		9.603323	0.437637	-0.972830	-0.010899	-0.016421	0.004113	-0.360596	-0.175293	0.682373	151.736386	-82.247270	-5.241138
33600		9.564579	0.461947	-0.911871	-0.012723	-0.011354	0.000075	-0.361328	-0.175537	0.683105	151.764481	-82.246262	-5.271817
33601		9.582363	0.428361	-0.984751	-0.011112	-0.016225	0.008550	-0.356201	-0.183350	0.686279	151.828578	-82.239218	-5.337692
33602		9.574616	0.460602	-0.936632	-0.018513	-0.013318	0.004536	-0.356445	-0.184082	0.686279	151.873582	-82.238494	-5.388645
33603		9.582369	0.437489	-0.933649	-0.014224	-0.013535	0.006605	-0.360352	-0.188721	0.683350	151.923207	-82.232269	-5.441714
33604		9.623726	0.454851	-0.916049	-0.012939	-0.011158	0.004512	-0.358398	-0.183350	0.678711	151.966976	-82.232636	-5.488904
33605		9.571709	0.427362	-0.967278	-0.017336	-0.010843	0.004661	-0.367920	-0.184326	0.686035	152.002199	-82.227239	-5.529239
33606		9.584500	0.458699	-0.963062	-0.017338	-0.010843	0.004660	-0.359863	-0.174316	0.680664	152.043239	-82.227855	-5.575884
33607		9.563682	0.449739	-0.973352	-0.019554	-0.010334	0.000780	-0.355469	-0.180908	0.684570	152.061729	-82.221668	-5.600613
33608		9.594557	0.457834	-0.987126	-0.017103	-0.011742	0.008128	-0.363281	-0.179199	0.685547	152.117691	-82.222546	-5.661706
33609		9.573992	0.458671	-0.943933	-0.018320	-0.013510	0.000090	-0.352051	-0.182373	0.684082	152.140476	-82.214561	-5.690057
33610		9.594345	0.457687	-0.989246	-0.018033	-0.008854	0.002157	-0.363037	-0.180664	0.684082	152.168015	-82.215318	-5.723229
33611		9.563302	0.449171	-0.977340	-0.023378	-0.011912	0.005647	-0.356934	-0.183838	0.682129	152.205290	-82.209624	-5.769129
33612		9.560824	0.426630	-0.952201	-0.020168	-0.014700	0.005366	-0.363770	-0.180420	0.687256	152.254837	-82.208295	-5.825876
33613		9.552858	0.449143	-0.957629	-0.022490	-0.014093	0.003705	-0.352783	-0.184570	0.682373	152.289566	-82.200968	-5.868693
33614		9.542217	0.439550	-0.990431	-0.020174	-0.014700	0.005363	-0.350830	-0.176270	0.686035	152.339046	-82.199581	-5.925369
33615		9.583567	0.457082	-0.973059	-0.022049	-0.015183	0.002733	-0.365479	-0.178467	0.682861	152.372412	-82.191434	-5.966558
33616		9.591291	0.434076	-0.970279	-0.022259	-0.014993	0.007170	-0.362549	-0.184814	0.695313	152.427895	-82.190303	-6.029977
33617		9.593537	0.455968	-0.997840	-0.018549	-0.013317	0.004519	-0.358887	-0.177979	0.685791	152.466136	-82.183568	-6.074064
33618		9.601224	0.433036	-0.995346	-0.017265	-0.022143	0.003002	-0.349854	-0.184814	0.685303	152.522539	-82.177821	-6.135591
33619		9.593215	0.455728	-1.001046	-0.012417	-0.012344	0.001306	-0.353271	-0.183838	0.679443	152.550392	-82.170723	-6.165646
33620		9.588034	0.401197	-1.003454	-0.011388	-0.015332	0.005052	-0.363770	-0.183350	0.688721	152.604947	-82.168642	-6.222848
33621		9.582764	0.455670	-0.981597	-0.008966	-0.016035	0.004489	-0.359619	-0.186768	0.674561	152.653490	-82.160498	-6.271793
33622		9.590463	0.432696	-0.979039	-0.006441	-0.016832	0.001706	-0.358398	-0.183350	0.685303	152.700970	-82.156998	-6.318747
33623		9.569162	0.413957	-1.043664	-0.006442	-0.016832	0.001706	-0.361084	-0.184570	0.672363	152.742023	-82.147706	-6.358672
33624		9.597994	0.409971	-0.978026	-0.007029	-0.014933	-0.003011	-0.355713	-0.182861	0.686035	152.768140	-82.143818	-6.384465
33625		9.571557	0.446336	-1.019210	-0.012825	-0.016903	0.001450	-0.358887	-0.185791	0.682617	152.804583	-82.134417	-6.423429
33626		9.532635	0.460592	-1.011825	-0.003725	-0.012882	0.003216	-0.348145	-0.178955	0.684326	152.851582	-82.133178	-6.468271
33627		9.573593	0.468415	-1.048251	-0.010748	-0.016609	-0.000362	-0.347656	-0.182617	0.681396	152.881828	-82.123445	-6.499780
33628		9.542501	0.460188	-1.036807	-0.009560	-0.014136	-0.000230	-0.357422	-0.185303	0.678223	152.915362	-82.120361	-6.534408
33629		9.596842	0.400379	-1.038661	-0.003970	-0.011979	-0.000254	-0.356689	-0.189453	0.683105	152.941049	-82.113015	-6.557395
33630		9.588873	0.423155	-1.043817	-0.004415	-0.010889	0.000718	-0.360840	-0.179932	0.679688	152.974603	-82.112061	-6.589519
33631		9.609108	0.422170	-1.089000	-0.002036	-0.005943	0.000983	-0.353516	-0.172607	0.682861	152.994545	-82.108114	-6.605588
33632		9.647816	0.407674	-1.098431	-0.003671	-0.007326	0.001822	-0.352783	-0.181396	0.689697	153.025914	-82.109178	-6.633894
33633		9.596529	0.400329	-1.041564	0.000546	-0.001183	-0.003192	-0.362061	-0.181152	0.677979	153.023011	-82.106576	-6.625406
33634		9.588627	0.423227	-1.046052	0.002811	-0.007349	-0.000146	-0.357422	-0.179932	0.686279	153.050848	-82.107154	-6.646818
33635		9.570548	0.446513	-1.028570	-0.001936	-0.006036	-0.001237	-0.355713	-0.182617	0.684326	153.062800	-82.102581	-6.654764
33636		9.573228	0.478658	-1.001864	-0.002782	-0.009506	-0.000122	-0.351318	-0.174316	0.685791	153.091541	-82.102031	-6.680305
33637		9.549592	0.437688	-1.039608	-0.002095	-0.011499	0.002373	-0.359375	-0.173828	0.687988	153.126859	-82.095601	-6.711931
33638		9.549491	0.437439	-1.040644	-0.002540	-0.010409	0.003345	-0.355225	-0.179688	0.682129	153.170166	-82.095400	-6.751285
33639		9.551682	0.459434	-1.067971	-0.006155	-0.012179	0.003776	-0.353027	-0.180176	0.688232	153.209501	-82.088979	-6.789316
33640		9.549295	0.436623	-1.042779	0.001660	-0.010540	0.007626	-0.353760	-0.180908	0.688965	153.271223	-82.089773	-6.845570
33641		9.541359	0.458770	-1.047887	-0.010659	-0.011770	0.006153	-0.354980	-0.180176	0.687988	153.315862	-82.084164	-6.891562
33642		9.559230	0.434854	-1.067378	-0.004439	-0.017163	0.010011	-0.352295	-0.185303	0.684814	153.395009	-82.082182	-6.968867
33643		9.520322	0.448346	-1.060223	-0.008056	-0.018932	0.010442	-0.353027	-0.178955	0.689697	153.469978	-82.073986	-7.043977
33644		9.507225	0.415918	-1.067258	-0.012018	-0.019705	0.009627	-0.356445	-0.183350	0.683105	153.547948	-82.070506	-7.124759
33645		9.561002	0.454900	-1.099086	-0.010934	-0.022069	0.003241	-0.350342	-0.170654	0.682861	153.600227	-82.058839	-7.178626
33646		9.568610	0.432083	-1.097121	-0.012817	-0.022548	0.000614	-0.356445	-0.178223	0.682373	153.649608	-82.051506	-7.230633
33647		9.589177	0.441059	-1.089712	-0.010333	-0.017695	-0.001340	-0.357666	-0.178223	0.686279	153.677179	-82.040909	-7.259208
33648		9.578849	0.441644	-1.069359	-0.010842	-0.022162	0.001018	-0.353760	-0.175293	0.684082	153.728175	-82.033955	-7.311648
33649		9.596588	0.418465	-1.089442	-0.008014	-0.018306	0.000311	-0.354004	-0.172119	0.686279	153.764068	-82.023457	-7.347285
33650		9.620008	0.459325	-1.054629	-0.006443	-0.022479	0.000855	-0.352539	-0.179199	0.690674	153.817455	-82.016171	-7.399201
33651		9.629895	0.458820	-1.078791	-0.010097	-0.018600	0.002123	-0.349609	-0.177979	0.695068	153.859125	-82.005972	-7.441879
33652		9.560073	0.464767	-1.058640	-0.010099	-0.018599	0.002122	-0.351318	-0.186035	0.682617	153.907833	-82.001003	-7.491467
33653		9.572844	0.496291	-1.055038	-0.012868	-0.016899	0.001443	-0.352783	-0.180664	0.692871	153.942194	-81.991499	-7.528367
33654		9.536181	0.532745	-1.073920	-0.012722	-0.017713	0.007127	-0.348145	-0.186768	0.688965	154.005975	-81.988214	-7.595379
33655		9.541015	0.477502	-1.098863	-0.013854	-0.014628	0.005609	-0.356934	-0.176025	0.681641	154.050790	-81.980916	-7.643408
33656		9.562346	0.495504	-1.037181	-0.018359	-0.014219	0.007991	-0.358154	-0.182373	0.688965	154.108148	-81.979583	-7.707074
33657		9.548598	0.453772	-1.097564	-0.013073	-0.016715	0.005878	-0.350830	-0.181396	0.677490	154.157944	-81.971263	-7.759682
33658		9.527642	0.444622	-1.108230	-0.009799	-0.013948	0.004198	-0.355713	-0.179688	0.689209	154.205708	-81.969116	-7.808771
33659		9.556150	0.430365	-1.096386	-0.010997	-0.016421	0.004063	-0.357178	-0.188477	0.687744	154.249370	-81.960485	-7.853986
33660		9.558231	0.452445	-1.123919	-0.010587	-0.011861	0.003927	-0.358887	-0.181152	0.689697	154.291807	-81.959423	-7.898080
33661		9.555207	0.420200	-1.152507	-0.010588	-0.011861	0.003926	-0.359619	-0.185303	0.687988	154.327057	-81.953102	-7.934564
33662		9.545734	0.430100	-1.077514	-0.009294	-0.009480	0.001842	-0.356445	-0.180176	0.689941	154.358331	-81.952783	-7.966431
33663		9.573607	0.406177	-1.118899	-0.005083	-0.009617	0.006116	-0.353516	-0.184082	0.692139	154.400724	-81.948158	-8.006943
33664		9.547794	0.451867	-1.105319	-0.006459	-0.005624	0.001138	-0.348633	-0.178711	0.687988	154.424373	-81.949534	-8.029404
33665		9.545529	0.429309	-1.079650	-0.006212	-0.006532	0.004602	-0.352539	-0.181152	0.689209	154.455146	-81.946124	-8.058835
33666		9.576340	0.437510	-1.093258	-0.006019	-0.006712	0.000162	-0.350830	-0.181152	0.695068	154.477515	-81.946525	-8.079780
33667		9.524558	0.420184	-1.090345	-0.002221	-0.011410	0.004570	-0.354980	-0.187988	0.683350	154.518920	-81.940580	-8.117639
33668		9.544536	0.418992	-1.136007	0.000643	-0.013202	0.003024	-0.353271	-0.177490	0.693115	154.566736	-81.938390	-8.160819
33669		9.542928	0.406035	-1.057309	0.002722	-0.012907	0.001209	-0.354004	-0.178711	0.689697	154.601194	-81.930836	-8.188802
33670		9.542027	0.396203	-1.112548	0.002649	-0.018465	0.002586	-0.349121	-0.179199	0.687012	154.657576	-81.925786	-8.238680
33671		9.536917	0.450801	-1.090900	0.001544	-0.021027	0.000230	-0.358398	-0.176514	0.689697	154.701663	-81.913780	-8.277071
33672		9.556773	0.449707	-1.137334	0.004973	-0.019078	0.004233	-0.353027	-0.190430	0.690186	154.766285	-81.908756	-8.334055
33673		9.556586	0.449127	-1.139136	0.002452	-0.018284	0.007023	-0.343750	-0.177734	0.684570	154.830696	-81.899818	-8.392451
33674		9.574273	0.425300	-1.159175	0.004530	-0.017989	0.005207	-0.347412	-0.178711	0.690430	154.896648	-81.895447	-8.451946
33675		9.564093	0.425317	-1.138382	0.006681	-0.012138	0.002014	-0.353027	-0.178711	0.689941	154.934539	-81.888465	-8.481109
33676		9.533109	0.416743	-1.126496	0.010742	-0.011459	0.000601	-0.351074	-0.182861	0.685791	154.975995	-81.886373	-8.511522
33677		9.553025	0.415719	-1.172054	0.009958	-0.009372	0.000333	-0.353027	-0.185059	0.686035	155.004851	-81.880415	-8.529662
33678		9.594594	0.433223	-1.154550	0.007630	-0.008758	-0.001315	-0.349121	-0.172852	0.690186	155.032882	-81.879270	-8.549030
33679		9.542810	0.416076	-1.151471	0.004769	-0.006965	0.000233	-0.349365	-0.184326	0.687500	155.054272	-81.874535	-8.562632
33680		9.565743	0.446923	-1.169222	0.007001	-0.007488	0.004099	-0.358154	-0.181152	0.688965	155.099540	-81.875259	-8.599182
33681		9.534822	0.438273	-1.156859	0.006751	-0.006581	0.000635	-0.346436	-0.177979	0.684570	155.122837	-81.870819	-8.613563
33682		9.524733	0.438526	-1.135338	0.009516	-0.008283	0.001307	-0.352539	-0.177490	0.690430	155.160634	-81.870489	-8.641226
33683		9.532470	0.415561	-1.132322	0.006332	-0.011139	0.000769	-0.353760	-0.182373	0.682617	155.191804	-81.863709	-8.663803
33684		9.503648	0.429483	-1.146642	0.004786	-0.012613	-0.000610	-0.348145	-0.182861	0.682861	155.227125	-81.860659	-8.691748
33685		9.534340	0.437931	-1.160948	0.004880	-0.012704	-0.002829	-0.355225	-0.175781	0.694092	155.246925	-81.852198	-8.703680
33686		9.593703	0.432477	-1.162210	0.005661	-0.014791	-0.002562	-0.349121	-0.184570	0.693604	155.279241	-81.847497	-8.727997
33687		9.554830	0.447258	-1.154494	0.005410	-0.013885	-0.006026	-0.351318	-0.177246	0.694580	155.289644	-81.837654	-8.730130
33688		9.572495	0.424173	-1.174175	0.005471	-0.014608	0.001877	-0.352783	-0.180176	0.688477	155.337532	-81.834105	-8.770277
33689		9.541475	0.415661	-1.162625	0.010748	-0.017106	-0.000248	-0.349365	-0.172607	0.692383	155.377219	-81.823964	-8.798905
33690		9.562125	0.424607	-1.155057	0.008169	-0.015587	-0.005357	-0.347168	-0.186035	0.694092	155.401995	-81.818115	-8.813804
33691		9.571904	0.424542	-1.178845	0.010151	-0.015202	-0.004956	-0.348877	-0.172119	0.687988	155.421011	-81.807840	-8.821894
33692		9.561723	0.425456	-1.158069	0.010242	-0.015294	-0.007177	-0.338379	-0.183350	0.685791	155.439870	-81.801631	-8.830014
33693		9.540672	0.417548	-1.168527	0.010940	-0.011011	-0.013971	-0.348633	-0.182129	0.680664	155.419788	-81.791392	-8.798147
33694		9.576429	0.481281	-1.181726	0.009987	-0.014388	-0.010642	-0.351074	-0.182373	0.695068	155.424591	-81.784651	-8.793144
33695		9.543245	0.451824	-1.143943	0.007422	-0.018519	-0.016592	-0.343994	-0.171875	0.695557	155.405524	-81.769874	-8.764337
33696		9.545062	0.475360	-1.172051	0.007580	-0.019332	-0.010909	-0.352295	-0.175781	0.694336	155.415987	-81.760648	-8.765143
33697		9.506096	0.490890	-1.164725	0.007324	-0.018427	-0.014374	-0.338135	-0.185791	0.689453	155.404777	-81.746447	-8.744330
33698		9.555382	0.486866	-1.144446	0.010774	-0.022121	-0.011220	-0.345703	-0.180176	0.689697	155.420521	-81.735605	-8.749273
33699		9.531203	0.446810	-1.183115	0.010245	-0.020940	-0.008025	-0.343750	-0.182129	0.684814	155.437891	-81.721608	-8.755649
33700		9.551819	0.456400	-1.175644	0.013594	-0.012618	-0.011093	-0.341553	-0.182861	0.690674	155.440098	-81.715684	-8.745551
33701		9.582456	0.465527	-1.189848	0.015905	-0.007580	-0.008610	-0.346436	-0.175049	0.695801	155.436746	-81.708510	-8.727709
33702		9.577251	0.411838	-1.191679	0.015123	-0.005493	-0.008879	-0.353271	-0.177979	0.694336	155.436084	-81.706825	-8.713355
33703		9.569274	0.435326	-1.196138	0.018395	-0.002727	-0.010569	-0.349121	-0.177734	0.693848	155.419257	-81.701713	-8.680453
33704		9.588032	0.422430	-1.160908	0.016998	0.000635	-0.005421	-0.352295	-0.178711	0.695801	155.421846	-81.704204	-8.667915
33705		9.557217	0.414558	-1.147694	0.016740	0.001538	-0.008886	-0.347168	-0.172607	0.692383	155.403126	-81.701713	-8.634057
33706		9.600964	0.455033	-1.155677	0.018631	0.002019	-0.006268	-0.354980	-0.176025	0.687012	155.401403	-81.704653	-8.616066
33707		9.562282	0.469752	-1.146305	0.015777	0.003811	-0.004715	-0.352539	-0.161377	0.691162	155.393314	-81.704341	-8.593509
33708		9.562299	0.469944	-1.146089	0.020520	0.002500	-0.003650	-0.351563	-0.171387	0.692383	155.401215	-81.708161	-8.583514
33709		9.562310	0.470058	-1.145946	0.020518	0.002500	-0.003650	-0.354248	-0.171631	0.693115	155.401785	-81.707420	-8.566964
33710		9.520597	0.452454	-1.164193	0.017680	-0.001356	-0.002935	-0.350586	-0.173096	0.690430	155.416842	-81.709398	-8.566086
33711		9.528462	0.429719	-1.160421	0.018024	-0.002352	-0.001690	-0.347412	-0.179688	0.683350	155.430922	-81.706596	-8.564631
33712		9.489734	0.443929	-1.151623	0.016298	-0.003640	0.001376	-0.337891	-0.170654	0.697754	155.464366	-81.708271	-8.584119
33713		9.520467	0.452276	-1.165324	0.012949	-0.005695	-0.004837	-0.348633	-0.170166	0.689453	155.469728	-81.702979	-8.576793
33714		9.490685	0.456307	-1.232629	0.011899	-0.003324	0.001554	-0.345459	-0.177490	0.682373	155.500923	-81.704721	-8.595838
33715		9.510415	0.452628	-1.144006	0.010788	-0.005892	-0.000795	-0.345459	-0.169434	0.693848	155.519796	-81.700286	-8.603417
33716		9.522328	0.474289	-1.193206	0.008372	-0.005189	-0.000218	-0.348633	-0.174561	0.689697	155.545572	-81.700642	-8.619568
33717		9.530161	0.451404	-1.189744	0.008717	-0.006185	0.001027	-0.346191	-0.175049	0.688232	155.570220	-81.696486	-8.634182
33718		9.540022	0.450842	-1.212662	0.002430	-0.006352	-0.001411	-0.353516	-0.182617	0.685547	155.590105	-81.695990	-8.647884
33719		9.519067	0.441915	-1.222550	0.005881	-0.010040	0.001746	-0.351318	-0.170410	0.692139	155.621912	-81.689990	-8.671376
33720		9.547732	0.428132	-1.210097	0.005788	-0.003683	-0.005327	-0.340332	-0.165527	0.689941	155.625243	-81.690062	-8.666437
33721		9.537771	0.428671	-1.188018	0.002237	-0.000512	0.003863	-0.352539	-0.181396	0.688721	155.647077	-81.689534	-8.681960
33722		9.606198	0.410130	-1.130518	0.007244	-0.002109	-0.001734	-0.346680	-0.177246	0.685059	155.661713	-81.691100	-8.687473
33723		9.601285	0.464867	-1.107613	-0.000164	-0.005458	0.003608	-0.350342	-0.174316	0.686523	155.689248	-81.687929	-8.710148
33724		9.563576	0.491385	-1.179009	-0.002055	-0.005941	0.000990	-0.350098	-0.171387	0.688477	155.714377	-81.688157	-8.731996
33725		9.563552	0.491124	-1.179315	-0.006208	-0.000876	0.005469	-0.347656	-0.177002	0.688477	155.737694	-81.687814	-8.753908
33726		9.531795	0.472291	-1.219773	-0.006731	0.000311	0.008665	-0.344482	-0.175781	0.688477	155.777501	-81.693108	-8.793002
33727		9.531827	0.471529	-1.219812	-0.005952	-0.001775	0.008934	-0.347412	-0.183350	0.702881	155.814824	-81.693106	-8.828920
33728		9.498013	0.430568	-1.234039	-0.006120	-0.000971	0.003249	-0.341797	-0.174316	0.698486	155.837648	-81.696422	-8.850854
33729		9.557592	0.424770	-1.233940	-0.008114	0.004291	0.003685	-0.338379	-0.182129	0.686768	155.845199	-81.698356	-8.857937
33730		9.537771	0.425572	-1.189131	-0.010516	-0.000655	0.003429	-0.345459	-0.172607	0.686768	155.865834	-81.701692	-8.880377
33731		9.576447	0.411154	-1.198359	-0.005942	-0.001162	-0.001193	-0.348389	-0.173584	0.688965	155.865912	-81.699631	-8.878650
33732		9.537745	0.425704	-1.189292	-0.009993	-0.001841	0.000233	-0.344727	-0.170654	0.695801	155.877247	-81.701689	-8.890819
33733		9.527796	0.426216	-1.167161	-0.007668	-0.002449	0.001875	-0.343018	-0.174805	0.695068	155.889394	-81.699674	-8.902287
33734		9.527777	0.426171	-1.167337	-0.003617	-0.001770	0.000449	-0.343262	-0.166992	0.692627	155.905105	-81.701772	-8.914938
33735		9.529786	0.448383	-1.193882	-0.005253	-0.003152	0.001296	-0.345215	-0.180664	0.688965	155.917684	-81.699253	-8.925445
33736		9.548557	0.434965	-1.158938	-0.001623	-0.007032	0.000011	-0.349854	-0.175049	0.687500	155.941362	-81.698462	-8.945292
33737		9.548509	0.434898	-1.159356	-0.005687	-0.002062	0.002272	-0.351318	-0.169678	0.688232	155.955431	-81.696740	-8.957556
33738		9.597065	0.419826	-1.191299	0.000703	-0.007640	0.001653	-0.345947	-0.181641	0.689453	155.987161	-81.696117	-8.983967
33739		9.570259	0.455753	-1.231455	-0.005764	-0.007616	0.003657	-0.353516	-0.176758	0.691895	156.014998	-81.691809	-9.010190
33740		9.529467	0.447589	-1.196722	-0.003004	-0.009315	0.004322	-0.348145	-0.175293	0.693604	156.056702	-81.690922	-9.049439
33741		9.536235	0.414706	-1.247226	-0.005331	-0.008706	0.002680	-0.347900	-0.182129	0.693848	156.082969	-81.685812	-9.073825
33742		9.529292	0.447113	-1.198292	-0.001714	-0.006937	0.002231	-0.339600	-0.176025	0.695557	156.114142	-81.685630	-9.101561
33743		9.563842	0.388177	-1.155461	-0.001971	-0.006036	-0.001234	-0.338867	-0.174316	0.694336	156.124024	-81.681008	-9.107443
33744		9.516143	0.415589	-1.204689	-0.002828	-0.009504	-0.000119	-0.345947	-0.170410	0.692871	156.150433	-81.678715	-9.130883
33745		9.536902	0.424234	-1.196560	-0.004642	-0.010697	0.005168	-0.340332	-0.175293	0.687744	156.189061	-81.673131	-9.167363
33746		9.549774	0.455647	-1.192425	-0.007227	-0.009187	0.000063	-0.342529	-0.173828	0.692383	156.213015	-81.671082	-9.190699
33747		9.551707	0.477757	-1.219466	-0.006201	-0.006526	0.004632	-0.349365	-0.177246	0.692383	156.242182	-81.667556	-9.218521
33748		9.531824	0.478398	-1.175557	-0.007404	-0.008998	0.004503	-0.343018	-0.168945	0.694092	156.281461	-81.666689	-9.257549
33749		9.547524	0.432535	-1.168324	-0.009821	-0.008295	0.005082	-0.351074	-0.170166	0.684082	156.312901	-81.662333	-9.289763
33750		9.528583	0.445531	-1.204506	-0.009476	-0.009291	0.006325	-0.355713	-0.166992	0.689453	156.358010	-81.661696	-9.335389
33751		9.567166	0.430778	-1.214509	-0.012150	-0.007685	0.003440	-0.345215	-0.174072	0.692383	156.381227	-81.657278	-9.360642
33752		9.548217	0.444159	-1.250550	-0.016461	-0.007462	0.001402	-0.351807	-0.186279	0.684814	156.401716	-81.656530	-9.385361
33753		9.568063	0.440459	-1.162358	-0.012578	-0.012244	0.003576	-0.336670	-0.168701	0.695313	156.432252	-81.649746	-9.418261
33754		9.558979	0.453448	-1.220887	-0.018792	-0.006852	-0.000239	-0.341309	-0.170898	0.693359	156.444528	-81.648801	-9.436930
33755		9.539114	0.454492	-1.176870	-0.018536	-0.007755	0.003224	-0.339844	-0.170654	0.697021	156.463337	-81.644291	-9.461429
33756		9.548930	0.453988	-1.199794	-0.018883	-0.006758	0.001980	-0.343994	-0.175049	0.688477	156.483535	-81.643807	-9.487396
33757		9.559826	0.463312	-1.169187	-0.019312	-0.011317	0.002114	-0.346191	-0.179199	0.693359	156.503433	-81.637170	-9.513445
33758		9.538822	0.454581	-1.179196	-0.019660	-0.010320	0.000870	-0.351074	-0.182129	0.691406	156.524465	-81.634639	-9.541335
33759		9.579331	0.462541	-1.215891	-0.022161	-0.015172	0.002826	-0.338867	-0.172607	0.692139	156.551187	-81.626135	-9.575931
33760		9.546434	0.431866	-1.177437	-0.013712	-0.009162	0.002060	-0.346680	-0.178467	0.691650	156.578007	-81.624463	-9.606194
33761		9.546335	0.431555	-1.178355	-0.006725	-0.010995	0.006978	-0.341309	-0.176025	0.692139	156.621844	-81.619095	-9.649150
33762		9.543129	0.399232	-1.206527	-0.010869	-0.005306	0.001346	-0.342285	-0.174316	0.686279	156.641764	-81.619248	-9.670787
33763		9.565960	0.429959	-1.224261	-0.006385	-0.006345	0.009065	-0.345703	-0.171875	0.699219	156.686023	-81.616793	-9.713974
33764		9.565943	0.429279	-1.224628	-0.005870	-0.001878	0.006712	-0.345703	-0.176025	0.688965	156.722788	-81.619937	-9.749311
33765		9.558062	0.451489	-1.228769	-0.003453	-0.002582	0.006131	-0.345215	-0.172119	0.698486	156.752451	-81.618790	-9.776046
33766		9.560075	0.473296	-1.255068	-0.005009	0.001591	0.005602	-0.346924	-0.178223	0.688232	156.780385	-81.623520	-9.801983
33767		9.558109	0.450551	-1.228752	-0.008200	-0.001266	0.005073	-0.337646	-0.168945	0.695313	156.801530	-81.622824	-9.822858
33768		9.548247	0.450630	-1.206474	-0.002159	-0.000202	0.004043	-0.342041	-0.178223	0.690186	156.828344	-81.626157	-9.846140
33769		9.540409	0.472895	-1.210305	-0.009499	0.002001	0.008006	-0.344727	-0.180664	0.698975	156.854248	-81.627841	-9.872576
33770		9.519553	0.463602	-1.219266	-0.012604	-0.000947	0.005256	-0.340820	-0.174561	0.695313	156.880413	-81.631079	-9.901668
33771		9.525461	0.418131	-1.188946	-0.013815	0.002228	0.005969	-0.340088	-0.171387	0.690674	156.896225	-81.632421	-9.920403
33772		9.527499	0.440113	-1.215025	-0.010965	0.000435	0.004410	-0.343262	-0.176758	0.686035	156.918397	-81.636093	-9.944037
33773		9.537391	0.439355	-1.237322	-0.012606	-0.000947	0.005254	-0.353760	-0.178223	0.691162	156.937205	-81.635598	-9.965100
33774		9.547297	0.438493	-1.259538	-0.007429	0.002294	0.006182	-0.349609	-0.186523	0.696289	156.964662	-81.640786	-9.992371
33775		9.595018	0.410451	-1.210890	-0.003804	0.004062	0.005735	-0.341797	-0.165283	0.695068	156.982609	-81.643039	-10.007467
33776		9.553325	0.392201	-1.228477	0.001286	0.007394	0.008883	-0.342773	-0.170410	0.690674	157.017151	-81.651456	-10.036528
33777		9.555447	0.413853	-1.254100	-0.000178	0.005830	0.005288	-0.342529	-0.174805	0.694336	157.032907	-81.654539	-10.047309
33778		9.537823	0.436677	-1.234937	0.000340	0.010297	0.002938	-0.343506	-0.169922	0.690430	157.041288	-81.663053	-10.050389
33779		9.528074	0.436760	-1.211722	-0.005360	0.008236	0.005206	-0.344971	-0.171875	0.693604	157.050135	-81.667387	-10.057188
33780		9.517173	0.427230	-1.242355	-0.002854	0.007441	0.002406	-0.340088	-0.182617	0.690674	157.059136	-81.674281	-10.062576
33781		9.527155	0.426493	-1.264026	-0.006569	0.005765	0.005072	-0.345703	-0.168457	0.689453	157.070597	-81.677280	-10.072716
33782		9.525236	0.403863	-1.237067	-0.009676	0.008465	0.003168	-0.340820	-0.169678	0.697266	157.076791	-81.684838	-10.079761
33783		9.554091	0.389824	-1.223268	-0.009155	0.007286	-0.000030	-0.346680	-0.172607	0.696533	157.066039	-81.687501	-10.068949
33784		9.523421	0.381149	-1.209273	-0.007526	0.008033	0.009247	-0.342285	-0.175049	0.687500	157.096235	-81.696193	-10.098339
33785		9.546472	0.411593	-1.225674	-0.005019	0.007238	0.006447	-0.341309	-0.180908	0.694824	157.111351	-81.700275	-10.111274
33786		9.504799	0.393578	-1.243135	-0.002945	0.007531	0.004626	-0.350586	-0.173584	0.692871	157.128130	-81.707610	-10.125338
33787		9.551390	0.355970	-1.247858	0.001892	0.006122	0.003467	-0.345703	-0.173584	0.692383	157.138143	-81.710439	-10.129115
33788		9.533744	0.379015	-1.228746	0.000860	0.009117	-0.000259	-0.353271	-0.175781	0.689941	157.137014	-81.717621	-10.122254
33789		9.533855	0.378937	-1.227914	0.003189	0.008503	0.001381	-0.340820	-0.177002	0.695068	157.136570	-81.721243	-10.114713
33790		9.516203	0.402058	-1.208797	0.001637	0.007030	0.000005	-0.351807	-0.174072	0.691406	157.139982	-81.727344	-10.112295
33791		9.516282	0.402100	-1.208163	-0.002333	0.006261	-0.000793	-0.352295	-0.173828	0.688721	157.131903	-81.729298	-10.100237
33792		9.546080	0.400737	-1.274397	-0.005277	0.008146	0.002984	-0.338379	-0.173584	0.697021	157.140410	-81.736717	-10.106705
33793		9.487687	0.415887	-1.220141	0.000344	-0.000998	0.001242	-0.340820	-0.169678	0.695313	157.152375	-81.735292	-10.113351
33794		9.538329	0.423297	-1.277665	-0.002768	0.007350	0.000185	-0.344482	-0.170898	0.691406	157.153709	-81.741407	-10.111051
33795		9.567155	0.409193	-1.263994	-0.006485	0.005674	0.002849	-0.350098	-0.180664	0.693115	157.157384	-81.743862	-10.113273
33796		9.557327	0.409448	-1.241153	-0.004066	0.004970	0.002270	-0.338623	-0.170898	0.698242	157.168933	-81.749311	-10.122354
33797		9.558468	0.418938	-1.186951	-0.006051	0.004586	0.001871	-0.351807	-0.175293	0.698242	157.170971	-81.750974	-10.122671
33798		9.557447	0.409284	-1.240280	-0.007602	0.003113	0.000494	-0.343994	-0.169678	0.696289	157.177018	-81.754994	-10.127852
33799		9.580478	0.440240	-1.256847	-0.007355	0.007852	0.004803	-0.343506	-0.180176	0.687012	157.183993	-81.759033	-10.133912
33800		9.528910	0.423041	-1.251901	-0.009938	0.009375	-0.000299	-0.344238	-0.171143	0.693848	157.176136	-81.766122	-10.126834
33801		9.509177	0.423843	-1.206597	-0.008129	0.004292	0.003690	-0.340820	-0.176514	0.686279	157.184079	-81.768033	-10.134320
33802		9.488381	0.415125	-1.214992	-0.012268	0.009990	-0.001941	-0.342041	-0.169434	0.680908	157.167968	-81.775031	-10.120236
33803		9.540188	0.432372	-1.218063	-0.014437	0.009786	0.002098	-0.346191	-0.170898	0.690430	157.158028	-81.779490	-10.113306
33804		9.550207	0.432137	-1.239521	-0.011057	0.006814	-0.002656	-0.341064	-0.173340	0.686768	157.144885	-81.784646	-10.101289
33805		9.548223	0.410128	-1.212453	-0.012272	0.009990	-0.001942	-0.348877	-0.172119	0.691406	157.121071	-81.788313	-10.079088
33806		9.521678	0.446947	-1.250766	-0.013824	0.008518	-0.003321	-0.344971	-0.171143	0.699219	157.101161	-81.794227	-10.061921
33807		9.548407	0.410900	-1.210742	-0.013137	0.006520	-0.000838	-0.348145	-0.176514	0.685547	157.086221	-81.796307	-10.049187
33808		9.548448	0.411012	-1.210379	-0.012878	-0.000037	0.001772	-0.348145	-0.180420	0.690918	157.098660	-81.798857	-10.064090
33809		9.538561	0.411466	-1.187763	-0.012795	0.005521	0.000403	-0.340332	-0.179199	0.685059	157.090002	-81.800686	-10.057504
33810		9.508875	0.416145	-1.253951	-0.010718	0.005816	-0.001416	-0.342773	-0.177246	0.698242	157.082776	-81.805553	-10.052029
33811		9.548621	0.411278	-1.208930	-0.012544	0.004610	0.003864	-0.347168	-0.172119	0.693604	157.088348	-81.807673	-10.059676
33812		9.547672	0.401661	-1.262122	-0.010811	0.005905	0.000803	-0.343262	-0.185059	0.691406	157.089255	-81.813079	-10.061705
33813		9.548766	0.411232	-1.207796	-0.006403	0.005584	0.000627	-0.346436	-0.168213	0.683838	157.084969	-81.814992	-10.055837
33814		9.548819	0.411338	-1.207342	-0.005532	0.003408	-0.001329	-0.344238	-0.167969	0.693604	157.084832	-81.818571	-10.054211
33815		9.558785	0.411308	-1.229249	-0.005784	0.004319	-0.004790	-0.338379	-0.180176	0.690674	157.062973	-81.818607	-10.030231
33816		9.554084	0.466354	-1.205176	-0.003546	0.003791	-0.000928	-0.347412	-0.175781	0.691162	157.065014	-81.822393	-10.029363
33817		9.561965	0.443677	-1.200933	0.000863	0.003471	-0.001104	-0.342773	-0.181641	0.687012	157.061808	-81.822803	-10.020380
33818		9.559882	0.421485	-1.174599	0.006579	-0.000114	-0.004213	-0.341797	-0.179443	0.689453	157.063370	-81.823854	-10.013580
33819		9.548935	0.412708	-1.205958	0.001390	0.002295	-0.004301	-0.345703	-0.172607	0.693848	157.050550	-81.822930	-9.994580
33820		9.541112	0.435724	-1.209605	0.005271	0.003150	-0.001279	-0.343262	-0.177002	0.692871	157.057166	-81.826316	-9.993355
33821		9.530208	0.426704	-1.240726	0.004927	0.004150	-0.002521	-0.343506	-0.174316	0.690918	157.050021	-81.826768	-9.978041
33822		9.520321	0.427230	-1.218002	0.004491	0.005238	-0.001543	-0.340820	-0.170898	0.688965	157.051965	-81.831169	-9.972524
33823		9.544344	0.468097	-1.180788	0.002160	0.005853	-0.003186	-0.343750	-0.176025	0.690186	157.038127	-81.832371	-9.952050
33824		9.542320	0.445756	-1.153998	-0.000446	0.006735	0.001829	-0.344971	-0.177490	0.694092	157.047339	-81.838272	-9.956651
33825		9.521513	0.437090	-1.162568	0.000174	0.005470	-0.003588	-0.347656	-0.176514	0.693359	157.031467	-81.839181	-9.935272
33826		9.565402	0.477058	-1.170048	-0.003294	0.002880	0.002532	-0.351074	-0.176025	0.691895	157.047435	-81.843276	-9.948426
33827		9.531566	0.436748	-1.183948	-0.000698	0.007646	-0.001632	-0.339844	-0.169189	0.691162	157.034854	-81.845771	-9.930877
33828		9.573379	0.454445	-1.164992	-0.006313	0.005495	-0.001595	-0.343750	-0.171875	0.694824	157.029920	-81.850280	-9.924371
33829		9.541625	0.436702	-1.205197	-0.005189	0.002408	-0.000090	-0.345703	-0.168213	0.689209	157.028611	-81.850356	-9.920809
33830		9.551602	0.436404	-1.227213	-0.009598	0.002728	0.000085	-0.353760	-0.170654	0.694336	157.032372	-81.853747	-9.924771
33831		9.531740	0.437359	-1.182316	-0.007520	0.003024	-0.001733	-0.342529	-0.171387	0.691162	157.022707	-81.853781	-9.914116
33832		9.520848	0.428406	-1.213459	-0.009599	0.002728	0.000084	-0.344971	-0.174316	0.689209	157.026345	-81.857221	-9.917932
33833		9.520873	0.428559	-1.213211	-0.009163	0.001640	-0.000894	-0.344971	-0.172607	0.691162	157.020992	-81.856712	-9.912584
33834		9.541756	0.437392	-1.203910	-0.002423	0.000704	0.000576	-0.348389	-0.165283	0.688232	157.033668	-81.859115	-9.921765
33835		9.533928	0.460236	-1.207647	-0.007177	0.002024	-0.000492	-0.342529	-0.173584	0.692871	157.030333	-81.858898	-9.917307
33836		9.531855	0.437912	-1.181190	-0.007614	0.003112	0.000486	-0.343506	-0.177490	0.695557	157.036044	-81.862538	-9.922074
33837		9.572662	0.445950	-1.216275	-0.007614	0.003112	0.000486	-0.346680	-0.173828	0.696533	157.034364	-81.863114	-9.919541
33838		9.552798	0.446590	-1.171444	-0.004939	0.001495	0.003371	-0.347900	-0.171875	0.695313	157.054606	-81.866531	-9.937830
33839		9.544993	0.469105	-1.175123	-0.007363	0.002199	0.003947	-0.350098	-0.170898	0.692383	157.067275	-81.867399	-9.949646
33840		9.549806	0.414177	-1.198529	-0.007707	0.003199	0.002705	-0.350830	-0.168701	0.687500	157.080836	-81.871618	-9.962379
33841		9.601544	0.431290	-1.202094	-0.007959	0.004112	-0.000756	-0.350586	-0.178467	0.684570	157.072807	-81.872445	-9.953632
33842		9.544170	0.459563	-1.227768	-0.007959	0.004112	-0.000756	-0.341553	-0.178467	0.689697	157.071808	-81.876386	-9.952217
33843		9.549949	0.414390	-1.197316	-0.003641	0.003879	0.001290	-0.340576	-0.166504	0.693115	157.074177	-81.877547	-9.951475
33844		9.554232	0.459318	-1.249179	-0.006317	0.005496	-0.001595	-0.339600	-0.173096	0.690918	157.069128	-81.881826	-9.945001
33845		9.532283	0.437718	-1.177801	-0.011258	0.006991	0.001775	-0.340332	-0.169434	0.685547	157.064054	-81.884737	-9.941148
33846		9.553234	0.446432	-1.167944	-0.008835	0.006287	0.001199	-0.330811	-0.167725	0.695068	157.066669	-81.890016	-9.943897
33847		9.532432	0.437698	-1.176602	-0.010041	0.003816	0.001059	-0.339355	-0.171875	0.694336	157.064613	-81.891092	-9.942389
33848		9.513753	0.451422	-1.211395	-0.013248	0.006607	0.001371	-0.346191	-0.171143	0.690918	157.065029	-81.896470	-9.945255
33849		9.522635	0.437994	-1.152999	-0.009711	0.008461	0.003155	-0.347656	-0.173828	0.684814	157.063645	-81.900465	-9.944233
33850		9.496122	0.474428	-1.191692	-0.011249	0.001345	0.000918	-0.343506	-0.174561	0.687500	157.071327	-81.903182	-9.953431
33851		9.540533	0.414530	-1.170733	-0.013518	0.001221	0.007173	-0.348877	-0.171143	0.685791	157.094030	-81.904253	-9.978943
33852		9.542688	0.436634	-1.196777	-0.014976	-0.000335	0.003571	-0.345947	-0.170654	0.691895	157.112038	-81.906643	-10.000815
33853		9.521826	0.427533	-1.206068	-0.011957	-0.002955	0.007698	-0.343262	-0.168213	0.692871	157.144136	-81.905623	-10.034914
33854		9.510932	0.417729	-1.237721	-0.012489	-0.001782	0.010895	-0.345947	-0.167480	0.698242	157.193260	-81.908823	-10.086318
33855		9.521854	0.425860	-1.206445	-0.009721	-0.003487	0.011561	-0.348389	-0.175537	0.689941	157.241824	-81.908372	-10.135753
33856		9.531814	0.424556	-1.229074	-0.017769	-0.004932	0.012165	-0.343750	-0.177490	0.695801	157.297473	-81.910210	-10.196875
33857		9.521845	0.423860	-1.207216	-0.015439	-0.005551	0.013808	-0.344727	-0.174805	0.696777	157.354328	-81.909151	-10.257993
33858		9.539624	0.399453	-1.226110	-0.013546	-0.005083	0.016430	-0.343750	-0.171143	0.689209	157.428437	-81.911759	-10.335737
33859		9.542721	0.429823	-1.198979	-0.019266	-0.007145	0.018678	-0.349609	-0.168457	0.691406	157.503690	-81.910904	-10.417653
33860		9.514011	0.442370	-1.212704	-0.018489	-0.009234	0.018938	-0.345947	-0.172852	0.692871	157.590873	-81.911861	-10.511030
33861		9.553601	0.435689	-1.168996	-0.018492	-0.009234	0.018936	-0.339600	-0.172852	0.694824	157.670715	-81.909923	-10.597133
33862		9.549500	0.392828	-1.251021	-0.018161	-0.004590	0.021035	-0.345459	-0.177490	0.691895	157.758809	-81.913670	-10.691500
33863		9.570432	0.399790	-1.242004	-0.021713	-0.000794	0.020108	-0.342285	-0.177490	0.694580	157.828322	-81.916428	-10.769035
33864		9.602382	0.415429	-1.200984	-0.024435	0.005810	0.028200	-0.344971	-0.175293	0.692139	157.923782	-81.927211	-10.874877
33865		9.643400	0.421038	-1.235410	-0.020373	0.012132	0.027649	-0.347412	-0.174561	0.694092	158.002942	-81.938423	-10.961375
33866		9.632812	0.409344	-1.265137	-0.026649	0.022533	0.034813	-0.344482	-0.176758	0.685303	158.097291	-81.959489	-11.067077
33867		9.632342	0.396771	-1.316211	-0.028076	0.031521	0.040827	-0.346191	-0.173340	0.695801	158.193074	-81.983784	-11.174812
33868		9.682530	0.387356	-1.290383	-0.029510	0.040508	0.046838	-0.336670	-0.173096	0.683594	158.305355	-82.016873	-11.300387
33869		9.650166	0.352063	-1.247041	-0.026965	0.044609	0.052794	-0.344971	-0.173584	0.697510	158.429081	-82.050608	-11.435677
33870		9.657791	0.315170	-1.292183	-0.022145	0.054483	0.053366	-0.346924	-0.172363	0.692383	158.551799	-82.092324	-11.567481
33871		9.702766	0.250542	-1.265732	-0.013047	0.064864	0.048099	-0.342773	-0.174561	0.689209	158.637185	-82.135807	-11.655988
33872		9.742347	0.231498	-1.268349	-0.008564	0.070095	0.046568	-0.343262	-0.173828	0.696045	158.720181	-82.184425	-11.739736
33873		9.688380	0.178486	-1.285560	0.001897	0.070811	0.045400	-0.347412	-0.172607	0.696777	158.796549	-82.230489	-11.810479
33874		9.629173	0.171090	-1.332057	-0.000718	0.083651	0.042005	-0.352295	-0.169434	0.695313	158.847590	-82.285345	-11.857244
33875		9.615067	0.212749	-1.331303	0.005303	0.090343	0.041860	-0.347900	-0.170898	0.689941	158.883613	-82.341098	-11.885290
33876		9.585437	0.200358	-1.309421	0.004800	0.097077	0.043676	-0.351074	-0.167725	0.687988	158.925203	-82.403518	-11.919097
33877		9.547566	0.201430	-1.344666	0.007056	0.102094	0.046163	-0.355469	-0.169434	0.693604	158.962369	-82.466435	-11.947275
33878		9.541988	0.229056	-1.284980	0.005010	0.101722	0.045728	-0.358643	-0.175049	0.691162	159.006489	-82.531767	-11.983401
33879		9.522506	0.216357	-1.284890	0.008837	0.097666	0.040003	-0.345703	-0.167236	0.681641	159.027489	-82.591046	-11.994239
33880		9.464339	0.218864	-1.276296	0.001732	0.093997	0.036380	-0.355225	-0.163330	0.686523	159.044312	-82.650257	-12.005202
33881		9.431484	0.175844	-1.282598	0.003258	0.090570	0.029010	-0.351807	-0.174805	0.693115	159.027994	-82.703485	-11.981634
33882		9.424677	0.187028	-1.331961	0.003141	0.085764	0.022470	-0.353760	-0.179443	0.683594	159.000752	-82.755408	-11.947073
33883		9.464839	0.179453	-1.278965	-0.000418	0.083932	0.020651	-0.358643	-0.170410	0.687988	158.957054	-82.803365	-11.898035
33884		9.486456	0.177140	-1.315289	-0.000431	0.084688	0.012751	-0.355469	-0.169678	0.675293	158.886790	-82.852713	-11.822826
33885		9.510505	0.116813	-1.241931	0.003112	0.081632	0.005809	-0.353760	-0.168457	0.689209	158.783867	-82.896356	-11.712074
33886		9.508500	0.084770	-1.262354	0.000169	0.072982	-0.000045	-0.352783	-0.159668	0.685791	158.676689	-82.936687	-11.598979
33887		9.512341	0.116829	-1.227786	0.003728	0.069925	-0.006980	-0.360840	-0.165039	0.686279	158.536051	-82.971356	-11.449890
33888		9.523507	0.117214	-1.243280	0.001842	0.069470	-0.009623	-0.350830	-0.168457	0.684814	158.392154	-83.007731	-11.298068
33889		9.496005	0.132534	-1.250252	-0.003802	0.067348	-0.009649	-0.363037	-0.161865	0.683105	158.237109	-83.040370	-11.138832
33890		9.572276	0.171938	-1.316858	-0.011471	0.070498	-0.009252	-0.358887	-0.164063	0.687744	158.082270	-83.077238	-10.984043
33891		9.549596	0.142123	-1.293634	-0.011703	0.071421	-0.012720	-0.358398	-0.171631	0.683594	157.898862	-83.111271	-10.800820
33892		9.584491	0.183551	-1.271371	-0.018799	0.073400	-0.015516	-0.358887	-0.176758	0.689697	157.703528	-83.148190	-10.609643
33893		9.603261	0.171446	-1.228926	-0.025060	0.067640	-0.018884	-0.352051	-0.178223	0.681885	157.488309	-83.178722	-10.402117
33894		9.544490	0.189204	-1.169852	-0.026030	0.065010	-0.023473	-0.355713	-0.171387	0.689209	157.264683	-83.209168	-10.187598
33895		9.573751	0.159038	-1.257536	-0.026845	0.067104	-0.023758	-0.362061	-0.165039	0.677734	157.023922	-83.238136	-9.955405
33896		9.589680	0.116276	-1.243143	-0.033695	0.068918	-0.030995	-0.357666	-0.171631	0.687500	156.751445	-83.268768	-9.695227
33897		9.572440	0.142725	-1.218629	-0.035903	0.063062	-0.027850	-0.364502	-0.167236	0.686035	156.490786	-83.294430	-9.448253
33898		9.576051	0.168883	-1.238595	-0.045470	0.060950	-0.036641	-0.356445	-0.170654	0.685547	156.197537	-83.319286	-9.173880
33899		9.555706	0.173767	-1.189049	-0.048023	0.051297	-0.041264	-0.369385	-0.174072	0.679443	155.889398	-83.335374	-8.886117
33900		9.483605	0.153348	-1.191637	-0.051238	0.043657	-0.048380	-0.361572	-0.173828	0.677734	155.571397	-83.348097	-8.590469
33901		9.486916	0.181478	-1.213647	-0.054914	0.037105	-0.054530	-0.364014	-0.164307	0.676758	155.226519	-83.353250	-8.269706
33902		9.476709	0.187692	-1.188307	-0.060832	0.030334	-0.056684	-0.361084	-0.172607	0.689453	154.892110	-83.356621	-7.962868
33903		9.466363	0.194284	-1.163872	-0.066550	0.017840	-0.061908	-0.363525	-0.173584	0.679932	154.547595	-83.349547	-7.649185
33904		9.433326	0.260612	-1.206110	-0.067542	0.003231	-0.058108	-0.362549	-0.167969	0.679443	154.260907	-83.338095	-7.394275
33905		9.453762	0.275933	-1.196595	-0.075843	-0.013268	-0.067121	-0.350830	-0.176025	0.676758	153.956570	-83.313295	-7.126387
33906		9.431885	0.292479	-1.100697	-0.080482	-0.034429	-0.069490	-0.358887	-0.176758	0.679688	153.696797	-83.279182	-6.906168
33907		9.399956	0.291666	-1.092973	-0.082987	-0.066500	-0.073162	-0.362549	-0.175781	0.682373	153.481663	-83.225246	-6.732186
33908		9.349154	0.322911	-1.016341	-0.080997	-0.104539	-0.077832	-0.351807	-0.174561	0.680176	153.341684	-83.152955	-6.632887
33909		9.287877	0.345642	-0.974886	-0.077523	-0.141111	-0.081138	-0.355957	-0.178223	0.684814	153.260718	-83.058672	-6.590844
33910		9.249511	0.408499	-0.898758	-0.070122	-0.176919	-0.083626	-0.356934	-0.180908	0.687256	153.259423	-82.947698	-6.624928
33911		9.229223	0.439678	-0.898298	-0.056858	-0.217151	-0.083536	-0.351563	-0.184082	0.688721	153.338570	-82.813875	-6.732290
33912		9.164754	0.439129	-0.840488	-0.030074	-0.242488	-0.082216	-0.348145	-0.177002	0.697021	153.493961	-82.669692	-6.901406
33913		9.128988	0.423778	-0.771318	0.005033	-0.261725	-0.079351	-0.350586	-0.180908	0.687500	153.702850	-82.513992	-7.103910
33914		9.101154	0.375978	-0.753501	0.053405	-0.265843	-0.068616	-0.342041	-0.184082	0.687500	153.988529	-82.361043	-7.355857
33915		9.079210	0.280656	-0.706275	0.104846	-0.262175	-0.046364	-0.341064	-0.179443	0.687988	154.361446	-82.213089	-7.666320
33916		9.095931	0.268623	-0.693588	0.167813	-0.227042	-0.020709	-0.343018	-0.181152	0.687256	154.799585	-82.091533	-8.006807
33917		9.068600	0.312864	-0.698193	0.223582	-0.191369	0.022342	-0.341064	-0.172852	0.691406	155.347470	-81.996325	-8.425427
33918		8.936795	0.408592	-0.774945	0.262686	-0.175049	0.077093	-0.340820	-0.173584	0.694824	156.089490	-81.924176	-9.017747
33919		8.863551	0.588053	-1.065819	0.285709	-0.156792	0.139456	-0.333740	-0.172119	0.698486	157.025072	-81.872370	-9.792168
33920		8.883732	0.685627	-1.365763	0.301971	-0.110138	0.210255	-0.343018	-0.170898	0.694092	158.160292	-81.860942	-10.758965
33921		9.053087	0.653467	-1.753800	0.327920	-0.043051	0.269692	-0.330078	-0.161621	0.696045	159.425502	-81.892669	-11.841966
33922		9.340632	0.479273	-2.079777	0.325731	0.048570	0.313997	-0.345215	-0.167725	0.692139	160.754054	-81.981018	-12.990134
33923		9.881121	0.405432	-2.419766	0.311511	0.147158	0.314860	-0.328613	-0.156494	0.693848	161.968690	-82.117396	-14.031102
33924		10.375054	0.436001	-2.346222	0.314250	0.225824	0.283131	-0.340088	-0.163574	0.696777	163.009450	-82.290371	-14.895053
33925		10.365165	0.621650	-2.231464	0.325081	0.237918	0.238610	-0.344971	-0.153809	0.696777	163.889351	-82.458812	-15.589646
33926		10.049961	0.857373	-2.179171	0.328843	0.204733	0.210816	-0.343506	-0.146484	0.690918	164.738379	-82.605083	-16.251218
33927		9.279114	0.972069	-2.149089	0.317153	0.135924	0.216650	-0.344482	-0.140869	0.695313	165.701955	-82.710880	-17.034309
33928		8.555547	1.140411	-2.350776	0.286493	0.055147	0.228275	-0.351807	-0.136963	0.697021	166.821056	-82.773167	-17.991554
33929		8.279507	1.170429	-2.804172	0.240417	0.010956	0.240117	-0.349365	-0.138916	0.685791	168.013658	-82.808096	-19.049580
33930		8.397571	1.153470	-3.074846	0.156656	0.043316	0.235812	-0.343018	-0.140137	0.689941	169.133668	-82.859700	-20.082445
33931		8.865861	1.051817	-3.148393	0.088208	0.117469	0.211894	-0.345215	-0.127197	0.683350	170.049448	-82.946669	-20.949135
33932		9.527175	0.985590	-2.965529	0.020466	0.194676	0.146374	-0.348877	-0.141602	0.690674	170.598348	-83.070863	-21.485161
33933		10.588335	1.207204	-2.899420	-0.078911	0.280694	0.057682	-0.344482	-0.133301	0.691162	170.609585	-83.233765	-21.536789
33934		11.048395	1.394046	-2.638448	-0.193362	0.331281	-0.020931	-0.357422	-0.140869	0.687988	170.142023	-83.418851	-21.172747
33935		10.866058	1.449474	-2.337110	-0.301845	0.376037	-0.052136	-0.351807	-0.133301	0.689453	169.376513	-83.624400	-20.571150
33936		10.576943	1.554676	-2.030870	-0.399662	0.378197	-0.078542	-0.355469	-0.135986	0.692627	168.381523	-83.828307	-19.795316
33937		10.146610	1.492985	-1.839178	-0.443701	0.348180	-0.103601	-0.357178	-0.140625	0.682617	167.190469	-84.009562	-18.847964
33938		9.857944	1.226992	-1.603359	-0.477283	0.302610	-0.137907	-0.367432	-0.142578	0.684326	165.801209	-84.159516	-17.720566
33939		9.960359	0.918540	-1.564216	-0.478118	0.243591	-0.172049	-0.363525	-0.150391	0.673584	164.235908	-84.267689	-16.417377
33940		9.996873	0.633724	-1.593312	-0.497671	0.187728	-0.193935	-0.362061	-0.157959	0.682373	162.591447	-84.339065	-15.045829
33941		9.907803	0.388862	-1.639137	-0.491418	0.131762	-0.216792	-0.367432	-0.155518	0.680664	160.882242	-84.370655	-13.606013
33942		9.597885	0.167525	-1.611393	-0.465565	0.094813	-0.219329	-0.370850	-0.159424	0.682129	159.244294	-84.378735	-12.222826
33943		9.208131	0.079078	-1.712666	-0.436116	0.069283	-0.206999	-0.378906	-0.166504	0.670654	157.732071	-84.370999	-10.949154
33944		9.026746	0.121918	-1.878425	-0.402703	0.061404	-0.191174	-0.360596	-0.169922	0.680176	156.356035	-84.360843	-9.792698
33945		9.029679	0.197844	-2.034323	-0.363808	0.079070	-0.177378	-0.363281	-0.170654	0.679199	155.027184	-84.359122	-8.661628
33946		8.970574	0.235213	-1.973768	-0.347736	0.100532	-0.165633	-0.361816	-0.178955	0.680908	153.726077	-84.369719	-7.549034
33947		8.919604	0.309388	-2.017384	-0.325966	0.093190	-0.167100	-0.362061	-0.181885	0.676025	152.434719	-84.372816	-6.433873
33948		8.891765	0.484514	-2.130706	-0.324241	0.082263	-0.170908	-0.371826	-0.186035	0.674805	151.165183	-84.367720	-5.339859
33949		8.924907	0.577160	-2.240916	-0.323203	0.089280	-0.173288	-0.369873	-0.183594	0.678711	149.856263	-84.362214	-4.205448
33950		8.995105	0.733313	-2.357219	-0.328245	0.104571	-0.166128	-0.370117	-0.191406	0.676514	148.546549	-84.364786	-3.073075
33951		9.034652	0.772777	-2.488352	-0.327004	0.140455	-0.147978	-0.371582	-0.186768	0.674805	147.203422	-84.386708	-1.906501
33952		8.983860	0.782814	-2.417547	-0.308235	0.158323	-0.119370	-0.372559	-0.187744	0.674072	145.952501	-84.424508	-0.821669
33953		8.885016	0.757827	-2.453379	-0.294349	0.170043	-0.077049	-0.364746	-0.199707	0.671631	144.848755	-84.478506	0.123045
33954		8.692481	0.702126	-2.455967	-0.274395	0.172577	-0.036331	-0.370361	-0.190918	0.668457	143.935910	-84.546379	0.887440
33955		8.611198	0.724322	-2.509215	-0.278070	0.184426	0.005192	-0.365234	-0.197510	0.666260	143.147865	-84.632013	1.524191
33956		8.543493	0.774573	-2.553863	-0.275458	0.197267	0.043732	-0.382080	-0.195313	0.669678	142.491979	-84.736718	2.029779
33957		8.522473	0.892256	-2.570930	-0.263856	0.210385	0.076605	-0.376221	-0.207031	0.663086	141.919828	-84.857757	2.457705
33958		8.568673	0.943615	-2.444853	-0.225177	0.218862	0.096017	-0.379395	-0.204834	0.672363	141.422543	-84.989839	2.832709
33959		8.319554	0.802475	-2.234146	-0.147979	0.187740	0.115807	-0.382324	-0.207520	0.656494	141.168745	-85.114165	3.007563
33960		8.153233	0.719010	-2.174879	-0.089898	0.134001	0.134800	-0.379395	-0.197266	0.672607	141.283231	-85.221814	2.846021
33961		7.974156	0.637279	-2.264343	-0.070279	0.091780	0.162015	-0.379639	-0.200928	0.654053	141.735585	-85.319640	2.356927
33962		7.924429	0.720030	-2.392335	-0.088737	0.042238	0.205784	-0.382813	-0.199463	0.653809	142.676425	-85.410283	1.367469
33963		8.067975	0.806146	-2.559067	-0.120902	0.010573	0.243445	-0.378174	-0.194580	0.658447	143.978410	-85.497332	-0.002907
33964		8.451657	0.817584	-2.687773	-0.165325	-0.038507	0.245659	-0.384277	-0.192383	0.667236	145.542274	-85.559677	-1.661197
33965		8.937241	0.796916	-2.932610	-0.199543	-0.069459	0.219596	-0.379395	-0.192871	0.656738	147.076097	-85.595222	-3.309063
33966		9.362962	0.744486	-3.101696	-0.225317	-0.079062	0.172682	-0.379883	-0.193115	0.661865	148.376495	-85.608655	-4.736992
33967		9.723898	0.714591	-3.166559	-0.226387	-0.076801	0.117104	-0.383789	-0.199707	0.662842	149.298930	-85.604569	-5.787031
33968		10.093649	0.723355	-2.949249	-0.196684	-0.069360	0.066908	-0.380615	-0.197510	0.664307	149.903580	-85.588371	-6.500911
33969		10.495145	0.743823	-2.742970	-0.159873	-0.072132	0.009675	-0.376953	-0.208008	0.660645	150.148709	-85.554184	-6.833442
33970		10.838538	0.811122	-2.676288	-0.084243	-0.076116	-0.027706	-0.373779	-0.207520	0.660645	150.227693	-85.506898	-6.955831
33971		11.018810	0.697740	-2.402280	-0.037302	-0.079897	-0.040729	-0.368652	-0.201172	0.658936	150.245560	-85.454418	-6.989985
33972		11.068323	0.350847	-2.487907	-0.017321	-0.131612	-0.029360	-0.372070	-0.206787	0.657959	150.543809	-85.378768	-7.294077
33973		11.079721	0.241402	-2.887143	-0.000630	-0.149254	-0.038482	-0.376953	-0.202881	0.658936	150.828786	-85.292249	-7.575154
33974		11.225463	0.172546	-3.077012	0.054512	-0.134102	-0.083610	-0.373535	-0.202637	0.664307	150.832455	-85.200079	-7.542400
33975		11.354745	-0.026542	-3.034702	0.115938	-0.137231	-0.143849	-0.376221	-0.210205	0.664063	150.514016	-85.090001	-7.150938
33976		11.514804	-0.170927	-2.864653	0.120045	-0.138347	-0.193517	-0.373535	-0.195313	0.667236	149.954277	-84.964327	-6.514891
33977		11.693926	-0.183467	-2.540440	0.119902	-0.113134	-0.242393	-0.377197	-0.209717	0.672119	149.058379	-84.836838	-5.541250
33978		11.721195	-0.138353	-2.015143	0.135303	-0.093241	-0.295293	-0.376953	-0.196777	0.665039	147.892374	-84.701041	-4.287055
33979		11.614351	-0.022199	-1.443159	0.147612	-0.069087	-0.333299	-0.380127	-0.203857	0.667969	146.505034	-84.563163	-2.803443
33980		11.625571	-0.015085	-0.842277	0.178869	-0.044858	-0.361103	-0.370361	-0.208008	0.668945	145.009940	-84.423948	-1.192909
33981		11.688094	-0.300592	-0.719918	0.239361	0.014993	-0.385816	-0.370117	-0.201172	0.660889	143.289689	-84.300302	0.678729
33982		11.289736	-0.371130	-0.757966	0.218649	0.082759	-0.375293	-0.369873	-0.204834	0.666260	141.461875	-84.205071	2.646929
33983		10.753776	0.068085	-0.419684	0.076529	0.174781	-0.320415	-0.363770	-0.203857	0.666504	139.498685	-84.164390	4.669564
33984		10.563689	0.390416	0.181060	-0.055111	0.264831	-0.279939	-0.368408	-0.198975	0.669922	137.334809	-84.170069	6.818231
33985		10.415248	0.875812	0.741957	-0.164677	0.352120	-0.298470	-0.376709	-0.203613	0.671875	134.667329	-84.195347	9.409892
33986		10.110319	1.325787	1.232173	-0.187776	0.419874	-0.337213	-0.373291	-0.211670	0.658447	131.556713	-84.217690	12.434007
33987		9.660491	1.222546	1.424695	-0.100124	0.443918	-0.362250	-0.373535	-0.210205	0.659180	128.267685	-84.220676	15.687396
33988		9.495495	0.903080	1.585104	-0.026810	0.455729	-0.360007	-0.375977	-0.211914	0.662354	124.996874	-84.210199	18.964754
33989		9.448115	0.775785	1.708935	-0.005090	0.459496	-0.333306	-0.374268	-0.210938	0.653564	121.805707	-84.194764	22.174606
33990		9.456216	0.825660	1.651653	0.015323	0.443983	-0.291823	-0.376709	-0.213379	0.653564	118.856864	-84.178457	25.152901
33991		9.406265	0.845633	1.557996	0.048529	0.418581	-0.238790	-0.385254	-0.218018	0.655762	116.194067	-84.167107	27.862693
33992		9.325137	0.724345	1.516101	0.086930	0.375079	-0.171457	-0.382813	-0.217529	0.646484	113.957478	-84.169023	30.166277
33993		9.387297	0.460070	1.229933	0.135124	0.325494	-0.104649	-0.385742	-0.218506	0.655518	112.135517	-84.186073	32.080726
33994		9.643808	0.137412	1.015529	0.159004	0.277259	-0.015756	-0.387451	-0.218262	0.646484	110.761649	-84.235744	33.558374
33995		9.678987	0.091812	0.805780	0.157446	0.241155	0.071919	-0.388184	-0.218018	0.642578	109.714494	-84.321465	34.706650
33996		9.559031	0.100070	0.705626	0.153587	0.213902	0.165692	-0.388916	-0.213867	0.645508	108.970865	-84.451769	35.547289
33997		9.579784	0.041094	0.565739	0.136986	0.188415	0.237822	-0.391846	-0.214355	0.643555	108.452695	-84.614746	36.151887
33998		9.385021	0.044037	0.529555	0.102451	0.161415	0.289212	-0.387207	-0.202881	0.641602	108.151201	-84.801345	36.518660
33999		9.102230	0.122979	0.528462	0.056686	0.129464	0.312644	-0.399414	-0.204346	0.651611	108.032764	-84.993948	36.675389
34000		8.959036	0.343405	0.442880	0.034895	0.105316	0.325361	-0.390381	-0.206055	0.650146	108.085693	-85.190264	36.647630
34001		8.841524	0.495174	0.365386	0.015565	0.096332	0.332703	-0.389893	-0.201660	0.652100	108.194963	-85.387891	36.552147
34002		8.754638	0.574782	0.440199	-0.001093	0.064306	0.351570	-0.398193	-0.202148	0.642334	108.587812	-85.590917	36.162614
34003		8.834311	0.734561	0.330289	-0.034585	0.037503	0.382748	-0.394531	-0.202881	0.653076	109.260809	-85.804614	35.473052
34004		8.779205	0.775503	0.274853	-0.050040	0.015168	0.410763	-0.397705	-0.199951	0.640381	110.263373	-86.029315	34.444271
34005		9.065417	0.767795	0.187554	-0.068170	0.002174	0.420752	-0.401367	-0.193115	0.647461	111.499865	-86.254259	33.171029
34006		9.177575	0.609527	0.189035	-0.081753	-0.010098	0.425146	-0.409424	-0.195801	0.650635	113.023165	-86.477773	31.602843
34007		9.073917	0.405848	0.176059	-0.108983	-0.011706	0.407380	-0.401611	-0.191406	0.648193	114.663373	-86.687778	29.902364
34008		8.848203	0.294356	0.152103	-0.146182	-0.035471	0.387495	-0.398926	-0.192139	0.639160	116.652353	-86.879303	27.831540
34009		8.826165	0.209934	0.020252	-0.166223	-0.047201	0.365184	-0.396484	-0.196533	0.644043	118.867323	-87.051039	25.523289
34010		8.961521	0.129655	-0.077287	-0.163195	-0.053542	0.354703	-0.402588	-0.183838	0.638672	121.378349	-87.211435	22.920474
34011		9.136806	-0.042162	-0.184187	-0.142156	-0.055713	0.345629	-0.405273	-0.196045	0.637207	124.144384	-87.359814	20.074993
34012		9.151078	-0.333486	-0.248255	-0.116230	-0.058315	0.334509	-0.400146	-0.191406	0.648438	127.212505	-87.495994	16.942170
34013		9.097473	-0.593094	-0.322035	-0.088001	-0.065227	0.319602	-0.402588	-0.188477	0.647217	130.556081	-87.614131	13.550280
34014		9.024152	-0.799019	-0.348889	-0.071549	-0.077321	0.311823	-0.400146	-0.185547	0.642578	134.322040	-87.715790	9.745239
34015		8.964453	-0.884560	-0.476735	-0.053552	-0.094697	0.310251	-0.400879	-0.181396	0.649414	138.553233	-87.797962	5.485295
34016		9.018991	-0.872384	-0.507866	-0.048498	-0.106351	0.303905	-0.395996	-0.186768	0.645508	143.154859	-87.860150	0.857687
34017		9.040892	-0.760804	-0.696053	-0.055049	-0.113358	0.285277	-0.395508	-0.183350	0.656006	147.768645	-87.898215	-3.785625
34018		9.145901	-0.713218	-0.782940	-0.029601	-0.109969	0.258062	-0.397949	-0.180908	0.649658	152.170684	-87.916792	-8.202526
34019		9.197305	-0.707698	-0.902212	-0.010101	-0.113669	0.212496	-0.398682	-0.178955	0.652100	155.962002	-87.910295	-11.996953
34020		9.141339	-0.710672	-1.083180	0.018179	-0.112606	0.170305	-0.386719	-0.179932	0.657471	159.151307	-87.886873	-15.172882
34021		9.190296	-0.680396	-1.259491	0.029677	-0.114082	0.130481	-0.400146	-0.177246	0.649902	161.654955	-87.849181	-17.656053
34022		9.263863	-0.628087	-1.336881	0.055143	-0.108752	0.098724	-0.401123	-0.179688	0.650635	163.646038	-87.805317	-19.611884
34023		9.228059	-0.549400	-1.390691	0.080656	-0.096795	0.062286	-0.399170	-0.173096	0.649658	164.970696	-87.760397	-20.886092
34024		9.143760	-0.487875	-1.499855	0.101369	-0.092563	0.018002	-0.397461	-0.175293	0.651123	165.665227	-87.710462	-21.517985
34025		8.876110	-0.432208	-1.488410	0.125535	-0.102488	-0.026129	-0.394043	-0.177002	0.655762	165.739944	-87.648686	-21.515582
34026		8.587844	-0.445744	-1.603525	0.155478	-0.130875	-0.076143	-0.392822	-0.172607	0.641846	165.309733	-87.563817	-20.990802
34027		8.290566	-0.463463	-1.753402	0.194677	-0.169881	-0.113298	-0.390869	-0.172852	0.655762	164.565647	-87.451777	-20.129169
34028		8.117556	-0.443544	-1.890949	0.223400	-0.219131	-0.139403	-0.387451	-0.166260	0.653564	163.803373	-87.307842	-19.232939
34029		8.009960	-0.502456	-1.996106	0.261279	-0.262069	-0.154313	-0.384033	-0.175049	0.658203	163.092096	-87.137538	-18.365750
34030		7.930196	-0.547680	-2.059667	0.292657	-0.306924	-0.165262	-0.385986	-0.175293	0.658447	162.553877	-86.940119	-17.653859
34031		7.923115	-0.607471	-2.197369	0.310798	-0.357190	-0.178363	-0.381592	-0.169922	0.659912	162.101083	-86.712917	-17.016823
34032		7.973940	-0.598314	-2.332633	0.330536	-0.395853	-0.191453	-0.375977	-0.166016	0.662842	161.757022	-86.461797	-16.477414
34033		8.062358	-0.642320	-2.560841	0.366861	-0.411495	-0.203404	-0.371338	-0.166504	0.662598	161.409529	-86.200102	-15.913378
34034		8.257937	-0.634898	-2.649251	0.376718	-0.423134	-0.207572	-0.367188	-0.163086	0.665771	161.152120	-85.930760	-15.433941
34035		8.564644	-0.697756	-2.571630	0.386739	-0.431141	-0.206224	-0.367432	-0.159668	0.673096	160.950067	-85.657572	-15.003954
34036		8.781174	-0.759355	-2.489078	0.390307	-0.440061	-0.201951	-0.368652	-0.164307	0.682129	160.862018	-85.379825	-14.686211
34037		8.965912	-0.789117	-2.479859	0.397990	-0.437102	-0.199392	-0.361572	-0.155518	0.682373	160.787234	-85.104574	-14.377139
34038		9.170856	-0.849379	-2.543250	0.411986	-0.421976	-0.200329	-0.357178	-0.156006	0.679688	160.726588	-84.836790	-14.074162
34039		9.409433	-0.646390	-2.645300	0.406260	-0.399210	-0.208574	-0.354492	-0.148193	0.685547	160.565739	-84.580200	-13.673644
34040		9.571827	-0.498050	-2.785598	0.413102	-0.370737	-0.210737	-0.359619	-0.148926	0.686279	160.389153	-84.337919	-13.253271
34041		9.712272	-0.474649	-3.016364	0.407629	-0.341593	-0.225966	-0.346924	-0.144287	0.692139	160.078000	-84.108766	-12.700566
34042		9.838350	-0.473002	-3.196549	0.403908	-0.288691	-0.243017	-0.344971	-0.142822	0.687012	159.634159	-83.903760	-12.016411
34043		9.920469	-0.431410	-2.770617	0.398473	-0.245025	-0.281440	-0.343262	-0.143066	0.685791	158.935382	-83.714224	-11.078666
34044		10.151327	-0.164806	-2.411349	0.408770	-0.220913	-0.315384	-0.340088	-0.133789	0.697021	158.106901	-83.528486	-10.004186
34045		10.635313	0.450782	-1.910758	0.437795	-0.178130	-0.312361	-0.342041	-0.122070	0.692627	157.259693	-83.364925	-8.893693
34046		11.060289	1.155840	-1.553340	0.453728	-0.179736	-0.253865	-0.334961	-0.137207	0.693359	156.750257	-83.211560	-8.113775
34047		11.149310	1.742478	-1.495737	0.417914	-0.188621	-0.157080	-0.335693	-0.131348	0.699219	156.663606	-83.075531	-7.780099
34048		11.294840	2.207119	-0.900575	0.404161	-0.209882	-0.053452	-0.337646	-0.122314	0.704346	157.075991	-82.951162	-7.957063
34049		11.828365	2.640799	-0.562433	0.360969	-0.243521	0.063543	-0.329102	-0.108887	0.689697	157.986163	-82.834962	-8.660628
34050		12.464012	2.449822	-0.567630	0.325095	-0.265627	0.216415	-0.334961	-0.116699	0.696533	159.543979	-82.736189	-10.037898
34051		13.276241	1.845236	-0.716503	0.276374	-0.211612	0.397836	-0.325928	-0.104736	0.701416	161.704813	-82.696248	-12.051434
34052		13.477814	0.817632	-0.528484	0.256593	-0.167202	0.514064	-0.318359	-0.109863	0.692871	164.287643	-82.688829	-14.501965
34053		13.482946	-0.232971	-0.606454	0.312906	-0.155115	0.538552	-0.329102	-0.098633	0.689209	166.971476	-82.678141	-17.021835
34054		13.230680	-0.826790	-0.732494	0.373237	-0.086426	0.509560	-0.325684	-0.089844	0.696289	169.509123	-82.687142	-19.359498
34055		12.615494	-1.202227	-0.669523	0.505117	0.027153	0.431977	-0.327881	-0.094238	0.705566	171.692402	-82.741755	-21.263543
34056		11.820632	-1.284397	0.226468	0.616175	0.158234	0.341560	-0.332031	-0.081055	0.696777	173.507596	-82.854813	-22.732126
34057		11.092904	-0.930601	0.781420	0.649924	0.228980	0.317191	-0.327637	-0.087402	0.695801	175.237277	-83.002059	-24.094597
34058		10.488268	-0.718696	1.191812	0.659481	0.306583	0.361970	-0.336182	-0.067139	0.703613	177.247841	-83.188937	-25.734057
34059		9.831650	-0.548500	1.364734	0.606596	0.323683	0.424981	-0.330322	-0.066650	0.692383	179.621878	-83.379878	-27.769307
34060		9.417536	-0.212176	1.275318	0.491144	0.310018	0.471522	-0.331055	-0.061279	0.692871	-177.693889	-83.551012	-30.182693
34061		9.224421	0.354354	1.118366	0.337906	0.267026	0.458696	-0.333984	-0.061768	0.697266	-175.067342	-83.686049	-32.625571
34062		9.072558	1.069497	0.870633	0.186386	0.218735	0.383976	-0.340332	-0.055176	0.695557	-172.829714	-83.785570	-34.764076
34063		9.637567	1.642663	0.677791	0.033564	0.182167	0.232747	-0.331299	-0.050049	0.687012	-171.456698	-83.869686	-36.120532
34064		10.062561	2.027492	0.467367	-0.090881	0.121698	0.065247	-0.328125	-0.049316	0.689209	-171.047852	-83.931056	-36.578950
34065		9.916737	2.152009	0.314843	-0.162556	0.120702	-0.050316	-0.332275	-0.056396	0.691650	-171.310159	-84.002770	-36.403618
34066		9.594398	2.029815	0.270928	-0.211937	0.088889	-0.114405	-0.342041	-0.056152	0.680664	-171.966164	-84.060945	-35.861004
34067		9.127766	1.914788	0.290499	-0.253258	0.065907	-0.158531	-0.343262	-0.056396	0.684814	-172.932354	-84.109259	-35.030305
34068		8.896685	1.529474	0.207189	-0.259665	0.056556	-0.177151	-0.342285	-0.056152	0.686035	-174.011902	-84.151368	-34.089496
34069		8.877732	1.094313	0.202491	-0.266692	0.059876	-0.191446	-0.333740	-0.057617	0.687500	-175.202748	-84.194757	-33.040843
34070		8.704680	0.669354	0.091282	-0.265577	0.058442	-0.211384	-0.338379	-0.055908	0.689697	-176.509237	-84.235392	-31.875472
34071		8.879816	0.362895	0.053814	-0.274527	0.066309	-0.222022	-0.341797	-0.064453	0.680664	-177.910619	-84.278437	-30.619889
34072		8.989492	0.311978	0.066760	-0.308121	0.055682	-0.231005	-0.335449	-0.068115	0.674805	-179.389659	-84.312036	-29.305767
34073		9.219760	0.398726	0.070522	-0.346810	0.044584	-0.222048	-0.334229	-0.077881	0.679443	179.132375	-84.336178	-28.014989
34074		9.314516	0.514925	0.032264	-0.386020	0.029567	-0.218575	-0.331787	-0.071533	0.681885	177.657773	-84.348290	-26.750284
34075		9.307972	0.622323	-0.027633	-0.416580	0.022672	-0.201499	-0.338135	-0.076416	0.672119	176.248509	-84.353990	-25.568774
34076		9.231998	0.638297	-0.168555	-0.428510	0.022769	-0.192024	-0.344482	-0.083252	0.681152	174.898085	-84.357282	-24.453342
34077		8.967317	0.601906	-0.289867	-0.420483	0.018052	-0.170929	-0.336670	-0.081055	0.679932	173.663018	-84.356664	-23.449135
34078		8.974456	0.495613	-0.381981	-0.418977	0.032766	-0.160574	-0.338623	-0.089111	0.675049	172.490487	-84.363059	-22.506980
34079		8.800447	0.390938	-0.454566	-0.403108	0.043796	-0.156766	-0.338379	-0.083008	0.673584	171.324837	-84.374099	-21.562544
34080		8.785664	0.387036	-0.644979	-0.375866	0.068532	-0.144491	-0.338867	-0.087158	0.680420	170.229507	-84.398491	-20.673184
34081		8.989815	0.388651	-0.752725	-0.356709	0.095214	-0.149850	-0.339355	-0.101318	0.670898	169.064231	-84.435561	-19.702491
34082		9.095535	0.424592	-0.800384	-0.327926	0.098980	-0.134600	-0.343262	-0.099609	0.672119	167.997375	-84.474746	-18.814246
34083		9.143771	0.523945	-0.961058	-0.319325	0.095584	-0.124645	-0.345215	-0.098877	0.666504	166.972030	-84.511563	-17.962739
34084		9.089320	0.633918	-1.036558	-0.301355	0.094281	-0.105887	-0.351074	-0.093750	0.671875	166.067746	-84.548915	-17.222630
34085		8.981543	0.736756	-1.055949	-0.277755	0.101485	-0.091914	-0.336914	-0.102783	0.663818	165.224492	-84.591015	-16.530218
34086		8.962041	0.806480	-1.111117	-0.250586	0.111296	-0.081714	-0.342529	-0.098389	0.662109	164.440672	-84.639280	-15.881994
34087		8.843562	0.907573	-1.106435	-0.233352	0.130613	-0.072079	-0.340576	-0.112061	0.661377	163.665674	-84.698712	-15.232696
34088		8.911568	0.953850	-1.141362	-0.221192	0.147564	-0.069090	-0.342285	-0.104248	0.659424	162.880005	-84.767252	-14.565825
34089		8.846767	0.941031	-1.267886	-0.206846	0.161391	-0.047380	-0.350342	-0.106201	0.665039	162.176046	-84.846127	-13.972754
34090		8.852534	0.969410	-1.276741	-0.211319	0.179801	-0.026967	-0.353516	-0.102539	0.668701	161.548365	-84.938162	-13.458990
34091		8.826168	0.919881	-1.216986	-0.216692	0.187395	0.005062	-0.338867	-0.112061	0.656006	161.068313	-85.039618	-13.096516
34092		8.629793	0.787611	-1.161344	-0.217580	0.168680	0.058648	-0.350098	-0.105713	0.654541	160.964207	-85.140852	-13.112010
34093		8.237615	0.618263	-1.100629	-0.235001	0.102558	0.121884	-0.356445	-0.112061	0.659180	161.393785	-85.217822	-13.673027
34094		7.732192	0.460961	-1.352930	-0.255735	0.016770	0.186328	-0.346191	-0.104736	0.658691	162.446327	-85.258949	-14.871108
34095		7.307698	0.322642	-1.790889	-0.281078	-0.085554	0.250320	-0.342285	-0.113525	0.655273	164.114980	-85.252083	-16.701888
34096		6.892306	0.224917	-2.175304	-0.312691	-0.175115	0.295140	-0.348633	-0.116211	0.653320	166.215821	-85.197121	-18.984688
34097		6.832000	0.268505	-2.519549	-0.348636	-0.227051	0.339279	-0.344727	-0.116455	0.650879	168.592452	-85.111359	-21.565100
34098		7.087032	0.405339	-2.705355	-0.402811	-0.242785	0.376217	-0.347412	-0.115723	0.651123	171.115050	-85.010939	-24.323606
34099		7.358677	0.656641	-2.665703	-0.441217	-0.250241	0.413133	-0.339111	-0.117432	0.653564	173.737111	-84.898819	-27.204428
34100		7.894738	0.559741	-2.846967	-0.434755	-0.241392	0.455490	-0.334961	-0.117432	0.655518	176.510119	-84.781532	-30.233677
34101		8.770865	0.335193	-2.942657	-0.423663	-0.241486	0.453275	-0.343750	-0.114990	0.649658	179.132590	-84.651971	-33.105893
34102		9.284417	0.242003	-2.814577	-0.420624	-0.248373	0.422533	-0.332764	-0.115967	0.653320	-178.554915	-84.506609	-35.665708
34103		9.902329	0.058880	-2.611905	-0.413482	-0.258095	0.357045	-0.336426	-0.110352	0.644531	-176.757670	-84.349364	-37.704298
34104		10.333274	0.299283	-2.722419	-0.443113	-0.280272	0.244308	-0.337402	-0.118896	0.652832	-175.717956	-84.178004	-38.999261
34105		10.256308	0.588831	-2.863505	-0.437859	-0.285119	0.159303	-0.330811	-0.130615	0.645996	-175.213595	-84.006851	-39.753309
34106		9.981630	0.599189	-3.045541	-0.424911	-0.276925	0.135002	-0.331299	-0.117920	0.651367	-174.855213	-83.840053	-40.353399
34107		9.847392	0.546426	-3.238944	-0.428157	-0.247947	0.137777	-0.330078	-0.127686	0.658447	-174.500885	-83.690201	-40.951388
34108		9.743215	0.556473	-3.413609	-0.438477	-0.213651	0.125484	-0.329834	-0.139160	0.648926	-174.213389	-83.559164	-41.488315
34109		9.717953	0.614045	-3.600039	-0.459332	-0.174107	0.113017	-0.327637	-0.127441	0.648193	-173.999825	-83.452213	-41.962911
34110		9.775469	0.699122	-3.500271	-0.502025	-0.151098	0.091576	-0.323975	-0.134766	0.646484	-173.909691	-83.358318	-42.338053
34111		10.068314	0.574072	-3.051844	-0.523426	-0.146188	0.074194	-0.324463	-0.136719	0.639648	-173.923743	-83.269453	-42.620632
34112		10.643317	0.078688	-2.730126	-0.507182	-0.155370	0.035385	-0.322510	-0.139893	0.640381	-174.117990	-83.176414	-42.712511
34113		10.982662	-0.377361	-2.769178	-0.497500	-0.202431	-0.025657	-0.318115	-0.143799	0.639160	-174.617420	-83.061357	-42.491343
34114		11.304298	-0.626015	-3.140648	-0.455022	-0.241811	-0.114121	-0.321533	-0.145508	0.643555	-175.500430	-82.926484	-41.859212
34115		11.598572	-0.552625	-2.950802	-0.456693	-0.271072	-0.170245	-0.328613	-0.147949	0.637939	-176.621551	-82.777145	-40.987794
34116		11.954490	-0.431770	-2.332366	-0.450901	-0.310171	-0.198006	-0.324707	-0.156494	0.635498	-177.824654	-82.602569	-40.030144
34117		12.452657	-0.420286	-2.064552	-0.415444	-0.322894	-0.255049	-0.312500	-0.155518	0.634766	-179.208368	-82.420293	-38.869373
34118		13.148124	-0.682466	-1.915241	-0.286480	-0.256887	-0.372917	-0.319092	-0.171875	0.640137	179.045920	-82.270208	-37.268417
34119		13.183292	-0.818041	-1.544354	-0.155472	-0.231367	-0.500503	-0.316650	-0.163574	0.634033	176.901973	-82.126434	-35.189116
34120		12.755060	-0.767583	-1.179822	-0.087550	-0.248830	-0.596447	-0.309814	-0.174316	0.635498	174.498867	-81.956062	-32.808111
34121		12.047525	-0.787621	-1.184996	-0.093104	-0.267897	-0.628175	-0.297119	-0.174805	0.636475	172.075728	-81.760352	-30.408954
34122		11.127250	0.044987	-1.609501	-0.182045	-0.229290	-0.607171	-0.304199	-0.180908	0.635742	169.777292	-81.573271	-28.186205
34123		10.446055	1.387753	-1.037326	-0.386010	-0.113005	-0.505023	-0.297363	-0.184082	0.623535	167.742905	-81.452179	-26.347664
34124		10.334844	2.034193	-0.011202	-0.516384	0.014868	-0.403391	-0.308350	-0.185303	0.627686	165.951503	-81.405488	-24.830007
34125		10.188899	2.035877	0.932856	-0.575395	0.136232	-0.359905	-0.305176	-0.197754	0.622314	164.173260	-81.426576	-23.359782
34126		9.720376	1.610221	1.598060	-0.605463	0.246463	-0.384904	-0.291260	-0.208984	0.616699	162.158731	-81.495623	-21.668228
34127		9.206894	1.131374	1.973100	-0.603646	0.331355	-0.445755	-0.301514	-0.206055	0.614746	159.777749	-81.590649	-19.605495
34128		8.896012	0.680263	1.847056	-0.605328	0.374894	-0.513817	-0.306152	-0.213867	0.612305	157.042610	-81.680034	-17.186267
34129		9.138954	0.513434	1.622217	-0.596827	0.406125	-0.550866	-0.296875	-0.222412	0.609863	154.070337	-81.760114	-14.523008
34130		9.611390	0.403553	1.425944	-0.544821	0.394994	-0.542432	-0.306152	-0.227051	0.608398	151.136238	-81.816253	-11.868668
34131		9.924615	0.063119	1.199905	-0.453566	0.332405	-0.481813	-0.301270	-0.240479	0.600342	148.554392	-81.841108	-9.517643
34132		10.029634	-0.300282	0.782394	-0.356753	0.250525	-0.396837	-0.309814	-0.234863	0.603027	146.487354	-81.838528	-7.630712
34133		10.186991	-0.704808	0.343121	-0.269307	0.161990	-0.274792	-0.308838	-0.231201	0.599854	145.069735	-81.825589	-6.349204
34134		10.455098	-0.927203	0.057168	-0.215532	0.087792	-0.127269	-0.312744	-0.235840	0.596924	144.342806	-81.823119	-5.734323
34135		10.050532	-0.726035	-0.121132	-0.147024	0.018303	0.014928	-0.308350	-0.240234	0.597656	144.271939	-81.835498	-5.742587
34136		9.628665	-0.620944	-0.216388	-0.084152	-0.011702	0.127131	-0.313721	-0.245850	0.588623	144.678496	-81.871084	-6.196757
34137		9.691418	-0.589156	-0.261928	-0.035018	-0.012854	0.218234	-0.318359	-0.243408	0.593994	145.416015	-81.935552	-6.956724
34138		9.674449	-0.670159	-0.307198	-0.006706	-0.015366	0.285306	-0.302490	-0.240723	0.583984	146.421340	-82.018641	-7.970635
34139		9.677545	-0.748375	-0.341521	0.014029	-0.012689	0.305883	-0.315186	-0.240723	0.594971	147.518984	-82.106935	-9.065538
34140		9.328547	-0.741295	-0.306741	0.030904	-0.009265	0.319967	-0.314697	-0.238525	0.583984	148.700137	-82.198098	-10.234762
34141		9.209100	-0.630444	-0.392821	0.053270	-0.000618	0.337769	-0.314453	-0.239014	0.591064	149.961596	-82.295359	-11.471815
34142		9.122333	-0.510524	-0.379779	0.087881	0.013460	0.353001	-0.312256	-0.244385	0.595215	151.309626	-82.400103	-12.775942
34143		9.038299	-0.365041	-0.496206	0.148779	0.033697	0.374545	-0.321533	-0.241211	0.592285	152.764853	-82.516624	-14.152640
34144		8.991822	-0.260579	-0.545738	0.203190	0.056839	0.380072	-0.327148	-0.235107	0.585693	154.280302	-82.641714	-15.558285
34145		8.916946	-0.242855	-0.538422	0.241368	0.084170	0.384181	-0.320313	-0.238037	0.588867	155.825865	-82.777119	-16.971788
34146		8.935694	-0.195778	-0.617854	0.263726	0.090241	0.380458	-0.318115	-0.239258	0.584473	157.421141	-82.909910	-18.422107
34147		8.908050	-0.290953	-0.630212	0.282136	0.095709	0.375788	-0.322510	-0.231689	0.587402	159.046159	-83.039511	-19.891309
34148		8.806056	-0.332043	-0.697212	0.282496	0.086132	0.369800	-0.320313	-0.231934	0.589355	160.725413	-83.157534	-21.414596
34149		8.651213	-0.235505	-0.799194	0.266105	0.084120	0.363515	-0.313721	-0.229248	0.579590	162.415297	-83.267934	-22.957633
34150		8.542888	-0.097809	-0.848331	0.250856	0.083477	0.354188	-0.326416	-0.227295	0.586182	164.114388	-83.370959	-24.518452
34151		8.529117	-0.158988	-0.851166	0.240304	0.086063	0.332619	-0.324219	-0.222656	0.583496	165.740591	-83.466961	-26.011616
34152		8.490413	-0.250044	-0.842585	0.207666	0.075530	0.302226	-0.322021	-0.220459	0.582764	167.263895	-83.548205	-27.419833
34153		8.604906	-0.321760	-0.977020	0.160939	0.066634	0.256299	-0.331055	-0.229492	0.580322	168.565548	-83.615114	-28.631678
34154		8.734637	-0.283744	-1.092673	0.111591	0.058424	0.210925	-0.327393	-0.217041	0.579590	169.651128	-83.669533	-29.654483
34155		8.725431	-0.232680	-1.275150	0.088030	0.047004	0.171556	-0.331787	-0.211426	0.573242	170.539009	-83.711805	-30.491806
34156		8.724716	-0.329555	-1.498141	0.066225	0.046801	0.141792	-0.332275	-0.217529	0.576172	171.281839	-83.749795	-31.195777
34157		8.715006	-0.349479	-1.689326	0.060817	0.067975	0.108470	-0.321045	-0.215576	0.582764	171.830971	-83.796284	-31.707893
34158		8.664986	-0.299697	-1.782670	0.062876	0.079968	0.082316	-0.329590	-0.220703	0.581787	172.253203	-83.846821	-32.091206
34159		8.723581	-0.272707	-2.016662	0.077195	0.077903	0.061026	-0.325928	-0.220459	0.574219	172.568377	-83.894525	-32.358487
34160		8.862357	-0.244143	-2.129972	0.105970	0.082452	0.032083	-0.330811	-0.218750	0.574707	172.757118	-83.942300	-32.482092
34161		8.927486	-0.233323	-2.199333	0.145482	0.073877	0.006570	-0.326172	-0.213379	0.571533	172.828556	-83.983609	-32.464888
34162		8.832388	-0.216513	-2.348003	0.200424	0.037649	-0.043718	-0.328369	-0.220947	0.569336	172.695289	-84.000365	-32.210278
34163		8.615151	-0.126520	-2.416284	0.256597	-0.015174	-0.095074	-0.323486	-0.225830	0.572510	172.342914	-83.983495	-31.702906
34164		8.172401	-0.129091	-2.662606	0.324130	-0.083270	-0.138354	-0.324463	-0.226074	0.573486	171.863357	-83.923798	-31.028778
34165		7.880469	-0.193668	-2.953553	0.413250	-0.132638	-0.174061	-0.325684	-0.217529	0.561035	171.287355	-83.832847	-30.206119
34166		7.778972	-0.453549	-3.061987	0.514638	-0.157880	-0.193254	-0.322510	-0.215332	0.575195	170.723134	-83.724565	-29.336805
34167		7.924451	-0.740265	-3.025659	0.596888	-0.190163	-0.208172	-0.317139	-0.212891	0.571045	170.172701	-83.596158	-28.433666
34168		8.134054	-0.930064	-2.950664	0.671840	-0.232202	-0.227202	-0.322998	-0.210693	0.572266	169.649530	-83.440670	-27.514575
34169		8.197880	-1.015764	-2.992026	0.739228	-0.265114	-0.233492	-0.315186	-0.207275	0.582520	169.187719	-83.265614	-26.618002
34170		8.246705	-1.065099	-3.146200	0.817939	-0.288245	-0.222765	-0.316162	-0.213379	0.592773	168.887519	-83.077447	-25.838514
34171		8.350061	-1.075801	-3.272552	0.891859	-0.320678	-0.204335	-0.312256	-0.202637	0.582031	168.759384	-82.873331	-25.189318
34172		8.491465	-1.170573	-3.251944	0.948939	-0.340610	-0.157488	-0.310547	-0.208252	0.584717	168.918709	-82.662575	-24.796697
34173		8.652949	-1.113318	-3.268724	0.966546	-0.338401	-0.111946	-0.312500	-0.205322	0.583984	169.275000	-82.458884	-24.592284
34174		8.762522	-0.985556	-3.415883	0.956685	-0.342747	-0.079098	-0.302490	-0.189453	0.584473	169.772747	-82.255628	-24.536267
34175		8.879591	-0.790001	-3.641018	0.928074	-0.332671	-0.072898	-0.310791	-0.188721	0.589355	170.249793	-82.059500	-24.475808
34176		9.062855	-0.552631	-3.679286	0.902394	-0.324224	-0.102840	-0.294434	-0.188965	0.587158	170.589848	-81.864505	-24.291888
34177		9.477764	-0.310959	-3.673609	0.851324	-0.304534	-0.133940	-0.305420	-0.185547	0.588135	170.753409	-81.678723	-23.959059
34178		9.932731	-0.093624	-3.415337	0.801640	-0.270156	-0.157303	-0.294922	-0.183105	0.595459	170.794055	-81.509377	-23.530652
34179		10.442975	0.459862	-2.979332	0.723129	-0.232709	-0.172184	-0.292480	-0.181152	0.592285	170.708069	-81.360756	-23.019451
34180		10.810459	1.220515	-2.325539	0.679162	-0.266582	-0.180387	-0.287842	-0.175049	0.594238	170.609379	-81.191100	-22.520705
34181		10.752655	1.825238	-2.400860	0.678516	-0.374411	-0.179775	-0.291504	-0.179199	0.599365	170.578245	-80.961462	-22.090410
34182		10.820083	2.054865	-2.324157	0.758541	-0.448359	-0.156404	-0.280518	-0.171631	0.595947	170.737883	-80.691249	-21.806636
34183		11.322546	1.861937	-2.168646	0.858849	-0.460577	-0.068487	-0.282227	-0.170898	0.597168	171.249338	-80.423306	-21.821008
34184		11.958532	1.279254	-1.890462	0.840627	-0.399178	0.080256	-0.283936	-0.166504	0.600342	172.203476	-80.201377	-22.295075
34185		12.462673	0.722785	-1.289184	0.810131	-0.354215	0.224034	-0.289551	-0.162109	0.606689	173.546268	-80.014753	-23.181684
34186		12.794998	0.412884	-0.554314	0.749298	-0.346039	0.336252	-0.281006	-0.152832	0.603516	175.176304	-79.834148	-24.395936
34187		13.057863	0.414269	-0.471701	0.623346	-0.317492	0.465185	-0.270508	-0.149170	0.604980	177.075853	-79.669505	-25.958059
34188		13.002900	0.254141	-0.866332	0.609466	-0.214807	0.574377	-0.275879	-0.150879	0.603760	179.251926	-79.554850	-27.810093
34189		12.615300	-0.183258	-0.507015	0.733728	-0.042447	0.624403	-0.275879	-0.145996	0.605713	-178.387544	-79.526712	-29.777722
34190		11.973917	-0.676666	0.180716	0.825666	0.095347	0.626668	-0.272461	-0.138184	0.612793	-175.946493	-79.561398	-31.773659
34191		11.349110	-0.954146	0.692667	0.874227	0.192133	0.637991	-0.282715	-0.134033	0.612305	-173.404413	-79.636019	-33.843657
34192		11.028311	-1.002616	0.970950	0.846650	0.275016	0.656152	-0.278320	-0.116943	0.604004	-170.744097	-79.738220	-36.049335
34193		10.483724	-0.653137	1.085869	0.714400	0.282530	0.676130	-0.282959	-0.116699	0.605469	-168.055003	-79.825057	-38.360563
34194		9.696785	-0.002118	0.970236	0.522425	0.255026	0.645119	-0.291992	-0.115967	0.606934	-165.549683	-79.881002	-40.596360
34195		9.640619	0.954532	0.823852	0.304772	0.193084	0.528317	-0.291260	-0.116699	0.607910	-163.571290	-79.906077	-42.423282
34196		10.153324	1.777306	0.542793	0.097732	0.107582	0.360385	-0.287354	-0.110596	0.599609	-162.297074	-79.902592	-43.655425
34197		10.682816	2.265256	0.104024	-0.065826	0.092622	0.164567	-0.285645	-0.110107	0.601563	-161.737313	-79.923010	-44.257009
34198		10.853445	2.409160	0.029199	-0.194918	0.071979	-0.028786	-0.286865	-0.112549	0.606934	-161.857564	-79.965671	-44.243067
34199		10.470198	2.507753	-0.047937	-0.297125	0.031364	-0.185204	-0.289551	-0.118652	0.600586	-162.567927	-80.014248	-43.689323
34200		9.856087	2.476868	-0.038724	-0.376622	0.020100	-0.272512	-0.288574	-0.124023	0.601318	-163.608931	-80.069166	-42.846241
34201		9.409151	2.207434	-0.032488	-0.442569	0.031517	-0.320617	-0.294678	-0.125244	0.601074	-164.846178	-80.135505	-41.842436
34202		8.917961	1.513965	-0.015691	-0.481099	0.061910	-0.342045	-0.290039	-0.134277	0.602051	-166.160230	-80.217515	-40.783334
34203		8.834386	1.051887	-0.130892	-0.538705	0.110480	-0.340850	-0.290771	-0.129639	0.603027	-167.492149	-80.322658	-39.739870
34204		9.196872	0.990249	-0.269897	-0.575864	0.156427	-0.328842	-0.298096	-0.138184	0.597412	-168.795873	-80.447787	-38.746970
34205		9.168352	0.634789	-0.323047	-0.568186	0.182772	-0.313252	-0.298828	-0.143555	0.605469	-170.060730	-80.582632	-37.789379
34206		8.912410	0.350112	-0.349819	-0.576838	0.188316	-0.288962	-0.300781	-0.145020	0.599365	-171.271003	-80.714733	-36.892515
34207		8.779776	0.073666	-0.489369	-0.585603	0.208906	-0.284833	-0.297119	-0.165283	0.598145	-172.496314	-80.855219	-35.985838
34208		8.951129	-0.092340	-0.512265	-0.586689	0.250433	-0.285223	-0.290283	-0.163818	0.599365	-173.735380	-81.016097	-35.066260
34209		9.032543	-0.122990	-0.637489	-0.582180	0.255221	-0.281720	-0.300293	-0.162354	0.593262	-175.000598	-81.176391	-34.117990
34210		8.933173	-0.091730	-0.712300	-0.562553	0.249613	-0.253248	-0.309082	-0.166992	0.597900	-176.185150	-81.329018	-33.240374
34211		8.830493	-0.018178	-0.818831	-0.534962	0.251930	-0.223652	-0.302246	-0.172119	0.593262	-177.281310	-81.479338	-32.436505
34212		8.677387	-0.016784	-0.942771	-0.498933	0.253795	-0.185522	-0.311523	-0.172363	0.584717	-178.237281	-81.627711	-31.753825
34213		8.759218	-0.141463	-0.983918	-0.469015	0.267983	-0.147060	-0.298584	-0.185791	0.584717	-179.056465	-81.782092	-31.192301
34214		8.806546	-0.163371	-1.099506	-0.443884	0.272996	-0.116735	-0.309814	-0.179443	0.585693	-179.759935	-81.938120	-30.733364
34215		8.899216	-0.017150	-1.203416	-0.418246	0.264647	-0.085449	-0.299805	-0.183838	0.576660	179.652990	-82.088587	-30.377281
34216		8.974430	0.074161	-1.285282	-0.388196	0.256712	-0.057672	-0.300293	-0.190918	0.587891	179.187136	-82.234265	-30.126336
34217		9.116619	0.277303	-1.421902	-0.352666	0.241978	-0.046188	-0.307861	-0.192871	0.582275	178.773609	-82.371289	-29.907711
34218		9.122896	0.444145	-1.538278	-0.298629	0.219418	-0.047063	-0.312744	-0.193359	0.571533	178.383594	-82.495227	-29.681666
34219		9.061588	0.488540	-1.655110	-0.248656	0.215970	-0.054179	-0.310303	-0.193848	0.573730	177.976171	-82.616790	-29.409223
34220		9.003229	0.410394	-1.740525	-0.196890	0.219614	-0.058947	-0.311279	-0.200439	0.582520	177.570118	-82.740120	-29.108366
34221		8.935212	0.332682	-1.804233	-0.151565	0.223437	-0.061681	-0.316162	-0.200928	0.575928	177.159738	-82.865245	-28.777024
34222		8.728418	0.331564	-1.935028	-0.129715	0.226157	-0.055989	-0.313721	-0.206543	0.573486	176.779475	-82.991821	-28.463539
34223		8.568103	0.367347	-2.072912	-0.121419	0.235084	-0.038984	-0.319580	-0.194580	0.565430	176.464253	-83.123825	-28.210841
34224		8.514066	0.500007	-2.271522	-0.123719	0.243487	-0.020916	-0.316406	-0.201904	0.573486	176.226253	-83.261112	-28.037348
34225		8.565739	0.592618	-2.418751	-0.125745	0.261294	0.005730	-0.316650	-0.204102	0.569092	176.099120	-83.409565	-27.976660
34226		8.578880	0.562044	-2.445861	-0.131800	0.259680	0.037983	-0.317383	-0.204590	0.570313	176.132956	-83.558238	-28.081536
34227		8.371375	0.486100	-2.335348	-0.132595	0.234105	0.091566	-0.321777	-0.197998	0.570557	176.450493	-83.694342	-28.472267
34228		7.937308	0.508226	-2.313390	-0.166059	0.158274	0.140054	-0.329102	-0.204102	0.560059	177.046179	-83.788109	-29.162059
34229		7.448026	0.428061	-2.351012	-0.224113	0.042088	0.199267	-0.330322	-0.205078	0.557129	177.960627	-83.816040	-30.205823
34230		6.938234	0.461663	-2.625329	-0.324097	-0.083003	0.253650	-0.326660	-0.205078	0.572266	179.128622	-83.770775	-31.562315
34231		6.771903	0.715907	-2.958846	-0.404046	-0.162775	0.294722	-0.316162	-0.208740	0.555664	-179.562398	-83.677023	-33.106860
34232		6.939994	1.036272	-2.970641	-0.479488	-0.184839	0.328663	-0.328613	-0.212891	0.566162	-178.166003	-83.565869	-34.783212
34233		7.137718	1.332099	-3.020346	-0.566862	-0.175076	0.358585	-0.322021	-0.210449	0.567383	-176.724146	-83.455385	-36.556021
34234		7.779314	1.450516	-2.802325	-0.625252	-0.182874	0.365467	-0.322266	-0.209229	0.569092	-175.336625	-83.334710	-38.308269
34235		8.779666	1.171460	-2.417441	-0.600667	-0.198413	0.310778	-0.323486	-0.217285	0.557129	-174.264249	-83.204269	-39.729403
34236		9.179007	0.727160	-2.269181	-0.518915	-0.194591	0.220312	-0.322754	-0.219971	0.559814	-173.612812	-83.078358	-40.679816
34237		9.719653	0.224731	-2.329485	-0.462930	-0.170008	0.125838	-0.324219	-0.217773	0.565430	-173.381548	-82.972342	-41.174790
34238		9.823513	0.022300	-2.377297	-0.441930	-0.143929	0.060481	-0.322998	-0.218994	0.558594	-173.430993	-82.884684	-41.374936
34239		9.875497	0.048790	-2.578257	-0.452555	-0.090206	0.025475	-0.322021	-0.217041	0.557373	-173.619849	-82.830613	-41.440692
34240		9.849587	0.148870	-2.889715	-0.457144	-0.040623	0.015454	-0.322510	-0.223877	0.562500	-173.829596	-82.804687	-41.488105
34241		9.840392	0.223922	-3.269894	-0.447760	0.004398	0.015429	-0.323486	-0.231201	0.554688	-174.013101	-82.805184	-41.556495
34242		10.132039	0.104617	-3.324866	-0.424670	0.030055	0.013307	-0.328369	-0.235840	0.554688	-174.179896	-82.819615	-41.628452
34243		10.648799	0.059998	-3.192043	-0.388281	0.028291	-0.003220	-0.316650	-0.235107	0.564209	-174.402800	-82.834851	-41.622781
34244		11.240840	-0.251983	-3.171338	-0.309750	-0.011530	-0.042175	-0.318115	-0.237549	0.551514	-174.774274	-82.828541	-41.422085
34245		11.602412	-0.598507	-3.536163	-0.253346	-0.087007	-0.109124	-0.320313	-0.234619	0.554199	-175.445155	-82.783117	-40.886957
34246		11.794780	-0.729892	-3.629993	-0.264789	-0.158236	-0.175749	-0.330322	-0.244141	0.549072	-176.433107	-82.697695	-40.038798
34247		11.905146	-0.623708	-3.059555	-0.281198	-0.219641	-0.202428	-0.315430	-0.244385	0.551758	-177.539954	-82.577019	-39.079968
34248		12.078537	-0.821412	-2.375296	-0.234298	-0.265577	-0.233144	-0.322266	-0.232422	0.561523	-178.722768	-82.427069	-38.017191
34249		12.254703	-0.949926	-1.856778	-0.192290	-0.321259	-0.327479	-0.314209	-0.249268	0.553223	179.762763	-82.243581	-36.595002
34250		12.477316	-1.025996	-1.696951	-0.140959	-0.318637	-0.474770	-0.324951	-0.251465	0.555420	177.743410	-82.052867	-34.632897
34251		12.314397	-0.861286	-1.507428	-0.143262	-0.271901	-0.596019	-0.309326	-0.255371	0.558594	175.316514	-81.875517	-32.259598
34252		11.697001	-0.080027	-1.283909	-0.171195	-0.216366	-0.639179	-0.315430	-0.257568	0.552246	172.787962	-81.712007	-29.798808
34253		11.148848	0.666399	-0.591112	-0.293939	-0.196194	-0.603445	-0.313477	-0.258789	0.554688	170.409957	-81.549095	-27.560194
34254		10.808350	0.763585	-0.515706	-0.424804	-0.230247	-0.523799	-0.309326	-0.265137	0.556641	168.372228	-81.361990	-25.740515
34255		10.869399	1.122699	-1.009354	-0.537583	-0.100208	-0.453660	-0.310547	-0.273438	0.553711	166.491329	-81.248204	-24.144092
34256		10.891830	1.617433	0.198108	-0.657054	0.091088	-0.397307	-0.309570	-0.278564	0.544189	164.607028	-81.239834	-22.613251
34257		10.665422	1.513364	0.917731	-0.640780	0.222808	-0.407000	-0.311768	-0.286377	0.547119	162.553549	-81.295197	-20.901885
34258		10.262763	0.804489	1.479776	-0.575523	0.339967	-0.474054	-0.312744	-0.288086	0.541992	160.132513	-81.390897	-18.781270
34259		9.724511	0.092625	1.737263	-0.539179	0.406286	-0.552540	-0.306641	-0.294678	0.546143	157.307445	-81.491758	-16.231555
34260		9.434005	-0.364875	1.779590	-0.503921	0.472392	-0.608759	-0.315674	-0.300537	0.544189	154.140909	-81.593340	-13.316879
34261		9.528636	-0.409136	1.858886	-0.472466	0.534035	-0.631069	-0.324463	-0.301025	0.540527	150.729744	-81.696141	-10.137500
34262		9.840652	-0.227414	1.640125	-0.425683	0.537642	-0.605362	-0.315918	-0.305908	0.535156	147.356100	-81.780384	-6.969710
34263		10.091300	-0.067358	1.337524	-0.327474	0.494153	-0.519578	-0.317383	-0.314453	0.523682	144.358353	-81.846512	-4.125429
34264		10.126063	-0.144942	1.002586	-0.213141	0.411684	-0.401626	-0.320313	-0.311523	0.528564	141.967779	-81.896027	-1.828722
34265		10.015110	-0.363513	0.704631	-0.108880	0.338982	-0.266153	-0.318604	-0.330322	0.521240	140.217619	-81.950286	-0.118795
34266		10.135728	-0.616259	0.421902	-0.032206	0.264418	-0.124562	-0.319580	-0.311523	0.527100	139.128228	-82.018456	0.967939
34267		10.808186	-0.606416	0.114277	0.026967	0.228009	0.026790	-0.327393	-0.319824	0.518799	138.618128	-82.125867	1.503803
34268		10.827256	-0.221658	0.098409	0.083057	0.163946	0.181076	-0.319580	-0.319336	0.531006	138.794255	-82.263886	1.379280
34269		10.297903	-0.100561	0.127342	0.108386	0.118659	0.323011	-0.335449	-0.312744	0.523193	139.576826	-82.435216	0.657578
34270		9.657784	-0.261010	0.109560	0.106432	0.087628	0.405869	-0.329590	-0.321289	0.529297	140.766585	-82.621762	-0.475657
34271		9.268733	-0.413669	-0.006586	0.076641	0.065847	0.440597	-0.328613	-0.305420	0.523438	142.179847	-82.807423	-1.850916
34272		8.765409	-0.371241	-0.096488	0.072272	0.058230	0.452637	-0.332275	-0.307373	0.529297	143.733811	-82.989368	-3.369968
34273		8.589324	-0.163687	-0.249987	0.065982	0.076892	0.441362	-0.335938	-0.308350	0.528564	145.265220	-83.170971	-4.869298
34274		8.505412	0.052196	-0.357833	0.076856	0.086515	0.412614	-0.341064	-0.312744	0.519775	146.745077	-83.343340	-6.309934
34275		8.644152	0.264817	-0.494281	0.116507	0.099075	0.405577	-0.346191	-0.308105	0.527344	148.256206	-83.514938	-7.758631
34276		8.479953	0.248996	-0.620461	0.158592	0.098391	0.401031	-0.342041	-0.303467	0.522461	149.857440	-83.680511	-9.273297
34277		8.798933	0.158581	-0.735975	0.189163	0.110438	0.395138	-0.340576	-0.302002	0.523193	151.495657	-83.845410	-10.807016
34278		8.777199	0.087785	-0.770845	0.225102	0.088136	0.402093	-0.353516	-0.302979	0.519775	153.334620	-83.995895	-12.521501
34279		8.618088	0.051408	-0.789198	0.228372	0.068781	0.397799	-0.347900	-0.296875	0.520508	155.282756	-84.129062	-14.343369
34280		8.509238	-0.070672	-0.848819	0.214174	0.065065	0.373868	-0.345215	-0.298340	0.516602	157.196350	-84.248497	-16.138333
34281		8.552477	-0.016614	-0.921598	0.179931	0.059249	0.355131	-0.342773	-0.294189	0.523926	159.071111	-84.354618	-17.913580
34282		8.583543	0.084552	-1.050453	0.157709	0.076944	0.316194	-0.358154	-0.295166	0.523438	160.755862	-84.457205	-19.510438
34283		8.574282	0.175545	-1.200798	0.130197	0.085929	0.276943	-0.351074	-0.289795	0.522461	162.237465	-84.553077	-20.918721
34284		8.448842	0.162127	-1.284070	0.109154	0.092565	0.231393	-0.346191	-0.289307	0.532471	163.485909	-84.641738	-22.104759
34285		8.619420	0.035841	-1.366877	0.102959	0.090141	0.184880	-0.357666	-0.290039	0.520264	164.490090	-84.719424	-23.048823
34286		8.876379	-0.112229	-1.435256	0.104405	0.088824	0.135789	-0.364746	-0.293945	0.520752	165.234473	-84.787732	-23.731114
34287		8.979565	-0.354071	-1.536661	0.127197	0.072512	0.096273	-0.358643	-0.285645	0.521484	165.785536	-84.840580	-24.206050
34288		9.097951	-0.565766	-1.681811	0.150095	0.085277	0.063885	-0.365479	-0.289795	0.513428	166.146611	-84.895684	-24.477087
34289		9.138131	-0.744233	-1.752017	0.168723	0.093850	0.047226	-0.360840	-0.285156	0.521973	166.399655	-84.953164	-24.628863
34290		9.065554	-0.726529	-1.832541	0.195585	0.097889	0.042658	-0.361328	-0.284912	0.511719	166.645744	-85.012189	-24.758266
34291		9.002756	-0.704871	-1.880006	0.237143	0.097347	0.039442	-0.368896	-0.281494	0.523193	166.891970	-85.070481	-24.863823
34292		8.921677	-0.615494	-1.986109	0.244222	0.096315	0.027666	-0.360596	-0.277344	0.521973	167.079949	-85.126560	-24.906919
34293		8.742638	-0.468128	-1.945763	0.249530	0.093968	0.003088	-0.361816	-0.283203	0.526123	167.105284	-85.178259	-24.783651
34294		8.488945	-0.324741	-2.084336	0.240587	0.078318	-0.034085	-0.366211	-0.281250	0.522217	166.910136	-85.216287	-24.444361
34295		8.100940	-0.188970	-2.186146	0.239770	0.044749	-0.079397	-0.359863	-0.281250	0.515381	166.451037	-85.229580	-23.840596
34296		7.615693	-0.107262	-2.346658	0.255647	0.001283	-0.135151	-0.364502	-0.290527	0.530273	165.710821	-85.210311	-22.945693
34297		7.251380	0.107238	-2.603610	0.277153	-0.077304	-0.196279	-0.367188	-0.282471	0.520508	164.719868	-85.137605	-21.786643
34298		6.985009	0.214576	-2.988022	0.346839	-0.147480	-0.237538	-0.363525	-0.279297	0.520020	163.679984	-85.017821	-20.538333
34299		7.123460	-0.030308	-3.165717	0.458881	-0.196410	-0.278500	-0.357910	-0.287842	0.527588	162.591684	-84.862644	-19.176617
34300		7.432344	-0.471549	-3.216276	0.579422	-0.234666	-0.299593	-0.358398	-0.280273	0.527588	161.605545	-84.680437	-17.847867
34301		7.912014	-1.136195	-3.166579	0.699256	-0.266906	-0.302025	-0.353271	-0.270752	0.529297	160.804211	-84.478720	-16.635276
34302		8.468532	-1.589293	-2.733046	0.764811	-0.282428	-0.279806	-0.350342	-0.274170	0.526123	160.271042	-84.271178	-15.654079
34303		8.801391	-1.707888	-2.420255	0.776811	-0.305108	-0.251431	-0.345703	-0.271729	0.531738	159.977605	-84.056615	-14.906496
34304		9.090552	-1.431963	-2.413051	0.783151	-0.317469	-0.231267	-0.354248	-0.269775	0.535400	159.858132	-83.838712	-14.329998
34305		9.324287	-1.025369	-2.460633	0.789323	-0.315949	-0.191159	-0.349854	-0.270508	0.547363	159.945630	-83.629892	-13.957833
34306		9.506542	-0.728492	-2.624568	0.783820	-0.306195	-0.152853	-0.343262	-0.273438	0.540527	160.212355	-83.433524	-13.769160
34307		9.584343	-0.546784	-2.791397	0.766402	-0.292812	-0.116278	-0.349365	-0.246582	0.541992	160.601126	-83.251947	-13.713246
34308		9.705083	-0.314973	-2.856481	0.719187	-0.265967	-0.099240	-0.345703	-0.255127	0.542480	160.999771	-83.087691	-13.694588
34309		10.018585	-0.141413	-2.859698	0.664608	-0.250895	-0.091293	-0.347412	-0.256104	0.546631	161.360227	-82.933569	-13.668870
34310		10.567115	0.146207	-2.969022	0.569659	-0.221176	-0.069255	-0.349609	-0.255859	0.551025	161.722770	-82.799088	-13.700154
34311		11.098157	0.489951	-2.845040	0.458322	-0.168732	-0.048180	-0.339844	-0.244873	0.545654	162.020724	-82.697440	-13.730560
34312		11.300502	1.005481	-2.284850	0.359111	-0.176958	-0.049958	-0.344482	-0.252686	0.557861	162.272250	-82.590373	-13.771553
34313		11.619788	1.500926	-1.652338	0.287065	-0.260423	-0.057059	-0.341797	-0.246094	0.553955	162.547771	-82.437077	-13.878315
34314		12.108423	1.962879	-1.116094	0.219305	-0.332988	-0.008488	-0.341064	-0.238770	0.558105	163.073515	-82.251546	-14.276834
34315		12.449430	2.180065	-1.118422	0.268060	-0.418418	0.095353	-0.351074	-0.250244	0.553467	164.102691	-82.035827	-15.155476
34316		12.654634	2.127546	-0.977360	0.318773	-0.443983	0.221503	-0.336182	-0.245605	0.557617	165.631146	-81.821523	-16.509563
34317		12.678348	1.657112	-1.022467	0.378419	-0.435778	0.335457	-0.340576	-0.250244	0.553955	167.535651	-81.622053	-18.209767
34318		12.550705	0.686602	-1.970435	0.449073	-0.380637	0.425684	-0.330566	-0.239502	0.558838	169.701344	-81.454464	-20.133958
34319		12.465540	-0.281617	-2.581570	0.563353	-0.259785	0.467605	-0.338623	-0.230713	0.566406	171.934419	-81.349097	-22.060714
34320		12.455754	-0.977685	-2.154338	0.644981	-0.126984	0.461260	-0.333740	-0.234131	0.570801	174.092705	-81.307052	-23.864937
34321		12.512774	-1.160803	-1.319453	0.528732	0.077196	0.435641	-0.334961	-0.231689	0.567871	176.006592	-81.371514	-25.489209
34322		12.365044	-0.687229	-0.296992	0.506871	0.154840	0.403842	-0.342773	-0.228027	0.563721	177.807195	-81.470600	-27.011298
34323		12.013148	0.002729	0.094195	0.465597	0.259270	0.424296	-0.342285	-0.218262	0.566162	179.690457	-81.623311	-28.640293
34324		11.266473	0.510359	0.673775	0.499731	0.379003	0.468889	-0.343018	-0.216309	0.569336	-178.145281	-81.834907	-30.532791
34325		10.465318	0.580591	1.182040	0.522005	0.457999	0.514487	-0.346924	-0.207764	0.558350	-175.660424	-82.079957	-32.735019
34326		9.707019	0.602273	1.230591	0.530673	0.503061	0.550437	-0.353271	-0.209473	0.566406	-172.843875	-82.333363	-35.265769
34327		8.773499	0.401627	1.158944	0.465899	0.481516	0.552355	-0.357422	-0.200684	0.566895	-169.904193	-82.557674	-37.956661
34328		8.056761	0.471621	0.935381	0.325740	0.400953	0.493791	-0.365234	-0.198486	0.559570	-167.209889	-82.724994	-40.480005
34329		7.912127	0.920914	0.630059	0.160904	0.306059	0.361902	-0.363037	-0.194336	0.560791	-165.196400	-82.844861	-42.411400
34330		9.093539	1.353935	0.265986	0.021222	0.260594	0.174317	-0.364014	-0.196777	0.559814	-164.086823	-82.960725	-43.512154
34331		10.004478	1.497797	0.133330	-0.098514	0.199393	-0.035727	-0.367676	-0.201172	0.557617	-164.048175	-83.075224	-43.602727
34332		9.987849	1.219160	0.040291	-0.159080	0.167112	-0.153754	-0.370361	-0.204102	0.557861	-164.623346	-83.189626	-43.110064
34333		10.130586	1.379723	0.058942	-0.212873	0.142955	-0.227435	-0.370850	-0.203613	0.561523	-165.631487	-83.301253	-42.212470
34334		10.165950	1.508532	0.029663	-0.201772	0.124024	-0.276206	-0.372803	-0.202637	0.560547	-166.916317	-83.406344	-41.030190
34335		9.776041	1.017275	0.261182	-0.144827	0.116939	-0.293432	-0.369873	-0.205811	0.557861	-168.305692	-83.506848	-39.710004
34336		9.262092	0.441618	0.272185	-0.119275	0.106854	-0.288187	-0.365967	-0.215576	0.551025	-169.699405	-83.597035	-38.371039
34337		8.973528	0.169635	0.224604	-0.125875	0.111840	-0.284523	-0.368408	-0.212891	0.551514	-171.118045	-83.686345	-37.010963
34338		9.127370	0.179917	0.093567	-0.148646	0.113848	-0.271899	-0.365234	-0.209473	0.558350	-172.516053	-83.771742	-35.685062
34339		9.162352	0.353205	0.027348	-0.169919	0.108199	-0.274077	-0.369873	-0.221191	0.555908	-173.983822	-83.850700	-34.301395
34340		9.057834	0.525607	-0.106512	-0.204470	0.099874	-0.283559	-0.363770	-0.230469	0.553955	-175.556293	-83.921211	-32.832590
34341		8.783248	0.568970	-0.258846	-0.213479	0.101367	-0.291423	-0.377441	-0.226318	0.552979	-177.216658	-83.988609	-31.280720
34342		8.618142	0.563405	-0.299204	-0.221697	0.111232	-0.294118	-0.378662	-0.223145	0.555420	-178.924948	-84.056741	-29.685646
