// General information: 
//  MT Manager version: 2022.2.0 
//  XDA version: 2022.2.0 build 7381 rev 124627 built on 2023-07-19
// Device information: 
//  DeviceId: 00B4C3A0
//  ProductCode: MTW2-3A7G6
//  Firmware Version: 4.6.0
//  Hardware Version: 2.0.0
// Device settings: 
//  Filter Profile: human(46.1)
//  Option Flags: Orientation Smoother Disabled, Position/Velocity Smoother Disabled, Continuous Zero Rotation Update Disabled, AHS Disabled, ICC Disabled
// Coordinate system: ENU
PacketCounter	SampleTimeFine	Acc_X	Acc_Y	Acc_Z	Gyr_X	Gyr_Y	Gyr_Z	Mag_X	Mag_Y	Mag_Z	Roll	Pitch	Yaw
40704		9.500410	0.370348	-1.308250	0.007004	-0.006366	-0.004348	-0.312256	-0.167236	0.685547	163.157980	-81.409030	-18.073111
40705		9.524417	0.379955	-1.286108	0.001722	-0.008880	-0.003128	-0.316650	-0.172363	0.696777	163.173844	-81.405192	-18.082966
40706		9.544184	0.407737	-1.292792	-0.001266	-0.003317	-0.001168	-0.310059	-0.171875	0.697021	163.183318	-81.401704	-18.087703
40707		9.519993	0.398455	-1.316162	-0.006310	-0.007275	0.001650	-0.312256	-0.166504	0.694092	163.210067	-81.399516	-18.113360
40708		9.524317	0.390499	-1.240240	-0.008832	-0.009253	0.003059	-0.316895	-0.171387	0.697510	163.237002	-81.393471	-18.140142
40709		9.519899	0.408744	-1.270314	-0.012865	-0.014655	0.000456	-0.316162	-0.171631	0.692139	163.263729	-81.387064	-18.168927
40710		9.519713	0.408836	-1.271684	-0.016887	-0.015402	0.001598	-0.315186	-0.175049	0.696289	163.287367	-81.377401	-18.197043
40711		9.547945	0.399936	-1.221210	-0.012869	-0.014651	0.000458	-0.315430	-0.168701	0.698242	163.313629	-81.371023	-18.226304
40712		9.523625	0.390857	-1.245426	-0.022653	-0.015022	-0.000369	-0.311768	-0.175049	0.699219	163.326339	-81.361241	-18.246709
40713		9.551526	0.366756	-1.266948	-0.014160	-0.024164	-0.005701	-0.313232	-0.174805	0.696533	163.340007	-81.348545	-18.263504
40714		9.542915	0.419478	-1.255449	-0.019433	-0.022021	-0.000728	-0.306152	-0.176270	0.704346	163.360722	-81.334861	-18.290142
40715		9.522617	0.381746	-1.298847	-0.016903	-0.016941	0.000361	-0.313965	-0.169189	0.695801	163.386672	-81.326991	-18.321727
40716		9.542313	0.414675	-1.282919	-0.016438	-0.022925	0.001059	-0.308594	-0.170410	0.702148	163.416354	-81.313098	-18.355701
40717		9.522105	0.381913	-1.302544	-0.011143	-0.017314	0.002332	-0.320313	-0.176514	0.689697	163.453139	-81.305393	-18.393687
40718		9.550253	0.367579	-1.276273	-0.009647	-0.018542	0.002600	-0.316406	-0.166504	0.698242	163.487384	-81.294154	-18.428343
40719		9.550034	0.367617	-1.277903	-0.004607	-0.016136	-0.001473	-0.314697	-0.177002	0.699219	163.512410	-81.286705	-18.450988
40720		9.525546	0.353087	-1.326037	-0.002851	-0.014162	0.004137	-0.317871	-0.167725	0.697754	163.551269	-81.278117	-18.486375
40721		9.525335	0.353102	-1.327545	0.004925	-0.017420	-0.004747	-0.312500	-0.167480	0.701416	163.571364	-81.269341	-18.498559
40722		9.549476	0.367670	-1.282050	0.010245	-0.007166	0.000266	-0.308105	-0.176758	0.693115	163.596386	-81.263965	-18.512357
40723		9.521102	0.386891	-1.287040	0.011974	-0.011387	0.000881	-0.318115	-0.175781	0.693115	163.634346	-81.259216	-18.538760
40724		9.520553	0.371137	-1.359681	0.020015	-0.009893	-0.001413	-0.309082	-0.166016	0.699707	163.661771	-81.252068	-18.549325
40725		9.544617	0.380194	-1.337779	0.022783	-0.007808	0.000020	-0.311768	-0.165771	0.695313	163.698915	-81.249244	-18.568371
40726		9.544401	0.374538	-1.362295	0.025557	-0.004174	0.002701	-0.318359	-0.173340	0.696289	163.738179	-81.245900	-18.587702
40727		9.544347	0.373909	-1.362851	0.027052	-0.005400	0.002971	-0.309082	-0.167236	0.696777	163.785708	-81.244904	-18.614572
40728		9.520282	0.369421	-1.362047	0.020583	0.002403	-0.001292	-0.306641	-0.164795	0.698242	163.800991	-81.244537	-18.612523
40729		9.520410	0.374341	-1.338379	0.024046	-0.004487	0.001194	-0.311523	-0.172607	0.701904	163.839870	-81.243504	-18.631905
40730		9.524558	0.350547	-1.333778	0.023797	-0.004592	-0.001650	-0.316162	-0.168457	0.695068	163.862951	-81.239230	-18.635884
40731		9.516125	0.397189	-1.344219	0.019567	0.002302	0.002887	-0.312500	-0.164063	0.701660	163.897800	-81.242378	-18.654598
40732		9.524426	0.344515	-1.357753	0.016797	0.000219	0.001457	-0.312256	-0.165039	0.699463	163.922987	-81.241246	-18.664765
40733		9.520263	0.367541	-1.362684	0.009801	0.005028	0.004561	-0.308838	-0.174316	0.697510	163.955812	-81.246088	-18.685880
40734		9.516280	0.395894	-1.343498	0.005297	0.005612	0.001263	-0.311768	-0.173096	0.698975	163.968169	-81.247894	-18.689732
40735		9.520545	0.372218	-1.338009	0.002768	0.002085	0.001431	-0.313477	-0.165771	0.695801	163.988241	-81.250537	-18.704187
40736		9.516669	0.406011	-1.295155	-0.001481	0.004328	0.002224	-0.312988	-0.174072	0.702393	164.001481	-81.251787	-18.712863
40737		9.520763	0.377069	-1.313716	-0.009293	-0.001710	0.003622	-0.310059	-0.164063	0.698975	164.026491	-81.252763	-18.738397
40738		9.520954	0.382028	-1.289586	-0.012503	0.006839	0.005227	-0.309570	-0.162598	0.707031	164.041604	-81.255868	-18.755357
40739		9.516522	0.394856	-1.342089	-0.004018	-0.000748	0.001146	-0.312500	-0.164795	0.692871	164.060323	-81.256848	-18.770024
40740		9.468279	0.381492	-1.363899	-0.011037	-0.000589	0.000509	-0.313965	-0.166016	0.700195	164.066991	-81.255117	-18.777588
40741		9.516393	0.389657	-1.365855	-0.013784	0.001977	0.002819	-0.300537	-0.167969	0.698486	164.082908	-81.257974	-18.795721
40742		9.488168	0.409162	-1.369729	-0.016792	0.001335	-0.000211	-0.322266	-0.167725	0.699707	164.081732	-81.257190	-18.798686
40743		9.512255	0.413292	-1.370488	-0.016540	0.002994	0.003883	-0.309326	-0.170654	0.700684	164.098780	-81.260686	-18.820016
40744		9.492324	0.380545	-1.387799	-0.021045	0.003583	0.000587	-0.316162	-0.162354	0.702637	164.095730	-81.261266	-18.823550
40745		9.516406	0.384705	-1.388580	-0.015053	0.000218	0.002905	-0.312500	-0.165283	0.695313	164.113038	-81.263093	-18.843816
40746		9.516731	0.395121	-1.340533	-0.018279	0.005670	0.002021	-0.313965	-0.170898	0.696045	164.114589	-81.265048	-18.850403
40747		9.540609	0.388614	-1.388601	-0.022048	0.006582	0.007263	-0.311768	-0.169922	0.697021	164.136772	-81.271081	-18.880238
40748		9.516914	0.394650	-1.339366	-0.020567	0.002255	0.005036	-0.313232	-0.170166	0.704102	164.151329	-81.271625	-18.901309
40749		9.541130	0.403750	-1.316373	-0.019079	-0.000522	0.004056	-0.304688	-0.166748	0.693115	164.170958	-81.273175	-18.927026
40750		9.516961	0.394375	-1.339118	-0.020578	0.000709	0.003791	-0.315430	-0.167480	0.696533	164.182617	-81.272671	-18.945171
40751		9.497089	0.366785	-1.333132	-0.017599	-0.004848	0.001828	-0.310059	-0.166016	0.696289	164.199572	-81.271415	-18.967012
40752		9.497040	0.366682	-1.333503	-0.014591	-0.004209	0.004858	-0.316406	-0.166992	0.691406	164.223478	-81.268364	-18.994078
40753		9.492817	0.389892	-1.338873	-0.017349	-0.003191	0.005925	-0.308838	-0.163330	0.699219	164.253486	-81.268753	-19.028775
40754		9.516818	0.393969	-1.340248	-0.012328	-0.005435	-0.001898	-0.311035	-0.169189	0.694824	164.255651	-81.263972	-19.032533
40755		9.521082	0.375673	-1.311805	-0.015861	-0.005968	0.004943	-0.309326	-0.169434	0.692139	164.285915	-81.262541	-19.066524
40756		9.516819	0.398926	-1.317461	-0.017128	-0.007728	0.005027	-0.315186	-0.167725	0.692871	164.312463	-81.257568	-19.097734
40757		9.496723	0.366040	-1.335934	-0.021400	-0.008575	0.003332	-0.312256	-0.173096	0.696777	164.335999	-81.254528	-19.128757
40758		9.512154	0.411942	-1.371591	-0.020135	-0.006811	0.003251	-0.318604	-0.170898	0.697754	164.353481	-81.249784	-19.152537
40759		9.516143	0.383337	-1.390756	-0.020606	-0.002373	0.001308	-0.308838	-0.162842	0.698975	164.363733	-81.249919	-19.170044
40760		9.520596	0.369986	-1.338261	-0.019884	-0.005156	0.007349	-0.308350	-0.170654	0.705078	164.394360	-81.246718	-19.206980
40761		9.548761	0.350250	-1.334866	-0.017144	-0.009268	0.003783	-0.312744	-0.173340	0.697754	164.422959	-81.243172	-19.239864
40762		9.548981	0.360388	-1.287794	-0.014611	-0.005746	0.003619	-0.309570	-0.176758	0.696777	164.443785	-81.239066	-19.263826
40763		9.540194	0.397016	-1.346371	-0.012892	-0.011516	0.002980	-0.317871	-0.168701	0.697021	164.473389	-81.234242	-19.297192
40764		9.535913	0.420319	-1.352124	-0.018630	-0.004937	0.006023	-0.305176	-0.176270	0.698730	164.499665	-81.230949	-19.329000
40765		9.540382	0.406649	-1.299741	-0.017125	-0.004620	0.007538	-0.308594	-0.169678	0.698242	164.536383	-81.230626	-19.371393
40766		9.540013	0.395969	-1.347960	-0.011611	-0.006658	0.005399	-0.314697	-0.177490	0.698242	164.566111	-81.226281	-19.402625
40767		9.515780	0.386517	-1.371010	-0.009542	0.001299	0.003293	-0.312500	-0.172852	0.701172	164.585998	-81.228566	-19.423791
40768		9.511646	0.409853	-1.375739	-0.001481	0.004327	0.002238	-0.314209	-0.177246	0.702637	164.599356	-81.229804	-19.432587
40769		9.515760	0.381140	-1.393982	-0.004716	0.008236	0.000117	-0.309082	-0.171631	0.694580	164.603699	-81.235457	-19.435328
40770		9.512021	0.415112	-1.350317	-0.005192	0.011127	-0.003075	-0.309570	-0.166748	0.702637	164.589185	-81.239643	-19.418074
40771		9.492129	0.382642	-1.367143	-0.006215	0.009470	-0.000146	-0.312012	-0.177002	0.697266	164.590876	-81.245805	-19.417990
40772		9.492094	0.377575	-1.390180	-0.008744	0.007498	0.001270	-0.309570	-0.175781	0.700684	164.593482	-81.248647	-19.420117
40773		9.516232	0.381510	-1.390649	-0.005510	0.003588	0.003391	-0.308838	-0.171387	0.696289	164.613549	-81.252118	-19.439750
40774		9.488205	0.405823	-1.370467	-0.004011	0.002355	0.003654	-0.306152	-0.172852	0.696289	164.632515	-81.252482	-19.455687
40775		9.520975	0.372866	-1.313383	-0.000222	0.004540	0.000907	-0.308350	-0.169922	0.703125	164.646041	-81.255990	-19.464905
40776		9.516345	0.380999	-1.390020	-0.001038	-0.004753	0.000426	-0.311523	-0.171143	0.700684	164.662127	-81.251935	-19.476205
40777		9.516293	0.381104	-1.390344	0.006778	-0.001828	-0.003473	-0.302979	-0.172852	0.703125	164.670332	-81.251302	-19.475331
40778		9.520278	0.352647	-1.409458	-0.001276	-0.003307	-0.001169	-0.313965	-0.172363	0.701660	164.679118	-81.247804	-19.479382
40779		9.544427	0.361951	-1.386952	0.004249	-0.003800	-0.002058	-0.317871	-0.168213	0.697510	164.692758	-81.246228	-19.485992
40780		9.524691	0.339493	-1.357159	0.000008	0.001547	0.001251	-0.305664	-0.169434	0.693848	164.706187	-81.245778	-19.493996
40781		9.492148	0.377307	-1.389880	0.001268	0.001760	-0.000082	-0.308350	-0.170166	0.693115	164.719713	-81.247710	-19.501575
40782		9.512339	0.415004	-1.348107	-0.002521	-0.000425	0.002666	-0.310791	-0.166260	0.693115	164.738704	-81.246383	-19.516674
40783		9.516369	0.386309	-1.366973	0.001260	0.000213	-0.001333	-0.307861	-0.178223	0.703369	164.749243	-81.247194	-19.521304
40784		9.532054	0.437338	-1.378092	-0.001022	-0.001658	0.002929	-0.305664	-0.167725	0.701904	164.771236	-81.245224	-19.538571
40785		9.487990	0.400337	-1.394881	-0.006778	0.001828	0.003473	-0.311279	-0.176025	0.701904	164.792769	-81.247489	-19.559771
40786		9.516412	0.385852	-1.366803	-0.004257	0.002253	0.000808	-0.306641	-0.169189	0.695068	164.801470	-81.247360	-19.565465
40787		9.488067	0.400190	-1.394400	-0.009783	0.002747	0.001698	-0.310059	-0.162354	0.700684	164.813826	-81.249947	-19.579150
40788		9.488120	0.400188	-1.394039	-0.011282	0.003980	0.001436	-0.310303	-0.170166	0.708740	164.819075	-81.250868	-19.585424
40789		9.516697	0.390902	-1.342005	-0.008286	0.001515	0.001961	-0.305908	-0.171875	0.693848	164.834957	-81.252808	-19.600078
40790		9.492348	0.376710	-1.388678	-0.004274	-0.000840	-0.001694	-0.312988	-0.166748	0.692627	164.837674	-81.250593	-19.599726
40791		9.520732	0.362578	-1.360740	-0.004504	0.002152	-0.002038	-0.316650	-0.170166	0.701660	164.840215	-81.252309	-19.599887
40792		9.492361	0.377155	-1.388467	-0.007033	0.000180	-0.000623	-0.309814	-0.166260	0.703857	164.844203	-81.250819	-19.602422
40793		9.516276	0.376126	-1.413277	-0.012315	0.000776	0.003114	-0.314209	-0.169434	0.702637	164.862288	-81.252605	-19.622084
40794		9.492588	0.382151	-1.364084	-0.010008	0.007289	0.002608	-0.315674	-0.161865	0.697998	164.869274	-81.255530	-19.629376
40795		9.512529	0.409725	-1.369652	-0.009794	0.001203	0.000448	-0.312988	-0.167725	0.698975	164.878854	-81.257209	-19.638442
40796		9.516734	0.386199	-1.364459	-0.013816	0.002012	0.002853	-0.303223	-0.172363	0.702881	164.889677	-81.257252	-19.651823
40797		9.512719	0.414932	-1.345449	-0.020867	-0.000898	-0.000272	-0.313477	-0.163330	0.702393	164.892225	-81.257404	-19.661387
40798		9.512695	0.415188	-1.345537	-0.023399	-0.002868	0.001144	-0.309814	-0.169434	0.699707	164.896146	-81.254492	-19.673341
40799		9.536877	0.424541	-1.322746	-0.030430	-0.001135	0.001778	-0.306641	-0.168457	0.696289	164.900926	-81.254931	-19.689723
40800		9.569288	0.381856	-1.313666	-0.032172	0.001551	-0.000074	-0.317383	-0.168457	0.696533	164.891150	-81.254281	-19.692905
40801		9.512713	0.416049	-1.345144	-0.037461	0.002152	0.003670	-0.309570	-0.165527	0.704590	164.895210	-81.256849	-19.713241
40802		9.565104	0.400686	-1.341409	-0.037912	0.011238	0.005500	-0.315918	-0.166504	0.701416	164.892796	-81.262390	-19.727198
40803		9.561242	0.429305	-1.321276	-0.043459	0.010199	0.005148	-0.305908	-0.168701	0.696289	164.891246	-81.269603	-19.744392
40804		9.565278	0.395841	-1.362987	-0.036670	0.009919	0.002925	-0.305420	-0.165771	0.702881	164.881561	-81.274030	-19.750274
40805		9.517042	0.377857	-1.407650	-0.031134	0.010968	0.003287	-0.316162	-0.169922	0.695313	164.879644	-81.281152	-19.760516
40806		9.513334	0.411689	-1.363465	-0.028843	0.014393	0.000285	-0.317627	-0.169189	0.697266	164.860558	-81.287659	-19.752349
40807		9.517597	0.383454	-1.380741	-0.029071	0.018937	0.001206	-0.302979	-0.172119	0.700928	164.843918	-81.299258	-19.746776
40808		9.489727	0.408157	-1.359189	-0.024340	0.012236	0.002320	-0.314941	-0.172363	0.700928	164.836842	-81.304876	-19.748150
40809		9.494043	0.384704	-1.353202	-0.018575	0.008739	0.001761	-0.309814	-0.169922	0.695557	164.838336	-81.310590	-19.755433
40810		9.494177	0.384969	-1.352182	-0.021824	0.011121	-0.001599	-0.309082	-0.168457	0.701416	164.819606	-81.315004	-19.743558
40811		9.474429	0.357543	-1.345251	-0.022609	0.009555	0.004175	-0.308838	-0.158447	0.705078	164.826857	-81.321552	-19.758355
40812		9.474537	0.357658	-1.344457	-0.018593	0.005655	-0.000746	-0.311279	-0.171143	0.697510	164.818426	-81.323071	-19.755027
40813		9.466287	0.405034	-1.353634	-0.019859	0.005444	0.000590	-0.315186	-0.169678	0.695801	164.818684	-81.326801	-19.759964
40814		9.498514	0.352315	-1.391972	-0.020099	0.006897	-0.001000	-0.304443	-0.177734	0.688721	164.807245	-81.328969	-19.754466
40815		9.498936	0.367579	-1.319680	-0.019869	0.003902	-0.000664	-0.308350	-0.172363	0.702393	164.803538	-81.331679	-19.757864
40816		9.522951	0.366927	-1.343943	-0.018594	0.007206	0.000517	-0.316406	-0.169434	0.697754	164.798150	-81.334246	-19.757614
40817		9.547091	0.371156	-1.344252	-0.023905	0.004719	0.001750	-0.313721	-0.166260	0.697510	164.800420	-81.337798	-19.768262
40818		9.543024	0.394861	-1.348412	-0.021365	0.008236	0.001599	-0.318604	-0.168457	0.700439	164.796354	-81.341097	-19.770955
40819		9.547286	0.371466	-1.342785	-0.025413	0.005963	0.001498	-0.318115	-0.171875	0.699951	164.795736	-81.345426	-19.778635
40820		9.523375	0.372664	-1.317590	-0.019652	-0.000628	-0.001583	-0.314453	-0.166504	0.692139	164.789849	-81.343346	-19.778493
40821		9.479406	0.341193	-1.310899	-0.019173	-0.001988	0.002855	-0.316162	-0.164063	0.706055	164.805341	-81.343488	-19.799382
40822		9.499066	0.359191	-1.364559	-0.018389	-0.000412	-0.002915	-0.309082	-0.170410	0.696289	164.795127	-81.341328	-19.794132
40823		9.503427	0.345963	-1.311913	-0.014112	-0.001133	-0.002481	-0.307617	-0.168457	0.699707	164.793684	-81.340971	-19.794348
40824		9.499227	0.369768	-1.316974	-0.017679	-0.004769	0.001854	-0.313477	-0.166016	0.697266	164.805487	-81.337119	-19.810957
40825		9.503326	0.346264	-1.312564	-0.012135	-0.005277	0.000953	-0.315430	-0.169678	0.700684	164.821680	-81.334925	-19.828044
40826		9.499083	0.369773	-1.318011	-0.014436	-0.008700	0.003953	-0.310791	-0.172363	0.701660	164.846792	-81.329212	-19.856237
40827		9.498882	0.364908	-1.342523	-0.009605	-0.004849	-0.001715	-0.315918	-0.165283	0.704590	164.853987	-81.326911	-19.863432
40828		9.550988	0.344785	-1.363806	-0.011103	-0.002065	-0.000710	-0.308594	-0.174072	0.699463	164.857561	-81.324167	-19.867905
40829		9.522989	0.374366	-1.319897	-0.005790	0.000421	-0.001943	-0.303711	-0.172607	0.703857	164.861066	-81.324705	-19.868823
40830		9.546942	0.373739	-1.344599	-0.001742	0.002694	-0.001842	-0.308105	-0.173584	0.701172	164.861230	-81.324424	-19.864422
40831		9.551226	0.355289	-1.315764	-0.004286	-0.000819	-0.001690	-0.299072	-0.170654	0.693848	164.867616	-81.324075	-19.868353
40832		9.586842	0.434400	-1.332109	-0.004524	0.000635	-0.003278	-0.309082	-0.170898	0.707520	164.863002	-81.322441	-19.860730
40833		9.590918	0.406143	-1.350925	-0.007282	0.004748	0.000321	-0.311768	-0.172607	0.699219	164.869629	-81.325421	-19.866252
40834		9.566851	0.397202	-1.373155	-0.013054	0.009800	0.002154	-0.317383	-0.164307	0.701904	164.870835	-81.329668	-19.869462
40835		9.515030	0.427389	-1.303513	-0.006010	0.006506	0.000246	-0.305664	-0.177002	0.699707	164.876032	-81.333965	-19.871967
40836		9.499275	0.371340	-1.316186	-0.011558	0.007018	0.001150	-0.314209	-0.174561	0.707031	164.877186	-81.336523	-19.874256
40837		9.495010	0.385126	-1.368019	-0.007510	0.009291	0.001252	-0.310791	-0.172119	0.692139	164.882033	-81.342302	-19.878994
40838		9.527716	0.351929	-1.310660	-0.006249	0.007961	-0.001341	-0.307373	-0.169189	0.700195	164.876254	-81.345009	-19.871194
40839		9.495212	0.385634	-1.366471	-0.006499	0.006330	-0.005447	-0.308350	-0.168457	0.693359	164.860446	-81.348171	-19.853622
40840		9.503942	0.353439	-1.284317	-0.004735	0.009807	0.001431	-0.307373	-0.168457	0.698975	164.863787	-81.352313	-19.854170
40841		9.519573	0.394958	-1.341966	-0.004751	0.005178	-0.002346	-0.310547	-0.168457	0.698975	164.861551	-81.355252	-19.848840
40842		9.491485	0.419565	-1.321658	0.001267	0.000214	-0.001335	-0.307617	-0.175049	0.695557	164.867712	-81.353674	-19.848761
40843		9.543688	0.399418	-1.342358	0.007616	0.005911	-0.004229	-0.309082	-0.169922	0.693848	164.864664	-81.356753	-19.836148
40844		9.547923	0.376275	-1.336904	0.003096	0.008092	-0.006247	-0.306396	-0.174805	0.694580	164.846241	-81.358798	-19.810143
40845		9.519781	0.396319	-1.340087	0.004601	0.006851	-0.005993	-0.315430	-0.168701	0.693115	164.833948	-81.362096	-19.790287
40846		9.524028	0.373302	-1.334519	0.001591	0.009334	-0.006499	-0.310303	-0.177490	0.700439	164.812492	-81.364787	-19.762087
40847		9.519944	0.397667	-1.338524	0.001342	0.007703	-0.010605	-0.310791	-0.174072	0.696045	164.780481	-81.368004	-19.724097
40848		9.504288	0.347027	-1.327337	0.009123	0.006216	-0.002713	-0.311523	-0.167969	0.701416	164.780188	-81.369538	-19.712938
40849		9.544262	0.407414	-1.314045	-0.002444	0.011692	-0.002825	-0.305908	-0.169434	0.704346	164.770603	-81.376045	-19.699314
40850		9.520234	0.398663	-1.336168	0.003575	0.006728	-0.001811	-0.306152	-0.167725	0.694580	164.769902	-81.377998	-19.690958
40851		9.524486	0.375323	-1.330677	0.000560	0.007667	-0.003577	-0.311279	-0.171875	0.699707	164.763593	-81.381976	-19.678476
40852		9.472337	0.396011	-1.309296	0.002295	0.001884	-0.004255	-0.322510	-0.178223	0.688477	164.758052	-81.380882	-19.665967
40853		9.496319	0.395607	-1.333950	0.003561	0.002098	-0.005588	-0.310791	-0.169434	0.684326	164.750590	-81.381871	-19.652077
40854		9.496401	0.400963	-1.309875	-0.000481	0.001367	-0.004434	-0.309814	-0.177246	0.702637	164.743320	-81.380464	-19.639428
40855		9.520461	0.405379	-1.310645	0.001028	0.001670	-0.002921	-0.311035	-0.170898	0.693848	164.744837	-81.381388	-19.635901
40856		9.496160	0.386960	-1.381456	0.003795	-0.000900	-0.005260	-0.308594	-0.176514	0.695068	164.739262	-81.378603	-19.622488
40857		9.492022	0.415828	-1.362545	0.001258	-0.002873	-0.003852	-0.306641	-0.170654	0.702148	164.742003	-81.376840	-19.620118
40858		9.520398	0.406385	-1.310797	0.001032	0.003213	-0.001661	-0.300537	-0.171875	0.695313	164.743875	-81.376872	-19.615839
40859		9.520244	0.397036	-1.358471	0.002047	0.000253	-0.008360	-0.319092	-0.173096	0.700439	164.727987	-81.375909	-19.593588
40860		9.492082	0.421946	-1.338374	0.001028	0.001670	-0.002921	-0.307129	-0.169434	0.699219	164.726805	-81.374897	-19.586223
40861		9.520233	0.397876	-1.358304	0.001023	0.000126	-0.004180	-0.311523	-0.168701	0.693848	164.725375	-81.374801	-19.578893
40862		9.492065	0.422598	-1.338293	-0.000243	-0.000088	-0.002846	-0.307617	-0.167236	0.701660	164.725487	-81.372829	-19.573572
40863		9.516067	0.422135	-1.362836	0.000554	0.006124	-0.004835	-0.307617	-0.172119	0.701172	164.715695	-81.375843	-19.557507
40864		9.520344	0.398869	-1.357235	-0.002211	0.010238	-0.001237	-0.314697	-0.168457	0.706299	164.710258	-81.379821	-19.547715
40865		9.496295	0.390278	-1.379588	0.003321	0.003555	-0.007173	-0.311279	-0.161133	0.695068	164.695943	-81.381047	-19.525738
40866		9.520457	0.399598	-1.356229	0.006582	0.004249	-0.001301	-0.320313	-0.168945	0.697998	164.701274	-81.381706	-19.521740
40867		9.520579	0.404753	-1.331869	0.006100	0.005617	-0.005734	-0.307617	-0.164307	0.704834	164.691779	-81.384498	-19.502056
40868		9.520566	0.400068	-1.355321	0.009357	0.004768	-0.001121	-0.301758	-0.164063	0.697021	164.698838	-81.385470	-19.498199
40869		9.492378	0.419644	-1.358892	0.010619	0.003440	-0.003712	-0.307617	-0.172119	0.699219	164.701931	-81.386951	-19.488618
40870		9.520583	0.395646	-1.378515	0.012911	0.005326	-0.007965	-0.310303	-0.166748	0.691650	164.685501	-81.387197	-19.458943
40871		9.496720	0.401722	-1.329258	0.011890	0.006744	-0.002526	-0.316650	-0.174561	0.701904	164.689562	-81.390847	-19.450984
40872		9.524982	0.377701	-1.348509	0.011168	0.009567	-0.008546	-0.310059	-0.168457	0.698242	164.665752	-81.393347	-19.414856
40873		9.520793	0.396754	-1.376744	0.012121	0.002203	-0.003455	-0.310059	-0.166992	0.698730	164.670863	-81.394435	-19.408024
40874		9.516656	0.420648	-1.381142	0.011406	0.008114	-0.006957	-0.321045	-0.168213	0.706543	164.654427	-81.396371	-19.379216
40875		9.520993	0.402219	-1.351681	0.007850	0.007558	-0.000114	-0.309814	-0.172607	0.700684	164.664191	-81.400966	-19.378585
40876		9.521069	0.402243	-1.351140	0.007843	0.004469	-0.002631	-0.313721	-0.164063	0.703125	164.665156	-81.401544	-19.369442
40877		9.497063	0.398325	-1.349867	0.005069	0.003950	-0.002812	-0.319336	-0.170898	0.697266	164.667061	-81.403603	-19.362823
40878		9.521150	0.402537	-1.350479	0.005308	0.002495	-0.001224	-0.312012	-0.165771	0.706543	164.673692	-81.403304	-19.360877
40879		9.473177	0.404450	-1.300609	0.000787	0.003126	-0.004507	-0.311768	-0.164307	0.701904	164.667604	-81.404763	-19.348607
40880		9.517092	0.436489	-1.307153	0.004037	-0.000809	-0.002409	-0.307861	-0.164795	0.696045	164.672487	-81.402458	-19.345631
40881		9.517064	0.431761	-1.330836	-0.001982	0.005695	-0.002172	-0.302002	-0.174805	0.699219	164.671109	-81.405526	-19.339206
40882		9.517095	0.431932	-1.330553	0.001266	0.000215	-0.001332	-0.314697	-0.162842	0.704346	164.677314	-81.403951	-19.339173
40883		9.521224	0.403661	-1.349627	-0.003016	-0.000609	-0.003027	-0.309570	-0.174561	0.702148	164.678236	-81.403318	-19.336558
40884		9.541108	0.436657	-1.331519	-0.004524	-0.000914	-0.004541	-0.304199	-0.165527	0.700439	164.670527	-81.400632	-19.325808
40885		9.492988	0.428843	-1.329731	-0.005788	0.000415	-0.001950	-0.311768	-0.169434	0.702637	164.672647	-81.400677	-19.326338
40886		9.516997	0.428185	-1.354425	-0.009825	0.001224	0.000459	-0.309570	-0.167236	0.698730	164.678030	-81.399930	-19.331901
40887		9.541045	0.432463	-1.355288	-0.007056	-0.001344	-0.001877	-0.306152	-0.164063	0.702881	164.681415	-81.399136	-19.334007
40888		9.517064	0.433485	-1.330273	-0.015609	0.004729	0.001027	-0.302979	-0.163086	0.706787	164.682050	-81.400411	-19.338120
40889		9.545299	0.409309	-1.349884	-0.007294	0.001656	-0.002204	-0.307617	-0.166748	0.696045	164.681716	-81.401004	-19.335561
40890		9.517074	0.428861	-1.353673	-0.012359	0.000794	0.003124	-0.309326	-0.170898	0.696777	164.695818	-81.400422	-19.351410
40891		9.521248	0.400600	-1.372480	-0.011815	0.003834	-0.004226	-0.308105	-0.161621	0.699463	164.682514	-81.402086	-19.339733
40892		9.521336	0.405941	-1.348149	-0.011573	0.003923	-0.001380	-0.314453	-0.165283	0.697754	164.677474	-81.402551	-19.335768
40893		9.497398	0.407003	-1.322791	-0.013078	0.006708	-0.000375	-0.314209	-0.168945	0.688965	164.675024	-81.406457	-19.334494
40894		9.497465	0.407250	-1.322236	-0.011575	0.003924	-0.001379	-0.313232	-0.164307	0.700439	164.669984	-81.406923	-19.330529
40895		9.517375	0.435189	-1.327488	-0.017123	0.004431	-0.000482	-0.308350	-0.166748	0.693604	164.666639	-81.409643	-19.331478
40896		9.517433	0.435407	-1.326999	-0.018391	0.004217	0.000851	-0.312012	-0.165771	0.706055	164.665558	-81.410609	-19.335467
40897		9.517419	0.430718	-1.350653	-0.018157	-0.000326	-0.000081	-0.308350	-0.168457	0.699219	164.668091	-81.410596	-19.342735
40898		9.521649	0.412380	-1.321841	-0.012849	0.000625	-0.002563	-0.310547	-0.164063	0.696533	164.661298	-81.409061	-19.337736
40899		9.473466	0.394652	-1.367832	-0.016650	-0.000022	0.001434	-0.303955	-0.171143	0.696777	164.669861	-81.409431	-19.350311
40900		9.501844	0.390062	-1.292003	-0.015625	0.001653	-0.001483	-0.309570	-0.161377	0.696777	164.664400	-81.408627	-19.348267
40901		9.525826	0.384694	-1.340547	-0.011342	0.000930	-0.001048	-0.309326	-0.167236	0.697021	164.665991	-81.409068	-19.350805
40902		9.545701	0.417536	-1.322387	-0.011107	-0.003614	-0.001983	-0.315918	-0.164795	0.701416	164.666571	-81.405278	-19.352252
40903		9.521517	0.403882	-1.369648	-0.010865	-0.003528	0.000863	-0.310303	-0.166992	0.707764	164.679776	-81.403697	-19.365976
40904		9.545522	0.408104	-1.370811	-0.009599	-0.003311	-0.000469	-0.308350	-0.172607	0.698975	164.686442	-81.400304	-19.372704
40905		9.545604	0.422595	-1.299419	-0.014428	-0.005632	0.006447	-0.304932	-0.165283	0.697021	164.719963	-81.398247	-19.409730
40906		9.517311	0.436779	-1.327422	-0.012128	0.000887	0.005979	-0.311279	-0.167480	0.696289	164.744530	-81.398146	-19.436030
40907		9.469132	0.418592	-1.373497	-0.008089	-0.001465	0.002305	-0.297852	-0.166992	0.697266	164.762461	-81.397790	-19.453200
40908		9.521478	0.407962	-1.346534	-0.012371	0.000803	0.003134	-0.299805	-0.170166	0.698730	164.776576	-81.397212	-19.469068
40909		9.521512	0.407880	-1.346319	-0.009834	0.002778	0.001730	-0.307373	-0.176270	0.703369	164.787255	-81.398807	-19.480517
40910		9.497505	0.403750	-1.345138	-0.009835	0.002779	0.001730	-0.309326	-0.169434	0.699707	164.795730	-81.399109	-19.489211
40911		9.521582	0.407935	-1.345811	-0.003017	0.000942	-0.001764	-0.315430	-0.168457	0.705322	164.798819	-81.399407	-19.489564
40912		9.521618	0.407942	-1.345550	-0.001503	0.004328	0.002270	-0.306641	-0.168701	0.698486	164.812505	-81.400646	-19.498702
40913		9.517422	0.426507	-1.374051	-0.001268	-0.000216	0.001333	-0.310547	-0.170166	0.699463	164.829320	-81.400849	-19.510964
40914		9.497568	0.398673	-1.368379	0.004287	0.000816	0.001693	-0.320313	-0.164795	0.706299	164.847695	-81.400059	-19.521489
40915		9.501854	0.384675	-1.315700	0.002777	0.000516	0.000180	-0.309326	-0.171143	0.710449	164.861835	-81.400608	-19.528377
40916		9.525870	0.383915	-1.340454	0.004045	0.000732	-0.001153	-0.309570	-0.166504	0.702393	164.869746	-81.399345	-19.528459
40917		9.521725	0.412408	-1.321289	0.009597	0.000222	-0.002053	-0.312744	-0.158203	0.704590	164.880020	-81.399172	-19.527790
40918		9.497583	0.398658	-1.368283	0.009597	0.000222	-0.002053	-0.312012	-0.168945	0.701172	164.888321	-81.397492	-19.525049
40919		9.521686	0.407781	-1.345118	0.007849	0.002923	-0.003890	-0.313232	-0.173340	0.701660	164.888406	-81.398665	-19.514138
40920		9.549961	0.383522	-1.364582	0.009125	0.009311	-0.000179	-0.306641	-0.164551	0.694580	164.894315	-81.402293	-19.509252
40921		9.521878	0.402763	-1.367463	0.003577	0.012907	0.003243	-0.303223	-0.164063	0.702393	164.907635	-81.409998	-19.515607
40922		9.550310	0.388056	-1.338553	0.003330	0.009736	-0.002124	-0.308594	-0.166748	0.703125	164.902680	-81.413571	-19.503091
40923		9.526390	0.388864	-1.313041	0.006585	0.005794	-0.000034	-0.316406	-0.170410	0.705322	164.913241	-81.416686	-19.504121
40924		9.546330	0.411507	-1.341905	0.002304	0.009606	0.002055	-0.317383	-0.163574	0.701660	164.923140	-81.420811	-19.507222
40925		9.518248	0.440460	-1.297368	0.002780	0.003604	0.002703	-0.310059	-0.172607	0.703857	164.943269	-81.423430	-19.520260
40926		9.518249	0.430425	-1.344884	0.002780	0.003604	0.002703	-0.307861	-0.166504	0.697754	164.961758	-81.424330	-19.531772
40927		9.498387	0.397713	-1.362965	0.002776	0.000517	0.000181	-0.314453	-0.169678	0.704102	164.975557	-81.424633	-19.539232
40928		9.498377	0.397800	-1.363012	0.001266	-0.001328	-0.002593	-0.304688	-0.168945	0.699707	164.978605	-81.422016	-19.536006
40929		9.522392	0.392302	-1.411545	-0.007297	0.004753	0.000321	-0.307861	-0.167480	0.699219	164.982968	-81.424684	-19.539677
40930		9.518312	0.416007	-1.415589	-0.010550	0.010240	-0.000507	-0.308350	-0.167236	0.705322	164.975505	-81.428778	-19.532668
40931		9.518442	0.426156	-1.367079	-0.009049	0.002824	-0.005298	-0.311768	-0.168945	0.699463	164.960318	-81.429489	-19.517199
40932		9.466189	0.437111	-1.393515	-0.014598	0.007965	-0.000616	-0.308594	-0.179443	0.693359	164.952368	-81.432307	-19.512043
40933		9.514425	0.450374	-1.370487	-0.015867	0.007750	0.000717	-0.307617	-0.163818	0.708496	164.949682	-81.436722	-19.514716
40934		9.514501	0.445727	-1.393678	-0.015869	0.006208	-0.000543	-0.311035	-0.175049	0.694824	164.942998	-81.438580	-19.511579
40935		9.510440	0.479169	-1.349955	-0.018407	0.005777	0.002122	-0.310547	-0.172852	0.703857	164.946508	-81.442037	-19.520795
40936		9.494846	0.422925	-1.362774	-0.018167	0.007406	0.006231	-0.311768	-0.168945	0.699463	164.962235	-81.445565	-19.541652
40937		9.519009	0.426764	-1.362930	-0.020947	0.005349	0.004789	-0.312744	-0.160889	0.698730	164.974336	-81.449219	-19.561257
40938		9.495083	0.427354	-1.337416	-0.021188	0.008354	0.004469	-0.308838	-0.172607	0.699951	164.980939	-81.453009	-19.574637
40939		9.495140	0.422438	-1.360877	-0.017936	-0.000221	0.002769	-0.309326	-0.167969	0.695557	164.993125	-81.453291	-19.591796
40940		9.519210	0.426535	-1.361600	-0.019446	0.001025	0.002520	-0.307861	-0.175293	0.694824	165.000792	-81.452734	-19.605242
40941		9.503555	0.375164	-1.350993	-0.017937	0.002868	0.005297	-0.308105	-0.174316	0.697510	165.018760	-81.455049	-19.629391
40942		9.519314	0.435919	-1.313265	-0.017940	-0.000216	0.002773	-0.313232	-0.171143	0.704590	165.029444	-81.453843	-19.645016
40943		9.495221	0.422122	-1.360409	-0.021751	-0.003947	0.004246	-0.315430	-0.167725	0.704346	165.048061	-81.452223	-19.671966
40944		9.543322	0.425387	-1.386003	-0.031838	0.001847	0.005663	-0.312744	-0.168457	0.703613	165.059390	-81.452584	-19.696296
40945		9.515106	0.449694	-1.365976	-0.026046	-0.004753	0.002555	-0.311279	-0.161621	0.697021	165.070464	-81.450343	-19.716963
40946		9.499380	0.408111	-1.308134	-0.023269	-0.004237	0.002738	-0.313721	-0.169922	0.703857	165.081895	-81.446903	-19.736431
40947		9.495087	0.412288	-1.409053	-0.022553	-0.007076	0.008750	-0.309814	-0.165039	0.698486	165.120146	-81.444272	-19.782200
40948		9.499251	0.393246	-1.380645	-0.026292	-0.000199	0.003509	-0.305908	-0.166260	0.696777	165.128703	-81.443180	-19.800514
40949		9.523323	0.397280	-1.381384	-0.024784	0.000100	0.005024	-0.311523	-0.163818	0.693359	165.144972	-81.443852	-19.825479
40950		9.519165	0.425525	-1.362232	-0.021768	-0.003931	0.004258	-0.299316	-0.169922	0.700195	165.162514	-81.440801	-19.850257
40951		9.499274	0.392998	-1.380561	-0.020975	0.003835	0.003557	-0.311035	-0.173828	0.700928	165.171843	-81.443251	-19.866287
40952		9.495176	0.416435	-1.384819	-0.023518	0.003406	0.006226	-0.310547	-0.174316	0.701904	165.188476	-81.444551	-19.891160
40953		9.523459	0.396798	-1.380582	-0.018198	0.002808	0.002474	-0.308350	-0.166016	0.697754	165.195783	-81.446356	-19.904688
40954		9.519413	0.424922	-1.360683	-0.018196	0.008975	0.007536	-0.299805	-0.164795	0.702637	165.214891	-81.450930	-19.928980
40955		9.519529	0.424792	-1.359912	-0.019950	0.005521	0.000648	-0.313232	-0.169434	0.700684	165.212703	-81.453800	-19.932313
40956		9.523802	0.406005	-1.330596	-0.018440	0.007358	0.003428	-0.313965	-0.165771	0.698242	165.218120	-81.456878	-19.942902
40957		9.519734	0.429507	-1.334633	-0.018203	0.004356	0.003744	-0.306396	-0.155518	0.701416	165.229008	-81.459825	-19.958728
40958		9.523952	0.401084	-1.353444	-0.020988	0.003849	0.003566	-0.304932	-0.168457	0.699951	165.236904	-81.460978	-19.973300
40959		9.519853	0.434164	-1.309941	-0.016697	0.000030	0.001460	-0.314941	-0.169434	0.693115	165.245138	-81.460956	-19.984535
40960		9.495720	0.415820	-1.381269	-0.017255	-0.007656	0.005004	-0.307373	-0.178223	0.695313	165.271644	-81.455942	-20.015763
40961		9.519713	0.414974	-1.406446	-0.012166	-0.002171	0.003467	-0.310059	-0.168701	0.697998	165.290637	-81.455175	-20.037736
40962		9.519719	0.414913	-1.406425	-0.007077	0.001773	0.000664	-0.321533	-0.170410	0.704346	165.297808	-81.454754	-20.043515
40963		9.523939	0.396026	-1.377489	-0.008587	0.004562	0.001685	-0.309326	-0.165527	0.704834	165.306173	-81.457525	-20.051475
40964		9.499942	0.396718	-1.352379	-0.005805	0.001989	-0.000670	-0.306885	-0.173584	0.703857	165.308943	-81.457029	-20.052067
40965		9.499931	0.387460	-1.400130	-0.003022	0.000956	-0.001758	-0.311035	-0.164063	0.692139	165.311539	-81.457035	-20.050998
40966		9.491632	0.439701	-1.385354	-0.012885	0.000681	-0.002538	-0.303955	-0.162109	0.696533	165.304625	-81.455543	-20.045898
40967		9.519851	0.420510	-1.381395	-0.011374	0.000974	-0.001025	-0.314697	-0.177979	0.697021	165.305389	-81.455756	-20.046889
40968		9.491680	0.445067	-1.360936	-0.015908	0.004720	-0.001761	-0.300781	-0.167480	0.706787	165.295704	-81.456616	-20.040739
40969		9.515810	0.439967	-1.408939	-0.018692	0.008835	0.001864	-0.314941	-0.167725	0.703369	165.294652	-81.461501	-20.045779
40970		9.520136	0.421106	-1.379249	-0.013363	0.012855	0.001909	-0.312500	-0.172119	0.705322	165.292084	-81.467403	-20.045352
40971		9.500436	0.393335	-1.372445	-0.010580	0.014904	0.003356	-0.310059	-0.168213	0.694336	165.295449	-81.476012	-20.049392
40972		9.528907	0.373744	-1.366839	-0.005728	0.021854	0.000245	-0.304688	-0.169189	0.701904	165.282353	-81.486659	-20.033895
40973		9.549097	0.406212	-1.346251	-0.002945	0.020823	-0.000843	-0.310547	-0.171387	0.700195	165.268857	-81.497803	-20.016533
40974		9.549343	0.401660	-1.368490	-0.001196	0.015029	-0.001554	-0.310303	-0.171631	0.699707	165.258278	-81.504404	-20.000957
40975		9.549543	0.397192	-1.391082	-0.001196	0.013489	-0.002821	-0.310303	-0.167725	0.699707	165.245249	-81.511242	-19.983499
40976		9.541490	0.439677	-1.422699	0.000311	0.019944	0.003765	-0.306885	-0.165771	0.711670	165.250443	-81.521342	-19.982998
40977		9.493613	0.440717	-1.371385	0.002857	0.018836	-0.000169	-0.307617	-0.160156	0.700928	165.244895	-81.531417	-19.969696
40978		9.478065	0.389502	-1.359864	0.003098	0.012749	-0.002394	-0.309814	-0.167236	0.699951	165.235806	-81.536631	-19.953140
40979		9.474076	0.417871	-1.339195	0.003095	0.015832	0.000143	-0.299072	-0.167969	0.698242	165.234538	-81.545138	-19.943655
40980		9.502525	0.388964	-1.381992	0.000551	0.010778	-0.000995	-0.310547	-0.169922	0.706787	165.231113	-81.549464	-19.934301
40981		9.522571	0.421368	-1.362256	0.001821	0.014077	0.000210	-0.316650	-0.169678	0.705078	165.230729	-81.556849	-19.927491
40982		9.478701	0.394338	-1.331160	0.003577	0.006737	-0.001772	-0.307617	-0.168701	0.696533	165.230100	-81.558823	-19.919213
40983		9.494710	0.431743	-1.412110	-0.001201	0.013495	-0.002817	-0.312988	-0.169189	0.703857	165.216945	-81.565656	-19.901258
40984		9.450884	0.404848	-1.380689	0.003092	0.014295	-0.001122	-0.307861	-0.170166	0.707275	165.210999	-81.571912	-19.887885
40985		9.523207	0.426462	-1.333383	-0.005509	0.020406	0.001831	-0.305908	-0.175537	0.699951	165.205989	-81.583140	-19.880645
40986		9.519321	0.449953	-1.336196	-0.005269	0.017400	0.002142	-0.308838	-0.175049	0.702637	165.204369	-81.591592	-19.876489
40987		9.551841	0.411407	-1.302128	-0.009326	0.015136	0.002025	-0.308838	-0.172607	0.702393	165.202536	-81.599857	-19.875914
40988		9.523917	0.426059	-1.328432	-0.010605	0.016463	0.004628	-0.305420	-0.159912	0.689209	165.208107	-81.608154	-19.882117
40989		9.552250	0.410964	-1.299261	-0.011633	0.010157	0.003731	-0.312256	-0.172852	0.700195	165.216917	-81.613976	-19.892090
40990		9.572330	0.438385	-1.303530	-0.011637	0.011700	0.005001	-0.313477	-0.163086	0.699951	165.228052	-81.619688	-19.904516
40991		9.552521	0.414917	-1.273040	-0.011404	0.011776	0.007850	-0.314453	-0.168945	0.704346	165.250702	-81.627108	-19.928455
40992		9.532862	0.382045	-1.290346	-0.013157	0.014496	0.006028	-0.310791	-0.170898	0.694824	165.262107	-81.634519	-19.942033
40993		9.528788	0.410191	-1.270068	-0.010112	0.004284	0.000170	-0.302979	-0.174805	0.697510	165.263837	-81.636648	-19.944461
40994		9.500709	0.429673	-1.273117	-0.015940	0.012450	0.004578	-0.314453	-0.167725	0.700684	165.270232	-81.642714	-19.954586
40995		9.476894	0.420595	-1.295208	-0.019765	0.010263	0.007306	-0.314697	-0.168213	0.700684	165.287382	-81.649082	-19.978489
40996		9.497068	0.443232	-1.323433	-0.018491	0.010481	0.005976	-0.308838	-0.169189	0.696777	165.299579	-81.654259	-19.995955
40997		9.521230	0.451551	-1.299009	-0.015712	0.012530	0.007431	-0.309570	-0.162842	0.699951	165.317442	-81.661985	-20.017697
40998		9.501665	0.414069	-1.340303	-0.017228	0.013784	0.007188	-0.313965	-0.166016	0.701904	165.331726	-81.669167	-20.036540
40999		9.525870	0.422646	-1.315456	-0.019451	0.017903	0.000946	-0.309814	-0.169678	0.699219	165.318004	-81.678907	-20.027672
41000		9.550179	0.426524	-1.314429	-0.018752	0.016584	0.008220	-0.308350	-0.163818	0.694092	165.332587	-81.687791	-20.047699
41001		9.526374	0.422000	-1.312003	-0.018992	0.018056	0.006646	-0.312988	-0.161865	0.695313	165.340338	-81.698392	-20.060850
41002		9.550838	0.421097	-1.334587	-0.022266	0.023578	0.005858	-0.319092	-0.167969	0.702881	165.337038	-81.710809	-20.064840
41003		9.531207	0.393189	-1.327114	-0.020751	0.020786	0.004833	-0.315186	-0.168457	0.694824	165.334225	-81.722814	-20.067826
41004		9.527359	0.416777	-1.329797	-0.023529	0.017202	0.002107	-0.311768	-0.173096	0.699951	165.322260	-81.731153	-20.063790
41005		9.523292	0.449607	-1.284490	-0.026338	0.021330	0.005745	-0.313965	-0.162598	0.702148	165.318678	-81.743503	-20.070366
41006		9.527802	0.421082	-1.301894	-0.027378	0.018107	0.007383	-0.313721	-0.169922	0.699463	165.323748	-81.753110	-20.085772
41007		9.528061	0.420927	-1.300049	-0.026334	0.018256	0.003206	-0.313477	-0.164063	0.702637	165.314008	-81.763361	-20.085157
41008		9.504387	0.412059	-1.321491	-0.021812	0.019119	0.007759	-0.311035	-0.169434	0.697021	165.322726	-81.773583	-20.101025
41009		9.504524	0.416296	-1.295699	-0.024597	0.017079	0.006303	-0.311523	-0.166748	0.687256	165.327007	-81.783583	-20.113687
41010		9.532832	0.400878	-1.265921	-0.021827	0.020669	0.009040	-0.308838	-0.167480	0.694336	165.339141	-81.794849	-20.133013
41011		9.509150	0.391739	-1.287560	-0.020056	0.013317	0.007034	-0.317383	-0.163330	0.694092	165.352438	-81.802891	-20.152504
41012		9.505273	0.414897	-1.290646	-0.025651	0.015404	0.009217	-0.312256	-0.172363	0.693604	165.368437	-81.811263	-20.177949
41013		9.509608	0.390735	-1.284477	-0.027172	0.016665	0.008979	-0.309326	-0.174561	0.702637	165.381754	-81.821518	-20.201540
41014		9.505762	0.413848	-1.287379	-0.025660	0.015412	0.009224	-0.305664	-0.168701	0.697998	165.397855	-81.829895	-20.227092
41015		9.510229	0.385020	-1.305336	-0.025428	0.013944	0.010800	-0.310303	-0.172607	0.700684	165.422050	-81.838614	-20.261203
41016		9.506189	0.412914	-1.284518	-0.024597	0.012483	0.002497	-0.317871	-0.174072	0.695557	165.415767	-81.844394	-20.263526
41017		9.510592	0.384638	-1.302806	-0.029717	0.010084	0.006551	-0.312012	-0.165771	0.697510	165.424637	-81.850543	-20.284892
41018		9.486706	0.380216	-1.300963	-0.026948	0.013670	0.009294	-0.312744	-0.175049	0.693848	165.442157	-81.857961	-20.312622
41019		9.510769	0.388535	-1.276524	-0.024119	0.006462	0.003095	-0.314209	-0.172607	0.701904	165.444778	-81.861580	-20.323947
41020		9.478807	0.427166	-1.308213	-0.026685	0.006036	0.005762	-0.314697	-0.172119	0.696533	165.456480	-81.864254	-20.345648
41021		9.506898	0.411955	-1.279572	-0.026924	0.007514	0.004193	-0.312012	-0.168457	0.689697	165.460575	-81.868616	-20.360270
41022		9.507146	0.407427	-1.302955	-0.026674	0.002959	0.003211	-0.311279	-0.172607	0.696289	165.465499	-81.869216	-20.375116
41023		9.531125	0.415790	-1.279070	-0.023668	0.005066	0.007526	-0.319824	-0.167480	0.695313	165.486935	-81.872686	-20.405211
41024		9.502705	0.444307	-1.234590	-0.021078	0.000874	0.001027	-0.319092	-0.168213	0.693848	165.488687	-81.871815	-20.413614
41025		9.531087	0.420065	-1.254179	-0.023917	0.008087	0.007238	-0.315918	-0.176758	0.697021	165.505924	-81.877112	-20.438952
41026		9.555424	0.419175	-1.278178	-0.023432	0.002056	0.007824	-0.309082	-0.179932	0.695313	165.531561	-81.877871	-20.472845
41027		9.555321	0.423239	-1.253823	-0.024953	0.003320	0.007588	-0.314209	-0.167236	0.701172	165.553621	-81.880323	-20.505570
41028		9.531817	0.405462	-1.324877	-0.023663	0.001996	0.004978	-0.308594	-0.168945	0.696289	165.568134	-81.880639	-20.528360
41029		9.531680	0.409896	-1.300657	-0.022373	0.000672	0.002368	-0.312256	-0.173340	0.699707	165.575051	-81.880844	-20.542321
41030		9.559858	0.390203	-1.296494	-0.022393	0.003756	0.004929	-0.319336	-0.168701	0.686279	165.588346	-81.882128	-20.563144
41031		9.511744	0.382242	-1.295078	-0.017006	0.000058	-0.001392	-0.314209	-0.176758	0.703857	165.583785	-81.881620	-20.563031
41032		9.511612	0.386686	-1.270791	-0.018093	0.004531	0.006633	-0.313965	-0.169922	0.700439	165.605402	-81.883576	-20.589772
41033		9.511635	0.386673	-1.270623	-0.012686	-0.002249	-0.002251	-0.315674	-0.169189	0.693359	165.602342	-81.881506	-20.588830
41034		9.531850	0.409964	-1.299387	-0.018330	0.006009	0.005066	-0.310547	-0.174072	0.694824	165.616255	-81.884059	-20.607926
41035		9.531915	0.409875	-1.298941	-0.015510	0.001882	0.001409	-0.321289	-0.165527	0.697754	165.621633	-81.884863	-20.617054
41036		9.527740	0.438095	-1.278903	-0.017274	0.006164	0.000886	-0.310547	-0.169434	0.693604	165.619734	-81.886906	-20.619568
41037		9.528354	0.424914	-1.350192	-0.018795	0.007428	0.000652	-0.310547	-0.180176	0.703857	165.615083	-81.890745	-20.619610
41038		9.532351	0.405819	-1.320916	-0.018806	0.008970	0.001934	-0.313721	-0.170898	0.698242	165.613587	-81.894494	-20.623418
41039		9.556378	0.414472	-1.296463	-0.017758	0.010664	-0.000966	-0.313721	-0.178711	0.698975	165.599447	-81.899698	-20.614627
41040		9.560598	0.390921	-1.290812	-0.016268	0.014023	0.003115	-0.312012	-0.166504	0.683838	165.598949	-81.906420	-20.617973
41041		9.537050	0.378220	-1.337055	-0.010875	0.010325	-0.003212	-0.317383	-0.165527	0.695068	165.580282	-81.911241	-20.600328
41042		9.560906	0.391288	-1.288416	-0.010671	0.013467	0.002203	-0.316650	-0.171143	0.701660	165.579973	-81.917525	-20.600626
41043		9.532738	0.415335	-1.267140	-0.010417	0.008909	0.001207	-0.309082	-0.171631	0.694092	165.580726	-81.922229	-20.601284
41044		9.533234	0.406431	-1.314337	-0.010183	0.007431	0.002776	-0.312988	-0.176514	0.693604	165.589008	-81.925245	-20.609977
41045		9.528931	0.438719	-1.269786	-0.006123	0.011217	0.004191	-0.311523	-0.170654	0.700195	165.601027	-81.931511	-20.620790
41046		9.509462	0.401813	-1.311786	-0.007410	0.011004	0.005525	-0.319092	-0.174072	0.691162	165.618097	-81.936901	-20.636754
41047		9.513676	0.377767	-1.306314	-0.006124	0.011219	0.004193	-0.312256	-0.172607	0.698730	165.630235	-81.943259	-20.647272
41048		9.509950	0.397053	-1.333818	-0.002234	0.007243	-0.003654	-0.305176	-0.164551	0.703125	165.618086	-81.945255	-20.630729
41049		9.509641	0.406090	-1.285041	-0.004818	0.008354	0.000295	-0.320557	-0.172852	0.699707	165.619212	-81.949229	-20.628604
41050		9.509768	0.406139	-1.284083	-0.005064	0.011374	0.000011	-0.310303	-0.167725	0.700684	165.615651	-81.954039	-20.622374
41051		9.534184	0.405711	-1.307656	-0.003309	0.008630	0.001813	-0.313721	-0.167480	0.696777	165.622935	-81.958563	-20.625879
41052		9.510217	0.401570	-1.306373	-0.004585	0.006876	0.001863	-0.307861	-0.166992	0.701904	165.631455	-81.961140	-20.631572
41053		9.505831	0.433907	-1.262189	-0.001543	0.004346	0.002332	-0.315186	-0.162842	0.694336	165.646458	-81.963241	-20.641384
41054		9.534214	0.409669	-1.282020	-0.005615	0.002101	0.002197	-0.311768	-0.168945	0.688965	165.660513	-81.963215	-20.653262
41055		9.501878	0.457405	-1.265948	-0.004563	0.003796	-0.000703	-0.318115	-0.168457	0.696777	165.662207	-81.964739	-20.651363
41056		9.530006	0.437841	-1.261996	-0.004072	-0.002245	-0.000135	-0.309082	-0.171387	0.699951	165.672343	-81.961969	-20.658391
41057		9.509955	0.410179	-1.257231	-0.006879	-0.001194	0.000964	-0.310791	-0.167725	0.691895	165.684002	-81.960867	-20.668465
41058		9.529994	0.437880	-1.262075	-0.007125	0.001826	0.000680	-0.318115	-0.165771	0.698975	165.691501	-81.960472	-20.674597
41059		9.534018	0.414448	-1.257769	-0.004283	-0.003845	-0.004269	-0.319336	-0.174805	0.699219	165.686894	-81.957221	-20.666251
41060		9.533978	0.414731	-1.257978	-0.005593	-0.000979	-0.000369	-0.317383	-0.172119	0.698486	165.693959	-81.955120	-20.671056
41061		9.533732	0.419334	-1.234165	-0.002774	-0.003570	-0.002751	-0.309570	-0.175049	0.695557	165.695205	-81.952279	-20.668862
41062		9.534097	0.410829	-1.282520	-0.002774	-0.003569	-0.002751	-0.307861	-0.178711	0.693604	165.697119	-81.948403	-20.666837
41063		9.509539	0.415832	-1.234367	-0.002540	-0.005049	-0.001184	-0.308350	-0.164307	0.689941	165.705853	-81.944728	-20.672929
41064		9.557631	0.423906	-1.235864	0.001767	-0.004285	0.000517	-0.322266	-0.165039	0.697266	165.723895	-81.940917	-20.684564
41065		9.529840	0.434737	-1.288371	0.002023	-0.008845	-0.000483	-0.312012	-0.173096	0.704590	165.742730	-81.935472	-20.695920
41066		9.501429	0.458871	-1.268780	-0.001265	-0.003294	-0.001233	-0.311523	-0.174316	0.699219	165.751163	-81.931963	-20.699603
41067		9.553567	0.443270	-1.265912	0.000491	-0.006040	0.000567	-0.314697	-0.174072	0.700195	165.769765	-81.927993	-20.713114
41068		9.537935	0.383060	-1.305132	0.005849	-0.003581	-0.000632	-0.316162	-0.181152	0.698486	165.784896	-81.924409	-20.719446
41069		9.537499	0.391921	-1.257318	0.006890	-0.000346	-0.002249	-0.311279	-0.167236	0.697998	165.789883	-81.923322	-20.716283
41070		9.537691	0.387672	-1.281364	0.010973	0.000359	-0.003397	-0.315918	-0.166016	0.696777	165.793212	-81.921537	-20.707731
41071		9.537899	0.383470	-1.305278	0.016330	0.002819	-0.004596	-0.313965	-0.172363	0.702148	165.792321	-81.921885	-20.691229
41072		9.533663	0.411939	-1.285384	0.014585	0.004025	-0.007679	-0.313721	-0.167480	0.698975	165.777335	-81.921534	-20.662087
41073		9.510071	0.399516	-1.332219	0.008713	0.010685	-0.004483	-0.313232	-0.169922	0.692871	165.764403	-81.926217	-20.638415
41074		9.538055	0.384661	-1.303786	0.012022	0.002056	-0.006294	-0.316162	-0.176514	0.699219	165.755312	-81.924966	-20.616711
41075		9.529986	0.432421	-1.312141	0.010243	0.007882	-0.005530	-0.315186	-0.164551	0.699951	165.741400	-81.927999	-20.591940
41076		9.537567	0.398619	-1.230468	0.010220	0.010963	-0.002964	-0.315674	-0.176514	0.700684	165.735442	-81.932164	-20.574443
41077		9.505875	0.433163	-1.286208	0.006877	0.001198	-0.000962	-0.318604	-0.170166	0.706543	165.744451	-81.932101	-20.574176
41078		9.505899	0.433105	-1.286051	0.006865	0.002738	0.000320	-0.312012	-0.167969	0.699463	165.757623	-81.932162	-20.577943
41079		9.534108	0.413368	-1.281619	0.000770	0.009336	0.000663	-0.316650	-0.166260	0.696533	165.761571	-81.936810	-20.575794
41080		9.510129	0.409287	-1.280407	0.003823	0.005267	-0.000149	-0.313232	-0.164063	0.693604	165.768646	-81.938209	-20.575163
41081		9.510162	0.409408	-1.280124	0.006653	0.001137	-0.003811	-0.311768	-0.169434	0.695068	165.766704	-81.937764	-20.563200
41082		9.530415	0.432967	-1.308836	0.006406	0.004157	-0.004096	-0.312500	-0.174561	0.694580	165.760891	-81.937990	-20.548057
41083		9.558808	0.408983	-1.328622	0.001262	0.003297	0.001233	-0.308594	-0.175781	0.700684	165.772799	-81.939347	-20.554549
41084		9.558846	0.408992	-1.328352	0.006641	0.002678	-0.002528	-0.311768	-0.164063	0.692871	165.774737	-81.938973	-20.547098
41085		9.530526	0.433238	-1.307939	0.005120	0.003943	-0.002763	-0.315186	-0.167969	0.701904	165.772819	-81.940047	-20.536990
41086		9.534607	0.409780	-1.303295	0.009447	0.001630	-0.003624	-0.307617	-0.164551	0.695068	165.773108	-81.938936	-20.526251
41087		9.506721	0.425188	-1.330956	0.005119	0.003943	-0.002763	-0.312744	-0.168457	0.692871	165.771529	-81.940031	-20.515778
41088		9.530827	0.429393	-1.331187	0.006640	0.002679	-0.002527	-0.312256	-0.163086	0.700195	165.773468	-81.939658	-20.508329
41089		9.482509	0.425820	-1.305747	-0.001780	0.005825	0.000761	-0.313965	-0.160889	0.696289	165.779793	-81.942344	-20.509830
41090		9.510486	0.410629	-1.277320	-0.007369	0.004841	0.000389	-0.313965	-0.171143	0.689697	165.782994	-81.943581	-20.511762
41091		9.534861	0.410331	-1.301264	-0.004810	0.006813	-0.000992	-0.321289	-0.167480	0.697754	165.779513	-81.946645	-20.505275
41092		9.510863	0.406565	-1.300108	-0.009113	0.006044	-0.002696	-0.320313	-0.171387	0.700439	165.768407	-81.948116	-20.493767
41093		9.534792	0.415207	-1.275926	-0.008903	0.007647	0.001436	-0.311523	-0.174561	0.700928	165.770910	-81.952083	-20.496110
41094		9.531045	0.434543	-1.303722	-0.008879	0.004566	-0.001128	-0.324951	-0.175781	0.690186	165.767561	-81.952954	-20.492301
41095		9.530900	0.439038	-1.279037	-0.011712	0.008697	0.002534	-0.314941	-0.167480	0.688232	165.771059	-81.957597	-20.498468
41096		9.539108	0.391897	-1.269475	-0.007829	0.006262	-0.004026	-0.319092	-0.175293	0.694824	165.755224	-81.959002	-20.481442
41097		9.535351	0.411412	-1.297326	-0.007372	0.004843	0.000391	-0.305420	-0.162598	0.696777	165.756918	-81.961222	-20.482656
41098		9.512036	0.394345	-1.368452	0.000816	0.003176	-0.004465	-0.319580	-0.168457	0.696045	165.747384	-81.960851	-20.466991
41099		9.539743	0.383740	-1.316107	-0.001782	0.005827	0.000764	-0.308594	-0.174561	0.701904	165.753617	-81.963490	-20.468353
41100		9.535751	0.407475	-1.320010	-0.000483	0.004502	-0.001850	-0.319336	-0.169922	0.703613	165.752293	-81.964225	-20.461732
41101		9.487383	0.404057	-1.294786	-0.000222	-0.000061	-0.002850	-0.309326	-0.163818	0.705566	165.750504	-81.963016	-20.455192
41102		9.531458	0.436015	-1.300201	-0.001509	-0.000276	-0.001518	-0.317627	-0.169189	0.697998	165.754671	-81.961144	-20.454710
41103		9.511724	0.403836	-1.319053	-0.004355	0.005396	0.003427	-0.313721	-0.167236	0.698975	165.770296	-81.963866	-20.467116
41104		9.535619	0.412138	-1.295121	-0.009933	0.002872	0.001771	-0.311035	-0.169922	0.697021	165.779430	-81.964205	-20.476525
41105		9.487264	0.408397	-1.269888	-0.012494	0.000900	0.003151	-0.317383	-0.172607	0.698730	165.793459	-81.964393	-20.492543
41106		9.511643	0.407906	-1.293972	-0.012991	0.006944	0.002586	-0.315674	-0.164307	0.701172	165.799994	-81.967109	-20.501096
41107		9.511737	0.407752	-1.293329	-0.012757	0.005464	0.004153	-0.312500	-0.176270	0.701660	165.813225	-81.970060	-20.516348
41108		9.536142	0.407256	-1.317246	-0.010183	0.005896	0.001490	-0.314697	-0.180664	0.695068	165.818110	-81.972039	-20.521610
41109		9.540011	0.388077	-1.288374	-0.007362	0.003306	-0.000890	-0.321045	-0.168945	0.693604	165.815701	-81.972976	-20.519843
41110		9.535490	0.420633	-1.244486	-0.011210	0.001119	0.001821	-0.307617	-0.170410	0.698242	165.826056	-81.972347	-20.531223
41111		9.556277	0.435099	-1.321242	-0.011211	0.001119	0.001821	-0.311279	-0.173828	0.689697	165.835119	-81.972528	-20.541662
41112		9.580378	0.439153	-1.321528	-0.015530	0.001896	0.001401	-0.319580	-0.167969	0.697998	165.840572	-81.972272	-20.550592
41113		9.527988	0.459212	-1.300462	-0.018589	0.005969	0.002218	-0.316406	-0.169922	0.700928	165.841917	-81.975247	-20.557755
41114		9.532640	0.426622	-1.343448	-0.015572	0.006520	0.005256	-0.313232	-0.169189	0.689941	165.857947	-81.978099	-20.577391
41115		9.484352	0.422707	-1.317733	-0.019893	0.007298	0.004837	-0.324463	-0.160645	0.697266	165.867751	-81.982137	-20.593540
41116		9.536445	0.411307	-1.289287	-0.014784	0.012783	0.003366	-0.314209	-0.168945	0.698975	165.870579	-81.988204	-20.599387
41117		9.536353	0.415532	-1.264097	-0.020145	0.010324	0.004559	-0.306152	-0.165527	0.688232	165.876610	-81.993981	-20.610893
41118		9.512664	0.406890	-1.286763	-0.015579	0.006525	0.005260	-0.311279	-0.169678	0.703613	165.892707	-81.996836	-20.630599
41119		9.512780	0.406501	-1.286031	-0.019680	0.007363	0.007692	-0.309814	-0.166260	0.704590	165.914242	-82.001117	-20.658131
41120		9.509122	0.425504	-1.313594	-0.015816	0.008011	0.003698	-0.309814	-0.167725	0.701660	165.922580	-82.004578	-20.670139
41121		9.485398	0.417022	-1.336536	-0.015555	0.003449	0.002692	-0.311523	-0.166992	0.692383	165.930828	-82.005925	-20.681568
41122		9.513288	0.401656	-1.308392	-0.015307	0.000427	0.002972	-0.319092	-0.171387	0.689697	165.944114	-82.005069	-20.698278
41123		9.508774	0.433966	-1.264321	-0.019893	0.005772	0.003562	-0.307373	-0.169434	0.697754	165.950303	-82.008114	-20.710780
41124		9.513126	0.405926	-1.283649	-0.016819	0.000157	0.001455	-0.309570	-0.165039	0.697266	165.956988	-82.006896	-20.721698
41125		9.532901	0.437978	-1.264404	-0.016586	-0.001325	0.003020	-0.303223	-0.171875	0.696289	165.970480	-82.005656	-20.739180
41126		9.509599	0.420974	-1.336133	-0.015284	-0.002649	0.000402	-0.309814	-0.171631	0.687988	165.976645	-82.002732	-20.748686
41127		9.513339	0.401845	-1.307968	-0.013995	-0.002433	-0.000929	-0.309570	-0.168213	0.694824	165.976482	-82.000324	-20.751806
41128		9.557455	0.433716	-1.313155	-0.012749	0.002403	0.001599	-0.312988	-0.178223	0.696289	165.983837	-82.000374	-20.761047
41129		9.545516	0.358624	-1.299574	-0.018114	-0.000053	0.002792	-0.312256	-0.170410	0.699707	165.993510	-81.999887	-20.776588
41130		9.513369	0.402089	-1.307676	-0.018336	-0.000107	-0.000057	-0.316162	-0.172607	0.704346	165.993588	-81.998312	-20.781714
41131		9.533092	0.434313	-1.288744	-0.023206	-0.008608	0.001690	-0.307861	-0.163086	0.699463	166.004704	-81.992920	-20.801154
41132		9.537053	0.410666	-1.284993	-0.019146	-0.004827	0.003118	-0.305176	-0.164551	0.700928	166.021500	-81.989160	-20.823630
41133		9.504598	0.458551	-1.269358	-0.023927	-0.002610	-0.001708	-0.316162	-0.170166	0.699951	166.013722	-81.986478	-20.823139
41134		9.528896	0.458621	-1.294001	-0.026510	-0.003038	0.000960	-0.319824	-0.168457	0.696045	166.015999	-81.983413	-20.835215
41135		9.512901	0.407413	-1.284847	-0.025499	0.003281	0.001930	-0.311523	-0.169678	0.688965	166.014985	-81.984822	-20.843380
41136		9.536803	0.415868	-1.260592	-0.030091	0.008633	0.002533	-0.314941	-0.168457	0.691650	166.009945	-81.988464	-20.850138
41137		9.537088	0.412055	-1.284283	-0.021343	-0.003706	-0.005656	-0.311768	-0.168213	0.683594	165.988155	-81.984897	-20.835042
41138		9.537345	0.408468	-1.308129	-0.019068	0.005904	-0.003441	-0.312012	-0.177734	0.696045	165.968522	-81.986194	-20.820685
41139		9.557704	0.432412	-1.336307	-0.018835	0.004420	-0.001878	-0.314453	-0.167725	0.704590	165.954716	-81.987617	-20.812837
41140		9.537185	0.413563	-1.283079	-0.015800	0.003418	-0.000131	-0.314453	-0.169434	0.695313	165.952471	-81.987992	-20.814149
41141		9.537515	0.409553	-1.306555	-0.011956	0.007142	-0.001552	-0.310791	-0.167480	0.696533	165.941847	-81.990929	-20.804509
41142		9.513796	0.401542	-1.329398	-0.009154	0.007625	-0.001368	-0.314697	-0.168701	0.694824	165.934360	-81.993469	-20.796683
41143		9.542004	0.382171	-1.324823	-0.007864	0.007842	-0.002700	-0.313477	-0.172363	0.701660	165.920786	-81.996634	-20.781720
41144		9.534045	0.429707	-1.332448	-0.004856	0.009914	0.001623	-0.311279	-0.176025	0.697021	165.925307	-82.000863	-20.783533
41145		9.541664	0.390745	-1.275257	-0.001541	0.002809	0.001061	-0.315430	-0.177002	0.700928	165.934702	-82.001674	-20.789047
41146		9.513887	0.406068	-1.302667	0.001013	0.006317	0.000974	-0.320801	-0.168945	0.699219	165.943591	-82.003813	-20.791875
41147		9.513389	0.414643	-1.254197	0.003859	0.002185	-0.002710	-0.312256	-0.168945	0.699219	165.941778	-82.003889	-20.782698
41148		9.513414	0.414818	-1.253949	0.001042	0.003241	-0.001604	-0.308594	-0.173340	0.696533	165.943530	-82.003960	-20.778302
41149		9.513946	0.406490	-1.302099	-0.001247	-0.004830	-0.002535	-0.312744	-0.173340	0.702393	165.946678	-81.999992	-20.776887
41150		9.514141	0.402546	-1.326622	0.005664	-0.005187	-0.004788	-0.306641	-0.163330	0.699951	165.946833	-81.994936	-20.768205
41151		9.513776	0.407089	-1.303155	0.008701	-0.006190	-0.003043	-0.321289	-0.160645	0.698486	165.955356	-81.990094	-20.765953
41152		9.489893	0.398986	-1.327272	0.001555	-0.004347	-0.002350	-0.313721	-0.171631	0.707764	165.961960	-81.985843	-20.766160
41153		9.514128	0.399006	-1.352465	0.013057	-0.010053	-0.005208	-0.310303	-0.168213	0.705811	165.968288	-81.978736	-20.758774
41154		9.538292	0.399176	-1.378086	0.015887	-0.012644	-0.007600	-0.308838	-0.175049	0.696045	165.970574	-81.969144	-20.746327
41155		9.485377	0.423700	-1.334584	0.013289	-0.011536	-0.003644	-0.308838	-0.174316	0.699951	165.984179	-81.961232	-20.747189
41156		9.513070	0.408583	-1.307838	0.010251	-0.010532	-0.005389	-0.316162	-0.174561	0.695068	165.989869	-81.953122	-20.741441
41157		9.512911	0.408907	-1.308890	0.008960	-0.010748	-0.004055	-0.312988	-0.163086	0.701660	165.998118	-81.945698	-20.739943
41158		9.537334	0.404731	-1.358525	0.013064	-0.011584	-0.006491	-0.309814	-0.166016	0.691406	166.002117	-81.936850	-20.730859
41159		9.489527	0.388738	-1.406673	0.013882	-0.008395	-0.010946	-0.311279	-0.162842	0.696533	165.984761	-81.929795	-20.699103
41160		9.541353	0.377991	-1.379958	0.020968	-0.004080	-0.006486	-0.318115	-0.167236	0.699707	165.986001	-81.925120	-20.682657
41161		9.537235	0.402159	-1.384523	0.014879	-0.000539	-0.008688	-0.311523	-0.165283	0.701904	165.970303	-81.922802	-20.652096
41162		9.513397	0.394349	-1.408070	0.012049	0.002053	-0.006296	-0.306885	-0.172852	0.697510	165.961195	-81.921560	-20.630360
41163		9.533162	0.426996	-1.388554	0.014391	0.003972	-0.010523	-0.301758	-0.168701	0.697754	165.933354	-81.921315	-20.588512
41164		9.533765	0.419174	-1.435790	0.013627	0.014582	-0.010059	-0.305664	-0.167969	0.694824	165.898102	-81.926509	-20.539457
41165		9.537487	0.404908	-1.381980	0.010574	0.017122	-0.010517	-0.321045	-0.161865	0.696533	165.855144	-81.933461	-20.484564
41166		9.533909	0.425074	-1.408558	0.011833	0.020418	-0.009273	-0.315430	-0.170654	0.697754	165.816036	-81.941998	-20.432655
41167		9.490349	0.389827	-1.425488	0.011608	0.020368	-0.012120	-0.310791	-0.163330	0.704346	165.763845	-81.950860	-20.367461
41168		9.513848	0.407641	-1.351865	0.015901	0.022667	-0.009128	-0.313232	-0.171387	0.705811	165.725182	-81.960655	-20.313650
41169		9.514662	0.399801	-1.397954	0.007514	0.019668	-0.010970	-0.316650	-0.164551	0.695068	165.675838	-81.969010	-20.253779
41170		9.514633	0.404910	-1.371921	0.010280	0.023237	-0.008207	-0.311035	-0.168701	0.700684	165.636772	-81.979240	-20.202816
41171		9.487036	0.420949	-1.397865	0.011834	0.018893	-0.010548	-0.315918	-0.171143	0.703369	165.591936	-81.987327	-20.145062
41172		9.511333	0.426002	-1.396453	0.004471	0.020673	-0.012713	-0.314697	-0.166748	0.702148	165.534149	-81.995479	-20.078556
41173		9.507837	0.446321	-1.422628	0.004420	0.025294	-0.008850	-0.312988	-0.168701	0.696045	165.484854	-82.007301	-20.020876
41174		9.492571	0.391468	-1.435090	0.012355	0.028198	-0.012693	-0.310059	-0.170898	0.703369	165.423649	-82.019611	-19.946362
41175		9.465482	0.403326	-1.484052	0.013333	0.036066	-0.010432	-0.310791	-0.166992	0.696533	165.361624	-82.037079	-19.870903
41176		9.497522	0.369754	-1.424457	0.014414	0.034698	-0.015891	-0.305908	-0.169434	0.701904	165.281661	-82.052504	-19.776262
41177		9.522034	0.375292	-1.421505	0.019545	0.037120	-0.019915	-0.315430	-0.161865	0.697266	165.183978	-82.069052	-19.661008
41178		9.542172	0.408659	-1.398470	0.016883	0.042854	-0.012102	-0.315918	-0.166992	0.699951	165.111155	-82.089510	-19.572156
41179		9.539331	0.424759	-1.446952	0.022287	0.040711	-0.017133	-0.311523	-0.162354	0.693359	165.021580	-82.108588	-19.462933
41180		9.516209	0.417330	-1.466528	0.020908	0.046668	-0.010649	-0.313232	-0.162109	0.693359	164.951910	-82.131339	-19.374945
41181		9.540550	0.426422	-1.438400	0.015263	0.048777	-0.008451	-0.318359	-0.168945	0.694580	164.883557	-82.156091	-19.291048
41182		9.469431	0.410277	-1.456701	0.018027	0.050824	-0.006960	-0.313965	-0.169678	0.700195	164.821605	-82.181664	-19.212527
41183		9.469283	0.419586	-1.404146	0.018080	0.046209	-0.010812	-0.312500	-0.168945	0.696289	164.746521	-82.204602	-19.121285
41184		9.474853	0.387743	-1.443307	0.013917	0.050135	-0.005810	-0.313965	-0.170166	0.693848	164.686691	-82.229943	-19.047292
41185		9.470560	0.420766	-1.395148	0.019349	0.046451	-0.012118	-0.316895	-0.169922	0.695313	164.605782	-82.252708	-18.949576
41186		9.475692	0.393678	-1.410420	0.024711	0.047398	-0.014561	-0.321777	-0.160156	0.699463	164.518683	-82.275175	-18.841830
41187		9.452646	0.386142	-1.430086	0.017056	0.039914	-0.011753	-0.308838	-0.169678	0.695313	164.444667	-82.294459	-18.751657
41188		9.452221	0.395848	-1.378465	0.022684	0.037826	-0.013923	-0.316895	-0.157471	0.700684	164.368922	-82.311703	-18.656550
41189		9.477214	0.396523	-1.399355	0.020121	0.035849	-0.012555	-0.322754	-0.178467	0.696533	164.297605	-82.328398	-18.567165
41190		9.458151	0.365276	-1.415560	0.023196	0.031775	-0.013363	-0.314697	-0.166504	0.697021	164.230712	-82.342359	-18.480701
41191		9.458034	0.370737	-1.388777	0.023241	0.028692	-0.015932	-0.312744	-0.165283	0.692871	164.153883	-82.354654	-18.385419
41192		9.454798	0.391181	-1.414406	0.017359	0.032283	-0.015315	-0.319580	-0.165283	0.690430	164.074459	-82.368560	-18.289692
41193		9.482776	0.377470	-1.383685	0.026128	0.023023	-0.020865	-0.324463	-0.167969	0.702393	163.985766	-82.376919	-18.179767
41194		9.507072	0.383247	-1.381864	0.023330	0.022531	-0.021063	-0.316650	-0.165039	0.696533	163.897107	-82.384505	-18.071275
41195		9.503245	0.408334	-1.383966	0.023213	0.028721	-0.015910	-0.321533	-0.163330	0.697510	163.819908	-82.396736	-17.974707
41196		9.559918	0.370535	-1.372900	0.032894	0.028905	-0.017900	-0.316406	-0.162109	0.691895	163.741654	-82.408295	-17.871190
41197		9.560284	0.371640	-1.370055	0.030009	0.033053	-0.014237	-0.317871	-0.159912	0.691650	163.669747	-82.423155	-17.775580
41198		9.584210	0.381391	-1.343077	0.030809	0.036264	-0.018670	-0.315674	-0.166016	0.696533	163.577539	-82.438597	-17.659198
41199		9.532395	0.397968	-1.343770	0.031008	0.036333	-0.015815	-0.314941	-0.171143	0.696533	163.494939	-82.454893	-17.552361
41200		9.559932	0.388453	-1.287713	0.019213	0.045048	-0.013323	-0.310547	-0.156982	0.694336	163.406565	-82.475987	-17.446557
41201		9.580368	0.417186	-1.288391	0.019714	0.040531	-0.011481	-0.316650	-0.160156	0.692871	163.329444	-82.495112	-17.352008
41202		9.552695	0.437486	-1.288666	0.011007	0.045163	-0.009800	-0.317139	-0.161133	0.698242	163.249896	-82.516809	-17.259859
41203		9.528561	0.438573	-1.260374	0.011270	0.042133	-0.009519	-0.318359	-0.161621	0.694824	163.173415	-82.537200	-17.170320
41204		9.533181	0.415798	-1.251807	0.002627	0.043667	-0.010415	-0.314697	-0.159912	0.687988	163.087412	-82.557941	-17.076511
41205		9.529583	0.440561	-1.251922	-0.005000	0.048465	-0.012903	-0.309326	-0.166748	0.697266	162.978120	-82.581218	-16.963423
41206		9.539032	0.390098	-1.262130	-0.009363	0.050788	-0.012061	-0.313721	-0.157227	0.694336	162.867939	-82.605538	-16.852171
41207		9.559550	0.419362	-1.261847	-0.013899	0.051506	-0.015351	-0.314453	-0.159180	0.693359	162.738010	-82.629795	-16.723555
41208		9.540241	0.392685	-1.252146	-0.023017	0.053050	-0.003549	-0.319336	-0.168213	0.690674	162.651577	-82.656746	-16.644148
41209		9.557388	0.440506	-1.279869	-0.020967	0.058049	-0.007998	-0.318604	-0.166992	0.696533	162.538036	-82.685933	-16.536452
41210		9.507264	0.447681	-1.326414	-0.023640	0.060718	-0.002776	-0.314941	-0.160400	0.697266	162.442840	-82.717171	-16.448582
41211		9.514853	0.410115	-1.263793	-0.016642	0.055768	-0.008802	-0.327148	-0.160156	0.686035	162.329970	-82.744827	-16.338939
41212		9.488092	0.426206	-1.286608	-0.024082	0.060640	-0.008441	-0.320557	-0.165771	0.685059	162.208632	-82.774990	-16.224983
41213		9.521152	0.384284	-1.271611	-0.028703	0.064472	-0.009149	-0.323486	-0.168945	0.694336	162.072851	-82.807570	-16.099265
41214		9.536993	0.441554	-1.250372	-0.028926	0.064439	-0.011977	-0.323486	-0.168213	0.700928	161.925954	-82.839109	-15.962361
41215		9.518600	0.410680	-1.263453	-0.029030	0.067564	-0.009378	-0.316650	-0.161377	0.681641	161.782099	-82.873026	-15.829322
41216		9.518641	0.416585	-1.232768	-0.031030	0.070304	-0.013999	-0.324219	-0.164307	0.693359	161.614098	-82.907302	-15.672386
41217		9.536046	0.465409	-1.258930	-0.028226	0.069283	-0.015051	-0.315186	-0.157471	0.696777	161.441015	-82.941073	-15.508651
41218		9.516080	0.443685	-1.223958	-0.036131	0.064797	-0.012586	-0.322021	-0.162109	0.688721	161.281350	-82.972503	-15.363081
41219		9.542544	0.440918	-1.265362	-0.038177	0.069096	-0.015911	-0.327881	-0.169922	0.688721	161.096678	-83.005759	-15.192785
41220		9.566573	0.451464	-1.234331	-0.032916	0.073186	-0.015703	-0.322021	-0.165527	0.688232	160.909275	-83.041039	-15.017435
41221		9.592298	0.453116	-1.251258	-0.025540	0.069893	-0.014737	-0.323730	-0.157715	0.694824	160.731075	-83.074959	-14.847659
41222		9.552371	0.403574	-1.211724	-0.020183	0.070876	-0.017114	-0.319092	-0.170654	0.694580	160.544699	-83.108587	-14.666020
41223		9.529978	0.397134	-1.229198	-0.014679	0.067202	-0.023374	-0.320068	-0.166748	0.682373	160.335842	-83.139069	-14.458367
41224		9.535782	0.371383	-1.242117	-0.012013	0.070836	-0.020539	-0.326172	-0.168701	0.688232	160.135168	-83.171856	-14.257638
41225		9.532416	0.397429	-1.239976	-0.009290	0.066657	-0.027025	-0.331543	-0.163818	0.679688	159.909238	-83.201263	-14.030410
41226		9.532167	0.404325	-1.209724	-0.008826	0.063668	-0.023910	-0.331543	-0.165771	0.686523	159.703236	-83.229350	-13.822502
41227		9.508735	0.402671	-1.204243	-0.005554	0.054920	-0.028598	-0.328613	-0.167480	0.687256	159.488390	-83.252163	-13.603800
41228		9.502188	0.442340	-1.131401	-0.010092	0.055661	-0.031899	-0.328125	-0.167236	0.692627	159.255803	-83.274156	-13.369873
41229		9.507739	0.417582	-1.146237	-0.003480	0.042847	-0.034562	-0.318115	-0.160156	0.691895	159.033389	-83.288868	-13.142623
41230		9.551002	0.457477	-1.122083	-0.007823	0.043630	-0.035023	-0.325684	-0.169434	0.687500	158.806358	-83.303569	-12.912998
41231		9.565988	0.516921	-1.102839	-0.007427	0.037474	-0.037356	-0.334961	-0.166504	0.685059	158.577330	-83.314450	-12.680952
41232		9.521235	0.492536	-1.071706	-0.006345	0.028343	-0.033757	-0.328369	-0.166992	0.693359	158.382636	-83.321063	-12.483042
41233		9.574639	0.476371	-1.088089	-0.008895	0.026335	-0.032437	-0.325439	-0.167236	0.696533	158.193355	-83.327099	-12.292116
41234		9.554825	0.451927	-1.082042	-0.002386	0.011911	-0.039249	-0.324463	-0.158447	0.684082	158.005389	-83.323649	-12.098699
41235		9.553722	0.460093	-1.056926	-0.007968	0.010901	-0.039709	-0.331543	-0.172607	0.687012	157.812788	-83.319602	-11.903239
41236		9.559929	0.431742	-1.099595	-0.003529	0.007034	-0.041823	-0.335693	-0.166992	0.678955	157.622031	-83.312858	-11.707667
41237		9.606818	0.448798	-1.074374	-0.006324	0.006532	-0.042050	-0.332520	-0.172607	0.687988	157.426813	-83.306109	-11.509808
41238		9.582662	0.448683	-1.074060	-0.004978	0.005222	-0.044643	-0.331543	-0.164063	0.691406	157.226752	-83.297629	-11.305699
41239		9.603329	0.476987	-1.101939	-0.005008	0.000533	-0.051365	-0.321289	-0.165527	0.690430	157.003505	-83.285349	-11.078432
41240		9.604172	0.477548	-1.125735	-0.007921	0.003137	-0.048997	-0.326660	-0.167969	0.683838	156.787479	-83.274613	-10.859935
41241		9.583081	0.458773	-1.097705	-0.001570	-0.006610	-0.051915	-0.326904	-0.159668	0.686279	156.579716	-83.258086	-10.646035
41242		9.561914	0.446795	-1.170769	-0.001857	-0.009779	-0.060174	-0.335205	-0.162598	0.692383	156.344267	-83.237814	-10.404468
41243		9.554036	0.489338	-1.104186	0.000776	-0.010838	-0.064061	-0.324463	-0.168701	0.690918	156.095244	-83.216255	-10.146649
41244		9.608062	0.472060	-1.148117	-0.002340	-0.008271	-0.064527	-0.324707	-0.169434	0.694092	155.840422	-83.195512	-9.885828
41245		9.601196	0.510608	-1.105454	-0.009170	-0.011071	-0.064969	-0.325195	-0.163818	0.695068	155.585053	-83.173099	-9.628507
41246		9.622562	0.536411	-1.158524	-0.012289	-0.008505	-0.065432	-0.315918	-0.168213	0.683594	155.324280	-83.151743	-9.367410
41247		9.619992	0.551484	-1.111117	-0.025121	-0.006179	-0.063994	-0.326660	-0.166992	0.687256	155.058006	-83.131800	-9.107812
41248		9.567202	0.572645	-1.116582	-0.033505	-0.007708	-0.064671	-0.319580	-0.162109	0.684082	154.789967	-83.110756	-8.851617
41249		9.523162	0.546447	-1.113029	-0.036488	-0.003558	-0.061001	-0.328369	-0.173096	0.688965	154.527562	-83.092750	-8.602196
41250		9.494412	0.571566	-1.117892	-0.044471	-0.005025	-0.056007	-0.318359	-0.174805	0.686768	154.287636	-83.074960	-8.380629
41251		9.524679	0.543195	-1.061068	-0.040151	-0.005758	-0.055523	-0.322266	-0.165527	0.692383	154.052484	-83.056856	-8.162057
41252		9.534247	0.497012	-1.076587	-0.045198	-0.005140	-0.046174	-0.319580	-0.168457	0.688477	153.856170	-83.041270	-7.984828
41253		9.538391	0.478183	-1.072488	-0.047802	-0.005611	-0.043557	-0.319824	-0.173584	0.686279	153.669998	-83.026050	-7.818724
41254		9.558738	0.506740	-1.100980	-0.058777	-0.007635	-0.041624	-0.322998	-0.167725	0.689697	153.491783	-83.010204	-7.667556
41255		9.511545	0.498033	-1.126032	-0.068466	-0.009408	-0.040988	-0.321533	-0.175781	0.692383	153.313442	-82.993604	-7.521756
41256		9.481672	0.526030	-1.107563	-0.073378	-0.018081	-0.042233	-0.316895	-0.165283	0.687500	153.147786	-82.972145	-7.391660
41257		9.456150	0.530537	-1.085527	-0.078296	-0.026748	-0.043475	-0.324463	-0.167969	0.685303	152.992043	-82.945874	-7.274071
41258		9.474073	0.567630	-1.067651	-0.080713	-0.027184	-0.038011	-0.315674	-0.177734	0.679199	152.860544	-82.920788	-7.182615
41259		9.493111	0.599504	-1.073709	-0.093589	-0.026524	-0.019534	-0.321289	-0.173584	0.682373	152.794695	-82.900961	-7.164774
41260		9.492699	0.601828	-1.076051	-0.096184	-0.034836	-0.007927	-0.323975	-0.180420	0.687988	152.794326	-82.879830	-7.214388
41261		9.463831	0.621611	-1.083636	-0.096650	-0.042835	0.013693	-0.322510	-0.171875	0.689453	152.895912	-82.860396	-7.367416
41262		9.438453	0.620380	-1.063482	-0.091389	-0.046567	0.022901	-0.315430	-0.182373	0.685791	153.047288	-82.841286	-7.567200
41263		9.457064	0.520157	-1.074844	-0.073574	-0.049559	0.030377	-0.313965	-0.175537	0.684082	153.242564	-82.822531	-7.801146
41264		9.465598	0.471718	-1.070871	-0.058172	-0.049641	0.009310	-0.318359	-0.174072	0.685059	153.362089	-82.798206	-7.949660
41265		9.549591	0.418544	-1.037179	-0.038067	-0.028760	0.002717	-0.316406	-0.178711	0.687256	153.421835	-82.782894	-8.026134
41266		9.597342	0.428412	-1.038351	-0.004518	-0.006933	-0.012595	-0.314453	-0.179199	0.686523	153.396073	-82.774798	-7.997223
41267		9.681758	0.376012	-1.000725	0.017856	0.017304	-0.003767	-0.319580	-0.176270	0.687256	153.367954	-82.781367	-7.953361
41268		9.693052	0.443549	-0.909953	0.044845	0.039260	0.007040	-0.315674	-0.169189	0.687988	153.356159	-82.801969	-7.910021
41269		9.706555	0.501792	-0.865350	0.069006	0.060736	0.017651	-0.318848	-0.167725	0.691895	153.356165	-82.836376	-7.864071
41270		9.672299	0.549887	-0.819314	0.085757	0.082496	0.024798	-0.316650	-0.164795	0.681885	153.351278	-82.883681	-7.804077
41271		9.723476	0.540550	-0.758390	0.116637	0.096066	0.021165	-0.315918	-0.174561	0.685303	153.319888	-82.937118	-7.698262
41272		9.723114	0.548686	-0.825716	0.156694	0.105122	0.021560	-0.316895	-0.171631	0.687256	153.293795	-82.995166	-7.575962
41273		9.769913	0.563086	-0.766824	0.182287	0.124158	0.013002	-0.314941	-0.169189	0.687012	153.203242	-83.060745	-7.374003
41274		9.809001	0.627470	-0.840062	0.199012	0.127503	0.017390	-0.322021	-0.162354	0.697754	153.132548	-83.129120	-7.182386
41275		9.826492	0.671706	-0.860864	0.213140	0.136709	0.014152	-0.314941	-0.166016	0.689453	153.032577	-83.201317	-6.952398
41276		9.768445	0.852585	-0.885012	0.190989	0.132854	0.018127	-0.317383	-0.157959	0.686035	152.942869	-83.272543	-6.746319
41277		9.690914	1.142780	-0.980758	0.157381	0.126772	0.015410	-0.320313	-0.166016	0.686279	152.831522	-83.339881	-6.537154
41278		9.657762	1.334912	-1.106541	0.116719	0.133361	0.009611	-0.316650	-0.166504	0.679443	152.653868	-83.409026	-6.285435
41279		9.661273	1.455850	-1.117784	0.084230	0.125761	-0.001501	-0.327393	-0.164063	0.686279	152.418874	-83.471256	-5.995059
41280		9.653348	1.512719	-1.192997	0.051735	0.111826	-0.002386	-0.329346	-0.157471	0.686523	152.191453	-83.526057	-5.730789
41281		9.643030	1.568987	-1.144838	0.019051	0.094656	-0.011574	-0.318604	-0.167480	0.688232	151.938253	-83.569708	-5.459089
41282		9.643686	1.580211	-1.211977	-0.023403	0.099155	-0.007805	-0.323975	-0.169434	0.687988	151.665787	-83.616378	-5.192860
41283		9.652119	1.538961	-1.168372	-0.055254	0.104117	-0.012825	-0.321777	-0.159912	0.685059	151.332813	-83.663880	-4.884695
41284		9.691698	1.470408	-1.166497	-0.071845	0.113603	-0.013726	-0.319336	-0.161621	0.684814	150.960697	-83.715822	-4.546185
41285		9.654254	1.285234	-1.172966	-0.056555	0.097730	-0.019450	-0.321045	-0.166748	0.683350	150.603366	-83.757882	-4.213396
41286		9.712519	1.129658	-1.255245	-0.049231	0.085026	-0.034692	-0.321289	-0.164063	0.683105	150.211902	-83.789169	-3.842444
41287		9.735173	1.026889	-1.299493	-0.056930	0.096218	-0.047444	-0.325195	-0.165771	0.682861	149.720511	-83.821911	-3.375503
41288		9.747568	0.966183	-1.251798	-0.054842	0.098274	-0.054332	-0.323975	-0.161377	0.686279	149.191715	-83.853344	-2.869699
41289		9.661708	1.033580	-1.232797	-0.059339	0.111692	-0.056999	-0.319092	-0.167969	0.678711	148.601973	-83.889942	-2.305001
41290		9.590262	1.015482	-1.147370	-0.047971	0.107659	-0.061091	-0.331299	-0.171143	0.677979	148.008259	-83.922819	-1.730015
41291		9.565240	1.022150	-1.113454	-0.040258	0.106098	-0.074167	-0.323730	-0.165771	0.679199	147.353306	-83.950165	-1.089279
41292		9.478604	0.964446	-1.097374	-0.029057	0.098896	-0.086516	-0.336670	-0.167725	0.673828	146.668817	-83.969512	-0.412171
41293		9.468671	0.908834	-1.151586	-0.022550	0.095543	-0.099598	-0.329346	-0.164307	0.675049	145.930618	-83.982161	0.322743
41294		9.426502	0.870826	-1.087231	-0.011342	0.091504	-0.106500	-0.322998	-0.171143	0.676758	145.182000	-83.989723	1.074508
41295		9.299591	0.899977	-1.116059	0.001882	0.087817	-0.103366	-0.321533	-0.173340	0.681641	144.460579	-83.995443	1.806591
41296		9.280830	0.891590	-1.181446	0.031756	0.074684	-0.099273	-0.333252	-0.168213	0.685791	143.819476	-83.995671	2.475064
41297		9.323356	0.846452	-1.361084	0.052098	0.077070	-0.084494	-0.330566	-0.166504	0.675293	143.242697	-84.001086	3.090570
41298		9.417468	0.902357	-1.455245	0.056824	0.087556	-0.078913	-0.327393	-0.168457	0.676025	142.661147	-84.012779	3.713591
41299		9.366549	0.932927	-1.530226	0.068001	0.092964	-0.069507	-0.332764	-0.164795	0.673096	142.101969	-84.029389	4.320636
41300		9.292798	0.942825	-1.553923	0.067825	0.085060	-0.063380	-0.333740	-0.167969	0.684082	141.597020	-84.044202	4.872943
41301		9.272437	0.948665	-1.648054	0.068108	0.085171	-0.057680	-0.334473	-0.163818	0.677002	141.109617	-84.060393	5.407882
41302		9.313101	1.019544	-1.724056	0.065936	0.097468	-0.045960	-0.333740	-0.164307	0.670166	140.629188	-84.086035	5.934412
41303		9.309891	1.045708	-1.719670	0.062174	0.111051	-0.034492	-0.330078	-0.172607	0.669678	140.138789	-84.121152	6.468912
41304		9.281111	1.069924	-1.691838	0.060824	0.109191	-0.013436	-0.336426	-0.165771	0.677490	139.742127	-84.163045	6.908226
41305		9.262528	1.168365	-1.677237	0.044571	0.107575	-0.005331	-0.335205	-0.160400	0.674316	139.366833	-84.206603	7.316608
41306		9.202820	1.228381	-1.683870	0.025411	0.110116	0.009190	-0.333740	-0.164551	0.664307	139.031439	-84.256783	7.673879
41307		9.212422	1.321259	-1.715787	0.002508	0.107138	0.020777	-0.334961	-0.163574	0.671387	138.734402	-84.309478	7.979515
41308		9.261841	1.343270	-1.756450	-0.004783	0.102517	0.031461	-0.331055	-0.171143	0.677490	138.495485	-84.364459	8.222385
41309		9.276466	1.313353	-1.890231	-0.015565	0.105161	0.045530	-0.330811	-0.168457	0.670898	138.293326	-84.425356	8.422085
41310		9.242923	1.233009	-1.844169	-0.032123	0.109855	0.061621	-0.342285	-0.165527	0.670654	138.133334	-84.494817	8.569870
41311		9.145679	1.231402	-1.843155	-0.054608	0.107006	0.081661	-0.337646	-0.170410	0.676270	138.054017	-84.570189	8.623655
41312		8.991757	1.265836	-1.854842	-0.090396	0.088770	0.108019	-0.337646	-0.158203	0.670410	138.150297	-84.648383	8.480457
41313		8.930746	1.367562	-1.996617	-0.127191	0.070437	0.117428	-0.335205	-0.173340	0.675781	138.344712	-84.721720	8.217645
41314		8.920253	1.444996	-2.055581	-0.153257	0.055902	0.126526	-0.342041	-0.162598	0.676514	138.637359	-84.792747	7.841121
41315		8.801243	1.432138	-2.084294	-0.169775	0.033718	0.140000	-0.335693	-0.166260	0.663574	139.083691	-84.858395	7.300854
41316		8.736504	1.512056	-2.076428	-0.181707	0.020476	0.154985	-0.343262	-0.166748	0.662109	139.668403	-84.924093	6.614814
41317		8.615180	1.471656	-1.979456	-0.176225	-0.008536	0.171431	-0.335938	-0.166992	0.668701	140.472391	-84.981660	5.711921
41318		8.423561	1.442466	-2.018278	-0.183665	-0.047965	0.188323	-0.343994	-0.168457	0.675537	141.544801	-85.027132	4.535318
41319		8.301304	1.461280	-2.135772	-0.208456	-0.058633	0.210302	-0.347168	-0.164795	0.670898	142.778376	-85.072652	3.182854
41320		8.327114	1.482894	-2.241199	-0.236156	-0.068074	0.236257	-0.339111	-0.165771	0.668945	144.201957	-85.120727	1.623769
41321		8.496989	1.515161	-2.286067	-0.270944	-0.062642	0.242480	-0.343994	-0.167969	0.660889	145.643631	-85.169238	0.026778
41322		8.679167	1.492011	-2.370169	-0.295970	-0.072777	0.240773	-0.343506	-0.169678	0.665527	147.133241	-85.209701	-1.632747
41323		8.876926	1.505498	-2.409494	-0.328294	-0.072888	0.230817	-0.342773	-0.176514	0.673096	148.566122	-85.242650	-3.253780
41324		9.056448	1.487821	-2.470135	-0.340061	-0.078802	0.223443	-0.340576	-0.172363	0.664795	149.994382	-85.268000	-4.876934
41325		9.243319	1.423762	-2.523445	-0.346914	-0.083778	0.202392	-0.331299	-0.169189	0.664063	151.315896	-85.280752	-6.396868
41326		9.451714	1.369489	-2.551749	-0.366739	-0.075002	0.179389	-0.332520	-0.176270	0.674072	152.469120	-85.289983	-7.759319
41327		9.528265	1.368051	-2.597125	-0.392879	-0.057660	0.163969	-0.353516	-0.167480	0.670654	153.455544	-85.300862	-8.969286
41328		9.564730	1.329070	-2.687170	-0.394097	-0.028267	0.160613	-0.348633	-0.173096	0.666748	154.342738	-85.325480	-10.080488
41329		9.674246	1.268847	-2.666082	-0.408483	0.019648	0.162424	-0.346191	-0.173828	0.666504	155.095118	-85.373050	-11.064411
41330		9.777679	1.105001	-2.651737	-0.408619	0.071416	0.172759	-0.336182	-0.184082	0.669434	155.788779	-85.450056	-11.989650
41331		9.808918	0.724836	-2.489135	-0.403043	0.084342	0.187952	-0.344727	-0.179443	0.660889	156.570354	-85.535205	-12.999660
41332		9.839771	0.582840	-2.582502	-0.413624	0.069817	0.159800	-0.345703	-0.190430	0.663330	157.235968	-85.606542	-13.899442
41333		10.037726	0.643984	-2.687412	-0.425797	0.101515	0.104459	-0.342773	-0.183594	0.655762	157.432414	-85.680680	-14.335581
41334		10.236986	0.732111	-2.444881	-0.400250	0.142089	0.039554	-0.347412	-0.194824	0.659424	157.079938	-85.763139	-14.206563
41335		10.371240	0.687999	-2.015426	-0.348289	0.157565	-0.013837	-0.357910	-0.189941	0.661133	156.304942	-85.840241	-13.624029
41336		10.556488	0.533661	-1.741446	-0.323268	0.148141	-0.052122	-0.351318	-0.188477	0.657227	155.279199	-85.904053	-12.775797
41337		10.985423	0.337898	-1.319692	-0.293829	0.146026	-0.110196	-0.349854	-0.196777	0.655762	153.817575	-85.949826	-11.473579
41338		11.356190	0.340238	-0.874414	-0.253385	0.147274	-0.177340	-0.350586	-0.195313	0.659180	151.865800	-85.977223	-9.656969
41339		11.607541	0.418734	-0.324026	-0.188800	0.123541	-0.257588	-0.358154	-0.196533	0.649658	149.453775	-85.963927	-7.341792
41340		11.649268	0.337953	-0.295675	-0.132298	0.081342	-0.338215	-0.348389	-0.206787	0.660645	146.740116	-85.899849	-4.691752
41341		11.069813	0.441343	-0.668227	-0.184397	0.020584	-0.344266	-0.358398	-0.207764	0.647949	144.320070	-85.795351	-2.365684
41342		10.143238	0.987792	-0.750212	-0.322201	0.018170	-0.243585	-0.355957	-0.206055	0.655762	142.563020	-85.719458	-0.783398
41343		9.615180	1.281721	-0.646706	-0.434461	0.003989	-0.116341	-0.352295	-0.210205	0.653809	141.614794	-85.677857	-0.076557
41344		9.501355	1.055889	-0.580283	-0.541285	-0.001252	-0.033632	-0.338135	-0.220459	0.653320	141.134280	-85.664197	0.099834
41345		9.533187	0.659921	-0.415209	-0.623142	-0.009680	-0.014788	-0.349609	-0.215088	0.648926	140.756055	-85.651953	0.126639
41346		9.385785	0.222233	-0.096716	-0.657319	-0.020277	-0.029898	-0.359375	-0.223633	0.651611	140.325446	-85.631044	0.186313
41347		9.283228	-0.163546	0.165409	-0.669688	-0.050605	-0.084207	-0.347656	-0.227295	0.645996	139.722175	-85.575426	0.412182
41348		9.244216	-0.296146	0.335891	-0.653522	-0.075190	-0.132158	-0.347900	-0.240967	0.647217	138.993883	-85.492391	0.772636
41349		9.089858	-0.493321	0.544886	-0.591875	-0.102795	-0.164467	-0.350342	-0.234375	0.647949	138.274938	-85.383487	1.159103
41350		8.919327	-0.698736	0.674740	-0.536909	-0.131839	-0.184988	-0.340332	-0.244629	0.647705	137.645730	-85.255418	1.487288
41351		8.843363	-0.694695	0.725497	-0.499868	-0.157162	-0.192860	-0.351074	-0.246582	0.647461	137.136787	-85.112013	1.716206
41352		8.850942	-0.535859	0.629109	-0.478110	-0.158456	-0.190287	-0.342773	-0.247559	0.647461	136.681366	-84.970262	1.903900
41353		8.960188	-0.214585	0.440105	-0.454546	-0.131827	-0.177473	-0.349121	-0.256104	0.649170	136.196555	-84.843318	2.134755
41354		9.002612	0.024342	0.326356	-0.423001	-0.116374	-0.151919	-0.348389	-0.252197	0.647461	135.796312	-84.733942	2.298823
41355		9.102709	0.051834	0.274776	-0.392184	-0.114368	-0.129698	-0.338623	-0.260986	0.649658	135.510392	-84.633149	2.365896
41356		9.157536	0.023538	0.294585	-0.389422	-0.109763	-0.121669	-0.347656	-0.261719	0.643311	135.250057	-84.538488	2.408809
41357		9.244655	-0.025169	0.268285	-0.390170	-0.107420	-0.133558	-0.338379	-0.263916	0.637939	134.932484	-84.438874	2.508798
41358		9.400528	0.043304	0.367633	-0.398379	-0.105830	-0.147179	-0.340088	-0.265381	0.649902	134.558231	-84.335380	2.661035
41359		9.497859	0.151333	0.486128	-0.425944	-0.119352	-0.147896	-0.344971	-0.274170	0.644775	134.227521	-84.225068	2.753770
41360		9.511137	0.340233	0.523749	-0.451300	-0.130705	-0.141297	-0.340820	-0.276611	0.645508	133.963351	-84.113915	2.764930
41361		9.499733	0.422929	0.485894	-0.452307	-0.162299	-0.134225	-0.342041	-0.281006	0.645996	133.851021	-83.992239	2.622739
41362		9.504345	0.457721	0.348402	-0.445943	-0.204076	-0.131420	-0.336426	-0.281982	0.643799	133.915742	-83.856020	2.306242
41363		9.508018	0.392539	0.132625	-0.412664	-0.251951	-0.108369	-0.331055	-0.289063	0.649414	134.249735	-83.709235	1.737898
41364		9.525658	0.205463	0.033814	-0.374189	-0.294454	-0.080986	-0.329590	-0.286621	0.640869	134.839367	-83.556906	0.934425
41365		9.483073	0.079878	-0.098179	-0.339407	-0.339304	-0.059566	-0.330078	-0.289795	0.649658	135.644521	-83.392929	-0.066263
41366		9.560944	-0.023899	-0.251256	-0.299857	-0.374284	-0.032223	-0.324463	-0.294189	0.638672	136.643040	-83.224544	-1.239066
41367		9.664863	-0.051256	-0.283169	-0.272114	-0.403938	0.001931	-0.331299	-0.286377	0.649170	137.813488	-83.053604	-2.569566
41368		9.865639	-0.063601	-0.336891	-0.240932	-0.414427	0.047921	-0.326416	-0.294189	0.652344	139.135811	-82.893018	-4.035432
41369		10.021554	-0.114378	-0.371991	-0.220365	-0.425974	0.095038	-0.321533	-0.302002	0.655273	140.601311	-82.739958	-5.633940
41370		10.123391	-0.129064	-0.483572	-0.203351	-0.421838	0.138398	-0.319580	-0.300049	0.655518	142.154745	-82.599534	-7.312090
41371		10.104911	-0.046191	-0.573535	-0.179279	-0.428684	0.167438	-0.317139	-0.304443	0.647949	143.775650	-82.459383	-9.045191
41372		10.053189	0.078079	-0.662976	-0.137801	-0.424314	0.182855	-0.314697	-0.305176	0.649658	145.404930	-82.320784	-10.763043
41373		10.037157	0.131602	-0.703351	-0.080037	-0.418115	0.199641	-0.313232	-0.304688	0.656006	147.045679	-82.183537	-12.460374
41374		10.067661	0.218922	-0.837838	-0.035278	-0.404003	0.219273	-0.311768	-0.302979	0.657471	148.697226	-82.053099	-14.142513
41375		10.232396	0.224747	-0.847435	0.005534	-0.371410	0.249113	-0.310791	-0.295898	0.661133	150.351737	-81.940319	-15.805117
41376		10.304725	0.334846	-0.878348	0.043032	-0.348567	0.274367	-0.313232	-0.294678	0.661865	152.031618	-81.839786	-17.471496
41377		10.376251	0.439445	-0.809627	0.061992	-0.318192	0.282868	-0.304688	-0.293213	0.662109	153.653917	-81.749983	-19.069123
41378		10.285573	0.491582	-0.792090	0.079366	-0.304761	0.289493	-0.301758	-0.289795	0.667969	155.255087	-81.662619	-20.635693
41379		10.187839	0.593502	-0.794894	0.071596	-0.273890	0.275357	-0.304688	-0.290283	0.665039	156.717571	-81.581578	-22.066815
41380		9.923058	0.671844	-0.869202	0.055328	-0.234404	0.262693	-0.296631	-0.291260	0.670654	158.043755	-81.514102	-23.369942
41381		9.759118	0.744528	-0.937092	0.031736	-0.178708	0.248789	-0.306152	-0.290039	0.660400	159.206727	-81.468756	-24.521996
41382		9.683691	0.735183	-1.025347	0.001740	-0.126079	0.240402	-0.300049	-0.286865	0.673828	160.246039	-81.447295	-25.566387
41383		9.625085	0.779454	-1.106435	-0.026700	-0.071805	0.229092	-0.299316	-0.295654	0.664795	161.152380	-81.450184	-26.492997
41384		9.618946	0.807076	-1.133483	-0.054023	-0.018495	0.223387	-0.299316	-0.287354	0.668701	161.963902	-81.479169	-27.339338
41385		9.597198	0.787680	-1.279246	-0.064945	0.026661	0.208831	-0.300781	-0.293945	0.666260	162.664341	-81.528158	-28.080227
41386		9.680873	0.561487	-1.352550	-0.052719	0.087575	0.192868	-0.301270	-0.290771	0.668945	163.258608	-81.607041	-28.705956
41387		9.750848	0.257814	-1.374448	-0.018341	0.134805	0.196413	-0.312012	-0.280273	0.656738	163.840009	-81.711040	-29.299373
41388		9.844426	-0.043866	-1.366597	0.023615	0.191306	0.193041	-0.311035	-0.283936	0.659668	164.393052	-81.845249	-29.838923
41389		9.884286	-0.333505	-1.206864	0.052766	0.236007	0.192577	-0.311035	-0.295410	0.665039	164.928152	-82.003737	-30.343413
41390		9.788597	-0.370181	-1.087069	0.064600	0.241362	0.197304	-0.308838	-0.280762	0.666992	165.508427	-82.164792	-30.886339
41391		9.534718	-0.328263	-1.040749	0.068089	0.241179	0.197720	-0.312012	-0.290771	0.665039	166.110275	-82.324713	-31.449458
41392		9.369996	-0.195266	-1.138473	0.071946	0.234955	0.198008	-0.319824	-0.279541	0.657471	166.752413	-82.480675	-32.050139
41393		9.284091	-0.102001	-1.163592	0.075736	0.238955	0.191361	-0.312988	-0.282227	0.660400	167.384508	-82.637088	-32.638977
41394		9.255827	-0.047716	-1.286864	0.082109	0.233252	0.197388	-0.315186	-0.280273	0.658203	168.084660	-82.790174	-33.291849
41395		9.203033	0.002197	-1.362409	0.087969	0.235584	0.184970	-0.318604	-0.287842	0.656006	168.753072	-82.941780	-33.909646
41396		9.080854	0.018642	-1.416308	0.102441	0.240314	0.176929	-0.323730	-0.268799	0.659668	169.422514	-83.094622	-34.519406
41397		8.941140	-0.014928	-1.472749	0.120327	0.232384	0.152800	-0.322998	-0.281250	0.662354	170.017251	-83.239557	-35.043900
41398		8.872622	-0.011811	-1.576146	0.154749	0.228619	0.127417	-0.328369	-0.273926	0.663818	170.541509	-83.379429	-35.476935
41399		8.865986	-0.097422	-1.705430	0.190156	0.202379	0.102951	-0.321289	-0.275391	0.663086	170.999890	-83.501430	-35.823619
41400		8.858909	-0.156203	-1.909467	0.224265	0.178798	0.074272	-0.325928	-0.272949	0.665771	171.372372	-83.607612	-36.063615
41401		8.896848	-0.210043	-2.015869	0.263696	0.154560	0.055788	-0.328857	-0.265137	0.664307	171.694949	-83.697581	-36.231006
41402		8.836786	-0.276023	-2.103860	0.300634	0.122459	0.035774	-0.322021	-0.269775	0.663086	171.971876	-83.768366	-36.330772
41403		8.789096	-0.241129	-2.218255	0.345330	0.067822	0.008310	-0.335938	-0.267822	0.656982	172.169467	-83.805183	-36.325059
41404		8.719334	-0.233467	-2.338376	0.404419	0.020395	-0.009835	-0.326904	-0.262451	0.666504	172.345829	-83.814419	-36.263842
41405		8.776739	-0.284762	-2.408611	0.467374	-0.024948	-0.015938	-0.332764	-0.258301	0.665039	172.552856	-83.797084	-36.197640
41406		8.770668	-0.419214	-2.508488	0.529524	-0.060799	-0.030027	-0.325684	-0.252197	0.666016	172.751124	-83.758747	-36.086351
41407		8.724854	-0.483414	-2.464807	0.578891	-0.082310	-0.058070	-0.320313	-0.253906	0.666260	172.843117	-83.705608	-35.839659
41408		8.790076	-0.411502	-2.566151	0.611169	-0.098935	-0.081743	-0.320801	-0.249268	0.673096	172.848183	-83.641941	-35.486896
41409		8.879981	-0.337184	-2.692651	0.661401	-0.098365	-0.102983	-0.328613	-0.244141	0.674316	172.772910	-83.575907	-35.024585
41410		8.956232	-0.362344	-2.768583	0.711778	-0.087892	-0.125179	-0.332275	-0.236328	0.676270	172.618802	-83.515250	-34.453531
41411		8.979555	-0.367782	-2.796805	0.748756	-0.074308	-0.153150	-0.317139	-0.243652	0.671875	172.343002	-83.459410	-33.738518
41412		9.046055	-0.337929	-2.749981	0.777735	-0.053806	-0.186848	-0.328857	-0.231445	0.671143	171.914059	-83.412626	-32.852651
41413		9.032807	-0.264898	-2.683692	0.802212	-0.068224	-0.224471	-0.317139	-0.227051	0.688721	171.332002	-83.352861	-31.799154
41414		8.970546	-0.176893	-2.720398	0.826066	-0.090642	-0.250148	-0.324219	-0.224854	0.684082	170.677297	-83.277582	-30.657883
41415		8.961760	-0.128103	-2.730600	0.846770	-0.093082	-0.270154	-0.325928	-0.220703	0.688232	169.960025	-83.196140	-29.441625
41416		9.003865	-0.094069	-2.713693	0.853355	-0.077239	-0.273841	-0.310791	-0.208008	0.688477	169.239859	-83.122728	-28.218307
41417		9.092747	-0.032092	-2.745311	0.847358	-0.050471	-0.275643	-0.311035	-0.208008	0.692871	168.502587	-83.061073	-26.980985
41418		9.173931	-0.073639	-2.814630	0.831035	-0.007864	-0.282981	-0.320313	-0.203613	0.690674	167.697445	-83.021688	-25.684640
41419		9.318057	-0.043016	-2.760596	0.806547	0.059991	-0.296275	-0.311279	-0.205078	0.692383	166.756541	-83.014801	-24.265610
41420		9.618504	-0.066105	-2.541437	0.775847	0.132976	-0.310594	-0.314453	-0.193115	0.704102	165.650197	-83.044839	-22.697643
41421		9.933907	0.131507	-2.215539	0.714196	0.201208	-0.318739	-0.312988	-0.196533	0.701172	164.373369	-83.105856	-20.993813
41422		10.297443	0.467441	-1.703114	0.634730	0.237561	-0.293432	-0.313965	-0.189453	0.697510	163.088861	-83.187943	-19.328225
41423		10.496930	0.868866	-1.108587	0.538805	0.201383	-0.232957	-0.323242	-0.189697	0.703369	162.048613	-83.255090	-17.964408
41424		10.565587	1.180540	-0.835458	0.436201	0.145399	-0.140423	-0.319336	-0.173096	0.698242	161.441018	-83.307546	-17.095414
41425		10.748405	1.534353	-0.545957	0.358222	0.097370	-0.068330	-0.322266	-0.179932	0.699219	161.191040	-83.345355	-16.631344
41426		10.971929	1.811572	-0.448532	0.310334	0.048765	0.018592	-0.317871	-0.181152	0.696777	161.391320	-83.373785	-16.648424
41427		11.173875	1.685123	-0.794931	0.309514	0.012385	0.095934	-0.310547	-0.172119	0.694824	162.012402	-83.395319	-17.089659
41428		11.205714	1.252887	-1.256863	0.311224	-0.020062	0.152152	-0.326660	-0.167236	0.699463	162.951963	-83.409130	-17.850432
41429		11.052136	0.560811	-1.540453	0.347853	-0.024532	0.170273	-0.325439	-0.165283	0.708740	164.008549	-83.420942	-18.707771
41430		10.850936	-0.183385	-1.616682	0.387235	-0.032895	0.160644	-0.320557	-0.166748	0.700684	165.055598	-83.425829	-19.532872
41431		10.742943	-0.454772	-1.659947	0.396307	-0.050749	0.131982	-0.322266	-0.157959	0.700684	165.991985	-83.414107	-20.241350
41432		10.915300	-0.324859	-1.680661	0.410843	-0.055242	0.120109	-0.311279	-0.157959	0.704346	166.881999	-83.397956	-20.894784
41433		10.937840	-0.044008	-1.560462	0.426232	-0.043899	0.123029	-0.312988	-0.148682	0.717773	167.778731	-83.386360	-21.546127
41434		10.750867	0.457410	-1.290500	0.422951	-0.049678	0.121102	-0.318848	-0.147217	0.710693	168.667524	-83.371115	-22.191384
41435		10.583276	0.853362	-1.079167	0.405224	-0.039079	0.136619	-0.308838	-0.149414	0.714844	169.607611	-83.361342	-22.898522
41436		10.452235	1.028173	-0.877445	0.375178	-0.018240	0.147273	-0.319092	-0.142090	0.720459	170.563159	-83.364013	-23.638562
41437		10.314511	1.096513	-0.704416	0.337753	0.010595	0.160736	-0.315674	-0.141846	0.714844	171.541179	-83.381807	-24.422827
41438		10.125578	1.016374	-0.478171	0.317497	0.037634	0.174441	-0.316406	-0.137695	0.711182	172.563038	-83.415400	-25.262836
41439		9.806839	0.815948	-0.255738	0.296992	0.064500	0.182328	-0.315918	-0.134766	0.707275	173.604734	-83.462155	-26.134597
41440		9.555587	0.661968	-0.110225	0.276244	0.091172	0.184395	-0.316650	-0.133301	0.714355	174.647457	-83.523329	-27.019236
41441		9.472100	0.545129	-0.036024	0.286330	0.122748	0.167728	-0.321045	-0.129883	0.712891	175.614716	-83.599080	-27.822022
41442		9.463200	0.412566	0.148328	0.301655	0.163266	0.158090	-0.323486	-0.122070	0.718994	176.551483	-83.696976	-28.585130
41443		9.374219	0.310825	0.401565	0.334592	0.176657	0.125341	-0.315918	-0.116699	0.717529	177.355547	-83.799429	-29.195630
41444		9.359412	0.392588	0.498191	0.342435	0.190368	0.094194	-0.319092	-0.119385	0.721680	178.020949	-83.908960	-29.662004
41445		9.393759	0.480063	0.571355	0.349064	0.181792	0.058995	-0.323242	-0.119873	0.720703	178.516807	-84.011714	-29.953993
41446		9.468950	0.646886	0.503754	0.334382	0.166371	0.030505	-0.336670	-0.105713	0.713623	178.864477	-84.105774	-30.105382
41447		9.515720	0.841127	0.452263	0.319311	0.156943	0.001363	-0.327148	-0.101074	0.709229	179.044878	-84.193386	-30.097295
41448		9.548196	0.962927	0.414159	0.291649	0.139191	-0.017171	-0.326660	-0.105713	0.714844	179.110992	-84.271327	-29.990257
41449		9.459875	1.068568	0.371305	0.264444	0.119946	-0.031338	-0.324463	-0.105957	0.718262	179.077064	-84.337510	-29.798362
41450		9.502772	1.129307	0.269211	0.241718	0.115535	-0.044911	-0.329346	-0.094482	0.704102	178.952257	-84.401615	-29.528250
41451		9.596596	1.166735	0.250175	0.220879	0.108439	-0.053780	-0.325684	-0.087402	0.721680	178.755194	-84.460924	-29.197561
41452		9.527873	1.132947	0.238432	0.203628	0.113299	-0.054688	-0.328125	-0.091064	0.713623	178.540526	-84.523444	-28.859153
41453		9.389479	1.078012	0.178584	0.180837	0.129095	-0.067394	-0.325684	-0.093994	0.715576	178.221782	-84.594147	-28.429339
41454		9.351468	1.002155	0.181711	0.156645	0.144507	-0.081733	-0.327393	-0.087158	0.721436	177.792330	-84.673632	-27.902320
41455		9.307146	0.962208	0.228361	0.116044	0.158247	-0.096674	-0.326416	-0.083008	0.718506	177.222438	-84.759709	-27.257672
41456		9.288057	0.933291	0.199837	0.066144	0.158037	-0.100172	-0.325684	-0.081299	0.709717	176.586716	-84.845402	-26.575742
41457		9.284793	0.972964	0.131100	0.025091	0.151603	-0.103462	-0.331787	-0.083740	0.716309	175.881158	-84.926131	-25.847370
41458		9.179726	0.846989	0.169594	-0.007008	0.139127	-0.103644	-0.328369	-0.088867	0.714355	175.145524	-84.999341	-25.107387
41459		9.103862	0.719445	0.082988	-0.065263	0.115535	-0.094932	-0.334717	-0.084717	0.710449	174.421076	-85.058305	-24.412172
41460		9.109741	0.706027	-0.002162	-0.145254	0.080554	-0.102544	-0.323242	-0.094238	0.707764	173.614939	-85.096483	-23.681055
41461		9.341527	0.830580	-0.079967	-0.226937	0.059227	-0.118655	-0.331543	-0.090576	0.710449	172.654062	-85.120070	-22.841595
41462		9.557433	1.032932	-0.050605	-0.298005	0.045705	-0.155313	-0.333740	-0.093018	0.711670	171.419336	-85.132092	-21.768226
41463		9.620972	1.108216	-0.051634	-0.327561	0.042105	-0.195631	-0.333740	-0.092773	0.713867	169.892219	-85.135750	-20.418366
41464		9.636222	1.011608	-0.015104	-0.331018	0.067591	-0.237525	-0.336914	-0.086670	0.708496	168.057143	-85.146185	-18.761488
41465		9.597273	0.788589	0.047374	-0.320957	0.090330	-0.258685	-0.333252	-0.096924	0.715576	166.039321	-85.161494	-16.915399
41466		9.627843	0.615765	0.054424	-0.298777	0.101189	-0.281582	-0.332031	-0.101318	0.713867	163.861412	-85.174090	-14.895992
41467		9.668567	0.529103	0.094738	-0.283938	0.125603	-0.283561	-0.330322	-0.103516	0.706787	161.611929	-85.192736	-12.796211
41468		9.794649	0.529646	0.124520	-0.254767	0.132144	-0.285270	-0.337646	-0.104004	0.706543	159.345653	-85.208043	-10.662920
41469		9.820888	0.551265	0.092303	-0.227455	0.133663	-0.279811	-0.338623	-0.098633	0.707031	157.107655	-85.217890	-8.542274
41470		9.743386	0.602800	0.044870	-0.189348	0.127701	-0.271147	-0.340820	-0.100098	0.703857	154.963536	-85.220282	-6.494011
41471		9.675781	0.601550	-0.016756	-0.154675	0.127256	-0.266219	-0.333008	-0.104980	0.716553	152.864519	-85.216950	-4.470998
41472		9.622572	0.669784	-0.116331	-0.129095	0.134559	-0.260156	-0.341309	-0.103516	0.708252	150.804185	-85.213265	-2.472158
41473		9.608848	0.764980	-0.117975	-0.117191	0.129640	-0.248014	-0.348145	-0.108398	0.709961	148.837898	-85.204353	-0.560757
41474		9.592875	0.877911	-0.149773	-0.106156	0.106842	-0.239200	-0.337646	-0.111816	0.701904	147.028652	-85.182248	1.199363
41475		9.498559	1.019091	-0.221405	-0.092909	0.087533	-0.236045	-0.338623	-0.115967	0.705322	145.330077	-85.147000	2.856187
41476		9.374941	1.051446	-0.301125	-0.089756	0.074233	-0.226102	-0.339600	-0.119385	0.696289	143.771601	-85.105363	4.374232
41477		9.264383	1.026570	-0.420173	-0.070081	0.059289	-0.226715	-0.331543	-0.113037	0.695557	142.302146	-85.052799	5.814432
41478		9.218978	1.029247	-0.465127	-0.057554	0.046100	-0.226950	-0.341064	-0.117920	0.700684	140.930825	-84.991677	7.163371
41479		9.139442	0.979737	-0.604250	-0.047032	0.043789	-0.213994	-0.347168	-0.108643	0.700195	139.666064	-84.931089	8.411602
41480		9.068480	0.994662	-0.680910	-0.044610	0.036554	-0.207455	-0.338867	-0.115234	0.700928	138.500905	-84.868038	9.561260
41481		9.045467	1.017679	-0.755059	-0.052043	0.036953	-0.184340	-0.334961	-0.110596	0.703613	137.459543	-84.811520	10.582538
41482		9.070509	1.048056	-0.826157	-0.059266	0.038938	-0.154312	-0.346191	-0.113037	0.704834	136.570120	-84.766582	11.447085
41483		9.057034	1.019331	-0.890874	-0.065610	0.021747	-0.127402	-0.341553	-0.111328	0.710449	135.880287	-84.723541	12.107702
41484		8.980397	1.067643	-1.002925	-0.078867	0.017524	-0.095092	-0.335449	-0.115723	0.698975	135.359452	-84.691668	12.590916
41485		8.929752	1.084816	-1.032723	-0.086962	0.004670	-0.065914	-0.346436	-0.115234	0.699951	135.016472	-84.665408	12.890965
41486		8.845470	1.033469	-1.104649	-0.091723	-0.010755	-0.033400	-0.335693	-0.114258	0.695557	134.886508	-84.646586	12.974245
41487		8.789744	0.960806	-1.172159	-0.096417	-0.037437	-0.000304	-0.337891	-0.106445	0.698730	135.006451	-84.629747	12.803916
41488		8.608572	0.996795	-1.199834	-0.119455	-0.054996	0.027235	-0.339355	-0.116211	0.692871	135.312045	-84.617476	12.433758
41489		8.575242	1.036485	-1.215259	-0.148239	-0.078508	0.065643	-0.330811	-0.107910	0.699219	135.860523	-84.610069	11.803163
41490		8.640080	1.103784	-1.302073	-0.185669	-0.082762	0.095086	-0.336182	-0.121582	0.699951	136.539112	-84.612596	11.020242
41491		8.712169	1.141021	-1.407256	-0.212301	-0.070296	0.130736	-0.344482	-0.110352	0.698730	137.305242	-84.632691	10.134175
41492		8.852025	1.183633	-1.405039	-0.249336	-0.029323	0.172279	-0.339355	-0.112061	0.703369	138.084265	-84.685714	9.213805
41493		8.966869	1.222381	-1.376181	-0.292248	0.009144	0.206457	-0.339844	-0.124512	0.699707	138.852470	-84.766365	8.279805
41494		8.967222	1.337742	-1.343724	-0.340294	0.029311	0.238384	-0.336182	-0.117676	0.689453	139.697970	-84.867178	7.240589
41495		9.062344	1.362344	-1.334435	-0.376243	0.037769	0.262718	-0.332520	-0.114014	0.696533	140.641154	-84.978453	6.082899
41496		9.142795	1.238022	-1.425185	-0.384628	0.043739	0.269427	-0.342773	-0.113770	0.697021	141.644238	-85.093752	4.860362
41497		9.373848	0.950690	-1.450932	-0.357347	0.045113	0.269149	-0.333008	-0.118896	0.696777	142.701520	-85.206924	3.599431
41498		9.525673	0.787317	-1.406778	-0.343654	0.039091	0.260467	-0.340820	-0.121826	0.692627	143.805846	-85.313044	2.299268
41499		9.628959	0.631014	-1.420212	-0.311403	0.020213	0.248586	-0.341309	-0.113525	0.687256	144.983437	-85.403510	0.944422
41500		9.596934	0.528470	-1.432841	-0.289702	-0.005523	0.234193	-0.343506	-0.122070	0.689941	146.248836	-85.475512	-0.485984
41501		9.435631	0.506236	-1.596209	-0.248623	-0.023333	0.225721	-0.341064	-0.115723	0.689453	147.589521	-85.532979	-1.968072
41502		9.411766	0.537579	-1.731399	-0.217232	-0.036698	0.234310	-0.330078	-0.109131	0.692139	149.098754	-85.584316	-3.601166
41503		9.522874	0.607247	-1.762386	-0.197432	-0.060117	0.244768	-0.337158	-0.116455	0.688721	150.800074	-85.622750	-5.415340
41504		9.616993	0.720106	-1.655010	-0.193211	-0.086100	0.252215	-0.346436	-0.108398	0.692871	152.682407	-85.646428	-7.408649
41505		9.583401	0.746357	-1.648428	-0.179080	-0.116756	0.245230	-0.337402	-0.111328	0.691406	154.633455	-85.646776	-9.462627
41506		9.408628	0.876144	-1.647084	-0.170157	-0.153036	0.236430	-0.344971	-0.120850	0.688721	156.644556	-85.621411	-11.571832
41507		9.351792	0.951844	-1.803705	-0.159491	-0.193778	0.225101	-0.329346	-0.114746	0.686279	158.656795	-85.565651	-13.676076
41508		9.324896	0.968339	-1.902391	-0.159548	-0.216990	0.209256	-0.330566	-0.103516	0.689209	160.572838	-85.489436	-15.684139
41509		9.308308	0.932085	-2.043503	-0.163724	-0.226502	0.199679	-0.326416	-0.106689	0.682373	162.364146	-85.400577	-17.569619
41510		9.305730	0.934676	-2.114797	-0.167435	-0.226393	0.191254	-0.334961	-0.106689	0.693115	164.035637	-85.306581	-19.337344
41511		9.335251	1.044748	-2.173069	-0.188069	-0.228804	0.184158	-0.327637	-0.108887	0.688721	165.573030	-85.205501	-20.982545
41512		9.533811	1.199679	-2.272916	-0.223491	-0.215844	0.169493	-0.328613	-0.112793	0.682861	166.919075	-85.106938	-22.456396
41513		9.684618	1.348445	-2.373429	-0.251842	-0.195533	0.171043	-0.336182	-0.114990	0.686768	168.164617	-85.016411	-23.845813
41514		9.760441	1.475415	-2.375039	-0.286135	-0.174396	0.170703	-0.326904	-0.112549	0.682373	169.326638	-84.935944	-25.171361
41515		9.687028	1.454615	-2.389116	-0.333027	-0.134474	0.190269	-0.329834	-0.120850	0.684326	170.492613	-84.876865	-26.527932
41516		9.627406	1.493767	-2.331454	-0.379404	-0.103688	0.204718	-0.326172	-0.104980	0.686768	171.676721	-84.834773	-27.929561
41517		9.462537	1.453183	-2.390779	-0.431036	-0.079635	0.222123	-0.324219	-0.113525	0.684082	172.888062	-84.804289	-29.388259
41518		9.320997	1.400937	-2.370325	-0.490313	-0.054583	0.239282	-0.323730	-0.111572	0.679688	174.152710	-84.787086	-30.934702
41519		9.297511	1.427369	-2.446574	-0.534042	-0.031735	0.249560	-0.329590	-0.120605	0.673584	175.422533	-84.779582	-32.511477
41520		9.204133	1.384874	-2.393872	-0.568393	-0.001095	0.265061	-0.332520	-0.116699	0.666748	176.767412	-84.787679	-34.183438
41521		9.309068	1.087013	-2.179477	-0.600954	0.014622	0.259798	-0.332764	-0.121826	0.679688	178.047249	-84.800380	-35.808742
41522		9.565165	0.756134	-1.979055	-0.637065	0.028940	0.238744	-0.324219	-0.126465	0.669922	179.192905	-84.818614	-37.320098
41523		9.896164	0.429241	-1.853189	-0.611037	-0.016678	0.166723	-0.337646	-0.124512	0.669189	179.890671	-84.807422	-38.366695
41524		10.067103	0.248937	-1.879364	-0.584942	-0.063841	0.081239	-0.330566	-0.135498	0.666992	-179.924873	-84.769210	-38.882925
41525		10.194270	0.021045	-1.909639	-0.562031	-0.077393	0.025132	-0.325195	-0.137207	0.666504	179.904284	-84.722456	-39.029169
41526		10.362431	-0.188954	-1.818216	-0.549747	-0.056615	0.001121	-0.325684	-0.136475	0.668457	179.606915	-84.688375	-39.041326
41527		10.677707	-0.424523	-1.643352	-0.498546	-0.037094	-0.019337	-0.319336	-0.144531	0.665527	179.199695	-84.664565	-38.913659
41528		11.083275	-0.576113	-1.492969	-0.435302	-0.023970	-0.063973	-0.327148	-0.142822	0.660400	178.570752	-84.648480	-38.526938
41529		11.382216	-0.485636	-1.263987	-0.362040	-0.028308	-0.122814	-0.327393	-0.147949	0.660156	177.615622	-84.627456	-37.770392
41530		11.403190	-0.304719	-1.105817	-0.287542	-0.062457	-0.181891	-0.328369	-0.140625	0.658447	176.378446	-84.584631	-36.687664
41531		11.238240	-0.062692	-0.840981	-0.230081	-0.091509	-0.226140	-0.323486	-0.151123	0.658447	174.930858	-84.520029	-35.360371
41532		11.002468	0.191765	-0.680546	-0.173695	-0.123847	-0.257575	-0.328125	-0.145020	0.656982	173.398391	-84.432822	-33.915207
41533		10.873979	0.408185	-0.611385	-0.129870	-0.134920	-0.296746	-0.321289	-0.157227	0.657227	171.710832	-84.331611	-32.288708
41534		10.685595	0.585178	-0.739781	-0.084086	-0.141925	-0.324285	-0.324951	-0.154297	0.650635	169.973137	-84.220173	-30.585192
41535		10.360039	0.648477	-0.796781	-0.071749	-0.134059	-0.318847	-0.318359	-0.152344	0.648438	168.318724	-84.107794	-28.957913
41536		9.869912	0.658013	-0.882683	-0.086376	-0.117164	-0.265971	-0.327637	-0.158936	0.640625	166.988859	-84.008088	-27.665086
41537		9.578642	0.617378	-0.855883	-0.113841	-0.094977	-0.182355	-0.327881	-0.155762	0.645508	166.083622	-83.928297	-26.814823
41538		9.472957	0.451958	-0.715032	-0.139118	-0.073240	-0.123094	-0.320801	-0.158691	0.636719	165.473104	-83.868776	-26.275452
41539		9.444316	0.289564	-0.642598	-0.152277	-0.059104	-0.089129	-0.323242	-0.159668	0.645264	165.010168	-83.820485	-25.892007
41540		9.471006	0.213284	-0.422967	-0.161773	-0.049441	-0.090733	-0.322754	-0.156006	0.636719	164.536718	-83.777995	-25.503465
41541		9.569290	0.148941	-0.175433	-0.168854	-0.046050	-0.113650	-0.320068	-0.173096	0.634766	163.935439	-83.732398	-24.990341
41542		9.539018	0.161108	-0.058711	-0.169845	-0.045074	-0.133453	-0.320801	-0.175537	0.642578	163.251616	-83.684540	-24.394738
41543		9.519527	0.101659	0.060949	-0.172350	-0.038582	-0.140417	-0.315430	-0.169434	0.636963	162.522482	-83.637263	-23.754892
41544		9.443558	0.105855	0.128459	-0.191942	-0.017424	-0.139306	-0.328125	-0.166016	0.636963	161.773320	-83.601825	-23.106179
41545		9.379798	0.163434	0.295246	-0.209169	0.007324	-0.132331	-0.320557	-0.167236	0.622070	161.005674	-83.579179	-22.448717
41546		9.315631	0.242035	0.390930	-0.235698	0.035779	-0.126985	-0.320801	-0.182373	0.619629	160.213781	-83.572916	-21.782177
41547		9.338816	0.405826	0.442674	-0.264347	0.050386	-0.123159	-0.320068	-0.183594	0.627441	159.390171	-83.573280	-21.100184
41548		9.387546	0.400606	0.501435	-0.286361	0.079311	-0.130211	-0.315674	-0.170166	0.623047	158.475696	-83.587448	-20.339504
41549		9.425866	0.490918	0.463388	-0.306639	0.106734	-0.137077	-0.313232	-0.181885	0.624268	157.451140	-83.612363	-19.479718
41550		9.504537	0.442180	0.554024	-0.311849	0.128239	-0.136348	-0.322998	-0.180420	0.618652	156.384678	-83.647944	-18.580877
41551		9.548931	0.288865	0.669458	-0.326075	0.138907	-0.131731	-0.314453	-0.187500	0.614014	155.288969	-83.687424	-17.660811
41552		9.632677	0.238408	0.664344	-0.354694	0.144928	-0.133196	-0.325928	-0.198242	0.618164	154.152888	-83.728574	-16.716761
41553		9.600928	0.292942	0.652518	-0.356862	0.133932	-0.128554	-0.315430	-0.189697	0.609619	153.040932	-83.762389	-15.798227
41554		9.666728	0.262966	0.472942	-0.324876	0.103671	-0.119315	-0.323486	-0.192139	0.615723	152.063105	-83.782282	-14.996300
41555		9.663319	0.172545	0.383600	-0.281748	0.072217	-0.101554	-0.322266	-0.198730	0.615479	151.257274	-83.788985	-14.342474
41556		9.747250	0.020626	0.246386	-0.228169	0.045719	-0.072308	-0.326416	-0.201172	0.602539	150.692354	-83.790509	-13.900183
41557		9.816927	-0.185714	0.079656	-0.174260	0.011476	-0.030762	-0.326172	-0.210205	0.602783	150.428398	-83.785541	-13.729483
41558		9.778614	-0.338644	-0.096747	-0.116339	-0.025935	0.002119	-0.326660	-0.207764	0.604736	150.454289	-83.771944	-13.817039
41559		9.635681	-0.487005	-0.209682	-0.051707	-0.067508	0.030677	-0.315186	-0.203125	0.598389	150.744992	-83.744898	-14.133661
41560		9.606029	-0.569452	-0.342558	0.012821	-0.093226	0.052613	-0.326904	-0.200195	0.598633	151.243312	-83.711520	-14.622051
41561		9.610753	-0.574521	-0.449414	0.065741	-0.106361	0.077530	-0.319092	-0.206543	0.598145	151.903707	-83.677141	-15.242957
41562		9.607139	-0.559160	-0.483754	0.127763	-0.114455	0.101448	-0.322021	-0.205322	0.600586	152.729537	-83.644767	-15.994673
41563		9.476473	-0.517421	-0.550017	0.198365	-0.134063	0.123931	-0.326416	-0.203369	0.603760	153.726863	-83.606275	-16.878233
41564		9.443139	-0.461801	-0.636638	0.267427	-0.149157	0.132534	-0.317383	-0.195557	0.604736	154.832756	-83.560893	-17.831364
41565		9.603435	-0.377332	-0.739194	0.340761	-0.166694	0.148526	-0.316406	-0.204590	0.605469	156.067326	-83.507501	-18.871741
41566		9.633347	-0.291630	-0.727735	0.408051	-0.169391	0.174997	-0.323975	-0.205811	0.607666	157.456539	-83.456494	-20.029130
41567		9.920969	-0.292083	-0.656096	0.459898	-0.174621	0.208487	-0.321533	-0.200195	0.611084	159.011322	-83.406011	-21.323344
41568		9.851653	-0.227562	-0.578706	0.489985	-0.189517	0.238750	-0.313965	-0.186768	0.611328	160.733347	-83.349692	-22.768763
41569		9.696487	-0.203958	-0.651834	0.482072	-0.178367	0.235828	-0.317627	-0.187500	0.605469	162.385377	-83.293643	-24.148389
41570		9.598904	-0.049668	-0.796166	0.460704	-0.151361	0.233986	-0.321289	-0.185791	0.600098	163.961963	-83.247955	-25.464569
41571		9.529806	0.040130	-0.764826	0.431074	-0.109888	0.210358	-0.317871	-0.173340	0.609131	165.333218	-83.217330	-26.591131
41572		9.405627	0.196607	-0.807950	0.401859	-0.078756	0.184903	-0.320068	-0.180420	0.609619	166.529909	-83.197793	-27.558859
41573		9.295962	0.259274	-0.846114	0.382215	-0.054497	0.158027	-0.316162	-0.177246	0.615234	167.550440	-83.185866	-28.360497
41574		9.272985	0.411310	-0.882238	0.355897	-0.034478	0.123558	-0.321777	-0.176514	0.600586	168.379068	-83.179763	-28.984112
41575		9.243490	0.462901	-1.011774	0.328483	-0.016413	0.088835	-0.330322	-0.170410	0.602539	169.003344	-83.178729	-29.417697
41576		9.164535	0.490218	-1.018740	0.311188	-0.004264	0.074347	-0.324463	-0.173828	0.601563	169.546229	-83.182697	-29.779336
41577		9.125060	0.423844	-1.068165	0.291341	0.002927	0.058250	-0.316162	-0.169678	0.605225	169.988562	-83.188483	-30.051111
41578		9.189731	0.322298	-1.136027	0.267694	-0.005099	0.057744	-0.317383	-0.165283	0.603271	170.429656	-83.189662	-30.335325
41579		9.158408	0.205881	-1.231544	0.238626	-0.016972	0.059838	-0.317383	-0.168457	0.604248	170.865554	-83.183844	-30.631037
41580		9.142536	0.143448	-1.280637	0.201861	-0.025001	0.061509	-0.316162	-0.163818	0.598389	171.301203	-83.173577	-30.947762
41581		9.246802	0.118131	-1.400735	0.163075	-0.025536	0.062937	-0.317871	-0.169189	0.604248	171.713005	-83.162633	-31.262816
41582		9.251645	0.083597	-1.450158	0.133786	-0.017215	0.058865	-0.312988	-0.160156	0.598633	172.089758	-83.156034	-31.559520
41583		9.257805	0.067190	-1.621656	0.111214	-0.001904	0.050641	-0.311768	-0.162354	0.595703	172.396796	-83.157060	-31.798995
41584		9.319135	0.009815	-1.786898	0.096839	0.022003	0.041186	-0.323242	-0.166992	0.599854	172.643794	-83.171039	-31.986332
41585		9.371763	0.006097	-1.879527	0.081732	0.050759	0.024440	-0.314209	-0.164063	0.596191	172.778488	-83.199833	-32.069236
41586		9.473265	0.010337	-1.968547	0.085569	0.067297	0.010107	-0.318848	-0.174316	0.592285	172.845254	-83.237218	-32.081554
41587		9.532996	-0.020006	-2.128414	0.087812	0.092561	0.008506	-0.319092	-0.165771	0.597168	172.883292	-83.288584	-32.063610
41588		9.462579	-0.032484	-2.121130	0.093799	0.107372	0.005799	-0.319580	-0.164795	0.584961	172.910283	-83.348448	-32.031131
41589		9.281039	0.022151	-1.999146	0.089888	0.115039	0.001305	-0.315674	-0.167236	0.588135	172.900673	-83.412045	-31.964027
41590		9.105593	0.049265	-1.948691	0.072882	0.115410	-0.010895	-0.326904	-0.167480	0.594727	172.827204	-83.475288	-31.842498
41591		8.976272	0.107063	-1.922667	0.049423	0.122868	-0.022088	-0.322021	-0.170654	0.594971	172.669845	-83.541586	-31.650046
41592		8.890903	0.237800	-2.021852	0.034039	0.118884	-0.039929	-0.317627	-0.158691	0.590332	172.419820	-83.604565	-31.373271
41593		8.793212	0.271714	-2.091754	0.034124	0.108588	-0.055498	-0.321533	-0.168945	0.582275	172.084803	-83.659947	-31.010926
41594		8.545927	0.293678	-2.070522	0.041612	0.107419	-0.086559	-0.324951	-0.168213	0.580811	171.596583	-83.712247	-30.490198
41595		8.337542	0.221378	-2.093019	0.078414	0.054823	-0.124076	-0.323730	-0.168457	0.585693	170.962799	-83.730489	-29.801817
41596		8.281971	0.138502	-2.235606	0.134373	-0.025754	-0.151579	-0.324951	-0.174561	0.582764	170.294425	-83.700214	-29.046406
41597		8.498741	0.061696	-2.469099	0.206986	-0.078844	-0.148289	-0.324219	-0.174805	0.584229	169.733161	-83.638905	-28.356806
41598		8.796940	-0.099104	-2.623474	0.285984	-0.115737	-0.131751	-0.320313	-0.168701	0.587646	169.353682	-83.558431	-27.804519
41599		9.094552	-0.491865	-2.543321	0.355331	-0.146999	-0.115510	-0.320801	-0.170166	0.581299	169.128259	-83.461181	-27.367172
41600		9.246719	-0.579597	-2.395713	0.388981	-0.178691	-0.100908	-0.324219	-0.171875	0.581299	169.038833	-83.348146	-27.047252
41601		9.301336	-0.438627	-2.591621	0.416799	-0.204095	-0.099367	-0.312256	-0.166748	0.580322	168.997022	-83.220299	-26.759132
41602		9.320472	-0.249467	-2.722245	0.454376	-0.207871	-0.096128	-0.310303	-0.166260	0.581055	169.007034	-83.091321	-26.501462
41603		9.419951	-0.134985	-2.697290	0.475651	-0.191709	-0.088500	-0.309814	-0.166260	0.578857	169.048560	-82.971571	-26.263184
41604		9.414255	-0.137772	-2.689513	0.490780	-0.173077	-0.081294	-0.309326	-0.166016	0.583008	169.123385	-82.863823	-26.049677
41605		9.462838	-0.177171	-2.625536	0.508675	-0.156979	-0.079547	-0.313965	-0.161377	0.581543	169.199418	-82.764587	-25.827002
41606		9.386425	-0.180242	-2.739157	0.522417	-0.130342	-0.082696	-0.316406	-0.168213	0.580078	169.254016	-82.680808	-25.574738
41607		9.434266	-0.187231	-2.820216	0.548388	-0.083209	-0.094447	-0.306152	-0.157959	0.579834	169.230769	-82.621484	-25.228942
41608		9.392170	-0.238446	-2.943387	0.564248	-0.027824	-0.115760	-0.311523	-0.157227	0.580811	169.085541	-82.591793	-24.750942
41609		9.353962	-0.307837	-3.009182	0.591392	0.029247	-0.136403	-0.309082	-0.156738	0.584473	168.815987	-82.590811	-24.131876
41610		9.385401	-0.347508	-2.922358	0.623987	0.091929	-0.149714	-0.312012	-0.160645	0.577637	168.455835	-82.623996	-23.402637
41611		9.403211	-0.297817	-2.718246	0.653593	0.151475	-0.162911	-0.312988	-0.152100	0.579834	167.990773	-82.687392	-22.550604
41612		9.466479	-0.224230	-2.412178	0.651770	0.203323	-0.156641	-0.313721	-0.148682	0.576172	167.493123	-82.780638	-21.666915
41613		9.542797	-0.085251	-2.038273	0.630968	0.217982	-0.138597	-0.312256	-0.156982	0.576660	167.027412	-82.882386	-20.827624
41614		9.635688	0.109474	-1.821656	0.601552	0.201387	-0.099855	-0.312500	-0.153809	0.573242	166.722549	-82.980236	-20.167573
41615		9.730206	0.292060	-1.680929	0.562864	0.182973	-0.057864	-0.314941	-0.149170	0.572754	166.591694	-83.072005	-19.705297
41616		9.718893	0.509129	-1.528131	0.515622	0.190895	-0.029967	-0.313965	-0.162354	0.567383	166.549399	-83.172874	-19.359578
41617		9.709241	0.699454	-1.247154	0.456371	0.215165	-0.017392	-0.325684	-0.144287	0.564697	166.495592	-83.287833	-19.036530
41618		9.774255	0.751282	-1.112701	0.396068	0.199877	0.007167	-0.323730	-0.145996	0.570801	166.539501	-83.398629	-18.846722
41619		10.126369	0.875388	-1.101666	0.330825	0.191341	0.048906	-0.318604	-0.156982	0.565430	166.754378	-83.509158	-18.866671
41620		10.648715	1.007367	-1.034958	0.283769	0.167170	0.108896	-0.321533	-0.145508	0.564453	167.276677	-83.614976	-19.223122
41621		11.186110	1.005992	-0.722370	0.213490	0.127990	0.180154	-0.324219	-0.153320	0.556885	168.174384	-83.705966	-19.997733
41622		11.432981	0.844912	-0.700951	0.185206	0.046148	0.254429	-0.321045	-0.153564	0.557373	169.547636	-83.758520	-21.266948
41623		11.552730	0.368489	-0.610512	0.166074	-0.005759	0.317818	-0.320801	-0.156494	0.559326	171.299469	-83.782959	-22.927923
41624		11.738229	0.065509	-0.430876	0.140479	-0.063602	0.359757	-0.319336	-0.149902	0.567383	173.308930	-83.772857	-24.862784
41625		11.889283	0.028662	-0.634088	0.143379	-0.109699	0.408485	-0.316406	-0.151855	0.557861	175.579244	-83.730378	-27.058484
41626		11.873778	-0.008363	-1.199029	0.211334	-0.124841	0.414968	-0.317627	-0.150635	0.559326	177.896984	-83.670854	-29.262937
41627		11.657947	-0.471060	-1.116317	0.357119	-0.096508	0.372231	-0.316650	-0.152100	0.559326	-179.971864	-83.616880	-31.195858
41628		11.305845	-0.720104	-0.676697	0.441632	-0.097099	0.292124	-0.315186	-0.145752	0.560547	-178.229430	-83.556966	-32.689091
41629		11.056909	-0.425746	-0.412691	0.474031	-0.086211	0.222631	-0.319092	-0.146729	0.560303	-176.850878	-83.499631	-33.797617
41630		10.855478	-0.082907	-0.229630	0.486344	-0.049917	0.180374	-0.324707	-0.145996	0.559326	-175.678590	-83.462689	-34.691522
41631		10.638586	0.194243	0.094664	0.492835	-0.000193	0.152009	-0.319824	-0.144043	0.553955	-174.638084	-83.452771	-35.449100
41632		10.322669	0.488007	0.414797	0.489129	0.051710	0.145216	-0.323486	-0.138916	0.565430	-173.602255	-83.472044	-36.204080
41633		9.936426	0.581857	0.655219	0.467143	0.106328	0.134386	-0.323730	-0.140869	0.553467	-172.599187	-83.520894	-36.938731
41634		9.540040	0.770161	0.753079	0.450336	0.169814	0.127490	-0.325439	-0.139160	0.557373	-171.574751	-83.605529	-37.704462
41635		9.221694	0.923229	0.867375	0.440464	0.250061	0.116856	-0.327881	-0.125732	0.562012	-170.525574	-83.734358	-38.500626
41636		9.062212	0.997732	0.888110	0.438659	0.337341	0.116741	-0.331299	-0.136475	0.555664	-169.347860	-83.911302	-39.426876
41637		8.979390	1.028513	1.005920	0.441474	0.435715	0.122164	-0.325195	-0.136475	0.563232	-167.971822	-84.140140	-40.550557
41638		8.948826	1.030471	1.091096	0.440651	0.523328	0.131403	-0.336426	-0.135254	0.549805	-166.316141	-84.414055	-41.955252
41639		9.039726	1.052175	1.109756	0.423384	0.590063	0.147999	-0.332031	-0.128662	0.556641	-164.314355	-84.717581	-43.716839
41640		9.098905	0.947919	1.062838	0.404293	0.620192	0.159339	-0.344482	-0.122314	0.549316	-161.955934	-85.029535	-45.846619
41641		9.196014	0.958264	0.965979	0.369345	0.625295	0.172156	-0.346680	-0.121094	0.543701	-159.236042	-85.332867	-48.358212
41642		9.222924	0.985637	0.783018	0.330545	0.607892	0.173130	-0.343994	-0.117920	0.553955	-156.217301	-85.616012	-51.190877
41643		9.274261	0.958578	0.767681	0.253821	0.592172	0.173307	-0.349121	-0.119629	0.547852	-152.918089	-85.878189	-54.347777
41644		9.394262	0.970309	0.772132	0.152396	0.544022	0.138135	-0.349121	-0.128906	0.547363	-149.703115	-86.112112	-57.477559
41645		9.649130	0.960277	0.640735	0.021726	0.476187	0.081393	-0.352783	-0.119873	0.542236	-146.941477	-86.318399	-60.227159
41646		9.658130	1.148512	0.554681	-0.115271	0.394063	0.029873	-0.354492	-0.126465	0.545166	-144.768949	-86.494137	-62.464622
41647		9.492210	1.390866	0.430855	-0.214662	0.323103	0.005214	-0.361572	-0.127930	0.534912	-143.054850	-86.640716	-64.299405
41648		9.435864	1.337420	0.292299	-0.287248	0.257984	-0.012698	-0.358887	-0.124023	0.531738	-141.762668	-86.760781	-65.753069
41649		9.446290	1.121597	0.175112	-0.341988	0.222253	-0.031609	-0.361328	-0.130615	0.532959	-140.805795	-86.870337	-66.902046
41650		9.362196	0.857380	0.081947	-0.382950	0.183113	-0.066950	-0.360107	-0.131592	0.541748	-140.346428	-86.974261	-67.576291
41651		9.348426	0.611580	0.013502	-0.402447	0.162824	-0.103034	-0.359131	-0.134766	0.537354	-140.333163	-87.082704	-67.814836
41652		9.456024	0.383870	-0.048907	-0.426516	0.131900	-0.141966	-0.369385	-0.145752	0.538086	-140.885936	-87.191246	-67.500539
41653		9.445112	0.272510	-0.031603	-0.456598	0.091145	-0.170865	-0.365723	-0.148926	0.535156	-142.092595	-87.292020	-66.548755
41654		9.478813	0.234388	-0.055291	-0.487854	0.076433	-0.200213	-0.359619	-0.147217	0.529541	-143.786494	-87.394592	-65.127341
41655		9.644024	0.263101	0.021340	-0.509423	0.073484	-0.231471	-0.366455	-0.161621	0.536865	-146.001976	-87.504201	-63.196185
