// General information: 
//  MT Manager version: 2022.2.0 
//  XDA version: 2022.2.0 build 7381 rev 124627 built on 2023-07-19
// Device information: 
//  DeviceId: 00B4C223
//  ProductCode: MTW2-3A7G6
//  Firmware Version: 4.6.0
//  Hardware Version: 2.0.0
// Device settings: 
//  Filter Profile: human(46.1)
//  Option Flags: Orientation Smoother Disabled, Position/Velocity Smoother Disabled, Continuous Zero Rotation Update Disabled, AHS Disabled, ICC Disabled
// Coordinate system: ENU
PacketCounter	SampleTimeFine	Acc_X	Acc_Y	Acc_Z	Gyr_X	Gyr_Y	Gyr_Z	Mag_X	Mag_Y	Mag_Z	Roll	Pitch	Yaw
13187		-5.067689	0.683372	8.551725	-0.002769	0.000878	0.004290	-0.934814	0.190186	-0.617920	4.770713	30.677521	-69.090650
13188		-5.111106	0.662704	8.526116	-0.002437	-0.002682	0.004219	-0.937988	0.194092	-0.624512	4.770658	30.676055	-69.092150
13189		-5.081913	0.665015	8.545043	-0.004781	-0.003517	0.005129	-0.940918	0.193115	-0.625000	4.770618	30.674154	-69.090958
13190		-5.095152	0.667913	8.565334	-0.004598	0.001544	0.005444	-0.938232	0.197754	-0.623779	4.769884	30.675095	-69.090073
13191		-5.068380	0.661749	8.524956	-0.004267	-0.002016	0.005372	-0.931152	0.190918	-0.624756	4.770263	30.674039	-69.088637
13192		-5.081556	0.664599	8.545288	-0.005157	-0.001564	0.003388	-0.936523	0.197510	-0.621826	4.768439	30.673333	-69.088113
13193		-5.067156	0.648378	8.557204	-0.006987	-0.000898	0.004542	-0.926270	0.190430	-0.631348	4.767010	30.672955	-69.087166
13194		-5.052367	0.666421	8.564246	-0.004267	-0.002016	0.005373	-0.934326	0.193115	-0.625000	4.766377	30.671940	-69.084644
13195		-5.094504	0.666929	8.565796	-0.004643	-0.000063	0.003632	-0.938721	0.197021	-0.620117	4.766007	30.672083	-69.084255
13196		-5.067611	0.660653	8.525498	-0.003842	-0.003730	0.001991	-0.931396	0.191895	-0.629395	4.764394	30.670169	-69.085181
13197		-5.066215	0.681780	8.552726	-0.004598	0.001544	0.005445	-0.935791	0.188232	-0.633789	4.764709	30.671144	-69.083499
13198		-5.080550	0.697621	8.540881	-0.002768	0.000879	0.004291	-0.937744	0.188477	-0.624512	4.764675	30.671868	-69.083002
13199		-5.080815	0.663436	8.545818	-0.002438	-0.002682	0.004219	-0.932129	0.195801	-0.619385	4.765693	30.670487	-69.082368
13200		-5.094872	0.679216	8.534144	-0.005157	-0.001563	0.003389	-0.933594	0.196045	-0.623779	4.763875	30.669746	-69.083565
13201		-5.093369	0.700213	8.561447	-0.005672	-0.003064	0.003145	-0.938232	0.193604	-0.622314	4.762665	30.668199	-69.083665
13202		-5.106939	0.668830	8.586643	-0.005582	0.000150	0.006771	-0.937012	0.195801	-0.631348	4.761803	30.668280	-69.081126
13203		-5.064500	0.667994	8.585292	-0.004312	-0.003623	0.003560	-0.942627	0.187988	-0.626465	4.761498	30.666394	-69.080981
13204		-5.080638	0.675506	8.514511	-0.001547	-0.003135	0.006203	-0.944336	0.198242	-0.627441	4.762683	30.664660	-69.080006
13205		-5.078179	0.683950	8.573830	-0.004267	-0.002016	0.005373	-0.940430	0.193359	-0.628662	4.763062	30.663605	-69.078568
13206		-5.079199	0.662522	8.546850	-0.004312	-0.003622	0.003561	-0.939209	0.193848	-0.633057	4.761746	30.661687	-69.078098
13207		-5.078865	0.662354	8.547061	-0.004782	-0.003516	0.005130	-0.942383	0.182129	-0.629883	4.761706	30.659787	-69.076906
13208		-5.063975	0.680405	8.554162	-0.005157	-0.001562	0.003390	-0.938721	0.197266	-0.613037	4.759935	30.659108	-69.079287
13209		-5.078477	0.662042	8.547316	-0.001923	-0.001181	0.004463	-0.935547	0.193359	-0.625732	4.761373	30.658573	-69.078408
13210		-5.091605	0.665190	8.567654	-0.001547	-0.003135	0.006204	-0.936035	0.194092	-0.623535	4.762534	30.656755	-69.076883
13211		-5.062491	0.667411	8.586522	-0.006517	-0.001002	0.002975	-0.930664	0.192871	-0.626953	4.760841	30.656393	-69.076982
13212		-5.049986	0.676976	8.534356	-0.004642	-0.000061	0.003634	-0.936523	0.198486	-0.623291	4.759489	30.656543	-69.076314
13213		-5.063759	0.645614	8.559423	-0.003658	0.001333	0.002309	-0.933350	0.193115	-0.620361	4.759274	30.657546	-69.076726
13214		-5.106023	0.646193	8.560908	-0.003752	-0.000515	0.005618	-0.936035	0.203369	-0.627686	4.759072	30.657291	-69.074587
13215		-5.105460	0.680361	8.556158	-0.002438	-0.002682	0.004220	-0.938232	0.188232	-0.629150	4.760090	30.655911	-69.073952
13216		-5.048869	0.663659	8.566523	-0.004127	0.001439	0.003879	-0.937744	0.188721	-0.622070	4.759164	30.656908	-69.072196
13217		-5.063517	0.645144	8.559602	-0.006987	-0.000895	0.004545	-0.931885	0.197266	-0.623047	4.757736	30.656532	-69.071247
13218		-5.091870	0.676776	8.536130	-0.004267	-0.002015	0.005374	-0.937988	0.196045	-0.633545	4.757125	30.655440	-69.070840
13219		-5.062843	0.678923	8.554949	-0.004173	-0.000167	0.002065	-0.935059	0.191162	-0.630127	4.756491	30.655597	-69.071497
13220		-5.077405	0.660413	8.548079	-0.005158	-0.001561	0.003391	-0.942139	0.196289	-0.627930	4.754748	30.654940	-69.070636
13221		-5.090632	0.663281	8.568380	-0.003752	-0.000515	0.005619	-0.935303	0.193604	-0.614746	4.755547	30.654731	-69.068953
13222		-5.062576	0.678364	8.555152	-0.004173	-0.000167	0.002066	-0.934570	0.190918	-0.622314	4.753914	30.654807	-69.070416
13223		-5.076220	0.647195	8.580275	-0.001033	-0.001636	0.006448	-0.932861	0.189697	-0.624756	4.756520	30.653918	-69.068245
13224		-5.077098	0.659898	8.548301	-0.008252	0.001514	0.000822	-0.946045	0.193604	-0.622314	4.752205	30.655074	-69.071661
13225		-5.076737	0.693684	8.543469	-0.005581	0.000152	0.006774	-0.942871	0.197998	-0.624512	4.752366	30.655190	-69.069174
13226		-5.077894	0.672152	8.516413	-0.004735	-0.003273	0.000007	-0.938232	0.190674	-0.627197	4.749628	30.653571	-69.072232
13227		-5.075965	0.646117	8.580506	-0.003236	0.000985	0.005864	-0.934326	0.191406	-0.622314	4.750847	30.654206	-69.070304
13228		-5.103093	0.699136	8.584154	-0.005158	-0.001560	0.003391	-0.936279	0.187500	-0.621338	4.749095	30.653481	-69.071800
13229		-5.090884	0.674678	8.536884	-0.004268	-0.002015	0.005375	-0.932861	0.190918	-0.620605	4.749474	30.652427	-69.070362
13230		-5.075610	0.645676	8.580750	-0.005112	0.000046	0.005205	-0.930908	0.189209	-0.625244	4.748404	30.652510	-69.071550
13231		-5.089650	0.661528	8.569099	-0.003424	-0.004075	0.005545	-0.937744	0.196045	-0.618896	4.749266	30.650271	-69.070113
13232		-5.061501	0.676626	8.555925	-0.003188	0.001228	0.000741	-0.938965	0.193848	-0.625000	4.747825	30.651251	-69.072186
13233		-5.047288	0.660494	8.567699	-0.005581	0.000152	0.006775	-0.935059	0.189209	-0.626465	4.747986	30.651368	-69.069699
13234		-5.074718	0.679227	8.576254	-0.005674	-0.003060	0.003147	-0.931396	0.188232	-0.630127	4.745827	30.649802	-69.071118
13235		-5.061436	0.675958	8.556017	-0.004455	0.005001	0.003956	-0.934082	0.188232	-0.617676	4.745816	30.652820	-69.070235
13236		-5.062971	0.654442	8.528733	-0.006002	0.000501	0.003222	-0.933838	0.199707	-0.618408	4.743607	30.653297	-69.072070
13237		-5.074985	0.678425	8.576160	-0.004642	-0.000060	0.003636	-0.937012	0.188965	-0.630127	4.743238	30.653442	-69.071678
13238		-5.077183	0.669883	8.517016	-0.004173	-0.000166	0.002067	-0.935303	0.189209	-0.619873	4.741658	30.653569	-69.072065
13239		-5.089468	0.659689	8.569349	-0.006143	-0.002953	0.004717	-0.931641	0.193848	-0.616211	4.740713	30.652011	-69.071116
13240		-5.074757	0.677522	8.576366	-0.005907	0.002350	-0.000086	-0.939697	0.194824	-0.623535	4.737465	30.653629	-69.074254
13241		-5.062264	0.687250	8.524194	-0.000611	-0.003349	0.003064	-0.939941	0.189453	-0.618652	4.739120	30.651923	-69.074423
13242		-5.075826	0.655943	8.549361	-0.006987	-0.000892	0.004548	-0.939453	0.189941	-0.624023	4.736731	30.651453	-69.075687
13243		-5.089010	0.658725	8.569695	-0.004268	-0.002015	0.005376	-0.941162	0.195313	-0.625977	4.737110	30.650399	-69.074249
13244		-5.075526	0.655630	8.549563	-0.003283	-0.000621	0.004051	-0.938965	0.194336	-0.621826	4.736703	30.650147	-69.075467
13245		-5.074139	0.676725	8.576795	-0.004642	-0.000059	0.003637	-0.940918	0.189453	-0.616699	4.736334	30.650292	-69.075076
13246		-5.061266	0.639341	8.561368	-0.004126	0.001440	0.003882	-0.929932	0.192871	-0.624756	4.735422	30.651167	-69.076922
13247		-5.104429	0.652924	8.530869	-0.003283	-0.000621	0.004051	-0.937012	0.197510	-0.624268	4.735956	30.650971	-69.076286
13248		-5.089812	0.670938	8.537818	-0.007783	0.002775	0.006194	-0.934326	0.194824	-0.616211	4.733814	30.652610	-69.072382
13249		-5.089050	0.657524	8.569764	-0.006423	0.000852	-0.000330	-0.935791	0.187012	-0.622070	4.731108	30.653463	-69.074574
13250		-5.075821	0.654106	8.549505	-0.005955	0.002108	0.005038	-0.935791	0.194824	-0.618652	4.729580	30.654705	-69.074640
13251		-5.118108	0.654695	8.550985	-0.003283	-0.000621	0.004051	-0.935547	0.196289	-0.620850	4.730114	30.654509	-69.074004
13252		-5.061098	0.672088	8.556522	-0.003283	-0.000621	0.004051	-0.939209	0.194336	-0.621338	4.729704	30.654240	-69.072693
13253		-5.089930	0.669781	8.537838	-0.003752	-0.000515	0.005621	-0.943604	0.194336	-0.628906	4.730504	30.654031	-69.071009
13254		-5.074657	0.640764	8.581682	-0.003799	-0.002120	0.003806	-0.937744	0.187256	-0.634521	4.729688	30.652931	-69.071996
13255		-5.074004	0.674821	8.577025	-0.003799	-0.002120	0.003806	-0.934570	0.186279	-0.617676	4.729801	30.651890	-69.071605
13256		-5.060394	0.671673	8.556970	-0.004785	-0.003514	0.005131	-0.929932	0.193359	-0.628662	4.728863	30.649994	-69.073912
13257		-5.073548	0.674537	8.577317	-0.005581	0.000153	0.006778	-0.940186	0.192871	-0.617432	4.729026	30.650111	-69.071424
13258		-5.076247	0.631998	8.522917	-0.002298	0.000773	0.002727	-0.940918	0.194824	-0.622559	4.728805	30.650743	-69.071544
13259		-5.089016	0.669024	8.538443	-0.006144	-0.002951	0.004717	-0.938721	0.195557	-0.623779	4.727860	30.649186	-69.070594
13260		-5.074627	0.652818	8.550311	-0.005111	0.000047	0.005208	-0.946777	0.193604	-0.628418	4.726830	30.649244	-69.069860
13261		-5.074597	0.652645	8.550342	-0.005112	0.000048	0.005208	-0.940430	0.188721	-0.614258	4.726726	30.649375	-69.068420
13262		-5.087842	0.655409	8.570643	-0.004690	-0.001663	0.001823	-0.932129	0.190674	-0.623779	4.724729	30.648564	-69.073594
13263		-5.073190	0.673415	8.577617	-0.003609	0.002941	0.004129	-0.944336	0.191895	-0.622803	4.725202	30.650398	-69.072711
13264		-5.087872	0.654983	8.570658	-0.008442	-0.002177	0.007445	-0.937500	0.198242	-0.623779	4.722976	30.649103	-69.071971
13265		-5.075332	0.664799	8.518517	-0.003236	0.000985	0.005868	-0.940674	0.195801	-0.629639	4.724197	30.649738	-69.070042
13266		-5.073984	0.685954	8.545728	-0.005581	0.000154	0.006779	-0.943848	0.198486	-0.619141	4.723463	30.649833	-69.067170
13267		-5.075711	0.630352	8.523357	-0.005159	-0.001557	0.003393	-0.943115	0.191895	-0.620361	4.722673	30.649134	-69.067023
13268		-5.115134	0.673382	8.579358	-0.003283	-0.000620	0.004052	-0.937988	0.197266	-0.620605	4.722261	30.648793	-69.068873
13269		-5.074133	0.651402	8.550713	-0.002393	-0.001077	0.006036	-0.938232	0.187256	-0.623291	4.723964	30.648243	-69.066945
13270		-5.087274	0.654438	8.571054	-0.001972	-0.002787	0.002649	-0.934082	0.183838	-0.624512	4.723808	30.646816	-69.068882
13271		-5.073746	0.651469	8.550937	-0.002393	-0.001077	0.006036	-0.929199	0.194580	-0.625244	4.725511	30.646266	-69.066954
13272		-5.086974	0.654505	8.571228	-0.003752	-0.000514	0.005623	-0.942627	0.194580	-0.625000	4.725452	30.646099	-69.065204
13273		-5.073059	0.685709	8.546297	-0.001924	-0.001182	0.004466	-0.934570	0.191650	-0.620117	4.726889	30.645563	-69.064324
13274		-5.045863	0.632327	8.542660	-0.006050	-0.001099	0.001410	-0.934814	0.195801	-0.621582	4.724031	30.645158	-69.066775
13275		-5.101420	0.635935	8.564419	-0.003704	0.001091	0.007439	-0.936523	0.196045	-0.624023	4.725517	30.645780	-69.063797
13276		-5.086135	0.688360	8.566707	-0.002441	-0.002681	0.004220	-0.928711	0.191162	-0.618164	4.725643	30.644369	-69.061617
13277		-5.073165	0.651012	8.551317	-0.006470	0.000612	0.004797	-0.932617	0.188477	-0.627686	4.724637	30.644841	-69.060419
13278		-5.087837	0.632624	8.544361	-0.003283	-0.000619	0.004053	-0.936768	0.197998	-0.624268	4.724311	30.644671	-69.059544
13279		-5.101078	0.635405	8.564662	-0.006988	-0.000887	0.004551	-0.939697	0.188721	-0.622314	4.722884	30.644299	-69.058591
13280		-5.072501	0.684708	8.546708	-0.002345	0.000528	0.007853	-0.941895	0.194336	-0.630615	4.724383	30.644531	-69.056428
13281		-5.059588	0.647642	8.531259	-0.001924	-0.001182	0.004466	-0.938721	0.192627	-0.614990	4.725820	30.643995	-69.055548
13282		-5.072226	0.684667	8.546875	-0.004739	-0.003265	0.000007	-0.934814	0.191895	-0.619141	4.723179	30.642403	-69.059618
13283		-5.059116	0.647311	8.531565	-0.003380	-0.002470	0.007362	-0.938721	0.190918	-0.623291	4.724726	30.640995	-69.056887
13284		-5.085139	0.687444	8.567372	-0.004642	-0.000056	0.003640	-0.934814	0.191406	-0.625000	4.723470	30.641083	-69.058035
13285		-5.101158	0.647757	8.533219	-0.006519	-0.000992	0.002981	-0.930420	0.194580	-0.623779	4.721778	30.640726	-69.058130
13286		-5.058878	0.646727	8.531750	-0.002766	0.000880	0.004299	-0.937256	0.198730	-0.627686	4.721883	30.641402	-69.055959
13287		-5.099810	0.668482	8.560463	-0.007360	0.001071	0.002815	-0.931885	0.195068	-0.623291	4.719710	30.642231	-69.056052
13288		-5.087063	0.630966	8.544944	-0.004125	0.001443	0.003887	-0.942627	0.192139	-0.626465	4.718909	30.643238	-69.052880
13289		-5.085295	0.686357	8.567367	-0.000889	0.001815	0.004959	-0.938232	0.190918	-0.627686	4.721189	30.644390	-69.051509
13290		-5.071167	0.670444	8.579045	-0.003235	0.000985	0.005870	-0.936279	0.201172	-0.617432	4.721551	30.645007	-69.052141
13291		-5.072621	0.649174	8.551779	-0.003656	0.001338	0.002316	-0.938477	0.198730	-0.626709	4.721339	30.646011	-69.052550
13292		-5.072593	0.648942	8.551813	-0.005160	-0.001554	0.003394	-0.938477	0.197510	-0.627686	4.719664	30.645249	-69.049397
13293		-5.085896	0.651707	8.572080	-0.003656	0.001338	0.002316	-0.932129	0.190430	-0.628174	4.719452	30.646254	-69.049806
13294		-5.057926	0.666784	8.558812	-0.002766	0.000880	0.004300	-0.929932	0.191162	-0.621826	4.719573	30.646947	-69.048247
13295		-5.073564	0.661603	8.519819	-0.002766	0.000880	0.004300	-0.937256	0.184326	-0.625488	4.720530	30.647596	-69.047364
13296		-5.071412	0.669791	8.578952	-0.002717	0.002484	0.006117	-0.944092	0.195313	-0.623535	4.721330	30.649078	-69.048475
13297		-5.072944	0.648741	8.551620	-0.000889	0.001815	0.004959	-0.936279	0.187012	-0.621094	4.723611	30.650230	-69.047103
13298		-5.086721	0.699056	8.535100	-0.003235	0.000986	0.005871	-0.939453	0.187988	-0.625488	4.723954	30.650774	-69.048458
13299		-5.102048	0.646527	8.532780	-0.005015	0.001902	0.001903	-0.937500	0.190186	-0.629639	4.722839	30.652120	-69.049110
13300		-5.059343	0.679612	8.526541	-0.004643	-0.000055	0.003641	-0.935547	0.189209	-0.621582	4.721637	30.652272	-69.052327
13301		-5.072771	0.682434	8.546730	-0.003138	0.002837	0.002563	-0.934082	0.191650	-0.629639	4.721847	30.654122	-69.052491
13302		-5.087600	0.664250	8.539659	-0.001407	0.000316	0.004713	-0.925293	0.189697	-0.626953	4.722878	30.654444	-69.052659
13303		-5.073420	0.648276	8.551373	-0.002766	0.000880	0.004300	-0.930664	0.184570	-0.630371	4.723835	30.655094	-69.051776
13304		-5.087692	0.664255	8.539604	-0.005063	0.001655	0.007030	-0.937012	0.187500	-0.623047	4.723646	30.656195	-69.049004
13305		-5.045512	0.663337	8.538073	-0.002297	0.000775	0.002729	-0.927002	0.191650	-0.625000	4.724337	30.656859	-69.049170
13306		-5.073574	0.648027	8.551301	-0.004643	-0.000054	0.003641	-0.938721	0.197021	-0.621826	4.723145	30.657022	-69.049430
13307		-5.074576	0.661000	8.519263	-0.001730	0.003877	0.004794	-0.936523	0.192139	-0.616455	4.724946	30.659360	-69.048056
13308		-5.099221	0.675195	8.618784	-0.002248	0.002379	0.004547	-0.941406	0.189941	-0.629639	4.725442	30.660728	-69.047240
13309		-5.088279	0.664007	8.539273	-0.004125	0.001445	0.003888	-0.932373	0.195801	-0.617432	4.725496	30.661720	-69.046601
13310		-5.086871	0.685126	8.566530	-0.001926	-0.001182	0.004467	-0.935059	0.194336	-0.626953	4.726087	30.661134	-69.046630
13311		-5.102109	0.632753	8.564244	-0.005063	0.001656	0.007030	-0.935059	0.193848	-0.619873	4.726673	30.662098	-69.043892
13312		-5.073148	0.634968	8.583005	-0.001036	-0.001641	0.006451	-0.931641	0.196533	-0.623291	4.728440	30.661175	-69.041068
13313		-5.102910	0.645868	8.532315	-0.005953	0.002115	0.005047	-0.926514	0.189209	-0.629639	4.727858	30.662495	-69.039622
13314		-5.072618	0.668807	8.578316	-0.006051	-0.001093	0.001411	-0.939697	0.188965	-0.617432	4.725107	30.662237	-69.038338
13315		-5.100675	0.653358	8.591556	-0.004594	0.001551	0.005460	-0.936035	0.187500	-0.625977	4.725428	30.663215	-69.036649
13316		-5.086837	0.684418	8.566607	-0.005112	0.000052	0.005213	-0.941895	0.193848	-0.616211	4.724473	30.663258	-69.039806
13317		-5.088116	0.663130	8.539438	-0.004272	-0.002011	0.005379	-0.936523	0.194580	-0.624756	4.724851	30.662207	-69.038366
13318		-5.101354	0.665925	8.559742	-0.006471	0.000617	0.004800	-0.934326	0.199219	-0.618164	4.722978	30.662555	-69.038483
13319		-5.058985	0.664895	8.558333	-0.002445	-0.002680	0.004220	-0.929932	0.200684	-0.623535	4.723992	30.661176	-69.037850
13320		-5.129091	0.650560	8.573166	-0.007038	-0.001129	0.009680	-0.939209	0.189453	-0.626709	4.723427	30.660384	-69.028048
13321		-5.088493	0.675736	8.507804	-0.003235	0.000986	0.005873	-0.938721	0.199707	-0.627930	4.724650	30.661020	-69.026116
13322		-5.100799	0.665665	8.560093	-0.002963	-0.004179	0.003973	-0.941650	0.191895	-0.625977	4.724424	30.658784	-69.025980
13323		-5.129487	0.663537	8.541494	-0.004223	-0.000406	0.007198	-0.937744	0.197754	-0.627197	4.725490	30.658562	-69.023245
13324		-5.071536	0.667799	8.579034	-0.002395	-0.001077	0.006039	-0.948730	0.186768	-0.627197	4.726371	30.657983	-69.021710
13325		-5.072803	0.646588	8.551867	-0.005631	-0.001445	0.004967	-0.932861	0.194092	-0.625000	4.725846	30.657274	-69.020513
13326		-5.098706	0.686432	8.587786	-0.007039	-0.002483	0.002736	-0.934082	0.190186	-0.622803	4.722909	30.656029	-69.024592
13327		-5.085807	0.648937	8.572343	-0.005581	0.000159	0.006786	-0.937988	0.188232	-0.627441	4.723073	30.656149	-69.022099
13328		-5.057682	0.664007	8.559172	-0.003754	-0.000512	0.005627	-0.939209	0.189209	-0.625977	4.723070	30.655934	-69.023528
13329		-5.072459	0.645715	8.552137	-0.005952	0.002117	0.005050	-0.936035	0.184082	-0.616455	4.722489	30.657255	-69.022080
13330		-5.071192	0.666561	8.579334	-0.005013	0.001906	0.001906	-0.937744	0.193359	-0.622070	4.720545	30.658515	-69.028318
13331		-5.087698	0.674275	8.508395	-0.004643	-0.000052	0.003643	-0.935547	0.183838	-0.629395	4.720177	30.658664	-69.027924
13332		-5.071287	0.666122	8.579312	-0.004593	0.001552	0.005462	-0.938965	0.195801	-0.626465	4.719702	30.659637	-69.029790
13333		-5.086471	0.695163	8.535567	-0.004074	0.003050	0.005710	-0.934082	0.188721	-0.630127	4.720447	30.661459	-69.027854
13334		-5.087960	0.673965	8.508263	-0.003285	-0.000617	0.004055	-0.935791	0.196533	-0.623291	4.720203	30.661295	-69.028514
13335		-5.072286	0.678961	8.547294	-0.003285	-0.000617	0.004055	-0.938721	0.183594	-0.628906	4.720737	30.661102	-69.027877
13336		-5.101577	0.642528	8.533364	-0.003854	-0.003718	0.001989	-0.925781	0.194824	-0.624268	4.719368	30.659221	-69.031764
13337		-5.100947	0.676610	8.528730	-0.004543	0.003155	0.007282	-0.945801	0.197266	-0.623535	4.720379	30.661030	-69.028779
13338		-5.086858	0.660645	8.540381	0.000420	-0.000355	0.003556	-0.939209	0.184082	-0.623535	4.722070	30.660978	-69.026712
13339		-5.056367	0.683742	8.586485	-0.007509	-0.002376	0.004308	-0.942627	0.190186	-0.628662	4.720220	30.659768	-69.026004
13340		-5.086470	0.660354	8.540634	-0.002915	-0.002575	0.005792	-0.933594	0.195068	-0.626709	4.720701	30.658320	-69.031132
13341		-5.099627	0.663330	8.560972	-0.003285	-0.000616	0.004056	-0.931885	0.183838	-0.631592	4.721235	30.658127	-69.030495
13342		-5.099572	0.663207	8.561015	-0.005112	0.000055	0.005216	-0.935791	0.194336	-0.626465	4.720395	30.658354	-69.029521
13343		-5.071411	0.678316	8.547865	-0.002396	-0.001077	0.006040	-0.937988	0.189697	-0.618164	4.722097	30.657804	-69.027593
13344		-5.112709	0.666197	8.581364	-0.003754	-0.000511	0.005628	-0.939209	0.190430	-0.623047	4.722089	30.657528	-69.026978
13345		-5.099330	0.663084	8.561169	-0.004643	-0.000050	0.003644	-0.944092	0.191406	-0.631592	4.721721	30.657677	-69.026584
13346		-5.057001	0.662076	8.559724	-0.001927	-0.001182	0.004468	-0.928467	0.190674	-0.622803	4.722367	30.657091	-69.030996
13347		-5.084385	0.681153	8.568322	-0.003754	-0.000511	0.005628	-0.932373	0.193115	-0.623535	4.723167	30.656884	-69.029310
13348		-5.085739	0.660000	8.541096	-0.003754	-0.000511	0.005628	-0.937500	0.198242	-0.620605	4.723202	30.656705	-69.023843
13349		-5.070962	0.678101	8.548148	-0.002765	0.000882	0.004304	-0.932373	0.184326	-0.621338	4.724160	30.657356	-69.022959
13350		-5.098368	0.649748	8.593199	-0.004962	0.003512	0.003728	-0.943115	0.189941	-0.622559	4.722939	30.659470	-69.022475
13351		-5.086884	0.672793	8.508999	-0.002296	0.000777	0.002732	-0.936768	0.189697	-0.626953	4.723630	30.660135	-69.022641
13352		-5.100243	0.675601	8.529231	-0.006471	0.000622	0.004805	-0.937500	0.193359	-0.619873	4.721836	30.660546	-69.025831
13353		-5.100916	0.641330	8.533850	-0.000888	0.001813	0.004964	-0.936523	0.191895	-0.625244	4.724120	30.661697	-69.024459
13354		-5.070509	0.664525	8.579895	-0.004274	-0.002008	0.005380	-0.921875	0.189941	-0.625488	4.723702	30.660584	-69.023677
13355		-5.071921	0.643201	8.552646	-0.005013	0.001909	0.001909	-0.932373	0.194824	-0.621582	4.722590	30.661934	-69.024328
13356		-5.072021	0.643026	8.552600	-0.002765	0.000882	0.004305	-0.929443	0.191162	-0.619629	4.722807	30.662657	-69.017931
13357		-5.099615	0.662111	8.561074	-0.002246	0.002380	0.004553	-0.935059	0.191650	-0.621582	4.724189	30.664152	-69.016801
13358		-5.100521	0.675124	8.529103	-0.004644	-0.000049	0.003645	-0.940186	0.190918	-0.620605	4.723039	30.664261	-69.015610
13359		-5.072266	0.642717	8.552478	-0.005951	0.002120	0.005053	-0.928711	0.199219	-0.617432	4.722460	30.665584	-69.014162
13360		-5.086381	0.658469	8.540833	-0.007511	-0.002372	0.004309	-0.940918	0.191650	-0.626709	4.719806	30.664282	-69.011762
13361		-5.070689	0.663241	8.579888	-0.002296	0.000777	0.002733	-0.938477	0.191650	-0.614990	4.720497	30.664947	-69.011928
13362		-5.058732	0.639037	8.532416	-0.003336	-0.002218	0.002236	-0.931641	0.195801	-0.626953	4.719535	30.663803	-69.015466
13363		-5.086157	0.657992	8.541003	-0.005062	0.001659	0.007038	-0.941162	0.190186	-0.625977	4.720125	30.664768	-69.012725
13364		-5.100345	0.673943	8.529301	-0.004644	-0.000049	0.003645	-0.932861	0.199463	-0.616699	4.719001	30.664922	-69.012817
13365		-5.099460	0.660712	8.561274	-0.003755	-0.000510	0.005629	-0.938477	0.190918	-0.627197	4.719802	30.664716	-69.011130
13366		-5.084633	0.678701	8.568370	-0.004644	-0.000049	0.003645	-0.927734	0.190674	-0.626709	4.718652	30.664808	-69.009599
13367		-5.113592	0.676503	8.549620	-0.004123	0.001449	0.003894	-0.937012	0.187988	-0.628906	4.718709	30.665802	-69.008957
13368		-5.085428	0.691341	8.536499	-0.007511	-0.002371	0.004309	-0.934814	0.194336	-0.624023	4.716137	30.664672	-69.009317
13369		-5.099320	0.659994	8.561413	-0.000887	0.001813	0.004966	-0.933105	0.188477	-0.623291	4.718421	30.665823	-69.007944
13370		-5.084499	0.678185	8.568490	-0.005213	-0.001797	0.008526	-0.942383	0.196777	-0.621826	4.718577	30.664734	-69.004963
13371		-5.099093	0.659936	8.561553	-0.005164	-0.001545	0.003397	-0.932129	0.190918	-0.622070	4.717786	30.664042	-69.004815
13372		-5.071595	0.640638	8.553032	-0.004123	0.001449	0.003894	-0.938232	0.190430	-0.622559	4.717065	30.664958	-69.004679
13373		-5.070999	0.674664	8.548398	-0.004644	-0.000048	0.003646	-0.942627	0.194580	-0.623779	4.716698	30.665109	-69.004284
13374		-5.084900	0.643293	8.573307	-0.003286	-0.000615	0.004057	-0.933594	0.192383	-0.619873	4.716453	30.664821	-69.006283
13375		-5.086532	0.669494	8.509470	-0.002765	0.000882	0.004306	-0.939941	0.194824	-0.631348	4.717411	30.665472	-69.005399
13376		-5.084320	0.677409	8.568657	-0.005061	0.001660	0.007040	-0.931152	0.187744	-0.624756	4.717254	30.666427	-69.003014
13377		-5.056636	0.658020	8.560253	-0.005788	-0.006246	-0.000494	-0.940430	0.184082	-0.624268	4.714656	30.663233	-69.005706
13378		-5.083858	0.676861	8.568975	-0.003234	0.000987	0.005879	-0.932373	0.190430	-0.622559	4.715142	30.663856	-69.008575
13379		-5.098036	0.692808	8.557287	-0.006001	0.000520	0.003235	-0.937988	0.191406	-0.625977	4.713874	30.664351	-69.008422
13380		-5.084441	0.642245	8.573657	-0.003806	-0.002112	0.003809	-0.938477	0.194824	-0.620605	4.713244	30.663302	-69.009195
13381		-5.085146	0.655225	8.541817	-0.005113	0.000058	0.005219	-0.935791	0.196289	-0.629150	4.713144	30.663439	-69.007750
13382		-5.084206	0.641959	8.573818	-0.004276	-0.002007	0.005382	-0.938477	0.198730	-0.624023	4.712772	30.662358	-69.005661
13383		-5.084341	0.689328	8.537309	-0.000417	0.001707	0.003394	-0.936523	0.187744	-0.627930	4.714790	30.663523	-69.005338
13384		-5.098341	0.657934	8.562155	-0.008818	-0.000199	0.005721	-0.937988	0.193604	-0.623291	4.711992	30.663474	-69.004572
13385		-5.056908	0.669848	8.528758	-0.003234	0.000987	0.005880	-0.936035	0.197754	-0.623535	4.713217	30.664111	-69.002638
13386		-5.096862	0.678906	8.589478	0.000420	-0.000358	0.003557	-0.934082	0.190918	-0.625488	4.714959	30.664035	-69.001491
13387		-5.098228	0.657808	8.562232	-0.005165	-0.001544	0.003398	-0.937500	0.191895	-0.616943	4.714168	30.663343	-69.001343
13388		-5.070026	0.672699	8.549130	-0.005113	0.000058	0.005220	-0.937012	0.199463	-0.629150	4.713313	30.663409	-69.001242
13389		-5.112181	0.673489	8.550701	-0.005165	-0.001544	0.003398	-0.939941	0.182861	-0.615723	4.712521	30.662718	-69.001093
13390		-5.083816	0.641023	8.574119	-0.005113	0.000058	0.005220	-0.935791	0.194824	-0.624512	4.711667	30.662771	-69.002482
13391		-5.068273	0.693103	8.576662	-0.005165	-0.001543	0.003398	-0.937744	0.200684	-0.623047	4.710875	30.662080	-69.002333
13392		-5.069556	0.671690	8.549488	-0.007513	-0.002367	0.004311	-0.944580	0.188232	-0.625244	4.708283	30.660831	-68.999297
13393		-5.084168	0.653463	8.542534	-0.002866	-0.000973	0.007615	-0.935303	0.187744	-0.621582	4.710251	30.660267	-68.996317
13394		-5.082520	0.674510	8.569954	-0.003338	-0.002216	0.002237	-0.937012	0.194336	-0.619629	4.709350	30.659163	-69.002708
13395		-5.069687	0.637119	8.554425	-0.005634	-0.001438	0.004972	-0.938232	0.193359	-0.626221	4.708825	30.658458	-69.001510
13396		-5.068931	0.671092	8.549905	-0.004175	-0.000151	0.002075	-0.935547	0.193115	-0.622803	4.707450	30.658559	-69.002819
13397		-5.096991	0.655861	8.563117	-0.004224	-0.000405	0.007205	-0.936523	0.193848	-0.626465	4.708517	30.658339	-69.000082
13398		-5.082174	0.673937	8.570205	-0.002765	0.000883	0.004308	-0.934814	0.191162	-0.636230	4.708757	30.658977	-68.999265
13399		-5.097698	0.668794	8.531289	-0.007513	-0.002366	0.004312	-0.937988	0.188965	-0.626953	4.706906	30.657773	-68.998555
13400		-5.068650	0.670548	8.550115	-0.000469	0.000105	0.001573	-0.937988	0.185303	-0.622803	4.707569	30.658214	-69.002425
13401		-5.083347	0.652442	8.543101	-0.004276	-0.002006	0.005383	-0.942383	0.198975	-0.632813	4.707945	30.657165	-69.000985
13402		-5.082489	0.639363	8.575030	-0.001823	0.002021	0.008115	-0.927490	0.180420	-0.616699	4.710053	30.658270	-69.001211
13403		-5.068545	0.670624	8.550171	-0.004644	-0.000045	0.003648	-0.933838	0.193604	-0.635498	4.709687	30.658422	-69.000814
13404		-5.083321	0.652356	8.543123	-0.005113	0.000059	0.005222	-0.937256	0.194336	-0.618896	4.708917	30.658648	-69.000160
13405		-5.081738	0.673185	8.570522	-0.005165	-0.001542	0.003399	-0.939697	0.188232	-0.617920	4.708125	30.657958	-69.000012
13406		-5.068306	0.670058	8.550357	-0.003755	-0.000509	0.005633	-0.937256	0.196289	-0.626709	4.708157	30.657591	-69.000748
13407		-5.081501	0.672900	8.570685	-0.005634	-0.001437	0.004972	-0.929932	0.190918	-0.624268	4.707632	30.656886	-68.999549
13408		-5.082968	0.651622	8.543389	-0.003184	0.001242	0.000752	-0.938965	0.188232	-0.623291	4.706466	30.657941	-68.999341
13409		-5.095581	0.688765	8.559076	-0.002867	-0.000973	0.007617	-0.938232	0.196533	-0.618652	4.708435	30.657377	-68.996362
13410		-5.067923	0.669768	8.550607	-0.000624	-0.003352	0.003058	-0.940186	0.193848	-0.622803	4.709335	30.655553	-68.998570
13411		-5.067692	0.669685	8.550750	-0.005165	-0.001541	0.003400	-0.933838	0.196289	-0.616943	4.708543	30.654862	-68.998421
13412		-5.082285	0.651338	8.543817	-0.006156	-0.002933	0.004723	-0.938477	0.190918	-0.626465	4.706850	30.653205	-68.996609
13413		-5.081230	0.637973	8.575880	-0.004277	-0.002005	0.005384	-0.930664	0.187256	-0.627197	4.707226	30.652156	-68.995168
13414		-5.095145	0.654030	8.564356	-0.004277	-0.002005	0.005384	-0.940186	0.190674	-0.619141	4.706929	30.651156	-68.995874
13415		-5.052693	0.652859	8.562975	-0.003808	-0.002110	0.003810	-0.935791	0.188477	-0.624512	4.707038	30.650122	-68.995484
13416		-5.080070	0.671839	8.571617	-0.004122	0.001452	0.003899	-0.935547	0.187744	-0.627197	4.706372	30.651032	-68.998271
13417		-5.080749	0.637615	8.576191	-0.002866	-0.000973	0.007617	-0.940186	0.201904	-0.627930	4.708341	30.650467	-68.995292
13418		-5.065940	0.655621	8.583278	-0.005948	0.002126	0.005063	-0.946045	0.186035	-0.627686	4.707078	30.651802	-68.994457
13419		-5.080839	0.684748	8.539762	-0.003339	-0.002214	0.002237	-0.940674	0.195801	-0.624268	4.706921	30.650782	-68.995117
13420		-5.053384	0.665389	8.531195	-0.005479	0.002022	0.003489	-0.940674	0.192139	-0.621338	4.705361	30.652032	-69.001104
13421		-5.094920	0.653137	8.564558	-0.003233	0.000988	0.005884	-0.941162	0.188965	-0.629150	4.706588	30.652668	-68.999169
13422		-5.095736	0.666231	8.532661	-0.004644	-0.000044	0.003650	-0.938477	0.194336	-0.634521	4.705512	30.652752	-69.004028
13423		-5.080822	0.684070	8.539826	-0.005635	-0.001435	0.004974	-0.943359	0.188965	-0.628174	4.704987	30.652048	-69.002829
13424		-5.081413	0.649680	8.544462	-0.002817	-0.000718	0.002487	-0.936768	0.194092	-0.625977	4.704594	30.651900	-69.009408
13425		-5.079719	0.670485	8.571930	-0.005688	-0.003036	0.003151	-0.931396	0.187988	-0.627441	4.703377	30.650368	-69.009507
13426		-5.067736	0.646106	8.524476	-0.006054	-0.001075	0.001417	-0.934570	0.190674	-0.622314	4.700757	30.650086	-69.010094
13427		-5.080953	0.648835	8.544800	-0.003755	-0.000508	0.005634	-0.933594	0.194336	-0.626221	4.701559	30.649880	-69.008407
13428		-5.051923	0.650521	8.563607	-0.006992	-0.000866	0.004564	-0.940430	0.192627	-0.628418	4.699452	30.649527	-69.005549
13429		-5.094103	0.651313	8.565183	-0.004644	-0.000043	0.003651	-0.938232	0.185791	-0.625732	4.699086	30.649681	-69.005153
13430		-5.079900	0.634924	8.576894	-0.005635	-0.001435	0.004974	-0.934570	0.189209	-0.617676	4.697879	30.648956	-69.009126
13431		-5.078528	0.703130	8.567794	-0.004956	0.003519	0.003741	-0.934326	0.191406	-0.620605	4.697463	30.651139	-69.008476
13432		-5.052781	0.662668	8.531764	-0.005532	0.000422	0.001667	-0.933838	0.200439	-0.632813	4.695213	30.651568	-69.007647
13433		-5.093630	0.684526	8.560576	-0.003599	0.002949	0.004151	-0.936279	0.192871	-0.627197	4.695698	30.653407	-69.006755
13434		-5.052240	0.649180	8.563522	-0.003233	0.000988	0.005885	-0.931641	0.191650	-0.631348	4.696283	30.654124	-69.002787
13435		-5.122737	0.682434	8.541753	-0.005532	0.000422	0.001667	-0.930420	0.200439	-0.624512	4.694750	30.654636	-69.003682
13436		-5.066471	0.664829	8.551853	-0.005478	0.002023	0.003491	-0.935547	0.196533	-0.627930	4.693271	30.656075	-68.998148
13437		-5.079914	0.667754	8.572028	-0.001353	0.001914	0.006546	-0.935547	0.192871	-0.622559	4.695825	30.657211	-68.995723
13438		-5.081395	0.646789	8.544692	-0.003809	-0.002109	0.003811	-0.931641	0.191650	-0.621094	4.695256	30.656164	-68.994134
13439		-5.095421	0.662892	8.533109	-0.002764	0.000883	0.004312	-0.934082	0.192627	-0.616455	4.696216	30.656815	-68.993248
13440		-5.054007	0.674847	8.499703	-0.006470	0.000632	0.004815	-0.937988	0.187500	-0.625732	4.694511	30.657213	-68.990537
13441		-5.079784	0.667218	8.572147	-0.006993	-0.000864	0.004565	-0.941162	0.198242	-0.622314	4.693085	30.656855	-68.989578
13442		-5.080628	0.632667	8.576630	-0.007251	0.004299	0.006481	-0.937012	0.193359	-0.630859	4.691607	30.659269	-68.989287
13443		-5.080223	0.666516	8.571941	-0.005375	0.003881	0.000185	-0.940674	0.190430	-0.624268	4.689758	30.661826	-68.990977
13444		-5.095393	0.695650	8.528282	-0.003598	0.002949	0.004153	-0.934082	0.193359	-0.629395	4.689576	30.663650	-68.992841
13445		-5.082127	0.645090	8.544385	-0.004644	-0.000042	0.003651	-0.935547	0.200928	-0.625732	4.689210	30.663804	-68.992444
13446		-5.081488	0.679158	8.539822	-0.003598	0.002949	0.004153	-0.935059	0.194092	-0.620117	4.689044	30.665679	-68.988617
13447		-5.080809	0.665943	8.571639	-0.001407	0.000313	0.004722	-0.940918	0.195557	-0.622803	4.690905	30.665986	-68.987490
13448		-5.080856	0.665925	8.571612	-0.004121	0.001454	0.003902	-0.930664	0.193359	-0.615723	4.690260	30.666865	-68.986908
13449		-5.068243	0.675954	8.519551	-0.005690	-0.003034	0.003150	-0.936035	0.193115	-0.624512	4.689041	30.665334	-68.987006
13450		-5.095718	0.647241	8.564531	-0.006678	0.006053	0.001601	-0.938965	0.190674	-0.622070	4.686297	30.668989	-68.986415
13451		-5.095224	0.681299	8.559885	-0.001876	0.000417	0.006296	-0.939941	0.191895	-0.621094	4.688425	30.669281	-68.984237
13452		-5.053771	0.645960	8.562862	-0.004121	0.001454	0.003903	-0.935547	0.195313	-0.627930	4.687784	30.670146	-68.986867
13453		-5.110183	0.663187	8.552701	-0.002764	0.000883	0.004312	-0.938721	0.186768	-0.622070	4.688745	30.670797	-68.985980
13454		-5.082852	0.643971	8.544038	-0.004590	0.001558	0.005477	-0.937500	0.187012	-0.617920	4.688408	30.671744	-68.986646
13455		-5.066640	0.682859	8.578448	-0.003129	0.002846	0.002580	-0.935059	0.199463	-0.625000	4.688627	30.673597	-68.986803
13456		-5.095734	0.680921	8.559612	-0.005060	0.001663	0.007051	-0.934814	0.188232	-0.622314	4.688535	30.674473	-68.984263
13457		-5.083212	0.643558	8.543855	-0.003706	-0.000250	0.000504	-0.936035	0.191162	-0.623779	4.687634	30.674656	-68.985967
13458		-5.096496	0.646303	8.564139	-0.005583	0.000167	0.006800	-0.935547	0.187012	-0.624512	4.687138	30.674733	-68.985799
13459		-5.082526	0.677457	8.539340	-0.003598	0.002950	0.004154	-0.939453	0.187988	-0.619629	4.687625	30.676572	-68.984905
13460		-5.083381	0.643100	8.543789	-0.005114	0.000063	0.005226	-0.932617	0.191162	-0.624268	4.686848	30.676618	-68.988388
13461		-5.095879	0.680157	8.559586	-0.003288	-0.000612	0.004062	-0.933105	0.188965	-0.635742	4.687382	30.676427	-68.987750
13462		-5.081776	0.663908	8.571223	-0.002764	0.000884	0.004313	-0.934570	0.194580	-0.623779	4.687748	30.677202	-68.987708
13463		-5.081786	0.663773	8.571227	-0.004175	-0.000145	0.002078	-0.936523	0.197510	-0.622803	4.687114	30.677370	-68.988362
13464		-5.080894	0.697659	8.566839	-0.007517	-0.002357	0.004314	-0.937012	0.198730	-0.625732	4.684595	30.676118	-68.985395
13465		-5.082420	0.628988	8.575838	-0.004536	0.003159	0.007304	-0.928711	0.189941	-0.626465	4.685617	30.677929	-68.982399
13466		-5.097412	0.658411	8.532267	-0.002295	0.000780	0.002739	-0.940918	0.193848	-0.620850	4.685683	30.678637	-68.980235
13467		-5.095933	0.679132	8.559636	-0.007828	0.001206	0.004408	-0.936523	0.190186	-0.623047	4.683784	30.679469	-68.979268
13468		-5.068474	0.659680	8.551064	-0.003811	-0.002107	0.003811	-0.940186	0.185791	-0.627930	4.683207	30.678308	-68.981513
13469		-5.110575	0.660745	8.552655	-0.003757	-0.000508	0.005637	-0.932129	0.193848	-0.621826	4.684009	30.678103	-68.979823
13470		-5.068277	0.659472	8.551197	-0.004645	-0.000040	0.003653	-0.930420	0.187500	-0.626953	4.683000	30.678231	-68.982354
13471		-5.095639	0.678426	8.559866	-0.004645	-0.000040	0.003653	-0.938232	0.191162	-0.623535	4.682633	30.678386	-68.981956
13472		-5.068121	0.658942	8.551331	-0.007518	-0.002356	0.004315	-0.931396	0.198486	-0.629395	4.680153	30.677197	-68.983366
13473		-5.069664	0.637760	8.523958	-0.004536	0.003159	0.007305	-0.941895	0.198242	-0.622070	4.681176	30.679008	-68.980370
13474		-5.079924	0.682654	8.598967	-0.001931	-0.001183	0.004472	-0.940186	0.189209	-0.622559	4.681963	30.678447	-68.976587
13475		-5.110239	0.659868	8.552924	-0.003812	-0.002107	0.003811	-0.938721	0.196045	-0.624756	4.682071	30.677414	-68.976197
13476		-5.080404	0.695712	8.567288	-0.004645	-0.000040	0.003653	-0.941895	0.193359	-0.622803	4.681037	30.677462	-68.978644
13477		-5.109916	0.659586	8.553139	-0.003448	-0.004070	0.005543	-0.927002	0.190186	-0.621582	4.681885	30.675227	-68.977210
13478		-5.094733	0.677609	8.560470	-0.002924	-0.002575	0.005795	-0.941406	0.193115	-0.622314	4.682512	30.673779	-68.975790
13479		-5.109274	0.659580	8.553522	-0.002510	-0.004278	0.002394	-0.934326	0.194092	-0.628662	4.682825	30.671573	-68.976459
13480		-5.052547	0.642203	8.563867	-0.002091	-0.004642	0.005953	-0.930908	0.186523	-0.623047	4.683934	30.668952	-68.976098
13481		-5.079514	0.661491	8.572751	-0.004855	-0.003757	0.010268	-0.932373	0.191162	-0.625977	4.685584	30.666675	-68.971511
13482		-5.093288	0.677724	8.561321	-0.004281	-0.002002	0.005386	-0.941162	0.196533	-0.624512	4.685353	30.665673	-68.970975
13483		-5.093117	0.677729	8.561422	-0.002400	-0.001079	0.006047	-0.936035	0.194824	-0.624268	4.687055	30.665122	-68.969045
13484		-5.079581	0.674754	8.541305	-0.004805	-0.003497	0.005135	-0.943359	0.199219	-0.619141	4.686352	30.663156	-68.968018
13485		-5.065266	0.658335	8.553069	-0.005637	-0.001430	0.004978	-0.939453	0.190674	-0.622803	4.685827	30.662456	-68.966817
13486		-5.093194	0.643098	8.566344	-0.004805	-0.003497	0.005135	-0.930176	0.198730	-0.623779	4.685085	30.660372	-68.967892
13487		-5.078822	0.674255	8.541796	-0.004281	-0.002002	0.005387	-0.941162	0.190918	-0.621582	4.685460	30.659325	-68.966451
13488		-5.091891	0.677122	8.562200	-0.001517	-0.002886	0.001071	-0.946289	0.197510	-0.621826	4.685292	30.657918	-68.966685
13489		-5.050941	0.655040	8.533443	-0.001567	-0.003146	0.006205	-0.933105	0.196289	-0.632324	4.687466	30.656179	-68.964763
13490		-5.092155	0.642991	8.566970	-0.004281	-0.002002	0.005387	-0.929199	0.195313	-0.628174	4.687215	30.655103	-68.963322
13491		-5.090333	0.663743	8.594534	-0.006162	-0.002924	0.004727	-0.931885	0.191895	-0.628662	4.686263	30.653560	-68.962368
13492		-5.079078	0.652941	8.515207	-0.005274	-0.003392	0.006711	-0.936768	0.198242	-0.623779	4.685919	30.651817	-68.957124
13493		-5.090460	0.676681	8.563085	-0.004336	-0.003600	0.003561	-0.937012	0.196045	-0.622559	4.685599	30.649943	-68.956981
13494		-5.076060	0.660271	8.574890	-0.004805	-0.003496	0.005136	-0.936035	0.197510	-0.625000	4.684906	30.647985	-68.953592
13495		-5.076436	0.673364	8.543285	-0.004861	-0.005095	0.003309	-0.933594	0.189941	-0.619141	4.684159	30.645270	-68.953698
13496		-5.076131	0.673106	8.543487	-0.005168	-0.001533	0.003404	-0.935547	0.194580	-0.620605	4.682736	30.644528	-68.953278
13497		-5.075950	0.672925	8.543608	-0.004281	-0.002001	0.005388	-0.938721	0.197510	-0.625244	4.683111	30.643482	-68.951835
13498		-5.103189	0.692006	8.552364	-0.005581	0.000170	0.006807	-0.935547	0.192871	-0.621826	4.682645	30.643535	-68.948201
13499		-5.089826	0.641359	8.568476	-0.002875	-0.002313	0.000663	-0.932617	0.186279	-0.618164	4.682218	30.642532	-68.949911
13500		-5.061382	0.656213	8.555531	-0.004805	-0.003496	0.005136	-0.929932	0.187500	-0.632568	4.681533	30.640557	-68.952127
13501		-5.075202	0.672271	8.544104	-0.005637	-0.001428	0.004980	-0.934326	0.194824	-0.620605	4.681008	30.639858	-68.950924
13502		-5.089135	0.640826	8.568926	-0.004281	-0.002001	0.005388	-0.939453	0.190674	-0.618896	4.680818	30.638917	-68.950016
13503		-5.088115	0.675130	8.564602	-0.001043	-0.001652	0.006457	-0.943359	0.196777	-0.625244	4.683419	30.638021	-68.947844
13504		-5.087855	0.675175	8.564752	-0.004806	-0.003495	0.005137	-0.941650	0.188232	-0.632568	4.682709	30.635966	-68.949778
13505		-5.061097	0.669102	8.524339	-0.004644	-0.000037	0.003657	-0.934082	0.192627	-0.624268	4.682344	30.636123	-68.949378
13506		-5.073459	0.658470	8.576568	-0.005694	-0.003026	0.003153	-0.941162	0.193604	-0.622803	4.680550	30.634649	-68.953745
13507		-5.058412	0.676195	8.583830	-0.005112	0.000067	0.005233	-0.939697	0.186035	-0.631592	4.680453	30.634791	-68.952293
13508		-5.103064	0.669650	8.526091	-0.004119	0.001458	0.003910	-0.937012	0.186768	-0.625488	4.679918	30.635765	-68.958241
13509		-5.074918	0.636925	8.549281	-0.005169	-0.001531	0.003405	-0.937012	0.188232	-0.619629	4.679126	30.635080	-68.958090
13510		-5.087281	0.673860	8.565197	-0.004644	-0.000037	0.003658	-0.934570	0.191406	-0.616699	4.678147	30.635165	-68.963597
13511		-5.073940	0.670773	8.544971	-0.003287	-0.000610	0.004066	-0.934326	0.191650	-0.625244	4.678682	30.634976	-68.962958
13512		-5.088809	0.652571	8.537850	-0.005532	0.000433	0.001674	-0.935303	0.194092	-0.618164	4.676533	30.635430	-68.963645
13513		-5.072303	0.691156	8.572455	-0.004644	-0.000036	0.003658	-0.937988	0.193115	-0.621826	4.676168	30.635587	-68.963245
13514		-5.074710	0.636053	8.549470	-0.000518	-0.000158	0.006710	-0.936279	0.189941	-0.625977	4.678556	30.635401	-68.960688
13515		-5.059734	0.653947	8.556679	-0.006057	-0.001061	0.001422	-0.940430	0.197754	-0.626465	4.676597	30.635077	-68.961828
13516		-5.101004	0.689080	8.553903	-0.005637	-0.001427	0.004981	-0.937744	0.189941	-0.621826	4.675481	30.634367	-68.962791
13517		-5.072803	0.656308	8.577122	-0.004175	-0.000140	0.002083	-0.934326	0.196289	-0.622070	4.674850	30.634538	-68.963442
13518		-5.087510	0.685709	8.533791	-0.003813	-0.002104	0.003814	-0.932861	0.193115	-0.625000	4.674343	30.633437	-68.963163
13519		-5.059374	0.652963	8.556967	-0.005475	0.002032	0.003503	-0.928223	0.183594	-0.625488	4.673507	30.634782	-68.962754
13520		-5.072695	0.655739	8.577229	-0.003756	-0.000506	0.005642	-0.937744	0.200684	-0.624512	4.673771	30.634702	-68.961275
13521		-5.059997	0.665948	8.525239	-0.005695	-0.003025	0.003153	-0.942871	0.182129	-0.616699	4.672551	30.633176	-68.961373
13522		-5.086592	0.671478	8.565793	-0.006305	0.004100	0.003348	-0.937012	0.200439	-0.628418	4.670596	30.635521	-68.965984
13523		-5.074398	0.633956	8.549810	-0.005006	0.001929	0.001928	-0.941162	0.195068	-0.622070	4.669493	30.636880	-68.966626
13524		-5.086895	0.670857	8.565662	-0.004644	-0.000036	0.003659	-0.935059	0.193604	-0.627686	4.668525	30.636984	-68.965757
13525		-5.073670	0.667669	8.545374	-0.005475	0.002032	0.003504	-0.937256	0.190918	-0.624268	4.667689	30.638329	-68.965348
13526		-5.073743	0.667584	8.545338	-0.001406	0.000311	0.004727	-0.941895	0.187744	-0.620850	4.668984	30.638662	-68.965972
13527		-5.059626	0.651418	8.556936	-0.002400	-0.001080	0.006050	-0.930176	0.193115	-0.614502	4.670685	30.638112	-68.964042
13528		-5.071910	0.688505	8.572901	-0.005169	-0.001530	0.003406	-0.940186	0.187500	-0.623291	4.669248	30.637248	-68.965437
13529		-5.086688	0.670230	8.565834	-0.006994	-0.000852	0.004574	-0.940186	0.197510	-0.625732	4.667824	30.636896	-68.964474
13530		-5.087296	0.683305	8.534112	-0.003345	-0.002207	0.002238	-0.937256	0.195068	-0.623779	4.667061	30.635791	-68.970067
13531		-5.059886	0.616308	8.561750	-0.005638	-0.001426	0.004982	-0.937500	0.196533	-0.622070	4.666536	30.635092	-68.968865
13532		-5.059632	0.663641	8.525635	-0.005170	-0.001529	0.003406	-0.939697	0.187744	-0.628906	4.665140	30.634334	-68.967850
13533		-5.086172	0.669298	8.566213	-0.004118	0.001459	0.003912	-0.937744	0.194580	-0.625732	4.665204	30.635333	-68.967202
13534		-5.088049	0.648248	8.538631	-0.004423	0.005021	0.004011	-0.931885	0.192871	-0.631592	4.664667	30.638378	-68.971791
13535		-5.100112	0.671872	8.586124	-0.003954	0.004918	0.002435	-0.938721	0.197754	-0.626221	4.664420	30.641421	-68.971936
13536		-5.101989	0.650845	8.558539	-0.005055	0.001666	0.007064	-0.940430	0.190918	-0.625244	4.664494	30.642511	-68.968323
13537		-5.087200	0.668632	8.565655	-0.005943	0.002137	0.005081	-0.937988	0.194824	-0.624756	4.663926	30.643842	-68.966862
13538		-5.087388	0.668419	8.565559	-0.002655	0.002746	0.001014	-0.937744	0.195801	-0.619629	4.663295	30.645648	-68.972226
13539		-5.087462	0.668314	8.565524	-0.003757	-0.000506	0.005643	-0.924072	0.192627	-0.618164	4.664097	30.645445	-68.970535
13540		-5.101483	0.684599	8.553977	-0.003231	0.000988	0.005896	-0.942383	0.192383	-0.622559	4.664731	30.646034	-68.960959
13541		-5.074229	0.665331	8.545225	-0.004587	0.001563	0.005489	-0.940918	0.191162	-0.617920	4.665063	30.647019	-68.959258
13542		-5.061066	0.662198	8.524896	-0.005474	0.002034	0.003505	-0.940430	0.189941	-0.620361	4.663582	30.648128	-68.965018
13543		-5.073691	0.651467	8.576966	-0.006469	0.000644	0.004828	-0.937012	0.192871	-0.630127	4.662586	30.648618	-68.963806
13544		-5.101876	0.683649	8.553819	-0.005893	0.002402	-0.000054	-0.942871	0.200195	-0.630859	4.659743	30.650297	-68.970829
13545		-5.062363	0.626995	8.529094	-0.004529	0.003160	0.007319	-0.937744	0.185791	-0.625732	4.660771	30.652109	-68.967828
13546		-5.060921	0.647692	8.556453	-0.005006	0.001931	0.001930	-0.938965	0.198242	-0.623047	4.659115	30.653469	-68.975019
13547		-5.087624	0.653306	8.596938	-0.004118	0.001460	0.003913	-0.932129	0.196777	-0.627930	4.659179	30.654467	-68.974370
13548		-5.075177	0.663615	8.544795	-0.004587	0.001563	0.005489	-0.940674	0.188477	-0.619385	4.658952	30.655471	-68.969241
13549		-5.075276	0.663462	8.544748	-0.003650	0.001357	0.002337	-0.935791	0.193604	-0.627197	4.658749	30.656485	-68.969644
13550		-5.090171	0.645274	8.537592	-0.004702	-0.001631	0.001830	-0.939453	0.195557	-0.621582	4.657099	30.655724	-68.975033
13551		-5.088513	0.665886	8.565088	-0.003650	0.001357	0.002337	-0.939453	0.203125	-0.624756	4.656895	30.656738	-68.975436
13552		-5.076919	0.641848	8.517337	-0.006469	0.000644	0.004829	-0.937744	0.196533	-0.628662	4.655289	30.657099	-68.972932
13553		-5.088646	0.665610	8.565031	-0.001817	0.002010	0.008135	-0.933105	0.192871	-0.624268	4.658115	30.658216	-68.969451
13554		-5.074718	0.649151	8.576534	-0.006419	0.000910	-0.000307	-0.935303	0.194580	-0.620117	4.654879	30.659150	-68.970876
13555		-5.089571	0.678499	8.533139	-0.004587	0.001563	0.005490	-0.940186	0.187744	-0.624268	4.655211	30.660135	-68.969175
13556		-5.046845	0.663671	8.563296	-0.004421	0.005023	0.004014	-0.939697	0.194092	-0.616211	4.654641	30.663053	-68.971853
13557		-5.077794	0.640923	8.516886	-0.006304	0.004105	0.003353	-0.934326	0.196045	-0.623779	4.653336	30.665588	-68.971433
13558		-5.103018	0.667393	8.584746	-0.003592	0.002954	0.004168	-0.931885	0.198730	-0.616943	4.653211	30.667268	-68.969105
13559		-5.118900	0.662757	8.545602	-0.003592	0.002954	0.004168	-0.934814	0.192139	-0.627197	4.653704	30.669109	-68.968207
13560		-5.091711	0.643321	8.536821	-0.006470	0.000645	0.004829	-0.937744	0.196289	-0.622314	4.652140	30.669576	-68.962098
13561		-5.063616	0.658164	8.523694	-0.004530	0.003160	0.007321	-0.933838	0.194092	-0.622803	4.653169	30.671387	-68.959094
13562		-5.062256	0.678820	8.551019	-0.006304	0.004105	0.003354	-0.939209	0.192139	-0.633545	4.651285	30.673857	-68.957136
13563		-5.090664	0.663625	8.563986	-0.002763	0.000885	0.004322	-0.930420	0.191650	-0.625488	4.652248	30.674508	-68.956247
13564		-5.106416	0.658944	8.524918	-0.005474	0.002036	0.003507	-0.929443	0.200439	-0.625488	4.650922	30.676004	-68.958081
13565		-5.064264	0.657310	8.523375	-0.006001	0.000543	0.003253	-0.933350	0.194824	-0.623535	4.649658	30.676510	-68.957921
13566		-5.077620	0.659981	8.543626	-0.004119	0.001461	0.003915	-0.931396	0.188965	-0.624512	4.649192	30.677585	-68.949871
13567		-5.106665	0.658208	8.524826	-0.003650	0.001358	0.002338	-0.934570	0.189453	-0.620850	4.648988	30.678599	-68.950273
13568		-5.091076	0.662437	8.563833	-0.005532	0.000440	0.001677	-0.935303	0.195557	-0.634033	4.646909	30.679112	-68.953845
13569		-5.104368	0.665096	8.584122	-0.005583	0.000173	0.006813	-0.939941	0.194336	-0.621094	4.647081	30.679241	-68.951340
13570		-5.092686	0.641129	8.536405	-0.003707	-0.000239	0.000508	-0.930420	0.189941	-0.628662	4.645645	30.679454	-68.954380
13571		-5.092608	0.641055	8.536457	-0.002872	-0.000979	0.007628	-0.933594	0.184814	-0.628418	4.647614	30.678889	-68.951396
13572		-5.090862	0.661925	8.564000	-0.003290	-0.000609	0.004068	-0.935059	0.184814	-0.623535	4.647674	30.678884	-68.955040
13573		-5.090809	0.661782	8.564043	-0.004645	-0.000032	0.003661	-0.934570	0.196045	-0.631104	4.647310	30.679043	-68.954640
13574		-5.105717	0.643656	8.556859	-0.004645	-0.000032	0.003661	-0.939209	0.187500	-0.623291	4.646435	30.679282	-68.957634
13575		-5.091591	0.627156	8.568479	-0.003817	-0.002102	0.003813	-0.939697	0.195557	-0.625000	4.646540	30.678253	-68.957245
13576		-5.103941	0.664290	8.584439	-0.002705	0.002481	0.006154	-0.941650	0.200439	-0.628906	4.647621	30.679614	-68.961054
13577		-5.104229	0.664264	8.584270	-0.004889	0.005127	0.005595	-0.936035	0.191650	-0.627441	4.647914	30.682630	-68.959092
13578		-5.062802	0.676226	8.550901	-0.004286	-0.001999	0.005390	-0.936523	0.197754	-0.628906	4.647750	30.681592	-68.960140
13579		-5.092449	0.640342	8.536605	-0.001992	-0.002781	0.002644	-0.935059	0.203613	-0.626953	4.648485	30.680229	-68.960564
13580		-5.090571	0.661105	8.564236	-0.004286	-0.001999	0.005390	-0.933105	0.193359	-0.623291	4.648334	30.679247	-68.954028
13581		-5.104382	0.677493	8.552814	-0.000578	-0.001761	0.004882	-0.940430	0.184082	-0.619629	4.650666	30.678363	-68.952910
13582		-5.091781	0.640523	8.536990	-0.001575	-0.003151	0.006204	-0.941650	0.195801	-0.627441	4.652255	30.676488	-68.956646
13583		-5.076607	0.658386	8.544350	-0.005173	-0.001525	0.003407	-0.933350	0.195557	-0.616211	4.651461	30.675807	-68.956495
13584		-5.104762	0.643324	8.557454	-0.001407	0.000309	0.004730	-0.939941	0.184814	-0.623047	4.652731	30.675967	-68.954977
13585		-5.089660	0.661379	8.564756	-0.001575	-0.003151	0.006205	-0.935303	0.185547	-0.618652	4.654901	30.674227	-68.953056
13586		-5.075435	0.645200	8.576407	-0.002872	-0.000978	0.007629	-0.938477	0.186768	-0.627441	4.656286	30.673500	-68.959639
13587		-5.090070	0.674930	8.533124	-0.004645	-0.000031	0.003662	-0.937744	0.198975	-0.627686	4.655922	30.673659	-68.959239
13588		-5.116618	0.680576	8.573700	-0.005114	0.000072	0.005239	-0.938477	0.195801	-0.623535	4.655303	30.673822	-68.962749
13589		-5.076051	0.658303	8.544687	-0.002762	0.000886	0.004324	-0.933105	0.200928	-0.630859	4.656267	30.674474	-68.961860
13590		-5.089285	0.661098	8.565001	-0.005642	-0.001421	0.004984	-0.937744	0.198975	-0.631348	4.655224	30.673832	-68.957733
13591		-5.118017	0.659288	8.546399	-0.006169	-0.002914	0.004729	-0.931641	0.189697	-0.632813	4.654268	30.672296	-68.956780
13592		-5.102921	0.677144	8.553713	-0.002344	0.000515	0.007885	-0.934082	0.189453	-0.635254	4.656222	30.672798	-68.954789
13593		-5.090305	0.640116	8.537901	-0.002631	-0.006137	0.005695	-0.936523	0.187256	-0.626221	4.657532	30.669376	-68.953369
13594		-5.060936	0.689362	8.520651	-0.004527	0.003162	0.007327	-0.936035	0.189209	-0.620361	4.658108	30.671366	-68.957405
13595		-5.075164	0.658030	8.545235	-0.002462	-0.002677	0.004221	-0.940186	0.186279	-0.625244	4.659111	30.669990	-68.956777
13596		-5.101539	0.663938	8.585894	-0.002872	-0.000978	0.007630	-0.937988	0.197021	-0.627686	4.660513	30.669299	-68.961607
13597		-5.088031	0.661182	8.565739	-0.001576	-0.003151	0.006205	-0.929443	0.192383	-0.625977	4.662683	30.667559	-68.959689
13598		-5.074462	0.658395	8.545624	-0.003400	-0.002471	0.007376	-0.939209	0.195313	-0.623291	4.663727	30.666244	-68.954312
13599		-5.074114	0.658498	8.545823	-0.002104	-0.004644	0.005950	-0.937256	0.189697	-0.623535	4.665466	30.663664	-68.952643
13600		-5.073604	0.658426	8.546131	-0.005871	-0.006475	0.004627	-0.936523	0.193359	-0.625732	4.663983	30.659985	-68.955904
13601		-5.099330	0.711847	8.550946	-0.002632	-0.006137	0.005695	-0.931152	0.197266	-0.623779	4.665292	30.656563	-68.954486
13602		-5.072557	0.658369	8.546757	-0.003928	-0.003963	0.007121	-0.938477	0.200684	-0.626465	4.665886	30.654350	-68.948046
13603		-5.073060	0.624169	8.551324	-0.002632	-0.006136	0.005696	-0.940674	0.184814	-0.621582	4.667194	30.650929	-68.946628
13604		-5.112153	0.680640	8.576358	-0.003459	-0.004066	0.005544	-0.941406	0.199219	-0.626221	4.667473	30.648578	-68.950874
13605		-5.055388	0.662911	8.586648	-0.004097	-0.007423	0.008596	-0.937256	0.193115	-0.620850	4.668888	30.644286	-68.947601
13606		-5.070509	0.658578	8.547956	-0.002104	-0.004643	0.005951	-0.939697	0.201904	-0.623047	4.670059	30.641578	-68.948161
13607		-5.083346	0.661600	8.568488	-0.001635	-0.004746	0.004374	-0.944336	0.193848	-0.623291	4.671529	30.639012	-68.947546
13608		-5.082997	0.661723	8.568686	-0.004336	-0.002264	0.010533	-0.936768	0.188232	-0.619629	4.673013	30.637377	-68.946941
13609		-5.097738	0.643882	8.561598	-0.004286	-0.001995	0.005394	-0.937256	0.197510	-0.622070	4.673386	30.636335	-68.945499
13610		-5.082519	0.661548	8.568983	-0.005702	-0.003013	0.003155	-0.933594	0.199951	-0.627930	4.671592	30.634684	-68.946097
13611		-5.083933	0.640680	8.541654	-0.001575	-0.003151	0.006206	-0.939453	0.196045	-0.626953	4.673761	30.632944	-68.944179
13612		-5.095019	0.712166	8.553489	-0.003757	-0.000502	0.005649	-0.939941	0.192139	-0.623291	4.674069	30.632809	-68.941276
13613		-5.066904	0.679355	8.576590	-0.004286	-0.001995	0.005394	-0.932617	0.187744	-0.626221	4.674442	30.631766	-68.939834
13614		-5.082216	0.674923	8.537805	-0.002633	-0.006135	0.005696	-0.937500	0.198975	-0.628662	4.675241	30.628351	-68.942609
13615		-5.081024	0.661513	8.569872	-0.003928	-0.003962	0.007123	-0.940674	0.199707	-0.625977	4.676349	30.626104	-68.940126
13616		-5.082371	0.640834	8.542572	0.001185	-0.004038	0.001880	-0.933105	0.189941	-0.620361	4.678099	30.624060	-68.942296
13617		-5.079189	0.696001	8.566072	-0.002633	-0.006135	0.005697	-0.935547	0.194092	-0.631104	4.679406	30.620639	-68.940878
13618		-5.093773	0.678373	8.559067	-0.000159	-0.002133	0.008446	-0.937256	0.191162	-0.625244	4.682691	30.619459	-68.937411
13619		-5.051253	0.677070	8.557662	-0.004815	-0.003486	0.005140	-0.937256	0.192871	-0.620117	4.682633	30.617577	-68.936219
13620		-5.094146	0.644344	8.563701	-0.000220	-0.003728	0.006613	-0.941406	0.191650	-0.625732	4.685163	30.615411	-68.936666
13621		-5.078845	0.662389	8.571096	-0.002931	-0.002572	0.005802	-0.935303	0.185791	-0.615967	4.686433	30.614020	-68.934986
13622		-5.092539	0.678904	8.559759	-0.002043	-0.003047	0.007785	-0.937012	0.193359	-0.621582	4.688310	30.612117	-68.938055
13623		-5.063898	0.693869	8.546921	-0.005812	-0.004875	0.006464	-0.935547	0.182861	-0.622070	4.688089	30.609379	-68.936061
13624		-5.077815	0.662422	8.571704	-0.001527	-0.002881	0.001068	-0.937988	0.193848	-0.628174	4.688030	30.607971	-68.941370
13625		-5.078288	0.676095	8.540049	-0.001095	-0.001927	0.011602	-0.939697	0.196777	-0.627686	4.692329	30.606676	-68.935807
13626		-5.092848	0.658400	8.533073	-0.004051	-0.007151	0.003459	-0.934814	0.190918	-0.628174	4.691557	30.602824	-68.940944
13627		-5.050955	0.670376	8.499942	-0.002401	-0.001079	0.006057	-0.943604	0.193604	-0.619385	4.693258	30.602272	-68.939015
13628		-5.088715	0.699973	8.588489	-0.003460	-0.004063	0.005547	-0.942627	0.197510	-0.623535	4.693569	30.599962	-68.943358
13629		-5.090139	0.679208	8.561162	-0.002930	-0.002571	0.005802	-0.942627	0.196289	-0.625732	4.694839	30.598571	-68.941679
13630		-5.077590	0.642072	8.545321	-0.003928	-0.003960	0.007126	-0.943115	0.192871	-0.621826	4.695397	30.596178	-68.947542
13631		-5.060487	0.680786	8.580265	-0.001108	-0.003253	0.004630	-0.946533	0.196289	-0.623535	4.697296	30.594452	-68.946678
13632		-5.089743	0.692734	8.530041	-0.005875	-0.006468	0.004632	-0.942139	0.194580	-0.623047	4.695790	30.590637	-68.959392
13633		-5.073599	0.697189	8.569287	-0.000158	-0.002133	0.008447	-0.938232	0.195313	-0.618164	4.699553	30.589371	-68.955935
13634		-5.088331	0.679637	8.562203	-0.001575	-0.003150	0.006209	-0.937500	0.187256	-0.617432	4.701150	30.587445	-68.957102
13635		-5.059662	0.694594	8.549371	-0.003522	-0.005658	0.003715	-0.939697	0.191162	-0.626465	4.701289	30.584389	-68.956977
13636		-5.102331	0.661771	8.555581	-0.003165	-0.007625	0.005444	-0.937744	0.198730	-0.629883	4.701639	30.580040	-68.961113
13637		-5.073511	0.676756	8.542836	-0.002105	-0.004641	0.005954	-0.937012	0.196777	-0.627930	4.703374	30.577459	-68.959448
13638		-5.072950	0.676800	8.543166	-0.002697	-0.007728	0.003866	-0.941895	0.198242	-0.624268	4.703547	30.573347	-68.962227
13639		-5.043221	0.678384	8.562294	-0.000922	-0.008679	0.007833	-0.932373	0.187744	-0.622559	4.706482	30.568372	-68.959536
13640		-5.086359	0.659203	8.536880	-0.004225	-0.010608	0.004935	-0.939209	0.192627	-0.625977	4.706000	30.562428	-68.959399
13641		-5.068505	0.697812	8.572250	-0.002045	-0.013257	0.005491	-0.938965	0.186279	-0.630371	4.707374	30.554949	-68.958512
13642		-5.097587	0.662272	8.558370	-0.002277	-0.008100	0.007429	-0.941895	0.189453	-0.627686	4.708977	30.550419	-68.967867
13643		-5.052752	0.681513	8.584764	-0.005581	-0.010028	0.004531	-0.937256	0.189209	-0.619141	4.708091	30.544829	-68.967441
13644		-5.052228	0.681292	8.585090	-0.006106	-0.001308	0.006574	-0.937988	0.191162	-0.626465	4.707337	30.544074	-68.973522
13645		-5.024852	0.648189	8.607717	-0.010864	0.015902	0.011175	-0.943604	0.199219	-0.622314	4.706382	30.552978	-68.967275
13646		-5.013881	0.644693	8.586133	-0.015339	0.038437	0.010998	-0.937500	0.190430	-0.631348	4.702924	30.574687	-68.968416
13647		-5.101621	0.646811	8.587464	-0.018050	0.039599	0.010192	-0.941650	0.192871	-0.622559	4.698182	30.597170	-68.961528
13648		-5.106958	0.686155	8.490319	-0.020466	0.037199	0.009279	-0.940430	0.195068	-0.622803	4.691219	30.618338	-68.967140
13649		-5.066315	0.656722	8.550585	-0.014161	0.034405	0.012888	-0.941162	0.187256	-0.625977	4.689476	30.637730	-68.958748
13650		-5.097923	0.654730	8.530324	-0.013930	0.029249	0.010948	-0.943604	0.186768	-0.620361	4.686545	30.654143	-68.965025
13651		-5.100398	0.653964	8.528903	-0.016639	0.030412	0.010140	-0.938721	0.197266	-0.622314	4.682346	30.671383	-68.958673
13652		-5.101077	0.674067	8.555056	-0.011222	0.028092	0.011765	-0.928711	0.190674	-0.623535	4.681153	30.686975	-68.961546
13653		-5.105482	0.666521	8.494560	-0.010636	0.020966	0.011549	-0.928467	0.181885	-0.628662	4.680612	30.698756	-68.954772
13654		-5.079111	0.633521	8.516654	-0.005811	0.015557	0.011080	-0.930176	0.193604	-0.630371	4.682141	30.707735	-68.931035
13655		-5.077285	0.688615	8.539401	-0.004695	0.009921	0.011120	-0.940674	0.188232	-0.630371	4.684554	30.713229	-68.925145
13656		-5.108470	0.666766	8.492744	-0.001286	0.003498	0.008408	-0.937256	0.188965	-0.620361	4.687413	30.715322	-68.929212
13657		-5.106268	0.674505	8.551924	0.002307	0.001858	0.011205	-0.936035	0.194580	-0.623779	4.693643	30.716207	-68.923705
13658		-5.135095	0.673661	8.533176	-0.002525	-0.002946	0.009363	-0.927002	0.195068	-0.625977	4.695800	30.714298	-68.919206
13659		-5.092231	0.672598	8.532019	0.003122	-0.010429	0.009041	-0.938232	0.193604	-0.624023	4.701421	30.708267	-68.915807
13660		-5.089369	0.693892	8.560198	0.000175	-0.014322	0.007864	-0.931152	0.189941	-0.619141	4.704377	30.700132	-68.904616
13661		-5.104890	0.655927	8.526064	0.003883	-0.014096	0.007354	-0.943848	0.192871	-0.619873	4.709758	30.692086	-68.902539
13662		-5.088566	0.674338	8.534068	0.001998	-0.015005	0.006692	-0.930420	0.201416	-0.625244	4.713232	30.683333	-68.900794
13663		-5.071472	0.679122	8.573908	0.003759	-0.017284	0.003683	-0.931885	0.193359	-0.621582	4.717207	30.673639	-68.901332
13664		-5.086739	0.641067	8.539954	0.000466	-0.017884	0.007758	-0.935303	0.195313	-0.621338	4.720191	30.663486	-68.884377
13665		-5.097276	0.678728	8.556953	0.002289	-0.018568	0.006585	-0.934082	0.189697	-0.621582	4.724270	30.652922	-68.883060
13666		-5.095430	0.679179	8.558016	0.003454	-0.023932	0.001484	-0.938477	0.189941	-0.630127	4.726631	30.639474	-68.881872
13667		-5.081466	0.642596	8.542978	0.005998	-0.018341	0.006075	-0.934814	0.192139	-0.620117	4.732667	30.629064	-68.880882
13668		-5.076922	0.698231	8.567234	0.002758	-0.018669	0.005009	-0.935059	0.194580	-0.624023	4.736010	30.618530	-68.885181
13669		-5.061402	0.682347	8.579601	0.005112	-0.017862	0.004092	-0.938477	0.186768	-0.624023	4.740881	30.608487	-68.885483
13670		-5.076796	0.644425	8.545616	0.004289	-0.015789	0.003944	-0.937988	0.178223	-0.624512	4.744813	30.599627	-68.889573
13671		-5.046077	0.694064	8.529078	0.003467	-0.013717	0.003796	-0.942383	0.195313	-0.622070	4.748757	30.591965	-68.889846
13672		-5.072608	0.666127	8.574499	-0.000113	-0.010752	0.007980	-0.927734	0.191406	-0.619873	4.751646	30.585697	-68.899538
13673		-5.086582	0.648754	8.567863	0.003934	-0.013820	0.002217	-0.934326	0.193604	-0.635742	4.755321	30.578051	-68.900865
13674		-5.027350	0.699653	8.569738	0.001129	-0.004310	0.007021	-0.932129	0.192627	-0.626953	4.758905	30.575881	-68.891515
13675		-4.989028	0.609231	8.549111	0.002773	0.000432	0.002645	-0.935791	0.183838	-0.614746	4.762460	30.576353	-68.891772
13676		-5.086491	0.663379	8.536478	-0.000693	0.005262	0.003522	-0.942627	0.193359	-0.625000	4.763979	30.579535	-68.887991
13677		-5.056824	0.699184	8.550675	0.001193	0.006171	0.004183	-0.931396	0.194092	-0.617920	4.767308	30.583211	-68.886911
13678		-5.101843	0.632769	8.560364	0.004434	0.006500	0.005249	-0.938721	0.182861	-0.624756	4.772357	30.586941	-68.884465
13679		-5.044603	0.697179	8.529696	0.001661	0.006068	0.002603	-0.940430	0.181641	-0.622314	4.775419	30.590632	-68.884438
13680		-5.102805	0.633723	8.559720	0.002498	0.005321	0.009731	-0.943115	0.196045	-0.624756	4.780862	30.593486	-68.893492
13681		-5.071192	0.690468	8.601522	-0.002161	0.003979	0.006425	-0.937744	0.190674	-0.628906	4.782966	30.595803	-68.891046
13682		-5.087255	0.686623	8.562285	0.005256	0.004428	0.005398	-0.937988	0.193848	-0.632080	4.788514	30.598398	-68.899141
13683		-5.073733	0.670792	8.573470	0.001612	0.005799	0.007747	-0.940918	0.185547	-0.625732	4.793278	30.601690	-68.895716
13684		-5.076004	0.650586	8.545620	0.001612	0.005799	0.007748	-0.939941	0.192383	-0.619141	4.797608	30.605034	-68.904621
13685		-5.088623	0.688277	8.561339	0.000790	0.007872	0.007599	-0.938477	0.190430	-0.624023	4.801911	30.609516	-68.901179
13686		-5.060241	0.690084	8.579667	0.003080	0.007082	0.004845	-0.939697	0.192871	-0.626709	4.806045	30.613538	-68.903126
13687		-5.034382	0.684736	8.538660	0.003145	0.008677	0.006681	-0.938721	0.196777	-0.626953	4.811410	30.618523	-68.900247
13688		-5.063599	0.670445	8.551129	-0.001724	0.013822	0.012296	-0.935059	0.187744	-0.622559	4.815560	30.626156	-68.900066
13689		-5.050865	0.654366	8.561885	0.001617	0.014687	0.003075	-0.940186	0.193604	-0.613281	4.819003	30.634746	-68.899243
13690		-5.079684	0.674200	8.569678	0.000232	0.025215	0.010121	-0.941406	0.192139	-0.619141	4.823775	30.648808	-68.889509
13691		-5.067239	0.705856	8.543959	-0.001250	0.022607	0.006045	-0.928223	0.189941	-0.627686	4.826808	30.661776	-68.886270
13692		-5.085442	0.654098	8.539739	-0.001655	0.024308	0.009462	-0.934326	0.189941	-0.626709	4.830337	30.675539	-68.877355
13693		-5.072358	0.672284	8.545791	-0.000302	0.023727	0.009869	-0.941650	0.194824	-0.619629	4.835243	30.688961	-68.871511
13694		-5.089579	0.655070	8.537199	0.001296	0.028201	0.010642	-0.935303	0.194092	-0.633545	4.840944	30.704788	-68.867224
13695		-5.061205	0.677716	8.582064	-0.000527	0.028890	0.011817	-0.941406	0.198242	-0.624512	4.846535	30.721063	-68.859792
13696		-5.079475	0.674005	8.541428	0.000187	0.033843	0.010605	-0.937744	0.190674	-0.626221	4.851806	30.740218	-68.858862
13697		-5.109460	0.694206	8.548440	0.002486	0.034381	0.014837	-0.936279	0.191406	-0.626221	4.860316	30.759480	-68.849106
13698		-5.098959	0.692131	8.526437	0.000130	0.033579	0.015755	-0.927734	0.194336	-0.624756	4.867281	30.778181	-68.842969
13699		-5.101687	0.692994	8.524735	0.001953	0.032894	0.014585	-0.928711	0.189697	-0.623047	4.875367	30.796604	-68.833455
13700		-5.075588	0.695102	8.541804	-0.000691	0.035658	0.015611	-0.931641	0.194580	-0.617676	4.881910	30.816617	-68.808498
13701		-5.107523	0.694538	8.521114	-0.001982	0.037840	0.017044	-0.936523	0.197510	-0.625977	4.888734	30.837742	-68.797059
13702		-5.096921	0.678853	8.530644	-0.001859	0.041037	0.020724	-0.942383	0.187500	-0.626709	4.896444	30.860353	-68.777508
13703		-5.112452	0.716957	8.544528	-0.003151	0.043221	0.022158	-0.936035	0.183594	-0.628174	4.904515	30.884296	-68.762348
13704		-5.103565	0.666741	8.558047	-0.009913	0.046142	0.020123	-0.931885	0.192139	-0.630615	4.907604	30.909863	-68.760909
13705		-5.092839	0.698585	8.531244	-0.003850	0.048498	0.025699	-0.929443	0.190918	-0.624512	4.916658	30.936642	-68.743079
13706		-5.111977	0.681550	8.521415	-0.009259	0.050838	0.024070	-0.939941	0.195068	-0.622803	4.921667	30.964838	-68.722892
13707		-5.116781	0.695718	8.486961	-0.006247	0.056333	0.027106	-0.926514	0.186279	-0.626953	4.930086	30.996017	-68.703657
13708		-5.109116	0.645860	8.499758	-0.006473	0.061505	0.029066	-0.932617	0.187500	-0.619385	4.938692	31.029899	-68.683248
13709		-5.139869	0.686955	8.532699	-0.007102	0.067053	0.027461	-0.927246	0.188965	-0.621826	4.947094	31.067174	-68.663135
13710		-5.105051	0.665316	8.500385	-0.007803	0.072335	0.031005	-0.924072	0.190918	-0.628174	4.955934	31.107072	-68.636003
13711		-5.109577	0.686926	8.524172	-0.009381	0.078098	0.032563	-0.932861	0.191406	-0.631348	4.965159	31.150394	-68.611818
13712		-5.035362	0.629188	8.494074	-0.010264	0.097454	0.033414	-0.922607	0.188721	-0.632813	4.974304	31.204695	-68.585108
13713		-5.027648	0.654780	8.555328	-0.013061	0.124548	0.034097	-0.925781	0.195557	-0.626465	4.983415	31.274447	-68.557153
13714		-4.972745	0.552042	8.578850	-0.014143	0.159336	0.039281	-0.933105	0.190430	-0.619873	4.994332	31.363775	-68.518707
13715		-4.970326	0.625464	8.600650	-0.014862	0.209727	0.042084	-0.916992	0.194824	-0.627197	5.007918	31.481737	-68.480338
13716		-4.979975	0.567931	8.545348	-0.021986	0.268444	0.038128	-0.925537	0.190918	-0.632324	5.017374	31.633113	-68.437193
13717		-4.909215	0.499751	8.576441	-0.023438	0.340213	0.038681	-0.917236	0.195801	-0.626465	5.029162	31.825709	-68.393231
13718		-4.899460	0.504360	8.615960	-0.032183	0.448443	0.033987	-0.915771	0.187500	-0.630615	5.037306	32.080047	-68.343807
13719		-4.881576	0.620498	8.586039	-0.055586	0.575552	0.024082	-0.908203	0.196777	-0.630371	5.033377	32.407688	-68.295409
13720		-4.835559	0.360572	8.784859	-0.070680	0.725151	0.022365	-0.910400	0.191895	-0.634033	5.024732	32.820507	-68.235956
13721		-4.799013	0.256981	8.988505	-0.081169	0.881481	0.030325	-0.894043	0.196777	-0.637939	5.019242	33.322455	-68.164636
13722		-4.697677	0.217738	9.479856	-0.094273	1.043915	0.052630	-0.887939	0.198730	-0.636719	5.020342	33.915777	-68.067291
13723		-5.077487	0.089150	9.395446	0.055282	1.208863	0.046846	-0.879883	0.199219	-0.638428	5.112794	34.603687	-67.963057
13724		-5.454140	0.887326	9.691422	0.149799	1.294620	0.043478	-0.875488	0.197998	-0.643066	5.263162	35.340329	-67.853508
13725		-4.691250	2.731031	12.376964	-0.074718	1.325206	0.029339	-0.858887	0.194336	-0.651367	5.283402	36.095223	-67.749101
13726		-4.458782	2.824312	12.465482	-0.012423	1.454612	-0.071808	-0.855713	0.202148	-0.653809	5.303121	36.928946	-67.707116
13727		-5.331343	2.107927	11.269971	-0.182882	1.651324	-0.179888	-0.831543	0.193848	-0.658936	5.186745	37.880910	-67.729649
13728		-4.983265	2.400549	12.091091	-0.261004	1.818878	-0.293968	-0.824951	0.195557	-0.659424	4.977617	38.933733	-67.828760
13729		-4.743567	1.889913	12.206216	-0.348972	2.069324	-0.402573	-0.804199	0.205811	-0.656494	4.670908	40.134918	-67.999759
13730		-4.489820	1.777029	12.243028	-0.353354	2.404810	-0.494886	-0.786865	0.199951	-0.664795	4.317640	41.530379	-68.233662
13731		-4.449188	1.826636	11.749965	-0.391503	2.815164	-0.558829	-0.756592	0.206299	-0.675781	3.908159	43.162492	-68.511611
13732		-4.625919	1.356201	11.550019	-0.411505	3.266934	-0.614331	-0.735840	0.213135	-0.668945	3.448317	45.052376	-68.836808
13733		-5.054653	1.339827	11.468627	-0.382071	3.745422	-0.654981	-0.697266	0.206299	-0.679443	2.964666	47.216285	-69.206816
13734		-6.401141	1.819782	11.817624	-0.422828	4.334251	-0.760149	-0.670654	0.205566	-0.671631	2.361224	49.716244	-69.692506
13735		-8.830522	1.363025	12.192673	-0.630246	4.931637	-0.935594	-0.626221	0.221436	-0.682617	1.451618	52.558436	-70.399305
13736		-12.018385	0.305979	12.019479	-0.962788	4.953285	-0.857800	-0.585693	0.219482	-0.678223	0.282405	55.402371	-71.165866
13737		-11.611998	-2.369342	10.606269	-1.364283	4.720986	-0.606336	-0.543945	0.229492	-0.661621	-1.058013	58.105094	-71.836103
13738		-11.174347	-4.218507	9.092082	-1.437891	4.434856	-0.181944	-0.506104	0.240723	-0.656250	-2.180468	60.640650	-72.186180
13739		-8.408946	-4.145152	8.677183	-1.281191	3.755889	0.235802	-0.480713	0.245117	-0.652832	-2.840151	62.796577	-72.104010
13740		-7.004302	-2.097069	8.898917	-1.171421	2.853342	0.614647	-0.463379	0.249268	-0.658203	-2.971519	64.445530	-71.504678
13741		-3.680126	-0.477662	10.214943	-1.076021	1.830473	0.892176	-0.446289	0.258545	-0.645264	-2.605040	65.518093	-70.422249
13742		0.489832	0.764612	12.450575	-1.224686	1.018365	1.176007	-0.429932	0.270020	-0.642090	-1.860635	66.125476	-68.840443
13743		-4.701883	1.136833	11.493713	-1.339839	0.360874	1.555862	-0.419678	0.266846	-0.631836	-0.615903	66.351658	-66.643973
13744		-2.656568	0.711393	12.200885	-1.497667	-0.545273	1.662979	-0.429932	0.270752	-0.640625	0.682125	66.036233	-64.290969
13745		-0.608263	-0.700437	11.335816	-1.524285	-1.311346	1.719290	-0.430420	0.285645	-0.640869	1.945060	65.262599	-61.948454
13746		1.214135	-1.543971	10.797801	-1.424772	-1.781397	1.708077	-0.443359	0.289551	-0.641357	3.101302	64.196860	-59.771040
13747		1.542183	-2.179800	10.105737	-1.215402	-2.074039	1.645856	-0.461914	0.300537	-0.643555	4.146194	62.951451	-57.829051
13748		0.983725	-2.071243	9.526451	-0.982534	-2.292398	1.525837	-0.468506	0.292480	-0.647461	5.036718	61.568903	-56.190891
13749		0.118997	-1.666693	9.180716	-0.775721	-2.522660	1.321891	-0.485352	0.298584	-0.653076	5.699222	60.059295	-54.925448
13750		-0.711596	-1.171379	8.955321	-0.636354	-2.771589	1.056898	-0.496582	0.303223	-0.658447	6.069398	58.413992	-54.074437
13751		-1.369509	-0.790213	8.880166	-0.577082	-3.010065	0.748304	-0.520752	0.299561	-0.657715	6.120371	56.653956	-53.624638
13752		-1.978228	-0.552134	8.933145	-0.567046	-3.202250	0.414761	-0.542480	0.316895	-0.663330	5.857997	54.800546	-53.553074
13753		-2.804079	-0.553435	8.909983	-0.581527	-3.383973	0.082264	-0.571777	0.315186	-0.661621	5.330077	52.866684	-53.796807
13754		-3.435766	-0.762899	8.824800	-0.558189	-3.541995	-0.208109	-0.594482	0.325928	-0.667725	4.631705	50.851055	-54.282239
13755		-3.811502	-0.794454	8.724256	-0.493705	-3.684908	-0.462561	-0.625488	0.322510	-0.670654	3.851076	48.765445	-54.936440
13756		-4.354890	-0.698870	8.751806	-0.424314	-3.789558	-0.685614	-0.660400	0.331543	-0.676758	3.031614	46.617120	-55.719968
13757		-5.026750	-0.774540	8.750153	-0.347481	-3.866956	-0.872324	-0.684326	0.337402	-0.688721	2.220861	44.426976	-56.579950
13758		-6.026514	-0.884357	8.765125	-0.247695	-3.922466	-1.043283	-0.721680	0.331299	-0.688232	1.446143	42.195021	-57.506776
13759		-7.067984	-0.895005	8.755212	-0.117024	-3.988981	-1.219508	-0.760254	0.330322	-0.678711	0.733125	39.923369	-58.493197
13760		-8.005173	-0.933322	8.810136	0.039972	-4.068285	-1.394402	-0.794189	0.333496	-0.680664	0.099802	37.593316	-59.545914
13761		-8.736724	-0.768023	8.609241	0.214703	-4.162898	-1.564661	-0.832275	0.329590	-0.675049	-0.432315	35.205667	-60.653232
13762		-9.040005	-0.276946	8.379505	0.379760	-4.239727	-1.742637	-0.875244	0.324707	-0.674072	-0.869811	32.760322	-61.829968
13763		-9.624677	0.549803	8.285930	0.514558	-4.275340	-1.899859	-0.918213	0.319824	-0.663330	-1.214347	30.291403	-63.056516
13764		-10.595897	0.896193	8.098810	0.559623	-4.293694	-1.990876	-0.957275	0.304199	-0.657471	-1.494837	27.800179	-64.299884
13765		-11.863361	1.046805	7.707233	0.583150	-4.248654	-1.998688	-0.997070	0.295898	-0.646484	-1.698059	25.334973	-65.505826
13766		-13.500573	0.302350	6.974049	0.648990	-4.176675	-1.935582	-1.030518	0.287598	-0.623535	-1.789476	22.904780	-66.645513
13767		-14.559101	-0.761792	5.982690	0.845751	-4.054603	-1.766884	-1.070557	0.266846	-0.603027	-1.678735	20.552178	-67.660965
13768		-14.975069	-1.221762	4.825196	1.091074	-3.811699	-1.496699	-1.098633	0.258789	-0.587402	-1.335133	18.342571	-68.513604
13769		-14.989291	-0.931429	3.601538	1.252991	-3.446108	-1.167387	-1.129883	0.243408	-0.576172	-0.812983	16.356061	-69.177280
13770		-14.725036	-0.303038	2.457683	1.191478	-2.941828	-0.836252	-1.164795	0.233154	-0.557617	-0.257863	14.663022	-69.662095
13771		-14.574579	0.039513	1.476994	0.960061	-2.370732	-0.553050	-1.170898	0.231689	-0.543457	0.215105	13.304773	-69.989949
13772		-14.598173	-0.169599	0.812794	0.656178	-1.821193	-0.317495	-1.188965	0.223633	-0.535889	0.549348	12.260242	-70.187057
13773		-14.482073	-0.652333	0.389008	0.401404	-1.298110	-0.115938	-1.201904	0.219482	-0.521484	0.765282	11.517510	-70.265470
13774		-14.077567	-1.308676	0.329488	0.212385	-0.782684	0.064963	-1.203125	0.218262	-0.527100	0.894260	11.067072	-70.237091
13775		-13.798115	-1.587544	0.591467	0.071056	-0.251728	0.216551	-1.207520	0.218994	-0.533691	0.960373	10.921079	-70.114900
13776		-7.520189	-4.136243	5.892462	0.242445	0.230387	0.281108	-1.204834	0.220703	-0.527344	1.132091	11.049386	-69.950914
13777		-1.023452	-7.898005	0.771423	1.467359	2.110655	0.276134	-1.189453	0.214111	-0.543457	2.014050	12.254140	-69.757352
13778		0.548825	1.914956	10.080751	1.644248	2.055779	0.447318	-1.173340	0.208008	-0.551514	3.026988	13.419115	-69.444120
13779		5.160491	8.344433	14.799664	0.830394	2.752464	-0.362501	-1.157959	0.206299	-0.569092	3.474579	15.005696	-69.567595
13780		-0.481826	2.485719	7.115240	0.170104	3.189489	-1.157170	-1.138428	0.194824	-0.581543	3.415227	16.868922	-70.144325
13781		-5.301871	1.129984	7.750571	0.096917	3.480072	-1.323517	-1.116943	0.196289	-0.596191	3.265445	18.903979	-70.819542
13782		-10.087092	3.489848	10.455738	0.150995	3.351525	-1.099387	-1.090576	0.190430	-0.619141	3.164255	20.855824	-71.376491
13783		-10.985767	4.745368	10.891558	0.076745	3.082516	-0.627390	-1.072266	0.184570	-0.637207	3.104960	22.639288	-71.660838
13784		-7.796969	4.787813	11.368261	0.005589	3.037525	-0.151635	-1.050537	0.190430	-0.643066	3.112337	24.381385	-71.655055
13785		-9.178915	5.412137	10.235706	-0.198999	3.034779	0.098580	-1.028076	0.195801	-0.652588	3.070400	26.114903	-71.490982
13786		-9.184590	2.890229	10.582582	-0.493989	2.744886	-0.120825	-1.006104	0.194092	-0.672852	2.794083	27.688834	-71.480686
13787		-9.130861	-4.768393	11.139171	-0.186565	2.630897	-0.270637	-0.986084	0.197510	-0.676514	2.643144	29.202167	-71.577536
13788		-12.082909	-3.782854	10.346989	0.315880	2.437807	-0.012338	-0.970703	0.202637	-0.689941	2.859408	30.597572	-71.510749
13789		-24.204432	-6.523706	11.188796	0.745715	1.831545	0.352787	-0.953613	0.186035	-0.696777	3.444375	31.634564	-71.209675
13790		-6.676643	4.138963	7.409035	0.534585	0.691637	0.252395	-0.949707	0.192627	-0.682861	3.856228	32.021352	-71.012427
13791		-5.587765	4.496851	9.227655	0.364632	0.803926	0.166881	-0.948486	0.184814	-0.692871	4.146591	32.474494	-70.863726
13792		-8.336384	0.830442	8.463472	0.282026	0.491781	-0.027030	-0.944824	0.184814	-0.692627	4.312126	32.757213	-70.859568
13793		-5.750435	0.834859	8.396763	0.219847	0.350337	-0.039789	-0.930908	0.181885	-0.695557	4.434255	32.959428	-70.870501
13794		-6.100660	0.844158	8.447832	0.192878	0.251074	-0.070787	-0.934814	0.175537	-0.699219	4.526308	33.106668	-70.907464
13795		-5.952907	0.384680	8.316391	0.159203	0.157166	-0.065909	-0.934326	0.175049	-0.696045	4.598564	33.199775	-70.945970
13796		-5.779408	0.610282	8.380486	0.138439	0.103073	-0.062695	-0.930908	0.179443	-0.699463	4.658064	33.262222	-70.985206
13797		-5.898175	0.636224	8.382437	0.096167	0.034291	-0.048945	-0.922363	0.178467	-0.704102	4.696818	33.284433	-71.018821
13798		-5.744071	0.730850	8.420180	0.055986	-0.010329	-0.048491	-0.928711	0.175537	-0.697510	4.710911	33.281514	-71.054648
13799		-5.658878	0.415123	8.405616	0.020771	-0.061220	-0.034620	-0.930420	0.169189	-0.698486	4.708899	33.248528	-71.083837
13800		-5.554211	0.369463	8.335910	0.013638	-0.078693	-0.014028	-0.932373	0.174561	-0.702393	4.709548	33.204959	-71.099959
13801		-5.518205	0.343575	8.274328	0.011282	-0.103395	0.009502	-0.935547	0.181885	-0.702637	4.717325	33.145815	-71.101391
13802		-5.549679	0.469528	8.293853	0.012146	-0.137354	0.023233	-0.934326	0.164307	-0.696045	4.729202	33.066999	-71.095416
13803		-5.521870	0.588442	8.387132	0.020429	-0.177143	0.028849	-0.939697	0.174561	-0.700195	4.747119	32.964829	-71.087864
13804		-5.504688	0.707360	8.351428	0.018517	-0.205821	0.031666	-0.937988	0.173584	-0.696533	4.763595	32.846519	-71.080094
13805		-5.401193	0.807278	8.440091	0.010259	-0.222845	0.026149	-0.929932	0.174805	-0.695068	4.773219	32.718380	-71.077049
13806		-5.353693	0.914031	8.457191	0.001185	-0.210023	0.017013	-0.939209	0.179199	-0.692139	4.774217	32.598367	-71.079515
13807		-5.337346	0.858814	8.445323	-0.012157	-0.186875	0.007031	-0.942383	0.169922	-0.694824	4.765109	32.491676	-71.087398
13808		-5.238987	0.767722	8.436279	-0.013475	-0.158513	0.003171	-0.940430	0.170410	-0.695801	4.754283	32.401726	-71.096282
13809		-5.214243	0.639677	8.410851	-0.020568	-0.124362	-0.002331	-0.945313	0.171875	-0.691162	4.738902	32.331170	-71.106918
13810		-5.164948	0.539975	8.338779	-0.017300	-0.077651	0.001576	-0.945557	0.169434	-0.703369	4.727781	32.287456	-71.112296
13811		-5.173390	0.515722	8.425798	-0.008310	-0.043199	-0.000213	-0.949463	0.174316	-0.696289	4.722643	32.263143	-71.116929
13812		-5.226498	0.655043	8.428617	-0.008569	-0.007068	0.001845	-0.941162	0.179688	-0.690918	4.718724	32.259711	-71.118184
13813		-5.297497	0.651849	8.409446	-0.012296	0.013948	-0.008497	-0.944824	0.182617	-0.695557	4.710019	32.268419	-71.125223
13814		-5.314108	0.598092	8.405547	-0.006603	0.034006	-0.007098	-0.945801	0.177979	-0.694580	4.705221	32.288857	-71.130236
13815		-5.317253	0.678536	8.362094	-0.005674	0.045940	-0.011234	-0.945801	0.173096	-0.692139	4.700265	32.315961	-71.137351
13816		-5.279381	0.616884	8.427568	-0.001889	0.060235	-0.015978	-0.946045	0.177002	-0.697510	4.695727	32.351791	-71.146918
13817		-5.299683	0.610214	8.384613	-0.004904	0.075724	-0.024672	-0.937500	0.177979	-0.690674	4.687218	32.396531	-71.161478
13818		-5.236375	0.563988	8.436034	0.006206	0.093566	-0.021534	-0.948975	0.170898	-0.696777	4.686267	32.451649	-71.172978
13819		-5.315346	0.616526	8.433806	0.005953	0.114382	-0.022066	-0.942871	0.173828	-0.699463	4.686043	32.518341	-71.183651
13820		-5.255382	0.597139	8.419445	0.010970	0.127887	-0.021231	-0.938232	0.174072	-0.694824	4.688922	32.593038	-71.193062
13821		-5.323292	0.600069	8.432137	0.010073	0.145346	-0.018717	-0.938965	0.175537	-0.702881	4.693182	32.677256	-71.199753
13822		-5.307871	0.649801	8.406891	0.010031	0.162358	-0.014199	-0.937500	0.177246	-0.702881	4.699111	32.771302	-71.202481
13823		-5.321920	0.726378	8.447513	0.009756	0.181616	-0.016500	-0.937012	0.177979	-0.698242	4.705089	32.876128	-71.205633
13824		-5.310723	0.618024	8.411881	0.007629	0.203161	-0.015829	-0.935791	0.172119	-0.697021	4.710283	32.993543	-71.207173
13825		-5.357310	0.560375	8.357933	0.011781	0.228475	-0.004109	-0.932373	0.176025	-0.697510	4.723466	33.124543	-71.199224
13826		-5.362726	0.592869	8.320722	0.017771	0.246715	-0.000781	-0.928223	0.173584	-0.695557	4.741459	33.266110	-71.187989
13827		-5.384494	0.547627	8.343616	0.023950	0.262745	0.009410	-0.928711	0.173340	-0.703125	4.767867	33.416031	-71.168724
13828		-5.434121	0.629035	8.267277	0.023503	0.281859	0.012339	-0.925781	0.173828	-0.707764	4.795356	33.577023	-71.146318
13829		-5.500442	0.687325	8.273101	0.022702	0.302977	0.013574	-0.920410	0.169922	-0.700684	4.824146	33.749699	-71.121628
13830		-5.525610	0.702541	8.223708	0.014133	0.323900	0.012090	-0.918945	0.179199	-0.697510	4.847796	33.934684	-71.096680
13831		-5.483571	0.672133	8.230868	0.009588	0.352141	0.007347	-0.922852	0.170654	-0.700439	4.868574	34.135712	-71.073118
13832		-5.416061	0.511827	8.184681	0.005258	0.397137	0.010760	-0.914551	0.167969	-0.710693	4.889361	34.362553	-71.044489
13833		-5.396225	0.450021	8.212149	0.013164	0.452893	0.015923	-0.914307	0.180908	-0.703125	4.919281	34.620661	-71.008675
13834		-5.340122	0.409672	8.265390	0.012063	0.515865	0.020221	-0.906250	0.173828	-0.704834	4.952235	34.914774	-70.965912
13835		-5.431652	0.744553	8.368252	0.014077	0.609644	0.015833	-0.901123	0.173828	-0.712646	4.988775	35.262326	-70.920026
13836		-5.408464	0.872485	8.499521	0.008071	0.701239	-0.006965	-0.895996	0.172607	-0.715332	5.015856	35.663543	-70.884182
13837		-5.442995	0.814977	8.679299	-0.003402	0.819390	-0.024331	-0.891113	0.177490	-0.715820	5.034447	36.132789	-70.852726
13838		-5.436581	0.670649	8.878039	-0.032977	0.933644	-0.025654	-0.894287	0.178223	-0.712402	5.039678	36.667536	-70.814904
13839		-5.311264	0.383803	8.948177	-0.031372	1.092112	-0.026853	-0.874512	0.173828	-0.720703	5.052381	37.292552	-70.767391
13840		-5.588871	0.535452	9.101766	-0.009541	1.254077	-0.027602	-0.858643	0.170410	-0.725098	5.083943	38.010199	-70.709549
13841		-5.643112	0.649237	9.229757	0.058285	1.390344	-0.051248	-0.852295	0.171875	-0.726807	5.151194	38.806606	-70.658431
13842		-5.310510	2.025551	10.737219	-0.013912	1.524836	-0.047440	-0.838623	0.174805	-0.717285	5.185501	39.679628	-70.594316
13843		-5.253850	2.746319	11.889016	-0.246076	1.665046	-0.074824	-0.815918	0.178467	-0.731201	5.081118	40.633995	-70.540797
13844		-5.726727	2.351990	11.334850	-0.365486	1.866340	-0.155183	-0.808350	0.179199	-0.732422	4.875483	41.707275	-70.537880
13845		-5.747730	2.723643	11.369955	-0.464250	2.078076	-0.266630	-0.786865	0.171143	-0.726807	4.560537	42.906799	-70.613700
13846		-5.792386	2.946540	11.503120	-0.611973	2.292816	-0.402586	-0.771973	0.184814	-0.734375	4.085335	44.234185	-70.797320
13847		-5.573123	2.743611	11.695563	-0.756605	2.535268	-0.542389	-0.752930	0.191162	-0.734131	3.437561	45.704359	-71.103416
13848		-5.110688	1.430944	11.989639	-0.855910	2.819708	-0.634390	-0.721191	0.198486	-0.736328	2.654914	47.336742	-71.509136
13849		-4.528984	0.506902	12.474425	-0.876719	3.153529	-0.676487	-0.689453	0.204346	-0.734863	1.797362	49.157547	-71.987991
13850		-3.556841	-0.333452	13.614707	-0.874720	3.599406	-0.645493	-0.666748	0.206543	-0.737305	0.910716	51.227418	-72.492752
13851		-1.988564	-1.905661	14.752648	-0.726202	4.251258	-0.553333	-0.627686	0.219727	-0.732422	0.110160	53.666164	-72.980168
13852		-0.072976	-1.785977	14.828824	-0.484375	5.140524	-0.437480	-0.588379	0.223145	-0.738037	-0.544066	56.609320	-73.442279
13853		-0.321852	-2.773128	14.470236	-0.074184	6.230662	-0.362823	-0.525879	0.227295	-0.719482	-1.003650	60.176296	-73.934212
13854		-3.901917	-2.227341	13.135176	0.478358	7.340200	-0.387004	-0.468750	0.216064	-0.712891	-1.315282	64.374709	-74.599014
13855		-14.448945	2.415881	10.723864	0.526784	8.048053	-0.662388	-0.411621	0.217285	-0.696289	-2.226140	68.972402	-75.921030
13856		-23.920394	4.492036	9.416336	-0.095259	7.892876	-0.841596	-0.349121	0.222168	-0.669189	-4.478150	73.457244	-78.243859
13857		-23.817937	6.325695	11.408864	-1.162934	7.299127	-1.039576	-0.294189	0.232178	-0.648926	-9.390660	77.539716	-82.628726
13858		-16.877678	-1.470716	12.491317	-1.920172	6.854076	-0.955893	-0.241455	0.249268	-0.620605	-18.365778	81.226850	-90.639596
13859		-13.046664	-5.044374	14.799530	-1.412265	6.781548	-0.349075	-0.186035	0.263184	-0.577148	-34.687642	84.644951	-106.264418
13860		-6.913455	-3.858537	16.972718	-0.806803	6.531049	0.125658	-0.154053	0.262939	-0.545898	-77.873481	86.936722	-149.089310
13861		-3.361760	-0.199239	16.836359	-0.584948	6.402539	0.364074	-0.114746	0.255371	-0.512939	-137.520347	85.879838	151.502164
13862		0.298508	3.430122	14.360714	-1.527848	6.091972	0.817873	-0.071533	0.266846	-0.478760	-161.084720	83.064854	128.712142
13863		-5.775925	3.149562	5.211451	-2.108659	5.715795	1.666854	-0.039795	0.265869	-0.446533	-173.450312	80.066028	117.435586
13864		-21.941260	6.986852	8.230607	-2.773572	3.606724	2.313457	-0.021240	0.267578	-0.423096	177.718599	78.050820	110.056284
13865		-17.574300	2.607316	12.456676	-3.767993	0.862932	2.535072	-0.017578	0.267334	-0.417236	169.194960	77.393101	103.540968
13866		-12.619954	-2.309102	10.828032	-3.846072	-1.183985	2.844830	-0.028809	0.272461	-0.422363	159.080801	77.606471	95.434053
13867		-6.445745	-3.984693	8.931831	-3.269289	-2.536536	2.890678	-0.031738	0.276855	-0.441162	147.265213	78.158670	85.264442
13868		-3.356694	-3.430021	7.214191	-2.745703	-3.246654	2.763032	-0.058594	0.270508	-0.458252	133.973389	78.600864	73.297548
13869		-1.580976	-2.967774	5.888437	-2.334703	-3.621813	2.494703	-0.087402	0.277100	-0.477051	120.068334	78.711077	60.479919
13870		-0.677666	-3.274489	4.541801	-1.944403	-3.794154	2.137201	-0.105713	0.263672	-0.507324	106.622254	78.452184	47.896181
13871		0.225596	-3.721279	4.002039	-1.516530	-3.823289	1.746134	-0.142822	0.281982	-0.517334	94.588038	77.870846	36.487940
13872		0.970049	-3.987540	3.921949	-1.031221	-3.767751	1.335656	-0.165527	0.281738	-0.542969	84.270598	77.084654	26.521179
13873		0.891873	-3.774994	4.107686	-0.532642	-3.647215	0.921755	-0.203857	0.279053	-0.561768	75.679773	76.200215	18.004124
13874		0.293588	-2.597058	4.421006	-0.199420	-3.550922	0.529741	-0.225098	0.287842	-0.580078	68.286931	75.281838	10.490629
13875		-0.761016	-1.000498	4.974619	-0.094397	-3.521495	0.112206	-0.256592	0.289063	-0.591553	61.589895	74.369018	3.606308
13876		-2.240583	0.086054	5.514422	-0.181658	-3.623884	-0.329748	-0.300537	0.295410	-0.605225	54.989643	73.436293	-3.158484
13877		-3.390931	0.440540	6.069946	-0.346020	-3.843191	-0.759309	-0.342041	0.306152	-0.627686	48.286544	72.410568	-9.964538
13878		-4.620031	-0.043686	6.471644	-0.426600	-4.168915	-1.127803	-0.379883	0.322510	-0.637695	41.498157	71.169690	-16.856666
13879		-5.337638	-0.736126	6.879791	-0.356495	-4.563971	-1.390261	-0.432861	0.340820	-0.653076	34.989234	69.607705	-23.550287
13880		-5.506206	-0.772900	7.204080	-0.161982	-4.950775	-1.541656	-0.489502	0.351563	-0.659668	29.112421	67.664924	-29.763852
13881		-5.647259	-0.123511	7.630107	0.014111	-5.257851	-1.634072	-0.554688	0.366455	-0.666016	24.082463	65.388872	-35.256960
13882		-5.920287	0.739338	8.043827	0.103681	-5.500350	-1.659655	-0.626709	0.381836	-0.672607	19.881392	62.814255	-39.996061
13883		-6.363718	1.378524	8.460029	0.093219	-5.683301	-1.638313	-0.698975	0.391357	-0.667480	16.433341	60.011803	-43.984487
13884		-6.917537	1.795470	9.004628	0.011608	-5.817809	-1.550797	-0.773682	0.399414	-0.660889	13.618298	57.014386	-47.296869
13885		-7.551001	1.981347	9.475079	-0.098773	-5.929274	-1.403719	-0.857178	0.422852	-0.629883	11.353988	53.871203	-49.978926
13886		-8.011264	2.056399	10.099617	-0.200176	-5.995958	-1.222978	-0.939209	0.435303	-0.594971	9.539130	50.611278	-52.133486
13887		-8.795932	2.022016	10.997954	-0.292042	-6.028488	-1.041635	-1.004639	0.454102	-0.542725	8.086472	47.289570	-53.839788
13888		-10.307731	1.531336	12.105795	-0.367801	-6.083054	-0.889830	-1.083008	0.464844	-0.478760	6.891901	43.891762	-55.221568
13889		-12.400063	1.143132	12.790389	-0.343879	-6.153592	-0.822493	-1.142578	0.472900	-0.402100	5.914804	40.440812	-56.386103
13890		-14.487722	1.711547	12.868954	-0.167735	-6.224112	-0.948226	-1.184570	0.485596	-0.330322	5.108641	36.934527	-57.526848
13891		-17.563236	1.858572	13.247353	0.037849	-6.250857	-1.184821	-1.204590	0.471436	-0.257080	4.443927	33.422202	-58.721322
13892		-23.019755	0.602466	12.713340	0.266654	-6.222295	-1.344030	-1.218994	0.456055	-0.186523	3.960274	29.914453	-59.938655
13893		-28.980960	-0.075709	11.231302	0.580114	-6.186756	-1.335041	-1.227783	0.426025	-0.116699	3.757243	26.429403	-61.076840
13894		-33.382723	-0.007867	8.608714	0.696267	-6.148949	-1.164457	-1.229004	0.404297	-0.068848	3.743513	22.949871	-62.070113
13895		-34.734924	0.588177	3.810462	0.608840	-6.068738	-0.954969	-1.226074	0.375000	-0.014893	3.792860	19.516464	-62.902775
13896		-32.979872	2.436924	-1.372096	0.425142	-5.859257	-0.895820	-1.211426	0.355469	0.026367	3.799751	16.194913	-63.679895
13897		-29.184961	3.070583	-4.820624	-0.008718	-5.332324	-0.887123	-1.202881	0.325439	0.068848	3.611646	13.179217	-64.410120
13898		-24.708388	1.843707	-7.478521	-0.809165	-4.386052	-0.776525	-1.193359	0.303223	0.100342	3.023732	10.692315	-65.016992
13899		-19.647312	-1.775923	-8.732258	-1.387538	-2.999296	-0.633400	-1.177490	0.290527	0.115479	2.154090	8.992266	-65.465506
13900		-16.431913	-5.704292	-10.000171	-0.506726	-0.205295	-0.811771	-1.161133	0.271240	0.132080	1.790622	8.888341	-65.943533
13901		-21.622210	-15.692616	-20.072422	1.290005	2.368467	-0.615703	-1.147949	0.272217	0.131104	2.480648	10.257825	-66.251541
13902		-12.706743	-5.305276	-12.641147	3.047008	4.456498	-0.503825	-1.140869	0.265381	0.132080	4.198184	12.822613	-66.396675
13903		-5.953010	11.562488	7.133874	1.779814	5.361927	-0.658504	-1.129395	0.254395	0.125000	5.187892	15.915635	-66.527172
13904		-8.352520	27.099873	22.094819	0.450844	4.292326	-2.076919	-1.130127	0.251709	0.129883	5.147946	18.471878	-67.538451
13905		-16.939467	6.358178	11.407258	-0.722107	3.393643	-3.250423	-1.117432	0.239502	0.121094	4.133320	20.561104	-69.342718
13906		-7.764911	-1.496901	6.474001	-0.446122	3.203114	-2.319440	-1.110107	0.227295	0.131348	3.403086	22.479812	-70.640694
13907		-2.491440	8.780031	12.775452	-0.007766	4.070852	-0.952958	-1.112061	0.220947	0.128174	3.220141	24.840189	-71.090605
13908		-15.637713	15.912979	15.739746	-0.500963	4.302921	0.022732	-1.096680	0.228027	0.121582	3.005791	27.301272	-70.929336
13909		-30.738856	-11.404093	16.502770	0.026313	3.537337	0.235528	-1.094971	0.232666	0.107178	3.153265	29.318129	-70.654625
13910		-22.237130	-14.489317	6.646149	0.829221	1.288404	0.277567	-1.091797	0.227783	0.110840	3.744977	30.046301	-70.422651
13911		0.617119	7.060526	9.036106	0.751811	1.166602	0.200168	-1.103760	0.236328	0.110107	4.271246	30.705375	-70.237929
13912		-10.120736	5.474559	9.183989	0.494420	1.044015	0.131734	-1.095459	0.225098	0.094971	4.628084	31.297143	-70.097862
13913		-5.013938	-2.817966	7.373962	0.403629	0.620599	0.066092	-1.088135	0.230713	0.098877	4.901550	31.648682	-70.021046
13914		-6.783020	2.400298	8.260548	0.450002	0.660100	0.088644	-1.088867	0.236084	0.098633	5.211969	32.022326	-69.924061
13915		-5.927743	1.436779	8.605230	0.360328	0.530321	0.079373	-1.086670	0.229736	0.095459	5.465684	32.320981	-69.839239
13916		-6.258237	0.712251	8.578318	0.284566	0.386648	0.083844	-1.091309	0.242188	0.095947	5.673316	32.538235	-69.758879
13917		-6.173097	2.042011	8.302694	0.208279	0.292492	0.068059	-1.088379	0.235107	0.090576	5.829208	32.701436	-69.694955
13918		-5.930692	1.045277	8.456903	0.129875	0.196934	0.026902	-1.101563	0.239014	0.091553	5.921505	32.813554	-69.664725
13919		-5.575153	0.749134	8.458724	0.100146	0.160689	0.024978	-1.088135	0.240234	0.100342	5.995218	32.904012	-69.638486
13920		-5.554693	0.467014	8.370630	0.086964	0.139647	0.033123	-1.092041	0.234375	0.094482	6.063312	32.983033	-69.607728
13921		-5.455628	0.407278	8.393157	0.081698	0.131747	0.058651	-1.091309	0.236816	0.091064	6.138011	33.054896	-69.560396
13922		-5.547165	0.488445	8.375821	0.077004	0.100621	0.060526	-1.087646	0.233398	0.098633	6.209195	33.109910	-69.513623
13923		-5.590064	0.678882	8.404750	0.064520	0.066938	0.071652	-1.089844	0.236084	0.093994	6.276471	33.143952	-69.462000
13924		-5.640623	0.974378	8.439703	0.050095	0.043394	0.070487	-1.096191	0.235596	0.096191	6.333731	33.165636	-69.412587
13925		-5.610953	1.098382	8.409734	0.032734	0.046195	0.054081	-1.090820	0.240234	0.097168	6.375491	33.188897	-69.374381
13926		-5.478078	1.006361	8.370555	0.048491	0.082651	0.032138	-1.088379	0.244385	0.097656	6.419277	33.235292	-69.348004
13927		-5.517797	0.942385	8.353892	0.069695	0.137681	0.011419	-1.083984	0.229248	0.094482	6.470237	33.313332	-69.331727
13928		-5.423983	0.789774	8.359159	0.074959	0.172062	0.011744	-1.089111	0.230469	0.087402	6.525508	33.411882	-69.312180
13929		-5.440531	0.732479	8.267339	0.078456	0.200105	0.014599	-1.090820	0.238525	0.091553	6.585550	33.525221	-69.288621
13930		-5.472187	0.722013	8.247885	0.080270	0.214739	0.021363	-1.088379	0.237793	0.087402	6.649594	33.647360	-69.258846
13931		-5.580815	0.992846	8.335420	0.066982	0.223326	0.029335	-1.094971	0.226807	0.086670	6.709972	33.772888	-69.222984
13932		-5.656346	1.326918	8.281718	0.042274	0.227337	0.015510	-1.089600	0.230957	0.092285	6.750900	33.902513	-69.195843
13933		-5.684788	1.414165	8.245747	0.015362	0.214737	0.003416	-1.094482	0.228271	0.089600	6.771689	34.024860	-69.178138
13934		-5.668493	1.186262	8.238938	-0.017842	0.200871	-0.002380	-1.081543	0.233398	0.088623	6.770315	34.140595	-69.165253
13935		-5.610469	0.941891	8.266473	-0.042163	0.192936	0.007550	-1.092041	0.237793	0.091064	6.758835	34.250258	-69.146426
13936		-5.669176	0.798574	8.125406	-0.066775	0.175355	0.035984	-1.089844	0.231445	0.089844	6.743188	34.348870	-69.109221
13937		-5.628472	0.700152	8.081825	-0.078763	0.156981	0.048053	-1.090820	0.233643	0.088867	6.724898	34.435361	-69.065420
13938		-5.668445	0.759493	8.134059	-0.084451	0.154615	0.070325	-1.095703	0.235840	0.084717	6.711684	34.519867	-69.006201
13939		-5.604711	0.914060	8.155078	-0.101507	0.159700	0.074885	-1.085693	0.241455	0.074707	6.691132	34.606132	-68.943608
13940		-5.590702	0.954062	8.221384	-0.115800	0.182964	0.078055	-1.077637	0.233398	0.091797	6.664488	34.706266	-68.876704
13941		-5.619042	0.985772	8.225908	-0.134098	0.206367	0.078038	-1.083252	0.229736	0.087646	6.628863	34.818931	-68.808109
13942		-5.587939	0.823437	8.249119	-0.159606	0.232854	0.077322	-1.086426	0.237061	0.090332	6.579366	34.947549	-68.737689
13943		-5.497901	0.757205	8.238501	-0.156750	0.275457	0.079468	-1.095459	0.245117	0.091309	6.534760	35.099535	-68.662577
13944		-5.544627	0.637486	8.288110	-0.146559	0.335520	0.090827	-1.087402	0.237305	0.089355	6.503198	35.285770	-68.574563
13945		-5.557052	0.759778	8.321876	-0.124929	0.397120	0.087481	-1.086914	0.238525	0.086914	6.486149	35.506563	-68.484040
13946		-5.564982	0.874794	8.424550	-0.115517	0.458988	0.079744	-1.083984	0.229736	0.079346	6.474312	35.763818	-68.393661
13947		-5.611364	0.844027	8.461371	-0.101709	0.539952	0.076948	-1.084961	0.230957	0.083496	6.473862	36.066633	-68.298657
13948		-5.652911	0.818858	8.533904	-0.089957	0.607934	0.074543	-1.080078	0.232178	0.083008	6.482729	36.408978	-68.199355
13949		-5.619517	0.786290	8.830324	-0.046275	0.682302	0.069397	-1.080322	0.239014	0.080078	6.519229	36.793283	-68.097188
13950		-5.633279	0.397392	8.613856	0.047056	0.796583	0.057065	-1.078857	0.234131	0.072266	6.610494	37.243978	-67.993243
13951		-5.439981	1.247142	9.087423	0.157949	0.891192	0.051112	-1.080078	0.236084	0.070313	6.769704	37.748101	-67.883807
13952		-5.367514	1.829046	9.453998	0.066334	1.010867	0.034127	-1.073730	0.237305	0.066162	6.877137	38.321816	-67.773950
13953		-5.678413	1.900245	9.394625	0.031405	1.143374	-0.013572	-1.070801	0.231934	0.058105	6.952731	38.973495	-67.685080
13954		-5.611420	1.789250	9.775927	-0.015314	1.289460	-0.066186	-1.064697	0.232178	0.053467	6.986992	39.712302	-67.620044
13955		-5.522151	1.474780	10.135082	-0.034588	1.462439	-0.114840	-1.062256	0.229248	0.047852	6.998745	40.552401	-67.574318
13956		-5.433947	1.183695	10.579956	-0.049049	1.678787	-0.148989	-1.060547	0.224609	0.041504	6.999251	41.518242	-67.533579
13957		-5.383391	1.246641	10.672392	-0.051924	1.940020	-0.187743	-1.046875	0.223145	0.023438	6.995890	42.635022	-67.497330
13958		-5.460558	1.416567	10.744177	-0.061236	2.206850	-0.236407	-1.043701	0.223145	0.020508	6.979255	43.907101	-67.473204
13959		-5.406584	1.785289	11.271972	-0.074665	2.483714	-0.303944	-1.032715	0.220703	0.008301	6.936378	45.341184	-67.476324
13960		-5.218980	1.169810	12.181164	-0.109380	2.806068	-0.368650	-1.023926	0.210693	-0.005859	6.856428	46.963023	-67.503044
13961		-4.608917	0.050249	13.743682	-0.135311	3.207975	-0.357251	-1.007080	0.204346	-0.016602	6.795905	48.812757	-67.482942
13962		-3.158034	-2.074634	15.965935	-0.121016	3.772441	-0.216026	-0.990234	0.197266	-0.036865	6.886048	50.973590	-67.277172
13963		-1.247107	-2.732224	17.532912	0.017429	4.536089	0.060495	-0.970703	0.202881	-0.052490	7.356695	53.548670	-66.697456
13964		0.393497	-3.481259	17.506108	0.254255	5.575072	0.395326	-0.944336	0.188721	-0.064941	8.453353	56.681065	-65.541266
13965		0.170684	-3.381886	15.666739	0.681694	6.784906	0.670299	-0.911377	0.181152	-0.087646	10.511714	60.453110	-63.590394
13966		-5.242998	0.428240	13.326060	1.117569	7.955136	0.704997	-0.878906	0.178467	-0.098145	13.766163	64.824499	-60.652214
13967		-16.066764	5.928501	11.433053	1.115537	8.587104	0.411227	-0.838135	0.158691	-0.114502	18.156803	69.493509	-56.587865
13968		-25.517476	8.178125	10.521583	0.430573	8.465503	0.039046	-0.788574	0.153564	-0.141357	23.725093	74.019754	-50.992234
13969		-23.505837	7.176214	12.105739	-0.530728	7.775365	-0.500761	-0.746094	0.149902	-0.150635	30.596028	78.123774	-43.607185
13970		-15.829646	2.823959	11.918516	-1.042436	7.337869	-0.482015	-0.701904	0.137451	-0.171143	42.899418	81.680259	-30.514039
13971		-10.202723	3.720549	15.996669	-1.191161	6.909934	-0.355348	-0.661621	0.119873	-0.164551	67.716553	84.164432	-4.832766
13972		-5.117925	2.816245	15.569105	-1.738362	6.483901	-0.175313	-0.615479	0.117432	-0.173096	104.786454	84.529341	33.402903
13973		-2.124621	2.970379	12.264614	-2.672522	6.018419	0.161290	-0.566162	0.111328	-0.173828	130.633845	82.795996	60.938805
13974		-2.093189	0.862848	5.841706	-3.102795	5.302676	1.123948	-0.521729	0.111084	-0.170654	140.071369	80.173051	72.272615
13975		-19.379080	6.706056	6.978897	-3.466482	3.784118	1.876896	-0.494385	0.108398	-0.177979	140.920707	77.816438	75.158755
13976		-15.994238	1.002825	11.808614	-4.169089	1.239164	2.290663	-0.466064	0.126465	-0.177734	136.278263	76.419874	72.844002
13977		-11.189447	-2.156666	9.666672	-4.043503	-0.585905	2.626531	-0.455566	0.121826	-0.183350	128.899027	75.539450	67.624427
13978		-5.313038	-3.048776	8.093102	-3.475461	-1.820121	2.517924	-0.440430	0.107666	-0.202393	120.523866	74.950947	61.020507
13979		-2.328048	-2.860182	6.475964	-2.964157	-2.447952	2.151440	-0.441406	0.114502	-0.209961	112.227163	74.470371	54.178639
13980		-1.100223	-2.790949	5.290484	-2.478452	-2.778033	1.640260	-0.427246	0.105225	-0.225586	104.377140	74.081530	47.496506
13981		-0.366596	-3.175518	4.437068	-2.018133	-2.957209	1.061180	-0.429443	0.104736	-0.232422	97.045218	73.800310	41.068564
13982		0.003761	-4.002398	4.124514	-1.473564	-3.014757	0.505864	-0.431641	0.107178	-0.252197	90.221460	73.623794	34.836898
13983		-0.151196	-3.860265	4.076731	-0.861447	-3.055088	0.005474	-0.426514	0.111816	-0.262939	83.797001	73.530989	28.652090
13984		-0.379641	-2.735947	4.353846	-0.348151	-3.099093	-0.454128	-0.424805	0.114746	-0.273682	77.513763	73.502016	22.305491
13985		-0.883394	-1.274126	4.704815	-0.037093	-3.172219	-0.892857	-0.430664	0.118408	-0.285156	71.113956	73.504896	15.651521
13986		-1.666576	0.049726	4.992856	0.109158	-3.308815	-1.305877	-0.437256	0.117432	-0.294189	64.276636	73.478927	8.453176
13987		-2.470974	0.905347	5.335438	0.128832	-3.518983	-1.667238	-0.446777	0.113037	-0.310303	56.878656	73.321807	0.655239
13988		-3.078740	1.247179	5.754234	0.097902	-3.792346	-1.962040	-0.453369	0.114258	-0.320801	48.964390	72.907209	-7.675603
13989		-3.611540	1.197181	6.193549	0.109056	-4.093151	-2.154092	-0.467041	0.130371	-0.327148	40.984499	72.119809	-16.108281
13990		-4.211330	1.204286	6.536955	0.179336	-4.399248	-2.231502	-0.489258	0.143799	-0.339600	33.463897	70.880945	-24.148054
13991		-4.744827	1.577269	6.971313	0.271495	-4.725827	-2.208826	-0.501709	0.146729	-0.337158	26.858044	69.173503	-31.342520
13992		-5.024892	2.133422	7.431218	0.334615	-5.050299	-2.116562	-0.527588	0.157471	-0.347900	21.342514	67.020515	-37.494911
13993		-5.202655	2.688929	7.904814	0.338830	-5.316566	-1.955929	-0.538818	0.154541	-0.353271	16.961017	64.509091	-42.513390
13994		-5.557264	3.151980	8.283118	0.290651	-5.539427	-1.722884	-0.567627	0.162598	-0.363770	13.592788	61.701046	-46.478595
13995		-5.836648	3.377918	8.780372	0.192978	-5.709903	-1.439110	-0.581543	0.160645	-0.360596	11.075730	58.680756	-49.508136
13996		-6.239004	3.534560	9.348674	0.065717	-5.828419	-1.097518	-0.609375	0.166748	-0.355469	9.242067	55.498553	-51.739719
13997		-6.910637	3.502594	9.944890	-0.071559	-5.915147	-0.721065	-0.630615	0.162354	-0.350586	7.947727	52.209410	-53.293720
13998		-7.558664	3.344804	10.581208	-0.189082	-5.985470	-0.338221	-0.650391	0.166992	-0.346924	7.059852	48.828704	-54.306981
13999		-8.470096	3.465807	11.337948	-0.298650	-6.046344	-0.001461	-0.666260	0.163818	-0.348877	6.449262	45.388903	-54.909346
14000		-9.528813	3.228101	12.542307	-0.431816	-6.109424	0.251337	-0.682617	0.165039	-0.354980	5.975720	41.887397	-55.240803
14001		-11.652336	2.422679	13.904403	-0.582455	-6.196315	0.402534	-0.695557	0.160400	-0.359863	5.535855	38.332305	-55.408565
14002		-14.523838	1.614128	14.517171	-0.579567	-6.323115	0.375911	-0.718262	0.155273	-0.360352	5.112944	34.699016	-55.565281
14003		-17.603276	1.484324	14.577322	-0.332912	-6.481859	0.109090	-0.734131	0.157959	-0.352539	4.756982	30.993905	-55.873474
14004		-21.005334	0.112831	14.205373	0.016642	-6.621554	-0.204425	-0.763428	0.148682	-0.366943	4.530410	27.216180	-56.363252
14005		-25.574995	-1.080746	12.673210	0.475646	-6.618487	-0.409610	-0.783691	0.134766	-0.371582	4.551299	23.454843	-56.956111
14006		-29.293935	-0.584190	9.993377	0.738685	-6.392411	-0.474142	-0.815918	0.130615	-0.381836	4.749734	19.821399	-57.570865
14007		-30.593543	0.662410	5.668143	0.590758	-5.957967	-0.509245	-0.843994	0.108154	-0.383057	4.900530	16.444683	-58.180707
14008		-29.415169	1.873598	0.778146	0.157326	-5.319878	-0.672711	-0.872803	0.100586	-0.382080	4.819945	13.436741	-58.848753
14009		-26.994202	1.953797	-3.624609	-0.295685	-4.549784	-0.938221	-0.896729	0.091797	-0.375977	4.491154	10.882430	-59.615013
14010		-23.757194	0.761712	-7.565547	-0.626198	-3.597319	-1.199637	-0.920410	0.085693	-0.382813	3.987459	8.875824	-60.468052
14011		-21.748001	-0.397906	-9.432301	-0.812001	-2.361628	-1.378675	-0.921631	0.081299	-0.379150	3.397462	7.576669	-61.354339
14012		-19.118184	-2.284622	-6.198990	-0.458724	-0.567216	-1.451398	-0.929688	0.082520	-0.386963	3.025091	7.298167	-62.212164
14013		-22.613371	-10.332872	-18.687340	0.913783	1.985010	-1.653085	-0.918457	0.071533	-0.397217	3.428303	8.487308	-63.103990
14014		-17.298215	-2.882170	-13.583234	2.009107	3.929911	-1.463276	-0.906006	0.057861	-0.406982	4.464699	10.791998	-63.796916
14015		-3.155460	8.636297	6.028686	0.935175	4.438579	-1.267486	-0.863037	0.051025	-0.415527	4.891712	13.386213	-64.326760
14016		-2.762522	19.435717	23.454364	0.137362	4.155854	-1.780544	-0.835938	0.052002	-0.433105	4.758371	15.846010	-65.171953
14017		-11.298140	7.548638	10.831487	-0.550106	4.085781	-2.109883	-0.806641	0.046387	-0.441650	4.130439	18.274022	-66.244670
14018		-7.860931	6.776564	7.518458	-0.782135	4.262474	-1.422736	-0.773926	0.044189	-0.456299	3.452450	20.766123	-66.937843
14019		-7.228291	7.640848	13.203832	-0.705119	4.803762	-0.498196	-0.749756	0.050293	-0.472656	2.996751	23.530455	-67.080280
14020		-18.734198	10.948290	13.960775	-1.093425	4.379775	0.053138	-0.720459	0.053955	-0.478516	2.440736	26.037023	-66.917178
14021		-18.034963	-9.233870	13.916502	-0.707418	3.686138	-0.069161	-0.691650	0.055664	-0.481934	2.058720	28.149204	-66.870520
14022		-23.972033	-21.006060	11.121100	0.797607	2.879635	0.152081	-0.678223	0.047119	-0.490234	2.602530	29.796162	-66.695682
14023		-12.350073	1.917065	7.414826	1.046013	1.650387	0.294049	-0.666504	0.031006	-0.482178	3.329662	30.732054	-66.446279
14024		-4.679332	8.321902	8.839958	0.567858	1.473059	0.318757	-0.651611	0.042236	-0.485596	3.797617	31.565668	-66.173502
14025		-9.664382	-2.183554	7.459611	0.416814	1.182946	0.173033	-0.646484	0.038086	-0.481934	4.128158	32.235282	-66.003906
14026		-6.929008	2.521209	8.565605	0.385521	0.822523	0.132769	-0.643799	0.022705	-0.479980	4.420509	32.702231	-65.873803
14027		-7.153091	3.518623	8.612456	0.251322	0.628594	0.075932	-0.637451	0.029785	-0.484375	4.611835	33.058170	-65.790486
14028		-6.834350	1.372787	8.481664	0.119566	0.420097	-0.021346	-0.631348	0.032959	-0.481201	4.686105	33.301742	-65.783126
14029		-6.228103	1.387117	8.460362	0.066053	0.316723	-0.053469	-0.636719	0.020752	-0.474609	4.714564	33.485442	-65.803990
14030		-5.715120	0.508558	8.295011	0.038163	0.052581	-0.035198	-0.642822	0.032227	-0.481689	4.725774	33.519782	-65.826505
14031		-5.974242	0.707090	8.289992	0.043289	0.147432	-0.057434	-0.633789	0.024658	-0.485107	4.734371	33.607012	-65.859612
14032		-5.521530	0.394631	8.393523	0.053527	0.119458	-0.052490	-0.634766	0.028809	-0.482666	4.749851	33.680317	-65.890233
14033		-5.472428	0.246020	8.300349	0.075359	0.106108	-0.031640	-0.635498	0.028809	-0.482910	4.785270	33.742742	-65.907990
14034		-5.417799	0.467586	8.247394	0.079248	0.106351	-0.012531	-0.626953	0.034668	-0.479004	4.830265	33.806609	-65.911912
14035		-5.616237	0.379928	8.146397	0.077600	0.088663	0.019042	-0.629395	0.023926	-0.479004	4.885815	33.856639	-65.895761
14036		-5.837751	0.788437	8.105265	0.081592	0.026283	0.047243	-0.638916	0.029541	-0.481934	4.952465	33.871809	-65.863221
14037		-6.052969	1.024583	8.063729	0.088698	-0.100217	0.064362	-0.636475	0.022461	-0.478027	5.025488	33.811740	-65.827118
14038		-5.969016	0.896782	8.145705	0.118752	-0.225944	0.052816	-0.637695	0.021973	-0.480957	5.106989	33.682572	-65.806114
14039		-5.732108	0.949700	8.250038	0.144722	-0.319500	0.039054	-0.637451	0.026855	-0.479492	5.194725	33.498587	-65.801198
14040		-5.486269	0.736942	8.309503	0.133147	-0.330768	0.027295	-0.635010	0.024658	-0.478027	5.270871	33.310851	-65.804750
14041		-5.428224	0.941463	8.378648	0.114203	-0.301175	0.008973	-0.642578	0.014160	-0.489990	5.330164	33.138903	-65.819784
14042		-5.328549	0.854290	8.371867	0.091441	-0.258870	0.007818	-0.646973	0.025879	-0.483398	5.377453	32.993171	-65.832493
14043		-5.282456	0.839985	8.375610	0.060861	-0.210254	-0.008042	-0.643311	0.023193	-0.472656	5.402983	32.874023	-65.853532
14044		-5.266175	0.703070	8.377871	0.029948	-0.156802	-0.016681	-0.645996	0.023438	-0.477051	5.409556	32.787781	-65.876463
14045		-5.202495	0.668137	8.427766	0.013314	-0.101557	-0.018483	-0.639648	0.026611	-0.472412	5.407839	32.731204	-65.897608
14046		-5.125315	0.522975	8.444701	0.002104	-0.041788	-0.019863	-0.644775	0.019287	-0.483154	5.401326	32.710675	-65.915315
14047		-5.159380	0.454412	8.431444	-0.005013	0.027656	-0.010333	-0.642578	0.027344	-0.483154	5.396595	32.727361	-65.922634
14048		-5.174252	0.650264	8.480405	-0.019943	0.083424	-0.006256	-0.635498	0.024658	-0.472168	5.386750	32.777455	-65.923130
14049		-5.284620	0.618970	8.437952	-0.039831	0.125169	0.003917	-0.640625	0.026611	-0.466553	5.370669	32.848998	-65.914560
14050		-5.326629	0.442125	8.406741	-0.043079	0.155035	0.001469	-0.637695	0.025635	-0.474854	5.352868	32.939469	-65.905300
14051		-5.342234	0.578807	8.404883	-0.046800	0.191139	0.013444	-0.644531	0.013672	-0.479492	5.338615	33.048142	-65.886083
14052		-5.517425	0.688601	8.323454	-0.051997	0.210825	0.018452	-0.640137	0.013184	-0.480713	5.323952	33.169487	-65.861772
14053		-5.581953	0.794939	8.321510	-0.058329	0.227564	0.022871	-0.642822	0.021729	-0.484619	5.307943	33.298448	-65.833829
14054		-5.471316	0.679278	8.359949	-0.059207	0.246584	0.034713	-0.630127	0.015381	-0.474854	5.296594	33.439303	-65.796160
14055		-5.440034	0.635087	8.330169	-0.061716	0.280581	0.045403	-0.633057	0.020996	-0.474121	5.289147	33.597329	-65.749407
14056		-5.465610	0.773127	8.321755	-0.054282	0.318771	0.058276	-0.633057	0.018311	-0.479004	5.292351	33.778083	-65.690914
14057		-5.477734	0.788376	8.312456	-0.059451	0.358067	0.063296	-0.631104	0.022949	-0.483154	5.296163	33.979369	-65.626730
14058		-5.490137	0.703261	8.349903	-0.057650	0.399358	0.071089	-0.625488	0.026367	-0.487793	5.305794	34.205365	-65.553956
14059		-5.479295	0.732056	8.325642	-0.070230	0.444152	0.074085	-0.619629	0.026855	-0.476563	5.311397	34.455177	-65.476388
14060		-5.585166	0.775057	8.334766	-0.066362	0.485191	0.075812	-0.620850	0.025391	-0.486328	5.321848	34.729825	-65.394314
14061		-5.517200	0.769373	8.391240	-0.067624	0.523679	0.073819	-0.618652	0.037109	-0.479736	5.332748	35.025000	-65.311162
14062		-5.473062	0.393880	8.366548	-0.053573	0.583364	0.075904	-0.614258	0.033691	-0.477295	5.355398	35.355566	-65.221870
14063		-5.489831	0.482152	8.376870	-0.021727	0.657505	0.086195	-0.616699	0.031250	-0.481934	5.404150	35.726352	-65.120193
14064		-5.502709	0.496720	8.309635	0.003423	0.747555	0.095828	-0.603760	0.034912	-0.483643	5.475976	36.149309	-65.004361
14065		-5.453013	0.444181	8.558005	0.026705	0.851912	0.099476	-0.600830	0.030029	-0.481689	5.568509	36.630026	-64.877717
14066		-5.403821	0.490914	8.924318	0.096384	0.984021	0.099359	-0.588623	0.029541	-0.482422	5.708637	37.187224	-64.739467
14067		-5.357380	0.583819	9.613414	0.121486	1.133115	0.109599	-0.592041	0.023438	-0.477539	5.877244	37.827164	-64.580315
14068		-5.005031	1.360190	11.050755	0.078370	1.298757	0.120519	-0.573730	0.021973	-0.478271	6.037618	38.561736	-64.396612
14069		-5.543685	1.437908	10.559529	0.056720	1.488886	0.087965	-0.569336	0.031250	-0.470947	6.184856	39.404968	-64.217562
14070		-5.794874	2.871433	10.564172	-0.031224	1.652193	0.019321	-0.553223	0.030029	-0.474365	6.262509	40.346287	-64.071535
14071		-5.780371	3.274870	10.779181	-0.177892	1.821460	-0.118083	-0.551270	0.019287	-0.468750	6.200993	41.391463	-64.012981
14072		-5.706987	2.692143	10.847862	-0.318085	2.028471	-0.267556	-0.532715	0.035889	-0.477539	5.993298	42.564687	-64.054036
14073		-5.635731	2.614577	11.584082	-0.416173	2.259434	-0.380631	-0.524658	0.033203	-0.481934	5.675067	43.875077	-64.173578
14074		-5.461071	0.969388	11.398666	-0.472789	2.533252	-0.482323	-0.507080	0.027588	-0.471436	5.269925	45.347321	-64.367703
14075		-4.972433	0.898763	12.230515	-0.459075	2.840115	-0.507984	-0.491211	0.032471	-0.470703	4.854698	46.994266	-64.581535
14076		-4.626354	-0.880108	12.767353	-0.408800	3.245716	-0.511899	-0.471680	0.039551	-0.464600	4.464288	48.872365	-64.794734
14077		-3.445801	-2.922170	14.657498	-0.300877	3.721954	-0.344190	-0.450195	0.037354	-0.480713	4.250715	51.014028	-64.851243
14078		-1.713542	-3.122653	16.068111	-0.122455	4.479547	-0.099674	-0.418945	0.036621	-0.470703	4.355833	53.578002	-64.632376
14079		-0.309030	-3.551648	16.028915	0.161552	5.430913	0.204517	-0.389160	0.043457	-0.440674	4.978974	56.670207	-63.988460
14080		-0.047720	-4.535272	15.394974	0.576338	6.500720	0.464245	-0.361084	0.031982	-0.434326	6.340149	60.350352	-62.782648
14081		-4.350103	-1.204008	14.211544	0.958422	7.649193	0.568325	-0.318359	0.017090	-0.412842	8.604458	64.654419	-60.853104
14082		-15.098920	3.820335	11.674869	0.872189	8.338613	0.356275	-0.273438	0.018311	-0.387939	11.543553	69.323156	-58.207716
14083		-25.293482	10.007009	9.625290	0.162227	8.290253	0.078822	-0.231201	0.017090	-0.354248	15.059495	73.938098	-54.606244
14084		-24.670640	5.452111	13.144510	-1.157002	7.707535	-0.402225	-0.194580	0.022217	-0.331055	18.674608	78.233481	-50.204117
14085		-17.299615	-2.543404	14.160958	-1.478341	7.209414	-0.146468	-0.166504	0.033691	-0.304443	26.543208	82.091176	-41.365680
14086		-11.907481	-2.746135	16.623994	-0.919795	6.964088	0.390463	-0.143066	0.027100	-0.275879	49.819170	85.155513	-17.429281
14087		-4.717439	-0.138538	17.589188	-0.750893	6.658287	0.648205	-0.121582	0.033203	-0.253662	99.157627	85.887873	32.470452
14088		0.103678	1.092540	14.804198	-1.280194	6.408317	0.923882	-0.098389	0.024414	-0.224365	132.677317	83.713096	66.848778
14089		0.764390	-1.937858	7.272666	-1.409698	6.083205	1.563315	-0.079590	0.027832	-0.196289	143.826268	80.499670	78.912404
14090		-21.453880	7.844140	5.934291	-1.557967	4.702857	2.147471	-0.069092	0.018066	-0.173340	145.767068	77.591635	81.795164
14091		-19.224755	2.754827	13.366568	-2.681996	1.823086	2.135582	-0.076172	0.014893	-0.184326	142.612646	76.029391	80.131691
14092		-14.363232	-1.484479	11.607492	-2.892699	-0.440550	2.290091	-0.078613	0.006592	-0.199219	136.394424	75.373113	75.422947
14093		-6.954950	-3.429260	9.705453	-2.434804	-2.063742	2.184306	-0.092285	0.000488	-0.225586	128.452384	75.247924	68.653173
14094		-2.657433	-3.402004	7.661218	-1.937634	-2.915532	1.864149	-0.103760	-0.004395	-0.252441	119.786422	75.305527	60.839526
14095		-0.410097	-3.176359	5.990867	-1.464357	-3.313530	1.427351	-0.128418	-0.003174	-0.268799	111.046745	75.383425	52.671980
14096		0.772414	-3.098893	4.825363	-1.078614	-3.465275	0.966796	-0.145752	-0.007813	-0.283203	102.492952	75.430208	44.470565
14097		1.330432	-3.418597	4.219632	-0.700179	-3.471242	0.520000	-0.165771	0.000977	-0.305908	94.352033	75.428526	36.472321
14098		1.068085	-3.569930	4.035369	-0.310395	-3.433693	0.121991	-0.181396	0.001953	-0.330811	86.593630	75.377883	28.637853
14099		0.696053	-2.930776	4.248728	0.029130	-3.404740	-0.206986	-0.210938	0.000244	-0.335938	79.162974	75.255229	20.937651
14100		-0.120447	-1.903989	4.579214	0.217331	-3.403157	-0.512774	-0.229492	-0.005371	-0.359863	71.861324	75.053225	13.254020
14101		-1.247060	-0.940455	4.887921	0.266659	-3.492740	-0.804429	-0.240479	0.002441	-0.382080	64.490233	74.738141	5.459573
14102		-2.400321	-0.258800	5.369769	0.208197	-3.684929	-1.066721	-0.254883	0.011719	-0.390869	56.870851	74.236083	-2.572392
14103		-3.328454	-0.030555	5.794915	0.122025	-3.963819	-1.298806	-0.279297	0.006836	-0.399170	49.122826	73.463122	-10.712496
14104		-4.005969	-0.026521	6.177221	0.077621	-4.305794	-1.473749	-0.312500	0.008545	-0.413330	41.512292	72.324247	-18.722060
14105		-4.380044	-0.118545	6.583397	0.095588	-4.651067	-1.588119	-0.341309	0.007080	-0.429688	34.490964	70.782663	-26.181917
14106		-4.611571	-0.014664	6.891109	0.158100	-4.971747	-1.645646	-0.356934	0.014404	-0.440186	28.336949	68.836384	-32.835352
14107		-4.723019	0.378728	7.282782	0.227812	-5.259685	-1.645343	-0.395752	0.017578	-0.458252	23.202533	66.530594	-38.527041
14108		-5.062734	0.933967	7.835906	0.240989	-5.476407	-1.580001	-0.427490	0.011475	-0.468506	19.048510	63.923114	-43.254415
14109		-5.592556	1.412497	8.445161	0.173464	-5.631720	-1.446274	-0.458008	0.004639	-0.473877	15.770869	61.091387	-47.062301
14110		-6.253471	1.880187	9.158774	0.029407	-5.754368	-1.249757	-0.491455	0.002441	-0.488037	13.195291	58.071622	-50.069380
14111		-6.920268	2.383329	9.836443	-0.179891	-5.856368	-1.009786	-0.515625	0.008301	-0.489502	11.167453	54.913782	-52.379272
14112		-7.648317	2.769665	10.473050	-0.456818	-5.942902	-0.754606	-0.558594	0.001953	-0.504883	9.512006	51.635083	-54.119520
14113		-8.635845	2.556303	11.375893	-0.756429	-6.009630	-0.504767	-0.596680	0.004395	-0.512939	8.110538	48.277043	-55.386058
14114		-10.380149	1.615077	12.289814	-1.003913	-6.100631	-0.279725	-0.636475	0.003662	-0.520264	6.883338	44.825759	-56.285932
14115		-12.501024	0.437232	13.143785	-1.112717	-6.230832	-0.154376	-0.679199	0.004395	-0.514893	5.795450	41.287702	-56.948018
14116		-14.534646	-0.579883	13.403669	-1.027095	-6.360248	-0.174941	-0.724854	0.017822	-0.518066	4.844632	37.661806	-57.519907
14117		-17.326976	2.231350	12.352781	-0.784968	-6.488516	-0.496180	-0.766113	0.016602	-0.514893	3.984299	33.977347	-58.224412
14118		-20.064772	1.749850	12.333246	-0.660181	-6.549391	-1.000088	-0.819092	0.009033	-0.505615	3.100333	30.260837	-59.177525
14119		-24.997045	1.385185	11.178388	-0.517918	-6.466801	-1.330142	-0.865234	0.014648	-0.491699	2.297878	26.595787	-60.243420
14120		-29.590827	1.000400	8.852329	-0.414265	-6.198854	-1.489303	-0.911377	0.003906	-0.471436	1.609529	23.069496	-61.319932
14121		-32.211551	0.574383	4.909790	-0.381536	-5.739726	-1.459317	-0.943604	-0.006592	-0.454346	1.034189	19.801181	-62.301228
14122		-32.148960	0.270013	0.075809	-0.278781	-5.167899	-1.324148	-0.968262	-0.007568	-0.436279	0.609480	16.847303	-63.147924
14123		-30.756402	0.384352	-4.901646	0.006697	-4.541889	-1.172684	-0.997314	-0.018066	-0.407471	0.421421	14.251307	-63.871404
14124		-27.297994	-1.144004	-8.094642	0.448292	-3.789377	-0.917203	-1.024414	-0.023438	-0.394287	0.551772	12.082664	-64.432376
14125		-21.835849	-0.540723	-8.267932	1.224826	-1.689524	-0.628879	-1.031250	-0.035645	-0.380127	1.178330	11.120402	-64.816896
14126		-22.265631	-4.266009	-18.628967	1.686364	0.474193	-0.258845	-1.021729	-0.044922	-0.384033	2.117370	11.395960	-64.962108
14127		-26.048350	-2.791530	-20.829550	2.426487	2.853496	-0.253855	-1.009766	-0.050049	-0.391602	3.495331	13.036284	-65.030652
14128		-4.087937	7.187980	-12.779093	2.019137	4.593730	-0.678652	-0.987305	-0.071045	-0.395752	4.601160	15.690746	-65.241010
14129		-11.031653	16.513341	12.068061	0.000297	4.915745	-1.618494	-0.963867	-0.070801	-0.399658	4.385895	18.571621	-65.979264
14130		-9.994813	15.383195	22.304899	-0.721815	4.392187	-2.665128	-0.937256	-0.089600	-0.416992	3.484771	21.189175	-67.417121
14131		-13.171541	0.177258	11.271425	-0.465098	4.562071	-2.254189	-0.900391	-0.096436	-0.429932	2.743429	23.869744	-68.661395
14132		-7.608071	13.980766	11.269547	-0.599301	4.959330	-0.571463	-0.885254	-0.088623	-0.434570	2.305790	26.725140	-68.886356
14133		-28.607478	-7.129509	18.733117	-0.025511	4.794896	0.246699	-0.851074	-0.085449	-0.449463	2.428312	29.464496	-68.599678
14134		-41.290288	-16.686053	9.263114	1.130536	2.404224	0.665963	-0.845703	-0.096436	-0.450439	3.338970	30.823899	-68.080387
14135		4.086503	6.758128	7.848029	0.901973	1.454246	0.184464	-0.836182	-0.093506	-0.456543	3.952905	31.649009	-67.897126
14136		-9.412552	7.307840	9.754049	0.663235	1.614519	0.186449	-0.829346	-0.096436	-0.450928	4.443120	32.567355	-67.693008
14137		-8.747893	-2.498140	6.657828	0.509032	1.013745	0.068629	-0.828125	-0.110107	-0.458008	4.791246	33.143465	-67.592786
14138		-6.836312	2.573647	8.507073	0.489859	0.763182	0.038476	-0.815430	-0.106445	-0.447998	5.112187	33.580959	-67.522835
14139		-7.259758	1.972083	8.218341	0.366536	0.608988	0.021519	-0.812500	-0.104004	-0.453857	5.352592	33.927651	-67.471906
14140		-6.438552	0.811081	8.426056	0.254126	0.207490	0.015463	-0.812256	-0.111084	-0.456787	5.512791	34.048932	-67.449183
14141		-6.500296	1.720411	8.232181	0.209054	0.232740	-0.009328	-0.812012	-0.116211	-0.447266	5.638654	34.182528	-67.442076
14142		-6.155425	1.424857	8.200010	0.137454	0.124919	-0.053549	-0.815430	-0.113770	-0.449219	5.702540	34.260521	-67.471934
14143		-5.716788	0.600600	8.235472	0.075476	0.089638	-0.041673	-0.819092	-0.116699	-0.448242	5.733976	34.314364	-67.496616
14144		-5.575769	0.526660	8.262371	0.059019	0.096488	-0.036600	-0.817383	-0.118652	-0.441650	5.758406	34.375143	-67.516683
14145		-5.542263	0.486084	8.202819	0.044215	0.087802	0.003132	-0.814697	-0.113037	-0.451172	5.789324	34.425377	-67.510509
14146		-5.573120	0.209476	8.319535	0.033584	0.072691	0.033364	-0.816895	-0.116211	-0.448242	5.825557	34.468465	-67.483873
14147		-5.923131	0.389274	8.086896	0.004612	0.009486	0.085096	-0.821533	-0.108398	-0.451904	5.862769	34.469273	-67.426495
14148		-6.182902	0.598372	8.010079	-0.005514	-0.132931	0.120513	-0.812744	-0.115234	-0.452393	5.902357	34.389948	-67.354258
14149		-5.990244	0.959097	8.187419	0.004509	-0.260933	0.127528	-0.814941	-0.106201	-0.443604	5.944912	34.234070	-67.287067
14150		-5.684815	0.821479	8.347140	0.009253	-0.292250	0.120220	-0.814209	-0.116211	-0.452637	5.985908	34.063834	-67.226891
14151		-5.452722	0.799021	8.399845	0.001690	-0.241576	0.124696	-0.818848	-0.107666	-0.452393	6.025938	33.919076	-67.160771
14152		-5.257757	0.720238	8.403290	-0.010924	-0.152398	0.112291	-0.820557	-0.114014	-0.447998	6.057501	33.828850	-67.096367
14153		-5.352973	0.841197	8.434020	-0.008380	-0.053009	0.109481	-0.820557	-0.108887	-0.446777	6.093245	33.792382	-67.027271
14154		-5.464872	0.985971	8.357072	-0.014109	0.020670	0.098362	-0.816406	-0.111328	-0.446289	6.124555	33.801442	-66.959927
14155		-5.482133	0.966200	8.286908	-0.013613	0.071975	0.091487	-0.821533	-0.103516	-0.447998	6.155550	33.837212	-66.893992
14156		-5.645716	1.119521	8.262470	-0.025135	0.106818	0.068590	-0.821777	-0.113037	-0.450439	6.172831	33.897040	-66.840638
14157		-5.621455	1.014160	8.268700	-0.037036	0.129475	0.046488	-0.817627	-0.117188	-0.451904	6.175715	33.968305	-66.801213
