// General information: 
//  MT Manager version: 2022.2.0 
//  XDA version: 2022.2.0 build 7381 rev 124627 built on 2023-07-19
// Device information: 
//  DeviceId: 00B4C223
//  ProductCode: MTW2-3A7G6
//  Firmware Version: 4.6.0
//  Hardware Version: 2.0.0
// Device settings: 
//  Filter Profile: human(46.1)
//  Option Flags: Orientation Smoother Disabled, Position/Velocity Smoother Disabled, Continuous Zero Rotation Update Disabled, AHS Disabled, ICC Disabled
// Coordinate system: ENU
PacketCounter	SampleTimeFine	Acc_X	Acc_Y	Acc_Z	Gyr_X	Gyr_Y	Gyr_Z	Mag_X	Mag_Y	Mag_Z	Roll	Pitch	Yaw
58214		-5.163144	-0.293930	8.474854	-0.007167	-0.019831	-0.001412	0.008301	-0.095703	-0.848145	-1.629647	31.013561	-15.094174
58215		-5.086314	-0.311586	8.469479	-0.005456	-0.022340	-0.003615	0.008301	-0.100342	-0.844971	-1.634243	31.001125	-15.101675
58216		-5.030684	-0.310061	8.444524	-0.002491	-0.020773	0.000937	0.003906	-0.098145	-0.848877	-1.635055	30.989657	-15.105448
58217		-5.082838	-0.346468	8.468874	-0.000962	-0.020255	0.002498	0.002686	-0.093506	-0.845215	-1.634973	30.978477	-15.109179
58218		-5.032890	-0.312792	8.480512	-0.002674	-0.019712	0.003795	0.001221	-0.101563	-0.855469	-1.634916	30.967663	-15.111061
58219		-5.058000	-0.261841	8.498626	0.001817	-0.019594	0.009000	0.000244	-0.098633	-0.852295	-1.631028	30.956939	-15.109931
58220		-5.096105	-0.273695	8.439479	0.001815	-0.021560	0.008093	0.013184	-0.105225	-0.854980	-1.626905	30.945137	-15.108909
58221		-5.102597	-0.259997	8.492922	0.002000	-0.022621	0.005235	0.003662	-0.099121	-0.858398	-1.624153	30.932658	-15.110880
58222		-5.097812	-0.240972	8.478483	0.001814	-0.023526	0.007186	0.007813	-0.100586	-0.854004	-1.620324	30.919715	-15.110429
58223		-5.119777	-0.274558	8.473189	0.001806	-0.029424	0.004465	0.007813	-0.097900	-0.853271	-1.617896	30.903323	-15.112301
58224		-5.093160	-0.308776	8.475987	0.006572	-0.032863	0.004474	0.007813	-0.100098	-0.845703	-1.612181	30.884989	-15.113486
58225		-5.054926	-0.268846	8.416450	-0.000285	-0.036588	0.006946	0.002441	-0.099121	-0.849365	-1.610036	30.864556	-15.113757
58226		-5.006554	-0.287557	8.441697	0.006297	-0.035203	0.006946	0.004883	-0.109375	-0.845947	-1.603611	30.844921	-15.113251
58227		-4.913054	-0.325522	8.490171	0.001628	-0.030327	0.006418	0.005615	-0.096924	-0.845703	-1.600572	30.828038	-15.114831
58228		-4.985593	-0.239128	8.503611	0.003631	-0.022632	0.005366	-0.001221	-0.101074	-0.848389	-1.596336	30.815577	-15.115617
58229		-5.077391	-0.184285	8.476165	-0.000855	-0.016851	0.002888	-0.006836	-0.096436	-0.848145	-1.596093	30.806339	-15.118839
58230		-5.054971	-0.272061	8.491057	-0.004277	-0.015764	0.005486	0.005127	-0.101074	-0.848633	-1.596412	30.797815	-15.119673
58231		-5.053746	-0.306599	8.489135	-0.004186	-0.016294	0.004057	0.001709	-0.097900	-0.841797	-1.597680	30.788893	-15.121970
58232		-5.031104	-0.291180	8.512083	-0.002467	-0.012906	0.004571	0.004639	-0.091797	-0.850586	-1.597301	30.781990	-15.123466
58233		-5.000243	-0.289004	8.482710	-0.005990	-0.017185	0.005880	0.006592	-0.094971	-0.857666	-1.599004	30.772622	-15.123970
58234		-4.980535	-0.291976	8.521202	0.000785	-0.009000	0.006643	0.001221	-0.100586	-0.854980	-1.596092	30.767990	-15.124158
58235		-4.974592	-0.289027	8.487495	-0.002261	-0.002171	0.007154	0.006592	-0.099121	-0.850830	-1.595353	30.767246	-15.124225
58236		-5.022345	-0.253585	8.482695	-0.002632	-0.005947	0.010150	-0.004639	-0.096436	-0.852539	-1.593232	30.764418	-15.122132
58237		-5.070057	-0.218093	8.477924	-0.002444	-0.003076	0.009105	-0.006592	-0.099365	-0.846680	-1.591916	30.763159	-15.121035
58238		-5.045946	-0.287217	8.476504	-0.003886	-0.004123	0.006118	-0.002686	-0.097900	-0.847900	-1.591905	30.761311	-15.121664
58239		-5.042742	-0.234252	8.463751	-0.003881	-0.002157	0.007025	0.007568	-0.100830	-0.847412	-1.592111	30.760498	-15.122202
58240		-5.095966	-0.236180	8.490300	-0.007593	-0.009307	0.009378	-0.003906	-0.103027	-0.857666	-1.593064	30.755733	-15.120562
58241		-5.068551	-0.287044	8.473535	-0.002007	-0.009659	0.000146	-0.000488	-0.101563	-0.851074	-1.594451	30.750578	-15.126064
58242		-5.016701	-0.269695	8.466094	-0.008763	-0.009979	0.003011	0.005615	-0.106934	-0.853271	-1.598238	30.745327	-15.128654
58243		-4.973258	-0.273484	8.508185	-0.004073	-0.006994	0.007163	0.009521	-0.104492	-0.845947	-1.598425	30.741820	-15.129980
58244		-5.068996	-0.271947	8.493194	-0.005610	-0.009476	0.004698	0.006348	-0.096191	-0.857666	-1.599835	30.736883	-15.131455
58245		-5.020076	-0.272920	8.501301	-0.003983	-0.007525	0.005733	-0.003174	-0.095947	-0.842773	-1.600490	30.733097	-15.133033
58246		-4.992620	-0.254815	8.489839	-0.003978	-0.005559	0.006641	-0.005859	-0.095459	-0.843750	-1.600341	30.730435	-15.133286
58247		-4.992310	-0.254807	8.490022	-0.003878	-0.002158	0.007026	0.001465	-0.102051	-0.850830	-1.600562	30.729623	-15.133374
58248		-5.043122	-0.272704	8.498079	-0.006943	-0.003190	0.003911	0.006348	-0.097900	-0.843994	-1.603063	30.728274	-15.135490
58249		-5.042637	-0.238599	8.501006	-0.005416	-0.004640	0.004561	-0.004395	-0.100586	-0.845215	-1.604956	30.726083	-15.137985
58250		-5.114629	-0.272036	8.487025	-0.005333	-0.007135	0.002224	0.003174	-0.097900	-0.849121	-1.607070	30.722447	-15.141151
58251		-5.041552	-0.273511	8.498985	-0.004082	-0.010926	0.005347	0.002686	-0.100342	-0.850830	-1.607870	30.716628	-15.142766
58252		-5.040675	-0.273702	8.499499	-0.005520	-0.010006	0.003268	-0.005127	-0.100586	-0.847900	-1.609709	30.711365	-15.145182
58253		-5.037121	-0.289714	8.481666	-0.004263	-0.011831	0.007298	0.000488	-0.104980	-0.859375	-1.609930	30.705056	-15.145595
58254		-4.936968	-0.272945	8.481904	-0.003899	-0.010020	0.003396	0.009033	-0.097656	-0.847412	-1.610796	30.699787	-15.147925
58255		-4.963124	-0.256679	8.496789	-0.002260	-0.004138	0.006247	0.008301	-0.102295	-0.846924	-1.610304	30.697922	-15.149252
58256		-4.968414	-0.259426	8.530865	-0.005221	0.000197	0.004426	0.006836	-0.098633	-0.841553	-1.611675	30.698521	-15.151087
58257		-4.968855	-0.259858	8.530595	-0.009696	0.009913	0.003772	-0.005127	-0.104980	-0.852539	-1.616419	30.704684	-15.154573
58258		-5.020716	-0.278295	8.538039	-0.011229	0.009398	0.002214	0.002930	-0.098145	-0.848633	-1.622073	30.710516	-15.158056
58259		-5.058645	-0.238488	8.464672	-0.009249	0.009230	-0.002468	0.002197	-0.098877	-0.841064	-1.628666	30.716096	-15.165477
58260		-5.067680	-0.260734	8.513781	-0.012761	0.008883	0.000657	-0.001221	-0.105713	-0.851074	-1.635724	30.721607	-15.169989
58261		-5.060336	-0.309099	8.458276	-0.008181	0.004532	0.002605	-0.000977	-0.092773	-0.861328	-1.639922	30.724595	-15.174289
58262		-5.063102	-0.293732	8.476563	-0.006848	-0.001754	0.003389	0.003906	-0.102051	-0.851318	-1.642560	30.724059	-15.176779
58263		-5.089757	-0.311960	8.488489	-0.002444	-0.005046	0.008196	0.000732	-0.098145	-0.849854	-1.641529	30.721661	-15.175789
58264		-5.037991	-0.259591	8.483670	-0.000923	-0.008461	0.007937	0.005859	-0.102539	-0.857422	-1.639159	30.717358	-15.175121
58265		-5.034506	-0.274988	8.465809	0.000327	-0.012253	0.011058	0.004150	-0.094482	-0.855957	-1.635468	30.710901	-15.172820
58266		-4.940088	-0.329226	8.494559	0.000598	-0.011877	0.007678	0.010010	-0.111084	-0.850342	-1.632282	30.704638	-15.172260
58267		-5.035355	-0.258112	8.485281	0.002414	-0.007055	0.007672	-0.005371	-0.095703	-0.850830	-1.628584	30.701136	-15.172853
58268		-5.037642	-0.241922	8.503873	-0.002072	-0.001268	0.005203	-0.000244	-0.102539	-0.856934	-1.627872	30.700909	-15.174144
58269		-5.032007	-0.239074	8.470003	-0.002348	-0.003610	0.007676	0.005615	-0.103027	-0.853516	-1.626956	30.699283	-15.173865
58270		-5.034694	-0.292072	8.483026	-0.005414	-0.004638	0.004561	0.013184	-0.095703	-0.851807	-1.628344	30.697115	-15.175519
58271		-4.988776	-0.277363	8.509237	-0.005320	-0.003203	0.004040	0.007324	-0.096436	-0.849854	-1.630377	30.695782	-15.177954
58272		-5.034223	-0.292432	8.483293	-0.003780	-0.000723	0.006505	0.006348	-0.093994	-0.853760	-1.630206	30.695888	-15.178388
58273		-5.015306	-0.295601	8.521249	-0.003975	-0.005560	0.006639	0.006592	-0.098145	-0.843994	-1.630592	30.693215	-15.178256
58274		-5.039190	-0.294969	8.517566	-0.000625	-0.000224	0.008190	0.000000	-0.099854	-0.854980	-1.628045	30.693634	-15.177577
58275		-5.035916	-0.241594	8.504904	-0.001002	-0.005967	0.010275	0.008545	-0.098877	-0.856445	-1.625447	30.690751	-15.175866
58276		-5.033066	-0.257191	8.486666	-0.003866	-0.000194	0.007935	0.001709	-0.098145	-0.848145	-1.624844	30.691183	-15.175357
58277		-5.054365	-0.272437	8.464584	-0.002441	-0.005045	0.008197	-0.003662	-0.089111	-0.851318	-1.623792	30.688811	-15.174851
58278		-5.037967	-0.293993	8.518323	-0.002543	-0.008446	0.007809	0.008545	-0.097656	-0.851563	-1.622395	30.684515	-15.174271
58279		-5.007875	-0.291406	8.488488	0.000801	-0.005076	0.008452	-0.004883	-0.100586	-0.856201	-1.619437	30.682102	-15.172597
58280		-4.980410	-0.272871	8.477027	-0.001009	-0.007932	0.009366	0.005859	-0.098633	-0.847656	-1.616637	30.678125	-15.170990
58281		-4.991005	-0.277948	8.545170	-0.000529	0.001211	0.007670	0.001221	-0.098145	-0.848633	-1.614708	30.679283	-15.171116
58282		-5.033713	-0.239719	8.506261	-0.005478	0.001788	0.008717	-0.001465	-0.103760	-0.853271	-1.614783	30.680862	-15.170123
58283		-5.012561	-0.258851	8.525597	-0.005304	0.000729	0.005858	-0.002686	-0.095703	-0.847412	-1.616187	30.681708	-15.171726
58284		-5.031473	-0.255728	8.487655	-0.001692	0.004475	0.003120	0.007080	-0.098877	-0.848877	-1.616020	30.684736	-15.174512
58285		-5.055826	-0.255396	8.483691	-0.005036	0.001106	0.002477	-0.000977	-0.098633	-0.846924	-1.618453	30.685765	-15.177892
58286		-5.061298	-0.258412	8.517646	-0.005130	-0.000329	0.002998	0.005371	-0.095947	-0.857910	-1.620251	30.686039	-15.180669
58287		-5.007902	-0.325687	8.485821	-0.003707	-0.005181	0.003259	0.004639	-0.095215	-0.852539	-1.621598	30.683480	-15.183175
58288		-5.057814	-0.239961	8.502433	-0.000820	-0.005062	0.008324	0.006592	-0.102295	-0.840820	-1.619072	30.681130	-15.182316
58289		-5.001217	-0.288183	8.455242	-0.000750	-0.009520	0.005076	0.003906	-0.094727	-0.853027	-1.618048	30.676151	-15.184320
58290		-4.982055	-0.291068	8.493334	0.000991	-0.002206	0.007409	-0.001709	-0.105225	-0.847168	-1.614823	30.675421	-15.184124
58291		-5.008721	-0.274271	8.507953	-0.000795	0.000833	0.011050	0.000244	-0.101074	-0.849609	-1.611883	30.676420	-15.182173
58292		-5.059217	-0.222673	8.521571	-0.000544	-0.002719	0.005852	-0.003174	-0.100342	-0.851563	-1.610061	30.675372	-15.183004
58293		-5.056791	-0.272842	8.500438	-0.003595	0.000185	0.004556	0.005371	-0.099121	-0.854248	-1.610915	30.675867	-15.185370
58294		-5.024519	-0.286498	8.451952	-0.003880	-0.004122	0.006118	0.000244	-0.099121	-0.852051	-1.610900	30.674020	-15.185998
58295		-5.032049	-0.273417	8.504618	-0.003983	-0.007523	0.005730	0.001465	-0.103516	-0.850586	-1.611527	30.670167	-15.187102
58296		-5.052597	-0.254282	8.485648	-0.002638	-0.009881	0.008329	0.001221	-0.100098	-0.852295	-1.609995	30.665057	-15.186150
58297		-5.054596	-0.272543	8.501753	0.000690	-0.010443	0.007153	-0.001465	-0.100098	-0.853760	-1.607402	30.659541	-15.186877
58298		-5.031972	-0.256781	8.524607	-0.001396	-0.015640	0.010539	-0.004395	-0.104492	-0.847412	-1.604354	30.651168	-15.184347
58299		-5.028012	-0.272163	8.507045	0.000216	-0.017621	0.009757	0.007813	-0.092285	-0.855225	-1.601069	30.641538	-15.183203
58300		-4.997087	-0.269583	8.477689	-0.002930	-0.016152	0.008983	0.000488	-0.088379	-0.852295	-1.599424	30.632847	-15.181700
58301		-4.950752	-0.323247	8.498788	0.000502	-0.013314	0.008195	-0.007568	-0.101563	-0.853027	-1.596682	30.625739	-15.179038
58302		-4.976202	-0.271919	8.516772	0.002142	-0.009402	0.010139	0.007324	-0.094482	-0.847656	-1.591804	30.620933	-15.176892
58303		-5.026257	-0.254558	8.528044	0.000967	-0.008101	0.004681	0.007813	-0.098145	-0.856445	-1.589946	30.616706	-15.178527
58304		-5.025340	-0.219836	8.531228	-0.000824	-0.007026	0.007415	0.000488	-0.099854	-0.857666	-1.587714	30.613216	-15.178238
58305		-5.019517	-0.251308	8.494863	-0.002549	-0.010409	0.006901	0.000488	-0.100342	-0.845703	-1.587098	30.607753	-15.178302
58306		-5.018794	-0.251092	8.495297	-0.000824	-0.007026	0.007415	0.001953	-0.098389	-0.851318	-1.584866	30.604264	-15.178014
58307		-5.069200	-0.268422	8.503739	-0.002454	-0.008973	0.006380	0.002441	-0.099365	-0.851318	-1.584364	30.599582	-15.179017
58308		-5.041738	-0.284514	8.489601	0.000693	-0.010443	0.007153	-0.004150	-0.103027	-0.856201	-1.581319	30.594131	-15.178841
58309		-5.005091	-0.175715	8.434333	0.003671	-0.010855	0.010786	0.000977	-0.100098	-0.844727	-1.575784	30.588418	-15.176789
58310		-5.027171	-0.357912	8.556875	0.000250	-0.011726	0.012485	0.003174	-0.086914	-0.857178	-1.571177	30.582316	-15.173043
58311		-5.068176	-0.284629	8.521713	0.003546	-0.018184	0.008579	-0.004395	-0.098145	-0.855469	-1.566478	30.572409	-15.170866
58312		-5.041857	-0.250024	8.529419	0.001358	-0.026779	0.011580	0.010498	-0.103760	-0.855713	-1.561406	30.557671	-15.167451
58313		-4.940706	-0.232866	8.529942	0.001759	-0.017108	0.011314	0.003174	-0.098145	-0.845947	-1.556742	30.548440	-15.164981
58314		-4.910503	-0.298979	8.494903	0.000580	-0.015807	0.005857	-0.003662	-0.098877	-0.843506	-1.554153	30.539897	-15.165573
58315		-4.941196	-0.250444	8.546927	0.002423	-0.007060	0.007666	-0.001953	-0.093506	-0.846436	-1.550442	30.536321	-15.165783
58316		-5.036922	-0.213730	8.534997	-0.005314	-0.003194	0.004048	0.000244	-0.097900	-0.848145	-1.551957	30.534974	-15.167806
58317		-5.031235	-0.211357	8.501190	-0.006946	-0.005141	0.003014	0.006836	-0.099609	-0.843750	-1.555235	30.532416	-15.170205
58318		-5.036411	-0.248918	8.532668	-0.007040	-0.006576	0.003535	0.006592	-0.103516	-0.853271	-1.557881	30.529123	-15.172507
58319		-5.033332	-0.265145	8.514592	-0.005336	-0.007123	0.002230	-0.000488	-0.101563	-0.851807	-1.560423	30.525516	-15.177208
58320		-5.003454	-0.297580	8.481960	-0.004082	-0.010918	0.005347	0.000000	-0.099609	-0.852295	-1.560722	30.519765	-15.178227
58321		-5.002413	-0.297567	8.482575	-0.004532	-0.014166	0.009770	-0.001465	-0.097656	-0.847900	-1.560200	30.512151	-15.176811
58322		-4.979331	-0.247619	8.508192	-0.001195	-0.012767	0.009499	-0.001465	-0.105713	-0.850098	-1.557426	30.505406	-15.175036
58323		-5.029156	-0.230302	8.519682	0.000793	-0.009008	0.006631	0.003662	-0.095215	-0.846924	-1.554942	30.500685	-15.176241
58324		-5.050107	-0.279458	8.495359	0.001858	-0.015674	0.010790	-0.000488	-0.098877	-0.848877	-1.549957	30.492294	-15.173557
58325		-5.024334	-0.244966	8.502687	0.000238	-0.015655	0.010666	0.001221	-0.098877	-0.847412	-1.546428	30.483872	-15.170986
58326		-5.049398	-0.228052	8.518299	0.000121	-0.021020	0.009368	-0.001465	-0.098145	-0.854004	-1.542871	30.472398	-15.169153
58327		-5.018419	-0.259753	8.486343	0.001637	-0.024438	0.009104	-0.010986	-0.093506	-0.848389	-1.538970	30.458903	-15.167557
58328		-4.949286	-0.263691	8.532700	-0.001604	-0.024400	0.008856	0.000977	-0.099854	-0.846436	-1.536546	30.445484	-15.166005
58329		-4.944878	-0.279107	8.515433	-0.000052	-0.021925	0.011320	0.001221	-0.095459	-0.855713	-1.532901	30.433401	-15.162521
58330		-4.937495	-0.241542	8.485255	-0.001401	-0.019565	0.008724	0.001221	-0.097412	-0.853027	-1.530450	30.422750	-15.161145
58331		-4.869686	-0.280170	8.528167	-0.002256	-0.006099	0.005342	0.000977	-0.097168	-0.848877	-1.530245	30.419729	-15.161670
58332		-4.919966	-0.263034	8.539440	-0.000622	-0.004154	0.006374	-0.000977	-0.095215	-0.853271	-1.528277	30.417868	-15.162129
58333		-5.040032	-0.225665	8.523907	-0.003757	-0.000716	0.006516	0.003174	-0.096436	-0.847168	-1.528581	30.417926	-15.162140
58334		-4.989324	-0.242749	8.512880	-0.005202	0.000209	0.004442	0.006104	-0.090576	-0.850586	-1.529926	30.418535	-15.163960
58335		-4.960338	-0.275224	8.479720	-0.005202	0.000209	0.004442	-0.001953	-0.095215	-0.846191	-1.531798	30.419157	-15.165228
58336		-5.013362	-0.242564	8.509230	-0.003688	-0.003210	0.004176	-0.003174	-0.102783	-0.843506	-1.532333	30.417803	-15.167163
58337		-4.967397	-0.227986	8.535114	-0.005378	-0.000697	0.006393	-0.011230	-0.104492	-0.849854	-1.533549	30.417832	-15.168455
58338		-4.948952	-0.265670	8.569983	-0.004001	0.000870	0.010807	0.000244	-0.103516	-0.854980	-1.532072	30.418917	-15.166059
58339		-4.992111	-0.261534	8.528495	-0.000407	0.002645	0.007151	-0.001709	-0.102539	-0.852539	-1.530155	30.420827	-15.167291
58340		-4.986659	-0.224249	8.497185	-0.005446	0.001796	0.008732	-0.006836	-0.098877	-0.846680	-1.530211	30.422410	-15.166289
58341		-4.963136	-0.259306	8.497930	-0.005270	0.002703	0.006781	-0.005127	-0.096680	-0.849365	-1.531246	30.424366	-15.167222
58342		-4.971336	-0.246347	8.550071	-0.004891	0.008444	0.004699	-0.001465	-0.103027	-0.848145	-1.532401	30.429695	-15.169017
58343		-5.014709	-0.208377	8.511023	-0.008038	0.009918	0.003931	-0.006592	-0.096924	-0.847168	-1.536057	30.435752	-15.171876
58344		-5.039976	-0.242744	8.504043	-0.007969	0.007425	0.001591	-0.004395	-0.094238	-0.854004	-1.540013	30.440450	-15.175718
58345		-5.016474	-0.243780	8.507361	-0.006606	0.007028	0.005096	-0.004150	-0.101074	-0.851563	-1.542486	30.444835	-15.176232
58346		-5.019891	-0.297040	8.520002	-0.005310	-0.003190	0.004051	0.000488	-0.093994	-0.854736	-1.543994	30.443490	-15.178250
58347		-5.011922	-0.310058	8.467718	-0.000787	-0.003098	0.009234	-0.002441	-0.099121	-0.850342	-1.541630	30.442198	-15.176428
58348		-4.959614	-0.223570	8.465449	-0.002434	-0.007007	0.007290	-0.004883	-0.100342	-0.855225	-1.540366	30.438717	-15.176227
58349		-4.970544	-0.297482	8.528067	0.000658	-0.004025	0.011308	-0.001709	-0.097656	-0.857422	-1.536431	30.436899	-15.173528
58350		-4.964106	-0.225412	8.499943	-0.000881	-0.004534	0.009754	0.003174	-0.104492	-0.848389	-1.533471	30.434873	-15.171734
58351		-4.990872	-0.243039	8.511964	-0.000515	-0.000756	0.006762	0.002441	-0.106934	-0.843994	-1.531757	30.434928	-15.172853
58352		-5.014913	-0.242105	8.508329	-0.000691	-0.001663	0.008713	-0.008545	-0.110107	-0.854736	-1.529063	30.434530	-15.171803
58353		-4.993553	-0.261015	8.527666	-0.002135	-0.000736	0.006639	0.003174	-0.098389	-0.846924	-1.528195	30.434535	-15.175231
58354		-5.012211	-0.257465	8.490080	-0.000624	-0.004155	0.006373	-0.005127	-0.091309	-0.853027	-1.526229	30.432673	-15.175691
58355		-4.966146	-0.242588	8.516039	-0.004189	-0.002000	0.011848	-0.002686	-0.106934	-0.846924	-1.524985	30.432067	-15.171516
58356		-5.014491	-0.275412	8.506023	0.000726	-0.006518	0.008967	-0.000977	-0.096191	-0.852051	-1.521351	30.428892	-15.170211
58357		-5.013469	-0.240701	8.509220	-0.004231	-0.007892	0.009118	0.001465	-0.102295	-0.854004	-1.520892	30.424857	-15.169843
58358		-4.988985	-0.275565	8.510539	-0.002720	-0.011312	0.008852	-0.004639	-0.100830	-0.846924	-1.519229	30.418934	-15.168531
58359		-4.988070	-0.275178	8.511088	0.000441	-0.010824	0.010528	-0.014648	-0.105225	-0.855713	-1.515596	30.413248	-15.167083
58360		-4.986673	-0.240344	8.514502	-0.002895	-0.012218	0.010803	0.002686	-0.093506	-0.857422	-1.513370	30.406835	-15.164460
58361		-5.033947	-0.238639	8.507730	0.002143	-0.011373	0.009221	-0.011230	-0.104980	-0.848389	-1.509236	30.400742	-15.162346
58362		-4.987382	-0.257812	8.531374	0.000062	-0.016565	0.012610	-0.003662	-0.098633	-0.850342	-1.504672	30.391866	-15.158448
58363		-4.983679	-0.273094	8.513727	0.000413	-0.014752	0.008708	-0.001953	-0.102783	-0.855225	-1.501618	30.383813	-15.157935
58364		-4.928933	-0.270922	8.487799	0.003400	-0.015171	0.012335	0.003662	-0.097412	-0.848145	-1.495247	30.375731	-15.154246
58365		-4.938362	-0.275493	8.556471	0.003607	-0.010337	0.012204	-0.010254	-0.097900	-0.852539	-1.489280	30.370408	-15.151250
58366		-4.956019	-0.236857	8.522098	0.002002	-0.008352	0.012992	-0.006836	-0.102051	-0.854248	-1.483551	30.366241	-15.147245
58367		-4.979627	-0.235610	8.518757	-0.000874	-0.004532	0.009755	-0.003906	-0.102295	-0.849121	-1.481013	30.364041	-15.145161
58368		-4.978785	-0.200792	8.521819	-0.000874	-0.004532	0.009755	-0.003906	-0.098389	-0.856201	-1.478052	30.362014	-15.143371
58369		-4.952638	-0.251443	8.504288	-0.003734	0.001251	0.007429	0.001709	-0.102783	-0.860840	-1.477983	30.363178	-15.143397
58370		-4.979485	-0.269246	8.516303	-0.002415	-0.005040	0.008202	0.005859	-0.105713	-0.845947	-1.476422	30.360837	-15.142629
58371		-4.928249	-0.251732	8.508109	-0.002192	0.001759	0.008981	0.005371	-0.100098	-0.852783	-1.474907	30.362449	-15.143314
58372		-4.981671	-0.252811	8.534860	-0.000953	-0.004004	0.011186	-0.004150	-0.102295	-0.847900	-1.471516	30.360745	-15.140584
58373		-4.981623	-0.252266	8.534904	0.000972	0.002244	0.010656	0.004395	-0.105225	-0.853516	-1.467669	30.362599	-15.139160
58374		-4.976489	-0.249045	8.500843	-0.002461	-0.000583	0.011453	-0.005371	-0.099854	-0.850830	-1.465082	30.362858	-15.136311
58375		-4.961776	-0.186028	8.578260	-0.002382	-0.001111	0.010022	0.000732	-0.094727	-0.846680	-1.463320	30.362758	-15.135417
58376		-5.027057	-0.231208	8.512008	-0.000665	0.000302	0.009624	0.003906	-0.104004	-0.854492	-1.460325	30.363497	-15.133797
58377		-4.955227	-0.267380	8.520117	-0.005527	0.000368	0.009258	-0.005615	-0.096191	-0.853760	-1.460686	30.364281	-15.132618
58378		-4.983939	-0.235068	8.553402	-0.003862	-0.004111	0.006129	-0.002686	-0.096680	-0.849121	-1.460657	30.362442	-15.133243
58379		-4.973101	-0.229362	8.485591	0.000826	-0.005083	0.008446	-0.007568	-0.104492	-0.855225	-1.457639	30.359972	-15.131168
58380		-5.005009	-0.249706	8.531738	-0.004019	-0.003053	0.008990	0.001709	-0.108154	-0.852051	-1.456749	30.358780	-15.129912
58381		-4.978079	-0.265962	8.517228	-0.000986	-0.007932	0.009365	-0.000732	-0.096191	-0.848145	-1.454281	30.354718	-15.130310
58382		-4.953361	-0.266402	8.521233	-0.004132	-0.006452	0.008601	-0.000732	-0.099365	-0.850098	-1.453558	30.351574	-15.129255
58383		-4.931172	-0.251040	8.543562	-0.000698	-0.003626	0.007804	-0.001465	-0.100830	-0.847656	-1.451623	30.349994	-15.128404
58384		-4.998097	-0.245892	8.498740	-0.000854	-0.002569	0.010665	-0.002930	-0.108887	-0.840332	-1.448363	30.349104	-15.126044
58385		-5.003082	-0.248450	8.532904	-0.005560	-0.003558	0.007438	-0.006592	-0.101563	-0.846191	-1.449206	30.347532	-15.128201
58386		-4.975677	-0.230570	8.521202	-0.002258	-0.006096	0.005341	-0.007080	-0.097900	-0.847412	-1.448506	30.344544	-15.129316
58387		-4.999423	-0.229979	8.517776	-0.005307	-0.003180	0.004057	-0.003174	-0.104980	-0.856689	-1.450424	30.343055	-15.131452
58388		-4.973096	-0.280981	8.500360	-0.004131	-0.006452	0.008601	-0.009277	-0.096924	-0.850830	-1.449701	30.339911	-15.130398
58389		-4.977222	-0.249275	8.537559	-0.004052	-0.006980	0.007170	0.000732	-0.093018	-0.850830	-1.449819	30.336306	-15.130283
58390		-4.997834	-0.229925	8.518710	-0.002528	-0.008438	0.007812	0.000244	-0.098633	-0.858398	-1.448425	30.332013	-15.129719
58391		-4.973587	-0.264954	8.519884	-0.003974	-0.007508	0.005739	0.000977	-0.101318	-0.848145	-1.449074	30.328212	-15.129025
58392		-4.996530	-0.229697	8.519481	-0.000984	-0.007932	0.009364	-0.006592	-0.099609	-0.857422	-1.446281	30.324231	-15.127439
58393		-4.974383	-0.248866	8.539225	-0.004029	-0.013399	0.003008	-0.002686	-0.096191	-0.852295	-1.447734	30.316957	-15.130096
58394		-4.946478	-0.230962	8.527801	-0.002604	-0.007909	0.009243	-0.006104	-0.108887	-0.851807	-1.445909	30.312987	-15.128592
58395		-4.994609	-0.263484	8.518090	0.002085	-0.008886	0.011558	-0.001465	-0.100342	-0.849121	-1.440993	30.308394	-15.126337
58396		-4.974106	-0.232014	8.559208	-0.001135	-0.015258	0.007153	-0.002441	-0.104004	-0.847168	-1.438965	30.300184	-15.126098
58397		-4.991784	-0.228353	8.522299	-0.002832	-0.014707	0.008462	0.002686	-0.101563	-0.843750	-1.437859	30.292263	-15.126175
58398		-4.988179	-0.243848	8.504623	0.000314	-0.016188	0.009225	-0.001465	-0.101563	-0.850830	-1.434301	30.283551	-15.124546
58399		-4.988960	-0.227651	8.523971	-0.001344	-0.020092	0.007283	-0.004395	-0.100830	-0.847412	-1.432707	30.272582	-15.125282
58400		-4.982616	-0.258730	8.488121	0.003096	-0.021447	0.012978	-0.005859	-0.099854	-0.847168	-1.426257	30.260911	-15.121079
58401		-4.961788	-0.261512	8.526866	0.000086	-0.022985	0.008444	0.000488	-0.093994	-0.854248	-1.423444	30.248196	-15.120204
58402		-4.959129	-0.226303	8.530958	0.006130	-0.026328	0.013348	-0.005859	-0.102539	-0.858887	-1.415095	30.233734	-15.115679
58403		-4.956952	-0.225375	8.532247	0.001441	-0.025350	0.011037	-0.002441	-0.102539	-0.851074	-1.410688	30.219757	-15.111570
58404		-4.958371	-0.277512	8.546187	0.006572	-0.023080	0.008925	-0.013672	-0.089111	-0.843750	-1.403593	30.207092	-15.110034
58405		-4.952886	-0.223526	8.534657	0.004610	-0.024868	0.012708	-0.008301	-0.102295	-0.854736	-1.396834	30.193313	-15.104493
58406		-4.953779	-0.241161	8.551416	0.003182	-0.021974	0.011548	0.000000	-0.104248	-0.850342	-1.390819	30.181318	-15.101241
58407		-4.924900	-0.222577	8.540503	0.001637	-0.022478	0.009998	-0.007080	-0.098145	-0.856934	-1.386574	30.168958	-15.099994
58408		-4.925336	-0.205940	8.560014	0.004901	-0.020563	0.011147	-0.004639	-0.097900	-0.848877	-1.379722	30.157765	-15.097034
58409		-4.922370	-0.255057	8.539518	0.006700	-0.011298	0.014386	-0.009033	-0.097168	-0.843506	-1.371303	30.151840	-15.090955
58410		-4.941737	-0.200275	8.523986	0.005072	-0.019657	0.009196	-0.005859	-0.097168	-0.853027	-1.365011	30.141139	-15.089305
58411		-4.966263	-0.148044	8.542455	0.008099	-0.009735	0.018797	-0.006592	-0.095947	-0.848389	-1.354341	30.136139	-15.080393
58412		-4.917699	-0.336161	8.517632	0.003376	-0.019103	0.010509	-0.007324	-0.097900	-0.851318	-1.348591	30.125772	-15.077886
58413		-4.860406	-0.196642	8.502875	0.002213	-0.013868	0.006876	-0.015625	-0.110352	-0.848633	-1.345238	30.118260	-15.076580
58414		-4.868042	-0.251938	8.550227	0.001048	-0.008633	0.003243	-0.004883	-0.102051	-0.857422	-1.343320	30.113792	-15.079049
58415		-4.898218	-0.203540	8.602370	-0.000308	-0.006268	0.000653	-0.009766	-0.101563	-0.848877	-1.343361	30.110482	-15.084592
58416		-4.916808	-0.200230	8.565051	-0.003455	-0.004784	-0.000105	-0.005615	-0.094482	-0.845703	-1.345164	30.108175	-15.089337
58417		-4.938494	-0.215730	8.543193	-0.006654	-0.000807	0.001479	-0.002686	-0.104248	-0.846436	-1.348758	30.108058	-15.092412
58418		-4.916997	-0.235472	8.562445	-0.005150	-0.004230	0.001208	-0.006592	-0.098389	-0.851074	-1.351101	30.106085	-15.096296
58419		-4.933569	-0.247990	8.506572	-0.000265	-0.002341	0.002472	-0.008301	-0.098389	-0.851563	-1.350636	30.105168	-15.100085
58420		-4.911562	-0.233026	8.528601	-0.006802	0.000251	0.004340	-0.006592	-0.102295	-0.853271	-1.352920	30.105804	-15.101965
58421		-4.935094	-0.198173	8.527883	-0.005181	0.000226	0.004459	-0.003906	-0.098877	-0.855225	-1.354654	30.106323	-15.103335
58422		-4.967848	-0.253270	8.571111	-0.003560	0.000201	0.004577	-0.015625	-0.105225	-0.855957	-1.355002	30.106933	-15.105058
58423		-4.937888	-0.217020	8.543510	-0.005372	-0.002643	0.005500	-0.006836	-0.109619	-0.849365	-1.356444	30.105773	-15.105674
58424		-4.937673	-0.217135	8.543632	-0.003750	-0.002668	0.005618	-0.005371	-0.106689	-0.848145	-1.356532	30.104753	-15.106662
58425		-4.940029	-0.235773	8.559517	-0.003985	-0.009465	0.004839	-0.011963	-0.097900	-0.852295	-1.357213	30.099757	-15.111201
58426		-4.934438	-0.233043	8.525773	-0.003993	-0.003046	0.009001	-0.003662	-0.104248	-0.856445	-1.356314	30.098568	-15.109944
58427		-4.915041	-0.236520	8.563539	-0.005636	-0.004984	0.007972	-0.003174	-0.110107	-0.853516	-1.357091	30.096145	-15.108898
58428		-4.936558	-0.251399	8.541802	-0.001015	-0.005437	0.011709	-0.010498	-0.100830	-0.855469	-1.353569	30.093622	-15.105811
58429		-4.933294	-0.232382	8.526453	-0.000846	-0.004531	0.009757	-0.009033	-0.102539	-0.854004	-1.350926	30.091506	-15.105364
58430		-4.932204	-0.197707	8.529565	-0.004183	-0.005915	0.010042	0.003174	-0.100098	-0.855225	-1.349768	30.088687	-15.103373
58431		-4.915505	-0.219488	8.583019	-0.000941	-0.005966	0.010278	-0.008545	-0.101807	-0.856689	-1.347091	30.085846	-15.101275
58432		-4.936942	-0.234163	8.561341	-0.000868	-0.006494	0.008847	-0.007813	-0.095947	-0.853027	-1.344426	30.082678	-15.100067
58433		-4.906729	-0.197430	8.533887	-0.000653	-0.001661	0.008716	-0.010010	-0.100342	-0.846436	-1.342174	30.082161	-15.097599
58434		-4.983922	-0.197595	8.557530	-0.004183	-0.005914	0.010042	-0.003906	-0.099121	-0.847656	-1.341016	30.079342	-15.095608
58435		-4.952847	-0.245602	8.505914	-0.000749	-0.003096	0.009237	-0.007324	-0.092041	-0.853760	-1.338597	30.078040	-15.094227
58436		-4.932587	-0.214209	8.546643	0.000489	-0.008861	0.011436	-0.004639	-0.102051	-0.850830	-1.334278	30.073551	-15.091268
58437		-4.932584	-0.248117	8.544193	-0.000963	-0.007929	0.009367	-0.014893	-0.090332	-0.847412	-1.331973	30.069507	-15.088087
58438		-4.931209	-0.213296	8.547461	0.000731	-0.008484	0.008054	-0.006592	-0.096191	-0.851074	-1.328641	30.065190	-15.087374
58439		-4.904204	-0.229494	8.532929	-0.000962	-0.007929	0.009367	-0.009766	-0.100342	-0.849854	-1.326396	30.061038	-15.082603
58440		-4.900916	-0.210514	8.517587	0.001043	-0.002216	0.007403	-0.008301	-0.098633	-0.846680	-1.323150	30.060302	-15.082417
58441		-4.951815	-0.227076	8.526311	-0.000842	-0.004531	0.009758	-0.004639	-0.101563	-0.857910	-1.320598	30.058145	-15.080324
58442		-4.884288	-0.231725	8.570996	-0.000699	0.000831	0.011058	-0.006348	-0.100342	-0.852295	-1.317162	30.059202	-15.077765
58443		-4.905801	-0.212195	8.551753	-0.003267	0.004508	0.003017	-0.009766	-0.103516	-0.852051	-1.318300	30.062218	-15.080292
58444		-4.951762	-0.192127	8.528808	-0.005081	0.008084	0.008104	-0.006348	-0.106934	-0.855469	-1.318409	30.067391	-15.079799
58445		-4.961069	-0.247851	8.575194	-0.003315	0.007000	0.005359	-0.000732	-0.100830	-0.850586	-1.318712	30.071800	-15.082280
58446		-4.928844	-0.192997	8.531615	-0.005105	0.006120	0.007193	-0.001221	-0.100586	-0.844971	-1.319121	30.075836	-15.082360
58447		-4.879638	-0.244906	8.517022	-0.005105	0.006120	0.007193	-0.003174	-0.104980	-0.852539	-1.319934	30.079933	-15.083802
58448		-4.907296	-0.262590	8.528730	-0.001839	0.008030	0.008339	-0.003662	-0.103760	-0.853271	-1.318107	30.085078	-15.083153
58449		-4.962891	-0.213504	8.576593	-0.008298	0.010101	0.008779	-0.006836	-0.096924	-0.858643	-1.320181	30.091410	-15.083844
58450		-4.937387	-0.230439	8.561186	-0.006459	0.008489	0.004604	-0.010010	-0.098389	-0.848633	-1.322244	30.096768	-15.085675
58451		-4.936000	-0.246385	8.542270	-0.003362	0.009492	0.007702	-0.012451	-0.101318	-0.851318	-1.321982	30.102609	-15.083528
58452		-4.911825	-0.212933	8.548276	-0.006483	0.006526	0.003693	-0.011475	-0.105469	-0.848145	-1.324347	30.106831	-15.085932
58453		-4.913339	-0.247521	8.544940	-0.004958	0.011482	0.008495	-0.004883	-0.105957	-0.854004	-1.324597	30.113730	-15.085713
58454		-4.909323	-0.244934	8.510282	-0.008102	0.012971	0.007739	-0.008545	-0.093506	-0.850098	-1.326596	30.121698	-15.085537
58455		-4.968225	-0.214651	8.573476	-0.006384	0.014379	0.007337	-0.011963	-0.102539	-0.851807	-1.328175	30.130368	-15.085013
58456		-5.010286	-0.226428	8.513271	-0.009844	0.009600	0.007229	-0.005859	-0.104736	-0.846436	-1.331315	30.136398	-15.085123
58457		-4.938050	-0.194792	8.526249	-0.004714	0.011860	0.005114	-0.016113	-0.108154	-0.855225	-1.332550	30.143537	-15.087790
58458		-4.946910	-0.216534	8.575360	-0.011489	0.007665	0.006199	-0.006104	-0.104492	-0.848633	-1.336961	30.148444	-15.088553
58459		-5.015641	-0.246101	8.527379	-0.005006	0.007555	0.006673	-0.002930	-0.101563	-0.843994	-1.337748	30.153078	-15.090502
58460		-5.017614	-0.195959	8.548427	-0.005201	0.004685	0.007713	-0.012939	-0.102295	-0.848877	-1.338030	30.156299	-15.090218
58461		-4.967463	-0.213613	8.536879	-0.006773	0.002222	0.005251	-0.005615	-0.102539	-0.850586	-1.340356	30.157942	-15.092442
58462		-4.947259	-0.267596	8.552940	-0.003434	0.003602	0.004969	-0.009277	-0.097168	-0.848145	-1.340530	30.160505	-15.093959
58463		-4.965015	-0.195212	8.521030	-0.003702	0.001260	0.007439	-0.011719	-0.101563	-0.844238	-1.340421	30.161638	-15.093450
58464		-4.965099	-0.195045	8.520985	-0.002252	0.000325	0.009509	-0.007568	-0.095459	-0.847900	-1.338381	30.162385	-15.091908
58465		-4.923443	-0.268337	8.556310	-0.008589	-0.000620	0.006171	-0.004639	-0.098633	-0.854248	-1.341492	30.162368	-15.091832
58466		-4.943835	-0.214452	8.540135	0.000892	-0.001166	0.010265	-0.017090	-0.097900	-0.857422	-1.337388	30.162272	-15.089766
58467		-4.936640	-0.227192	8.487588	-0.003604	0.002695	0.006920	-0.010742	-0.102539	-0.844727	-1.337451	30.164132	-15.087504
58468		-4.896590	-0.250170	8.544188	-0.003702	0.001260	0.007439	-0.004150	-0.096924	-0.852783	-1.336938	30.165387	-15.087348
58469		-4.869202	-0.198212	8.534828	-0.008145	0.009047	0.005918	-0.006836	-0.109375	-0.851318	-1.339937	30.170963	-15.088087
58470		-5.041811	-0.211193	8.525079	-0.004930	0.007028	0.005243	-0.003174	-0.106445	-0.849121	-1.340904	30.175492	-15.089475
58471		-4.996148	-0.197342	8.550403	-0.006601	0.003131	0.003300	-0.000977	-0.097412	-0.847900	-1.343652	30.177705	-15.095514
58472		-4.969870	-0.214433	8.535457	-0.008615	-0.002581	0.005258	0.003662	-0.097900	-0.863770	-1.346650	30.176730	-15.096743
58473		-4.970604	-0.249181	8.532550	-0.006942	0.001316	0.007202	0.002686	-0.103760	-0.853760	-1.348568	30.178126	-15.095610
58474		-4.970537	-0.249279	8.532586	-0.002060	-0.003222	0.004302	-0.008057	-0.099609	-0.842285	-1.348124	30.176771	-15.097463
58475		-4.964479	-0.212083	8.501575	-0.005590	-0.001055	0.009790	-0.001709	-0.100830	-0.853516	-1.348248	30.176731	-15.097106
58476		-4.943843	-0.265953	8.517890	-0.003779	-0.004629	0.004702	-0.011719	-0.099365	-0.849609	-1.348645	30.174576	-15.098671
58477		-4.926709	-0.253886	8.574114	-0.005445	-0.002110	0.006927	0.001465	-0.098145	-0.853516	-1.349670	30.173785	-15.098338
58478		-4.969010	-0.215031	8.535943	-0.003799	-0.000176	0.007959	-0.013184	-0.097412	-0.854492	-1.349028	30.174224	-15.097816
58479		-4.941961	-0.197341	8.523925	-0.005248	0.000760	0.005889	-0.006592	-0.102783	-0.849121	-1.350375	30.175087	-15.096959
58480		-4.946981	-0.200402	8.558004	-0.006921	-0.003136	0.003945	-0.001221	-0.101074	-0.850586	-1.352836	30.173776	-15.099049
58481		-4.990702	-0.230654	8.514054	-0.006993	-0.002609	0.005377	-0.010010	-0.104492	-0.858154	-1.355209	30.172753	-15.101323
58482		-4.920868	-0.252129	8.540471	-0.003563	-0.006211	0.000407	-0.005859	-0.103271	-0.847168	-1.356900	30.169633	-15.105709
58483		-4.919521	-0.217876	8.543724	-0.004047	-0.006972	0.007171	-0.006836	-0.098633	-0.849365	-1.356903	30.166027	-15.106536
58484		-4.969472	-0.200465	8.555384	-0.005399	-0.004600	0.004583	-0.005615	-0.100342	-0.848877	-1.358267	30.163886	-15.108180
58485		-4.943679	-0.251730	8.537673	-0.005372	-0.002637	0.005496	-0.009033	-0.105469	-0.848389	-1.359724	30.162789	-15.109039
58486		-4.894510	-0.219273	8.547762	-0.005175	0.000233	0.004459	-0.002197	-0.103271	-0.857422	-1.361040	30.163416	-15.110841
58487		-4.944528	-0.286347	8.534693	-0.001979	0.002665	0.007040	-0.003906	-0.108887	-0.851074	-1.359971	30.165392	-15.112443
58488		-4.918141	-0.183958	8.546990	-0.003626	0.000731	0.006009	-0.005127	-0.093506	-0.846436	-1.359887	30.166325	-15.113227
58489		-4.941324	-0.233228	8.521779	-0.003447	0.008054	0.008229	-0.002930	-0.106934	-0.838867	-1.359377	30.171432	-15.113440
58490		-4.970034	-0.200767	8.555051	-0.005444	-0.002110	0.006927	-0.004395	-0.109863	-0.852783	-1.360006	30.170750	-15.113571
58491		-4.990001	-0.231719	8.514436	-0.008433	0.004744	0.007479	-0.006592	-0.105713	-0.853027	-1.362387	30.173970	-15.117949
58492		-4.944098	-0.217886	8.539897	-0.003554	0.000204	0.004577	-0.003906	-0.100342	-0.854004	-1.362735	30.174581	-15.119673
58493		-4.947867	-0.270982	8.552481	-0.005345	-0.000675	0.006409	-0.008057	-0.107178	-0.852783	-1.363818	30.174639	-15.120899
58494		-4.920748	-0.253299	8.540505	-0.003796	-0.000177	0.007959	-0.012451	-0.092773	-0.853027	-1.363175	30.175078	-15.120377
58495		-4.919995	-0.218923	8.543425	-0.005317	0.001288	0.007322	-0.011230	-0.099121	-0.847168	-1.364017	30.176134	-15.119264
58496		-4.963262	-0.214548	8.502224	-0.006866	0.000790	0.005772	-0.007324	-0.098145	-0.850098	-1.365869	30.177097	-15.120206
58497		-4.968514	-0.217591	8.536167	-0.005147	0.002196	0.005372	-0.002686	-0.094482	-0.847656	-1.367289	30.178676	-15.120416
58498		-4.921289	-0.253965	8.540174	-0.006838	0.002753	0.006685	-0.009277	-0.102539	-0.852783	-1.368837	30.180775	-15.120784
58499		-4.897522	-0.254980	8.543511	-0.003399	0.005564	0.005886	-0.006592	-0.103516	-0.858398	-1.369127	30.184381	-15.120819
58500		-4.969619	-0.217964	8.535514	-0.005091	0.006121	0.007199	-0.010254	-0.099609	-0.843262	-1.369529	30.188417	-15.120899
58501		-4.971409	-0.168001	8.556699	-0.008430	0.004745	0.007480	-0.008301	-0.099609	-0.856689	-1.372079	30.191505	-15.120917
58502		-4.991668	-0.199134	8.515893	-0.008116	0.004600	0.002666	-0.009033	-0.105225	-0.843750	-1.375714	30.194607	-15.123978
58503		-4.922597	-0.220939	8.541873	-0.008287	0.003691	0.004616	-0.005859	-0.104004	-0.842285	-1.379098	30.197045	-15.126339
58504		-4.899867	-0.256809	8.542112	-0.009509	0.009463	0.002425	-0.015137	-0.106201	-0.845215	-1.383650	30.202929	-15.129637
58505		-4.977997	-0.257427	8.565096	-0.006738	0.004188	0.006167	-0.003662	-0.101074	-0.854248	-1.385539	30.205618	-15.132917
58506		-4.969515	-0.201852	8.518252	-0.004847	0.006502	0.003818	-0.008545	-0.106201	-0.854980	-1.386933	30.209825	-15.135246
58507		-4.975770	-0.239288	8.549121	-0.007037	-0.000118	0.007720	-0.008789	-0.097168	-0.851807	-1.388526	30.210193	-15.135754
58508		-4.975787	-0.239363	8.549109	-0.001934	0.000174	0.004695	-0.009766	-0.100342	-0.848389	-1.387907	30.210787	-15.137400
58509		-4.946597	-0.237446	8.518602	-0.005317	0.001287	0.007321	-0.000732	-0.093506	-0.851074	-1.388762	30.211866	-15.136219
58510		-4.877306	-0.258717	8.544743	-0.002077	0.001227	0.007559	-0.009277	-0.098633	-0.852051	-1.387278	30.213103	-15.135983
58511		-4.870889	-0.187034	8.516464	-0.005060	0.008082	0.008115	-0.000244	-0.095703	-0.844727	-1.387861	30.218203	-15.133384
58512		-4.888310	-0.230131	8.614879	-0.007672	0.018718	0.005685	-0.008545	-0.102295	-0.852051	-1.390351	30.229433	-15.134672
58513		-4.947193	-0.219240	8.500989	-0.007414	0.025513	0.006479	-0.006104	-0.106201	-0.856445	-1.392879	30.244502	-15.135375
58514		-5.004584	-0.204991	8.545289	-0.009075	0.017170	0.001269	-0.001709	-0.091309	-0.850830	-1.397636	30.254783	-15.139568
58515		-5.027265	-0.186225	8.525267	-0.010665	0.019162	0.002064	0.000977	-0.100830	-0.843018	-1.403471	30.266156	-15.142288
58516		-5.005483	-0.222488	8.524944	-0.014033	0.015826	0.001428	-0.008789	-0.104736	-0.858398	-1.411008	30.275669	-15.146358
58517		-4.981131	-0.274460	8.506349	-0.009503	0.009466	0.002424	-0.000244	-0.097412	-0.847168	-1.415857	30.281484	-15.151001
58518		-5.005060	-0.239718	8.505371	-0.008257	0.005654	0.005528	-0.000732	-0.099854	-0.857178	-1.418631	30.285228	-15.152187
58519		-5.010460	-0.242853	8.539247	-0.005348	-0.000676	0.006404	-0.009277	-0.096191	-0.861084	-1.419807	30.285383	-15.152316
58520		-4.954704	-0.257645	8.493992	-0.003929	-0.003578	0.007558	0.005371	-0.099121	-0.852539	-1.419346	30.283869	-15.152004
58521		-4.983768	-0.259259	8.524567	0.000786	-0.002618	0.010782	0.002197	-0.090820	-0.846924	-1.415561	30.282929	-15.147931
58522		-4.975323	-0.237314	8.475213	-0.002554	-0.003992	0.011059	-0.000732	-0.093994	-0.845703	-1.413137	30.281227	-15.145289
58523		-4.987377	-0.226769	8.562036	0.000484	-0.006925	0.012333	-0.002930	-0.096436	-0.851563	-1.409080	30.277918	-15.139785
58524		-4.960572	-0.242847	8.547429	0.000657	-0.006016	0.010384	-0.000488	-0.095215	-0.853271	-1.405027	30.275047	-15.137558
58525		-5.002313	-0.203320	8.509545	-0.000719	-0.005601	0.006882	-0.000244	-0.096680	-0.854980	-1.403410	30.272349	-15.136069
58526		-4.959660	-0.242182	8.547978	-0.002410	-0.005044	0.008195	-0.006348	-0.102051	-0.855469	-1.401854	30.270004	-15.135311
58527		-4.959116	-0.242142	8.548294	-0.003916	-0.008026	0.004296	-0.000977	-0.098633	-0.850586	-1.402821	30.265835	-15.136407
58528		-4.953328	-0.239270	8.514640	-0.002439	-0.007005	0.007280	-0.000977	-0.097412	-0.844727	-1.401572	30.262354	-15.136223
58529		-5.000185	-0.202937	8.510805	-0.003957	-0.005538	0.006643	-0.007813	-0.105225	-0.851563	-1.401814	30.259709	-15.136964
58530		-4.979326	-0.256716	8.527239	-0.001020	-0.009908	0.008433	-0.005371	-0.098633	-0.852051	-1.399343	30.254581	-15.135969
58531		-4.999488	-0.236659	8.508733	0.002017	-0.012842	0.009706	-0.006104	-0.094727	-0.857178	-1.394974	30.247639	-15.134599
58532		-5.027470	-0.238025	8.539960	0.000238	-0.018169	0.008273	0.000488	-0.101807	-0.849609	-1.391769	30.237777	-15.133578
58533		-4.969424	-0.218032	8.498535	0.000208	-0.020130	0.007358	-0.008789	-0.094727	-0.849609	-1.389277	30.226745	-15.132399
58534		-4.999002	-0.203777	8.548584	0.001869	-0.022649	0.005130	-0.007324	-0.103516	-0.843994	-1.386151	30.214273	-15.133391
58535		-5.074408	-0.203808	8.573182	-0.008079	-0.027292	0.004536	-0.007568	-0.097900	-0.855469	-1.389231	30.198961	-15.134635
58536		-4.998247	-0.257451	8.563775	-0.011477	-0.032586	0.002986	-0.000977	-0.103516	-0.849854	-1.394385	30.180767	-15.136886
58537		-4.910765	-0.270534	8.489424	-0.002379	-0.032493	0.013324	0.001465	-0.102295	-0.846924	-1.391216	30.162722	-15.132654
58538		-4.960547	-0.236226	8.520985	0.007442	-0.031248	0.013516	-0.008789	-0.104248	-0.853516	-1.382037	30.145441	-15.127952
58539		-4.935360	-0.220228	8.544889	0.005332	-0.042842	0.012721	-0.008545	-0.103760	-0.855469	-1.374505	30.121489	-15.125660
58540		-4.904904	-0.201569	8.534839	0.002288	-0.035458	0.014715	-0.008545	-0.097168	-0.849121	-1.367853	30.101812	-15.120105
58541		-4.881709	-0.254545	8.552570	0.005768	-0.035138	0.011567	-0.002930	-0.096924	-0.851318	-1.360594	30.082136	-15.116355
58542		-4.901224	-0.183717	8.556708	0.005933	-0.029779	0.012881	0.000244	-0.093994	-0.845947	-1.352514	30.065685	-15.112111
58543		-4.904070	-0.185653	8.592021	0.001506	-0.021979	0.011376	-0.009277	-0.103027	-0.850830	-1.348011	30.053761	-15.108176
58544		-4.919459	-0.197009	8.536939	0.000187	-0.017640	0.009708	-0.011475	-0.106201	-0.853760	-1.344373	30.044220	-15.106225
58545		-4.881547	-0.272948	8.606875	-0.001700	-0.019953	0.012059	-0.008301	-0.103271	-0.853027	-1.341243	30.033215	-15.103977
58546		-4.845812	-0.267879	8.543161	-0.001264	-0.016698	0.007642	-0.010254	-0.107178	-0.850342	-1.339130	30.024187	-15.103409
58547		-4.864720	-0.213513	8.527933	0.002175	-0.013893	0.006839	-0.009766	-0.098633	-0.853271	-1.335548	30.016621	-15.105286
58548		-4.924194	-0.201143	8.608104	-0.000566	-0.006651	0.004020	-0.010742	-0.098389	-0.847900	-1.334311	30.013299	-15.107270
58549		-4.942817	-0.197244	8.570886	-0.003940	-0.005533	0.006653	-0.011719	-0.099854	-0.860596	-1.334533	30.010497	-15.106398
58550		-4.935247	-0.210340	8.518622	-0.007212	-0.007429	0.005507	-0.002686	-0.096924	-0.851563	-1.336606	30.006749	-15.107386
58551		-4.939690	-0.213469	8.552983	-0.005492	-0.006026	0.005105	-0.011719	-0.098877	-0.859131	-1.338254	30.003737	-15.107095
58552		-4.870533	-0.269621	8.576253	-0.003937	-0.009982	0.003390	-0.005859	-0.100098	-0.841553	-1.339130	29.998498	-15.109444
58553		-4.888174	-0.231365	8.542072	-0.000500	-0.002729	0.005850	-0.009766	-0.105957	-0.850098	-1.337641	29.997340	-15.109936
58554		-4.912822	-0.264405	8.535867	-0.001133	-0.008854	0.011302	-0.007813	-0.099854	-0.848389	-1.334304	29.992853	-15.107070
58555		-4.887211	-0.230594	8.542644	-0.000734	-0.003112	0.009232	-0.007080	-0.099365	-0.852295	-1.331734	29.991521	-15.107039
58556		-4.912970	-0.213245	8.557959	0.003994	-0.006608	0.009181	-0.004395	-0.104004	-0.846924	-1.326178	29.988291	-15.105611
58557		-4.907542	-0.209690	8.524181	0.000720	-0.004055	0.011298	-0.012451	-0.102051	-0.848389	-1.322131	29.986537	-15.103994
58558		-4.886101	-0.228730	8.543329	0.000887	-0.003145	0.009348	-0.007813	-0.105225	-0.847656	-1.318327	29.985294	-15.102508
58559		-4.939178	-0.229082	8.570593	0.001054	-0.002236	0.007398	-0.001465	-0.104248	-0.851318	-1.315323	29.984401	-15.103932
58560		-4.961122	-0.158966	8.573310	-0.002353	-0.003078	0.009117	-0.009277	-0.105225	-0.844727	-1.313451	29.983192	-15.102600
58561		-4.911597	-0.211018	8.558802	-0.003739	-0.002661	0.005619	-0.015137	-0.108398	-0.850830	-1.313764	29.982174	-15.106268
58562		-4.919355	-0.232453	8.608489	-0.003972	-0.003045	0.009002	-0.015137	-0.105225	-0.852539	-1.312859	29.980984	-15.105013
58563		-4.885182	-0.227760	8.543880	-0.003439	0.001645	0.004067	-0.014893	-0.099365	-0.849854	-1.313474	29.982123	-15.109060
58564		-4.862265	-0.263220	8.544179	-0.005258	0.003256	0.008250	-0.007813	-0.095947	-0.845215	-1.313601	29.984531	-15.108398
58565		-4.837576	-0.229712	8.550403	-0.001951	0.007111	0.010311	-0.013184	-0.099854	-0.857178	-1.311595	29.988996	-15.104983
58566		-4.862620	-0.228293	8.546446	0.000003	0.013344	0.009790	-0.008545	-0.100098	-0.853027	-1.308275	29.997203	-15.103454
58567		-4.837753	-0.244543	8.530664	-0.000029	0.015831	0.012139	-0.007568	-0.099609	-0.852295	-1.304589	30.006698	-15.099102
58568		-4.846356	-0.231182	8.582347	-0.001179	0.021081	0.008521	-0.008789	-0.103027	-0.850098	-1.302424	30.019319	-15.098528
58569		-4.968113	-0.191191	8.566863	0.002230	0.026370	0.010067	-0.010010	-0.104980	-0.849854	-1.298165	30.034892	-15.097136
58570		-5.016529	-0.120183	8.564708	-0.007455	0.024089	0.007023	-0.007568	-0.095947	-0.843018	-1.300113	30.049217	-15.097598
58571		-5.039457	-0.185412	8.520077	-0.005803	0.017119	0.001527	-0.002930	-0.099365	-0.844238	-1.303218	30.059350	-15.101841
58572		-4.990257	-0.203917	8.507854	-0.010966	0.008468	-0.000534	-0.011475	-0.099854	-0.850586	-1.309566	30.064629	-15.107071
58573		-4.974710	-0.227138	8.560554	-0.008265	0.003710	0.004632	-0.008545	-0.099365	-0.862305	-1.312980	30.067164	-15.108686
58574		-4.990923	-0.205079	8.507435	-0.008568	-0.000597	0.006183	-0.014893	-0.096680	-0.863037	-1.315660	30.067338	-15.109333
58575		-4.922412	-0.261503	8.530430	-0.005296	-0.003152	0.004067	-0.006836	-0.105225	-0.852051	-1.317591	30.065800	-15.107696
58576		-4.899987	-0.246597	8.552630	0.000712	-0.004058	0.011297	-0.004395	-0.100098	-0.857910	-1.313231	30.064058	-15.104905
58577		-4.949846	-0.228356	8.564455	-0.002494	-0.006476	0.008716	-0.007568	-0.102783	-0.847656	-1.311846	30.060865	-15.104343
58578		-4.946246	-0.209334	8.549295	0.002431	-0.007105	0.007632	-0.011963	-0.102295	-0.849121	-1.307693	30.057331	-15.103933
58579		-4.945703	-0.208684	8.549626	0.002298	-0.006054	0.010498	-0.010010	-0.106445	-0.854248	-1.302944	30.054275	-15.102564
58580		-4.969229	-0.206981	8.546517	0.000477	-0.008890	0.011415	-0.011963	-0.094482	-0.849121	-1.298644	30.049766	-15.099624
58581		-4.940482	-0.239128	8.513287	-0.000640	-0.006126	0.005450	0.000244	-0.098145	-0.849365	-1.297322	30.046572	-15.099849
58582		-4.892497	-0.191103	8.542198	-0.003781	-0.009068	0.001437	-0.008545	-0.095215	-0.854248	-1.298768	30.041832	-15.103510
58583		-4.914943	-0.156167	8.542128	-0.008437	-0.006093	0.000055	-0.009521	-0.098145	-0.852051	-1.303834	30.038807	-15.106495
58584		-4.964543	-0.139306	8.554096	-0.011512	-0.009560	-0.005391	-0.010010	-0.104736	-0.848633	-1.311966	30.033696	-15.114664
58585		-4.941760	-0.210617	8.551858	-0.017955	-0.007460	-0.004938	-0.012207	-0.098633	-0.854492	-1.323954	30.029643	-15.122673
58586		-4.963961	-0.261211	8.527324	-0.011849	-0.015827	-0.004758	-0.004883	-0.094727	-0.855225	-1.332018	30.020948	-15.130324
58587		-4.940400	-0.247785	8.550114	-0.013635	-0.016703	-0.002924	-0.013916	-0.100342	-0.857666	-1.340948	30.011674	-15.134105
58588		-4.890587	-0.251062	8.557879	-0.010430	-0.018733	-0.003609	-0.004395	-0.097900	-0.842285	-1.347792	30.001327	-15.140947
58589		-4.914320	-0.285125	8.552164	-0.005734	-0.015301	0.001952	-0.011230	-0.107422	-0.859131	-1.350491	29.992907	-15.143621
58590		-4.886944	-0.217623	8.562406	-0.002425	-0.011450	0.004016	-0.010498	-0.104248	-0.840820	-1.350282	29.986835	-15.145531
58591		-4.884195	-0.233224	8.544297	-0.000801	-0.007038	0.007398	-0.006348	-0.102051	-0.849121	-1.348213	29.983170	-15.147684
58592		-4.934850	-0.165061	8.577893	-0.002320	-0.005568	0.006766	0.005127	-0.094238	-0.856201	-1.347080	29.980504	-15.147867
58593		-4.911251	-0.200163	8.578564	0.000753	-0.006548	0.008946	-0.008057	-0.104492	-0.843018	-1.343889	29.977476	-15.146581
58594		-4.904073	-0.212984	8.526096	-0.008460	0.000839	0.005674	-0.010986	-0.096436	-0.851318	-1.346686	29.978466	-15.147586
58595		-4.881845	-0.198435	8.548122	-0.002184	-0.002172	0.007166	-0.013428	-0.100830	-0.849121	-1.345676	29.977629	-15.148093
58596		-4.837699	-0.253492	8.567385	-0.005251	0.003255	0.008254	-0.008301	-0.095947	-0.854004	-1.345800	29.980036	-15.147429
58597		-4.814145	-0.254569	8.570498	-0.004978	0.010047	0.009055	-0.010498	-0.098145	-0.846436	-1.345936	29.986180	-15.144876
58598		-4.886689	-0.216906	8.562570	-0.003085	0.016804	0.009971	0.000244	-0.109863	-0.847900	-1.344356	29.996372	-15.143287
58599		-4.904309	-0.194025	8.508743	-0.003215	0.017853	0.012838	-0.014404	-0.100342	-0.852051	-1.342122	30.007211	-15.142849
58600		-4.964060	-0.197680	8.569065	-0.007810	0.015861	0.006759	-0.009033	-0.100098	-0.846191	-1.344305	30.016819	-15.143369
58601		-4.764716	-0.269284	8.521551	-0.006213	0.022756	0.012492	-0.010986	-0.096924	-0.847168	-1.344039	30.030242	-15.139823
58602		-4.849370	-0.271658	8.577999	-0.000882	0.027867	0.009342	-0.012695	-0.103027	-0.858154	-1.341489	30.046762	-15.138820
58603		-5.018909	-0.195288	8.558309	-0.007081	0.034802	0.009681	-0.012451	-0.111572	-0.851807	-1.342764	30.067031	-15.136568
58604		-4.970401	-0.178718	8.548147	-0.004213	0.030949	0.012895	-0.003174	-0.103027	-0.849609	-1.340968	30.085364	-15.133261
58605		-4.954045	-0.267056	8.559445	-0.005734	0.027975	0.008995	-0.007080	-0.106445	-0.847168	-1.341427	30.101826	-15.135752
58606		-4.898929	-0.212987	8.518668	-0.001345	0.027095	0.016110	-0.005859	-0.102051	-0.859863	-1.336887	30.117994	-15.130255
58607		-4.953858	-0.263239	8.522616	-0.000902	0.030353	0.011696	-0.003906	-0.098877	-0.858887	-1.333807	30.135882	-15.129164
58608		-5.032442	-0.227948	8.547947	-0.001621	0.020303	0.015306	-0.003906	-0.100098	-0.851318	-1.329635	30.148149	-15.124090
58609		-4.983807	-0.244709	8.535490	0.007652	0.016828	0.020423	-0.004395	-0.103516	-0.847900	-1.318800	30.158475	-15.114694
58610		-5.001887	-0.170631	8.503437	0.001000	0.011617	0.018635	-0.002930	-0.103271	-0.849854	-1.311948	30.165809	-15.107278
58611		-5.008755	-0.206686	8.534008	0.003617	0.002930	0.021965	-0.011719	-0.106201	-0.848389	-1.302664	30.168189	-15.099428
58612		-5.035041	-0.188669	8.548977	0.000475	-0.000006	0.017946	-0.008301	-0.102783	-0.852539	-1.296252	30.168854	-15.092291
58613		-5.036257	-0.222355	8.545846	-0.002356	0.001364	0.012380	-0.008545	-0.102539	-0.855225	-1.293527	30.170010	-15.090166
58614		-5.031800	-0.168955	8.533609	-0.002743	-0.006863	0.012092	-0.001709	-0.102783	-0.853516	-1.290856	30.166671	-15.086805
58615		-5.008119	-0.204121	8.534443	-0.004570	-0.009697	0.013007	-0.007813	-0.095703	-0.854004	-1.289193	30.161661	-15.083202
58616		-5.003947	-0.185300	8.519602	-0.004683	-0.015579	0.010254	-0.001709	-0.109863	-0.850342	-1.288182	30.153306	-15.080929
58617		-4.980251	-0.170291	8.542585	-0.000307	-0.020908	0.014102	-0.007568	-0.095947	-0.844238	-1.283619	30.141906	-15.076843
58618		-5.028827	-0.152039	8.555105	-0.008128	-0.018374	0.011052	-0.000488	-0.100342	-0.859131	-1.284296	30.131960	-15.074002
58619		-5.001999	-0.203651	8.538042	-0.011519	-0.026140	0.007148	-0.000977	-0.097168	-0.853271	-1.288568	30.117509	-15.072308
58620		-4.975911	-0.205226	8.542671	-0.011701	-0.020121	0.014717	-0.009277	-0.103760	-0.848145	-1.290062	30.106610	-15.067013
58621		-5.048200	-0.186305	8.551970	-0.014174	-0.029083	0.021077	-0.007080	-0.096924	-0.845947	-1.291126	30.090629	-15.057370
58622		-5.066622	-0.166757	8.534562	-0.017785	-0.032789	0.023825	-0.002930	-0.102295	-0.854492	-1.292993	30.072591	-15.045858
58623		-4.967301	-0.171803	8.550091	-0.022871	-0.033061	0.026860	-0.008301	-0.101074	-0.855957	-1.297116	30.054431	-15.032144
58624		-4.957941	-0.166604	8.675518	-0.022229	-0.020002	0.027039	-0.007080	-0.100830	-0.852539	-1.300566	30.043761	-15.018699
58625		-4.995895	-0.144017	8.620343	-0.035417	-0.031451	0.020604	-0.011963	-0.099854	-0.854736	-1.313921	30.026373	-15.009148
58626		-4.911893	-0.093936	8.585643	-0.041161	-0.021244	0.016539	-0.008789	-0.094971	-0.847656	-1.331690	30.014857	-15.002628
58627		-4.864466	-0.167966	8.587079	-0.040155	-0.015769	0.004849	-0.007813	-0.107666	-0.857666	-1.353158	30.006174	-15.002406
58628		-4.793487	-0.328054	8.566886	-0.043407	-0.020132	0.001346	-0.014648	-0.103027	-0.853271	-1.377245	29.995092	-15.005944
58629		-4.748143	-0.386563	8.586648	-0.033530	-0.012531	0.005715	-0.016602	-0.105469	-0.852539	-1.394408	29.988252	-15.008700
58630		-4.787166	-0.414395	8.508699	-0.020463	-0.000046	0.015022	-0.014648	-0.100586	-0.850098	-1.400985	29.988864	-15.003510
58631		-4.824271	-0.354177	8.613492	-0.011811	0.008897	0.013947	-0.010498	-0.100586	-0.849365	-1.403194	29.994272	-15.000414
58632		-4.742146	-0.317289	8.558116	-0.004842	0.025322	0.019824	-0.010010	-0.094238	-0.847168	-1.399437	30.009482	-14.992458
58633		-4.908194	-0.337178	8.653238	-0.004071	0.044256	0.022781	-0.005859	-0.095703	-0.845947	-1.394748	30.035433	-14.982400
58634		-4.791083	-0.191443	8.541304	0.003095	0.059113	0.024358	-0.007080	-0.100098	-0.853760	-1.385203	30.070060	-14.971978
58635		-4.790368	-0.269544	8.637211	-0.007006	0.074672	0.016467	-0.007080	-0.102539	-0.840332	-1.384521	30.113441	-14.966959
58636		-4.770523	-0.252336	8.621165	-0.011716	0.097293	0.006356	-0.011475	-0.095459	-0.848389	-1.389737	30.169686	-14.969062
58637		-4.753979	-0.136248	8.647743	-0.019175	0.120780	-0.010752	-0.007324	-0.095215	-0.848389	-1.405405	30.238952	-14.983688
58638		-4.789543	-0.035865	8.839725	-0.040218	0.145377	-0.017738	-0.009277	-0.090576	-0.851563	-1.435433	30.322396	-15.002604
58639		-4.776990	-0.192579	8.770116	-0.059484	0.168894	-0.027480	0.000488	-0.093506	-0.845947	-1.480501	30.418918	-15.025436
58640		-4.860249	-0.173612	9.051308	-0.081652	0.199288	-0.036647	0.002197	-0.091309	-0.853271	-1.541275	30.532929	-15.058054
58641		-4.923176	-0.129060	9.021388	-0.111690	0.226368	-0.051655	0.004395	-0.100586	-0.850830	-1.625224	30.662144	-15.099598
58642		-4.512095	-0.249689	8.892880	-0.121950	0.268648	-0.057790	0.006592	-0.095459	-0.853027	-1.717341	30.815445	-15.148112
58643		-4.708103	-0.470360	9.094927	-0.130070	0.360964	-0.055697	0.006104	-0.093018	-0.857178	-1.814927	31.021527	-15.199151
58644		-3.783655	-1.095379	8.298086	-0.097185	0.506836	-0.038904	0.010254	-0.091553	-0.850830	-1.889698	31.311447	-15.240965
58645		-5.147996	-0.595617	9.150124	-0.060559	0.720615	-0.018255	0.018799	-0.095215	-0.855957	-1.939613	31.723913	-15.273134
58646		-4.451843	-0.688803	9.259184	-0.013297	0.759199	0.041712	0.026611	-0.093506	-0.848389	-1.941536	32.159851	-15.267192
58647		-1.970159	-0.472777	12.801754	-0.027884	1.191527	0.182551	0.037598	-0.089355	-0.846680	-1.905873	32.845915	-15.176421
58648		-5.141962	-3.072113	11.336192	0.015835	1.635566	0.363852	0.044678	-0.098633	-0.847412	-1.779795	33.789642	-14.968061
58649		-5.480926	-4.687782	10.812954	0.308761	1.998875	0.370441	0.068848	-0.094971	-0.849365	-1.480690	34.940543	-14.756963
58650		-8.906719	-3.379636	14.558965	0.541655	1.983163	0.297291	0.082520	-0.104980	-0.853027	-1.067221	36.080755	-14.583846
58651		-8.448257	-1.924827	15.223545	0.524423	1.638882	0.195448	0.098389	-0.101807	-0.841797	-0.695520	37.021620	-14.468723
58652		-5.703941	-1.237392	13.923626	0.365571	1.422549	0.134637	0.114502	-0.117676	-0.836670	-0.433756	37.837889	-14.386868
58653		-3.680930	-0.831295	12.602880	0.208430	1.428462	0.152440	0.127930	-0.110107	-0.836914	-0.250521	38.657377	-14.290505
58654		-3.044170	-0.556601	12.336694	0.094309	1.525876	0.248357	0.141113	-0.115234	-0.829834	-0.083712	39.532569	-14.115726
58655		-3.417814	-0.354111	12.807133	-0.008494	1.545406	0.365771	0.160645	-0.118896	-0.825195	0.085570	40.418904	-13.850854
58656		-3.602786	-0.399241	13.174619	-0.081226	1.433628	0.491001	0.164307	-0.106689	-0.822021	0.283415	41.239948	-13.480982
58657		-3.186033	-0.267390	12.945709	-0.153733	1.236935	0.569441	0.174805	-0.120850	-0.824463	0.487288	41.947736	-13.047254
58658		-2.451394	-0.452453	12.322210	-0.197821	1.017589	0.617227	0.185547	-0.118408	-0.818115	0.699338	42.527653	-12.566991
58659		-1.828008	-0.661466	11.754685	-0.228224	0.837105	0.636012	0.196777	-0.115479	-0.814209	0.910691	43.002766	-12.072326
58660		-1.254157	-1.025700	11.347215	-0.199557	0.748981	0.614137	0.190186	-0.125000	-0.817627	1.132803	43.426163	-11.584698
58661		-0.853739	-1.302445	11.047382	-0.153077	0.612284	0.556638	0.205078	-0.122314	-0.812744	1.354383	43.769817	-11.142827
58662		-0.345199	-1.362167	10.788046	-0.102436	0.447236	0.478542	0.217285	-0.121094	-0.809570	1.564314	44.019633	-10.759076
58663		0.216436	-1.264587	10.502718	-0.064789	0.265315	0.400821	0.213867	-0.121826	-0.793701	1.751450	44.163987	-10.440199
58664		0.897446	-0.969888	10.237634	-0.068470	0.081342	0.326376	0.220703	-0.135010	-0.807129	1.893908	44.205281	-10.183181
58665		1.294918	-0.666971	10.070512	-0.123168	-0.082400	0.262035	0.216797	-0.133545	-0.804443	1.964920	44.151430	-9.982659
58666		1.155525	-0.387393	10.153705	-0.227212	-0.290543	0.198601	0.218750	-0.133057	-0.803711	1.937933	43.981851	-9.837952
58667		1.043850	-0.276567	10.244317	-0.353822	-0.540810	0.128512	0.214111	-0.133057	-0.794922	1.793462	43.667790	-9.756319
58668		1.065723	-0.292586	10.031571	-0.466841	-0.825448	0.071876	0.210205	-0.134277	-0.796143	1.550574	43.194491	-9.724259
58669		1.236572	-0.214266	9.594306	-0.550698	-1.078108	0.020585	0.205322	-0.130615	-0.794189	1.229488	42.574338	-9.734832
58670		1.323959	-0.093143	9.286561	-0.621757	-1.276136	-0.027917	0.202148	-0.128174	-0.796631	0.845572	41.844180	-9.779818
58671		1.152345	0.005565	9.061795	-0.678956	-1.432009	-0.070650	0.190674	-0.127197	-0.805176	0.410503	41.021481	-9.851770
58672		0.994994	-0.119886	8.806004	-0.711180	-1.555988	-0.104129	0.181641	-0.122314	-0.802979	-0.051424	40.130700	-9.939391
58673		0.924118	-0.362177	8.478936	-0.676900	-1.633041	-0.121741	0.171875	-0.120850	-0.797363	-0.495518	39.191650	-10.029886
58674		0.859553	-0.214110	8.291066	-0.611403	-1.655301	-0.126819	0.163086	-0.118164	-0.804443	-0.895590	38.242900	-10.113512
58675		0.617054	-0.033088	8.279652	-0.574534	-1.634246	-0.139265	0.145020	-0.125000	-0.808838	-1.274725	37.301826	-10.197437
58676		0.325036	0.178236	8.470316	-0.548102	-1.576565	-0.142796	0.145508	-0.109619	-0.807373	-1.633419	36.397160	-10.276139
58677		-0.292954	0.276783	8.808650	-0.535983	-1.524064	-0.160912	0.145264	-0.109375	-0.811279	-1.988947	35.517799	-10.361056
58678		-1.157319	0.392406	9.181620	-0.547957	-1.482776	-0.200347	0.123291	-0.104492	-0.809082	-2.361187	34.664859	-10.466869
58679		-2.228390	0.540521	9.557979	-0.583334	-1.481742	-0.265587	0.112793	-0.107422	-0.818115	-2.774317	33.806016	-10.609659
58680		-3.089159	0.467240	9.715799	-0.622999	-1.528269	-0.358873	0.115967	-0.112549	-0.811279	-3.236418	32.921117	-10.805478
58681		-4.104704	0.558860	9.969633	-0.659082	-1.574048	-0.479174	0.100342	-0.101318	-0.815186	-3.754429	32.000099	-11.069759
58682		-5.656098	0.331886	10.346562	-0.669472	-1.669831	-0.618405	0.088379	-0.095947	-0.825684	-4.313419	31.021037	-11.410224
58683		-6.882659	-0.223281	10.532263	-0.610995	-1.818358	-0.740070	0.079590	-0.098389	-0.822266	-4.863945	29.944396	-11.808394
58684		-7.758236	-0.452692	10.662742	-0.481185	-1.950307	-0.835186	0.063232	-0.088379	-0.821777	-5.351652	28.788941	-12.245875
58685		-8.970013	-0.501770	10.636347	-0.356358	-2.046013	-0.926981	0.050537	-0.102539	-0.815918	-5.778479	27.566456	-12.720836
58686		-9.972375	-0.831215	10.291504	-0.248864	-2.123638	-1.029282	0.046387	-0.093750	-0.828857	-6.154346	26.295080	-13.241485
58687		-11.074385	-1.128942	9.579367	-0.127497	-2.159145	-1.140563	0.033447	-0.096680	-0.816650	-6.473894	24.989507	-13.815149
58688		-12.411170	-1.427762	8.672083	0.012272	-2.175223	-1.266830	0.018799	-0.100342	-0.820068	-6.727414	23.668058	-14.453746
58689		-14.136026	-2.044725	7.472467	0.220296	-2.186660	-1.347824	0.000488	-0.096191	-0.812988	-6.863425	22.328792	-15.129764
58690		-16.067472	-2.546433	6.026849	0.544441	-2.242099	-1.355607	-0.010986	-0.108643	-0.822754	-6.795980	20.960934	-15.799538
58691		-18.119244	-2.271593	4.211309	0.890464	-2.316468	-1.284081	-0.019531	-0.112061	-0.818359	-6.498191	19.554166	-16.418824
58692		-20.298033	-1.430697	1.793457	1.114236	-2.415165	-1.160149	-0.041992	-0.136475	-0.814453	-6.032435	18.106172	-16.961727
58693		-22.034654	-0.232737	-1.161247	1.139799	-2.468955	-1.010478	-0.054932	-0.140869	-0.819824	-5.514230	16.638065	-17.420397
58694		-22.754112	0.690331	-4.578699	0.997099	-2.386235	-0.837240	-0.074707	-0.147461	-0.808105	-5.042012	15.232667	-17.790644
58695		-22.190816	1.020413	-7.984638	0.798885	-2.066869	-0.642633	-0.086670	-0.159668	-0.811035	-4.652849	14.020206	-18.070742
58696		-21.084275	1.031928	-10.410470	0.630857	-1.455730	-0.383881	-0.105225	-0.170166	-0.804199	-4.327075	13.171678	-18.233405
58697		-4.609907	0.997363	-8.356058	0.614754	-0.152592	0.142568	-0.098633	-0.161133	-0.808105	-3.953181	13.090125	-18.147771
58698		15.108301	-1.747113	-4.342994	0.554594	2.329856	0.673314	-0.074219	-0.180908	-0.807129	-3.560964	14.447700	-17.845745
58699		7.868367	-3.079403	17.741146	1.164644	4.111621	0.983215	-0.038330	-0.181641	-0.810791	-2.771569	16.830666	-17.401367
58700		-4.345725	-0.943382	27.878721	0.687596	3.493419	0.144491	-0.007813	-0.192383	-0.809570	-2.378663	18.834281	-17.413284
58701		-15.755011	-2.420789	10.753735	0.230424	2.162619	-0.517041	0.007568	-0.191895	-0.819336	-2.368664	20.059387	-17.786252
58702		-8.543883	4.840118	4.846684	0.147055	2.216142	-0.510911	0.038818	-0.190430	-0.809814	-2.413865	21.316181	-18.159911
58703		-4.747575	11.591318	9.193317	-0.391839	2.991511	-0.599856	0.067627	-0.187012	-0.811279	-2.809629	23.012480	-18.619719
58704		-11.615346	12.706243	16.737597	-1.154678	3.019755	-0.560996	0.090820	-0.184814	-0.805664	-3.655709	24.722086	-19.081823
58705		-20.013793	1.355092	18.152713	-1.157140	2.251626	0.086567	0.111572	-0.179688	-0.811279	-4.337085	26.012232	-19.130818
58706		-12.278119	-13.901981	8.631009	-0.891154	1.124358	0.109222	0.124756	-0.162354	-0.821045	-4.841813	26.659576	-19.123338
58707		-15.409915	-15.447978	7.903821	0.215591	1.009657	-0.223326	0.134766	-0.172119	-0.812744	-4.807415	27.225329	-19.325606
58708		-7.112185	-0.188122	9.884346	0.522596	0.470617	-0.057178	0.125244	-0.171875	-0.811768	-4.535832	27.491596	-19.391745
58709		-6.984703	4.469417	10.861796	0.231811	0.259279	0.143536	0.131836	-0.168213	-0.809814	-4.366233	27.646441	-19.317374
58710		-6.602332	-1.374491	8.839010	0.050973	0.029037	0.052479	0.138916	-0.183105	-0.810059	-4.321588	27.665520	-19.289608
58711		-5.657771	0.102081	9.523300	0.026373	-0.037296	-0.077799	0.136230	-0.172363	-0.802490	-4.328820	27.641282	-19.342974
58712		-5.083241	1.491104	9.569708	-0.113622	-0.090564	-0.105530	0.138184	-0.180908	-0.808105	-4.422992	27.585139	-19.411202
58713		-4.918713	0.304494	9.143913	-0.222038	-0.099253	-0.166561	0.135010	-0.170898	-0.807617	-4.597325	27.521377	-19.518385
58714		-4.732389	0.160029	9.101496	-0.284512	-0.089378	-0.233186	0.142334	-0.167236	-0.809814	-4.827033	27.459550	-19.668400
58715		-4.569697	0.001749	8.810327	-0.357576	-0.098191	-0.284138	0.131104	-0.166260	-0.810059	-5.113288	27.389800	-19.850492
58716		-4.171852	-0.917810	8.514888	-0.377027	-0.067363	-0.331334	0.133301	-0.155518	-0.810547	-5.424889	27.334079	-20.064004
58717		-4.170463	-1.242858	8.389046	-0.343793	-0.028839	-0.336282	0.135254	-0.154785	-0.811768	-5.719813	27.299277	-20.282871
58718		-4.231259	-1.091842	8.509832	-0.291730	-0.008480	-0.275852	0.129150	-0.159424	-0.812744	-5.967400	27.278455	-20.463885
58719		-3.948648	-0.935764	8.612397	-0.252723	-0.017676	-0.188357	0.132324	-0.154541	-0.814697	-6.166701	27.257285	-20.588267
58720		-4.464946	-1.318694	8.757028	-0.235923	-0.026917	-0.139180	0.131104	-0.153564	-0.808105	-6.341404	27.233342	-20.680188
58721		-4.010813	-1.533398	8.246294	-0.210070	-0.057385	-0.109814	0.131592	-0.151611	-0.810547	-6.491771	27.193905	-20.751222
58722		-3.672984	-1.604982	8.601219	-0.161354	0.012477	-0.083821	0.134521	-0.146973	-0.812256	-6.608726	27.195581	-20.810427
58723		-4.913151	-0.460622	9.105218	-0.188692	0.023647	-0.142190	0.137695	-0.148193	-0.817139	-6.759002	27.199781	-20.908061
58724		-4.653335	-0.142868	8.846462	-0.270111	-0.010484	-0.153012	0.132568	-0.144775	-0.814697	-6.957684	27.183378	-21.009758
58725		-3.954293	-1.021692	8.766392	-0.308049	0.026679	-0.191542	0.133057	-0.149414	-0.816895	-7.190817	27.185235	-21.139153
58726		-4.542911	-1.195343	8.789981	-0.307166	0.054799	-0.203970	0.132813	-0.146240	-0.802734	-7.427991	27.201507	-21.278613
58727		-4.834070	-0.948757	9.117390	-0.324797	0.035159	-0.200134	0.129395	-0.135254	-0.818848	-7.673612	27.206564	-21.414245
58728		-5.106763	-0.790789	9.085370	-0.372552	-0.043531	-0.199703	0.128174	-0.126465	-0.812988	-7.943125	27.166270	-21.542522
58729		-4.893889	-1.181700	8.907582	-0.410126	-0.119575	-0.206137	0.129395	-0.131104	-0.810303	-8.232781	27.081950	-21.667895
58730		-4.400636	-1.489083	8.644788	-0.402158	-0.142165	-0.196832	0.134766	-0.128662	-0.819580	-8.513638	26.984862	-21.784478
58731		-4.065873	-2.039848	8.356256	-0.343190	-0.122955	-0.157973	0.133789	-0.124512	-0.810791	-8.750077	26.901717	-21.877816
58732		-3.913958	-2.197767	8.220592	-0.267525	-0.057198	-0.139362	0.124268	-0.119385	-0.815674	-8.940337	26.856945	-21.965254
58733		-4.242407	-1.824174	8.434824	-0.197457	-0.011118	-0.106762	0.127197	-0.115967	-0.803711	-9.083279	26.841119	-22.036703
58734		-4.276898	-1.734878	8.500926	-0.156822	0.010366	-0.090442	0.120361	-0.118896	-0.810547	-9.199035	26.838616	-22.099729
58735		-4.334401	-1.617504	8.516945	-0.133370	0.029162	-0.082219	0.125977	-0.117188	-0.808838	-9.300089	26.847560	-22.159721
58736		-4.201550	-1.674399	8.411574	-0.112018	0.044356	-0.064964	0.132324	-0.122559	-0.813232	-9.384498	26.866447	-22.210145
58737		-3.971417	-1.870968	8.358237	-0.073860	0.089758	-0.038569	0.138428	-0.116211	-0.813477	-9.441902	26.913575	-22.248905
58738		-4.226178	-1.779801	8.313569	-0.024681	0.120836	-0.007051	0.133789	-0.120850	-0.809326	-9.463397	26.981050	-22.270764
58739		-4.552716	-1.690013	8.472197	0.013646	0.137704	0.020304	0.133301	-0.111084	-0.815674	-9.456137	27.060782	-22.277351
58740		-4.438101	-1.553425	8.361694	0.033733	0.140811	0.060519	0.136475	-0.110352	-0.813965	-9.425639	27.145900	-22.258433
58741		-4.547514	-1.374807	8.731395	0.044014	0.150446	0.075726	0.133789	-0.119385	-0.808838	-9.385491	27.238033	-22.231077
58742		-4.616701	-1.060263	8.653784	0.019168	0.123877	0.093754	0.131836	-0.119385	-0.812988	-9.352715	27.316657	-22.189093
58743		-4.219559	-1.541010	8.474411	0.012323	0.131289	0.127857	0.140381	-0.115479	-0.814209	-9.314389	27.402774	-22.126363
58744		-3.839119	-2.076339	8.213307	0.052959	0.174520	0.168036	0.137207	-0.124023	-0.817383	-9.242641	27.516838	-22.042106
58745		-3.766146	-2.283828	8.105278	0.125596	0.251353	0.207672	0.144531	-0.120605	-0.804932	-9.121161	27.677999	-21.940449
58746		-3.858449	-1.951958	8.112253	0.206038	0.334992	0.253690	0.149902	-0.122314	-0.813965	-8.942975	27.890248	-21.816920
58747		-3.806237	-1.560102	8.070724	0.267723	0.419312	0.322379	0.153564	-0.129150	-0.812500	-8.712009	28.156004	-21.656937
58748		-3.736833	-1.200204	8.056538	0.323506	0.497922	0.413357	0.152832	-0.135498	-0.807617	-8.423049	28.473299	-21.443887
58749		-3.665132	-1.230441	7.689209	0.380906	0.578542	0.510258	0.159912	-0.136230	-0.814941	-8.072678	28.843319	-21.173405
58750		-2.771390	-2.553949	7.263254	0.513613	0.751670	0.581111	0.170410	-0.136719	-0.804688	-7.627429	29.315393	-20.868038
58751		-3.029025	-2.713728	7.512138	0.710881	0.954002	0.674493	0.172363	-0.145264	-0.802734	-7.042088	29.906919	-20.512573
58752		-6.581716	0.566495	9.340007	0.769441	1.025174	0.724955	0.178711	-0.145752	-0.793457	-6.400818	30.538921	-20.119517
58753		-4.454274	-0.469496	8.471731	0.612733	0.963616	0.692838	0.187012	-0.152588	-0.803467	-5.849567	31.130382	-19.733658
58754		-6.232849	-1.734873	9.710850	0.555860	0.829726	0.591177	0.194336	-0.161621	-0.796143	-5.353719	31.636696	-19.397985
58755		-4.702033	0.883562	9.813106	0.350434	0.741893	0.546749	0.199707	-0.156006	-0.805420	-4.983201	32.088472	-19.080999
58756		-4.950935	-0.810688	9.835273	0.302321	0.908661	0.479092	0.213623	-0.160645	-0.799805	-4.664472	32.630514	-18.813905
58757		-6.045644	1.256506	9.913364	0.114578	0.992106	0.426556	0.217041	-0.172852	-0.784424	-4.470828	33.216812	-18.582872
58758		-5.622925	-0.372162	9.505845	-0.020154	1.095378	0.360173	0.222168	-0.173096	-0.791992	-4.378275	33.858674	-18.399071
58759		-5.553588	-0.229008	9.656610	-0.154344	1.210197	0.334703	0.237549	-0.167969	-0.788086	-4.373186	34.564879	-18.237101
58760		-5.201987	0.277116	9.849617	-0.275787	1.357656	0.276116	0.246338	-0.173828	-0.791260	-4.463155	35.352842	-18.122797
58761		-3.383424	0.462901	10.472487	-0.299647	1.721542	0.163973	0.254639	-0.177246	-0.780762	-4.624288	36.343697	-18.108990
58762		-4.426232	1.378312	10.139363	-0.442152	2.205420	0.041122	0.280029	-0.161621	-0.780518	-4.939823	37.605055	-18.216625
58763		-4.766945	1.465055	10.026553	-0.582113	2.655490	-0.088979	0.310059	-0.156982	-0.767334	-5.423159	39.115685	-18.461989
58764		-3.119279	0.703899	11.190180	-0.693565	3.245377	-0.182704	0.329346	-0.145996	-0.761963	-6.065389	40.955450	-18.846484
58765		-3.142371	-1.062637	10.766659	-0.548218	3.893808	-0.210506	0.361572	-0.143066	-0.756836	-6.712885	43.158895	-19.347785
58766		-3.277374	-2.362969	10.719353	-0.386406	4.587654	-0.106568	0.392090	-0.149414	-0.733643	-7.310227	45.760358	-19.887989
58767		-2.639164	-3.208844	10.767604	0.025106	5.299969	0.114000	0.447021	-0.141846	-0.709717	-7.655874	48.779100	-20.381357
58768		-4.285290	-0.549871	10.667954	0.047596	6.100178	0.224988	0.483643	-0.151367	-0.686279	-8.056104	52.259056	-20.938292
58769		-4.983393	-1.966765	10.603962	0.032371	7.048950	0.247266	0.535645	-0.147705	-0.650146	-8.662309	56.274666	-21.710519
58770		-5.026533	-3.734824	12.205811	0.037117	7.935478	0.342883	0.591309	-0.156738	-0.602051	-9.501437	60.795402	-22.721446
58771		-9.688805	-3.584982	14.356188	-0.196036	8.662428	0.570202	0.646973	-0.149414	-0.558105	-10.710752	65.737845	-23.951268
58772		-17.305903	-5.458868	14.903327	-0.653907	8.651007	0.719027	0.690186	-0.158447	-0.500977	-12.588496	70.675739	-25.571022
58773		-14.909698	-1.162450	13.911780	-0.758046	9.000118	1.138476	0.743652	-0.157227	-0.442627	-15.020097	75.837953	-27.656873
58774		-20.926944	-0.369203	19.232037	-1.705967	8.679850	1.121600	0.790039	-0.159912	-0.377197	-20.362790	80.774108	-32.112388
58775		-27.698649	-5.452161	22.262943	-2.268538	7.102812	1.173895	0.817139	-0.165527	-0.319336	-30.741090	84.745024	-41.259995
58776		-14.371762	-6.162690	17.438567	-1.799019	5.957444	1.981522	0.835938	-0.178467	-0.275635	-56.413092	88.074807	-65.940317
58777		-5.790103	-8.434343	16.956464	-1.104571	5.477068	2.465139	0.849365	-0.197021	-0.228027	-174.761250	87.910834	176.311125
58778		3.721069	-10.687755	5.253361	-0.036080	5.543250	2.675019	0.870605	-0.227539	-0.179199	165.724943	84.575457	156.782384
58779		-28.054297	-7.011995	13.277612	1.167208	5.612701	2.279527	0.867676	-0.247314	-0.127686	163.251718	81.130214	153.614499
58780		-15.842603	-5.103566	21.117434	1.194762	2.739307	1.562855	0.884277	-0.266846	-0.092285	161.740205	79.364469	151.383862
58781		-15.999575	-1.971367	20.708095	0.791643	0.805987	0.792312	0.885742	-0.281982	-0.076416	160.758882	78.786444	149.919982
58782		-7.285040	-2.364003	15.428144	0.355546	-0.721737	0.163097	0.906982	-0.283203	-0.084961	159.819450	79.145131	148.752712
58783		-1.305011	-1.741315	11.199806	0.094407	-1.568758	-0.139812	0.916016	-0.291260	-0.083252	158.565905	80.020110	147.420873
58784		0.816200	-0.929623	8.578675	-0.094946	-1.996526	-0.212037	0.921143	-0.296143	-0.090332	156.586257	81.125123	145.466778
58785		1.926966	-0.445031	6.671585	-0.282882	-2.240046	-0.176551	0.939941	-0.299316	-0.089111	153.339410	82.338158	142.347598
58786		2.489873	-0.206884	5.450854	-0.457466	-2.372362	-0.074887	0.951904	-0.304932	-0.114746	148.035927	83.547127	137.265511
58787		1.882467	-0.123155	5.034263	-0.599869	-2.469117	0.014245	0.965820	-0.314209	-0.117432	139.519199	84.694123	129.047762
58788		0.649269	-0.477915	5.117890	-0.704147	-2.574767	0.049064	0.995605	-0.327393	-0.137695	126.033591	85.684511	115.917703
58789		-0.875813	-1.143007	5.555619	-0.702561	-2.742730	0.009660	1.019775	-0.330811	-0.144287	105.017918	86.375415	95.254506
58790		-2.516533	-2.017904	6.178022	-0.547063	-3.015096	-0.069807	1.040771	-0.353760	-0.166260	76.898707	86.450599	67.393756
58791		-3.977719	-2.374609	6.846289	-0.271359	-3.391721	-0.185704	1.078125	-0.364014	-0.189453	50.438161	85.666032	41.027276
58792		-5.293887	-2.215437	7.515174	0.021282	-3.845926	-0.350218	1.121338	-0.379883	-0.223877	32.341388	84.129385	22.846513
58793		-6.170183	-1.705031	7.953989	0.248200	-4.327004	-0.560305	1.167969	-0.385010	-0.274658	20.873521	82.042960	11.152153
58794		-6.633297	-0.981146	8.062790	0.392909	-4.784708	-0.805043	1.226563	-0.395752	-0.318359	13.367188	79.554729	3.319447
58795		-6.972261	-0.174979	7.944214	0.446030	-5.180678	-1.039371	1.295654	-0.411865	-0.401123	8.158777	76.741343	-2.263389
58796		-7.263963	0.365221	7.751051	0.443138	-5.505579	-1.205536	1.359863	-0.411133	-0.506836	4.482364	73.681180	-6.329508
58797		-7.575656	0.975367	7.572919	0.418917	-5.731069	-1.293816	1.419922	-0.413086	-0.634277	1.857487	70.436028	-9.341277
58798		-8.109465	1.526860	7.728438	0.351282	-5.874184	-1.299726	1.457031	-0.410400	-0.807129	-0.005479	67.082829	-11.557779
58799		-8.782603	2.047510	8.045494	0.240928	-5.978542	-1.222665	1.481689	-0.405518	-1.015625	-1.319050	63.642119	-13.155778
58800		-9.516180	2.295002	8.408260	0.087377	-6.055499	-1.082114	1.439697	-0.411133	-1.239990	-2.233580	60.155264	-14.251673
58801		-10.467932	1.886415	8.873542	-0.060095	-6.110364	-0.886822	1.342285	-0.402588	-1.464355	-2.847227	56.627710	-14.933253
58802		-11.343669	0.867329	9.165295	-0.133048	-6.163183	-0.688854	1.186768	-0.390137	-1.668457	-3.221219	53.080807	-15.300316
58803		-12.329712	0.289629	9.702602	-0.114297	-6.166245	-0.547486	0.979736	-0.387451	-1.835205	-3.426128	49.527963	-15.480815
58804		-13.939164	0.304222	10.457186	-0.098283	-6.173506	-0.527396	0.745117	-0.377686	-1.957764	-3.578649	45.979213	-15.614139
58805		-15.183062	0.792388	11.306052	-0.144124	-6.200059	-0.613329	0.486572	-0.354004	-2.008545	-3.783172	42.403999	-15.791192
58806		-16.790222	1.281299	12.067535	-0.280926	-6.199179	-0.752147	0.224609	-0.331299	-2.006592	-4.104434	38.831127	-16.041148
58807		-19.236721	1.430284	12.305220	-0.471120	-6.165158	-0.825894	-0.010010	-0.302490	-1.960205	-4.531399	35.265665	-16.304258
58808		-22.322397	1.419913	12.050752	-0.668243	-6.100883	-0.779348	-0.209961	-0.270264	-1.880859	-5.016605	31.745254	-16.493948
58809		-25.189120	1.058830	11.280199	-0.886566	-6.037656	-0.648897	-0.394287	-0.236816	-1.777588	-5.554962	28.259325	-16.557990
58810		-29.153963	-1.063297	9.391797	-0.957959	-6.028640	-0.391941	-0.538574	-0.203857	-1.662842	-6.040829	24.800260	-16.422336
58811		-32.153070	-2.160221	5.833527	-0.861362	-6.097410	-0.104309	-0.664795	-0.177490	-1.556641	-6.398439	21.314583	-16.079888
58812		-31.881886	-1.869377	1.024685	-0.764704	-6.109696	0.147049	-0.758789	-0.155518	-1.440430	-6.664179	17.846315	-15.572892
58813		-29.266977	-0.028789	-3.920671	-0.881066	-5.846441	0.256810	-0.828125	-0.127441	-1.335938	-7.010280	14.533052	-15.009880
58814		-25.461631	2.102454	-8.544769	-1.283716	-5.162259	0.173452	-0.912842	-0.103271	-1.259277	-7.633925	11.612068	-14.525999
58815		-22.372274	3.243625	-12.434413	-1.747348	-4.060743	-0.087054	-0.946289	-0.083984	-1.185547	-8.582745	9.298193	-14.246830
58816		-23.475924	4.355200	-15.494020	-2.052690	-2.728375	-0.519523	-0.976074	-0.061035	-1.138916	-9.763667	7.707367	-14.296147
58817		-28.907063	3.029718	-17.589610	-2.078121	-1.557512	-0.984032	-1.000488	-0.036865	-1.109863	-11.002871	6.725599	-14.697337
58818		-29.068423	-1.146475	-17.816927	-1.478251	-0.594197	-1.020853	-1.011719	-0.034668	-1.085938	-11.905392	6.275465	-15.210401
58819		-13.908377	-13.587524	-14.357216	0.618442	0.577413	-0.602803	-1.009277	-0.037354	-1.090332	-11.595223	6.528084	-15.623018
58820		4.513817	-7.183240	-9.329084	3.026546	3.538070	0.701812	-0.981445	-0.064209	-1.131104	-9.856586	8.594329	-15.609219
58821		9.163257	-5.810694	16.089174	3.563733	4.377699	1.452097	-0.941895	-0.080078	-1.161377	-7.737383	11.199738	-15.169151
58822		-7.508768	-5.725566	29.299832	3.696577	3.117617	1.055901	-0.918213	-0.111572	-1.176514	-5.532805	13.043877	-14.769882
58823		-7.963512	4.012917	16.260593	3.020501	1.717561	0.047973	-0.916016	-0.139404	-1.187988	-3.814836	14.026508	-14.829482
58824		-2.102877	14.914851	3.587133	1.552951	2.364868	-1.382875	-0.888184	-0.178223	-1.211670	-3.152281	15.331106	-15.736376
58825		-6.509915	18.371844	6.218939	0.318363	3.737770	-1.877011	-0.840332	-0.189453	-1.233643	-3.320472	17.408473	-16.986437
58826		-11.547436	24.430962	19.081348	-0.391973	3.773313	-0.577989	-0.798340	-0.186768	-1.260010	-3.698607	19.546368	-17.478803
58827		-9.221721	18.043128	15.727723	-1.677412	3.165392	0.354169	-0.766602	-0.168213	-1.281250	-4.632236	21.369948	-17.407649
58828		-14.129175	-8.775328	13.306160	-1.496402	3.208841	0.483838	-0.721191	-0.134766	-1.307617	-5.441780	23.225850	-17.288122
58829		-21.826582	-21.413189	12.684842	-0.578221	2.423763	-0.239949	-0.695557	-0.138184	-1.318359	-5.893356	24.594391	-17.591900
58830		-14.294484	-13.464447	7.387668	0.586115	1.784866	-0.454293	-0.685547	-0.150391	-1.333984	-5.726636	25.585538	-17.996700
58831		-10.476719	1.826702	11.354577	0.811845	1.276237	0.082663	-0.656494	-0.155273	-1.339844	-5.272519	26.318708	-18.027221
58832		-6.721054	2.385817	10.127061	0.542257	0.914648	0.171364	-0.650879	-0.162354	-1.341797	-4.935737	26.849563	-17.974620
58833		-7.652222	-0.050184	9.756235	0.425626	0.623123	0.119993	-0.641846	-0.162842	-1.347412	-4.671971	27.212044	-17.936187
58834		-6.373916	1.069156	9.638339	0.291028	0.458570	0.052242	-0.644043	-0.170410	-1.351318	-4.500244	27.476519	-17.930897
58835		-5.930842	1.108020	9.734165	0.149138	0.291841	0.025117	-0.636719	-0.174072	-1.352783	-4.413860	27.645395	-17.934240
58836		-4.349425	-0.276828	9.085221	0.053217	0.255406	-0.013844	-0.634277	-0.172119	-1.352539	-4.393047	27.790886	-17.960530
58837		-3.737680	-0.252246	8.866311	0.038865	0.298037	-0.022692	-0.628906	-0.172363	-1.352295	-4.384283	27.961199	-17.994800
58838		-4.290419	0.397835	8.823232	-0.028116	0.362251	-0.062652	-0.627197	-0.180664	-1.354492	-4.427626	28.165577	-18.058109
58839		-4.533938	0.141555	9.102464	-0.130368	0.370986	-0.135656	-0.621094	-0.166992	-1.357910	-4.552669	28.372389	-18.169780
58840		-3.612692	-0.891843	8.948944	-0.177897	0.397420	-0.161816	-0.611084	-0.177246	-1.361572	-4.714406	28.592039	-18.300542
58841		-3.621707	-1.354309	8.842909	-0.173019	0.460851	-0.150824	-0.608398	-0.170410	-1.358643	-4.872573	28.848856	-18.428693
58842		-4.469928	-1.036366	9.026144	-0.184281	0.484995	-0.104759	-0.596191	-0.168213	-1.358887	-5.024302	29.120680	-18.529179
58843		-4.739921	-1.355431	9.020193	-0.201338	0.446932	-0.023462	-0.593018	-0.154297	-1.368408	-5.159718	29.375384	-18.575412
58844		-5.007001	-1.023675	8.731760	-0.170032	0.398959	-0.000372	-0.585693	-0.160400	-1.366699	-5.268794	29.603141	-18.604268
58845		-5.053390	-0.374419	8.694304	-0.178300	0.396693	0.006327	-0.582764	-0.159912	-1.371094	-5.380830	29.830578	-18.629275
58846		-4.996301	-0.202682	8.572304	-0.201368	0.402692	-0.026278	-0.579590	-0.156494	-1.377930	-5.517292	30.058950	-18.676626
58847		-5.217773	-0.391079	8.622469	-0.225201	0.423735	-0.062385	-0.576904	-0.150635	-1.381104	-5.680697	30.297844	-18.750048
58848		-5.415049	-0.456703	8.515120	-0.253719	0.432769	-0.081940	-0.560303	-0.154053	-1.377441	-5.868018	30.539917	-18.837936
58849		-5.703226	-0.995128	8.162919	-0.238959	0.411497	-0.110826	-0.560303	-0.151367	-1.372314	-6.056815	30.768542	-18.944691
58850		-5.498055	-1.096438	8.200732	-0.213495	0.373123	-0.097764	-0.553711	-0.143799	-1.383057	-6.226028	30.975176	-19.041040
58851		-5.071984	-1.435230	8.241541	-0.170494	0.359173	-0.052679	-0.555420	-0.148926	-1.390137	-6.355375	31.177132	-19.107298
58852		-5.290896	-1.392122	8.179888	-0.121544	0.346570	-0.002665	-0.549805	-0.148193	-1.387939	-6.439337	31.374347	-19.139797
58853		-5.384098	-1.427257	8.109618	-0.080814	0.315615	0.039857	-0.541992	-0.145752	-1.393311	-6.484263	31.557290	-19.141997
58854		-5.297968	-1.197268	8.183852	-0.043032	0.288533	0.079298	-0.536133	-0.141357	-1.388184	-6.492609	31.726727	-19.115770
58855		-5.448314	-0.940161	8.203106	-0.028990	0.279137	0.101310	-0.534668	-0.137451	-1.401367	-6.484764	31.892874	-19.074145
58856		-5.505910	-0.858847	8.247054	-0.021104	0.268944	0.100503	-0.529541	-0.137451	-1.392822	-6.472024	32.052526	-19.032066
58857		-5.351417	-0.833102	8.215455	-0.019760	0.263143	0.102531	-0.528320	-0.133545	-1.392090	-6.457481	32.209627	-18.988168
58858		-5.262062	-1.159866	8.099516	-0.005018	0.258376	0.153774	-0.517578	-0.138184	-1.392090	-6.415583	32.366658	-18.909124
58859		-5.246859	-1.511289	7.841223	0.053946	0.262200	0.236849	-0.521973	-0.135254	-1.394043	-6.309674	32.531671	-18.774034
58860		-5.001567	-1.691652	7.566144	0.119626	0.239546	0.358306	-0.516113	-0.136230	-1.398193	-6.120159	32.690404	-18.554296
58861		-4.858899	-2.069760	7.403501	0.231993	0.225916	0.503797	-0.508057	-0.134521	-1.397217	-5.811321	32.849832	-18.233913
58862		-4.779888	-2.250273	7.065861	0.391588	0.245256	0.594540	-0.510986	-0.134033	-1.398193	-5.376327	33.022999	-17.851208
58863		-4.991890	-2.156837	7.351963	0.525806	0.233881	0.686825	-0.508789	-0.143799	-1.398926	-4.827567	33.192203	-17.402622
58864		-5.428396	-1.112774	8.341412	0.592596	0.195081	0.691682	-0.505859	-0.146973	-1.397217	-4.234832	33.335123	-16.945643
58865		-5.768286	0.734715	9.119631	0.460116	0.107621	0.629872	-0.510010	-0.151611	-1.403809	-3.737220	33.422526	-16.524809
58866		-5.644231	1.242942	9.440505	0.258887	0.147244	0.562219	-0.504883	-0.149902	-1.405273	-3.379932	33.526979	-16.150593
58867		-5.370309	1.352081	9.389843	0.082906	0.252446	0.438559	-0.510498	-0.148193	-1.395264	-3.171517	33.686569	-15.864393
58868		-5.221173	1.163195	9.189534	-0.046358	0.406960	0.267968	-0.504395	-0.147949	-1.408936	-3.104180	33.928082	-15.700217
58869		-4.978758	0.342246	8.862190	-0.083801	0.601356	0.140868	-0.488525	-0.139648	-1.410400	-3.110535	34.277297	-15.630470
58870		-4.667256	0.357427	8.844845	-0.097668	0.805807	0.056507	-0.481934	-0.142090	-1.413330	-3.161922	34.740357	-15.626897
58871		-4.625643	-0.187167	8.873571	-0.115144	1.033360	0.004672	-0.466309	-0.139648	-1.410889	-3.249555	35.332383	-15.669111
58872		-5.302625	-0.212690	8.816428	-0.157717	1.178878	-0.008529	-0.451660	-0.138672	-1.418701	-3.371833	36.006695	-15.728209
58873		-5.243478	-0.231151	8.973977	-0.211518	1.327075	-0.027078	-0.423340	-0.134521	-1.421631	-3.538660	36.765392	-15.809480
58874		-5.056876	-0.330330	9.121321	-0.275721	1.526848	-0.036640	-0.406494	-0.128906	-1.427002	-3.755366	37.637354	-15.910825
58875		-4.938668	-0.404836	9.419266	-0.339335	1.763975	-0.038988	-0.382568	-0.123291	-1.440186	-4.021761	38.644756	-16.031525
58876		-4.688426	-0.366105	9.689543	-0.390511	2.053559	-0.035601	-0.351318	-0.113525	-1.445068	-4.332929	39.816959	-16.173763
58877		-4.771043	-0.424921	9.568999	-0.408369	2.400388	-0.037288	-0.314209	-0.117920	-1.454346	-4.678308	41.186764	-16.349236
58878		-4.781956	-0.176884	9.572006	-0.428994	2.763029	-0.047744	-0.272949	-0.108154	-1.456055	-5.070831	42.761976	-16.572394
58879		-4.775893	-1.538424	9.508949	-0.237570	3.150669	-0.022975	-0.229980	-0.105713	-1.468994	-5.377641	44.558723	-16.823336
58880		-4.143991	-0.569122	9.597801	-0.040187	3.647575	0.002660	-0.177246	-0.103760	-1.473633	-5.605032	46.639306	-17.112896
58881		-4.143503	-0.980893	9.256270	-0.028556	4.253530	0.076909	-0.106934	-0.109863	-1.481201	-5.843496	49.068701	-17.415853
58882		-4.656448	-0.906121	9.696247	-0.008844	4.922940	0.169727	-0.037354	-0.104492	-1.473633	-6.089210	51.884260	-17.731039
58883		-4.746020	-1.500980	9.413449	-0.026630	5.692673	0.263978	0.048828	-0.107666	-1.465332	-6.383248	55.142898	-18.080825
58884		-5.004290	-3.452831	10.646283	0.097362	6.582954	0.412837	0.150879	-0.107910	-1.462646	-6.627868	58.917227	-18.441763
58885		-5.955867	-3.172440	11.828331	0.148312	7.459546	0.605169	0.252441	-0.113037	-1.446045	-6.830886	63.202001	-18.773574
58886		-10.556378	-4.055072	13.268631	-0.076814	8.298905	0.782280	0.362793	-0.105469	-1.422119	-7.179171	67.976120	-19.110199
58887		-16.292458	-2.683350	15.578909	-0.450845	8.144388	1.020884	0.482666	-0.099609	-1.370850	-7.490560	72.678200	-19.169054
58888		-14.095364	0.158600	13.489713	-0.896850	8.795233	1.124230	0.594238	-0.089355	-1.331055	-8.207858	77.758190	-19.381540
58889		-20.340899	-1.830212	16.730386	-1.808845	8.489766	1.079613	0.703857	-0.085693	-1.267822	-10.249385	82.657526	-20.402538
58890		-29.028573	-4.994105	21.568544	-1.874902	7.063266	1.301811	0.785400	-0.066406	-1.208008	-11.829562	86.772116	-20.912404
58891		-15.782759	-8.283449	17.325950	-1.332553	6.002906	2.118047	0.838867	-0.065918	-1.141113	117.916924	89.402437	109.608096
58892		-6.922742	-8.407680	16.767014	-0.392191	5.716046	2.587916	0.901855	-0.089111	-1.087158	150.429836	85.918099	142.354758
58893		6.053091	-8.032328	7.277878	0.369641	5.696079	2.824831	0.945801	-0.107422	-1.019043	152.120451	82.281974	143.838072
58894		-23.231920	-4.480725	8.287683	1.407238	6.970037	2.703576	0.997314	-0.149414	-0.945557	155.169516	78.016424	146.109856
58895		-25.871118	-2.597177	23.655843	0.959401	3.838039	1.823448	1.009033	-0.178955	-0.914307	155.593545	75.586266	145.978053
58896		-22.467230	-1.855421	24.140435	0.263363	1.138113	0.815242	0.995361	-0.178467	-0.890625	155.182761	74.800119	145.394456
58897		-12.582575	-3.333766	18.436210	-0.243009	-1.075655	-0.084147	0.970459	-0.185547	-0.895264	154.232859	75.383314	144.553003
58898		-4.093718	-3.202130	12.527430	-0.366866	-2.201758	-0.580446	0.929443	-0.170898	-0.905518	152.984873	76.662600	143.481002
58899		-0.528435	-1.725559	8.764033	-0.396803	-2.703012	-0.722397	0.877930	-0.165283	-0.918945	151.157204	78.231103	141.839162
58900		1.288556	-1.116001	6.318114	-0.415298	-2.915008	-0.671204	0.830566	-0.150391	-0.938721	148.306468	79.869499	139.175635
58901		2.151769	-0.479818	4.786920	-0.416359	-3.001046	-0.547335	0.789307	-0.149658	-0.948242	143.820717	81.478922	134.869602
58902		1.869574	-0.405273	4.257588	-0.405388	-3.023009	-0.389732	0.740967	-0.140625	-0.959961	136.771806	82.959021	127.987784
58903		0.517565	-0.478878	4.477742	-0.328705	-3.080769	-0.221447	0.690186	-0.140137	-0.974121	125.469746	84.228521	116.802994
58904		-0.521057	-0.568551	4.788552	-0.232164	-3.206731	-0.101990	0.638184	-0.124756	-0.995850	107.972367	85.120581	99.362483
58905		-1.475225	-0.496958	5.237892	-0.140164	-3.366935	-0.060034	0.601807	-0.128906	-1.016846	84.658953	85.378249	76.049265
58906		-2.468494	-0.496048	5.695959	-0.081667	-3.563978	-0.096466	0.545654	-0.138428	-1.019775	61.456715	84.828907	52.809015
58907		-3.367560	-0.557545	6.172526	-0.032186	-3.788116	-0.209414	0.504883	-0.125488	-1.020996	43.591085	83.589942	34.870629
58908		-4.289298	-0.701827	6.696552	0.022756	-4.039215	-0.366944	0.444336	-0.126709	-1.037842	31.226164	81.872137	22.391991
58909		-5.208698	-0.797974	7.218117	0.112010	-4.317019	-0.536768	0.395752	-0.117432	-1.059570	22.599519	79.797755	13.588540
58910		-6.315024	-0.702553	7.786253	0.213774	-4.636600	-0.695912	0.344238	-0.126709	-1.060547	16.430364	77.425161	7.169546
58911		-7.607939	-0.285895	8.175226	0.298034	-5.005231	-0.834509	0.282715	-0.123047	-1.062744	11.871386	74.755226	2.296291
58912		-8.333755	0.346769	8.266008	0.321040	-5.375254	-0.926166	0.222900	-0.120850	-1.073242	8.490943	71.817446	-1.426695
58913		-8.776322	1.206347	8.135059	0.252090	-5.683837	-0.959675	0.149414	-0.113770	-1.083740	5.961843	68.650262	-4.268609
58914		-9.157019	2.021795	8.073750	0.078155	-5.895555	-0.940787	0.081543	-0.120361	-1.092529	4.040991	65.332528	-6.405981
58915		-9.720650	2.440469	8.072469	-0.192602	-6.022917	-0.877955	0.005615	-0.117188	-1.084717	2.510701	61.910492	-7.992369
58916		-10.448035	1.957505	8.026791	-0.442089	-6.103296	-0.759168	-0.071289	-0.116455	-1.083252	1.291915	58.430413	-9.107637
58917		-11.170123	0.574244	8.050456	-0.565997	-6.150267	-0.616084	-0.166260	-0.106445	-1.073975	0.348058	54.906400	-9.851047
58918		-12.242867	-0.755069	8.325406	-0.518944	-6.150663	-0.545256	-0.236572	-0.090332	-1.054443	-0.368359	51.382753	-10.377621
58919		-13.449681	-1.461552	9.062776	-0.362328	-6.135830	-0.588370	-0.327393	-0.083740	-1.021729	-0.929658	47.857968	-10.844142
58920		-14.489901	-1.394190	10.006635	-0.200310	-6.120797	-0.735047	-0.388916	-0.071533	-0.993652	-1.409479	44.343539	-11.354011
58921		-15.713760	-0.585664	11.313683	-0.135730	-6.115102	-0.952843	-0.460938	-0.076660	-0.946045	-1.898600	40.819965	-11.964378
58922		-17.496221	0.318277	12.323162	-0.211403	-6.082156	-1.168932	-0.527832	-0.080078	-0.914063	-2.456465	37.312514	-12.661028
58923		-20.221989	1.008119	12.817522	-0.390397	-6.040011	-1.251773	-0.582275	-0.080078	-0.864258	-3.074645	33.815842	-13.342143
58924		-24.236705	1.075328	12.579794	-0.609602	-6.048775	-1.151941	-0.640625	-0.078613	-0.807373	-3.708475	30.317412	-13.882463
58925		-27.640724	0.649719	11.298657	-0.800342	-6.201668	-0.909119	-0.702393	-0.078369	-0.762939	-4.315035	26.731456	-14.196077
58926		-30.426275	-0.034063	8.258418	-0.889791	-6.393856	-0.575949	-0.760010	-0.070557	-0.699951	-4.841346	23.053584	-14.240894
58927		-30.508278	-1.006200	3.566323	-0.869332	-6.469286	-0.229022	-0.800537	-0.064209	-0.631104	-5.263418	19.345821	-14.035807
58928		-28.454965	-0.589638	-1.885154	-0.846721	-6.221589	0.032547	-0.844971	-0.059326	-0.573730	-5.634355	15.799104	-13.665664
58929		-24.672153	0.746290	-6.207424	-0.966522	-5.530114	0.211434	-0.876709	-0.043701	-0.524414	-6.074972	12.656711	-13.212544
58930		-21.454751	2.577829	-9.327888	-1.268176	-4.447039	0.223362	-0.905273	-0.036621	-0.472412	-6.717113	10.138912	-12.797503
58931		-21.613992	4.697683	-11.427384	-1.673881	-3.143799	0.073214	-0.914063	-0.026611	-0.431396	-7.631683	8.355311	-12.531862
58932		-24.672788	7.277093	-13.469943	-2.052031	-1.931328	-0.330556	-0.927490	-0.027588	-0.412598	-8.809464	7.232964	-12.565531
58933		-30.972417	4.274897	-15.734355	-2.097014	-1.116294	-0.615931	-0.936768	-0.020264	-0.395020	-10.038837	6.543548	-12.815024
58934		-28.679519	-1.167893	-16.397279	-1.185473	-0.462965	-0.417522	-0.938477	-0.020264	-0.384277	-10.736979	6.239261	-13.007820
58935		-15.746549	-8.238550	-12.876333	0.409961	0.531591	0.201455	-0.947754	-0.023193	-0.385498	-10.494129	6.560611	-12.954445
58936		5.605350	-12.999605	-3.459308	4.107655	2.796657	0.805270	-0.939453	-0.022217	-0.423340	-8.112986	8.216210	-12.760717
58937		8.519138	0.781953	14.970461	4.108805	3.593846	1.630142	-0.925049	-0.034180	-0.454346	-5.646361	10.373530	-12.075709
58938		-3.357597	0.414500	28.237134	3.425839	2.846707	0.669225	-0.926514	-0.037598	-0.466553	-3.632066	12.030336	-11.824819
58939		-1.802972	2.879840	14.041012	2.883333	2.061436	-0.375425	-0.921875	-0.057373	-0.490967	-2.040510	13.200576	-12.109473
58940		-5.736563	16.838633	5.351644	1.545808	2.704293	-1.556592	-0.898438	-0.078857	-0.514404	-1.386401	14.723067	-13.080019
58941		-7.458242	18.262408	6.118030	0.289424	3.619003	-2.049145	-0.888672	-0.108154	-0.541016	-1.565691	16.767164	-14.359387
58942		-8.367920	24.153305	16.777105	-0.274571	3.921843	-0.488041	-0.861572	-0.104004	-0.576904	-1.833535	19.005323	-14.727419
58943		-9.952536	17.880525	14.923211	-1.294149	3.528186	0.628048	-0.850586	-0.096436	-0.606934	-2.470084	21.040469	-14.429575
58944		-11.469808	-4.049506	11.708524	-1.813151	3.443179	0.158324	-0.832764	-0.076172	-0.640381	-3.513171	23.015575	-14.447368
58945		-21.825742	-20.898784	14.675692	-0.818546	3.053290	-0.214010	-0.815674	-0.066650	-0.665283	-4.086000	24.754719	-14.711888
58946		-16.548611	-15.077474	8.807854	0.422180	2.059715	-0.504740	-0.802246	-0.082275	-0.674805	-4.019561	25.911678	-15.127893
58947		-13.700431	-1.694153	11.353606	0.984933	1.509954	-0.118430	-0.794189	-0.097656	-0.694336	-3.516362	26.772803	-15.271443
58948		-7.709240	3.952944	10.425672	0.713080	0.777051	0.253572	-0.795166	-0.089600	-0.693848	-3.046429	27.225876	-15.141886
58949		-8.053248	1.378052	10.532820	0.470711	0.503389	0.205341	-0.786865	-0.084717	-0.694824	-2.722847	27.522467	-15.030435
58950		-6.534128	1.731540	9.669638	0.312810	0.280446	0.139312	-0.793945	-0.093994	-0.701660	-2.505365	27.686942	-14.953378
58951		-6.245316	1.684206	9.693809	0.148073	0.191859	0.091051	-0.780029	-0.093506	-0.704346	-2.394931	27.801734	-14.904254
58952		-4.989266	-0.048356	9.196132	0.076585	0.153460	0.085482	-0.792725	-0.093750	-0.702148	-2.326740	27.891939	-14.857665
58953		-4.878152	-0.443681	8.860661	0.063630	0.189850	0.057690	-0.779297	-0.093750	-0.701904	-2.274369	28.004723	-14.829638
58954		-4.956526	0.472479	8.716527	0.050995	0.169634	0.062638	-0.785156	-0.101563	-0.710449	-2.227721	28.103596	-14.797996
58955		-5.004322	0.328394	8.669658	0.021890	0.193946	0.057802	-0.783691	-0.090332	-0.708984	-2.199048	28.218695	-14.769736
58956		-4.268974	-0.767782	8.421826	0.028696	0.217801	0.085402	-0.771729	-0.092773	-0.707031	-2.158518	28.345606	-14.724277
58957		-3.661105	-0.881109	8.634159	0.046585	0.297382	0.084260	-0.772217	-0.098389	-0.708984	-2.108442	28.520454	-14.681041
58958		-3.579642	-0.401946	8.844904	0.041205	0.353081	0.103441	-0.770508	-0.089111	-0.715820	-2.056220	28.725132	-14.626633
58959		-3.783616	-0.309677	8.660198	0.038452	0.414944	0.182193	-0.776367	-0.092773	-0.723145	-1.980690	28.969136	-14.521525
58960		-4.408823	-0.879240	8.607272	0.081783	0.438573	0.197129	-0.767090	-0.089355	-0.729004	-1.875458	29.224447	-14.406728
58961		-4.815062	-1.220849	8.324124	0.150243	0.429308	0.252531	-0.769043	-0.095947	-0.717285	-1.711784	29.477536	-14.254103
58962		-5.213197	-0.378196	8.408020	0.181964	0.370522	0.261961	-0.761963	-0.088623	-0.726807	-1.525537	29.694376	-14.093204
58963		-4.955349	0.163201	8.432268	0.173425	0.336582	0.232976	-0.765869	-0.084229	-0.727051	-1.352005	29.893251	-13.949502
58964		-5.173089	0.270944	8.587672	0.159557	0.321287	0.205215	-0.761475	-0.093018	-0.734863	-1.194939	30.080319	-13.823257
58965		-5.114395	0.016780	8.487267	0.126554	0.309754	0.175026	-0.765381	-0.089355	-0.732666	-1.065638	30.262499	-13.715810
58966		-5.112968	-0.258874	8.430243	0.106794	0.305416	0.149480	-0.753906	-0.088867	-0.734375	-0.955973	30.439408	-13.624918
58967		-4.861820	-0.277956	8.369137	0.098887	0.291430	0.131279	-0.752686	-0.092773	-0.733398	-0.856010	30.610333	-13.545158
58968		-4.919358	-0.168366	8.463922	0.096151	0.300374	0.110073	-0.755859	-0.085693	-0.740479	-0.764818	30.783759	-13.479432
58969		-5.160005	-0.134967	8.415210	0.077500	0.280713	0.073691	-0.745117	-0.087158	-0.747314	-0.695921	30.947901	-13.437132
58970		-5.068124	-0.090708	8.476658	0.062997	0.277032	0.069255	-0.737305	-0.084473	-0.752197	-0.636992	31.107540	-13.397779
58971		-5.312693	0.260165	8.508234	0.022301	0.267730	0.034214	-0.744873	-0.086670	-0.748779	-0.612906	31.263927	-13.381328
58972		-5.389336	-0.388086	8.425472	-0.011276	0.261902	0.019497	-0.741455	-0.094482	-0.754883	-0.613495	31.414561	-13.374940
58973		-5.087173	-0.002539	8.627558	-0.012319	0.291176	0.023637	-0.742676	-0.090576	-0.754150	-0.612919	31.584319	-13.365669
58974		-5.157223	-0.319163	8.681043	-0.010100	0.306891	0.036116	-0.740234	-0.086670	-0.754883	-0.607080	31.760828	-13.348383
58975		-5.104830	-0.272861	8.666407	-0.029484	0.307511	0.060656	-0.737793	-0.086670	-0.757324	-0.603147	31.940153	-13.314197
58976		-5.291078	-0.057815	8.551750	-0.060803	0.308428	0.069566	-0.742920	-0.089600	-0.760498	-0.614247	32.117747	-13.274245
58977		-5.053825	-0.184459	8.663419	-0.101579	0.296841	0.059415	-0.729980	-0.082764	-0.758057	-0.651835	32.290950	-13.240788
58978		-5.012079	-0.136037	8.577754	-0.106514	0.322115	0.069639	-0.731934	-0.078125	-0.760742	-0.688985	32.476423	-13.200966
58979		-4.994447	0.128461	8.595400	-0.140337	0.362311	0.091968	-0.731201	-0.080811	-0.763428	-0.737052	32.687380	-13.146072
58980		-5.159864	-0.439882	8.424042	-0.077689	0.436367	0.127542	-0.729492	-0.082031	-0.768555	-0.736624	32.938774	-13.067845
58981		-5.277542	-0.319745	8.483637	-0.088868	0.474865	0.173395	-0.724854	-0.068115	-0.771729	-0.724826	33.214799	-12.958025
58982		-5.461222	0.186800	8.564323	-0.115906	0.518908	0.180208	-0.725830	-0.079102	-0.781006	-0.725886	33.513851	-12.843835
58983		-5.222173	-0.073286	8.590113	-0.146346	0.570365	0.179239	-0.711914	-0.077637	-0.781982	-0.743872	33.844622	-12.730086
58984		-5.092363	0.010255	8.572204	-0.126429	0.663246	0.151674	-0.703857	-0.069092	-0.788574	-0.761218	34.226196	-12.636210
58985		-5.452645	0.535428	8.697435	-0.188861	0.730074	0.129479	-0.700928	-0.073242	-0.792725	-0.822364	34.648128	-12.557920
58986		-4.769548	0.774322	9.024469	-0.259083	0.869632	0.079442	-0.696289	-0.064697	-0.801758	-0.944739	35.147479	-12.516810
58987		-5.610352	0.389897	8.786777	-0.313322	1.034464	0.035258	-0.681641	-0.063721	-0.811523	-1.117353	35.743023	-12.509766
58988		-5.558751	0.460862	8.794272	-0.374933	1.151024	-0.005734	-0.681152	-0.061035	-0.814697	-1.345340	36.402708	-12.536452
58989		-5.431921	0.272675	8.919145	-0.414107	1.325574	-0.052731	-0.667725	-0.056396	-0.821533	-1.619859	37.163670	-12.603404
58990		-5.329935	0.488778	8.867208	-0.410161	1.531255	-0.106602	-0.656494	-0.054932	-0.828857	-1.923397	38.039088	-12.719889
58991		-4.819347	0.383295	9.305465	-0.443442	1.775405	-0.137796	-0.645508	-0.053711	-0.844971	-2.270129	39.055138	-12.873142
58992		-4.910148	-0.428401	9.362660	-0.396534	2.084371	-0.146688	-0.613037	-0.048340	-0.860596	-2.609931	40.245067	-13.053583
58993		-4.615251	-0.470728	9.594956	-0.284580	2.432257	-0.122879	-0.603516	-0.049316	-0.873291	-2.892417	41.635872	-13.240163
58994		-3.927943	-0.507799	10.393536	-0.305124	2.890340	-0.070156	-0.578613	-0.046875	-0.883545	-3.185560	43.287746	-13.419165
58995		-2.903955	-0.924728	10.784399	-0.353998	3.552920	0.009489	-0.543457	-0.035889	-0.906738	-3.499795	45.322222	-13.582644
58996		-2.698856	-1.576238	10.459479	-0.396040	4.345653	0.131137	-0.505371	-0.031494	-0.944580	-3.817183	47.812064	-13.710664
58997		-3.407841	-2.266641	11.185156	-0.327222	5.216766	0.271143	-0.457275	-0.029785	-0.968506	-4.064997	50.806210	-13.793790
58998		-4.122624	-2.925510	12.061221	-0.224507	6.071616	0.437380	-0.392578	-0.025879	-0.979492	-4.197379	54.294215	-13.801671
58999		-7.001280	-2.772718	12.853059	-0.309842	6.960949	0.701117	-0.326416	-0.014160	-1.016357	-4.215965	58.302370	-13.613865
59000		-17.423854	-4.450513	17.760316	-0.516199	7.445557	0.921567	-0.252686	-0.009766	-1.036133	-4.135455	62.595715	-13.184404
59001		-10.335454	-3.336759	14.783393	-0.626969	7.175309	1.172471	-0.173340	-0.000488	-1.050537	-3.675948	66.743855	-12.281869
59002		-20.649674	-0.672845	21.542595	-1.012821	7.440913	1.219662	-0.097412	0.016846	-1.065674	-3.110668	71.041555	-11.057206
59003		-26.396127	-8.504713	24.231148	-1.133747	6.410764	1.504347	-0.033203	0.024414	-1.060059	-1.445963	74.746872	-8.639542
59004		-14.824386	-9.539771	20.803989	-0.181259	4.929876	2.124396	0.015625	0.026855	-1.053223	3.589085	77.551741	-3.351139
59005		-4.295060	-9.013017	15.062246	0.810226	4.689641	2.364930	0.061279	0.024902	-1.045898	12.734365	80.026252	5.493419
59006		-7.602480	-5.894576	10.207014	1.574194	4.699242	2.211100	0.101563	0.010498	-1.056641	27.087634	82.142975	19.102625
59007		-22.298027	-0.671469	22.644049	1.550233	2.865072	1.502566	0.124023	-0.004395	-1.042480	40.484435	83.035431	31.712812
59008		-6.055598	1.611245	17.121471	0.357696	1.258356	0.819371	0.124512	-0.008789	-1.027588	47.639493	83.230620	38.710438
59009		-1.941878	-0.864666	10.202897	-0.476138	0.744020	0.422404	0.123779	-0.003662	-1.021240	51.408092	83.325353	42.777422
59010		-3.400515	-2.600988	7.457879	-0.511507	0.081022	0.418926	0.107666	0.017090	-1.018066	52.655800	83.168220	44.326398
59011		-1.944958	-1.535472	5.218163	-0.268830	-0.783810	0.568645	0.091309	0.008545	-1.006836	51.229918	82.636868	43.042433
59012		0.176103	-0.303476	2.984179	-0.088666	-1.337689	0.658354	0.054443	0.018555	-1.008545	48.639705	81.858133	40.477093
59013		0.133332	0.368896	1.938271	-0.032581	-1.624021	0.650920	0.016113	0.018799	-0.984863	45.741615	80.953353	37.562863
59014		-0.752241	1.116439	1.372545	-0.036782	-1.860182	0.497792	-0.021484	0.033936	-0.971436	42.505716	79.992543	34.300634
59015		-1.205451	2.145318	0.903893	-0.110127	-2.079770	0.224099	-0.067871	0.037842	-0.954102	38.749232	79.004622	30.542384
59016		-2.010833	2.885429	0.747093	-0.212809	-2.288917	-0.088325	-0.105957	0.044678	-0.948486	34.567924	77.984978	26.397407
59017		-2.412477	2.686174	0.351751	-0.248557	-2.516965	-0.384784	-0.148438	0.053223	-0.921143	30.101882	76.883147	21.965868
59018		-2.761691	2.466580	0.165103	-0.138023	-2.681889	-0.620132	-0.203369	0.050293	-0.906494	25.773078	75.693600	17.589216
59019		-3.493506	2.477609	0.168790	0.055746	-2.835206	-0.777287	-0.246094	0.057617	-0.875732	21.806315	74.384554	13.448431
59020		-4.582780	2.986959	0.248787	0.256096	-3.011414	-0.857663	-0.298340	0.050781	-0.841309	18.347794	72.933808	9.689152
59021		-5.190257	3.721690	0.304776	0.345461	-3.224984	-0.864174	-0.354736	0.052490	-0.805664	15.398677	71.306481	6.380525
59022		-5.549751	4.044142	0.235519	0.312529	-3.421225	-0.789350	-0.397705	0.054932	-0.766357	12.986214	69.517982	3.627480
59023		-5.923561	4.377750	-0.061237	0.201099	-3.588747	-0.676157	-0.449951	0.052979	-0.716797	11.036758	67.584491	1.407087
59024		-5.640650	4.081446	-0.468663	0.022267	-3.677459	-0.506275	-0.493652	0.060059	-0.665283	9.516407	65.564040	-0.266238
59025		-6.409044	2.974280	-0.846329	-0.101393	-3.673109	-0.311388	-0.534668	0.052002	-0.612793	8.392776	63.510095	-1.448842
59026		-7.019439	1.770163	-0.990749	-0.118112	-3.637313	-0.170409	-0.571777	0.057617	-0.548828	7.578443	61.460862	-2.293452
59027		-7.347456	0.294586	-0.917679	-0.044358	-3.508135	-0.080884	-0.608154	0.054932	-0.497070	7.015916	59.470384	-2.913508
59028		-9.111901	-0.144255	-0.662650	0.068483	-3.381690	-0.124729	-0.627686	0.056396	-0.422363	6.561303	57.555816	-3.495540
59029		-9.485997	-0.206432	-0.344866	0.072272	-3.246427	-0.269692	-0.642090	0.052734	-0.362305	6.054883	55.721635	-4.154329
59030		-9.671538	-0.590360	0.103708	-0.023867	-3.072102	-0.427702	-0.655518	0.053467	-0.302979	5.441134	53.995727	-4.891182
59031		-10.005084	-1.445567	0.797699	-0.120732	-2.899861	-0.576357	-0.665527	0.049805	-0.231445	4.732446	52.368000	-5.693037
59032		-10.697826	-2.647207	1.915090	-0.141956	-2.753384	-0.727541	-0.654785	0.031494	-0.178467	3.973066	50.827393	-6.561419
59033		-12.025547	-3.306381	2.859867	-0.067241	-2.671494	-0.919885	-0.649170	0.040283	-0.119385	3.188752	49.330863	-7.536902
59034		-12.311108	-3.036417	3.562814	-0.009685	-2.624828	-1.177613	-0.639160	0.011475	-0.069092	2.334550	47.861845	-8.671624
59035		-12.757945	-2.356571	4.086372	-0.064290	-2.548614	-1.423287	-0.624023	0.007813	-0.008301	1.365772	46.427151	-9.945910
59036		-13.294045	-2.311627	4.379816	-0.158593	-2.489534	-1.627843	-0.603516	-0.010498	0.034424	0.295597	45.014907	-11.317171
59037		-13.748114	-2.495389	4.445361	-0.173889	-2.421082	-1.778720	-0.577148	-0.036621	0.069580	-0.795660	43.622014	-12.739523
59038		-14.127896	-1.486725	4.295600	-0.143371	-2.328277	-1.911864	-0.553711	-0.049072	0.109863	-1.869476	42.263216	-14.198740
59039		-14.286302	-0.008127	4.595274	-0.177435	-2.190130	-1.995933	-0.509766	-0.059814	0.133057	-2.941307	40.960540	-15.662687
59040		-14.700284	1.330467	3.818192	-0.271380	-2.065668	-1.912838	-0.481445	-0.082031	0.160156	-3.966260	39.713313	-17.009749
59041		-13.152646	2.598268	2.341199	-0.393696	-1.824283	-1.642232	-0.467285	-0.093750	0.178955	-4.891605	38.598099	-18.121298
59042		-12.452251	2.774438	0.859347	-0.593744	-1.325083	-1.253067	-0.434326	-0.105225	0.197510	-5.739480	37.775744	-18.946568
59043		-12.697286	2.367404	-0.388832	-0.881899	-0.698548	-0.956079	-0.406494	-0.118408	0.203613	-6.631307	37.318975	-19.584566
59044		-13.957980	0.584219	-0.439165	-1.201689	-0.008878	-0.809174	-0.391113	-0.111328	0.217773	-7.670227	37.256207	-20.167162
59045		-17.516035	-0.304628	1.188635	-1.526512	0.412585	-0.799745	-0.378906	-0.129883	0.220215	-8.917726	37.424885	-20.785727
59046		-17.861142	0.188309	0.495106	-1.894476	0.477930	-0.799073	-0.361572	-0.131348	0.216797	-10.385668	37.617894	-21.417894
59047		-19.904247	-7.856404	-0.952862	-1.927744	0.713119	-0.555856	-0.353516	-0.143066	0.223877	-11.794463	37.959292	-21.918168
59048		-27.971109	-1.905364	2.554260	1.326999	0.125830	2.224373	-0.356689	-0.139404	0.229980	-10.063753	38.271453	-20.350280
59049		-12.189529	-3.988212	-1.616855	1.197861	-0.228356	0.884437	-0.356689	-0.128174	0.235352	-8.967795	38.229424	-19.691908
59050		-12.638493	-1.011310	6.332117	2.004776	-0.120995	0.354210	-0.366455	-0.124512	0.254150	-7.653879	38.190071	-19.428847
59051		-9.390080	13.463379	18.790687	1.152570	-0.706063	0.206308	-0.363770	-0.122070	0.256348	-6.863505	37.807749	-19.220809
59052		-0.374794	0.214334	13.263444	-0.213081	-1.032849	0.417612	-0.354980	-0.119629	0.265381	-6.749851	37.248515	-18.837998
59053		-7.124379	-1.620597	9.116752	0.248192	-0.695290	0.238987	-0.354736	-0.114258	0.266846	-6.470791	36.872213	-18.615044
59054		-8.063177	3.263835	7.843215	0.022607	-0.571467	0.148553	-0.354248	-0.126221	0.271240	-6.367993	36.556400	-18.469023
59055		-6.250483	-3.076890	7.488984	0.124673	-0.486715	0.051108	-0.354736	-0.124268	0.268799	-6.252698	36.286205	-18.399550
59056		-5.487867	1.110477	9.564738	0.144081	-0.426933	0.019557	-0.362305	-0.115723	0.275146	-6.143171	36.044291	-18.358160
59057		-5.834567	-1.146036	8.048959	0.076159	-0.405593	0.006408	-0.355225	-0.117676	0.275391	-6.079133	35.817362	-18.327859
59058		-6.400188	0.778628	8.237260	0.044485	-0.364861	-0.058924	-0.347412	-0.118408	0.271484	-6.062309	35.605985	-18.347068
59059		-5.974857	-1.738250	7.662442	-0.004412	-0.366442	-0.068715	-0.351807	-0.117188	0.280762	-6.076988	35.396807	-18.372580
59060		-5.689952	-1.231094	7.881255	0.064428	-0.390624	-0.030541	-0.356445	-0.116211	0.278320	-6.036053	35.172471	-18.370033
59061		-5.277936	-1.750904	7.879626	0.070528	-0.386750	0.036793	-0.349121	-0.113770	0.274902	-5.964748	34.958080	-18.320825
59062		-5.160852	-1.714289	8.177605	0.119013	-0.380937	0.103157	-0.345215	-0.114990	0.280762	-5.840317	34.747137	-18.226869
59063		-5.429353	-1.606277	7.981749	0.133254	-0.368880	0.162174	-0.342285	-0.120605	0.288086	-5.685521	34.549945	-18.093424
59064		-5.588934	-0.998390	8.298961	0.160391	-0.348179	0.180855	-0.350830	-0.116455	0.289795	-5.509797	34.361617	-17.949768
59065		-5.613792	-0.168558	8.408818	0.128299	-0.328248	0.161412	-0.349365	-0.118164	0.286621	-5.361505	34.186923	-17.821524
59066		-5.645076	0.012000	8.383774	0.080461	-0.283478	0.086975	-0.354492	-0.104492	0.288574	-5.271856	34.029944	-17.748410
59067		-5.792821	0.043778	8.382345	0.039436	-0.251082	0.015710	-0.353027	-0.113281	0.287598	-5.234338	33.891289	-17.726385
59068		-5.738808	-0.101456	8.079020	-0.010013	-0.223341	-0.056402	-0.346680	-0.116211	0.292969	-5.254022	33.761037	-17.756018
59069		-5.292452	-0.519479	8.320872	-0.048873	-0.198861	-0.106972	-0.359863	-0.111816	0.290771	-5.315621	33.645727	-17.821367
59070		-5.389050	-0.789584	8.446664	-0.064493	-0.176084	-0.114339	-0.345947	-0.105957	0.294678	-5.389841	33.539290	-17.893333
59071		-5.658058	-0.901518	8.237515	-0.064083	-0.178533	-0.102168	-0.350586	-0.118652	0.293213	-5.458581	33.435681	-17.956206
59072		-5.392030	-1.050457	8.208235	-0.051352	-0.183255	-0.084879	-0.352295	-0.115479	0.288818	-5.513461	33.326629	-18.007108
59073		-5.159651	-1.117255	8.235884	-0.033486	-0.159056	-0.052435	-0.338867	-0.114014	0.295898	-5.546385	33.236776	-18.036971
59074		-5.306466	-1.075415	8.306181	-0.020994	-0.146370	-0.021553	-0.347900	-0.125732	0.288574	-5.561299	33.152220	-18.046898
59075		-5.344384	-0.807173	8.378831	-0.009072	-0.123402	-0.013495	-0.344238	-0.114990	0.295410	-5.566935	33.084828	-18.052510
59076		-5.490514	-0.741622	8.309612	-0.010205	-0.113188	-0.012110	-0.350342	-0.117676	0.294434	-5.573319	33.019716	-18.058170
59077		-5.617345	-0.544743	8.175336	-0.016381	-0.124146	-0.021968	-0.346680	-0.114502	0.298096	-5.586220	32.951419	-18.069460
59078		-5.627722	-0.411037	8.198765	-0.032481	-0.136734	-0.048308	-0.352295	-0.115723	0.294434	-5.617834	32.870854	-18.098085
59079		-5.371316	-0.678328	8.163285	-0.061868	-0.146597	-0.068630	-0.350342	-0.119141	0.289551	-5.673026	32.787133	-18.139396
59080		-5.164376	-0.747795	8.306980	-0.077706	-0.135959	-0.083182	-0.356445	-0.116943	0.299072	-5.743174	32.704978	-18.191483
59081		-5.118236	-0.921634	8.348424	-0.077530	-0.114193	-0.070935	-0.344971	-0.120117	0.300781	-5.809115	32.639508	-18.236262
59082		-5.009211	-1.066045	8.316408	-0.055794	-0.089129	-0.044997	-0.354980	-0.109131	0.302002	-5.854269	32.586175	-18.265458
59083		-5.110940	-1.043145	8.373968	-0.037152	-0.062544	-0.019830	-0.341797	-0.124512	0.293457	-5.880255	32.553048	-18.279096
59084		-5.098336	-0.938396	8.358726	-0.014811	-0.036500	-0.000625	-0.341309	-0.117676	0.291016	-5.887689	32.532294	-18.281879
59085		-5.100243	-0.888079	8.260115	-0.001846	-0.009261	0.015770	-0.354492	-0.114990	0.295654	-5.882498	32.531597	-18.275152
59086		-5.253994	-0.870531	8.285904	0.008102	0.015163	0.027990	-0.352051	-0.116943	0.294189	-5.868333	32.541967	-18.262187
59087		-5.284881	-0.769638	8.329758	0.015092	0.032427	0.032620	-0.340332	-0.120605	0.303955	-5.848862	32.565999	-18.246961
59088		-5.444842	-0.700111	8.254207	0.010833	0.034014	0.026899	-0.338379	-0.117188	0.298584	-5.834218	32.587044	-18.236025
59089		-5.495113	-0.696094	8.243756	0.002993	0.019237	0.014932	-0.346191	-0.115479	0.297363	-5.827602	32.602520	-18.231828
59090		-5.389473	-0.792124	8.177964	-0.001548	0.014049	0.008175	-0.341309	-0.116943	0.295898	-5.826126	32.611094	-18.232173
59091		-5.255893	-0.940212	8.216695	0.001606	0.010106	0.006510	-0.347412	-0.113037	0.304443	-5.823025	32.620883	-18.233036
59092		-5.348849	-0.951376	8.302847	0.001396	0.019275	0.014783	-0.347412	-0.115723	0.307617	-5.817644	32.632820	-18.229269
59093		-5.452994	-0.914392	8.198472	0.006278	0.004084	0.023398	-0.350586	-0.118652	0.305176	-5.805488	32.640150	-18.218290
59094		-5.369206	-0.859333	8.294356	0.004061	-0.005081	0.024593	-0.342529	-0.122803	0.302979	-5.794092	32.638770	-18.206202
59095		-5.443401	-0.769443	8.186862	0.001647	-0.013287	0.028684	-0.347412	-0.121094	0.302002	-5.782019	32.636501	-18.190453
59096		-5.296516	-0.823285	8.190057	0.004747	-0.012886	0.030431	-0.350586	-0.118896	0.294922	-5.767812	32.631004	-18.173880
59097		-5.425822	-0.759440	8.370393	0.006909	-0.017733	0.020912	-0.352539	-0.124268	0.298096	-5.755397	32.625749	-18.163089
59098		-5.550931	-0.721459	8.263444	-0.008141	-0.030448	0.018948	-0.348389	-0.118652	0.306641	-5.752125	32.609576	-18.153096
59099		-5.488313	-0.781768	8.196802	-0.009898	-0.043940	0.011923	-0.348389	-0.108398	0.298828	-5.751649	32.588870	-18.146600
59100		-5.383281	-0.849837	8.173332	-0.005142	-0.056136	0.005028	-0.346924	-0.119873	0.296387	-5.750796	32.557253	-18.144278
59101		-5.221532	-0.847178	8.136398	-0.006828	-0.063826	0.000951	-0.348389	-0.116211	0.302246	-5.751831	32.524588	-18.143851
59102		-5.229770	-0.857463	8.206502	-0.004131	-0.055231	0.012884	-0.343018	-0.113037	0.300049	-5.747581	32.493938	-18.136283
59103		-5.299939	-0.909221	8.329237	-0.002336	-0.056228	0.010136	-0.344971	-0.116211	0.302490	-5.742992	32.466124	-18.130172
59104		-5.423041	-0.825065	8.373638	-0.001161	-0.058216	0.014111	-0.346191	-0.121826	0.303955	-5.736500	32.433842	-18.121584
59105		-5.382540	-0.883251	8.303748	0.002525	-0.067074	0.022157	-0.346436	-0.118652	0.297119	-5.724395	32.400526	-18.106634
59106		-5.282133	-0.920458	8.319665	0.010668	-0.063886	0.023405	-0.346924	-0.114014	0.311279	-5.707580	32.365539	-18.091411
59107		-5.245526	-0.845913	8.304409	0.015595	-0.054341	0.028754	-0.356201	-0.117188	0.302734	-5.686101	32.339846	-18.072907
59108		-5.289866	-0.723481	8.333914	0.022047	-0.050636	0.031300	-0.340088	-0.114014	0.295410	-5.660428	32.312850	-18.053285
59109		-5.453955	-0.595257	8.341562	0.011485	-0.055638	0.019169	-0.343994	-0.117676	0.304932	-5.644740	32.285856	-18.041193
59110		-5.454073	-0.682010	8.348453	-0.002566	-0.067331	0.005722	-0.344971	-0.114014	0.313721	-5.641815	32.247893	-18.037736
59111		-5.195378	-0.801636	8.293127	-0.011601	-0.069960	-0.003828	-0.354004	-0.115234	0.297852	-5.647111	32.211442	-18.040192
59112		-5.172768	-0.843483	8.329157	-0.014163	-0.066954	-0.009857	-0.339844	-0.118408	0.299072	-5.656438	32.172814	-18.047253
59113		-5.196645	-0.931901	8.331420	-0.012945	-0.056764	-0.017932	-0.350342	-0.118164	0.302002	-5.668019	32.143076	-18.060075
59114		-5.214472	-0.863995	8.340437	-0.010531	-0.050599	-0.003631	-0.345703	-0.120117	0.296875	-5.673600	32.114124	-18.064017
59115		-5.372936	-0.768537	8.309604	-0.007381	-0.054544	-0.005310	-0.348389	-0.126953	0.301514	-5.677547	32.086352	-18.068480
59116		-5.484399	-0.731761	8.421226	-0.017359	-0.068799	-0.011116	-0.346191	-0.117920	0.306152	-5.689058	32.046598	-18.076229
59117		-5.532297	-0.783443	8.301477	-0.030679	-0.098536	-0.005669	-0.352051	-0.116455	0.305176	-5.704894	31.993729	-18.077960
59118		-5.299904	-0.875083	8.281507	-0.031395	-0.117389	-0.009229	-0.355713	-0.114258	0.306885	-5.722016	31.926378	-18.081141
59119		-5.277764	-0.889656	8.359189	-0.032226	-0.131419	-0.007927	-0.343262	-0.120361	0.313232	-5.738344	31.854642	-18.082131
59120		-5.303150	-0.797128	8.320818	-0.028109	-0.142185	-0.005694	-0.345703	-0.117676	0.302002	-5.751419	31.773357	-18.081219
59121		-5.218075	-0.769070	8.346082	-0.025816	-0.149544	0.001727	-0.343262	-0.120850	0.303467	-5.760004	31.691842	-18.074473
59122		-5.224259	-0.798888	8.310735	-0.025944	-0.154850	0.000234	-0.344971	-0.120605	0.311035	-5.769292	31.603678	-18.068703
59123		-4.908902	-0.820319	8.280200	-0.029441	-0.143072	-0.008703	-0.352295	-0.119629	0.309082	-5.783833	31.525250	-18.069347
59124		-4.851288	-0.916041	8.422003	-0.034027	-0.113382	-0.012284	-0.344238	-0.126953	0.312500	-5.803584	31.460003	-18.074715
59125		-4.909145	-0.910207	8.380906	-0.024519	-0.084559	-0.011305	-0.343506	-0.114258	0.312988	-5.818258	31.414746	-18.081020
59126		-4.960801	-0.818212	8.459459	-0.017645	-0.046462	-0.011936	-0.336670	-0.120117	0.306641	-5.830846	31.387661	-18.090668
59127		-5.075673	-0.828253	8.421608	-0.009981	-0.020510	-0.010161	-0.340576	-0.113525	0.303711	-5.839051	31.378947	-18.100555
59128		-5.104679	-0.833164	8.451701	-0.004605	0.001098	-0.002308	-0.342773	-0.118652	0.307373	-5.842502	31.379530	-18.107012
59129		-5.118199	-0.855826	8.374865	-0.001708	0.004853	0.004736	-0.342041	-0.122559	0.313232	-5.841687	31.386125	-18.108682
59130		-5.060762	-0.914768	8.304458	0.016548	0.007679	0.021269	-0.347168	-0.122803	0.309326	-5.825053	31.391832	-18.099846
59131		-5.090498	-0.847264	8.344345	0.029402	0.023748	0.033089	-0.342285	-0.126465	0.308594	-5.797220	31.410833	-18.083867
59132		-5.109278	-0.884756	8.280948	0.038616	0.021551	0.037708	-0.337402	-0.112793	0.304443	-5.762700	31.425390	-18.064979
59133		-5.047413	-0.955909	8.314761	0.053216	0.034696	0.045777	-0.348633	-0.117676	0.317139	-5.717161	31.451333	-18.041228
59134		-5.038936	-0.959811	8.384573	0.067439	0.045891	0.057676	-0.350098	-0.124512	0.302979	-5.659972	31.480875	-18.010577
59135		-5.055209	-0.905015	8.316724	0.078832	0.057189	0.064499	-0.344482	-0.109863	0.301758	-5.593942	31.520639	-17.975726
59136		-5.113843	-0.863423	8.345308	0.082227	0.062426	0.066264	-0.347168	-0.117432	0.307617	-5.525750	31.560029	-17.940303
59137		-5.093414	-0.752189	8.362302	0.083417	0.078888	0.062572	-0.349854	-0.108887	0.310059	-5.458392	31.611979	-17.908011
59138		-5.337721	-0.648463	8.472598	0.075691	0.077668	0.057561	-0.346436	-0.120117	0.304443	-5.397387	31.659522	-17.879246
59139		-5.478701	-0.525716	8.427151	0.043591	0.049556	0.035365	-0.349121	-0.112305	0.304688	-5.361318	31.693218	-17.863186
59140		-5.327160	-0.670114	8.342295	0.025097	0.023445	0.026434	-0.343994	-0.116943	0.308838	-5.338401	31.708132	-17.851791
59141		-5.257406	-0.787793	8.318571	0.018320	0.017332	0.026322	-0.353027	-0.112305	0.303467	-5.318885	31.722963	-17.839728
59142		-5.301686	-0.811254	8.271024	0.019112	0.007125	0.029743	-0.356201	-0.115723	0.306885	-5.297683	31.728735	-17.825080
59143		-5.180430	-0.863110	8.267014	0.024505	-0.004183	0.035490	-0.346680	-0.114014	0.314941	-5.270681	31.731768	-17.805520
59144		-5.163896	-0.816403	8.329810	0.030463	-0.003884	0.042294	-0.347168	-0.119141	0.306885	-5.238184	31.731906	-17.781767
59145		-5.138464	-0.861582	8.309765	0.035467	-0.003048	0.040784	-0.345215	-0.123047	0.300781	-5.203075	31.735837	-17.758729
59146		-5.000131	-0.835279	8.373214	0.037665	0.014800	0.046353	-0.340820	-0.115479	0.307861	-5.165613	31.746822	-17.733387
59147		-5.017283	-0.802918	8.320251	0.055737	0.039448	0.060553	-0.345947	-0.111572	0.309082	-5.113252	31.775971	-17.699644
59148		-5.119542	-0.740465	8.326181	0.068596	0.063802	0.058318	-0.340332	-0.116699	0.313232	-5.055337	31.815491	-17.669158
59149		-5.194468	-0.707722	8.296313	0.079562	0.081428	0.054934	-0.351318	-0.105469	0.308838	-4.992536	31.868242	-17.641579
59150		-5.229580	-0.716159	8.302553	0.083223	0.089565	0.055749	-0.345459	-0.114990	0.302246	-4.927832	31.922284	-17.614190
59151		-5.246170	-0.613573	8.380984	0.081494	0.086232	0.055114	-0.353271	-0.109619	0.313721	-4.863872	31.977727	-17.586602
59152		-5.330287	-0.653554	8.373740	0.075085	0.080132	0.050194	-0.342773	-0.116455	0.308594	-4.805394	32.026065	-17.562244
59153		-5.347891	-0.620455	8.442622	0.063015	0.064019	0.048166	-0.351074	-0.116211	0.299072	-4.753708	32.068441	-17.537924
59154		-5.387135	-0.649337	8.339934	0.055282	0.048261	0.052819	-0.353516	-0.114014	0.303223	-4.704595	32.098666	-17.509893
59155		-5.390676	-0.641974	8.338216	0.056131	0.028854	0.048050	-0.347900	-0.106689	0.304688	-4.655779	32.120919	-17.483607
59156		-5.333561	-0.662860	8.273627	0.047397	0.016035	0.046804	-0.352051	-0.107178	0.312012	-4.612348	32.132423	-17.457798
59157		-5.265195	-0.646359	8.305477	0.041861	0.003120	0.045842	-0.344971	-0.120361	0.306641	-4.571721	32.139846	-17.431563
59158		-5.204962	-0.703286	8.361450	0.038829	0.002243	0.042669	-0.345215	-0.108154	0.307617	-4.534271	32.143254	-17.407779
59159		-5.224392	-0.643074	8.347896	0.034194	0.001414	0.039354	-0.348877	-0.114746	0.308350	-4.500307	32.149369	-17.385819
59160		-5.295513	-0.599629	8.340121	0.032804	0.002425	0.037293	-0.337402	-0.109375	0.305908	-4.468237	32.152615	-17.365666
59161		-5.299522	-0.614659	8.354656	0.026397	-0.001742	0.033343	-0.350586	-0.109131	0.304443	-4.440798	32.156630	-17.347587
59162		-5.291900	-0.655068	8.297255	0.024216	-0.006999	0.036552	-0.349365	-0.110352	0.310547	-4.413649	32.154443	-17.327436
59163		-5.288795	-0.582866	8.307632	0.024134	-0.010876	0.034613	-0.349609	-0.116699	0.310547	-4.386795	32.153276	-17.308023
59164		-5.242424	-0.650613	8.307312	0.020677	-0.018040	0.031900	-0.351074	-0.110352	0.311279	-4.363045	32.144563	-17.290445
59165		-5.269764	-0.616039	8.342835	0.020054	-0.025284	0.034283	-0.352051	-0.114990	0.310059	-4.338258	32.135127	-17.270521
59166		-5.268829	-0.563721	8.368483	0.020258	-0.028693	0.028977	-0.349854	-0.109131	0.309082	-4.315519	32.120189	-17.254383
59167		-5.264264	-0.575400	8.350777	0.018909	-0.025744	0.027884	-0.347168	-0.113281	0.304932	-4.293680	32.110193	-17.238767
