// General information: 
//  MT Manager version: 2022.2.0 
//  XDA version: 2022.2.0 build 7381 rev 124627 built on 2023-07-19
// Device information: 
//  DeviceId: 00B4BCF6
//  ProductCode: MTW2-3A7G6
//  Firmware Version: 4.6.0
//  Hardware Version: 2.0.0
// Device settings: 
//  Filter Profile: human(46.1)
//  Option Flags: Orientation Smoother Disabled, Position/Velocity Smoother Disabled, Continuous Zero Rotation Update Disabled, AHS Disabled, ICC Disabled
// Coordinate system: ENU
PacketCounter	SampleTimeFine	Acc_X	Acc_Y	Acc_Z	Gyr_X	Gyr_Y	Gyr_Z	Mag_X	Mag_Y	Mag_Z	Roll	Pitch	Yaw
16081		-2.813285	6.866830	6.439269	0.003121	0.009975	-0.000071	0.577393	-0.337158	-0.105957	47.112992	15.779089	-67.459620
16082		-2.797859	6.878360	6.467224	0.002758	0.003798	-0.005503	0.582520	-0.340332	-0.102539	47.116362	15.778463	-67.459978
16083		-2.795450	6.888038	6.419262	-0.001809	0.009566	-0.002425	0.570557	-0.349365	-0.097900	47.118282	15.778044	-67.456529
16084		-2.780991	6.865482	6.440478	-0.000198	0.007890	-0.004999	0.572998	-0.342529	-0.099854	47.120500	15.778802	-67.454896
16085		-2.799456	6.849029	6.435789	-0.000198	0.007891	-0.004999	0.580566	-0.345947	-0.103027	47.122846	15.778865	-67.453225
16086		-2.782651	6.865081	6.440189	-0.003746	0.007852	-0.003781	0.569092	-0.337402	-0.089844	47.123160	15.779097	-67.451116
16087		-2.801833	6.877368	6.466558	-0.002940	0.007014	-0.005068	0.583252	-0.341064	-0.095703	47.123802	15.778905	-67.449861
16088		-2.787372	6.854731	6.487867	-0.001003	0.008730	-0.003711	0.577148	-0.345947	-0.103760	47.125800	15.779449	-67.447340
16089		-2.785097	6.864348	6.439913	-0.000966	0.011517	-0.002208	0.576660	-0.341309	-0.099609	47.128392	15.779865	-67.442968
16090		-2.804314	6.876876	6.466007	0.000091	0.008497	-0.002568	0.575684	-0.339600	-0.097412	47.131115	15.779839	-67.440086
16091		-2.769649	6.846683	6.437012	0.000305	0.003528	-0.003142	0.576904	-0.346680	-0.096924	47.133362	15.777587	-67.439584
16092		-2.788614	6.859297	6.463121	0.001991	0.007426	-0.002712	0.576904	-0.341309	-0.100830	47.137031	15.777203	-67.437227
16093		-2.786031	6.869134	6.415061	0.002241	0.005244	-0.001784	0.576416	-0.350342	-0.099609	47.140715	15.775098	-67.435433
16094		-2.805792	6.910667	6.472016	-0.000752	0.006549	-0.002782	0.572510	-0.346680	-0.094971	47.142700	15.774402	-67.433488
16095		-2.788855	6.864090	6.438562	-0.001002	0.008733	-0.003710	0.585205	-0.345703	-0.094971	47.144713	15.774519	-67.430955
16096		-2.788912	6.897730	6.445352	-0.001002	0.008733	-0.003709	0.578613	-0.333496	-0.100830	47.146712	15.775062	-67.428432
16097		-2.792193	6.858710	6.462200	-0.005088	0.010273	-0.005850	0.578613	-0.343018	-0.103516	47.146316	15.776728	-67.426098
16098		-2.773887	6.879460	6.442925	-0.003780	0.005068	-0.005283	0.578125	-0.340820	-0.103516	47.146115	15.776505	-67.425812
16099		-2.810661	6.875405	6.464815	-0.002938	0.007019	-0.005067	0.578857	-0.349365	-0.101074	47.146628	15.776621	-67.424585
16100		-2.792854	6.862592	6.438426	0.000306	0.003530	-0.003141	0.579102	-0.338623	-0.092529	47.148822	15.774898	-67.424103
16101		-2.811163	6.846282	6.433609	0.002583	0.011563	-0.003420	0.575195	-0.341309	-0.104980	47.153198	15.776146	-67.420232
16102		-2.795182	6.891481	6.468652	-0.001558	0.007389	-0.001494	0.570801	-0.349854	-0.100830	47.154963	15.775235	-67.417399
16103		-2.779034	6.873829	6.466057	-0.001001	0.008736	-0.003708	0.574707	-0.347900	-0.097900	47.156896	15.775555	-67.414883
16104		-2.792598	6.872114	6.389684	0.001991	0.007431	-0.002708	0.583496	-0.342773	-0.093994	47.160566	15.775170	-67.412523
16105		-2.780520	6.873715	6.465539	-0.001001	0.008737	-0.003707	0.576660	-0.332520	-0.102539	47.162486	15.775536	-67.410010
16106		-2.778956	6.912291	6.448433	0.000092	0.008503	-0.002564	0.575928	-0.342773	-0.096680	47.165211	15.775509	-67.407124
16107		-2.780341	6.878298	6.441383	-0.003493	0.005674	-0.002853	0.579102	-0.347168	-0.095215	47.165417	15.774364	-67.405606
16108		-2.780894	6.878067	6.441392	-0.002365	0.008229	-0.000207	0.574463	-0.336914	-0.093506	47.166961	15.773239	-67.401885
16109		-2.797587	6.866336	6.413026	-0.004835	0.008094	-0.004922	0.577881	-0.345947	-0.098145	47.166442	15.773948	-67.400153
16110		-2.799280	6.894867	6.443921	-0.002935	0.007022	-0.005065	0.580811	-0.340088	-0.097900	47.166981	15.774394	-67.398926
16111		-2.800782	6.860713	6.436984	-0.004550	0.008698	-0.002492	0.583740	-0.340820	-0.100098	47.166952	15.774367	-67.395949
16112		-2.782226	6.881504	6.417809	-0.005427	0.003959	-0.004212	0.575195	-0.348145	-0.100342	47.165794	15.773262	-67.395713
16113		-2.803595	6.855029	6.461169	-0.002685	0.004839	-0.004138	0.573486	-0.344971	-0.101074	47.166181	15.772469	-67.395091
16114		-2.803465	6.888552	6.468188	-0.004264	0.009303	-0.000061	0.581787	-0.345459	-0.102539	47.166780	15.771701	-67.390843
16115		-2.788913	6.865938	6.489548	-0.001807	0.009579	-0.002417	0.580322	-0.345947	-0.095459	47.168398	15.772079	-67.387460
16116		-2.787978	6.870586	6.465653	-0.003492	0.005677	-0.002851	0.586426	-0.339844	-0.109375	47.168702	15.771071	-67.385924
16117		-2.804420	6.858960	6.437268	-0.001307	0.005209	-0.000565	0.574463	-0.338623	-0.097656	47.170265	15.769008	-67.383706
16118		-2.768049	6.896411	6.422378	-0.001272	0.007997	0.000939	0.583740	-0.340332	-0.105469	47.172533	15.767311	-67.379623
16119		-2.787156	6.908893	6.448534	-0.000999	0.008742	-0.003703	0.574463	-0.345947	-0.096680	47.174335	15.767986	-67.377135
16120		-2.790189	6.869957	6.465368	-0.003491	0.005678	-0.002851	0.579346	-0.341797	-0.104736	47.174639	15.766978	-67.375599
16121		-2.789218	6.874519	6.441580	-0.004548	0.008702	-0.002490	0.572754	-0.337646	-0.100830	47.174519	15.767166	-67.372641
16122		-2.789929	6.874142	6.441674	-0.003775	0.005076	-0.005281	0.581787	-0.348389	-0.103271	47.174322	15.766944	-67.372351
16123		-2.774604	6.885142	6.470255	-0.004617	0.003125	-0.005498	0.582275	-0.339111	-0.092041	47.173155	15.766265	-67.373049
16124		-2.790631	6.907033	6.449024	-0.005117	0.007497	-0.007349	0.575684	-0.340332	-0.091797	47.172249	15.767856	-67.372539
16125		-2.773745	6.860133	6.415894	-0.004867	0.005312	-0.006423	0.574707	-0.344482	-0.095215	47.171083	15.768453	-67.372661
16126		-2.739364	6.892359	6.425106	-0.003741	0.007866	-0.003775	0.576416	-0.346680	-0.104004	47.171402	15.768686	-67.370543
16127		-2.812229	6.884505	6.468692	-0.003775	0.005078	-0.005280	0.576172	-0.337646	-0.098145	47.170950	15.768741	-67.370306
16128		-2.794481	6.871566	6.442450	-0.002932	0.007030	-0.005061	0.587402	-0.344971	-0.091064	47.171492	15.769188	-67.369074
16129		-2.777589	6.887572	6.447047	-0.003491	0.005681	-0.002849	0.577881	-0.346924	-0.095459	47.171524	15.768499	-67.367594
16130		-2.795993	6.870859	6.442548	-0.004273	0.009452	-0.007129	0.576172	-0.344238	-0.096924	47.171358	15.770759	-67.366141
16131		-2.815454	6.882954	6.468940	-0.004057	0.004477	-0.007709	0.579102	-0.340088	-0.099121	47.170374	15.771680	-67.367157
16132		-2.780071	6.886319	6.447317	-0.003491	0.005682	-0.002849	0.578613	-0.342041	-0.098633	47.170680	15.770672	-67.365618
16133		-2.779740	6.857064	6.416579	-0.002999	0.001453	-0.008070	0.578857	-0.349121	-0.092041	47.169888	15.770606	-67.368104
16134		-2.781394	6.885503	6.447617	-0.004865	0.005315	-0.006421	0.577393	-0.346680	-0.101807	47.168970	15.770957	-67.368171
16135		-2.799792	6.868630	6.443274	-0.005956	0.005551	-0.007564	0.582764	-0.347900	-0.092773	47.167014	15.772308	-67.368666
16136		-2.783075	6.884424	6.448044	-0.004056	0.004479	-0.007707	0.582764	-0.346924	-0.106445	47.166318	15.772874	-67.369619
16137		-2.798084	6.877465	6.395936	-0.003806	0.002292	-0.006783	0.577148	-0.341797	-0.095947	47.165279	15.772664	-67.371224
16138		-2.765997	6.870812	6.422254	-0.008697	0.004673	-0.007638	0.586182	-0.346680	-0.096680	47.161955	15.773276	-67.372064
16139		-2.819957	6.883742	6.446798	-0.007297	0.007976	-0.009630	0.576416	-0.345703	-0.090820	47.159273	15.776511	-67.372341
16140		-2.768920	6.898320	6.453751	-0.005673	0.006155	-0.005133	0.579102	-0.341553	-0.095459	47.158133	15.776648	-67.371520
16141		-2.804748	6.865119	6.444861	-0.005705	0.003367	-0.006638	0.573975	-0.347656	-0.093994	47.156134	15.776865	-67.372601
16142		-2.770364	6.897267	6.454256	-0.004864	0.005319	-0.006419	0.583984	-0.341553	-0.104980	47.155217	15.777217	-67.372665
16143		-2.788110	6.914276	6.456813	-0.003214	0.006435	-0.007486	0.583252	-0.342529	-0.095703	47.154904	15.779018	-67.372753
16144		-2.772776	6.862503	6.447516	-0.006764	0.006393	-0.006275	0.577148	-0.343018	-0.098145	47.153042	15.779727	-67.372290
16145		-2.790599	6.879398	6.450156	-0.004304	0.006673	-0.008628	0.580811	-0.342285	-0.097412	47.151996	15.782128	-67.372739
16146		-2.810745	6.857574	6.469609	-0.005954	0.005557	-0.007561	0.575684	-0.339111	-0.095947	47.150356	15.783052	-67.373162
16147		-2.792364	6.878289	6.450574	-0.005673	0.006158	-0.005131	0.577881	-0.337891	-0.099854	47.148833	15.783819	-67.372424
16148		-2.776178	6.860298	6.448399	-0.004117	-0.001092	-0.010717	0.582275	-0.340576	-0.097168	47.147109	15.783478	-67.377027
16149		-2.792284	6.882074	6.427264	-0.007014	0.008584	-0.007196	0.584961	-0.342773	-0.103760	47.144864	15.786088	-67.376069
16150		-2.793191	6.881421	6.427569	-0.006794	0.003607	-0.007779	0.575928	-0.336426	-0.099609	47.142488	15.786343	-67.377432
16151		-2.797356	6.870877	6.475620	-0.007044	0.005797	-0.008702	0.582764	-0.346680	-0.093018	47.139723	15.788531	-67.378302
16152		-2.796698	6.875122	6.452073	-0.006234	0.004961	-0.009988	0.573242	-0.341064	-0.095703	47.137585	15.790242	-67.379968
16153		-2.798205	6.840650	6.445377	-0.007603	0.004444	-0.006492	0.574219	-0.350342	-0.101074	47.134567	15.791006	-67.380537
16154		-2.798408	6.873828	6.452711	-0.004334	0.003891	-0.010131	0.574219	-0.341309	-0.098389	47.133375	15.792360	-67.382728
16155		-2.816060	6.890601	6.455545	-0.008473	-0.000296	-0.008218	0.584473	-0.338623	-0.104492	47.129090	15.792034	-67.386068
16156		-2.783024	6.854986	6.451096	-0.006234	0.004964	-0.009986	0.572266	-0.344482	-0.094971	47.126952	15.793745	-67.387733
16157		-2.785115	6.883036	6.482386	-0.010034	0.007110	-0.009697	0.582764	-0.346436	-0.102295	47.122477	15.796958	-67.388443
16158		-2.801870	6.870802	6.454431	-0.008442	0.002494	-0.006711	0.578613	-0.341797	-0.095947	47.119142	15.796331	-67.389858
16159		-2.802629	6.870064	6.454887	-0.007073	0.003014	-0.010205	0.573486	-0.342041	-0.098389	47.115807	15.798187	-67.392565
16160		-2.801241	6.908057	6.438513	-0.007882	0.003850	-0.008918	0.578613	-0.349121	-0.105225	47.112710	15.799015	-67.394283
16161		-2.787441	6.851189	6.453223	-0.005172	0.001944	-0.010349	0.578369	-0.346924	-0.093018	47.110316	15.800544	-67.397517
16162		-2.770976	6.866898	6.458069	-0.006454	0.009948	-0.009397	0.582031	-0.338135	-0.100342	47.108709	15.803951	-67.396769
16163		-2.808161	6.862451	6.479878	-0.002431	0.002826	-0.010271	0.573486	-0.335693	-0.098633	47.107983	15.805814	-67.399589
16164		-2.805474	6.871855	6.432452	-0.006290	-0.000766	-0.005932	0.581055	-0.345459	-0.108154	47.105580	15.803589	-67.402111
16165		-2.790906	6.849006	6.454042	-0.002373	0.008403	-0.007255	0.589844	-0.340576	-0.094238	47.105871	15.806392	-67.401279
16166		-2.774240	6.865065	6.458617	-0.001061	0.003187	-0.006700	0.575684	-0.346436	-0.104004	47.106849	15.806029	-67.402387
16167		-2.810561	6.894628	6.487357	-0.002402	0.005616	-0.008763	0.576416	-0.347412	-0.105713	47.106612	15.808401	-67.403384
16168		-2.791847	6.852993	6.430103	-0.000501	0.004544	-0.008907	0.577637	-0.348633	-0.097168	47.107828	15.809495	-67.404796
16169		-2.812900	6.860315	6.480084	0.001679	0.004069	-0.006622	0.582520	-0.343994	-0.103516	47.109972	15.810392	-67.405602
16170		-2.812185	6.865015	6.456103	-0.002652	0.007808	-0.009683	0.575439	-0.337646	-0.099854	47.110257	15.813085	-67.405903
16171		-2.778209	6.897476	6.465197	0.001428	0.006262	-0.007542	0.572998	-0.351318	-0.104248	47.112401	15.815253	-67.406130
16172		-2.810804	6.874445	6.408085	-0.001311	0.005380	-0.007619	0.588135	-0.348389	-0.089600	47.113394	15.816133	-67.406654
16173		-2.797399	6.880552	6.460433	-0.003772	0.005096	-0.005268	0.573486	-0.340088	-0.100830	47.112669	15.816916	-67.406468
16174		-2.795379	6.856392	6.405663	-0.000221	0.005144	-0.006477	0.580322	-0.337646	-0.092529	47.114385	15.817223	-67.406633
16175		-2.798989	6.879953	6.460383	-0.003211	0.006453	-0.007474	0.572998	-0.333740	-0.100098	47.113893	15.819488	-67.406750
16176		-2.798207	6.884550	6.436543	-0.002122	0.006216	-0.006332	0.572510	-0.340088	-0.101074	47.114664	15.820152	-67.406388
16177		-2.835058	6.880254	6.458266	-0.002987	0.001475	-0.008062	0.584229	-0.332031	-0.101318	47.113638	15.820746	-67.408917
16178		-2.765935	6.848991	6.431753	-0.003157	0.012031	-0.004457	0.582764	-0.340088	-0.099365	47.114714	15.822891	-67.405258
16179		-2.819103	6.896087	6.462804	0.001372	0.000524	-0.003493	0.580811	-0.346924	-0.097168	47.116568	15.821220	-67.406353
16180		-2.785913	6.861103	6.457803	-0.000749	0.006742	-0.009824	0.579102	-0.341309	-0.093750	47.117802	15.823556	-67.407176
16181		-2.786748	6.860789	6.457775	-0.003493	0.005694	-0.002838	0.582031	-0.346191	-0.092773	47.117547	15.823649	-67.405751
16182		-2.802593	6.882785	6.436523	-0.004609	0.003144	-0.005489	0.583008	-0.338379	-0.092041	47.116620	15.822762	-67.406388
16183		-2.770582	6.876213	6.462862	-0.007850	0.006646	-0.007407	0.578125	-0.340088	-0.098389	47.113470	15.825167	-67.406400
16184		-2.802523	6.886409	6.413421	-0.008714	0.001905	-0.009137	0.572266	-0.349609	-0.095459	47.109640	15.825328	-67.409057
16185		-2.806650	6.875589	6.461705	-0.010615	0.002977	-0.008992	0.584473	-0.343994	-0.093750	47.104291	15.826985	-67.411313
16186		-2.787207	6.867299	6.412101	-0.007064	0.003027	-0.010200	0.574951	-0.345459	-0.099365	47.101422	15.828030	-67.413911
16187		-2.791026	6.890305	6.467322	-0.010029	0.007126	-0.009688	0.577393	-0.343506	-0.093018	47.096822	15.831619	-67.414641
16188		-2.792070	6.889415	6.467820	-0.008965	0.004101	-0.010055	0.573730	-0.335693	-0.096924	47.093008	15.833021	-67.416712
16189		-2.812120	6.867374	6.487336	-0.004047	0.004507	-0.007692	0.572998	-0.347656	-0.093994	47.091737	15.834768	-67.417776
16190		-2.792780	6.859395	6.437374	-0.005388	0.006939	-0.009753	0.580078	-0.341064	-0.093018	47.090343	15.837150	-67.418486
16191		-2.778044	6.870237	6.466014	-0.004299	0.006702	-0.008610	0.580566	-0.344971	-0.101074	47.089077	15.840159	-67.418969
16192		-2.811712	6.875713	6.440104	-0.004859	0.005342	-0.006405	0.576904	-0.340088	-0.091797	47.088166	15.840513	-67.419018
16193		-2.795552	6.857839	6.437829	-0.004047	0.004509	-0.007691	0.577637	-0.344482	-0.101807	47.086879	15.842299	-67.420085
16194		-2.813363	6.874692	6.440473	-0.005948	0.005582	-0.007546	0.581299	-0.343018	-0.093262	47.085247	15.843226	-67.420493
16195		-2.780855	6.901991	6.473847	-0.002982	0.001484	-0.008058	0.580811	-0.340088	-0.102051	47.084164	15.844007	-67.423030
16196		-2.782135	6.867778	6.466867	-0.002421	0.002846	-0.010263	0.572754	-0.344727	-0.097656	47.083926	15.845006	-67.425733
16197		-2.800052	6.884599	6.469497	-0.006224	0.004989	-0.009973	0.576416	-0.333740	-0.099365	47.081183	15.847970	-67.427519
16198		-2.799859	6.855267	6.438696	-0.002397	0.005634	-0.008752	0.593262	-0.340820	-0.092041	47.081459	15.849423	-67.428393
16199		-2.803587	6.878686	6.493513	-0.002144	0.003441	-0.007834	0.578125	-0.337402	-0.094727	47.081099	15.850903	-67.429989
16200		-2.820190	6.866946	6.465000	-0.001308	0.005396	-0.007610	0.572998	-0.349121	-0.087402	47.082097	15.851784	-67.430503
16201		-2.786573	6.865728	6.467133	-0.000219	0.005157	-0.006468	0.579346	-0.341553	-0.090332	47.083185	15.853380	-67.430797
16202		-2.784462	6.841657	6.412306	-0.002144	0.003442	-0.007833	0.578369	-0.342773	-0.095703	47.083446	15.853592	-67.432254
16203		-2.770601	6.881636	6.471694	0.000870	0.004919	-0.005326	0.585693	-0.343750	-0.094482	47.085250	15.854630	-67.432192
16204		-2.804049	6.887430	6.445499	-0.000242	0.002371	-0.007977	0.571045	-0.338379	-0.102295	47.086457	15.854486	-67.434175
16205		-2.789654	6.864855	6.466731	0.000365	0.009308	-0.007161	0.580322	-0.339111	-0.101074	47.088288	15.858018	-67.432942
16206		-2.825030	6.865628	6.464286	-0.000219	0.005159	-0.006467	0.574951	-0.345459	-0.100830	47.090007	15.858327	-67.433096
16207		-2.773815	6.880990	6.471003	0.001958	0.004681	-0.004184	0.576660	-0.342773	-0.100830	47.092520	15.858823	-67.432677
16208		-2.811203	6.843205	6.485113	0.004169	0.007168	-0.007449	0.579834	-0.343994	-0.098145	47.096884	15.860328	-67.432353
16209		-2.790702	6.903361	6.448905	0.001661	0.001301	-0.008121	0.571045	-0.342285	-0.098389	47.098374	15.861170	-67.435006
16210		-2.791881	6.869574	6.441492	0.002817	0.009425	-0.002449	0.580811	-0.338379	-0.090576	47.102787	15.861457	-67.431670
16211		-2.811197	6.882060	6.467365	0.003047	0.004443	-0.003041	0.573730	-0.344238	-0.096436	47.106008	15.861405	-67.430892
16212		-2.794344	6.898415	6.471851	-0.000240	0.002373	-0.007976	0.583496	-0.345215	-0.092285	47.107215	15.861261	-67.432874
16213		-2.779736	6.875966	6.493063	0.001981	0.007470	-0.002673	0.573975	-0.344238	-0.097412	47.110221	15.862248	-67.430628
16214		-2.829202	6.836882	6.430925	0.006037	0.003134	-0.002043	0.589355	-0.345215	-0.098389	47.115774	15.859911	-67.429873
16215		-2.794698	6.870084	6.439726	0.006873	0.005090	-0.001818	0.571777	-0.341064	-0.095215	47.121382	15.859627	-67.428324
16216		-2.832574	6.895177	6.491669	0.005785	0.005329	-0.002960	0.568848	-0.340820	-0.093994	47.126951	15.858530	-67.426982
16217		-2.797256	6.865933	6.462302	0.010138	0.004374	0.001608	0.576660	-0.342041	-0.094727	47.134717	15.856546	-67.424354
16218		-2.815146	6.850126	6.456779	0.009360	0.008172	-0.002655	0.572754	-0.348389	-0.095703	47.142706	15.856428	-67.421648
16219		-2.796014	6.905948	6.443832	0.011766	0.002712	-0.000962	0.577148	-0.351807	-0.103516	47.150911	15.854891	-67.420793
16220		-2.814151	6.856541	6.431105	0.012876	0.005262	0.001690	0.575684	-0.338135	-0.092529	47.161049	15.851814	-67.417598
16221		-2.815766	6.886307	6.460854	0.016177	0.007513	-0.000432	0.574463	-0.342285	-0.095215	47.172410	15.851939	-67.414433
16222		-2.814890	6.858674	6.428507	0.019442	0.006800	0.002996	0.578125	-0.340576	-0.095947	47.186637	15.848911	-67.410039
16223		-2.780718	6.859083	6.429220	0.021071	0.005138	0.000428	0.571045	-0.344727	-0.098633	47.200607	15.847767	-67.407564
16224		-2.816654	6.890347	6.456158	0.023270	0.007454	0.004223	0.575439	-0.334961	-0.103271	47.217240	15.844475	-67.402389
16225		-2.799331	6.908437	6.458992	0.023544	0.008052	0.006652	0.572998	-0.343262	-0.093262	47.233655	15.841860	-67.396127
16226		-2.815521	6.864753	6.421737	0.022391	-0.000078	0.000986	0.576660	-0.338867	-0.094482	47.248527	15.836997	-67.395556
16227		-2.763581	6.881717	6.427116	0.021600	0.003548	0.003780	0.579102	-0.350342	-0.098389	47.262969	15.833851	-67.392426
16228		-2.799275	6.913031	6.454099	0.023229	0.001885	0.001213	0.577393	-0.349121	-0.093506	47.278579	15.829655	-67.390909
16229		-2.815119	6.902883	6.424107	0.016708	0.005928	0.002921	0.579346	-0.335938	-0.098389	47.290401	15.827801	-67.387092
16230		-2.781339	6.869300	6.418034	0.017523	0.005097	0.001638	0.575684	-0.341064	-0.097168	47.303172	15.824674	-67.383999
16231		-2.796260	6.926594	6.402238	0.017775	0.002904	0.002559	0.585205	-0.335938	-0.101074	47.315199	15.821811	-67.381650
16232		-2.797961	6.922793	6.424884	0.015036	0.002016	0.002477	0.581299	-0.346191	-0.102051	47.326269	15.817133	-67.379569
16233		-2.781001	6.906262	6.421604	0.010121	0.001599	0.000108	0.581543	-0.343018	-0.091797	47.333489	15.814807	-67.378801
16234		-2.783054	6.902127	6.444471	0.014282	0.008601	-0.000284	0.581543	-0.347656	-0.106689	47.344608	15.813848	-67.374952
16235		-2.798618	6.925178	6.422027	0.010099	-0.001191	-0.001397	0.583008	-0.343262	-0.106201	47.351316	15.811078	-67.375993
16236		-2.795743	6.901771	6.366657	0.009033	0.001837	-0.001035	0.579102	-0.350830	-0.095703	47.358537	15.807809	-67.375410
16237		-2.766337	6.920305	6.446926	0.005769	0.002543	-0.004466	0.583740	-0.345947	-0.098877	47.362875	15.807795	-67.376059
16238		-2.782592	6.909057	6.417907	0.006605	0.004502	-0.004243	0.576172	-0.349609	-0.099854	47.368671	15.806913	-67.375602
16239		-2.764381	6.896775	6.391287	0.003029	0.001653	-0.004549	0.581543	-0.346436	-0.095459	47.371321	15.806594	-67.376664
16240		-2.800599	6.926583	6.419648	0.000853	0.002124	-0.006836	0.575928	-0.337891	-0.100830	47.373253	15.805883	-67.378295
16241		-2.784571	6.875137	6.410377	-0.003538	0.000108	-0.005859	0.577393	-0.343994	-0.106934	47.371812	15.805528	-67.380553
16242		-2.782957	6.913392	6.393763	-0.004877	0.002538	-0.007924	0.576172	-0.353027	-0.102295	47.370391	15.805435	-67.382442
16243		-2.785342	6.907625	6.418255	-0.014998	0.000935	-0.008033	0.578125	-0.345459	-0.101563	47.362239	15.806320	-67.385242
16244		-2.768960	6.889071	6.416914	-0.014998	0.000937	-0.008032	0.577393	-0.350830	-0.094238	47.354816	15.805651	-67.387876
16245		-2.766143	6.897501	6.370449	-0.020748	-0.001439	-0.010624	0.574951	-0.340332	-0.101074	47.342804	15.806719	-67.392739
16246		-2.785211	6.941825	6.405406	-0.027044	-0.005006	-0.018069	0.576416	-0.341064	-0.098633	47.326666	15.807970	-67.402025
16247		-2.771379	6.883319	6.422040	-0.032751	-0.001794	-0.017645	0.578857	-0.349365	-0.100586	47.306965	15.811861	-67.409875
16248		-2.749995	6.911591	6.357853	-0.042598	-0.005409	-0.023885	0.580078	-0.342041	-0.099121	47.281227	15.815398	-67.421688
16249		-2.775232	6.905502	6.458965	-0.051041	-0.003079	-0.023537	0.574951	-0.350342	-0.098145	47.250249	15.821265	-67.432517
16250		-2.778883	6.862691	6.479414	-0.049175	-0.012321	-0.035249	0.583984	-0.344971	-0.102051	47.218662	15.826881	-67.451951
16251		-2.777036	6.868673	6.435265	-0.041829	-0.017171	-0.038235	0.585449	-0.337891	-0.106201	47.189645	15.833432	-67.474882
16252		-2.833298	6.873455	6.486153	-0.033105	-0.018882	-0.036147	0.575928	-0.340088	-0.096191	47.166378	15.836852	-67.497552
16253		-2.798585	6.874659	6.467067	-0.025960	-0.013178	-0.035529	0.572754	-0.341797	-0.100098	47.147207	15.843822	-67.517649
16254		-2.766040	6.837325	6.464426	-0.026790	-0.015124	-0.035748	0.572266	-0.345215	-0.100342	47.128045	15.848523	-67.538520
16255		-2.762235	6.883328	6.402319	-0.028946	-0.011848	-0.036514	0.574951	-0.344238	-0.103027	47.107201	15.856404	-67.558372
16256		-2.765538	6.908888	6.435883	-0.037117	-0.011524	-0.042290	0.569336	-0.344238	-0.090820	47.081820	15.865240	-67.580331
16257		-2.766386	6.876586	6.407770	-0.036296	-0.012336	-0.043566	0.574951	-0.347168	-0.102295	47.055923	15.875878	-67.603302
16258		-2.804664	6.902508	6.439318	-0.038692	-0.004074	-0.043732	0.579346	-0.343750	-0.106445	47.030358	15.888208	-67.622609
16259		-2.793981	6.837727	6.480042	-0.035150	-0.006777	-0.046439	0.575928	-0.334717	-0.101563	47.005452	15.902207	-67.644379
16260		-2.814243	6.817887	6.477598	-0.028015	-0.001071	-0.045821	0.571777	-0.330322	-0.098877	46.986117	15.916572	-67.663240
16261		-2.833958	6.865724	6.489365	-0.032121	-0.002494	-0.042409	0.573730	-0.339111	-0.089600	46.963882	15.930552	-67.681483
16262		-2.820922	6.873986	6.520118	-0.029942	-0.002965	-0.040124	0.576904	-0.343506	-0.107178	46.943841	15.941776	-67.698865
16263		-2.803298	6.796679	6.457396	-0.020680	-0.003520	-0.033209	0.570557	-0.333740	-0.095459	46.929049	15.951499	-67.713841
16264		-2.787802	6.844573	6.470962	-0.025304	-0.000556	-0.031625	0.580322	-0.338867	-0.096436	46.912897	15.960100	-67.726723
16265		-2.788175	6.880661	6.456323	-0.031297	-0.000707	-0.035112	0.583984	-0.348145	-0.096680	46.892130	15.971718	-67.741256
16266		-2.773894	6.826669	6.448652	-0.032610	0.010083	-0.032621	0.573486	-0.338623	-0.097656	46.872947	15.984894	-67.749923
16267		-2.776819	6.857244	6.457927	-0.036128	0.013026	-0.036938	0.579346	-0.338867	-0.096436	46.850846	16.002643	-67.759244
16268		-2.816345	6.815769	6.474313	-0.035586	0.014195	-0.032085	0.581787	-0.328369	-0.106934	46.830504	16.017200	-67.765916
16269		-2.783515	6.817116	6.454610	-0.033102	0.020076	-0.031396	0.578613	-0.335938	-0.102539	46.811596	16.035394	-67.769926
16270		-2.824915	6.804369	6.501707	-0.037162	0.027201	-0.030487	0.581787	-0.335449	-0.101318	46.792086	16.054380	-67.770305
16271		-2.810144	6.789147	6.476944	-0.033041	0.031442	-0.032366	0.579834	-0.337402	-0.098389	46.774460	16.077438	-67.769781
16272		-2.799160	6.763903	6.499331	-0.025644	0.032402	-0.039387	0.575684	-0.329834	-0.100098	46.761164	16.102181	-67.771548
16273		-2.819737	6.817364	6.485831	-0.019313	0.041946	-0.042997	0.578369	-0.335693	-0.095215	46.751450	16.133800	-67.770790
16274		-2.805067	6.875365	6.450491	-0.018170	0.039416	-0.057440	0.578369	-0.334473	-0.093750	46.741228	16.168829	-67.776898
16275		-2.834240	6.773056	6.502429	-0.015136	0.041145	-0.061959	0.584473	-0.336914	-0.097168	46.731654	16.208046	-67.784254
16276		-2.822141	6.758602	6.475744	-0.009140	0.044102	-0.056935	0.571533	-0.334473	-0.101563	46.727221	16.244703	-67.788133
16277		-2.868545	6.775095	6.551489	-0.009656	0.045763	-0.060248	0.571045	-0.334717	-0.094482	46.721514	16.285018	-67.792828
16278		-2.837634	6.715332	6.490730	-0.006131	0.051175	-0.051368	0.581543	-0.331055	-0.095703	46.720300	16.322131	-67.791362
16279		-2.897946	6.759801	6.520703	-0.004218	0.061249	-0.045434	0.574219	-0.329102	-0.097412	46.721283	16.362356	-67.783245
16280		-2.885937	6.780019	6.500346	-0.005594	0.060704	-0.041945	0.577637	-0.330566	-0.099121	46.722635	16.399281	-67.773777
16281		-2.909840	6.795403	6.501637	-0.011609	0.060325	-0.038397	0.578613	-0.334473	-0.093994	46.720078	16.436219	-67.763198
16282		-2.878154	6.803615	6.455467	-0.010568	0.062629	-0.028699	0.573242	-0.337646	-0.098145	46.720365	16.468375	-67.747465
16283		-2.866934	6.751128	6.444691	-0.017940	0.073046	-0.022639	0.569824	-0.326904	-0.097412	46.717596	16.503743	-67.724895
16284		-2.842440	6.738858	6.493447	-0.010326	0.085501	-0.014091	0.583496	-0.329102	-0.093506	46.722574	16.538790	-67.693220
16285		-2.901134	6.789488	6.498322	-0.000509	0.106078	-0.005723	0.582275	-0.324463	-0.091064	46.735886	16.580070	-67.649327
16286		-2.920964	6.923327	6.448009	0.005004	0.119329	-0.006450	0.581299	-0.337402	-0.089600	46.754803	16.625197	-67.599762
16287		-2.921971	6.978152	6.356091	0.013533	0.120141	-0.012256	0.586670	-0.335938	-0.097168	46.777242	16.674700	-67.552378
16288		-2.884426	6.911731	6.415993	0.015548	0.111042	-0.023956	0.582520	-0.335205	-0.083984	46.799198	16.723850	-67.513536
16289		-2.947114	6.924341	6.435007	0.018367	0.112268	-0.030849	0.578857	-0.326904	-0.085205	46.821362	16.777994	-67.477142
16290		-2.917891	6.900223	6.378954	0.010099	0.084206	-0.054273	0.582031	-0.329346	-0.094482	46.833305	16.829266	-67.462372
16291		-2.984710	6.833595	6.431878	0.010501	0.090933	-0.062825	0.579102	-0.334229	-0.089355	46.844569	16.888392	-67.448308
16292		-2.926251	6.831701	6.433878	0.016081	0.087487	-0.072657	0.581055	-0.338867	-0.084473	46.858204	16.948629	-67.439602
16293		-2.973204	6.826042	6.450900	0.025387	0.084441	-0.074216	0.579102	-0.331299	-0.093262	46.875853	17.009969	-67.433012
16294		-2.968738	6.803463	6.467824	0.033669	0.090297	-0.079359	0.576904	-0.331787	-0.084229	46.899151	17.074105	-67.425776
16295		-2.993370	6.830815	6.417261	0.040816	0.090562	-0.081660	0.572754	-0.335449	-0.075439	46.925556	17.140952	-67.419500
16296		-3.005088	6.864859	6.418925	0.045495	0.087698	-0.083167	0.577881	-0.329590	-0.085693	46.954869	17.205659	-67.414896
16297		-2.998515	6.814561	6.403750	0.045776	0.085554	-0.082226	0.582031	-0.333496	-0.078369	46.983441	17.270781	-67.410974
16298		-3.029575	6.860701	6.431116	0.051058	0.081308	-0.087424	0.581055	-0.321533	-0.084229	47.014621	17.334770	-67.410844
16299		-3.041908	6.788826	6.434327	0.054046	0.082881	-0.084846	0.580811	-0.324707	-0.091553	47.047294	17.399943	-67.409109
16300		-3.001690	6.806801	6.435845	0.065033	0.086779	-0.081978	0.581543	-0.327148	-0.076660	47.087893	17.463783	-67.404265
16301		-3.030765	6.825832	6.430262	0.080390	0.092752	-0.089406	0.587646	-0.327881	-0.077881	47.136429	17.534714	-67.399954
16302		-3.024238	6.850379	6.402909	0.088297	0.100606	-0.095417	0.584961	-0.320313	-0.074707	47.190586	17.609578	-67.394391
16303		-3.050140	6.846571	6.340727	0.097955	0.104145	-0.103119	0.587158	-0.327393	-0.079590	47.249064	17.690694	-67.390512
16304		-3.103539	6.873558	6.381932	0.107973	0.108583	-0.108347	0.590576	-0.325928	-0.071533	47.314027	17.774091	-67.386534
16305		-3.104412	6.816566	6.409375	0.115393	0.115299	-0.112115	0.582764	-0.329102	-0.078369	47.382960	17.863317	-67.381201
16306		-3.084967	6.820810	6.400944	0.125152	0.107613	-0.116456	0.592285	-0.321777	-0.069824	47.456696	17.949749	-67.380741
16307		-3.162978	6.873880	6.317616	0.135458	0.115692	-0.120024	0.585693	-0.325684	-0.072021	47.536261	18.042449	-67.378204
16308		-3.163733	6.890760	6.333643	0.136732	0.107365	-0.118594	0.584473	-0.327881	-0.072998	47.616405	18.129688	-67.378476
16309		-3.188194	6.893042	6.244772	0.129393	0.092151	-0.121566	0.595947	-0.311035	-0.070801	47.689124	18.213951	-67.386790
16310		-3.227303	6.932803	6.313627	0.113929	0.080088	-0.117193	0.589355	-0.317871	-0.075928	47.752639	18.290083	-67.398437
16311		-3.194051	6.960355	6.188191	0.101675	0.061322	-0.119473	0.584961	-0.327637	-0.072998	47.805459	18.361617	-67.419520
16312		-3.227547	6.863077	6.232587	0.089304	0.050889	-0.124273	0.594238	-0.313721	-0.075439	47.849852	18.429544	-67.446964
16313		-3.245974	6.850061	6.296542	0.083843	0.046129	-0.121324	0.589844	-0.325195	-0.072754	47.890067	18.496057	-67.475484
16314		-3.258714	6.846351	6.313803	0.069609	0.034259	-0.108778	0.584961	-0.313721	-0.069580	47.922768	18.551044	-67.504030
16315		-3.243058	6.844464	6.235535	0.053780	0.024073	-0.103074	0.594238	-0.320068	-0.072754	47.944912	18.601367	-67.534985
16316		-3.252015	6.877927	6.238593	0.037294	0.006401	-0.095934	0.585938	-0.309814	-0.066650	47.956728	18.640220	-67.570808
16317		-3.276059	6.893191	6.238450	0.014006	-0.007817	-0.087281	0.591797	-0.317383	-0.073730	47.953508	18.671605	-67.609704
16318		-3.266025	6.830763	6.278190	-0.007582	-0.026427	-0.070957	0.586670	-0.307861	-0.066650	47.938091	18.687231	-67.650167
16319		-3.271541	6.712008	6.331545	-0.020400	-0.028827	-0.050309	0.581543	-0.318359	-0.067871	47.916901	18.694812	-67.683531
16320		-3.215344	6.813894	6.260377	-0.022341	-0.024663	-0.039313	0.595947	-0.315674	-0.073486	47.897378	18.697635	-67.710386
16321		-3.215743	6.849926	6.245348	-0.019089	-0.019479	-0.042173	0.587402	-0.318359	-0.068848	47.879308	18.705329	-67.736271
16322		-3.237722	6.859351	6.272454	-0.013361	-0.013891	-0.042630	0.587158	-0.308594	-0.068848	47.866043	18.713686	-67.759644
16323		-3.240173	6.857252	6.273483	-0.006309	-0.008020	-0.048884	0.584961	-0.309082	-0.073486	47.856059	18.728622	-67.783107
16324		-3.222485	6.882092	6.231357	-0.002101	-0.003519	-0.059993	0.580566	-0.312256	-0.072510	47.848462	18.748334	-67.808883
16325		-3.229930	6.836754	6.272206	0.004822	0.005061	-0.062421	0.584229	-0.311035	-0.066650	47.844958	18.774037	-67.831988
16326		-3.235305	6.907592	6.261041	0.010296	0.006965	-0.069150	0.588135	-0.312500	-0.074707	47.844756	18.801668	-67.856791
16327		-3.259904	6.773008	6.306049	0.019324	0.014982	-0.071625	0.590088	-0.308594	-0.073975	47.849769	18.835088	-67.879203
16328		-3.246357	6.832978	6.267839	0.029557	0.023178	-0.070566	0.582031	-0.309082	-0.070068	47.862741	18.869558	-67.897307
16329		-3.272380	6.883087	6.272939	0.038694	0.028464	-0.076858	0.583984	-0.315918	-0.070313	47.880084	18.910390	-67.915787
16330		-3.257070	6.876015	6.220075	0.040061	0.025927	-0.081797	0.585449	-0.316650	-0.074463	47.897976	18.950700	-67.937205
16331		-3.282275	6.931104	6.200272	0.052958	0.034668	-0.096974	0.582764	-0.306152	-0.071045	47.921728	19.002471	-67.961045
16332		-3.255857	6.898241	6.192012	0.059638	0.039523	-0.110315	0.584473	-0.306641	-0.066895	47.949027	19.060146	-67.987903
16333		-3.236833	6.889954	6.237231	0.072570	0.045440	-0.124629	0.583496	-0.303711	-0.070557	47.981913	19.127835	-68.018074
16334		-3.181637	6.854825	6.253239	0.112502	0.072624	-0.140852	0.587891	-0.310303	-0.074219	48.040290	19.211236	-68.042342
16335		-3.162450	6.975297	6.192029	0.172771	0.112508	-0.184472	0.595947	-0.304688	-0.068115	48.132525	19.330142	-68.066386
16336		-3.205655	6.992747	6.199125	0.228811	0.150445	-0.236382	0.588623	-0.300049	-0.064209	48.256385	19.484138	-68.093851
16337		-3.120594	7.012604	6.238678	0.297121	0.202069	-0.291047	0.582031	-0.296631	-0.071045	48.419130	19.682831	-68.119789
16338		-3.079913	7.182944	6.221674	0.349510	0.293472	-0.363216	0.586914	-0.301270	-0.060547	48.617029	19.945695	-68.132307
16339		-3.128058	7.045297	6.231033	0.413938	0.380524	-0.430715	0.586914	-0.305664	-0.064209	48.855792	20.272050	-68.131211
16340		-3.136788	6.848531	6.303032	0.477829	0.455710	-0.471261	0.586670	-0.295166	-0.061279	49.138900	20.642709	-68.109910
16341		-3.154236	6.949049	6.397565	0.524380	0.560177	-0.494606	0.592285	-0.292725	-0.050049	49.462785	21.063820	-68.047439
16342		-3.301212	6.916311	6.399098	0.535545	0.636652	-0.508758	0.594971	-0.288330	-0.054932	49.806262	21.517748	-67.951755
16343		-3.407625	6.939773	6.286567	0.557023	0.701588	-0.515597	0.597656	-0.294434	-0.042969	50.173534	21.999327	-67.825004
16344		-3.489541	7.070936	6.165856	0.577993	0.746411	-0.528985	0.597412	-0.282227	-0.031982	50.562228	22.501116	-67.678066
16345		-3.424654	7.343815	6.007838	0.601141	0.803436	-0.547719	0.592529	-0.280518	-0.027100	50.973962	23.032125	-67.506955
16346		-3.594652	7.381822	5.975473	0.627783	0.872101	-0.582103	0.605469	-0.275146	-0.020752	51.413240	23.600749	-67.310664
16347		-3.443454	7.784551	5.965111	0.643181	0.959996	-0.652634	0.605225	-0.273438	-0.011963	51.871057	24.231968	-67.093119
16348		-3.885081	7.748239	5.946404	0.614007	1.091137	-0.814865	0.609375	-0.265137	-0.003174	52.319217	24.980013	-66.866242
16349		-3.700779	8.367163	6.020320	0.581082	1.208783	-1.030635	0.605469	-0.257813	0.011475	52.743627	25.866514	-66.655872
16350		-3.785942	8.760428	6.045919	0.516328	1.347052	-1.223499	0.610352	-0.251709	0.016357	53.137167	26.886639	-66.440222
16351		-3.950583	8.661541	6.245714	0.466279	1.489652	-1.424061	0.615723	-0.235107	0.031494	53.507823	28.047057	-66.218580
16352		-4.424201	8.391728	6.512025	0.475207	1.629672	-1.630130	0.616699	-0.214111	0.039307	53.891087	29.348164	-65.991409
16353		-4.545880	8.220526	6.304677	0.557426	1.756290	-1.865356	0.614258	-0.201416	0.058350	54.320610	30.799880	-65.774189
16354		-5.362611	8.221188	6.244471	0.755365	1.890036	-2.089027	0.619629	-0.187256	0.074707	54.871518	32.398442	-65.552443
16355		-6.565751	8.611229	6.369837	1.063698	1.944056	-2.262755	0.616943	-0.164551	0.087891	55.596977	34.094315	-65.343176
16356		-8.027515	10.343056	7.519665	1.340252	1.855801	-2.347545	0.619385	-0.155029	0.095947	56.457478	35.799526	-65.184944
16357		-7.719649	11.317957	7.709725	1.320168	1.757772	-2.407170	0.623047	-0.129883	0.108154	57.281069	37.500534	-65.074445
16358		-7.238303	11.232555	7.196559	1.101076	1.785389	-2.547499	0.621094	-0.108643	0.125488	57.978798	39.276616	-64.969913
16359		-7.117933	11.064215	7.612311	0.888970	1.727829	-2.613793	0.635010	-0.092041	0.131592	58.533994	41.066117	-64.900708
16360		-8.390219	10.944876	6.798951	0.755277	1.616357	-2.655691	0.635498	-0.070801	0.143311	58.970232	42.843016	-64.898355
16361		-6.437318	10.534666	6.204650	0.504046	1.515354	-2.753983	0.631348	-0.049072	0.147461	59.195969	44.637312	-64.991206
16362		-5.896534	9.736846	5.882658	0.297946	1.425773	-2.826270	0.634521	-0.026367	0.163574	59.238486	46.442224	-65.173456
16363		-4.643395	8.809221	5.314755	0.149476	1.355812	-2.864619	0.633301	-0.001953	0.169678	59.135541	48.243408	-65.431449
16364		-2.714251	8.029429	5.633995	0.041239	1.296794	-2.847787	0.638428	0.019531	0.172607	58.926153	50.020443	-65.742043
16365		-1.326710	7.578341	5.499352	-0.091656	1.060515	-2.686720	0.629395	0.048584	0.187012	58.529796	51.644141	-66.186966
16366		-4.256010	7.389631	5.651632	0.027125	0.730383	-2.418757	0.627930	0.062012	0.191162	58.063993	53.038756	-66.797317
16367		-4.789194	8.380231	7.131945	0.210365	0.015146	-1.813586	0.624023	0.074463	0.180664	57.445188	53.913584	-67.718653
16368		-1.702775	8.714550	6.442281	0.395901	-0.494397	-1.159566	0.635010	0.088135	0.174316	56.846055	54.313653	-68.740455
16369		-0.758161	8.320574	5.300825	0.407566	-0.819305	-0.696909	0.637695	0.093262	0.158447	56.226090	54.377752	-69.792066
16370		0.188488	7.691112	4.232860	0.289833	-0.962111	-0.377492	0.648193	0.097656	0.155273	55.589043	54.243474	-70.783199
16371		0.764047	7.400439	3.922377	0.096553	-0.996700	-0.137453	0.656250	0.086426	0.134766	54.934003	53.971033	-71.661522
16372		0.714683	7.375481	4.088767	-0.090246	-1.000971	0.116184	0.656738	0.088135	0.125000	54.297991	53.580252	-72.388158
16373		0.450953	7.410603	4.249392	-0.240655	-1.065067	0.417072	0.676514	0.084473	0.116455	53.687350	53.014963	-72.979579
16374		0.451820	7.190597	4.227938	-0.364703	-1.159395	0.756406	0.691895	0.060059	0.102051	53.119756	52.266568	-73.433138
16375		0.456027	6.637267	3.995124	-0.452286	-1.247003	1.085250	0.712158	0.049072	0.080566	52.615517	51.324916	-73.747089
16376		0.404163	6.043133	3.658932	-0.484658	-1.292326	1.361133	0.719482	0.039063	0.072510	52.203427	50.250851	-73.922969
16377		0.193423	5.627870	3.485959	-0.477429	-1.297084	1.567960	0.727051	0.019043	0.067383	51.892607	49.069624	-73.974183
16378		-0.137357	5.357602	3.407831	-0.435549	-1.285447	1.727560	0.749023	-0.011963	0.037598	51.682662	47.831894	-73.923772
16379		-0.610035	5.418812	3.579471	-0.368450	-1.280423	1.879059	0.768799	-0.032959	0.026123	51.574456	46.515730	-73.786009
16380		-1.268864	5.705007	3.919880	-0.296236	-1.299200	2.038017	0.783936	-0.056152	0.001709	51.553452	45.133908	-73.581276
16381		-1.824192	5.888533	4.198120	-0.235001	-1.334397	2.196874	0.795654	-0.106445	-0.021729	51.600642	43.655205	-73.324083
16382		-2.434108	5.970225	4.501465	-0.175012	-1.375317	2.340414	0.818115	-0.136475	-0.048828	51.700887	42.110228	-73.032209
16383		-3.212002	6.007286	4.790130	-0.120716	-1.413214	2.460278	0.819092	-0.174072	-0.066895	51.841499	40.483828	-72.717188
16384		-3.936679	5.986285	4.917615	-0.079082	-1.443393	2.545147	0.831787	-0.227539	-0.097412	52.003786	38.821457	-72.394853
16385		-4.517262	5.914518	5.107994	-0.023145	-1.457806	2.584825	0.833252	-0.260742	-0.126221	52.188271	37.121434	-72.076320
16386		-5.105963	6.110975	5.419515	0.044108	-1.458007	2.584946	0.836670	-0.314209	-0.152588	52.395118	35.434338	-71.772675
16387		-5.594736	6.447852	5.726444	0.089569	-1.442380	2.573655	0.823975	-0.356201	-0.176758	52.614930	33.743003	-71.478648
16388		-5.994771	7.074925	5.991796	0.093448	-1.427673	2.552516	0.813721	-0.401123	-0.209473	52.822331	32.079443	-71.198984
16389		-6.413032	7.835871	6.300921	0.030424	-1.395443	2.547506	0.800293	-0.448975	-0.236572	52.988361	30.414786	-70.915171
16390		-6.743002	8.305303	6.453124	-0.087683	-1.372269	2.542322	0.784424	-0.494385	-0.253418	53.080564	28.773713	-70.630586
16391		-6.882679	8.441322	6.340869	-0.213684	-1.361983	2.530002	0.753662	-0.533447	-0.281006	53.090260	27.128120	-70.351308
16392		-6.944656	8.387325	6.036814	-0.322017	-1.338697	2.490044	0.732666	-0.565918	-0.313721	53.028430	25.522441	-70.078941
16393		-7.067850	8.282981	5.706866	-0.363198	-1.320356	2.435237	0.705078	-0.594482	-0.319092	52.930204	23.935493	-69.819056
16394		-7.177015	8.198968	5.337899	-0.343181	-1.284601	2.365808	0.670654	-0.613281	-0.340576	52.834259	22.406040	-69.567959
16395		-7.304160	8.292014	5.061915	-0.286959	-1.243621	2.273057	0.647705	-0.639404	-0.351807	52.758397	20.921143	-69.331325
16396		-7.571482	8.700729	4.930632	-0.233600	-1.192541	2.181909	0.612549	-0.652100	-0.357910	52.704883	19.508095	-69.104307
16397		-7.835308	8.941142	4.882751	-0.224867	-1.154957	2.122251	0.583740	-0.660645	-0.377686	52.649326	18.124054	-68.881375
16398		-8.055631	8.958547	4.793498	-0.215961	-1.128658	2.082124	0.551514	-0.683105	-0.379150	52.593534	16.779071	-68.661106
16399		-8.290600	8.678369	4.524750	-0.193634	-1.084375	2.032439	0.529785	-0.680908	-0.386230	52.546223	15.461936	-68.437889
16400		-8.624610	8.071123	4.188736	-0.151849	-1.031361	1.960406	0.503174	-0.688965	-0.386963	52.517799	14.206545	-68.216457
16401		-8.960733	7.374015	3.987425	-0.053952	-0.966804	1.851476	0.485352	-0.692871	-0.398926	52.538655	13.014142	-68.004748
16402		-9.362097	6.576146	3.691928	0.086369	-0.890525	1.709285	0.462891	-0.697266	-0.401855	52.631944	11.921860	-67.810612
16403		-9.687122	5.915457	3.555847	0.261937	-0.821764	1.530744	0.448975	-0.702393	-0.397949	52.815817	10.926908	-67.650940
16404		-9.959085	5.504558	3.271235	0.390913	-0.741721	1.317337	0.437012	-0.708740	-0.387695	53.063082	10.064064	-67.533473
16405		-9.928477	4.782998	3.031455	0.494578	-0.647317	1.063061	0.428467	-0.699951	-0.390137	53.360320	9.344089	-67.464876
16406		-9.846584	4.028444	2.588586	0.596526	-0.521500	0.781683	0.419922	-0.704834	-0.388428	53.708083	8.801904	-67.438947
16407		-10.948287	4.421839	3.490330	0.562492	0.387717	-0.147374	0.425293	-0.700439	-0.383057	54.053004	8.992880	-67.307921
16408		-9.479159	1.872253	-1.083079	0.252362	0.738213	-0.871576	0.429199	-0.689697	-0.375244	54.207657	9.640974	-67.257445
16409		-11.381759	0.962206	-0.399634	-0.159355	1.247608	-1.286507	0.439453	-0.679932	-0.366943	54.145364	10.650844	-67.107204
16410		-12.097008	0.330870	-0.581067	-0.304008	1.986268	-1.846454	0.460693	-0.660156	-0.344727	54.033793	12.170787	-66.800234
16411		-13.514009	4.812826	4.008248	-0.922522	2.834398	-2.516470	0.478516	-0.646484	-0.328125	53.615937	14.289395	-66.328127
16412		-39.841431	32.718178	37.377430	-5.743319	2.367048	-2.291168	0.495605	-0.593994	-0.333008	50.397745	16.154118	-66.058139
16413		-4.262027	-2.528776	5.403981	-0.601124	-1.030176	0.034329	0.489014	-0.589355	-0.337891	49.929018	15.760821	-66.516575
16414		1.948376	1.630995	9.696376	-0.430960	-1.056354	0.079907	0.481689	-0.577148	-0.344482	49.563713	15.330361	-66.965320
16415		-0.983947	15.895474	-1.048237	-1.149680	-0.200357	-0.303405	0.477539	-0.581543	-0.351074	48.850313	15.386799	-67.173449
16416		-2.179953	4.465147	8.484014	-0.523716	0.175921	-0.040035	0.484619	-0.567383	-0.343750	48.568877	15.466124	-67.110498
16417		-3.614657	5.983090	6.939031	-0.396928	0.060966	-0.152305	0.483398	-0.576172	-0.349121	48.333871	15.554141	-67.143497
16418		-2.757427	7.626686	5.859212	-0.328476	0.122951	0.034039	0.479248	-0.562988	-0.352539	48.165848	15.582078	-67.075333
16419		-2.853115	7.201457	6.242162	-0.333426	0.116975	-0.006434	0.484375	-0.563965	-0.349609	47.989242	15.629206	-67.026152
16420		-3.333484	7.251679	6.361725	-0.320499	0.080802	0.006067	0.483154	-0.569580	-0.350342	47.817808	15.653242	-66.987906
16421		-2.876930	7.027013	6.428273	-0.273904	0.040600	0.025033	0.483643	-0.568115	-0.354004	47.669647	15.657904	-66.960014
16422		-2.742927	7.127372	6.306119	-0.240616	0.030261	0.002694	0.484863	-0.566162	-0.350830	47.537600	15.664035	-66.945458
16423		-2.848040	6.922701	6.472892	-0.216782	0.022602	-0.004044	0.490723	-0.560547	-0.351563	47.416906	15.674108	-66.937151
16424		-2.795819	6.930416	6.470181	-0.185393	0.024384	0.003291	0.481445	-0.562012	-0.348145	47.315867	15.677764	-66.924954
16425		-2.792883	6.963347	6.441093	-0.156951	0.021998	-0.000525	0.488770	-0.556396	-0.358154	47.229756	15.686130	-66.915511
16426		-2.809585	6.941908	6.422520	-0.151985	0.011514	-0.011224	0.487793	-0.560059	-0.351074	47.144750	15.690913	-66.914813
16427		-2.785614	6.843318	6.515267	-0.135800	0.016369	-0.012963	0.484619	-0.563965	-0.347656	47.068739	15.702308	-66.912873
16428		-2.787473	6.834744	6.523467	-0.119450	0.021549	-0.005236	0.483398	-0.560303	-0.352295	47.004211	15.708501	-66.905390
16429		-2.789186	6.793888	6.522834	-0.097419	0.020642	0.000516	0.481445	-0.552002	-0.348877	46.952157	15.715899	-66.896134
16430		-2.790339	6.855290	6.543413	-0.087541	0.027278	0.001355	0.479492	-0.561035	-0.344727	46.907311	15.721588	-66.883492
16431		-2.770679	6.843348	6.498390	-0.074458	0.027539	0.002548	0.489502	-0.558838	-0.344971	46.869438	15.730826	-66.870417
16432		-2.787515	6.861251	6.481094	-0.069477	0.030980	-0.000549	0.480469	-0.551758	-0.347900	46.835169	15.738778	-66.856949
16433		-2.772383	6.873220	6.490117	-0.064521	0.026018	-0.008268	0.487061	-0.561523	-0.344482	46.801617	15.751927	-66.848944
16434		-2.772660	6.874207	6.469957	-0.059557	0.023853	-0.014449	0.483887	-0.557373	-0.355957	46.770656	15.762902	-66.844243
16435		-2.831187	6.877286	6.520233	-0.057567	0.023032	-0.021630	0.484375	-0.554688	-0.337402	46.739261	15.780436	-66.842992
16436		-2.795118	6.882838	6.479164	-0.057676	0.011607	-0.020745	0.494385	-0.550781	-0.354492	46.707234	15.789232	-66.846181
16437		-2.817044	6.823309	6.493243	-0.048069	0.014827	-0.023884	0.484375	-0.557129	-0.342041	46.680063	15.804460	-66.849419
16438		-2.802250	6.836114	6.501272	-0.044019	0.013234	-0.021738	0.493164	-0.559082	-0.357422	46.655939	15.814307	-66.852318
16439		-2.804382	6.866408	6.511509	-0.041869	0.012727	-0.019447	0.484863	-0.561523	-0.344482	46.632563	15.826835	-66.854660
16440		-2.806500	6.829464	6.506425	-0.042455	0.008542	-0.018808	0.480713	-0.556885	-0.346680	46.609104	15.833613	-66.858401
16441		-2.791407	6.775355	6.498899	-0.039143	0.008032	-0.022419	0.486328	-0.543213	-0.350342	46.586402	15.845505	-66.863998
16442		-2.789141	6.816649	6.461628	-0.041034	0.011930	-0.020717	0.478027	-0.554443	-0.343262	46.563942	15.854409	-66.867060
16443		-2.780554	6.813666	6.540406	-0.039123	0.016444	-0.017766	0.483398	-0.554443	-0.349365	46.542763	15.867650	-66.867118
16444		-2.776570	6.826650	6.471742	-0.046139	0.016627	-0.022433	0.481445	-0.557373	-0.350830	46.517737	15.879116	-66.868861
16445		-2.837271	6.824756	6.544810	-0.041750	0.018657	-0.023352	0.488281	-0.554688	-0.346924	46.494688	15.895523	-66.870260
16446		-2.840253	6.754175	6.531480	-0.038191	0.018718	-0.024529	0.482178	-0.558350	-0.354248	46.474225	15.908685	-66.871969
16447		-2.793572	6.761476	6.565325	-0.031417	0.017988	-0.022284	0.494141	-0.565186	-0.340820	46.457129	15.924364	-66.873228
16448		-2.811181	6.781713	6.545439	-0.026295	0.021704	-0.015906	0.478271	-0.556641	-0.348877	46.444803	15.935122	-66.870116
16449		-2.796588	6.796220	6.551712	-0.019181	0.024604	-0.016719	0.493896	-0.548584	-0.353760	46.436120	15.951077	-66.866238
16450		-2.809942	6.794687	6.475731	-0.015963	0.026613	-0.011742	0.482666	-0.552002	-0.353271	46.430768	15.962046	-66.859299
16451		-2.816753	6.816027	6.531199	-0.014063	0.025526	-0.011890	0.490479	-0.544678	-0.350342	46.425675	15.976336	-66.853041
16452		-2.814894	6.825625	6.484208	-0.016206	0.020469	-0.017273	0.486572	-0.546387	-0.359619	46.418831	15.987175	-66.851028
16453		-2.804527	6.795963	6.529670	-0.015133	0.020208	-0.016130	0.486328	-0.548828	-0.350586	46.412020	16.001101	-66.848807
16454		-2.804844	6.799846	6.506601	-0.019173	0.019040	-0.019810	0.486328	-0.544189	-0.344971	46.403018	16.012429	-66.848457
16455		-2.805434	6.769805	6.475903	-0.021555	0.021812	-0.022968	0.482178	-0.550293	-0.348145	46.391946	16.029799	-66.848358
16456		-2.755025	6.788816	6.461611	-0.024662	0.022904	-0.033423	0.488281	-0.550293	-0.349365	46.378712	16.048302	-66.851942
16457		-2.832184	6.843413	6.520017	-0.033805	0.018045	-0.043477	0.486084	-0.552734	-0.350098	46.357841	16.072659	-66.861911
16458		-2.814955	6.833572	6.472308	-0.041048	0.017694	-0.050572	0.487793	-0.546875	-0.347900	46.332633	16.096207	-66.874816
16459		-2.860638	6.813240	6.542812	-0.047807	0.018467	-0.052797	0.486816	-0.547607	-0.352051	46.302721	16.124558	-66.888462
16460		-2.832984	6.768465	6.564795	-0.057628	0.011924	-0.053640	0.487305	-0.543457	-0.352051	46.266952	16.147079	-66.905149
16461		-2.867263	6.775162	6.517776	-0.050020	0.007584	-0.054234	0.493652	-0.557373	-0.350098	46.234278	16.171675	-66.924110
16462		-2.822145	6.747075	6.545147	-0.049432	0.011820	-0.054830	0.485352	-0.541748	-0.349365	46.203033	16.194629	-66.941364
16463		-2.878622	6.793436	6.555504	-0.049309	0.009367	-0.063400	0.487549	-0.551025	-0.352295	46.169898	16.223678	-66.963374
16464		-2.812566	6.792801	6.541131	-0.051192	0.007700	-0.064785	0.486816	-0.539551	-0.346436	46.135974	16.249091	-66.986548
16465		-2.864784	6.816417	6.496530	-0.051411	0.004394	-0.068754	0.487061	-0.544678	-0.348877	46.100386	16.278325	-67.012949
16466		-2.839609	6.765607	6.542368	-0.052696	0.001365	-0.073859	0.489258	-0.547363	-0.355957	46.063750	16.304938	-67.042644
16467		-2.883046	6.715558	6.582286	-0.055149	-0.004502	-0.074634	0.489258	-0.548584	-0.348389	46.024232	16.333001	-67.075346
16468		-2.868026	6.698685	6.559819	-0.051471	-0.001400	-0.064784	0.494385	-0.543701	-0.344971	45.988983	16.354735	-67.102509
16469		-2.873057	6.760562	6.579339	-0.049447	-0.002120	-0.071942	0.486328	-0.547852	-0.357178	45.953287	16.382576	-67.133113
16470		-2.894464	6.705145	6.569087	-0.048368	-0.002356	-0.070785	0.483887	-0.537354	-0.353271	45.918964	16.406367	-67.163215
16471		-2.920545	6.705834	6.621911	-0.041979	0.001602	-0.060834	0.495605	-0.533691	-0.353760	45.889263	16.431065	-67.187643
16472		-2.887993	6.706674	6.604125	-0.042320	0.000740	-0.056231	0.490723	-0.540771	-0.346924	45.860462	16.450075	-67.210396
16473		-2.904465	6.730998	6.562047	-0.036487	-0.002318	-0.047250	0.488281	-0.534424	-0.353027	45.834999	16.467580	-67.230879
16474		-2.870427	6.699071	6.535934	-0.037899	-0.002917	-0.043787	0.491211	-0.543701	-0.347900	45.809737	16.479997	-67.250041
16475		-2.895358	6.734381	6.596392	-0.035410	-0.002558	-0.046097	0.487061	-0.533203	-0.352539	45.784986	16.496893	-67.270161
16476		-2.895651	6.702874	6.567160	-0.035366	-0.008104	-0.049211	0.492676	-0.533691	-0.340820	45.759889	16.509448	-67.293819
16477		-2.901481	6.760331	6.609793	-0.039167	-0.005907	-0.048880	0.493164	-0.544434	-0.351318	45.732233	16.526107	-67.316549
16478		-2.868597	6.655365	6.591231	-0.040811	-0.007044	-0.047845	0.491455	-0.530762	-0.352539	45.704291	16.538503	-67.339199
16479		-2.921439	6.707801	6.578245	-0.041641	-0.006214	-0.046540	0.494385	-0.544189	-0.351074	45.675440	16.554033	-67.361099
16480		-2.872211	6.686793	6.581488	-0.035715	-0.006150	-0.043025	0.492920	-0.535889	-0.353516	45.651086	16.564792	-67.381369
16481		-2.927153	6.733956	6.591647	-0.034108	0.000579	-0.040914	0.479980	-0.533447	-0.355469	45.628036	16.580698	-67.398029
16482		-2.912660	6.713560	6.591337	-0.032896	-0.002085	-0.048345	0.492432	-0.537109	-0.343994	45.605145	16.595248	-67.418799
16483		-2.934791	6.687632	6.611464	-0.029944	-0.000660	-0.045804	0.491943	-0.537354	-0.357666	45.583737	16.612625	-67.438046
16484		-2.886039	6.667446	6.613690	-0.022836	-0.000501	-0.048169	0.489990	-0.535156	-0.351807	45.566809	16.627725	-67.458080
16485		-2.943778	6.709125	6.646769	-0.028315	0.003303	-0.045247	0.486328	-0.531982	-0.356445	45.546869	16.646429	-67.475414
16486		-2.907890	6.683945	6.596094	-0.025800	0.000897	-0.049121	0.489502	-0.529541	-0.349121	45.528284	16.662466	-67.495265
16487		-2.907751	6.726136	6.558673	-0.023367	0.006815	-0.048301	0.491699	-0.531494	-0.349609	45.511226	16.683797	-67.512394
16488		-2.910932	6.689497	6.551926	-0.027375	0.005705	-0.051954	0.490479	-0.527832	-0.350098	45.491970	16.702911	-67.531395
16489		-2.936605	6.691162	6.603476	-0.029505	0.006284	-0.054204	0.489502	-0.526367	-0.351563	45.470611	16.726405	-67.551241
16490		-2.888299	6.637465	6.597057	-0.020780	0.010394	-0.056025	0.492920	-0.530273	-0.353027	45.455198	16.749054	-67.569969
16491		-2.950943	6.633854	6.668351	-0.016156	0.010209	-0.056072	0.489502	-0.531006	-0.354736	45.441724	16.774855	-67.588942
16492		-2.932528	6.665709	6.603635	-0.009632	0.020430	-0.057020	0.480957	-0.531738	-0.353516	45.433794	16.801936	-67.603823
16493		-2.972072	6.663677	6.600372	-0.003134	0.021935	-0.055666	0.491455	-0.531738	-0.353027	45.429251	16.832259	-67.617639
16494		-2.924120	6.684317	6.585099	-0.003844	0.023164	-0.061357	0.487793	-0.526855	-0.353271	45.424429	16.862208	-67.633186
16495		-2.962156	6.688161	6.557940	-0.002420	0.023834	-0.064787	0.487549	-0.525391	-0.355713	45.419404	16.896994	-67.650034
16496		-2.956000	6.618267	6.617181	0.001402	0.021691	-0.065102	0.493652	-0.528320	-0.350586	45.416927	16.927877	-67.667794
16497		-2.960619	6.656022	6.600872	0.009093	0.023341	-0.069605	0.492188	-0.523438	-0.353760	45.417827	16.964410	-67.686886
16498		-2.933848	6.688318	6.610513	0.017603	0.035702	-0.076124	0.500000	-0.531738	-0.352295	45.425002	17.005426	-67.703307
16499		-2.990828	6.676430	6.575443	0.027260	0.042258	-0.084635	0.491943	-0.522217	-0.350830	45.436800	17.055680	-67.720643
16500		-2.932841	6.670640	6.601541	0.046913	0.044466	-0.089106	0.495605	-0.532715	-0.343262	45.460242	17.105527	-67.738768
16501		-2.911385	6.699846	6.630741	0.077651	0.068277	-0.095281	0.492432	-0.529541	-0.355225	45.502854	17.170574	-67.749423
16502		-2.897388	6.783254	6.517302	0.129611	0.095462	-0.116306	0.496094	-0.531250	-0.349365	45.576739	17.252037	-67.757073
16503		-2.966331	6.985301	6.496304	0.187462	0.117180	-0.155637	0.499756	-0.526855	-0.349365	45.681004	17.361384	-67.771919
16504		-2.985967	7.105630	6.455037	0.231656	0.128499	-0.210314	0.500000	-0.524170	-0.349854	45.805872	17.494660	-67.804463
16505		-3.012853	7.002434	6.456332	0.271864	0.141682	-0.276286	0.501221	-0.525146	-0.349609	45.946569	17.663423	-67.858759
16506		-2.916164	6.622142	6.601609	0.324948	0.166612	-0.336945	0.498291	-0.524170	-0.347656	46.113800	17.864231	-67.927054
16507		-2.931578	6.306813	6.772646	0.411915	0.244592	-0.351537	0.500000	-0.520996	-0.341064	46.338813	18.105186	-67.967007
16508		-2.635475	6.343955	6.970955	0.558626	0.362072	-0.381403	0.505371	-0.535400	-0.336426	46.660871	18.402086	-67.966681
16509		-2.542957	6.563834	6.748595	0.735167	0.547169	-0.488947	0.501221	-0.523193	-0.330811	47.095932	18.819344	-67.927202
16510		-2.768484	6.741785	6.569057	0.853867	0.690480	-0.583584	0.511230	-0.520508	-0.323975	47.609406	19.328889	-67.858797
16511		-2.637429	7.089055	6.702231	0.917079	0.818606	-0.658782	0.513672	-0.524902	-0.313965	48.169868	19.921772	-67.758120
16512		-2.825937	7.202832	6.392224	0.922381	0.950767	-0.746550	0.528076	-0.528564	-0.301758	48.746079	20.598762	-67.625765
16513		-3.229963	7.280749	6.319551	0.907976	1.026049	-0.815721	0.532959	-0.523193	-0.292236	49.320158	21.335297	-67.478656
16514		-3.322405	7.273597	6.242761	0.884905	1.068040	-0.851885	0.535400	-0.518311	-0.290527	49.888710	22.099176	-67.317469
16515		-3.482462	7.338638	6.196153	0.842087	1.102764	-0.893158	0.544678	-0.513428	-0.273438	50.437498	22.894978	-67.147392
16516		-3.503127	7.612360	6.006490	0.801549	1.158560	-0.916015	0.557861	-0.512939	-0.262695	50.976747	23.717116	-66.949996
16517		-3.692287	7.411103	5.886329	0.775449	1.226096	-0.986455	0.561279	-0.506104	-0.255859	51.509187	24.595619	-66.737717
16518		-3.949051	7.285853	5.867465	0.757343	1.303189	-1.037949	0.568359	-0.496582	-0.246094	52.047170	25.520381	-66.496515
16519		-4.058726	7.187843	5.752726	0.748557	1.394213	-1.164940	0.571289	-0.501953	-0.223633	52.586641	26.534812	-66.247474
16520		-4.020705	7.299444	5.672369	0.768207	1.508767	-1.259053	0.580811	-0.489746	-0.218750	53.158349	27.627332	-65.962684
16521		-4.264576	7.379688	5.600824	0.795007	1.621690	-1.325461	0.601563	-0.479980	-0.197510	53.772860	28.788451	-65.629080
16522		-4.450063	7.530399	5.594627	0.822321	1.739062	-1.480277	0.605957	-0.469238	-0.186035	54.420425	30.055354	-65.273871
16523		-4.669098	7.644877	5.695888	0.848984	1.859507	-1.619590	0.621094	-0.455811	-0.165039	55.106970	31.425641	-64.885026
16524		-4.898816	7.976724	5.689731	0.870025	1.962384	-1.757531	0.623291	-0.443359	-0.148193	55.830578	32.888172	-64.465693
16525		-5.544865	8.269434	5.732776	0.888791	2.027880	-1.919745	0.637695	-0.427002	-0.124023	56.576303	34.446026	-64.041598
16526		-6.251770	8.604454	5.666115	0.938983	2.053322	-2.063852	0.652832	-0.413086	-0.100830	57.357423	36.074317	-63.623830
16527		-7.614604	8.977871	5.571138	1.075271	2.031343	-2.145533	0.642822	-0.397461	-0.085693	58.221675	37.732144	-63.212905
16528		-9.428306	10.157171	6.193028	1.264362	1.865126	-2.148900	0.658203	-0.384521	-0.070557	59.165140	39.335015	-62.864444
16529		-8.995264	10.633400	5.477978	1.324879	1.618029	-2.150902	0.665527	-0.359375	-0.057129	60.073434	40.864338	-62.635070
16530		-8.350967	10.954601	5.288807	1.315201	1.485972	-2.226703	0.666992	-0.341797	-0.042236	60.928447	42.389637	-62.485257
16531		-8.393559	10.503064	5.260145	1.257991	1.336856	-2.319216	0.678223	-0.316650	-0.020020	61.681495	43.920133	-62.440362
16532		-7.919177	10.210701	5.058646	1.201421	1.204431	-2.468774	0.680420	-0.292969	-0.020020	62.316640	45.488710	-62.518752
16533		-7.180454	10.137263	5.233530	1.111788	1.131109	-2.638575	0.687256	-0.275635	-0.004639	62.827208	47.125842	-62.695859
16534		-7.167471	9.782093	5.329917	0.961362	1.047536	-2.756511	0.683838	-0.238525	0.010254	63.176746	48.801248	-62.969430
16535		-6.430934	8.948815	5.044756	0.835560	0.938885	-2.814833	0.676270	-0.204590	0.015381	63.367419	50.479849	-63.349554
16536		-4.830088	8.616028	5.160695	0.680303	0.836507	-2.844120	0.681396	-0.189453	0.011719	63.380841	52.147107	-63.834114
16537		-3.015437	8.630758	5.014636	0.521987	0.712823	-2.778280	0.676270	-0.159912	0.031006	63.215475	53.748213	-64.417938
16538		-0.916781	8.447330	5.075975	0.351027	0.474554	-2.568247	0.677246	-0.126221	0.037598	62.821577	55.178625	-65.151425
16539		-3.203035	8.580553	4.303777	0.346531	0.360019	-2.253809	0.670166	-0.108398	0.027100	62.415247	56.414527	-65.884553
16540		-4.339542	9.987155	6.143169	0.316104	-0.061800	-1.698349	0.659180	-0.084717	0.037109	61.852938	57.253928	-66.774886
16541		-1.043893	9.723204	5.203117	0.299111	-0.368889	-1.112268	0.661621	-0.074951	0.022705	61.256161	57.706833	-67.687636
16542		-0.217683	8.968748	4.792151	0.187613	-0.536569	-0.679947	0.655762	-0.062256	0.023926	60.636977	57.893762	-68.548619
16543		0.347238	7.865119	4.016667	0.086524	-0.601604	-0.362421	0.653809	-0.052734	0.015381	60.045199	57.895455	-69.307590
16544		0.755769	7.093254	3.695280	0.013849	-0.632448	-0.105042	0.650146	-0.053467	0.009277	59.507888	57.760697	-69.953968
16545		0.590292	6.770409	3.779486	-0.015142	-0.673261	0.133578	0.645264	-0.049072	0.006104	59.038176	57.488436	-70.501797
16546		0.259652	6.763484	3.996115	-0.011014	-0.734485	0.386830	0.650879	-0.044434	-0.008789	58.650575	57.076675	-70.957227
16547		0.041968	6.928313	4.195866	-0.000655	-0.840150	0.671936	0.649902	-0.053223	-0.010986	58.331397	56.486435	-71.340316
16548		-0.138276	7.053197	4.212817	-0.021322	-0.951536	0.946613	0.644043	-0.049561	-0.024170	58.055905	55.733791	-71.659738
16549		-0.303548	7.154090	4.255504	-0.080523	-1.047586	1.217054	0.647705	-0.056885	-0.033203	57.810967	54.812733	-71.903715
16550		-0.675686	7.265640	4.302513	-0.150164	-1.140793	1.462336	0.647217	-0.080811	-0.044189	57.580364	53.750870	-72.084085
16551		-1.282101	7.382626	4.195637	-0.234846	-1.233846	1.687272	0.641602	-0.089111	-0.059570	57.345558	52.543196	-72.211564
16552		-1.876547	7.114992	4.009770	-0.293490	-1.316427	1.894147	0.641113	-0.088135	-0.060547	57.118843	51.218012	-72.288379
16553		-2.320878	6.745402	3.851681	-0.291958	-1.377545	2.090054	0.643311	-0.118164	-0.077637	56.940304	49.770561	-72.305332
16554		-2.846934	6.665496	3.761947	-0.251970	-1.414450	2.270199	0.640381	-0.125977	-0.093018	56.833742	48.233964	-72.257732
16555		-3.367734	6.528002	3.780224	-0.200963	-1.447177	2.434325	0.639648	-0.137695	-0.098877	56.795811	46.598986	-72.155424
16556		-3.960726	6.573624	3.984184	-0.142814	-1.474470	2.587498	0.640137	-0.151855	-0.106445	56.822673	44.891468	-72.006318
16557		-4.711381	6.676747	4.286371	-0.087937	-1.490577	2.715506	0.630859	-0.179443	-0.128906	56.904647	43.107556	-71.818537
16558		-5.469834	6.778858	4.524735	-0.061449	-1.501646	2.799328	0.632813	-0.189453	-0.142090	57.009853	41.289543	-71.612325
16559		-6.198279	6.827751	4.759008	-0.045380	-1.501845	2.851567	0.634766	-0.203369	-0.145752	57.126530	39.436045	-71.394916
16560		-6.697747	6.902610	4.941773	-0.033101	-1.481644	2.878928	0.642090	-0.224121	-0.166260	57.252493	37.585305	-71.165216
16561		-7.201677	7.103426	5.119926	-0.045156	-1.441977	2.887766	0.641846	-0.246826	-0.176514	57.375569	35.732236	-70.918722
16562		-7.769680	7.516938	5.461473	-0.104146	-1.410234	2.887759	0.641113	-0.270752	-0.195313	57.463493	33.898557	-70.663536
16563		-8.092894	8.012035	5.673082	-0.218536	-1.360027	2.876662	0.639893	-0.282959	-0.198975	57.488312	32.075787	-70.390977
16564		-8.360348	8.211844	5.797139	-0.375910	-1.320499	2.869243	0.639404	-0.302246	-0.212891	57.423652	30.278576	-70.103481
16565		-8.618188	8.162216	5.757035	-0.527531	-1.288252	2.850060	0.647217	-0.322510	-0.224121	57.268763	28.491730	-69.806168
16566		-8.858361	8.065896	5.612810	-0.638209	-1.263732	2.809087	0.636719	-0.346680	-0.241211	57.043093	26.742431	-69.508206
16567		-8.917540	7.707367	5.398127	-0.703939	-1.253541	2.737407	0.641846	-0.358154	-0.248291	56.764420	25.023146	-69.225714
16568		-8.989750	7.502054	5.097770	-0.709275	-1.246947	2.636417	0.626221	-0.391357	-0.271729	56.465090	23.364320	-68.969052
16569		-9.011779	7.380180	4.886067	-0.673999	-1.241461	2.508234	0.636719	-0.394775	-0.282715	56.165189	21.761598	-68.747456
16570		-8.898637	7.416560	4.651665	-0.634841	-1.242665	2.383055	0.629395	-0.413818	-0.305176	55.869442	20.227049	-68.562905
16571		-8.812400	7.596327	4.544945	-0.583268	-1.224133	2.259054	0.619873	-0.436035	-0.305176	55.589136	18.750960	-68.405110
16572		-8.808568	7.616359	4.344640	-0.569216	-1.201209	2.125310	0.615723	-0.451416	-0.316895	55.305082	17.353300	-68.275352
16573		-8.812497	7.576754	4.213281	-0.552244	-1.169559	1.995229	0.609375	-0.463135	-0.328613	55.020750	16.021629	-68.168233
16574		-8.952548	7.347540	4.006517	-0.522350	-1.131207	1.865390	0.608643	-0.478516	-0.350342	54.746542	14.770138	-68.080845
16575		-9.018647	6.914434	3.759895	-0.451985	-1.088303	1.728870	0.610840	-0.489746	-0.360107	54.505374	13.591913	-68.014154
16576		-8.996311	6.564208	3.491885	-0.361743	-1.040452	1.580136	0.597168	-0.503906	-0.373779	54.309681	12.504333	-67.971236
16577		-8.972449	6.236044	3.264203	-0.262829	-0.981196	1.414393	0.588623	-0.511230	-0.381104	54.164352	11.509787	-67.953731
16578		-9.181724	5.947417	2.996831	-0.169927	-0.925024	1.236625	0.576172	-0.532227	-0.390137	54.066055	10.620662	-67.968429
16579		-9.467842	5.446444	2.727029	-0.059526	-0.871742	1.030257	0.578613	-0.535645	-0.403809	54.023269	9.842375	-68.027386
16580		-10.038267	4.251697	1.794971	0.089438	-0.801510	0.829311	0.573486	-0.541016	-0.407227	54.060809	9.183690	-68.121723
16581		-11.063149	5.206907	2.873430	0.109720	0.054066	-0.380832	0.581299	-0.544678	-0.403320	54.108773	9.372767	-68.226316
16582		-10.497878	1.895250	-0.474818	-0.245472	0.580843	-0.883013	0.583252	-0.537842	-0.400146	53.965228	9.973294	-68.254795
16583		-12.567014	-0.392800	-1.932529	-0.459111	0.961770	-1.367697	0.593262	-0.526123	-0.397461	53.701009	10.926877	-68.272994
16584		-12.478053	-2.174977	-2.427623	-0.389518	1.721906	-1.904340	0.609375	-0.509766	-0.387695	53.509921	12.386129	-68.123459
16585		-5.231105	9.290436	12.359298	-1.403566	2.695550	-2.492632	0.622070	-0.475830	-0.365967	52.798454	14.452879	-67.733574
16586		-43.203432	26.173404	24.426886	-5.080287	-0.323155	-2.027379	0.637451	-0.431641	-0.370117	49.658364	15.238085	-68.635460
16587		-1.159879	-1.779494	16.049356	-0.170614	0.199758	0.665475	0.628662	-0.429688	-0.376221	49.652657	15.021897	-68.289437
16588		5.226798	7.100286	2.389451	-0.615881	-0.560462	-0.146084	0.633789	-0.429199	-0.375244	49.222020	14.872243	-68.598239
16589		-5.021040	13.768826	2.042016	-0.655659	0.222754	-0.124706	0.630371	-0.420410	-0.380127	48.860461	15.009515	-68.547017
16590		-1.504323	3.428216	9.144418	-0.220678	0.085405	-0.046029	0.633057	-0.422119	-0.381348	48.741152	15.057168	-68.526800
16591		-3.228785	8.100231	5.384178	-0.141462	0.075415	-0.029880	0.628906	-0.419678	-0.375000	48.666937	15.098235	-68.504891
16592		-2.437500	7.169536	6.122547	-0.250612	0.106222	-0.007092	0.631592	-0.421387	-0.380859	48.536866	15.137108	-68.460288
16593		-2.869377	7.016440	6.283143	-0.259413	0.082282	-0.017674	0.636230	-0.412598	-0.378174	48.397241	15.175633	-68.430662
16594		-2.968403	7.375778	6.167168	-0.278833	0.071917	0.006108	0.633789	-0.422607	-0.372314	48.248384	15.195997	-68.396242
16595		-2.801870	7.314437	6.239425	-0.289209	0.024211	-0.001281	0.628906	-0.412109	-0.371094	48.086659	15.205488	-68.385990
16596		-2.748456	7.287395	6.213814	-0.321083	-0.006961	-0.030182	0.627686	-0.416748	-0.376953	47.900665	15.211249	-68.400910
16597		-2.751685	6.843747	6.500130	-0.301732	-0.022438	-0.034232	0.634033	-0.419922	-0.373047	47.722967	15.216823	-68.424350
16598		-2.755275	6.815079	6.567442	-0.252495	-0.025555	-0.021925	0.633057	-0.405518	-0.378662	47.574985	15.211823	-68.444162
16599		-2.679555	6.819314	6.492847	-0.204982	-0.018678	-0.009699	0.631104	-0.412598	-0.377930	47.455699	15.208352	-68.456127
16600		-2.672362	6.932992	6.408520	-0.181468	-0.009981	-0.009994	0.634521	-0.411377	-0.378174	47.351465	15.204279	-68.464314
16601		-2.656183	6.831691	6.428115	-0.175707	-0.001617	-0.011343	0.626709	-0.402344	-0.384033	47.250729	15.208060	-68.469466
16602		-2.641675	6.865869	6.475670	-0.170287	0.005627	-0.001080	0.626709	-0.405273	-0.379883	47.155631	15.206286	-68.467242
16603		-2.643531	6.816451	6.503084	-0.154745	0.014805	0.002262	0.634277	-0.403320	-0.371582	47.070215	15.210714	-68.459750
16604		-2.696919	6.857936	6.519877	-0.135714	0.032353	0.008921	0.633057	-0.398193	-0.385986	46.999037	15.215191	-68.441861
16605		-2.679683	6.872283	6.508392	-0.109285	0.036502	0.015044	0.630127	-0.404297	-0.377686	46.943492	15.222739	-68.419773
16606		-2.730456	6.960835	6.482010	-0.098594	0.034099	0.009960	0.630615	-0.398926	-0.377441	46.893894	15.227498	-68.400714
16607		-2.698609	6.882129	6.498862	-0.087334	0.030318	0.001170	0.627197	-0.407959	-0.382080	46.848752	15.238440	-68.386941
16608		-2.699220	6.915772	6.487418	-0.076378	0.025674	-0.003032	0.629150	-0.401855	-0.375732	46.809538	15.245355	-68.376816
16609		-2.684270	6.927852	6.496483	-0.064076	0.027151	-0.007672	0.632080	-0.394043	-0.374512	46.776423	15.258740	-68.368016
16610		-2.683332	6.933699	6.453053	-0.072981	0.020045	-0.016669	0.633301	-0.405029	-0.375244	46.737055	15.269149	-68.365882
16611		-2.688806	6.884234	6.497486	-0.070505	0.020424	-0.018986	0.632324	-0.402832	-0.381836	46.698288	15.284596	-68.364607
16612		-2.677132	6.817948	6.538996	-0.065561	0.021153	-0.023638	0.636475	-0.395508	-0.381836	46.662546	15.298348	-68.364849
16613		-2.678381	6.818801	6.518741	-0.054972	0.023918	-0.018701	0.635498	-0.395508	-0.371338	46.633104	15.315025	-68.361962
16614		-2.697495	6.870877	6.508013	-0.048715	0.027698	-0.018288	0.631592	-0.401367	-0.376465	46.608335	15.329125	-68.357210
16615		-2.738483	6.856618	6.555583	-0.044582	0.026459	-0.023183	0.628662	-0.391357	-0.378174	46.584651	15.348644	-68.355066
16616		-2.700639	6.874476	6.465402	-0.045639	0.023967	-0.025828	0.641602	-0.397461	-0.380127	46.560402	15.364416	-68.355015
16617		-2.711186	6.882799	6.570571	-0.044184	0.016303	-0.033856	0.633301	-0.404297	-0.374268	46.534631	15.384351	-68.361626
16618		-2.726651	6.878445	6.496835	-0.044474	0.021301	-0.033212	0.633301	-0.395752	-0.379639	46.509939	15.402142	-68.365758
16619		-2.736286	6.819165	6.586854	-0.045746	0.006889	-0.037371	0.635986	-0.396729	-0.385742	46.481808	15.419794	-68.377881
16620		-2.717011	6.814734	6.515692	-0.040848	0.013143	-0.038972	0.627441	-0.401855	-0.376709	46.457623	15.436755	-68.387904
16621		-2.721907	6.805624	6.541918	-0.040024	0.006500	-0.036299	0.639893	-0.391113	-0.375732	46.432829	15.453775	-68.399770
16622		-2.707343	6.785183	6.541815	-0.039189	0.005713	-0.037577	0.630615	-0.397949	-0.372314	46.408885	15.467214	-68.412438
16623		-2.729956	6.826684	6.578339	-0.038129	0.008228	-0.034913	0.632324	-0.394043	-0.378174	46.385512	15.484308	-68.423004
16624		-2.709755	6.789253	6.499097	-0.037901	0.011542	-0.030962	0.631592	-0.391602	-0.382813	46.363691	15.497298	-68.430463
16625		-2.714346	6.886775	6.524663	-0.038369	0.007716	-0.037314	0.637695	-0.388672	-0.366455	46.339849	15.515152	-68.442246
16626		-2.733725	6.832456	6.514613	-0.047571	0.002536	-0.040214	0.630371	-0.400391	-0.384033	46.310426	15.528406	-68.457391
16627		-2.738964	6.856105	6.549551	-0.056019	0.004840	-0.039810	0.634521	-0.394775	-0.372803	46.275862	15.546118	-68.471452
16628		-2.721636	6.772746	6.511344	-0.057065	0.002368	-0.042455	0.635742	-0.391113	-0.380127	46.240721	15.560217	-68.487608
16629		-2.727466	6.829682	6.554425	-0.054898	0.001865	-0.040188	0.634766	-0.387207	-0.378906	46.206405	15.576865	-68.503122
16630		-2.710566	6.780101	6.523903	-0.055139	0.001355	-0.042589	0.638428	-0.385742	-0.376953	46.172222	15.590599	-68.519788
16631		-2.767746	6.820122	6.559405	-0.054023	-0.001643	-0.042982	0.634033	-0.392578	-0.373047	46.137682	15.606966	-68.537976
16632		-2.733279	6.753675	6.526259	-0.058088	-0.000027	-0.045059	0.640381	-0.392822	-0.375244	46.101362	15.621151	-68.556273
16633		-2.740315	6.771049	6.585500	-0.057216	-0.003551	-0.047866	0.628174	-0.390869	-0.384766	46.064217	15.638731	-68.577313
16634		-2.688174	6.760597	6.541690	-0.056716	0.003414	-0.046950	0.632324	-0.380615	-0.383301	46.028853	15.655043	-68.594939
16635		-2.765669	6.811100	6.603763	-0.059114	0.009333	-0.055521	0.638916	-0.392334	-0.373535	45.991234	15.680853	-68.613648
16636		-2.731122	6.783569	6.554775	-0.059658	0.002046	-0.049417	0.630615	-0.392578	-0.383057	45.953731	15.697614	-68.632905
16637		-2.754100	6.789489	6.584975	-0.053914	0.004779	-0.053814	0.634033	-0.383789	-0.380859	45.918736	15.720858	-68.652889
16638		-2.759823	6.706061	6.619822	-0.050914	0.003476	-0.052840	0.640137	-0.385498	-0.384766	45.886004	15.739575	-68.672978
16639		-2.766814	6.762713	6.662812	-0.050072	0.002711	-0.054115	0.638184	-0.384033	-0.381836	45.852911	15.762073	-68.693998
16640		-2.781660	6.724549	6.581779	-0.048986	0.002467	-0.052978	0.639160	-0.380127	-0.381348	45.821130	15.780421	-68.714601
16641		-2.752901	6.787178	6.603446	-0.048152	0.007600	-0.058163	0.634277	-0.379883	-0.375732	45.789221	15.806489	-68.735241
16642		-2.770941	6.703753	6.561752	-0.052546	-0.002796	-0.071200	0.631592	-0.388184	-0.379395	45.752702	15.830193	-68.765687
16643		-2.780810	6.754199	6.628498	-0.047517	0.009508	-0.067272	0.635254	-0.380859	-0.375000	45.720319	15.860714	-68.789332
16644		-2.750647	6.716065	6.625697	-0.042006	0.005845	-0.070169	0.635254	-0.374023	-0.377686	45.690924	15.887418	-68.815701
16645		-2.807505	6.766932	6.612962	-0.042096	0.017276	-0.070973	0.625977	-0.385986	-0.371582	45.662095	15.922516	-68.837613
16646		-2.775463	6.701226	6.577889	-0.039291	0.012719	-0.073952	0.627686	-0.378418	-0.365234	45.634591	15.953499	-68.862664
16647		-2.819843	6.718303	6.633063	-0.037126	0.012206	-0.071693	0.635010	-0.373779	-0.375732	45.607899	15.986818	-68.887075
16648		-2.806714	6.663666	6.624323	-0.038747	0.011065	-0.070637	0.632324	-0.382813	-0.370605	45.580856	16.015758	-68.911487
16649		-2.816463	6.681370	6.681735	-0.030377	0.014307	-0.067964	0.627930	-0.378174	-0.376953	45.558668	16.048352	-68.933483
16650		-2.799354	6.678479	6.609354	-0.026681	0.020445	-0.063665	0.640869	-0.377686	-0.375488	45.540414	16.078186	-68.951023
16651		-2.843133	6.735798	6.647956	-0.023079	0.017847	-0.066399	0.633789	-0.372314	-0.368408	45.522969	16.111525	-68.970886
16652		-2.807158	6.683273	6.564250	-0.023624	0.016419	-0.064230	0.642090	-0.378662	-0.376709	45.505900	16.139963	-68.990399
16653		-2.834883	6.718257	6.623637	-0.024194	0.020915	-0.065949	0.633301	-0.379395	-0.375000	45.488207	16.174317	-69.008794
16654		-2.803621	6.687762	6.595168	-0.019012	0.022244	-0.068175	0.629639	-0.368652	-0.376709	45.473983	16.206696	-69.027503
16655		-2.848535	6.705897	6.648750	-0.018163	0.021491	-0.069449	0.628662	-0.368652	-0.372803	45.459378	16.242678	-69.047141
16656		-2.852296	6.635754	6.632867	-0.016293	0.023202	-0.068062	0.641846	-0.369629	-0.376221	45.446812	16.275387	-69.065418
16657		-2.879079	6.676897	6.667890	-0.014657	0.024411	-0.069081	0.635986	-0.377441	-0.381348	45.434575	16.312365	-69.083683
16658		-2.828084	6.676107	6.596531	-0.001624	0.024772	-0.068035	0.639648	-0.376221	-0.382324	45.430578	16.345688	-69.101300
16659		-2.856650	6.751443	6.638882	-0.007405	0.033900	-0.071388	0.640625	-0.370361	-0.379883	45.423332	16.387397	-69.116511
16660		-2.859255	6.687908	6.598292	-0.002974	0.027344	-0.069986	0.636230	-0.370361	-0.372314	45.418613	16.422547	-69.133865
16661		-2.884751	6.774658	6.593545	-0.010204	0.027073	-0.076932	0.635254	-0.371582	-0.374756	45.408264	16.463745	-69.154320
16662		-2.840180	6.677451	6.623982	-0.006648	0.027241	-0.078115	0.636475	-0.367920	-0.372559	45.400432	16.502166	-69.175146
16663		-2.868296	6.718839	6.658201	-0.002706	0.025645	-0.085390	0.636719	-0.365479	-0.368164	45.393169	16.546211	-69.199778
16664		-2.905906	6.654530	6.614619	0.005117	0.030665	-0.085969	0.632813	-0.366211	-0.376465	45.391519	16.589209	-69.222462
16665		-2.900331	6.697367	6.650420	0.012225	0.030989	-0.088343	0.642334	-0.371338	-0.383789	45.393065	16.636584	-69.246074
16666		-2.885997	6.657645	6.590104	0.019295	0.037278	-0.094581	0.624023	-0.368896	-0.366211	45.399270	16.685757	-69.269566
16667		-2.933835	6.716705	6.624866	0.026634	0.038118	-0.094543	0.641357	-0.370605	-0.375244	45.409156	16.738512	-69.292749
16668		-2.889164	6.667130	6.613185	0.038556	0.044799	-0.098444	0.639404	-0.371582	-0.372803	45.426816	16.792295	-69.314652
16669		-2.916888	6.722571	6.596332	0.044005	0.049935	-0.103633	0.635742	-0.357178	-0.379639	45.446970	16.853501	-69.336598
16670		-2.893453	6.684786	6.609123	0.068986	0.060298	-0.111856	0.642578	-0.364258	-0.375000	45.482315	16.919007	-69.357486
16671		-2.878160	6.782857	6.652056	0.104810	0.077663	-0.125080	0.642334	-0.358643	-0.371826	45.538110	17.000113	-69.376525
16672		-2.886925	6.889117	6.514888	0.153341	0.104306	-0.158167	0.641113	-0.364502	-0.378662	45.621592	17.102258	-69.397882
16673		-2.930480	7.090959	6.494446	0.208027	0.126334	-0.207012	0.637207	-0.352539	-0.377197	45.732569	17.236450	-69.430153
16674		-2.951240	7.155032	6.387460	0.253584	0.134727	-0.284251	0.648193	-0.354248	-0.363037	45.861692	17.402612	-69.490805
16675		-3.003949	7.011358	6.476569	0.304279	0.147245	-0.354939	0.641846	-0.360596	-0.359863	46.011984	17.606139	-69.575288
16676		-2.750386	6.649028	6.683511	0.382067	0.187427	-0.400995	0.645996	-0.359863	-0.365234	46.206696	17.841753	-69.660964
16677		-2.466437	6.308840	6.840505	0.515568	0.331527	-0.459193	0.643311	-0.353516	-0.376221	46.489168	18.161904	-69.707199
16678		-2.598085	6.458172	6.940473	0.648893	0.498252	-0.528958	0.648438	-0.356689	-0.355469	46.862837	18.573842	-69.707222
16679		-2.674034	6.667757	6.968941	0.742992	0.623986	-0.565866	0.654541	-0.354736	-0.349365	47.303856	19.053289	-69.663717
16680		-2.762119	6.843232	6.652457	0.789989	0.755407	-0.606196	0.653809	-0.356689	-0.347412	47.788210	19.597284	-69.573567
16681		-2.872956	7.052398	6.583167	0.825202	0.862070	-0.662959	0.670410	-0.352295	-0.339111	48.303324	20.208432	-69.452946
16682		-2.941675	7.219225	6.377294	0.847894	0.945447	-0.697872	0.665771	-0.357178	-0.328369	48.844104	20.862242	-69.301629
16683		-3.242375	7.209066	6.407805	0.841775	1.019780	-0.736350	0.666016	-0.338623	-0.325195	49.391921	21.561985	-69.124030
16684		-3.312741	7.459048	6.284469	0.818367	1.082953	-0.799386	0.681152	-0.348389	-0.304443	49.933788	22.308315	-68.933746
16685		-3.564157	7.210458	6.124451	0.786931	1.151486	-0.874601	0.680908	-0.341553	-0.291260	50.463769	23.113876	-68.732175
16686		-3.634760	7.235548	6.136156	0.777872	1.235217	-0.976908	0.689453	-0.337646	-0.293213	50.995715	23.990755	-68.521057
16687		-3.718705	7.415820	6.020086	0.772915	1.333413	-1.060909	0.702148	-0.330566	-0.275879	51.537857	24.941119	-68.284428
16688		-3.778829	7.360360	5.967244	0.789788	1.447886	-1.135718	0.700684	-0.326660	-0.253174	52.111161	25.960983	-68.007783
16689		-3.830856	7.593261	6.031908	0.806267	1.557164	-1.201134	0.709961	-0.318359	-0.236572	52.717508	27.048601	-67.687198
16690		-4.376159	7.654268	5.998834	0.804168	1.665975	-1.320510	0.714600	-0.312988	-0.223145	53.341092	28.222728	-67.340279
16691		-4.522252	7.759889	6.041496	0.802139	1.737954	-1.455170	0.728271	-0.295654	-0.212891	53.971447	29.482373	-66.989195
16692		-4.911696	7.841694	5.898874	0.807452	1.789024	-1.558708	0.736328	-0.285645	-0.197754	54.616457	30.801401	-66.629828
16693		-5.562363	8.130727	6.015063	0.801947	1.791578	-1.632448	0.740967	-0.279053	-0.177979	55.262422	32.154518	-66.275298
16694		-6.086573	8.397157	5.917773	0.778012	1.781193	-1.699159	0.743652	-0.268555	-0.163086	55.898030	33.530085	-65.928797
16695		-7.182598	8.687241	6.139164	0.810995	1.702624	-1.715579	0.751709	-0.240234	-0.149658	56.543281	34.887267	-65.610026
16696		-7.973056	9.566614	6.470093	0.820138	1.552700	-1.697036	0.747314	-0.232422	-0.137207	57.167020	36.183415	-65.348641
16697		-7.245080	9.447219	5.645162	0.748185	1.444502	-1.716182	0.762207	-0.218750	-0.122314	57.722566	37.455324	-65.139221
16698		-6.929555	9.403383	5.375059	0.634402	1.382404	-1.790545	0.758545	-0.204834	-0.100098	58.187070	38.740794	-64.978590
16699		-7.041989	9.187561	5.254309	0.531770	1.312718	-1.859398	0.757324	-0.188965	-0.102539	58.559601	40.039937	-64.873922
16700		-6.958382	8.773509	4.747744	0.515608	1.214458	-1.909860	0.757080	-0.165527	-0.077148	58.879119	41.332067	-64.839872
16701		-6.777167	8.674395	4.583857	0.459664	1.166202	-1.996850	0.768066	-0.153809	-0.074219	59.128361	42.654330	-64.863211
16702		-6.446378	8.472660	4.425604	0.389425	1.116239	-2.102242	0.757813	-0.129150	-0.063232	59.289308	44.012073	-64.956573
16703		-6.353195	8.209706	4.348198	0.291168	1.070978	-2.195453	0.757080	-0.111572	-0.057129	59.343748	45.404185	-65.118532
16704		-6.213804	7.904318	4.192130	0.196140	1.037210	-2.284211	0.750488	-0.089111	-0.047852	59.294312	46.828621	-65.345651
16705		-6.124866	7.860184	4.014071	0.097654	0.999385	-2.365581	0.752441	-0.068848	-0.031738	59.130156	48.282972	-65.646086
16706		-5.894737	7.693768	4.100612	-0.010445	0.959874	-2.421651	0.744629	-0.047852	-0.029297	58.844919	49.751139	-66.018470
16707		-4.771419	7.552242	4.512334	-0.080341	0.887261	-2.439421	0.739014	-0.017578	-0.014160	58.444153	51.205763	-66.480460
16708		-4.402112	7.331198	5.241112	-0.206775	0.699703	-2.400694	0.736572	0.007568	-0.015381	57.835110	52.581282	-67.106249
16709		-6.231335	7.195743	5.442183	-0.208686	0.412636	-2.270265	0.718750	0.021973	-0.013184	57.046929	53.800839	-67.943359
16710		-7.112288	7.744298	6.352533	-0.029316	-0.136607	-1.800149	0.716064	0.043701	-0.011230	56.153178	54.614467	-69.026780
16711		-4.629187	7.341552	5.577407	0.223826	-0.666405	-1.211577	0.716309	0.058350	-0.019043	55.280692	54.968424	-70.253496
16712		-3.317692	7.253633	5.195295	0.393525	-1.018198	-0.772697	0.703613	0.060547	-0.036621	54.463039	54.990427	-71.529528
16713		-2.374710	6.723136	4.142844	0.481961	-1.208550	-0.491371	0.699463	0.062500	-0.047852	53.706973	54.806973	-72.793109
16714		-1.402417	6.291832	3.523771	0.472804	-1.253000	-0.325967	0.690674	0.065186	-0.054199	53.009588	54.523947	-73.982334
16715		-0.760132	6.094682	3.240044	0.393429	-1.183156	-0.231647	0.693848	0.062256	-0.068115	52.371643	54.212656	-75.046640
16716		-0.443718	6.079464	3.189788	0.263873	-1.057600	-0.137150	0.688232	0.060059	-0.088867	51.798542	53.897869	-75.943605
16717		-0.280993	6.213684	3.327311	0.136280	-0.940235	-0.025343	0.683594	0.061768	-0.095215	51.290961	53.567574	-76.672267
16718		-0.395898	6.526617	3.595240	0.025087	-0.841122	0.143359	0.694824	0.057129	-0.105225	50.871968	53.196490	-77.214546
16719		-0.640546	6.774840	3.893353	-0.055653	-0.793889	0.370779	0.689453	0.058105	-0.113281	50.553839	52.736699	-77.575603
16720		-0.827898	6.641095	4.088419	-0.086420	-0.792459	0.646907	0.687500	0.047363	-0.114258	50.357669	52.157378	-77.762964
16721		-0.960941	6.446819	4.104211	-0.055948	-0.815658	0.948790	0.693848	0.033691	-0.137695	50.311813	51.432546	-77.783213
16722		-0.986378	6.346992	4.237978	0.003692	-0.836463	1.227440	0.697998	0.025635	-0.149658	50.414029	50.580806	-77.656849
16723		-1.298306	6.382524	4.360270	0.053225	-0.849569	1.457448	0.687500	0.004883	-0.156250	50.632631	49.618042	-77.414514
16724		-1.822770	6.489646	4.537854	0.060359	-0.866330	1.640452	0.706055	-0.001221	-0.166016	50.911294	48.571622	-77.094080
16725		-2.298933	6.454760	4.630781	0.051097	-0.877588	1.775288	0.707520	-0.021240	-0.172852	51.218747	47.455076	-76.722848
16726		-2.756528	6.447635	4.814457	0.038483	-0.891982	1.871544	0.702393	-0.041504	-0.192139	51.530935	46.293888	-76.327926
16727		-3.257285	6.472435	5.022806	0.038445	-0.919184	1.940041	0.710938	-0.059326	-0.198975	51.838020	45.085378	-75.932687
16728		-3.729199	6.631908	5.187272	0.045625	-0.966125	1.997120	0.719727	-0.082275	-0.222412	52.129526	43.838538	-75.556547
16729		-4.191609	6.853050	5.317490	0.048038	-1.026927	2.045385	0.720215	-0.107422	-0.231689	52.395800	42.541392	-75.210918
16730		-4.611413	7.206756	5.532012	0.048615	-1.089524	2.092901	0.710449	-0.131104	-0.240234	52.635464	41.205543	-74.896445
16731		-4.994837	7.497009	5.651589	0.034124	-1.156460	2.145996	0.710693	-0.145264	-0.259521	52.842588	39.815226	-74.610996
16732		-5.285538	7.785832	5.773354	0.011766	-1.210711	2.206974	0.713135	-0.170898	-0.273682	53.020630	38.383709	-74.342391
16733		-5.643261	8.025534	5.759135	-0.021091	-1.260765	2.278405	0.700439	-0.199951	-0.292236	53.169633	36.895296	-74.082077
16734		-6.021218	8.313864	5.709033	-0.073177	-1.287897	2.340146	0.705322	-0.226074	-0.305176	53.283904	35.375130	-73.820413
16735		-6.278857	8.539943	5.587562	-0.136697	-1.305298	2.388551	0.701416	-0.242920	-0.329590	53.357716	33.819948	-73.556190
16736		-6.470187	8.623189	5.450081	-0.207075	-1.298111	2.423922	0.690918	-0.263184	-0.335693	53.391422	32.257228	-73.280224
16737		-6.702671	8.733864	5.222076	-0.266597	-1.281544	2.449550	0.675781	-0.292969	-0.362305	53.392194	30.681848	-72.990241
16738		-6.924306	8.701543	5.066497	-0.311328	-1.254839	2.462096	0.677246	-0.316895	-0.370117	53.367589	29.116340	-72.685544
16739		-7.212965	8.588914	4.852044	-0.308972	-1.221958	2.450256	0.673096	-0.335938	-0.388916	53.341615	27.561323	-72.371985
16740		-7.369169	8.372750	4.648335	-0.278599	-1.181210	2.426966	0.660645	-0.359131	-0.404297	53.328941	26.037358	-72.050245
16741		-7.614255	8.170203	4.534161	-0.213297	-1.138775	2.405142	0.649902	-0.380371	-0.413818	53.350367	24.531917	-71.719366
16742		-7.732239	7.903789	4.474554	-0.132575	-1.100525	2.380975	0.645508	-0.393799	-0.433594	53.411820	23.056447	-71.383464
16743		-7.780036	7.696656	4.446249	-0.024763	-1.029616	2.330843	0.635254	-0.416016	-0.449707	53.531794	21.622214	-71.036820
16744		-7.821061	7.772998	4.488421	0.044022	-0.961269	2.261157	0.625488	-0.444092	-0.455811	53.683252	20.248141	-70.688835
16745		-7.945000	7.724363	4.506464	0.059237	-0.889455	2.176572	0.623291	-0.463623	-0.462891	53.835665	18.931641	-70.342860
16746		-8.118428	7.678341	4.495363	0.049322	-0.804707	2.071482	0.610107	-0.483643	-0.487549	53.973834	17.696563	-69.999107
16747		-8.317013	7.554167	4.402140	0.022984	-0.729198	1.957261	0.593018	-0.500488	-0.488525	54.088142	16.534806	-69.664046
16748		-8.599988	7.256427	4.288815	0.012089	-0.657764	1.825439	0.579102	-0.520752	-0.499023	54.184976	15.461989	-69.344692
16749		-8.911208	7.031795	4.156657	0.028122	-0.598981	1.685907	0.567139	-0.519531	-0.502441	54.280071	14.469635	-69.048860
16750		-9.296917	6.862549	4.001082	0.042096	-0.551793	1.551189	0.556152	-0.541016	-0.509033	54.371255	13.558868	-68.779718
16751		-9.583303	6.371433	3.774150	0.067068	-0.512533	1.417090	0.551270	-0.548340	-0.511963	54.466774	12.720572	-68.540211
16752		-9.807409	5.901212	3.453284	0.118850	-0.466119	1.272812	0.540283	-0.562012	-0.517822	54.581704	11.967284	-68.329967
16753		-9.910437	5.325835	3.199881	0.178740	-0.410086	1.107648	0.530762	-0.577148	-0.524414	54.722886	11.307647	-68.151156
16754		-9.880935	4.817919	2.928691	0.246996	-0.335938	0.927835	0.523682	-0.588867	-0.524658	54.895280	10.757865	-67.999674
16755		-9.666835	4.375116	2.761437	0.304635	-0.238923	0.724083	0.521240	-0.592041	-0.521973	55.095921	10.334562	-67.872058
16756		-9.494378	4.148235	2.649835	0.339402	-0.120161	0.498731	0.518066	-0.592285	-0.531982	55.311355	10.056216	-67.764241
16757		-8.287884	5.798008	2.332699	0.383820	0.007820	0.135256	0.517334	-0.600830	-0.534180	55.542376	9.991086	-67.716256
16758		-9.453565	5.574435	4.205436	-0.661269	0.827087	-0.782813	0.534424	-0.583740	-0.519775	55.189856	10.625049	-67.579471
16759		-9.173455	4.425101	2.670137	-1.060311	1.193241	-1.143568	0.535156	-0.571777	-0.514160	54.620886	11.551301	-67.393653
16760		-8.606011	3.892858	1.379214	-1.611173	1.546114	-1.548616	0.561279	-0.543457	-0.499756	53.742453	12.784784	-67.190366
16761		-1.176846	3.686992	6.694072	-2.099702	2.147404	-1.760650	0.571045	-0.516113	-0.490234	52.633997	14.327671	-66.799009
16762		-29.741638	24.291214	30.589707	-4.151916	2.592440	-1.432900	0.581299	-0.479248	-0.494385	50.432910	15.889950	-66.123571
16763		-6.688193	-1.794103	9.209234	-0.989971	-1.291090	-0.293319	0.586670	-0.466797	-0.494141	49.677913	15.543018	-66.824713
16764		-1.266052	-5.417084	13.182453	0.433493	-0.876952	0.248745	0.574951	-0.472168	-0.503174	49.848296	15.105237	-67.126959
16765		0.640476	8.773180	3.344714	-0.337233	-0.458664	-0.233668	0.572510	-0.463867	-0.504395	49.578481	15.036905	-67.424236
16766		-3.594932	14.198030	1.456972	-0.415982	0.083590	-0.012257	0.579102	-0.465332	-0.506348	49.350596	15.068948	-67.391243
16767		-2.045910	6.070415	7.030344	-0.234548	0.148179	0.012595	0.574707	-0.460449	-0.514404	49.236285	15.118121	-67.319624
16768		-2.786032	6.478773	6.903617	-0.138259	0.050057	-0.110293	0.585693	-0.462158	-0.506104	49.153665	15.180275	-67.339867
16769		-2.473741	7.993300	5.358205	-0.134519	0.082755	-0.050210	0.578613	-0.461182	-0.498779	49.082520	15.232287	-67.322147
16770		-2.448798	6.691335	6.424574	-0.251585	0.143118	-0.059266	0.575439	-0.458252	-0.506836	48.951095	15.307279	-67.281002
16771		-3.008736	7.186223	6.211590	-0.236474	0.106075	-0.046812	0.578857	-0.456055	-0.505859	48.824691	15.366633	-67.251701
16772		-2.980018	7.995260	5.694189	-0.276876	0.053893	-0.036521	0.579346	-0.450439	-0.504883	48.670552	15.398305	-67.241849
16773		-2.870032	7.456742	6.124732	-0.337419	0.003638	-0.059008	0.583008	-0.454346	-0.498779	48.472933	15.424228	-67.263293
16774		-2.857815	7.080552	6.330345	-0.345318	-0.038412	-0.077888	0.578613	-0.449951	-0.499268	48.264273	15.438543	-67.310999
16775		-2.818857	6.981242	6.469022	-0.333774	-0.055745	-0.070283	0.574463	-0.451660	-0.500977	48.060513	15.446429	-67.363378
16776		-2.794975	6.922978	6.412574	-0.303245	-0.069811	-0.065801	0.580566	-0.446045	-0.498291	47.873509	15.443232	-67.420242
16777		-2.766287	6.853885	6.501451	-0.265362	-0.068848	-0.053668	0.577393	-0.441895	-0.499512	47.709150	15.438686	-67.471785
16778		-2.749316	6.780712	6.534593	-0.229707	-0.059057	-0.034643	0.575439	-0.433594	-0.511719	47.568875	15.426136	-67.511424
16779		-2.697743	6.744114	6.574956	-0.191679	-0.040683	-0.006376	0.576172	-0.437988	-0.510498	47.455063	15.412252	-67.531594
16780		-2.648576	6.797606	6.455739	-0.162033	-0.025634	0.014389	0.582031	-0.434326	-0.512207	47.362720	15.391825	-67.536830
16781		-2.645855	6.894404	6.465314	-0.150895	-0.001352	0.023404	0.574463	-0.439453	-0.508545	47.280020	15.380587	-67.527759
16782		-2.655593	6.952364	6.413708	-0.138225	0.006624	0.033860	0.573975	-0.436523	-0.510254	47.207150	15.364503	-67.511005
16783		-2.706885	7.028923	6.437164	-0.134564	0.012712	0.028807	0.581299	-0.432861	-0.514893	47.136017	15.356469	-67.493583
16784		-2.698720	7.003767	6.367212	-0.125274	0.012473	0.028803	0.579834	-0.432617	-0.505127	47.070705	15.344828	-67.476289
16785		-2.727940	6.981055	6.520201	-0.122082	0.003156	0.018215	0.575195	-0.439209	-0.509521	47.004508	15.337524	-67.467282
16786		-2.705877	6.861426	6.479273	-0.111985	0.004863	0.018452	0.582031	-0.428711	-0.516357	46.944828	15.327280	-67.457463
16787		-2.728122	6.821920	6.552278	-0.101337	-0.003509	0.017357	0.574463	-0.438721	-0.509766	46.889666	15.317727	-67.451672
16788		-2.668990	6.849023	6.496265	-0.090434	0.000139	0.017837	0.579834	-0.430664	-0.510498	46.841728	15.305909	-67.444132
16789		-2.706385	6.833117	6.546529	-0.083655	-0.000527	0.020102	0.580322	-0.434570	-0.506836	46.797330	15.296370	-67.435911
16790		-2.648643	6.822067	6.505653	-0.084832	-0.000552	0.025997	0.581787	-0.433594	-0.511230	46.753399	15.280885	-67.425333
16791		-2.689875	6.795590	6.602852	-0.078309	0.001011	0.027380	0.577637	-0.438477	-0.507080	46.713016	15.268905	-67.413464
16792		-2.662242	6.830224	6.518788	-0.073165	-0.003625	0.029113	0.574951	-0.430908	-0.507324	46.675756	15.250928	-67.402923
16793		-2.685221	6.753981	6.604921	-0.065597	0.000444	0.033179	0.580078	-0.440430	-0.507813	46.643204	15.236305	-67.388918
16794		-2.623839	6.856849	6.538562	-0.052780	0.000162	0.031937	0.576660	-0.433350	-0.510498	46.618355	15.218653	-67.375571
16795		-2.633508	6.955411	6.489091	-0.044845	0.002303	0.029857	0.575928	-0.425781	-0.517090	46.597538	15.206135	-67.362104
16796		-2.647158	6.975888	6.470715	-0.038660	0.000279	0.017804	0.583496	-0.427734	-0.508789	46.579277	15.194421	-67.354462
16797		-2.667802	6.979523	6.523183	-0.035743	-0.009640	0.004690	0.585449	-0.429932	-0.507568	46.559647	15.187656	-67.356403
16798		-2.648842	6.892948	6.507773	-0.039161	-0.012156	-0.002697	0.572021	-0.422363	-0.514893	46.537503	15.179575	-67.362483
16799		-2.652666	6.879055	6.558089	-0.037721	-0.014322	-0.007698	0.573242	-0.430420	-0.507568	46.514899	15.176092	-67.371493
16800		-2.632920	6.865178	6.534740	-0.031074	-0.015258	-0.014906	0.584229	-0.425293	-0.514893	46.495735	15.171858	-67.383891
16801		-2.633580	6.896628	6.544858	-0.020658	-0.012793	-0.019313	0.575195	-0.436279	-0.515137	46.481840	15.173777	-67.396985
16802		-2.631681	6.866914	6.514823	-0.018209	-0.006875	-0.018516	0.575439	-0.426025	-0.510498	46.470606	15.174344	-67.407248
16803		-2.637216	6.887377	6.571704	-0.019451	-0.015496	-0.026742	0.578125	-0.427979	-0.514648	46.456305	15.178254	-67.424542
16804		-2.632859	6.829584	6.510127	-0.016689	-0.020171	-0.029739	0.569092	-0.425781	-0.517090	46.443242	15.178228	-67.445117
16805		-2.655855	6.866771	6.569662	-0.020750	-0.015752	-0.030294	0.568848	-0.432373	-0.514648	46.427786	15.183481	-67.463976
16806		-2.639106	6.813904	6.561184	-0.022220	-0.024899	-0.040941	0.574219	-0.426758	-0.510986	46.409818	15.186226	-67.491170
16807		-2.655616	6.833757	6.542387	-0.027909	-0.024415	-0.042020	0.573730	-0.429199	-0.511719	46.388019	15.192888	-67.518557
16808		-2.603135	6.819063	6.522020	-0.034065	-0.025006	-0.047946	0.570313	-0.427734	-0.513672	46.362493	15.198477	-67.548670
16809		-2.659447	6.860364	6.556335	-0.038570	-0.024431	-0.054894	0.574463	-0.419189	-0.507568	46.333191	15.210424	-67.581346
16810		-2.640036	6.850620	6.510069	-0.045301	-0.026440	-0.058650	0.574219	-0.426758	-0.519043	46.299902	15.219851	-67.616473
16811		-2.644552	6.840177	6.537698	-0.050382	-0.027282	-0.063428	0.575928	-0.420654	-0.511475	46.262575	15.234146	-67.653890
16812		-2.646860	6.801572	6.533734	-0.051985	-0.019709	-0.064720	0.569092	-0.428711	-0.517090	46.225541	15.248709	-67.688639
16813		-2.671537	6.801879	6.587600	-0.050905	-0.019948	-0.063569	0.568848	-0.416748	-0.512939	46.188702	15.265902	-67.722990
16814		-2.655591	6.819455	6.573327	-0.047137	-0.016529	-0.060757	0.579834	-0.415283	-0.520996	46.155208	15.280046	-67.754772
16815		-2.677773	6.792425	6.594818	-0.041122	-0.013288	-0.062689	0.573242	-0.418213	-0.509521	46.124794	15.299462	-67.785932
16816		-2.623762	6.822029	6.535543	-0.041143	-0.010487	-0.061117	0.569092	-0.415771	-0.511475	46.095354	15.316122	-67.815296
16817		-2.679456	6.834387	6.538385	-0.045676	-0.007107	-0.066485	0.569580	-0.415771	-0.506592	46.062589	15.339507	-67.845400
16818		-2.652447	6.784300	6.583898	-0.050026	-0.009126	-0.065544	0.570313	-0.424072	-0.517578	46.027703	15.358502	-67.876033
16819		-2.687729	6.824223	6.545602	-0.055692	0.000082	-0.068917	0.577637	-0.412598	-0.512207	45.989718	15.385695	-67.904099
16820		-2.680000	6.750798	6.609662	-0.060580	-0.006144	-0.067377	0.574951	-0.417969	-0.514893	45.948890	15.406593	-67.934248
16821		-2.685060	6.778690	6.621885	-0.055443	0.000683	-0.066452	0.569336	-0.415283	-0.514648	45.911353	15.432955	-67.961081
16822		-2.668998	6.801793	6.583831	-0.052413	0.005302	-0.069342	0.577393	-0.416016	-0.520264	45.876254	15.459188	-67.987193
16823		-2.691479	6.813274	6.589919	-0.051907	0.003609	-0.066043	0.572021	-0.409912	-0.515137	45.841087	15.486496	-68.012646
16824		-2.694417	6.814002	6.569620	-0.048843	0.005465	-0.070492	0.576416	-0.414063	-0.513428	45.807890	15.513236	-68.039204
16825		-2.716391	6.791945	6.567306	-0.052612	0.004896	-0.071700	0.567871	-0.414551	-0.516846	45.771808	15.543332	-68.066491
16826		-2.705910	6.763762	6.591870	-0.056301	-0.001196	-0.076028	0.583008	-0.420410	-0.519531	45.732925	15.569649	-68.098228
16827		-2.729681	6.735510	6.613404	-0.051296	0.005205	-0.068111	0.574707	-0.412598	-0.518066	45.697998	15.598345	-68.123937
16828		-2.717884	6.747180	6.622268	-0.048578	0.006129	-0.067989	0.573486	-0.404541	-0.521240	45.665237	15.624261	-68.149256
16829		-2.720989	6.748128	6.601678	-0.045245	0.005750	-0.071579	0.567627	-0.410645	-0.507568	45.633415	15.654549	-68.176214
16830		-2.747937	6.747856	6.654462	-0.046349	0.008829	-0.071121	0.578613	-0.406494	-0.509521	45.601854	15.682802	-68.201726
16831		-2.762977	6.710348	6.572621	-0.048775	0.005724	-0.070349	0.576904	-0.407959	-0.518799	45.568107	15.712529	-68.228224
16832		-2.753342	6.789005	6.598269	-0.048766	0.005760	-0.070329	0.577393	-0.405029	-0.508789	45.534862	15.739199	-68.254751
16833		-2.744595	6.755008	6.646161	-0.055760	0.000084	-0.071055	0.576416	-0.404297	-0.516602	45.496351	15.766904	-68.283979
16834		-2.747411	6.755138	6.626586	-0.060494	-0.005703	-0.076508	0.570801	-0.396240	-0.512451	45.454326	15.791459	-68.317995
16835		-2.737963	6.647513	6.681898	-0.061397	-0.008086	-0.069781	0.575684	-0.399902	-0.509033	45.411751	15.815300	-68.350202
16836		-2.759805	6.658347	6.688660	-0.055630	0.000241	-0.061596	0.572754	-0.404053	-0.510986	45.374862	15.836116	-68.375506
16837		-2.742095	6.648748	6.642283	-0.051401	0.001872	-0.055527	0.574951	-0.399170	-0.519531	45.340752	15.858097	-68.397565
16838		-2.725549	6.672679	6.604394	-0.060891	0.016030	-0.047533	0.569336	-0.394287	-0.517334	45.304261	15.879514	-68.410324
16839		-2.692876	6.640368	6.578700	-0.064116	0.037166	-0.044458	0.579102	-0.401367	-0.520752	45.268202	15.911169	-68.412832
16840		-2.701184	6.701665	6.598996	-0.068356	0.055853	-0.044059	0.574463	-0.405029	-0.519043	45.232437	15.947221	-68.407314
16841		-2.694541	6.594729	6.651879	-0.053951	0.083046	-0.043777	0.571045	-0.391602	-0.514893	45.207615	15.997089	-68.390163
16842		-2.760016	6.667639	6.692548	-0.025606	0.098204	-0.043005	0.573486	-0.398926	-0.519287	45.201412	16.049814	-68.366315
16843		-2.750379	6.655058	6.664270	-0.001905	0.110812	-0.053093	0.579590	-0.392822	-0.514648	45.208610	16.114662	-68.341333
16844		-2.795828	6.653841	6.657303	0.023560	0.115877	-0.052546	0.579346	-0.404541	-0.508057	45.231601	16.178393	-68.313981
16845		-2.790229	6.711054	6.642585	0.045976	0.122341	-0.062301	0.570557	-0.399170	-0.507324	45.266593	16.251600	-68.287916
16846		-2.776463	6.728947	6.717187	0.080916	0.130868	-0.074164	0.583984	-0.398438	-0.506104	45.321780	16.330142	-68.263176
16847		-2.749266	6.831664	6.608687	0.133400	0.148347	-0.096507	0.579834	-0.404541	-0.509521	45.406056	16.427691	-68.240243
16848		-2.765221	6.996917	6.532965	0.187872	0.174240	-0.146825	0.577393	-0.400635	-0.506348	45.519282	16.553268	-68.227216
16849		-2.838666	7.218791	6.436355	0.238233	0.190072	-0.219492	0.586670	-0.401855	-0.505127	45.654234	16.717764	-68.237513
16850		-2.825832	7.267683	6.476366	0.287907	0.213164	-0.303765	0.586182	-0.392578	-0.504639	45.810887	16.923238	-68.272732
16851		-2.784219	6.949490	6.573403	0.374408	0.255749	-0.402546	0.587158	-0.392822	-0.495361	46.010020	17.189267	-68.330153
16852		-2.576800	6.718937	6.954350	0.482286	0.359459	-0.494518	0.592529	-0.391357	-0.501465	46.273377	17.531861	-68.379953
16853		-2.094860	6.362191	7.245465	0.679821	0.542135	-0.610589	0.593262	-0.391113	-0.496338	46.659364	17.997786	-68.396223
16854		-2.010937	6.657811	7.056672	0.899854	0.809807	-0.773690	0.603760	-0.400146	-0.480225	47.188878	18.634060	-68.357895
16855		-2.253815	7.009107	7.003908	0.972937	0.998610	-0.864220	0.611084	-0.395752	-0.471191	47.777765	19.383904	-68.265593
16856		-2.402422	7.229159	7.018944	1.041133	1.176578	-0.959603	0.612061	-0.389893	-0.463135	48.424724	20.238918	-68.122390
16857		-2.600741	7.505313	6.803675	1.040028	1.339637	-1.081523	0.626953	-0.384277	-0.447021	49.085770	21.208922	-67.942085
16858		-2.843524	7.977286	6.489998	0.988748	1.482275	-1.248195	0.639404	-0.384521	-0.437744	49.725842	22.300174	-67.748752
16859		-3.089514	7.753708	6.438793	0.962246	1.640453	-1.407637	0.651367	-0.377441	-0.427734	50.364129	23.519896	-67.528932
16860		-3.347715	7.845319	6.343083	0.952258	1.796284	-1.551516	0.658203	-0.377441	-0.416992	51.016342	24.855295	-67.273416
16861		-3.396791	7.756235	6.348677	0.967599	1.978524	-1.675551	0.675781	-0.364258	-0.392578	51.709029	26.310744	-66.956487
16862		-3.863602	7.565995	6.276637	1.009844	2.151977	-1.800343	0.681641	-0.347656	-0.367676	52.462852	27.877776	-66.576021
16863		-4.209674	7.644357	6.438970	1.055503	2.307141	-1.982781	0.698730	-0.339844	-0.349365	53.270641	29.579073	-66.156692
16864		-4.631029	7.807411	6.457893	1.104283	2.422390	-2.122825	0.711182	-0.320557	-0.321045	54.139760	31.376544	-65.694469
16865		-5.479892	8.250436	6.619914	1.128507	2.508504	-2.229599	0.731445	-0.306152	-0.305664	55.060441	33.247905	-65.184476
16866		-6.378395	8.759407	6.617787	1.131700	2.506946	-2.320817	0.738525	-0.291260	-0.270264	56.003891	35.152708	-64.663127
16867		-8.249591	9.741653	7.173776	1.162538	2.402542	-2.348081	0.737793	-0.268799	-0.258301	56.966064	37.031834	-64.163013
16868		-9.154774	10.804147	7.356985	1.150820	2.143769	-2.289096	0.753662	-0.251953	-0.231445	57.883103	38.794002	-63.746881
16869		-8.036086	10.324016	5.570800	1.128019	1.983771	-2.297332	0.756104	-0.240723	-0.214111	58.758855	40.508373	-63.389567
16870		-7.432705	10.292050	5.749450	1.016192	1.889116	-2.374917	0.766846	-0.213867	-0.195557	59.546308	42.227240	-63.082005
16871		-7.560966	9.910603	5.851744	0.946481	1.772742	-2.441475	0.766602	-0.197754	-0.185547	60.254923	43.943971	-62.840733
16872		-7.256530	9.433431	5.527188	0.856466	1.641804	-2.502207	0.770508	-0.167480	-0.163574	60.860430	45.650520	-62.680564
16873		-6.823232	8.855397	5.457586	0.734173	1.523558	-2.550175	0.770752	-0.145752	-0.154297	61.342648	47.348411	-62.597766
16874		-6.648550	8.651738	5.362111	0.573072	1.398400	-2.546732	0.762939	-0.118652	-0.131104	61.681087	49.008735	-62.586786
16875		-5.287182	8.658920	5.291560	0.318204	1.227583	-2.497439	0.768311	-0.105713	-0.122559	61.794693	50.598621	-62.678657
16876		-3.415993	8.598159	5.715640	-0.024993	1.057571	-2.417543	0.757324	-0.067871	-0.106445	61.627465	52.101188	-62.876844
16877		-3.069707	7.861046	6.001616	-0.438391	0.712324	-2.317094	0.754395	-0.043457	-0.104004	61.008495	53.457662	-63.340472
16878		-6.411277	7.338616	7.117181	-0.656690	0.199664	-2.253517	0.751465	-0.021484	-0.103760	59.892246	54.632996	-64.256884
16879		-5.555979	7.256552	7.315760	-0.515432	-0.564072	-1.781333	0.739014	0.005615	-0.104004	58.453551	55.339098	-65.654495
16880		-3.406081	6.645946	6.431493	-0.272497	-1.061515	-1.272041	0.731201	0.009521	-0.113037	56.984696	55.626101	-67.249943
16881		-2.449316	6.169028	5.083495	-0.053381	-1.434949	-0.927986	0.715820	0.025391	-0.125732	55.522699	55.606032	-68.985861
16882		-1.389138	5.189838	3.780962	0.150958	-1.599127	-0.672012	0.708740	0.028320	-0.147705	54.197952	55.389114	-70.700564
16883		-0.875103	4.983167	3.342072	0.310572	-1.638731	-0.467365	0.696045	0.038574	-0.164551	53.058560	55.041817	-72.306024
16884		-0.693270	5.290918	3.300692	0.375484	-1.598602	-0.286614	0.692139	0.037598	-0.182373	52.101422	54.611227	-73.742432
16885		-0.707144	5.876764	3.637943	0.339611	-1.514808	-0.122711	0.682861	0.035400	-0.200195	51.285303	54.121733	-74.987633
16886		-0.875617	6.313347	3.939524	0.216886	-1.435099	0.068694	0.679199	0.028320	-0.214111	50.571613	53.568481	-76.027762
16887		-1.039882	6.606314	4.218069	0.051949	-1.376209	0.293651	0.670654	0.033936	-0.226807	49.934367	52.927669	-76.862096
16888		-1.337478	6.630575	4.433754	-0.101655	-1.352943	0.541232	0.666016	0.027344	-0.237061	49.368707	52.185026	-77.503556
16889		-1.523942	6.187430	4.257855	-0.216291	-1.358878	0.756600	0.661865	0.026123	-0.246582	48.859112	51.339776	-77.996629
16890		-2.029765	5.920825	4.296286	-0.236045	-1.369478	0.958229	0.653076	0.016357	-0.265869	48.447583	50.404835	-78.355200
16891		-2.260731	5.607737	4.123222	-0.191047	-1.398423	1.146322	0.643311	0.006348	-0.276855	48.148213	49.373037	-78.605754
16892		-2.551440	5.454830	4.020918	-0.105182	-1.419363	1.298365	0.649170	-0.003906	-0.285889	47.966881	48.271734	-78.769099
16893		-2.826451	5.552353	4.000345	-0.013067	-1.422863	1.425379	0.642090	-0.021729	-0.308105	47.897401	47.110470	-78.855358
16894		-3.068694	5.744980	3.955204	0.059537	-1.415881	1.524919	0.641846	-0.027344	-0.315430	47.916367	45.913904	-78.878833
16895		-3.251212	5.816617	4.001017	0.114326	-1.380347	1.611403	0.638184	-0.036865	-0.334229	48.014858	44.689510	-78.835074
16896		-3.491094	5.864038	4.054478	0.167465	-1.325059	1.692063	0.635742	-0.055176	-0.351074	48.192495	43.456471	-78.720359
16897		-3.803912	6.170318	4.267008	0.205295	-1.263497	1.767551	0.632813	-0.078613	-0.367920	48.435293	42.209369	-78.539129
16898		-4.190704	6.637940	4.543264	0.209958	-1.204877	1.838935	0.629395	-0.092285	-0.382080	48.716818	40.958150	-78.299075
16899		-4.583221	7.064758	4.912402	0.183911	-1.174738	1.920807	0.629395	-0.108154	-0.389893	49.008437	39.676939	-78.014356
16900		-5.049548	7.581076	5.262392	0.121394	-1.162001	2.018828	0.619629	-0.130371	-0.410156	49.284982	38.362099	-77.688603
16901		-5.320461	7.885974	5.467433	0.035998	-1.161942	2.118428	0.610352	-0.149414	-0.431396	49.527198	36.997492	-77.329476
16902		-5.444835	7.929055	5.388610	-0.060553	-1.164208	2.216174	0.611084	-0.166748	-0.432129	49.725282	35.593618	-76.939447
16903		-5.499441	7.813047	5.230007	-0.128362	-1.150851	2.294041	0.608887	-0.186279	-0.453369	49.893896	34.154154	-76.519621
16904		-5.566538	7.634103	5.041865	-0.172609	-1.123276	2.345640	0.605469	-0.205322	-0.457520	50.042233	32.706714	-76.074306
16905		-5.785613	7.587970	4.982692	-0.184284	-1.077309	2.370167	0.594482	-0.231201	-0.480225	50.186756	31.258961	-75.606157
16906		-6.183170	7.605947	4.989928	-0.179337	-1.057878	2.370149	0.588623	-0.248291	-0.493408	50.323188	29.822838	-75.139199
16907		-6.444300	7.547885	4.982336	-0.162277	-1.044457	2.344637	0.578613	-0.271484	-0.505371	50.452530	28.396565	-74.686674
16908		-6.595790	7.418948	4.930082	-0.134347	-1.035832	2.298907	0.571533	-0.286377	-0.510010	50.576649	26.998171	-74.258109
16909		-6.561801	7.300725	4.849398	-0.074321	-1.031079	2.238972	0.555664	-0.304688	-0.522949	50.712546	25.622025	-73.860383
16910		-6.528256	7.164935	4.812347	-0.003530	-1.002545	2.166124	0.556641	-0.326416	-0.536133	50.870369	24.292821	-73.486044
16911		-6.587657	7.223597	4.814536	0.080404	-0.965375	2.096897	0.549316	-0.341553	-0.547607	51.061754	23.001919	-73.129287
16912		-6.732240	7.388152	4.893362	0.148625	-0.914689	2.034429	0.532959	-0.354248	-0.563965	51.281592	21.760837	-72.780556
16913		-7.168337	7.772284	5.322653	0.192566	-0.880928	1.981987	0.515869	-0.372803	-0.577148	51.515610	20.549487	-72.444058
16914		-7.550881	8.190144	5.687125	0.182257	-0.856779	1.940161	0.505615	-0.396973	-0.586426	51.732743	19.368840	-72.119429
16915		-7.831389	8.003456	5.765125	0.117348	-0.874974	1.902444	0.496338	-0.415283	-0.601318	51.897301	18.193601	-71.824157
16916		-8.104857	7.405623	5.582966	0.069653	-0.901967	1.845883	0.491455	-0.424561	-0.601807	52.016762	17.037788	-71.567534
16917		-8.255592	6.584468	5.390694	0.068832	-0.916237	1.763648	0.470215	-0.435303	-0.613770	52.119611	15.910066	-71.351836
16918		-8.367247	5.686253	5.024317	0.133918	-0.917275	1.629443	0.464844	-0.457764	-0.623047	52.241440	14.845893	-71.188890
16919		-8.519757	5.466358	4.790678	0.236093	-0.902922	1.479614	0.441895	-0.458496	-0.634521	52.406615	13.851407	-71.077000
16920		-8.600936	5.620892	4.603429	0.274105	-0.868244	1.309100	0.434814	-0.476074	-0.637939	52.580286	12.949098	-71.013435
16921		-8.694346	5.734740	4.361251	0.264337	-0.815726	1.125831	0.418945	-0.481934	-0.652344	52.738172	12.146221	-70.993575
16922		-8.751189	5.795764	3.990330	0.229177	-0.736694	0.944153	0.416260	-0.493164	-0.658936	52.869398	11.455719	-71.003202
16923		-8.621569	5.682377	3.450985	0.199052	-0.626267	0.770930	0.404297	-0.494873	-0.671143	52.981567	10.881248	-71.023875
16924		-8.449271	5.377540	2.882597	0.197547	-0.482246	0.609340	0.396240	-0.499268	-0.670410	53.094549	10.431732	-71.035175
16925		-5.395557	3.982198	2.561276	0.573684	-0.170717	0.121224	0.400391	-0.510498	-0.676514	53.418663	10.312649	-71.072885
16926		-10.247080	5.062115	-0.615454	0.110024	1.053021	-0.564270	0.402100	-0.509766	-0.669922	53.538372	10.927116	-70.775622
16927		-10.233229	3.205226	-0.304655	-0.132306	1.381820	-0.948079	0.418701	-0.501953	-0.666748	53.528096	11.830406	-70.455715
16928		-10.556048	3.348438	-0.511229	-0.376753	2.205432	-1.399442	0.438477	-0.489990	-0.656494	53.433661	13.222364	-69.904530
16929		-13.395564	17.311856	15.455005	-1.901880	3.346523	-1.764864	0.473633	-0.456299	-0.640137	52.580097	15.180715	-68.952558
16930		-40.077543	8.774981	22.417627	-4.946555	-0.090456	-1.690443	0.468262	-0.413574	-0.645020	49.567309	15.897158	-69.626085
16931		-4.681995	-5.187487	17.789596	-0.222162	-0.041845	0.548459	0.460449	-0.411133	-0.645752	49.494368	15.641723	-69.432903
16932		4.194474	0.653364	7.747710	-0.016955	-0.942362	0.100948	0.461914	-0.405029	-0.648682	49.383625	15.242265	-69.819412
16933		-2.708586	18.515340	-1.989641	-0.397353	-0.111481	-0.124318	0.467529	-0.402588	-0.656494	49.130680	15.253525	-69.917761
16934		-1.536207	7.988514	5.320627	-0.317297	0.200830	-0.030750	0.465332	-0.398682	-0.648682	48.971394	15.337826	-69.839571
16935		-2.677606	4.535297	8.211144	-0.363319	0.134901	-0.262933	0.464600	-0.392090	-0.647461	48.753413	15.500991	-69.881830
16936		-3.175491	8.084025	5.368753	-0.236563	0.069987	-0.126010	0.471436	-0.391357	-0.652588	48.614902	15.577273	-69.899955
16937		-2.685041	8.010334	5.611520	-0.380313	0.119498	-0.131126	0.469971	-0.385986	-0.657959	48.398785	15.677781	-69.898214
16938		-3.434941	7.417086	6.278466	-0.394548	0.038555	-0.143088	0.461426	-0.380371	-0.652588	48.163933	15.749257	-69.937640
16939		-3.114125	6.958192	6.514885	-0.383163	-0.028402	-0.108451	0.460693	-0.381104	-0.652100	47.930705	15.783474	-69.993156
16940		-2.891243	6.652694	6.671807	-0.329023	-0.045552	-0.066361	0.465576	-0.365234	-0.648682	47.731431	15.789717	-70.039625
16941		-2.925011	6.833916	6.558500	-0.270742	-0.028001	-0.032095	0.472412	-0.368652	-0.650391	47.570872	15.791394	-70.064572
16942		-2.747936	7.120162	6.352603	-0.240304	-0.030538	-0.029070	0.463379	-0.368164	-0.652344	47.428294	15.787437	-70.089487
16943		-2.778348	6.957781	6.386724	-0.228747	-0.036406	-0.039087	0.469482	-0.364258	-0.647217	47.290025	15.788666	-70.120927
16944		-2.744679	6.822133	6.478825	-0.211764	-0.028777	-0.031284	0.468018	-0.359863	-0.643799	47.163771	15.786211	-70.145947
16945		-2.695045	6.744730	6.556501	-0.173651	-0.008956	-0.015305	0.465088	-0.368896	-0.652588	47.062947	15.788015	-70.155766
16946		-2.708077	6.810333	6.458217	-0.147005	0.008172	0.003959	0.466553	-0.358643	-0.648438	46.982071	15.785132	-70.150376
16947		-2.711374	6.791093	6.514687	-0.129425	0.029021	0.020292	0.466797	-0.367188	-0.654541	46.915008	15.786838	-70.129200
16948		-2.766426	6.832177	6.529676	-0.117767	0.040909	0.026294	0.465332	-0.362305	-0.655029	46.857229	15.787446	-70.100485
16949		-2.728475	6.842737	6.467609	-0.113252	0.037684	0.022376	0.461670	-0.355469	-0.651367	46.800684	15.791703	-70.074696
16950		-2.748711	6.969092	6.428327	-0.117781	0.038266	0.015544	0.466553	-0.359131	-0.653564	46.741396	15.795817	-70.051512
16951		-2.767224	7.022051	6.398613	-0.128762	0.028486	0.000516	0.470459	-0.350830	-0.658203	46.672462	15.805611	-70.038633
16952		-2.770164	6.929650	6.463331	-0.138968	0.020707	-0.014274	0.461426	-0.359619	-0.657715	46.595646	15.815290	-70.035252
16953		-2.738616	6.837599	6.531159	-0.145396	0.007253	-0.017010	0.464600	-0.359619	-0.652588	46.512739	15.824026	-70.038745
16954		-2.756258	6.771431	6.551394	-0.136989	0.016677	-0.008896	0.466309	-0.359375	-0.661621	46.437176	15.829890	-70.034925
16955		-2.756892	6.807289	6.520078	-0.127106	0.024059	-0.005721	0.468262	-0.355957	-0.650391	46.367984	15.840555	-70.026550
16956		-2.743991	6.811388	6.556244	-0.109989	0.031814	0.004395	0.466797	-0.351318	-0.652100	46.311161	15.846906	-70.010758
16957		-2.762162	6.787209	6.557278	-0.100030	0.036422	0.006043	0.464844	-0.356201	-0.649170	46.260258	15.857595	-69.992233
16958		-2.762986	6.825927	6.523197	-0.091920	0.039312	0.006328	0.468994	-0.352051	-0.656494	46.214890	15.866144	-69.972429
16959		-2.750139	6.792898	6.572829	-0.083725	0.039459	0.005090	0.467285	-0.350098	-0.653076	46.173586	15.878444	-69.953001
16960		-2.718197	6.788999	6.579713	-0.077860	0.045597	0.004661	0.468506	-0.346680	-0.656982	46.136829	15.890205	-69.931196
16961		-2.738269	6.845370	6.546463	-0.066587	0.056842	-0.000998	0.466064	-0.355225	-0.644043	46.106709	15.911926	-69.906826
16962		-2.728087	6.852688	6.578127	-0.060520	0.063968	-0.015284	0.467773	-0.347412	-0.654297	46.079802	15.939242	-69.885385
16963		-2.764653	6.819312	6.545954	-0.050651	0.059852	-0.029930	0.471436	-0.350098	-0.651367	46.055906	15.974100	-69.871697
16964		-2.788788	6.831310	6.550385	-0.048932	0.058365	-0.032467	0.476318	-0.351318	-0.653809	46.033037	16.006292	-69.859785
16965		-2.776681	6.772026	6.564749	-0.038705	0.057964	-0.040797	0.474365	-0.351318	-0.644775	46.014539	16.044872	-69.851424
16966		-2.750849	6.764030	6.591847	-0.032426	0.062362	-0.047272	0.472900	-0.342529	-0.648682	45.999915	16.084766	-69.843946
16967		-2.792969	6.759405	6.589278	-0.023574	0.064489	-0.057574	0.470459	-0.356445	-0.646484	45.988941	16.132843	-69.839754
16968		-2.801627	6.795872	6.572994	-0.011281	0.066297	-0.062127	0.471436	-0.342773	-0.650391	45.985197	16.180428	-69.836756
16969		-2.774466	6.800554	6.550843	-0.006740	0.066284	-0.071488	0.470947	-0.344238	-0.650879	45.982480	16.234936	-69.837569
16970		-2.836040	6.773478	6.564888	-0.006178	0.067822	-0.073601	0.475342	-0.353516	-0.646729	45.980515	16.287855	-69.838679
16971		-2.843683	6.776481	6.540049	-0.013297	0.061539	-0.076672	0.468506	-0.349121	-0.647949	45.972865	16.342592	-69.843687
16972		-2.855792	6.722657	6.602103	-0.009225	0.054059	-0.080028	0.475098	-0.343994	-0.642334	45.966731	16.392678	-69.853386
16973		-2.862728	6.725609	6.577585	-0.011925	0.055842	-0.069261	0.479004	-0.343994	-0.648438	45.960031	16.442078	-69.857780
16974		-2.890890	6.733056	6.603089	-0.011505	0.050894	-0.069914	0.480957	-0.346680	-0.648926	45.953376	16.486736	-69.864653
16975		-2.877781	6.764546	6.537489	-0.026664	0.045009	-0.078682	0.479492	-0.342041	-0.646240	45.935780	16.535684	-69.877635
16976		-2.886792	6.799233	6.522908	-0.042332	0.046854	-0.085241	0.481934	-0.341553	-0.641846	45.909132	16.585037	-69.892647
16977		-2.858722	6.762005	6.519508	-0.046874	0.040973	-0.081310	0.473633	-0.344727	-0.643555	45.879117	16.633431	-69.908504
16978		-2.906481	6.776956	6.574064	-0.047136	0.033981	-0.072920	0.474121	-0.335693	-0.650391	45.849563	16.672567	-69.923970
16979		-2.912091	6.693288	6.607348	-0.044707	0.027929	-0.064437	0.475098	-0.340088	-0.651611	45.821169	16.708788	-69.938448
16980		-2.897816	6.718007	6.567896	-0.043732	0.017819	-0.047186	0.484619	-0.337646	-0.645508	45.794628	16.730882	-69.950161
16981		-2.921496	6.684757	6.611830	-0.037622	0.018437	-0.041337	0.480713	-0.338379	-0.640137	45.771870	16.753797	-69.959107
16982		-2.922265	6.732297	6.551032	-0.034852	0.013383	-0.037392	0.474365	-0.340332	-0.647705	45.751033	16.770088	-69.968654
16983		-2.909410	6.746524	6.558626	-0.034110	0.006148	-0.037216	0.479980	-0.340576	-0.648926	45.729252	16.786378	-69.981164
16984		-2.899502	6.748843	6.613878	-0.039613	-0.002246	-0.035972	0.475098	-0.336182	-0.648926	45.703915	16.795827	-69.996829
16985		-2.893315	6.690015	6.553151	-0.041671	-0.007705	-0.034363	0.479736	-0.340576	-0.644043	45.676425	16.805376	-70.014093
16986		-2.916786	6.690621	6.605812	-0.037411	-0.002877	-0.024436	0.479736	-0.332031	-0.641846	45.653659	16.809832	-70.025213
16987		-2.902375	6.705095	6.613856	-0.033190	-0.003880	-0.029267	0.486328	-0.337402	-0.645996	45.632112	16.818796	-70.038715
16988		-2.884657	6.731586	6.574438	-0.030498	-0.002917	-0.029160	0.483154	-0.340576	-0.647705	45.612726	16.825162	-70.051834
16989		-2.918561	6.693494	6.565360	-0.030148	-0.001863	-0.033669	0.478760	-0.337891	-0.649170	45.592632	16.836710	-70.066323
16990		-2.906399	6.702312	6.596548	-0.026274	-0.003907	-0.033987	0.478271	-0.335938	-0.644775	45.574952	16.844646	-70.081893
16991		-2.873530	6.661907	6.616743	-0.026791	-0.002103	-0.037220	0.471191	-0.334229	-0.641846	45.556314	16.857526	-70.097981
16992		-2.926944	6.679166	6.594540	-0.025082	0.002333	-0.034298	0.478027	-0.333740	-0.644531	45.540045	16.868084	-70.111022
16993		-2.915368	6.688114	6.625325	-0.023865	0.002647	-0.040080	0.477539	-0.336426	-0.644531	45.523312	16.884014	-70.126289
16994		-2.914826	6.697399	6.579500	-0.022158	0.007082	-0.037158	0.468018	-0.330566	-0.642334	45.508950	16.897641	-70.138509
16995		-2.938171	6.704441	6.607182	-0.026633	0.007755	-0.043989	0.476074	-0.334961	-0.647217	45.490777	16.917195	-70.153246
16996		-2.939386	6.707404	6.585330	-0.026857	-0.005241	-0.041124	0.471436	-0.325439	-0.644531	45.471698	16.927484	-70.172405
16997		-2.923425	6.688515	6.584720	-0.030728	-0.003177	-0.040790	0.476318	-0.338379	-0.643799	45.450202	16.941315	-70.190479
16998		-2.907283	6.669554	6.584260	-0.030954	-0.006947	-0.037816	0.480957	-0.329590	-0.646973	45.428958	16.949555	-70.208986
16999		-2.929482	6.676174	6.612823	-0.031819	-0.006192	-0.036534	0.479980	-0.332764	-0.647461	45.406975	16.960407	-70.226568
17000		-2.893972	6.686871	6.570826	-0.029732	-0.006603	-0.043587	0.479736	-0.327148	-0.639648	45.385757	16.971126	-70.247363
17001		-2.915001	6.699609	6.575450	-0.024478	-0.001959	-0.041836	0.479004	-0.330811	-0.645996	45.367848	16.985815	-70.265380
17002		-2.919389	6.690615	6.600877	-0.024512	-0.011024	-0.051226	0.471191	-0.331543	-0.647461	45.348117	16.997855	-70.291287
17003		-2.936710	6.675717	6.573547	-0.027733	-0.000929	-0.054429	0.478760	-0.336182	-0.651855	45.326911	17.018061	-70.314180
17004		-2.926115	6.683854	6.604747	-0.028675	-0.003345	-0.057071	0.472412	-0.331299	-0.654297	45.305013	17.035558	-70.339292
17005		-2.931421	6.674483	6.630097	-0.021363	-0.002438	-0.057026	0.475830	-0.333740	-0.645996	45.286930	17.056182	-70.363941
17006		-2.932815	6.637985	6.623057	-0.019845	0.004877	-0.061829	0.470947	-0.327637	-0.644043	45.270508	17.078915	-70.387575
17007		-2.956864	6.690130	6.611543	-0.014671	0.006358	-0.064002	0.476807	-0.319580	-0.647217	45.256469	17.105895	-70.411440
17008		-2.942105	6.632181	6.624751	-0.013052	0.007622	-0.064999	0.471191	-0.331055	-0.646240	45.243864	17.131015	-70.435262
17009		-2.949788	6.663012	6.633488	-0.005196	0.010068	-0.067070	0.477783	-0.325684	-0.645996	45.235311	17.160714	-70.458861
17010		-2.936484	6.645233	6.630583	-0.001824	0.018912	-0.061224	0.477539	-0.325439	-0.644287	45.231002	17.188847	-70.476297
17011		-2.940359	6.649278	6.606563	-0.000667	0.016114	-0.070911	0.475586	-0.326660	-0.648438	45.225297	17.222527	-70.498958
17012		-2.960545	6.635552	6.576637	0.001105	0.027065	-0.069396	0.476563	-0.323242	-0.643799	45.222650	17.257271	-70.516386
17013		-2.919108	6.602287	6.646395	0.013911	0.027207	-0.070682	0.475342	-0.317871	-0.649170	45.226701	17.295316	-70.534237
17014		-2.944752	6.617199	6.646663	0.028694	0.042089	-0.073415	0.471924	-0.316162	-0.643555	45.241239	17.337760	-70.546962
17015		-2.969784	6.638985	6.622005	0.043880	0.048848	-0.080761	0.476563	-0.325195	-0.660400	45.263915	17.388623	-70.559839
17016		-2.910228	6.644495	6.622938	0.062683	0.059033	-0.085340	0.475830	-0.323242	-0.637939	45.298570	17.442763	-70.570343
17017		-2.961224	6.711437	6.629309	0.092125	0.082578	-0.098605	0.471924	-0.323730	-0.648193	45.350944	17.514479	-70.576295
17018		-2.924313	6.781198	6.588831	0.132063	0.106502	-0.117694	0.479492	-0.324219	-0.638672	45.427364	17.600935	-70.580047
17019		-2.941254	6.871943	6.521073	0.169605	0.108585	-0.147836	0.487305	-0.322266	-0.633545	45.521262	17.703200	-70.595425
17020		-3.015530	6.977039	6.448824	0.218551	0.142413	-0.206079	0.483643	-0.321045	-0.643799	45.640663	17.840238	-70.620665
17021		-2.993243	7.044909	6.421042	0.253724	0.160867	-0.262692	0.479980	-0.321777	-0.635254	45.774908	18.010559	-70.661400
17022		-3.060207	6.770217	6.449881	0.301284	0.178414	-0.318199	0.485107	-0.326904	-0.637451	45.931977	18.208173	-70.717505
17023		-2.883499	6.378002	6.716484	0.389460	0.227930	-0.349760	0.483887	-0.326904	-0.636230	46.141725	18.441269	-70.764664
17024		-2.570409	6.203673	6.761105	0.539462	0.347188	-0.401998	0.485107	-0.322510	-0.641846	46.447629	18.740812	-70.780565
17025		-2.911356	6.518556	6.882243	0.638797	0.484161	-0.438509	0.489502	-0.337402	-0.627441	46.825110	19.112080	-70.749440
17026		-2.921627	6.411972	6.594539	0.717046	0.579472	-0.451073	0.502441	-0.331299	-0.624023	47.261349	19.523065	-70.678352
17027		-2.932132	6.723875	6.517601	0.805070	0.674009	-0.487362	0.505371	-0.343506	-0.618408	47.758563	19.987904	-70.575985
17028		-3.040715	7.088805	6.382332	0.824926	0.751714	-0.541894	0.512207	-0.344482	-0.619141	48.274631	20.502384	-70.455963
17029		-3.142250	7.272042	6.253802	0.812270	0.821797	-0.602162	0.506592	-0.334473	-0.611816	48.788613	21.070729	-70.322849
17030		-3.252076	7.330279	6.097897	0.788737	0.859824	-0.664045	0.520752	-0.339355	-0.606689	49.290425	21.676574	-70.191118
17031		-3.412263	7.317967	6.073100	0.770542	0.890589	-0.709435	0.526367	-0.346436	-0.595703	49.783564	22.314924	-70.056891
17032		-3.368245	7.338742	6.029762	0.757047	0.929838	-0.737715	0.532227	-0.349365	-0.593262	50.276263	22.976676	-69.908715
17033		-3.591643	7.165181	6.042105	0.765513	0.989790	-0.744653	0.541992	-0.347656	-0.574951	50.788066	23.664409	-69.727370
17034		-3.667298	7.155779	5.950094	0.783656	1.058490	-0.759225	0.551270	-0.348389	-0.581299	51.327289	24.379519	-69.510393
17035		-3.879388	7.011949	5.989335	0.775629	1.142836	-0.917588	0.566895	-0.344727	-0.562012	51.859163	25.196109	-69.305142
17036		-3.723139	7.094765	5.770709	0.812149	1.259390	-0.992246	0.572754	-0.336426	-0.560547	52.432310	26.083380	-69.060355
17037		-3.622582	7.346768	5.715093	0.872518	1.387345	-1.016949	0.575195	-0.332031	-0.539551	53.073497	27.026079	-68.747531
17038		-4.110237	7.276196	5.672493	0.920495	1.544869	-1.159714	0.595947	-0.331787	-0.535156	53.766923	28.082751	-68.392762
17039		-4.044185	7.542764	5.621930	0.965758	1.712261	-1.322800	0.608887	-0.337891	-0.522217	54.513533	29.269385	-67.993020
17040		-4.209006	7.786493	5.664576	1.008549	1.879093	-1.449479	0.612793	-0.328369	-0.488770	55.325409	30.563391	-67.527658
17041		-4.496740	8.154325	5.835815	1.028623	2.043917	-1.610767	0.630127	-0.320557	-0.477051	56.188497	31.982859	-67.003250
17042		-4.940783	8.415492	5.818021	1.010056	2.190619	-1.816867	0.642822	-0.315430	-0.458740	57.074902	33.538212	-66.438260
17043		-5.541479	8.917481	6.078846	0.984844	2.283875	-2.030852	0.666016	-0.300293	-0.444824	57.968002	35.219929	-65.858664
17044		-6.339224	9.384137	6.162977	0.925691	2.311240	-2.218550	0.678955	-0.287109	-0.423096	58.836765	36.992099	-65.287784
17045		-7.742815	9.977738	6.304776	0.896235	2.306968	-2.330130	0.692871	-0.267578	-0.407227	59.704622	38.812422	-64.713523
