// General information: 
//  MT Manager version: 2022.2.0 
//  XDA version: 2022.2.0 build 7381 rev 124627 built on 2023-07-19
// Device information: 
//  DeviceId: 00B4BCF6
//  ProductCode: MTW2-3A7G6
//  Firmware Version: 4.6.0
//  Hardware Version: 2.0.0
// Device settings: 
//  Filter Profile: human(46.1)
//  Option Flags: Orientation Smoother Disabled, Position/Velocity Smoother Disabled, Continuous Zero Rotation Update Disabled, AHS Disabled, ICC Disabled
// Coordinate system: ENU
PacketCounter	SampleTimeFine	Acc_X	Acc_Y	Acc_Z	Gyr_X	Gyr_Y	Gyr_Z	Mag_X	Mag_Y	Mag_Z	Roll	Pitch	Yaw
12583		-5.417786	-0.018977	8.191900	-0.003831	0.005070	-0.009826	0.072510	-0.072510	-0.764893	0.057711	33.649209	129.561388
12584		-5.454690	-0.006666	8.221219	-0.008699	0.005049	-0.007495	0.080322	-0.078369	-0.765381	0.050931	33.648382	129.557181
12585		-5.455520	-0.059293	8.203291	-0.005440	0.003118	-0.007455	0.073730	-0.077148	-0.758057	0.046558	33.646472	129.553153
12586		-5.414862	-0.051012	8.209176	-0.004890	0.001824	-0.006652	0.079102	-0.088379	-0.761719	0.042271	33.643959	129.549407
12587		-5.459877	-0.031514	8.185050	-0.003393	0.005262	-0.005707	0.076904	-0.076416	-0.751709	0.039739	33.643276	129.546584
12588		-5.410134	-0.000439	8.192213	-0.002748	0.006472	-0.004019	0.078857	-0.076416	-0.767090	0.037888	33.643478	129.543952
12589		-5.434317	-0.046023	8.223166	-0.003600	0.004243	-0.003276	0.076416	-0.076172	-0.754395	0.036164	33.642210	129.542802
12590		-5.439068	-0.068910	8.187278	-0.004150	0.005538	-0.004080	0.076904	-0.073975	-0.756836	0.033232	33.641844	129.540945
12591		-5.430097	-0.046559	8.188476	0.003657	0.004096	-0.000622	0.073242	-0.074951	-0.755615	0.036678	33.640492	129.541621
12592		-5.465704	-0.003892	8.165833	-0.003259	0.001930	-0.000041	0.078125	-0.081299	-0.758057	0.035750	33.637976	129.542679
12593		-5.417242	-0.053623	8.207589	-0.001743	0.001379	-0.003296	0.069580	-0.080078	-0.759766	0.035082	33.635067	129.541514
12594		-5.434572	-0.017754	8.170168	-0.001212	0.004074	0.001708	0.066895	-0.082275	-0.755127	0.036232	33.633725	129.543200
12595		-5.421713	-0.024585	8.189286	-0.001004	0.005093	-0.000724	0.071777	-0.074463	-0.762207	0.036969	33.632944	129.543806
12596		-5.449543	-0.040627	8.202474	-0.001194	0.000085	-0.002492	0.078125	-0.077393	-0.760254	0.036449	33.629149	129.542994
12597		-5.413074	-0.053954	8.172863	0.001402	0.000934	0.000061	0.077881	-0.081055	-0.751953	0.038862	33.625985	129.544138
12598		-5.472254	-0.056318	8.181566	-0.002274	0.000826	0.004883	0.065674	-0.074219	-0.757813	0.040557	33.622953	129.547957
12599		-5.430244	-0.017589	8.135548	0.004661	-0.000996	0.000102	0.077881	-0.083496	-0.758057	0.044852	33.618682	129.549129
12600		-5.462802	-0.033333	8.183090	-0.000208	-0.001019	0.002432	0.076416	-0.081787	-0.756104	0.046785	33.614353	129.551556
12601		-5.431118	-0.046662	8.187798	0.000454	-0.003798	-0.000080	0.079102	-0.087646	-0.748047	0.048599	33.608477	129.552600
12602		-5.426511	-0.024189	8.223594	0.001099	-0.002589	0.001608	0.066650	-0.078369	-0.756836	0.051211	33.603504	129.553435
12603		-5.435596	-0.046362	8.222319	0.003600	-0.004244	0.003277	0.077881	-0.079590	-0.759766	0.056105	33.597372	129.556787
12604		-5.415822	-0.023178	8.155709	0.001440	-0.004902	0.004843	0.078613	-0.076660	-0.760986	0.059889	33.590839	129.560874
12605		-5.407309	-0.029646	8.209431	0.005211	-0.002291	0.000905	0.071533	-0.076904	-0.761719	0.064803	33.585826	129.562595
12606		-5.407220	-0.029162	8.209491	0.001631	0.000106	0.006612	0.071289	-0.077881	-0.750977	0.069258	33.582264	129.568165
12607		-5.407262	-0.028603	8.209466	0.007466	0.000871	0.000222	0.072510	-0.081299	-0.760254	0.075205	33.579063	129.569417
12608		-5.398039	-0.005636	8.210827	0.000532	0.002695	0.005004	0.066895	-0.076416	-0.762451	0.078565	33.576884	129.573486
12609		-5.417105	-0.050152	8.207701	0.005497	0.005221	0.003557	0.080078	-0.075684	-0.764404	0.084654	33.576173	129.577036
12610		-5.411984	0.002308	8.190990	0.005289	0.004203	0.005989	0.080078	-0.072266	-0.760254	0.090927	33.574889	129.582391
12611		-5.390297	-0.032842	8.193837	0.006900	0.006155	0.003617	0.067383	-0.080078	-0.763672	0.097843	33.574712	129.585982
12612		-5.458806	-0.005473	8.218488	0.004948	0.006516	0.002752	0.073486	-0.083740	-0.760742	0.102701	33.574771	129.589056
12613		-5.432081	-0.040903	8.187190	0.001498	0.003438	0.000944	0.073486	-0.078369	-0.765869	0.105503	33.573039	129.590805
12614		-5.408508	0.004626	8.155807	0.005951	0.001423	0.003477	0.082275	-0.078613	-0.751221	0.111400	33.570165	129.593867
12615		-5.426882	0.011835	8.170512	0.004757	0.001507	0.000985	0.068359	-0.072754	-0.758057	0.116083	33.567327	129.595642
12616		-5.359788	0.007597	8.215158	-0.000453	0.003799	0.000079	0.066650	-0.078613	-0.748779	0.116833	33.565922	129.596670
12617		-5.419898	-0.046466	8.205879	0.000496	0.008531	0.000218	0.074219	-0.075195	-0.758301	0.118789	33.567110	129.597927
12618		-5.438801	-0.039716	8.220234	0.001045	0.007237	0.001022	0.065430	-0.081299	-0.760254	0.120828	33.567484	129.599586
12619		-5.474672	0.003143	8.197355	0.001594	0.005943	0.001826	0.065918	-0.081787	-0.756348	0.124022	33.567186	129.601945
12620		-5.421511	-0.045923	8.204817	0.002901	0.004372	0.001004	0.074463	-0.076172	-0.757080	0.127295	33.565719	129.603359
12621		-5.443833	-0.009806	8.201527	0.001403	0.000934	0.000060	0.067871	-0.077637	-0.762451	0.129703	33.562553	129.604496
12622		-5.471596	-0.025573	8.214767	0.000854	0.002228	-0.000744	0.077637	-0.073486	-0.753174	0.130921	33.560074	129.605116
12623		-5.438890	-0.009186	8.167309	0.005437	-0.003117	0.007458	0.070557	-0.085449	-0.758301	0.138448	33.554577	129.611333
12624		-5.402906	0.000153	8.207628	-0.001403	-0.000934	-0.000060	0.073975	-0.081787	-0.756836	0.138746	33.550420	129.611903
12625		-5.421072	0.006794	8.222467	0.000549	-0.001294	0.000805	0.074219	-0.075439	-0.752197	0.140945	33.545976	129.613547
12626		-5.416503	-0.044541	8.170648	0.003355	0.000574	0.000925	0.073975	-0.078369	-0.750000	0.144315	33.542687	129.614862
12627		-5.402794	0.000611	8.207701	0.001952	-0.000360	0.000865	0.069092	-0.080566	-0.760986	0.147341	33.538778	129.616548
12628		-5.397652	0.000803	8.173614	-0.000854	-0.002228	0.000744	0.068115	-0.074707	-0.753174	0.148262	33.533782	129.617755
12629		-5.415776	0.007503	8.188481	-0.000209	-0.001018	0.002432	0.078125	-0.079590	-0.761230	0.150643	33.529494	129.620516
12630		-5.433903	0.014087	8.203346	-0.002048	-0.002144	-0.001748	0.066406	-0.079102	-0.756836	0.149827	33.524610	129.620283
12631		-5.420920	-0.044470	8.205215	-0.002466	-0.004180	0.003116	0.066162	-0.087402	-0.757324	0.151171	33.518509	129.623508
12632		-5.419986	0.007265	8.223182	0.001551	-0.006387	0.001530	0.073242	-0.082520	-0.759521	0.153927	33.510927	129.625025
12633		-5.445993	0.020749	8.184722	-0.002902	-0.004372	-0.001003	0.068359	-0.072754	-0.750244	0.153458	33.504722	129.625419
12634		-5.450621	0.020409	8.219146	-0.003110	-0.005390	0.001428	0.068115	-0.078125	-0.767334	0.153270	33.497906	129.627303
12635		-5.385992	0.022681	8.176570	-0.003755	-0.006600	-0.000259	0.058594	-0.086426	-0.760010	0.152591	33.490424	129.628204
12636		-5.418160	0.006370	8.224386	-0.004304	-0.005306	-0.001064	0.071045	-0.075684	-0.759521	0.150947	33.483345	129.628346
12637		-5.376998	0.014853	8.230623	-0.008112	-0.002080	-0.001910	0.066895	-0.082764	-0.752441	0.147152	33.478454	129.628122
12638		-5.440396	-0.010555	8.203807	-0.003146	0.000445	-0.003356	0.067871	-0.071777	-0.760254	0.145207	33.474934	129.626620
12639		-5.408842	-0.024209	8.208439	-0.000854	-0.002228	0.000744	0.063965	-0.080322	-0.763428	0.146576	33.469954	129.628218
12640		-5.417726	0.004814	8.224673	-0.004774	0.002483	0.003213	0.073730	-0.078369	-0.752686	0.146041	33.467457	129.631861
12641		-5.409032	-0.024461	8.208313	-0.002064	0.001847	0.002450	0.073242	-0.076660	-0.760986	0.147365	33.464810	129.634639
12642		-5.418002	0.004694	8.224491	-0.001515	0.000552	0.003254	0.071289	-0.075928	-0.762939	0.148780	33.461527	129.637728
12643		-5.418009	0.004686	8.224486	-0.002918	-0.000381	0.003194	0.071289	-0.077637	-0.758301	0.149894	33.457602	129.641012
12644		-5.435393	-0.010867	8.169634	-0.000513	-0.004541	0.003979	0.061279	-0.078369	-0.759277	0.152113	33.451301	129.644857
12645		-5.412503	0.004907	8.190647	-0.004529	-0.002333	0.005565	0.057129	-0.075195	-0.754150	0.153199	33.446254	129.649764
12646		-5.389731	0.020486	8.211579	-0.003563	-0.001591	0.001506	0.068604	-0.085938	-0.755615	0.152789	33.441199	129.652164
12647		-5.452841	-0.004472	8.184957	-0.001046	-0.007236	-0.001024	0.069092	-0.078125	-0.768066	0.153371	33.433352	129.652539
12648		-5.416984	-0.047358	8.207798	-0.006027	-0.005770	0.004620	0.067871	-0.079834	-0.764404	0.152892	33.426270	129.656323
12649		-5.402759	-0.002605	8.245183	-0.001158	-0.005750	0.002290	0.070801	-0.083252	-0.757324	0.154664	33.419269	129.658975
12650		-5.397287	-0.002559	8.211323	-0.003110	-0.005389	0.001426	0.068115	-0.075439	-0.754639	0.154629	33.412442	129.660570
12651		-5.447063	-0.034080	8.204150	0.000794	-0.006111	0.003154	0.070068	-0.085449	-0.767334	0.157845	33.405233	129.663813
12652		-5.405547	-0.024885	8.210607	0.000052	-0.009825	0.000582	0.064209	-0.083496	-0.758057	0.159250	33.395863	129.664951
12653		-5.454326	-0.004719	8.221462	-0.001009	-0.013070	0.003756	0.067139	-0.083740	-0.754639	0.161652	33.384666	129.668592
12654		-5.434963	-0.011326	8.207406	-0.001654	-0.014279	0.002067	0.069580	-0.080811	-0.760742	0.162789	33.372639	129.670351
12655		-5.424362	0.010972	8.209663	0.000179	-0.015299	-0.006934	0.068848	-0.083984	-0.756592	0.161833	33.360182	129.666654
12656		-5.422880	0.010502	8.210642	-0.006602	-0.020792	-0.000687	0.070068	-0.080322	-0.753174	0.159015	33.344572	129.666610
12657		-5.412280	-0.019157	8.195538	-0.002379	-0.021980	-0.004708	0.065186	-0.083984	-0.753662	0.157429	33.328283	129.664428
12658		-5.310368	-0.008107	8.193969	-0.002680	-0.025501	-0.003164	0.068848	-0.082031	-0.762451	0.155937	33.309952	129.662588
12659		-5.345024	0.004878	8.224773	-0.001635	-0.018266	-0.002138	0.070068	-0.078125	-0.762451	0.155751	33.295788	129.662177
12660		-5.326775	-0.031449	8.262737	-0.000934	-0.008719	-0.004344	0.072021	-0.077393	-0.759277	0.154703	33.287126	129.659999
12661		-5.388880	-0.005013	8.254260	-0.006103	-0.012261	-0.000466	0.067139	-0.075439	-0.753174	0.152592	33.276400	129.660745
12662		-5.414556	0.008391	8.216136	0.004374	-0.008507	-0.002560	0.071289	-0.081055	-0.760742	0.155140	33.267890	129.659992
12663		-5.400438	0.001481	8.236036	-0.002432	-0.012155	-0.005291	0.070801	-0.083984	-0.753906	0.153318	33.257231	129.657432
12664		-5.394517	0.001035	8.202505	-0.005140	-0.011518	-0.004525	0.074463	-0.082764	-0.763672	0.149911	33.247060	129.654644
12665		-5.379642	0.045066	8.240259	-0.005676	-0.014211	-0.009531	0.065918	-0.084717	-0.762207	0.144639	33.235229	129.649178
12666		-5.355262	0.037358	8.192057	-0.010432	-0.015715	-0.010514	0.075195	-0.079102	-0.763672	0.135978	33.222617	129.642340
12667		-5.336777	-0.000009	8.230129	-0.008478	-0.016075	-0.009654	0.072266	-0.080566	-0.756348	0.129057	33.209717	129.636793
12668		-5.276461	0.001101	8.222012	-0.012492	-0.013869	-0.008062	0.055664	-0.082520	-0.753906	0.119995	33.198310	129.631871
12669		-5.262503	-0.007043	8.241770	-0.008995	-0.002457	-0.010142	0.068359	-0.076172	-0.763184	0.112610	33.193213	129.626013
12670		-5.277483	-0.082322	8.256647	-0.006866	0.006173	-0.003302	0.070557	-0.077148	-0.751465	0.108596	33.192843	129.624708
12671		-5.355597	-0.078812	8.279876	-0.006581	0.013681	-0.000641	0.071289	-0.074707	-0.765381	0.106168	33.196981	129.625378
12672		-5.401449	-0.058665	8.255369	0.002427	0.012152	0.005298	0.073975	-0.077148	-0.753906	0.110550	33.200366	129.630069
12673		-5.401619	-0.028587	8.202541	0.004570	0.016796	0.007933	0.065186	-0.073730	-0.758789	0.117728	33.206278	129.636614
12674		-5.407204	0.023633	8.253689	0.004381	0.011791	0.006159	0.073486	-0.086182	-0.760742	0.123548	33.209404	129.641929
12675		-5.425651	0.008547	8.198242	0.000836	0.006214	0.003462	0.068115	-0.071289	-0.761475	0.126903	33.209259	129.645398
12676		-5.416735	0.031226	8.199393	0.000191	0.005006	0.001773	0.069336	-0.076172	-0.753174	0.128781	33.208529	129.647450
12677		-5.390154	0.017483	8.238086	-0.002789	-0.005853	-0.004324	0.074463	-0.082275	-0.760254	0.127128	33.201480	129.645569
12678		-5.399230	-0.005583	8.236827	-0.005953	-0.001420	-0.003474	0.073730	-0.082764	-0.756592	0.123553	33.197131	129.643808
12679		-5.389559	0.016089	8.238479	-0.008851	-0.005789	-0.004482	0.062988	-0.076904	-0.758301	0.118368	33.190119	129.641820
12680		-5.326210	-0.011648	8.247701	-0.005842	-0.002903	-0.006792	0.072021	-0.073486	-0.756104	0.113646	33.184790	129.637840
12681		-5.326153	-0.012599	8.247737	-0.009006	0.001531	-0.005941	0.069336	-0.084717	-0.757568	0.107833	33.181973	129.634865
12682		-5.331363	-0.013735	8.281733	-0.007510	0.004967	-0.004994	0.065186	-0.083252	-0.762939	0.102808	33.181241	129.632113
12683		-5.354600	-0.030186	8.260554	-0.004611	0.009336	-0.003986	0.064697	-0.080811	-0.757080	0.100251	33.182893	129.630486
12684		-5.378142	-0.046415	8.239169	-0.002359	0.012497	-0.004667	0.065918	-0.083008	-0.754395	0.098424	33.186243	129.627900
12685		-5.387924	-0.017909	8.254866	-0.007319	0.009972	-0.003221	0.057861	-0.075439	-0.756348	0.094602	33.188259	129.626797
12686		-5.383788	-0.018262	8.220161	-0.001257	0.009909	-0.003063	0.071533	-0.083740	-0.754639	0.093921	33.190022	129.625568
12687		-5.361942	-0.002729	8.240453	0.001452	0.009273	-0.003828	0.063477	-0.073242	-0.761475	0.094897	33.191638	129.624049
12688		-5.379933	0.032962	8.202716	-0.005160	0.010632	-0.004791	0.059814	-0.076904	-0.755859	0.091279	33.194023	129.621635
12689		-5.341002	0.011788	8.260168	-0.005599	0.010444	-0.008911	0.067871	-0.082764	-0.759033	0.086310	33.196314	129.616636
12690		-5.359542	-0.004661	8.204612	-0.007112	0.010993	-0.005656	0.072510	-0.084229	-0.758301	0.081319	33.198766	129.613571
12691		-5.374957	-0.028081	8.236591	-0.004214	0.015364	-0.004646	0.070313	-0.082031	-0.758301	0.078744	33.203872	129.611496
12692		-5.344672	-0.042147	8.240317	-0.004858	0.014156	-0.006337	0.074219	-0.077148	-0.763184	0.074902	33.208419	129.607416
12693		-5.377500	-0.029240	8.234927	-0.000008	0.018166	-0.004464	0.070557	-0.074219	-0.762207	0.074806	33.215130	129.605469
12694		-5.378861	-0.029439	8.234037	-0.001066	0.014917	-0.001292	0.071289	-0.079346	-0.768066	0.074709	33.220121	129.605761
12695		-5.370848	-0.007416	8.234648	-0.004554	0.017681	-0.007885	0.068604	-0.077148	-0.765625	0.070724	33.226557	129.601469
12696		-5.394447	0.027796	8.230651	-0.003359	0.017595	-0.005393	0.062256	-0.075439	-0.760498	0.067869	33.232968	129.598858
12697		-5.401341	-0.024578	8.246076	-0.002600	0.017321	-0.007022	0.064453	-0.076172	-0.756348	0.065325	33.239197	129.595156
12698		-5.375113	-0.009340	8.231863	-0.003243	0.016114	-0.008713	0.072021	-0.070068	-0.752686	0.061249	33.244532	129.590483
12699		-5.308079	0.014966	8.223685	-0.002391	0.018344	-0.009456	0.072021	-0.077881	-0.761963	0.057910	33.251348	129.585112
12700		-5.373671	0.011339	8.265642	-0.007901	0.017111	-0.008819	0.069336	-0.078613	-0.758301	0.051041	33.257581	129.580275
12701		-5.366918	-0.070340	8.230398	-0.001783	0.025395	-0.012548	0.068115	-0.073486	-0.751221	0.046888	33.268438	129.572787
12702		-5.346299	-0.055396	8.249991	-0.002843	0.022145	-0.009378	0.063477	-0.079590	-0.759033	0.042815	33.277426	129.567357
12703		-5.383743	-0.013503	8.226215	-0.005363	0.027788	-0.006847	0.071289	-0.074707	-0.758057	0.038752	33.289651	129.563775
12704		-5.363662	-0.049865	8.227926	0.000945	0.022908	-0.004330	0.069336	-0.077637	-0.759033	0.038780	33.298996	129.561836
12705		-5.387872	-0.013913	8.223511	0.002114	0.026807	0.002367	0.077881	-0.067383	-0.755127	0.042466	33.310655	129.564569
12706		-5.398412	-0.058382	8.150849	-0.000781	0.022435	0.001353	0.071045	-0.075195	-0.755127	0.043453	33.319958	129.566807
12707		-5.423445	-0.051861	8.198670	0.001625	0.018275	0.002139	0.073242	-0.080566	-0.760498	0.046772	33.326729	129.569380
12708		-5.424744	-0.051422	8.197813	0.003060	0.013367	0.006985	0.057861	-0.083496	-0.760498	0.052297	33.330765	129.574959
12709		-5.412212	-0.005789	8.234312	0.008479	0.012098	0.005466	0.063477	-0.075195	-0.760986	0.060796	33.333994	129.579811
12710		-5.398723	0.017555	8.201063	-0.001904	0.010838	0.008420	0.078369	-0.074951	-0.759521	0.064090	33.336123	129.586672
12711		-5.404585	0.017609	8.234708	-0.000478	0.007786	0.004281	0.072754	-0.072021	-0.758789	0.067009	33.336882	129.590710
12712		-5.446108	0.008632	8.228100	-0.001026	0.009082	0.003476	0.058838	-0.072754	-0.763428	0.068678	33.338590	129.594312
12713		-5.374816	-0.047155	8.220660	-0.001120	0.006578	0.002591	0.062744	-0.085693	-0.753418	0.070592	33.338657	129.597189
12714		-5.402664	-0.011340	8.251308	-0.000478	0.007787	0.004281	0.070557	-0.080811	-0.762939	0.073152	33.339054	129.601154
12715		-5.442823	0.009143	8.192746	-0.001119	0.006578	0.002591	0.073975	-0.080322	-0.758789	0.075067	33.339120	129.604031
12716		-5.426172	-0.026872	8.229750	-0.000666	0.002778	0.002511	0.071533	-0.082520	-0.762939	0.076864	33.337087	129.606348
12717		-5.402738	0.018368	8.198417	0.000401	0.006031	-0.000663	0.071777	-0.087158	-0.762207	0.078423	33.336843	129.606994
12718		-5.417682	-0.004236	8.230715	-0.002091	0.005831	0.006649	0.070068	-0.080322	-0.763672	0.081127	33.336525	129.611774
12719		-5.390343	0.011871	8.217289	0.003564	0.001595	-0.001500	0.065430	-0.077393	-0.756836	0.084180	33.333739	129.611841
12720		-5.381633	-0.017232	8.200850	-0.003163	0.004435	0.000837	0.069092	-0.078857	-0.761719	0.083856	33.332486	129.613343
12721		-5.368262	0.027373	8.237920	-0.001949	0.000361	-0.000869	0.065674	-0.077881	-0.755859	0.083987	33.328993	129.613841
12722		-5.372687	0.004735	8.202117	-0.004352	0.004523	-0.001659	0.062012	-0.081055	-0.766602	0.082031	33.327785	129.613650
12723		-5.382503	-0.018187	8.200277	-0.004257	0.007027	-0.000774	0.064941	-0.080322	-0.750000	0.080879	33.328112	129.614220
12724		-5.361761	-0.032222	8.272885	-0.001000	0.005096	-0.000726	0.066162	-0.076172	-0.755859	0.081301	33.327090	129.614520
12725		-5.383665	-0.018566	8.199513	-0.000599	0.011127	-0.001390	0.073975	-0.076660	-0.753418	0.082016	33.329765	129.614671
12726		-5.412195	-0.034530	8.212146	-0.001572	0.010379	0.002668	0.072021	-0.077148	-0.761719	0.083221	33.332032	129.617458
12727		-5.440193	0.001242	8.242690	0.001043	0.007240	0.001027	0.059814	-0.077881	-0.769775	0.085786	33.332478	129.619263
12728		-5.444984	-0.021073	8.206627	-0.003068	0.006940	0.001720	0.067139	-0.071533	-0.759277	0.085781	33.332578	129.621721
12729		-5.399475	-0.011842	8.178380	-0.001213	0.004075	0.001705	0.065430	-0.080322	-0.763672	0.087306	33.331210	129.623988
12730		-5.395448	0.010473	8.213940	-0.000760	0.000274	0.001626	0.068848	-0.078857	-0.750732	0.088543	33.327525	129.626398
12731		-5.391706	-0.018831	8.231747	-0.002068	0.001844	0.002447	0.069824	-0.077148	-0.761230	0.089856	33.324878	129.629171
12732		-5.399907	-0.011842	8.178095	0.000855	0.002231	-0.000742	0.064697	-0.072510	-0.761963	0.091229	33.322455	129.629481
12733		-5.373451	0.026067	8.234540	-0.002401	0.004162	-0.000791	0.068604	-0.082520	-0.759277	0.091133	33.321139	129.630036
12734		-5.381774	0.032749	8.180807	-0.003043	0.002954	-0.002481	0.068115	-0.086670	-0.763916	0.089587	33.319017	129.629422
12735		-5.373996	0.025139	8.234187	-0.005420	0.003129	-0.007473	0.065186	-0.080566	-0.760742	0.085244	33.317115	129.625394
12736		-5.433872	-0.029796	8.224658	-0.006086	0.005908	-0.004963	0.066406	-0.079346	-0.756348	0.081259	33.316685	129.622492
12737		-5.402755	-0.043875	8.229077	-0.004231	0.003042	-0.004978	0.064941	-0.078857	-0.763428	0.078537	33.314730	129.620176
12738		-5.429300	-0.030844	8.190134	-0.004444	0.002019	-0.002546	0.065186	-0.081055	-0.759277	0.076235	33.312046	129.619352
12739		-5.366203	-0.006408	8.217138	-0.000880	0.003615	-0.004044	0.075439	-0.073730	-0.759766	0.075785	33.310419	129.617677
12740		-5.353381	-0.013560	8.236315	-0.005111	0.004797	-0.000036	0.064209	-0.079590	-0.760010	0.073972	33.309504	129.618600
12741		-5.363063	-0.036421	8.234542	-0.000880	0.003615	-0.004044	0.066650	-0.083252	-0.756104	0.073523	33.307877	129.616925
12742		-5.381960	-0.030090	8.248899	-0.002760	0.010468	0.000171	0.067871	-0.081543	-0.751709	0.073316	33.310031	129.617678
12743		-5.396041	-0.023418	8.228894	0.001566	0.011791	-0.002953	0.062500	-0.081543	-0.754150	0.074682	33.313088	129.616758
12744		-5.402155	-0.023695	8.262407	-0.001358	0.011403	0.000235	0.063232	-0.078369	-0.759766	0.075328	33.315786	129.617412
12745		-5.383512	-0.000746	8.195017	0.001446	0.013273	0.000363	0.072510	-0.077637	-0.758789	0.077875	33.319690	129.618767
12746		-5.399106	-0.023441	8.226884	0.000259	0.013361	-0.002134	0.070801	-0.079590	-0.755371	0.078380	33.323589	129.618279
12747		-5.400151	-0.023491	8.226198	0.000806	0.012065	-0.001328	0.063721	-0.078857	-0.766113	0.079924	33.326802	129.618474
12748		-5.401132	-0.023509	8.225554	0.001568	0.011792	-0.002955	0.066650	-0.075684	-0.762939	0.080912	33.329772	129.617359
12749		-5.433556	-0.010208	8.220239	-0.000595	0.011131	-0.001394	0.069092	-0.076416	-0.758545	0.081627	33.332449	129.617508
12750		-5.406647	0.005723	8.206578	0.001044	0.007241	0.001025	0.068359	-0.081299	-0.751709	0.083685	33.332830	129.619434
12751		-5.388965	-0.000742	8.191432	0.004185	0.008653	-0.004594	0.077881	-0.089600	-0.764160	0.085931	33.334089	129.617386
12752		-5.394953	-0.001117	8.225041	-0.004706	0.010831	-0.000706	0.068604	-0.070801	-0.757324	0.084417	33.336734	129.616927
12753		-5.364365	-0.014780	8.229163	0.000168	0.010858	-0.003021	0.068359	-0.078125	-0.758057	0.084956	33.339257	129.615959
12754		-5.420748	-0.046679	8.254781	0.000902	0.014572	-0.000448	0.063965	-0.079590	-0.751465	0.086329	33.343865	129.616968
12755		-5.438875	-0.010562	8.216720	0.002427	0.014026	-0.003700	0.067627	-0.077881	-0.753906	0.087908	33.348203	129.615539
12756		-5.393943	-0.001208	8.188155	0.000047	0.012341	0.000293	0.071045	-0.081787	-0.759033	0.089269	33.351445	129.616547
12757		-5.385345	0.021283	8.189237	0.001929	0.005487	-0.003917	0.072266	-0.085693	-0.751709	0.090476	33.350891	129.614959
12758		-5.372719	0.014279	8.208332	0.000198	0.006872	-0.007222	0.061768	-0.075684	-0.755371	0.089258	33.351217	129.610203
12759		-5.405088	-0.024295	8.185391	-0.001327	0.007419	-0.003972	0.066650	-0.084473	-0.749268	0.088580	33.351769	129.608580
12760		-5.416061	-0.025032	8.253294	-0.003708	0.005733	0.000021	0.075928	-0.081299	-0.760254	0.087738	33.351164	129.609320
12761		-5.388873	-0.009255	8.239842	0.000405	0.006034	-0.000667	0.069580	-0.083496	-0.757813	0.089298	33.350920	129.609962
12762		-5.411926	-0.024948	8.218452	0.000499	0.008540	0.000216	0.070801	-0.078613	-0.758057	0.090982	33.352224	129.610543
12763		-5.421568	0.004060	8.234311	-0.001543	0.006396	-0.001540	0.060547	-0.080566	-0.766113	0.091097	33.352188	129.610587
12764		-5.416803	0.004094	8.199879	-0.000234	0.004826	-0.002358	0.067383	-0.074951	-0.756104	0.091278	33.351085	129.609982
12765		-5.407845	0.026526	8.201207	-0.001214	0.004076	0.001700	0.069580	-0.076172	-0.755615	0.092802	33.349717	129.612246
12766		-5.413757	-0.025451	8.217244	-0.002944	0.005461	-0.001605	0.064697	-0.077393	-0.760254	0.091576	33.349109	129.612333
12767		-5.391630	-0.009998	8.238037	-0.000328	0.002320	-0.003240	0.071289	-0.078125	-0.759766	0.091743	33.346740	129.611206
12768		-5.436384	0.009761	8.213763	-0.006605	0.001357	-0.000994	0.067139	-0.078857	-0.752197	0.088723	33.343748	129.611597
12769		-5.395904	-0.033152	8.202216	-0.003349	-0.000574	-0.000938	0.068604	-0.077637	-0.753906	0.088025	33.339719	129.612046
12770		-5.382522	0.011442	8.239469	-0.000545	0.001297	-0.000808	0.072510	-0.071533	-0.761230	0.088600	33.336717	129.612318
12771		-5.386680	-0.010997	8.203724	-0.001947	0.000361	-0.000873	0.072510	-0.083496	-0.757568	0.088731	33.333223	129.612813
12772		-5.377247	0.011219	8.205371	-0.003443	-0.003079	-0.001821	0.069336	-0.073242	-0.755859	0.087194	33.327872	129.612503
12773		-5.382709	-0.041048	8.221691	-0.003677	0.001747	-0.004179	0.074463	-0.078857	-0.761475	0.085089	33.325175	129.610732
12774		-5.417867	0.001431	8.199177	0.000234	-0.004826	0.002357	0.062744	-0.077881	-0.754150	0.087182	33.318799	129.613430
12775		-5.382422	-0.041244	8.221878	-0.003473	0.000908	0.002377	0.065674	-0.085449	-0.757568	0.087662	33.315616	129.616154
12776		-5.419105	-0.028147	8.251286	0.001308	-0.001570	-0.000818	0.071045	-0.073730	-0.747803	0.089435	33.310827	129.616223
12777		-5.363685	0.003876	8.225090	0.001185	-0.000088	0.002498	0.062256	-0.083008	-0.755859	0.092628	33.307073	129.619028
12778		-5.350606	-0.002731	8.244493	0.000639	0.001209	0.001691	0.067383	-0.072754	-0.757813	0.094840	33.303988	129.620991
12779		-5.382296	0.010576	8.239618	-0.001636	0.003891	-0.002423	0.063965	-0.076416	-0.766113	0.094567	33.302518	129.620427
12780		-5.405008	-0.005361	8.218435	-0.001091	0.002594	-0.001615	0.067139	-0.079346	-0.762451	0.094348	33.300159	129.620834
12781		-5.401198	0.016718	8.253956	-0.002399	0.004164	-0.000798	0.062744	-0.073486	-0.757568	0.094249	33.298844	129.621384
12782		-5.378284	-0.041390	8.187031	-0.001760	0.005372	0.000893	0.067383	-0.079346	-0.757813	0.094683	33.298057	129.623277
12783		-5.402375	-0.035161	8.235523	0.001386	0.006786	-0.004725	0.066406	-0.076416	-0.757568	0.095276	33.298247	129.621138
12784		-5.378857	0.009877	8.204318	-0.003255	0.001932	-0.000056	0.069092	-0.079102	-0.752441	0.094560	33.295577	129.622092
12785		-5.375245	-0.019767	8.222050	-0.002275	0.002682	-0.004114	0.074951	-0.076172	-0.755615	0.093283	33.293416	129.620367
12786		-5.379354	0.009261	8.203992	-0.000234	0.004827	-0.002358	0.066406	-0.088867	-0.761963	0.093429	33.292620	129.619511
12787		-5.370665	-0.019908	8.187490	-0.000452	0.003803	0.000075	0.074951	-0.074463	-0.755615	0.094774	33.291096	129.620659
12788		-5.376091	-0.020103	8.221496	0.002165	0.000663	-0.001559	0.069336	-0.081055	-0.765625	0.096740	33.287843	129.620098
12789		-5.376388	-0.020033	8.221301	-0.001121	0.006581	0.002583	0.062500	-0.078369	-0.767090	0.098647	33.287909	129.622968
12790		-5.400274	-0.013538	8.269932	0.000421	0.000185	0.004124	0.068115	-0.077881	-0.753174	0.101645	33.284163	129.626873
12791		-5.408268	-0.006348	8.216289	-0.000669	0.002779	0.002508	0.064209	-0.075439	-0.753906	0.103779	33.282051	129.629687
12792		-5.367623	0.002896	8.222521	0.001402	0.000935	0.000066	0.072021	-0.077393	-0.750732	0.105745	33.278799	129.630765
12793		-5.413744	-0.006354	8.250264	0.001402	0.000936	0.000066	0.068359	-0.082764	-0.765625	0.108146	33.275633	129.631902
12794		-5.358469	0.025656	8.223994	0.000639	0.001209	0.001691	0.069336	-0.075684	-0.759277	0.110396	33.272681	129.633741
12795		-5.376938	0.032138	8.238611	-0.001729	0.001386	-0.003306	0.067139	-0.083496	-0.755371	0.109735	33.269776	129.632567
12796		-5.355034	-0.004109	8.241616	-0.005108	0.004799	-0.000047	0.064697	-0.081299	-0.752197	0.108030	33.268809	129.633312
12797		-5.386885	0.008808	8.236620	-0.003582	0.004253	-0.003297	0.066162	-0.082764	-0.762451	0.106313	33.267548	129.632149
12798		-5.378193	-0.020720	8.220119	0.000110	0.004370	-0.008107	0.067383	-0.082275	-0.758545	0.104679	33.266233	129.627191
12799		-5.382283	0.008413	8.202072	-0.000670	0.002779	0.002508	0.067139	-0.079834	-0.762207	0.106812	33.264120	129.630003
12800		-5.410307	-0.007771	8.214946	-0.004127	0.005550	-0.004106	0.063477	-0.078613	-0.760010	0.104194	33.263542	129.627930
12801		-5.369923	0.000990	8.221020	-0.003162	0.004437	0.000826	0.056885	-0.075928	-0.756104	0.104268	33.262382	129.629592
12802		-5.374110	0.030129	8.202911	-0.000996	0.005100	-0.000733	0.068848	-0.073975	-0.763916	0.104583	33.261272	129.630379
12803		-5.357731	-0.006185	8.239862	-0.002086	0.007695	-0.002349	0.074951	-0.083984	-0.762451	0.104082	33.261981	129.629870
12804		-5.371290	0.000284	8.220127	-0.003800	0.003229	-0.000865	0.068604	-0.070313	-0.768799	0.102761	33.260251	129.630172
12805		-5.390049	0.006434	8.234553	-0.001961	0.006213	-0.005665	0.065918	-0.077637	-0.756348	0.101084	33.260114	129.627388
12806		-5.381574	-0.023010	8.217900	-0.002849	0.007968	-0.000725	0.067871	-0.079590	-0.755371	0.100172	33.260915	129.628452
12807		-5.400572	-0.016514	8.232168	0.001044	0.007244	0.001024	0.071045	-0.087646	-0.762695	0.102732	33.261362	129.630253
12808		-5.368085	-0.000378	8.184656	-0.002398	0.004165	-0.000800	0.067627	-0.078857	-0.760010	0.102467	33.260083	129.630040
12809		-5.379110	-0.001003	8.252582	-0.000902	0.007606	0.000149	0.062012	-0.073486	-0.752197	0.103583	33.260739	129.631242
12810		-5.374372	-0.000848	8.218112	-0.001759	0.005373	0.000891	0.067871	-0.073242	-0.754639	0.104030	33.259975	129.633064
12811		-5.374859	-0.001117	8.217794	-0.002723	0.006487	-0.004042	0.070801	-0.074219	-0.763184	0.102527	33.259994	129.631393
12812		-5.362407	-0.008317	8.236818	-0.003393	0.009266	-0.001535	0.071289	-0.078369	-0.755615	0.101006	33.261635	129.631759
12813		-5.344684	-0.015150	8.221720	-0.002304	0.006671	0.000082	0.068359	-0.080811	-0.751953	0.101293	33.261755	129.632914
12814		-5.345344	-0.015400	8.221291	0.000301	0.009384	-0.006343	0.065186	-0.080322	-0.755371	0.100356	33.263503	129.629175
12815		-5.377610	-0.002218	8.215993	-0.000044	0.009840	-0.000594	0.063232	-0.078857	-0.759277	0.101686	33.265440	129.629870
12816		-5.369112	0.020005	8.217065	-0.006103	0.009900	-0.000787	0.066650	-0.079102	-0.761963	0.099166	33.267235	129.630224
12817		-5.384591	-0.003072	8.249007	-0.001352	0.011411	0.000222	0.063232	-0.074707	-0.756592	0.100053	33.270071	129.631481
12818		-5.389451	-0.025456	8.212729	-0.002210	0.009177	0.000963	0.067383	-0.076660	-0.750488	0.100299	33.271472	129.633359
12819		-5.358528	0.012686	8.234887	-0.000043	0.009841	-0.000595	0.072266	-0.075684	-0.745850	0.101629	33.273409	129.634054
12820		-5.385523	0.026148	8.195436	-0.001989	0.010203	-0.001471	0.077393	-0.077148	-0.761963	0.101097	33.275638	129.633869
12821		-5.410196	-0.019358	8.225840	0.000849	0.008088	-0.005535	0.070801	-0.082520	-0.758301	0.101079	33.276575	129.631177
12822		-5.401682	0.002724	8.226928	-0.006645	0.011199	-0.001599	0.061035	-0.086426	-0.762939	0.097923	33.279499	129.630727
12823		-5.361749	0.011409	8.232792	0.000306	0.009386	-0.006345	0.066650	-0.087646	-0.756104	0.097290	33.281181	129.627480
12824		-5.390144	-0.005127	8.245378	-0.007375	0.007485	-0.004174	0.071533	-0.080322	-0.757813	0.093083	33.281559	129.624778
12825		-5.394837	-0.028069	8.209184	-0.001639	0.009748	-0.007221	0.069092	-0.072021	-0.759277	0.091006	33.283449	129.620931
12826		-5.432350	-0.015382	8.238012	-0.002082	0.007698	-0.002355	0.064697	-0.079590	-0.760742	0.090036	33.284215	129.620453
12827		-5.401574	-0.028924	8.242367	0.001487	0.009298	-0.003845	0.070313	-0.080322	-0.750732	0.091020	33.285843	129.618919
12828		-5.396843	0.022614	8.225618	-0.002403	0.010021	-0.005598	0.078125	-0.079102	-0.761719	0.088831	33.287837	129.615808
12829		-5.393631	-0.007096	8.243096	-0.000865	0.003621	-0.004052	0.064941	-0.081055	-0.752441	0.088385	33.286214	129.614126
12830		-5.388676	-0.007268	8.208737	-0.004120	0.005553	-0.004115	0.069092	-0.082031	-0.756592	0.085758	33.285802	129.611938
12831		-5.379678	0.014567	8.210163	-0.008547	0.001719	-0.001884	0.066162	-0.080566	-0.757813	0.081726	33.283087	129.611740
12832		-5.389197	-0.008611	8.208394	-0.002045	0.003712	-0.006554	0.067139	-0.072021	-0.760498	0.079432	33.281461	129.607866
12833		-5.376483	-0.015976	8.227626	-0.002588	0.005010	-0.007363	0.067383	-0.074951	-0.762695	0.076756	33.280636	129.603916
12834		-5.382244	-0.016834	8.261459	-0.003354	0.005282	-0.005740	0.064697	-0.073730	-0.752930	0.073667	33.279880	129.601590
12835		-5.368071	0.005385	8.228677	-0.004885	0.005826	-0.002491	0.070801	-0.078369	-0.757813	0.071507	33.279518	129.600981
12836		-5.390997	-0.010737	8.207209	-0.002847	0.007970	-0.000732	0.062988	-0.084229	-0.757080	0.070739	33.280342	129.601603
12837		-5.391579	-0.011107	8.206826	-0.001951	0.006219	-0.005672	0.062744	-0.075928	-0.762207	0.069063	33.280208	129.598813
12838		-5.375077	0.003856	8.261705	-0.005650	0.006098	-0.000868	0.065918	-0.074707	-0.754639	0.066805	33.279744	129.599160
12839		-5.387183	-0.011656	8.172090	-0.000228	0.004831	-0.002361	0.069824	-0.072998	-0.760986	0.067361	33.278812	129.598639
12840		-5.379959	-0.019110	8.225347	-0.005427	0.007124	-0.003302	0.070068	-0.075684	-0.750244	0.064046	33.279154	129.597793
12841		-5.384343	0.009750	8.207112	-0.002081	0.007699	-0.002357	0.065918	-0.076904	-0.757324	0.063544	33.279865	129.597278
12842		-5.381212	-0.019856	8.224525	-0.002846	0.007971	-0.000733	0.068848	-0.076172	-0.760986	0.062804	33.280709	129.597794
12843		-5.394877	-0.013399	8.204655	-0.003482	0.006763	-0.002425	0.064209	-0.075195	-0.760010	0.061473	33.280884	129.597231
12844		-5.410079	-0.036609	8.236756	-0.003482	0.006763	-0.002426	0.065186	-0.076172	-0.762451	0.059681	33.280952	129.596889
12845		-5.373640	0.001600	8.225043	-0.002303	0.006673	0.000076	0.071777	-0.079590	-0.752197	0.059965	33.281073	129.598040
12846		-5.389000	-0.021513	8.257043	-0.003932	0.010568	-0.002354	0.071533	-0.078125	-0.761963	0.058052	33.283413	129.597345
12847		-5.384293	-0.021626	8.222504	-0.002938	0.005465	-0.001616	0.063965	-0.079102	-0.757813	0.057336	33.282844	129.597335
12848		-5.388585	0.007604	8.204330	0.001043	0.007248	0.001023	0.066406	-0.081055	-0.754883	0.059565	33.283238	129.598968
12849		-5.398375	-0.014906	8.202351	-0.000993	0.005103	-0.000738	0.070801	-0.077148	-0.754883	0.060293	33.282461	129.599560
12850		-5.389574	0.007460	8.203680	-0.002302	0.006673	0.000075	0.065186	-0.076904	-0.758057	0.060292	33.282581	129.600319
12851		-5.358634	-0.006068	8.208182	-0.001536	0.006402	-0.001549	0.064209	-0.084473	-0.757568	0.060405	33.282548	129.600356
12852		-5.405314	-0.015849	8.235428	-0.003480	0.006764	-0.002427	0.066650	-0.084473	-0.760010	0.058854	33.282548	129.599437
12853		-5.400378	-0.015782	8.201031	-0.001217	0.004077	0.001695	0.069092	-0.080078	-0.753418	0.060369	33.281181	129.601696
12854		-5.365581	-0.007127	8.241264	-0.002397	0.010027	-0.005604	0.070313	-0.073486	-0.764893	0.058310	33.283191	129.598296
12855		-5.410763	0.012619	8.216489	-0.004470	0.006008	0.001629	0.067139	-0.077393	-0.755127	0.057937	33.282931	129.600511
12856		-5.388961	-0.023399	8.219441	0.000316	0.003534	-0.001552	0.065918	-0.075439	-0.762695	0.058637	33.281241	129.600721
12857		-5.366849	-0.007862	8.240437	-0.002487	0.001660	-0.001690	0.068848	-0.086670	-0.758301	0.058150	33.278492	129.600658
12858		-5.380163	-0.001392	8.220777	-0.001403	0.004923	-0.004865	0.067383	-0.075439	-0.754883	0.056871	33.277542	129.598020
12859		-5.367456	-0.008566	8.240042	-0.003796	0.003230	-0.000877	0.072998	-0.076172	-0.763184	0.055940	33.275692	129.598515
12860		-5.403135	-0.017761	8.199211	-0.003161	0.004438	0.000816	0.072510	-0.074951	-0.762207	0.055557	33.274586	129.600231
12861		-5.390504	-0.024818	8.218424	0.000765	0.005589	-0.006420	0.064209	-0.071533	-0.752686	0.055156	33.274091	129.596929
12862		-5.394591	0.004268	8.200384	-0.000318	0.002326	-0.003245	0.074463	-0.083496	-0.763184	0.054776	33.271707	129.596157
12863		-5.368698	-0.009429	8.239231	0.000859	0.002236	-0.000742	0.065918	-0.081055	-0.756836	0.056562	33.269287	129.596744
12864		-5.368977	-0.009638	8.239050	-0.004338	0.004529	-0.001688	0.069824	-0.072998	-0.760254	0.054854	33.268232	129.596027
12865		-5.404586	-0.018918	8.198252	-0.002486	0.001661	-0.001690	0.071777	-0.078613	-0.755615	0.054367	33.265484	129.595964
12866		-5.387807	-0.003788	8.253408	-0.002486	0.001661	-0.001690	0.074951	-0.073730	-0.758545	0.053434	33.262821	129.595904
12867		-5.391804	-0.026212	8.217567	-0.000542	0.001299	-0.000811	0.058838	-0.071045	-0.760498	0.054392	33.259865	129.596443
12868		-5.400879	0.002695	8.233901	-0.001493	-0.003444	-0.000951	0.063965	-0.077637	-0.752686	0.054156	33.254105	129.597444
12869		-5.369328	-0.010863	8.238819	-0.002486	0.001661	-0.001690	0.071045	-0.077393	-0.763672	0.053668	33.251357	129.597381
12870		-5.387876	-0.004691	8.253363	-0.004655	0.000995	-0.000136	0.068359	-0.079834	-0.758301	0.052170	33.248176	129.598282
12871		-5.341860	0.004507	8.225706	-0.000318	0.002327	-0.003245	0.067627	-0.071533	-0.758545	0.052342	33.245810	129.597154
12872		-5.379035	-0.034248	8.236873	-0.004020	0.002203	0.001557	0.065918	-0.080566	-0.762695	0.051760	33.243343	129.599412
12873		-5.388456	-0.057055	8.235110	-0.001719	0.001390	-0.003314	0.062500	-0.077637	-0.755127	0.051103	33.240440	129.598237
12874		-5.383163	-0.005493	8.218811	-0.001627	0.003897	-0.002432	0.068359	-0.077148	-0.762939	0.050560	33.238782	129.597503
12875		-5.346559	-0.018725	8.189402	-0.001852	0.002869	0.000002	0.067139	-0.083496	-0.762695	0.051072	33.236724	129.598600
12876		-5.383780	-0.005826	8.218407	-0.001760	0.005375	0.000884	0.066650	-0.084717	-0.756348	0.051726	33.236054	129.599995
12877		-5.365829	-0.012363	8.203473	-0.001126	0.006583	0.002577	0.064453	-0.076416	-0.759033	0.053622	33.236124	129.602858
12878		-5.390254	-0.006172	8.251809	-0.000133	0.007340	-0.001481	0.070557	-0.071533	-0.764404	0.054363	33.236506	129.602525
12879		-5.359275	-0.019496	8.256363	0.000951	0.004743	0.000141	0.061768	-0.072998	-0.758301	0.056534	33.235522	129.603718
12880		-5.372932	-0.012497	8.236467	0.003304	0.010422	0.000351	0.072266	-0.083252	-0.759766	0.059528	33.237683	129.605707
12881		-5.405228	0.001056	8.231047	0.001903	0.009486	0.000281	0.065430	-0.083496	-0.761475	0.062298	33.239416	129.606999
12882		-5.369009	-0.011825	8.201393	0.001811	0.006979	-0.000601	0.062744	-0.077637	-0.755615	0.064591	33.239724	129.606920
12883		-5.388123	-0.005181	8.215561	0.002671	0.009215	-0.001343	0.071045	-0.079834	-0.755127	0.067192	33.241303	129.607100
12884		-5.357327	-0.018473	8.220009	-0.000132	0.007341	-0.001482	0.065674	-0.074219	-0.758789	0.067852	33.241752	129.606883
12885		-5.389426	-0.004965	8.214707	0.004389	0.007825	0.001972	0.067627	-0.078613	-0.753662	0.072681	33.242532	129.609332
12886		-5.377031	-0.011699	8.233793	-0.001307	0.007432	-0.003987	0.067383	-0.082031	-0.757568	0.071614	33.243020	129.607717
12887		-5.364614	-0.018597	8.252896	0.001044	0.007250	0.001021	0.067871	-0.081787	-0.760986	0.074169	33.243472	129.609515
12888		-5.350612	0.004273	8.220016	-0.000039	0.009849	-0.000602	0.062744	-0.082764	-0.763184	0.075340	33.245371	129.609634
12889		-5.375457	-0.041147	8.250201	-0.000581	0.011148	-0.001413	0.069336	-0.078125	-0.754395	0.076053	33.248058	129.609767
12890		-5.370771	0.010718	8.233500	0.002672	0.009216	-0.001344	0.065674	-0.077881	-0.760010	0.078433	33.249523	129.609599
12891		-5.371648	0.010790	8.232928	0.000821	0.012085	-0.001345	0.068604	-0.082275	-0.758057	0.079976	33.252747	129.609780
12892		-5.413462	0.001698	8.225634	0.003625	0.013960	-0.001206	0.064209	-0.080078	-0.760986	0.082934	33.256976	129.609737
12893		-5.418050	0.031051	8.207244	-0.002300	0.006676	0.000068	0.074219	-0.085205	-0.753174	0.083216	33.257099	129.610882
12894		-5.396418	-0.004813	8.210115	0.001044	0.007251	0.001020	0.075684	-0.085938	-0.758789	0.085654	33.257583	129.611930
12895		-5.387543	0.017681	8.211534	-0.000314	0.002327	-0.003246	0.067139	-0.080078	-0.755127	0.085826	33.255217	129.610799
12896		-5.397043	-0.005239	8.209704	-0.004968	0.003322	-0.003387	0.066406	-0.078857	-0.769775	0.083172	33.253554	129.608714
12897		-5.375146	-0.041495	8.212749	-0.002392	0.004169	-0.000813	0.062744	-0.085205	-0.758301	0.083069	33.252242	129.609253
12898		-5.371687	-0.019622	8.248292	-0.003566	0.004260	-0.003317	0.065918	-0.083252	-0.757080	0.081179	33.250772	129.607770
12899		-5.401635	0.022993	8.191313	-0.002711	0.000633	0.000741	0.069824	-0.085449	-0.758789	0.081475	33.247433	129.609369
12900		-5.298660	-0.134082	8.310917	0.010363	0.021607	0.005774	0.070801	-0.073242	-0.755859	0.091127	33.256077	129.613560
12901		-5.335800	-0.096586	8.373324	0.025953	0.073617	0.021432	0.077393	-0.072021	-0.760986	0.115677	33.294532	129.629429
12902		-5.521974	-0.203101	8.355832	0.038675	0.125892	0.050094	0.071533	-0.071777	-0.756592	0.157744	33.363130	129.665506
12903		-5.829311	-0.113373	8.179331	0.054929	0.098668	0.064831	0.067627	-0.079102	-0.759033	0.215390	33.415838	129.711299
12904		-6.263961	-0.218056	8.173649	0.087034	0.067444	0.071046	0.070801	-0.074463	-0.758057	0.293282	33.450563	129.761690
12905		-6.121380	0.064759	7.987302	0.103738	-0.003093	0.049670	0.074707	-0.082520	-0.758057	0.373076	33.444920	129.796858
12906		-5.522848	0.137440	8.104612	0.094015	-0.058351	0.023576	0.071533	-0.089111	-0.758789	0.436804	33.407802	129.813867
12907		-5.185598	0.336645	8.320477	0.075613	-0.074337	0.002055	0.070313	-0.083008	-0.759277	0.482235	33.361494	129.815932
12908		-4.870632	0.450379	8.339395	0.045284	-0.058977	-0.014334	0.066162	-0.081543	-0.755127	0.503997	33.324128	129.806159
12909		-5.020332	0.386278	8.299123	0.022769	-0.043225	-0.036170	0.064453	-0.080811	-0.754150	0.504835	33.295837	129.782160
12910		-5.326460	0.415387	8.181173	0.003711	-0.034243	-0.055547	0.071289	-0.085938	-0.751953	0.487143	33.272626	129.745031
12911		-5.503509	0.219739	8.206072	-0.007501	-0.040549	-0.074955	0.066895	-0.083496	-0.758057	0.456108	33.246040	129.694506
12912		-5.417295	0.019257	8.238512	-0.023636	-0.038222	-0.073833	0.060791	-0.083740	-0.764404	0.416103	33.220805	129.644312
12913		-5.304777	0.100001	8.258489	-0.010409	-0.040906	-0.071824	0.063477	-0.083984	-0.754395	0.384652	33.193949	129.595999
12914		-5.275845	0.082135	8.299491	-0.012566	-0.031056	-0.061037	0.063965	-0.079834	-0.762451	0.355842	33.172397	129.555079
12915		-5.380949	-0.221845	8.299979	-0.015589	-0.017597	-0.054307	0.068359	-0.084961	-0.755371	0.328094	33.158795	129.518907
12916		-5.325933	-0.289035	8.151933	0.004454	-0.021803	-0.034825	0.062988	-0.075928	-0.754883	0.318826	33.142650	129.495980
12917		-5.573472	-0.330012	8.305455	0.021416	-0.019065	-0.013657	0.063721	-0.094971	-0.751953	0.327505	33.128066	129.487633
12918		-5.653471	-0.258591	8.171745	0.043957	-0.029565	-0.006554	0.068115	-0.081055	-0.757324	0.351609	33.107290	129.483535
12919		-5.073471	0.008660	8.213877	0.049128	-0.039544	0.008206	0.061035	-0.081299	-0.752686	0.384281	33.080897	129.490041
12920		-4.977987	0.238421	8.231092	0.046784	-0.039373	0.003187	0.058838	-0.078125	-0.763428	0.413328	33.054548	129.493149
12921		-5.160796	0.136500	8.167977	0.025363	-0.019114	-0.002038	0.071533	-0.079102	-0.756104	0.428599	33.039898	129.492722
12922		-5.415606	0.052880	8.250789	0.024466	-0.027854	-0.006353	0.058838	-0.082275	-0.757324	0.441137	33.020219	129.489873
12923		-5.369335	0.277069	8.207298	0.015510	-0.032199	-0.007547	0.064209	-0.084717	-0.761475	0.448671	32.998097	129.485606
12924		-5.564997	-0.092625	8.247435	0.014895	-0.049760	-0.013674	0.054199	-0.089111	-0.759277	0.453195	32.965749	129.477149
12925		-5.601759	0.090134	8.157146	0.024848	-0.068697	-0.007175	0.060303	-0.086182	-0.759277	0.466110	32.922715	129.472932
12926		-5.589142	-0.150661	8.197071	0.025262	-0.086683	0.001504	0.061279	-0.080322	-0.755371	0.482303	32.868986	129.474230
12927		-5.321275	0.063408	8.190289	0.036802	-0.093804	0.004966	0.059326	-0.087158	-0.761963	0.506469	32.811509	129.478119
12928		-5.062327	0.307211	8.199108	0.032991	-0.092413	0.013072	0.062256	-0.084229	-0.761230	0.531067	32.754669	129.487594
12929		-4.946503	0.189748	8.150030	0.023786	-0.075585	0.013943	0.054443	-0.089355	-0.760498	0.551106	32.707579	129.497654
12930		-5.031851	0.150659	8.139438	0.015772	-0.057005	0.008322	0.057861	-0.089355	-0.762695	0.564308	32.671005	129.503840
12931		-5.169720	0.049561	8.172809	0.008887	-0.045014	0.000144	0.061279	-0.083252	-0.753418	0.570826	32.641504	129.504681
12932		-5.218933	0.076680	8.097214	0.009195	-0.041486	-0.001426	0.062744	-0.086182	-0.750977	0.576698	32.613996	129.504255
12933		-5.123751	0.147985	8.060758	0.009583	-0.037287	0.006888	0.056641	-0.091797	-0.750488	0.586109	32.588883	129.509727
12934		-5.179881	-0.008514	8.019068	0.014965	-0.046879	0.009296	0.059326	-0.083008	-0.760010	0.599363	32.558293	129.515946
12935		-5.452896	0.076578	8.084766	0.015644	-0.051491	0.015785	0.057617	-0.088135	-0.758301	0.615430	32.524986	129.527345
12936		-5.448918	-0.053095	8.105746	0.024326	-0.082994	0.031779	0.054443	-0.089111	-0.755127	0.641839	32.473512	129.549314
12937		-5.406322	-0.246877	8.081415	0.021060	-0.107554	0.040180	0.052246	-0.088623	-0.755859	0.669617	32.407918	129.576792
12938		-5.438963	-0.112883	7.977003	0.024262	-0.138442	0.047761	0.056396	-0.087402	-0.763916	0.701638	32.324383	129.608680
12939		-5.387099	-0.231927	8.009000	0.011315	-0.179346	0.056316	0.054443	-0.080566	-0.760254	0.729207	32.217518	129.646351
12940		-5.580951	-0.302786	8.077190	0.016048	-0.227374	0.068353	0.052002	-0.088135	-0.758301	0.762973	32.083067	129.691954
12941		-5.495116	-0.139690	8.100444	0.018459	-0.287504	0.075001	0.047119	-0.082031	-0.759766	0.800506	31.914055	129.740993
12942		-5.467301	0.123841	8.204397	0.005162	-0.333095	0.065085	0.050537	-0.086914	-0.760010	0.825989	31.718937	129.782887
12943		-5.387406	0.227087	8.439227	-0.004817	-0.372544	0.063480	0.044678	-0.084717	-0.757324	0.845198	31.501263	129.822949
12944		-5.066425	0.470995	8.618307	-0.019331	-0.375225	0.047083	0.030762	-0.085693	-0.752686	0.849733	31.282327	129.851803
12945		-4.755953	0.580258	8.880403	-0.029740	-0.338253	0.031909	0.039551	-0.089111	-0.767090	0.843517	31.084559	129.870831
12946		-4.465385	0.308857	8.893150	-0.047939	-0.263573	0.008864	0.032471	-0.083252	-0.763184	0.819006	30.929534	129.875225
12947		-4.557938	0.063885	8.837954	-0.046239	-0.194828	-0.002378	0.032715	-0.079102	-0.761475	0.792249	30.814222	129.872818
12948		-4.849371	-0.048759	8.808913	-0.038025	-0.130318	-0.001215	0.025879	-0.083252	-0.762207	0.770333	30.735674	129.872634
12949		-4.916450	0.011165	8.735793	-0.023028	-0.101510	0.000635	0.025391	-0.087402	-0.760498	0.758381	30.673799	129.873164
12950		-4.676356	0.152209	8.715007	-0.011298	-0.062846	0.010995	0.019043	-0.084717	-0.767578	0.756531	30.633543	129.881244
12951		-4.574039	0.427949	8.710920	-0.016041	-0.011440	-0.002185	0.037598	-0.085205	-0.759277	0.748034	30.623291	129.880699
12952		-4.781673	0.218071	8.755672	-0.035875	0.041188	-0.008923	0.030029	-0.088379	-0.757568	0.725781	30.642972	129.876373
12953		-5.006853	0.014039	8.779108	-0.027052	0.074343	-0.015155	0.028320	-0.090576	-0.761719	0.706937	30.681959	129.867911
12954		-4.914051	0.271926	8.543545	-0.028596	0.095472	-0.015343	0.025146	-0.091553	-0.756836	0.687187	30.732803	129.858904
12955		-4.806444	0.221349	8.500171	-0.039223	0.118118	-0.021360	0.031250	-0.083984	-0.764648	0.659393	30.796906	129.846605
12956		-4.840823	0.229567	8.421670	-0.049892	0.141126	-0.039711	0.033691	-0.092773	-0.760986	0.619164	30.873914	129.821920
12957		-5.000248	0.098311	8.413669	-0.065975	0.158603	-0.049327	0.035645	-0.082031	-0.768799	0.566498	30.961362	129.791099
12958		-5.041728	-0.006211	8.454175	-0.057040	0.160464	-0.049241	0.028809	-0.085449	-0.756592	0.518776	31.049701	129.759883
12959		-5.086634	0.058468	8.338080	-0.055662	0.154980	-0.054418	0.037598	-0.078613	-0.751709	0.470049	31.135054	129.725404
12960		-4.923007	0.065929	8.178911	-0.058003	0.146885	-0.055625	0.035645	-0.077393	-0.760254	0.419150	31.215411	129.690021
12961		-4.377683	0.119801	8.139076	-0.075704	0.167894	-0.055407	0.035645	-0.078369	-0.765381	0.358412	31.308112	129.654692
12962		-5.121292	-0.216666	8.468993	-0.074201	0.208279	-0.053474	0.044189	-0.080078	-0.761963	0.298627	31.423549	129.621439
12963		-5.251311	-0.324860	8.286720	-0.041024	0.165840	-0.034499	0.041992	-0.084961	-0.753662	0.264831	31.514957	129.599866
12964		-4.731073	-0.017165	8.230002	-0.034914	0.157126	-0.018288	0.046143	-0.078369	-0.762939	0.239968	31.601245	129.588729
12965		-4.846697	0.355933	8.332568	-0.064414	0.194470	-0.031928	0.047119	-0.083984	-0.759033	0.193571	31.709030	129.568795
12966		-4.867839	0.251558	8.199922	-0.106941	0.197858	-0.026403	0.045654	-0.083496	-0.758057	0.124410	31.818690	129.552244
12967		-4.883812	0.062960	8.467635	-0.133317	0.211282	-0.021923	0.046875	-0.073242	-0.754883	0.041861	31.936060	129.538734
12968		-5.256303	-0.120924	8.457570	-0.131972	0.198982	-0.019979	0.049561	-0.077148	-0.762207	-0.039633	32.046140	129.526286
12969		-5.216684	-0.394354	8.469392	-0.100500	0.200188	-0.013501	0.052246	-0.076660	-0.760742	-0.100607	32.157127	129.518078
12970		-5.080724	-0.012349	8.398350	-0.087153	0.220154	-0.024231	0.051514	-0.075684	-0.760010	-0.158215	32.279383	129.502423
12971		-5.157967	-0.010224	8.552270	-0.080743	0.262033	-0.043628	0.048340	-0.078613	-0.763184	-0.219065	32.425733	129.473348
12972		-5.510283	-0.299680	8.450383	-0.058010	0.226767	-0.059750	0.058105	-0.073730	-0.763428	-0.273079	32.551403	129.433169
12973		-5.157373	0.081147	8.290656	-0.035505	0.254216	-0.058458	0.060059	-0.075684	-0.758057	-0.313767	32.693185	129.393628
12974		-5.092435	0.108171	8.413127	-0.028022	0.293157	-0.064003	0.069580	-0.072998	-0.760498	-0.352785	32.857153	129.349891
12975		-5.201174	0.053692	8.435941	-0.024231	0.319068	-0.075049	0.059570	-0.077148	-0.750977	-0.393726	33.035984	129.298354
12976		-4.884356	0.197198	8.424784	-0.040728	0.354361	-0.085900	0.069824	-0.074463	-0.755859	-0.448788	33.234945	129.238539
12977		-5.312711	0.395882	8.465902	-0.055734	0.412917	-0.097147	0.074707	-0.079590	-0.756836	-0.517071	33.467356	129.170656
12978		-5.241556	-0.323768	8.518964	-0.050323	0.460357	-0.099807	0.078857	-0.069336	-0.760010	-0.584017	33.726966	129.099329
12979		-5.584114	-0.259318	8.441346	-0.018474	0.509017	-0.093211	0.079346	-0.072510	-0.759033	-0.630909	34.014335	129.032440
12980		-5.100708	0.132329	8.392310	0.001831	0.551316	-0.114659	0.089355	-0.072754	-0.757324	-0.675695	34.325813	128.949918
12981		-5.118871	-0.078834	8.451958	0.017772	0.630422	-0.143363	0.083984	-0.070068	-0.752930	-0.723369	34.682297	128.846067
12982		-4.842868	-0.095593	8.833681	0.084938	0.731209	-0.175359	0.099609	-0.081299	-0.754639	-0.747214	35.096236	128.718115
12983		-3.180301	1.427164	9.616327	-0.038241	0.937057	-0.254038	0.101563	-0.069824	-0.756592	-0.876146	35.627326	128.531516
12984		-4.916754	-1.007553	9.359548	0.008544	1.287023	-0.241287	0.114014	-0.070313	-0.748535	-0.978703	36.358776	128.346525
12985		-6.107953	-1.281977	8.970341	0.069909	1.470195	-0.180575	0.120361	-0.074219	-0.753174	-1.025278	37.195511	128.200210
12986		-4.661493	-1.041160	9.109666	0.169173	1.701830	-0.093016	0.132813	-0.074707	-0.752930	-0.981276	38.165719	128.112336
12987		-4.793049	-0.550457	9.326978	0.244656	2.042009	-0.038802	0.153320	-0.072998	-0.744385	-0.872367	39.331504	128.060821
12988		-4.502163	-0.773925	9.288491	0.270460	2.403364	-0.004854	0.169678	-0.075439	-0.746582	-0.734631	40.704482	128.033150
12989		-4.288361	-0.386902	9.119886	0.271205	2.840885	-0.012673	0.191895	-0.078613	-0.745117	-0.600629	42.328301	127.999407
12990		-4.213045	-0.011357	9.461137	0.221043	3.305310	-0.084475	0.226563	-0.082764	-0.720703	-0.536164	44.217663	127.908466
12991		-4.035839	-0.209670	9.152546	0.178573	3.758267	-0.168580	0.244141	-0.083984	-0.722900	-0.550114	46.366287	127.743520
12992		-4.573322	0.014897	8.814663	0.100067	4.212666	-0.216204	0.285889	-0.087158	-0.709229	-0.654181	48.776383	127.522705
12993		-4.715145	-0.342726	8.933103	-0.004504	4.661207	-0.261167	0.322510	-0.089600	-0.689453	-0.876353	51.441139	127.235318
12994		-4.731993	0.480611	8.634889	-0.069396	5.192888	-0.313459	0.356934	-0.089355	-0.669434	-1.222083	54.413897	126.847252
12995		-5.907625	0.550489	8.939017	-0.220648	5.779900	-0.362063	0.394531	-0.083252	-0.648438	-1.783452	57.715311	126.322099
12996		-6.293658	0.827266	9.018859	-0.291852	6.293712	-0.370667	0.440918	-0.083496	-0.627930	-2.536445	61.313645	125.637487
12997		-8.005639	1.009315	9.366091	-0.463052	6.850446	-0.458898	0.483154	-0.082031	-0.596680	-3.747291	65.214858	124.578413
12998		-9.214620	-0.715548	10.041307	-0.452645	7.398514	-0.431726	0.530762	-0.066895	-0.542236	-5.398901	69.420589	123.067210
12999		-14.838545	2.325632	12.121281	-0.134248	7.482102	-0.442731	0.568115	-0.059570	-0.512939	-7.689919	73.647947	120.733561
13000		-17.310038	3.720841	12.406667	-0.238404	7.481697	-0.693829	0.620361	-0.063721	-0.464111	-12.284521	77.799894	116.136056
13001		-15.828535	-1.064794	10.041027	-0.147810	7.252590	-0.908721	0.647461	-0.055908	-0.425049	-21.833086	81.629827	106.522742
13002		-17.366905	-0.765754	12.651100	0.421927	7.052563	-0.729960	0.677490	-0.060791	-0.371338	-42.969700	84.870113	85.006048
13003		-19.833577	3.869079	14.639926	0.396125	6.595497	-1.050007	0.708252	-0.059570	-0.321045	-90.008545	85.913124	37.604506
13004		-16.602960	5.779493	15.329678	-0.032459	6.009425	-1.287933	0.729492	-0.046875	-0.277832	-125.426890	84.077850	2.081191
13005		-7.884738	4.261851	15.079568	-0.287543	5.646566	-1.309979	0.746094	-0.042969	-0.233154	-140.157643	81.309853	-12.599445
13006		0.068290	0.491856	12.958747	-0.525224	5.561745	-1.777555	0.756348	-0.033447	-0.189941	-146.448203	78.147774	-18.684919
13007		-27.676006	-1.053665	15.179834	-0.365058	5.911231	-2.630736	0.774170	-0.010498	-0.149902	-148.864138	74.482863	-20.955914
13008		-23.086843	-2.441092	19.625383	-0.010979	2.141373	-2.576153	0.777344	-0.000977	-0.124023	-146.835254	72.665164	-18.835454
13009		-15.959002	-0.780995	18.876656	0.614859	0.107347	-2.499482	0.783936	0.007813	-0.117920	-142.932218	71.794168	-15.108073
13010		-11.446021	1.507364	16.186288	0.947397	-1.678087	-2.264289	0.773193	0.017334	-0.132080	-137.483731	71.709755	-9.944314
13011		-4.589227	4.354569	11.579780	0.958543	-2.510477	-1.927413	0.774170	0.026611	-0.149170	-131.442973	71.932650	-4.165823
13012		-2.256241	7.149444	9.057858	0.573726	-2.808096	-1.571035	0.780029	0.036133	-0.161865	-125.462810	72.235423	1.771533
13013		-2.048354	7.203996	7.575112	-0.033425	-2.959126	-1.112446	0.775391	0.041504	-0.172852	-119.877286	72.617342	7.649065
13014		-3.079820	6.575495	6.769907	-0.568683	-3.167451	-0.597608	0.770264	0.046143	-0.203613	-114.423911	73.147385	13.693924
13015		-3.352168	4.797319	6.321597	-0.846738	-3.411467	-0.007431	0.768066	0.041260	-0.222656	-108.750324	73.865875	20.115315
13016		-3.543748	3.145537	5.906382	-0.854276	-3.619620	0.589578	0.760254	0.030762	-0.245605	-102.413798	74.754453	27.202909
13017		-3.744880	1.953172	5.626594	-0.682356	-3.812147	1.072290	0.755127	0.032227	-0.268066	-94.948373	75.695238	35.325849
13018		-4.084882	1.336375	5.443779	-0.444977	-4.003832	1.372430	0.750732	0.018311	-0.292969	-85.905122	76.503452	44.901365
13019		-4.505837	1.014753	5.556568	-0.265281	-4.185164	1.480206	0.738281	0.005859	-0.316650	-75.407670	76.953297	55.840230
13020		-5.006283	0.494160	5.684400	-0.110963	-4.365679	1.441845	0.715088	-0.001465	-0.346191	-64.085990	76.860329	67.525644
13021		-5.674406	-0.278676	6.100722	0.073671	-4.561839	1.360548	0.713379	-0.013916	-0.370361	-53.019199	76.157211	78.859845
13022		-6.129364	-0.950250	6.346430	0.319505	-4.766775	1.264246	0.700195	-0.025879	-0.390381	-43.054642	74.859265	88.958842
13023		-6.283716	-1.333990	6.493396	0.613731	-4.966161	1.179849	0.687256	-0.031738	-0.423340	-34.643787	73.060310	97.341265
13024		-6.533127	-1.422814	6.890941	0.878663	-5.120203	1.099664	0.664795	-0.048096	-0.448486	-27.787996	70.866340	104.018239
13025		-7.034600	-1.222441	7.299585	1.076606	-5.247546	1.026715	0.651855	-0.064453	-0.468994	-22.298838	68.385988	109.212853
13026		-7.566369	-0.939778	7.728218	1.172851	-5.347062	0.956326	0.632568	-0.065186	-0.496094	-17.910631	65.686423	113.245715
13027		-8.368819	-0.598317	8.293575	1.180632	-5.436142	0.896936	0.618652	-0.077881	-0.522461	-14.406409	62.833513	116.382592
13028		-9.084687	-0.587125	8.901521	1.124122	-5.539310	0.853565	0.603516	-0.086182	-0.545166	-11.574617	59.840097	118.872955
13029		-9.627640	-0.819024	9.338698	1.082982	-5.647593	0.820593	0.589844	-0.087646	-0.570557	-9.254784	56.738673	120.868361
13030		-9.981154	-1.137635	9.605008	1.086929	-5.742960	0.825518	0.575928	-0.095703	-0.593262	-7.273339	53.539459	122.521358
13031		-10.390885	-1.276310	9.998814	1.171952	-5.777560	0.851680	0.566162	-0.099609	-0.619629	-5.509465	50.300283	123.907085
13032		-10.969713	-1.186211	10.519651	1.269074	-5.735515	0.865928	0.557861	-0.099121	-0.651855	-3.907258	47.054871	125.069365
13033		-12.371044	-1.101335	11.593433	1.380743	-5.636770	0.845142	0.562012	-0.112061	-0.689453	-2.440751	43.853285	126.014996
13034		-14.832572	-1.057699	13.210127	1.486832	-5.614051	0.771514	0.551025	-0.113281	-0.728027	-1.092830	40.640765	126.749635
13035		-17.495965	-1.286654	14.778459	1.580808	-5.722024	0.667867	0.557861	-0.123535	-0.768799	0.146783	37.361859	127.277991
13036		-20.136845	-1.526799	15.681051	1.698708	-5.943691	0.570019	0.543213	-0.133789	-0.826416	1.326819	33.941500	127.629025
13037		-22.522806	-1.675028	15.304908	1.834634	-6.195218	0.545467	0.523438	-0.144287	-0.893311	2.501684	30.379745	127.858832
13038		-24.768852	-1.280485	13.935747	1.963450	-6.373306	0.621665	0.497559	-0.167969	-0.970947	3.715822	26.703584	128.040657
13039		-26.181200	-0.412725	11.294383	2.002064	-6.462142	0.761760	0.454834	-0.201904	-1.048340	4.936787	22.974961	128.213123
13040		-26.001139	-0.353068	7.391093	1.920207	-6.359281	0.963237	0.384033	-0.232422	-1.117920	6.116696	19.285282	128.427636
13041		-25.402186	-1.758743	2.246625	1.841305	-6.001908	1.250232	0.317383	-0.276855	-1.186279	7.271305	15.782627	128.753809
13042		-24.289111	-5.270818	-3.449351	1.957450	-5.367588	1.566851	0.222900	-0.319580	-1.231445	8.513583	12.604179	129.236707
13043		-25.067037	-10.096973	-9.117235	2.439220	-4.456077	1.775366	0.136230	-0.372070	-1.270752	10.030455	9.916725	129.841133
13044		-29.465892	-15.319225	-15.146239	3.222378	-3.530556	1.829075	0.074707	-0.431152	-1.302002	11.978536	7.723275	130.492117
13045		-33.693092	-18.392572	-21.530051	3.986018	-2.773382	1.639133	0.013916	-0.506836	-1.300049	14.329864	5.958488	131.048964
13046		-30.696123	-13.947258	-24.541547	3.993048	-1.817723	1.095989	-0.023682	-0.562012	-1.315186	16.649684	4.780958	131.377558
13047		-23.252513	-3.543067	-20.960238	2.368128	-0.112235	-0.129622	-0.024902	-0.601318	-1.329346	17.999979	4.737865	131.286970
13048		-5.250782	6.121806	-6.682214	-1.083547	2.324081	-2.132481	0.038818	-0.606689	-1.370850	17.306176	6.372408	130.522810
13049		-3.712751	-4.239100	10.463378	-1.725578	3.158968	-3.287379	0.110840	-0.583740	-1.418945	16.149161	8.644141	129.228746
13050		-8.813304	15.905015	21.516792	-2.707895	2.040597	-3.105305	0.164551	-0.544434	-1.468262	14.364326	10.235638	127.800682
13051		8.855763	27.225338	10.417840	-3.851391	1.868125	-3.074702	0.218750	-0.482666	-1.516846	11.873304	11.674076	126.300772
13052		2.823540	9.178711	3.326768	-4.663714	3.070994	-2.737060	0.287598	-0.424561	-1.572754	8.927314	13.682887	125.046134
13053		-7.062614	-9.500641	6.522669	-4.041088	3.931768	-0.998683	0.369141	-0.367676	-1.622314	6.542830	15.988182	124.773704
13054		-10.034233	-14.023747	10.070064	-2.511373	3.892545	0.605142	0.443848	-0.339355	-1.670410	5.282432	18.166076	125.375768
13055		-7.512062	-22.446766	13.729719	-1.708917	3.797240	-0.077538	0.529297	-0.325439	-1.697510	4.352717	20.333973	125.523046
13056		-12.719293	-19.426017	15.212150	-0.453057	3.713341	-1.017385	0.610596	-0.305908	-1.719238	3.926577	22.493605	125.064324
13057		-17.317831	-0.446701	13.553377	0.412642	3.271374	-0.638073	0.685547	-0.296875	-1.720703	4.062769	24.385109	124.809869
13058		-14.766119	9.011050	13.745276	0.124033	2.876034	0.026807	0.745605	-0.305908	-1.726318	4.197651	26.023492	124.958461
13059		-19.949810	10.778786	15.042835	-1.104872	2.180338	0.018259	0.797852	-0.293213	-1.740479	3.613820	27.265342	125.066081
13060		-9.365164	-2.739724	9.395704	-1.208855	1.588213	-0.166563	0.822754	-0.274658	-1.740723	2.899563	28.175643	125.017599
13061		-10.605873	-4.965372	10.747080	-0.681462	1.363775	-0.083186	0.860107	-0.258789	-1.743896	2.504621	28.954649	125.006179
13062		-8.064864	-0.237888	8.585569	-0.525241	0.722828	-0.202745	0.868164	-0.255127	-1.752930	2.149382	29.369767	124.893201
13063		-5.320611	2.583271	8.569533	-0.561646	0.685194	-0.138654	0.886719	-0.240234	-1.750977	1.791622	29.761107	124.818348
13064		-6.998471	-0.914828	9.420116	-0.579471	0.535895	-0.161998	0.907227	-0.235840	-1.757080	1.412338	30.067312	124.721964
13065		-6.239308	-0.111568	9.057647	-0.554901	0.399281	-0.136453	0.911621	-0.224365	-1.762939	1.053270	30.293976	124.638207
13066		-6.040380	-2.368565	9.199165	-0.422155	0.286102	-0.081203	0.916992	-0.218994	-1.758545	0.786832	30.455379	124.588116
13067		-4.563566	-1.018724	9.086911	-0.293793	0.379529	0.000165	0.929688	-0.209717	-1.760986	0.621624	30.669087	124.592344
13068		-6.063109	-1.823409	9.197493	-0.219268	0.373203	0.069384	0.929688	-0.205811	-1.760498	0.522009	30.879266	124.641842
13069		-5.763826	-1.962291	8.959705	-0.059672	0.374689	0.136699	0.939941	-0.211426	-1.767334	0.537546	31.089488	124.736544
13070		-5.423418	-0.584594	8.703922	0.034952	0.369815	0.158472	0.946777	-0.208496	-1.764160	0.614795	31.297234	124.845855
13071		-5.673559	-0.032802	8.392891	0.074685	0.349847	0.136167	0.959961	-0.213867	-1.761719	0.708117	31.493041	124.940985
13072		-5.489525	-0.476022	8.506193	0.109974	0.338375	0.120737	0.962158	-0.219727	-1.760010	0.816182	31.682776	125.025867
13073		-5.307617	0.163932	8.585644	0.142076	0.339708	0.106219	0.960938	-0.224609	-1.757813	0.938637	31.872729	125.101969
13074		-5.424260	0.442664	8.509606	0.148673	0.351213	0.072943	0.966309	-0.223633	-1.752930	1.052999	32.070005	125.155975
13075		-5.470104	0.876299	8.332459	0.113508	0.334208	0.025788	0.976563	-0.219238	-1.747070	1.131125	32.257443	125.178738
13076		-5.499993	0.758231	8.196061	0.064592	0.298819	-0.017187	0.979980	-0.218750	-1.754639	1.165014	32.425627	125.171775
13077		-5.581279	0.292222	8.135990	0.041958	0.274887	-0.028643	0.987793	-0.220459	-1.753418	1.182166	32.579694	125.157144
13078		-5.366951	-0.146059	8.246748	0.049178	0.256639	-0.012697	0.996582	-0.229004	-1.747314	1.208612	32.723684	125.152785
13079		-5.110199	-0.390040	8.376501	0.068812	0.266931	0.033571	1.000732	-0.218262	-1.746094	1.264071	32.872439	125.180585
13080		-5.297787	-0.146302	8.377915	0.089585	0.288045	0.062056	1.007568	-0.229004	-1.744873	1.341811	33.033449	125.228031
13081		-5.445131	0.165040	8.276616	0.098824	0.284665	0.066970	1.005859	-0.222412	-1.740479	1.427536	33.191838	125.279523
13082		-5.517543	0.374451	8.191583	0.092927	0.271968	0.062467	1.010986	-0.234619	-1.740723	1.507792	33.343518	125.327681
13083		-5.535231	0.591400	8.045978	0.073256	0.233188	0.042954	1.015381	-0.229980	-1.740234	1.569871	33.472676	125.362431
13084		-5.401440	0.597395	8.113475	0.046765	0.201171	0.017419	1.013916	-0.239746	-1.748047	1.606327	33.584448	125.378822
13085		-5.411293	0.367154	8.043487	0.011872	0.209444	-0.000474	1.020264	-0.229980	-1.749512	1.616709	33.700671	125.383527
13086		-5.661284	0.625756	8.066175	0.008004	0.177780	-0.019530	1.027588	-0.239746	-1.741699	1.616693	33.799640	125.374129
13087		-5.549041	0.170196	8.047324	-0.012594	0.166300	-0.021638	1.033447	-0.233398	-1.740723	1.604481	33.891493	125.363412
13088		-5.587789	0.305764	8.027328	-0.001917	0.162969	-0.026452	1.035400	-0.233887	-1.739746	1.595908	33.982099	125.348900
13089		-5.272075	0.475179	8.055210	-0.019175	0.170323	-0.049850	1.034912	-0.233887	-1.740967	1.568986	34.076698	125.318684
13090		-5.320416	0.581785	8.122446	-0.043355	0.191877	-0.081326	1.036621	-0.234375	-1.737549	1.515557	34.184697	125.266603
13091		-5.467670	0.435855	8.075343	-0.074167	0.196733	-0.119502	1.043213	-0.234619	-1.739258	1.429981	34.295401	125.188306
13092		-5.418271	0.706724	8.118627	-0.103775	0.201639	-0.155230	1.052734	-0.226074	-1.736084	1.312645	34.409871	125.084595
13093		-5.498374	0.476972	8.069148	-0.137082	0.214401	-0.211595	1.052979	-0.232422	-1.730713	1.154254	34.531560	124.941797
13094		-5.656828	0.242762	8.037964	-0.145050	0.218407	-0.230053	1.060303	-0.223877	-1.743408	0.982910	34.655979	124.785218
13095		-5.699762	-0.032406	8.100421	-0.133571	0.224209	-0.231055	1.068115	-0.212646	-1.734131	0.817624	34.782775	124.627678
13096		-5.764310	-0.220867	8.136778	-0.100473	0.222365	-0.219263	1.065918	-0.215088	-1.732422	0.674815	34.908660	124.477337
13097		-5.648037	-0.105776	8.217335	-0.045609	0.233722	-0.216117	1.069824	-0.211182	-1.734863	0.564667	35.040179	124.329068
13098		-5.467993	0.044415	8.292760	0.010257	0.264999	-0.229367	1.073486	-0.213135	-1.743408	0.480156	35.190060	124.170815
13099		-5.051660	0.524146	8.583862	0.027987	0.333532	-0.245899	1.087891	-0.211426	-1.728271	0.399137	35.378512	124.001110
13100		-4.442445	-0.151005	8.548051	-0.093083	0.487681	-0.215529	1.092285	-0.206543	-1.731934	0.259888	35.655463	123.852101
13101		-5.316857	-0.131516	8.302254	-0.037469	0.601669	-0.178882	1.105225	-0.200684	-1.725830	0.166983	35.996855	123.728393
13102		-4.998931	-0.416770	8.450162	-0.022471	0.684445	-0.134417	1.124268	-0.204834	-1.730469	0.099505	36.385963	123.634837
13103		-4.992944	-0.241490	8.440959	0.003799	0.821167	-0.105997	1.124512	-0.206543	-1.714844	0.058681	36.852823	123.561117
13104		-4.961475	-0.186190	8.634124	0.013890	0.966719	-0.073087	1.147217	-0.202393	-1.709473	0.036355	37.403463	123.509910
13105		-5.577936	-0.693270	8.621103	0.049236	1.148090	-0.045798	1.164063	-0.204590	-1.702881	0.046311	38.057572	123.478489
13106		-5.344591	-0.642722	8.660731	0.103191	1.333511	0.005062	1.188232	-0.209961	-1.687500	0.109620	38.818266	123.484242
13107		-4.719912	-0.296683	9.075545	0.143431	1.573262	0.019012	1.221924	-0.215088	-1.674072	0.204442	39.715928	123.502676
13108		-4.886299	0.177638	9.010316	0.135603	1.888260	-0.010016	1.243896	-0.216553	-1.652832	0.282211	40.794390	123.501871
13109		-4.700145	0.317816	9.115957	0.113134	2.238098	-0.086268	1.279053	-0.218506	-1.639404	0.311032	42.073244	123.445998
13110		-4.552599	0.260309	9.040509	0.095643	2.631769	-0.175578	1.330078	-0.209717	-1.608643	0.280907	43.578053	123.320177
13111		-4.848545	0.283457	9.409575	0.102288	3.085017	-0.234385	1.373535	-0.218018	-1.572266	0.217121	45.342487	123.144058
13112		-4.320121	-0.483411	9.104726	0.075282	3.534275	-0.283018	1.432617	-0.217529	-1.541992	0.097250	47.364155	122.917951
13113		-4.978844	-1.055070	9.169194	0.149865	4.034453	-0.267398	1.495117	-0.215820	-1.490723	0.014379	49.672162	122.691448
13114		-4.408707	-0.753186	8.914212	0.112618	4.538196	-0.245587	1.564209	-0.216553	-1.431396	-0.095743	52.268280	122.465868
13115		-4.716051	-0.105526	9.136377	0.001007	5.152596	-0.234929	1.634033	-0.215820	-1.363037	-0.290043	55.216324	122.223068
13116		-4.619434	-0.787538	8.744133	-0.071003	5.816442	-0.209408	1.714355	-0.221924	-1.285645	-0.550823	58.543693	121.959635
13117		-5.165161	-0.318772	8.628502	-0.079477	6.535796	-0.158138	1.801758	-0.222900	-1.184326	-0.833012	62.283366	121.686545
13118		-6.358306	-0.236170	8.792162	-0.244637	7.266617	-0.085811	1.891113	-0.225098	-1.068359	-1.230334	66.440742	121.400814
13119		-7.949883	-0.248668	9.963687	-0.384349	8.054712	-0.016135	1.983643	-0.217285	-0.935547	-1.782985	71.050242	121.043489
13120		-13.859745	1.781062	12.716279	-0.067595	8.572211	0.052618	2.063477	-0.223633	-0.788330	-2.310082	75.954859	120.533875
13121		-17.803716	7.461162	13.594502	-0.192497	8.706308	-0.367797	2.124268	-0.237549	-0.643555	-4.997010	80.917277	117.905416
13122		-20.331058	0.348083	11.716656	-0.280292	8.464007	-0.828431	2.168457	-0.219971	-0.496826	-16.918439	85.607780	106.072472
13123		-21.911829	0.468583	13.149162	0.335379	8.125657	-0.961500	2.183594	-0.221924	-0.357666	-103.687437	88.126541	19.038484
13124		-26.024596	7.481376	16.622396	0.184120	7.461370	-1.485348	2.184082	-0.204834	-0.243896	-150.365022	84.585405	-27.810157
13125		-20.770064	8.158200	18.704932	-0.470041	6.365634	-1.802420	2.175781	-0.201172	-0.174316	-156.239176	80.862259	-33.458329
13126		-8.025310	3.911346	17.311546	-0.679576	5.750776	-1.819153	2.145752	-0.185059	-0.118896	-158.252460	77.427531	-35.111905
13127		3.851489	-6.958878	11.395205	0.018021	6.058202	-2.220864	2.135986	-0.158691	-0.064453	-158.600896	73.735496	-35.483149
13128		-35.505522	-4.547125	15.375669	1.156847	6.639473	-3.112085	2.128418	-0.129150	-0.007568	-157.257850	69.548189	-34.768448
13129		-27.207023	-2.660235	21.299807	2.098263	2.378431	-3.147509	2.083984	-0.095947	-0.033447	-153.331397	67.559629	-31.843298
13130		-19.382592	3.337232	19.817975	2.626628	-0.089026	-3.041549	2.030273	-0.072998	-0.139648	-148.146159	66.761305	-27.852129
13131		-12.269400	6.690134	15.678332	2.401228	-2.114425	-2.824369	1.957275	-0.062988	-0.267578	-142.051188	66.832621	-22.719404
13132		-6.410545	8.991998	12.145996	1.740117	-3.192388	-2.527252	1.880371	-0.069092	-0.400146	-135.617742	67.266967	-16.818927
13133		-2.123636	8.903394	8.963880	0.877918	-3.660352	-2.144318	1.785645	-0.073242	-0.524658	-129.361376	67.781488	-10.594720
13134		-0.854071	7.344689	6.890490	0.183093	-3.848762	-1.675365	1.686035	-0.081055	-0.650391	-123.411336	68.327064	-4.296670
13135		-1.808137	5.437664	5.969492	-0.204171	-4.055575	-1.169827	1.577393	-0.106689	-0.750488	-117.530057	68.931291	2.142458
13136		-2.162647	3.631082	5.672800	-0.209365	-4.290622	-0.626722	1.467041	-0.121826	-0.831787	-111.305911	69.629659	8.921011
13137		-2.029945	2.524862	5.285019	0.036712	-4.485749	-0.085160	1.343018	-0.156006	-0.912354	-104.508097	70.376918	16.130254
13138		-2.354516	2.187657	5.042402	0.371197	-4.609314	0.379517	1.233643	-0.190430	-0.971436	-96.943768	71.089080	23.913175
13139		-3.016161	2.295552	5.084135	0.655688	-4.730985	0.714323	1.113281	-0.225830	-1.021484	-88.579971	71.631005	32.340749
13140		-4.076823	2.344826	5.515966	0.844212	-4.858033	0.929603	1.006348	-0.262695	-1.059326	-79.477478	71.873700	41.410346
13141		-5.452182	2.284759	6.056748	0.956643	-5.065045	1.059923	0.886963	-0.294678	-1.080811	-69.913051	71.692752	50.899111
13142		-6.131927	2.086869	6.494328	1.030672	-5.323538	1.163635	0.776123	-0.330811	-1.102051	-60.238216	71.006958	60.480509
13143		-6.879794	1.792027	6.915176	1.109580	-5.601945	1.282050	0.677246	-0.360596	-1.115723	-50.976956	69.795039	69.632577
13144		-7.791081	1.304573	7.467188	1.224381	-5.877968	1.460745	0.569336	-0.388672	-1.120117	-42.376594	68.081679	78.089729
13145		-9.421749	0.605346	7.790867	1.421087	-6.171900	1.684140	0.463623	-0.417236	-1.119873	-34.585766	65.907075	85.664747
13146		-10.871240	0.511833	7.863839	1.687518	-6.514967	1.968832	0.357422	-0.456787	-1.104736	-27.500018	63.275853	92.430956
13147		-10.299151	-0.138533	6.477126	1.909236	-6.753554	2.338966	0.242432	-0.496094	-1.097656	-21.149410	60.295170	98.391597
13148		-7.691320	-1.768817	3.995529	2.167940	-6.536833	2.748072	0.148438	-0.522217	-1.078857	-15.482114	57.218883	103.559444
13149		-8.100512	-2.745153	3.329005	2.426055	-5.828181	3.049616	0.052490	-0.548584	-1.047119	-10.479128	54.352180	107.924703
13150		-11.871191	-2.722331	5.595789	2.535275	-5.133474	3.149103	-0.026855	-0.583740	-1.000977	-6.079658	51.686300	111.607209
13151		-15.942999	-1.586701	9.086303	2.433159	-4.813814	2.986114	-0.101318	-0.598389	-0.968262	-2.376055	49.057467	114.602971
13152		-18.946475	-0.383617	10.468208	2.053213	-4.902472	2.657217	-0.170898	-0.616943	-0.935303	0.529502	46.258548	116.936817
13153		-20.921669	1.840296	10.483219	1.373918	-5.114118	2.169979	-0.236084	-0.622803	-0.895508	2.475940	43.292796	118.580410
13154		-23.192009	1.394753	10.774443	0.774793	-5.313507	1.602296	-0.297119	-0.623047	-0.857910	3.600595	40.189552	119.597577
13155		-24.675070	-0.622877	10.466352	0.731186	-5.667886	1.222443	-0.353027	-0.624756	-0.816895	4.397465	36.897341	120.202098
13156		-22.369668	-0.466506	8.818317	1.075541	-6.060679	1.163676	-0.413574	-0.620850	-0.773926	5.280840	33.367265	120.659965
13157		-19.410600	1.825091	7.717414	1.319283	-6.136676	1.342998	-0.459229	-0.628662	-0.735596	6.291056	29.787747	121.143064
13158		-18.075775	2.673847	7.074726	1.250317	-5.937520	1.632891	-0.511719	-0.623291	-0.695801	7.293080	26.286129	121.742531
13159		-17.148383	0.981642	6.209634	1.148344	-5.648754	1.962130	-0.567627	-0.629395	-0.658203	8.261995	22.923414	122.486255
13160		-17.021138	-0.903102	5.749855	1.188471	-5.268375	2.177023	-0.606201	-0.620605	-0.621826	9.249597	19.738030	123.318456
13161		-17.596691	-2.183849	4.877786	1.321228	-4.888813	2.322246	-0.657471	-0.610352	-0.577881	10.283512	16.747963	124.198992
13162		-17.340988	-2.195225	3.667535	1.383919	-4.490513	2.325419	-0.696045	-0.599365	-0.535400	11.307523	13.959885	125.057822
13163		-18.282865	-2.041237	2.407918	1.266705	-4.020649	2.201338	-0.732666	-0.591064	-0.496582	12.206970	11.443687	125.842503
13164		-19.373166	-3.093188	0.151571	1.050529	-3.584574	1.995115	-0.766113	-0.588867	-0.472412	12.934012	9.180293	126.523075
13165		-19.383884	-5.730341	-3.501265	0.925377	-3.113508	1.804458	-0.790771	-0.575684	-0.431885	13.551307	7.203130	127.126981
13166		-20.492919	-8.849043	-7.081859	1.005442	-2.430891	1.670294	-0.815430	-0.558105	-0.404297	14.197188	5.612868	127.726332
13167		-22.294863	-9.552250	-10.665092	1.124042	-1.655304	1.450635	-0.828857	-0.549072	-0.386719	14.892237	4.482265	128.294811
13168		-22.636161	-9.286809	-14.078444	0.966526	-0.697128	1.106779	-0.845703	-0.551025	-0.359863	15.485642	3.923693	128.803720
13169		-23.601727	-8.904428	-15.039381	0.487613	0.459068	0.590714	-0.842773	-0.549072	-0.371582	15.793760	4.081897	129.201401
13170		-22.397933	-6.866882	-10.689844	-0.201422	1.557027	-0.096261	-0.838379	-0.543457	-0.386230	15.695216	4.950399	129.391008
13171		-4.204212	-0.895943	5.421296	-1.697201	3.333622	-1.099467	-0.827393	-0.543457	-0.421387	14.712500	6.954910	129.283355
13172		1.350989	-2.195875	13.378978	-1.694459	2.371580	-1.167299	-0.812256	-0.547852	-0.438965	13.700771	8.432238	128.965724
13173		0.958046	19.790047	19.975603	-2.528961	2.749425	-1.026260	-0.791260	-0.543701	-0.467773	12.216816	10.095396	128.743127
13174		12.577812	22.867640	5.979660	-3.899848	2.925258	-1.753801	-0.781982	-0.531494	-0.518311	9.854811	11.928358	128.065730
13175		-1.412624	-3.577777	5.193609	-4.410278	4.407808	-1.637998	-0.745361	-0.518311	-0.579102	7.198167	14.561063	127.497376
13176		-14.864541	-18.753912	8.376369	-3.149232	4.348643	-0.118539	-0.722900	-0.500488	-0.618408	5.455115	17.040006	127.713659
13177		-8.044949	-17.330959	10.912789	-1.917331	4.110155	0.303241	-0.700439	-0.485107	-0.663086	4.481587	19.367232	128.111156
13178		-11.272964	-19.043823	16.768507	-0.935436	4.254502	-0.692249	-0.677002	-0.475098	-0.690918	3.865083	21.823129	127.878925
13179		-18.725177	-6.029486	14.990749	0.089680	3.757934	-0.649056	-0.646729	-0.490723	-0.707275	3.821912	23.992569	127.633535
13180		-16.351544	10.404839	15.632283	-0.085695	3.400053	0.044190	-0.629639	-0.489258	-0.731689	3.845610	25.931138	127.805404
13181		-24.081907	13.778622	13.488415	-1.614821	2.454421	-0.047624	-0.606934	-0.481689	-0.747559	2.949800	27.332768	127.868946
13182		-13.186456	-12.384549	11.298363	-1.188944	1.699775	-0.167657	-0.598633	-0.468750	-0.769531	2.242708	28.307513	127.811164
13183		-7.096937	-6.766204	9.393630	-0.605371	1.193763	-0.314566	-0.589600	-0.467529	-0.778320	1.812065	28.993673	127.634384
13184		-8.173789	7.208266	8.707477	-0.554733	1.005804	-0.106331	-0.579102	-0.461426	-0.784180	1.469933	29.569334	127.583918
13185		-10.206945	-1.103004	9.875427	-0.807268	0.548628	-0.174448	-0.575439	-0.457764	-0.786621	0.955596	29.881968	127.477475
13186		-7.834697	-3.195811	9.531475	-0.589231	0.219972	-0.225904	-0.570557	-0.451416	-0.795898	0.545292	30.007859	127.330632
13187		-6.262103	0.255784	9.153145	-0.492156	0.142041	-0.149693	-0.566650	-0.458252	-0.795654	0.215501	30.086071	127.233209
13188		-5.895078	-2.411673	9.272020	-0.386113	0.144205	-0.138297	-0.577148	-0.449219	-0.797607	-0.050869	30.167120	127.142306
13189		-5.768489	-1.813865	9.133969	-0.214453	0.187153	-0.056030	-0.563232	-0.452393	-0.803955	-0.191058	30.270553	127.105965
13190		-5.256011	-1.208580	8.964827	-0.086593	0.209378	-0.001942	-0.568115	-0.442139	-0.800293	-0.241019	30.388873	127.104635
13191		-5.326879	-0.870969	8.754679	-0.009582	0.238938	0.036645	-0.561768	-0.446533	-0.801270	-0.232973	30.522132	127.129419
13192		-5.238541	-0.401623	8.531446	0.045682	0.240564	0.051686	-0.558105	-0.444336	-0.808594	-0.189124	30.658451	127.163659
13193		-4.985276	-0.030349	8.592473	0.059893	0.253864	0.050388	-0.562744	-0.448730	-0.804199	-0.136365	30.800256	127.197845
13194		-5.077373	0.087433	8.447586	0.057002	0.263128	0.030299	-0.560303	-0.449707	-0.810303	-0.093059	30.949440	127.218128
13195		-4.925961	0.027617	8.476805	0.052310	0.265624	0.033320	-0.552490	-0.444092	-0.801514	-0.050190	31.097925	127.241262
13196		-5.021287	0.344409	8.487571	0.030982	0.269254	0.023476	-0.556152	-0.446045	-0.811523	-0.023909	31.250596	127.257269
13197		-5.136068	0.279006	8.425418	-0.003097	0.258144	0.013855	-0.553955	-0.449463	-0.808838	-0.019353	31.394773	127.267574
13198		-5.182013	0.054780	8.391471	-0.013209	0.238772	0.004701	-0.547607	-0.452881	-0.810791	-0.024822	31.529976	127.271085
13199		-5.264477	-0.048597	8.299938	-0.013813	0.216752	0.002457	-0.547119	-0.437744	-0.814453	-0.030367	31.650436	127.273748
13200		-4.906094	-0.296031	8.382976	0.013146	0.221192	0.016446	-0.552002	-0.445557	-0.816650	-0.016561	31.775585	127.285175
13201		-4.963890	-0.384161	8.400888	0.038482	0.223639	0.032869	-0.547607	-0.448975	-0.814941	0.018727	31.899989	127.308428
13202		-4.937618	-0.211853	8.379389	0.060269	0.235301	0.047656	-0.543701	-0.453125	-0.814941	0.070809	32.033185	127.341122
13203		-5.093104	0.005544	8.309911	0.066975	0.243225	0.054409	-0.539551	-0.445801	-0.814209	0.130439	32.168754	127.379289
13204		-5.201453	0.153448	8.247316	0.066780	0.243155	0.050010	-0.533936	-0.447998	-0.815186	0.187446	32.306382	127.413990
13205		-5.207012	0.183817	8.201976	0.061466	0.238748	0.039575	-0.544434	-0.447998	-0.817139	0.238909	32.439355	127.442511
13206		-5.457114	0.171610	8.184829	0.053160	0.233878	0.032375	-0.537109	-0.450684	-0.820801	0.282018	32.571670	127.465594
13207		-5.344344	0.260613	8.142593	0.045962	0.206638	0.007570	-0.544189	-0.455078	-0.819580	0.313073	32.686305	127.472542
13208		-5.480366	0.415406	8.074604	0.027318	0.202091	-0.005770	-0.538330	-0.448486	-0.823486	0.327473	32.800529	127.469749
13209		-5.583437	-0.179795	8.121492	0.025211	0.187364	-0.011914	-0.532959	-0.450439	-0.822754	0.339467	32.904183	127.463435
13210		-5.286946	-0.217109	8.167722	0.047895	0.185569	0.007945	-0.532471	-0.451416	-0.822998	0.370751	33.008925	127.470010
13211		-5.177707	0.256880	8.248048	0.045719	0.185755	0.002742	-0.528076	-0.449951	-0.824219	0.399990	33.111605	127.473805
13212		-5.358831	0.159916	8.313191	0.039968	0.210939	-0.009991	-0.528809	-0.450195	-0.827148	0.420170	33.230949	127.468356
13213		-5.554890	0.234590	8.197405	0.037248	0.224029	-0.009390	-0.535400	-0.444092	-0.824463	0.440170	33.355607	127.464138
13214		-5.531237	0.270507	8.227652	0.035630	0.227121	-0.026275	-0.521973	-0.448242	-0.816650	0.451788	33.484307	127.447673
13215		-5.350945	0.221628	8.253582	0.020183	0.224706	-0.035441	-0.524658	-0.448730	-0.820313	0.452125	33.609473	127.425594
13216		-5.388127	0.170021	8.325665	0.022106	0.253541	-0.047191	-0.520264	-0.453613	-0.827148	0.448019	33.753409	127.394838
13217		-5.381621	0.110327	8.247176	0.015564	0.268975	-0.061888	-0.517822	-0.456299	-0.831055	0.435540	33.904053	127.354655
13218		-5.384085	-0.127797	8.149848	0.035617	0.299645	-0.069627	-0.516846	-0.453613	-0.828125	0.430418	34.074486	127.308472
13219		-5.550668	-0.319709	8.282062	0.068717	0.327821	-0.058496	-0.510742	-0.458740	-0.830078	0.449599	34.258829	127.270786
13220		-5.401348	0.032958	8.314612	0.106736	0.349435	-0.058830	-0.511963	-0.459961	-0.835205	0.489287	34.457759	127.232280
13221		-5.276751	0.008962	8.310305	0.151763	0.368350	-0.082213	-0.505859	-0.455811	-0.834473	0.546692	34.665487	127.178475
13222		-4.907232	0.264170	8.672703	0.206915	0.442694	-0.109011	-0.507813	-0.463867	-0.834229	0.624091	34.918179	127.105896
13223		-4.014533	-0.106439	8.857448	0.074617	0.665651	-0.081118	-0.502197	-0.460693	-0.832275	0.638717	35.296318	127.055297
13224		-5.204247	-0.592784	8.648669	0.153919	0.814221	-0.009614	-0.488525	-0.469727	-0.841309	0.727379	35.761154	127.055666
13225		-4.848080	-0.774766	8.851211	0.186684	0.956343	0.059777	-0.486572	-0.463379	-0.840820	0.866401	36.304827	127.108510
13226		-4.827022	-0.195587	8.801959	0.223452	1.144890	0.117602	-0.472900	-0.472900	-0.845459	1.053026	36.957769	127.206370
13227		-5.152201	-0.283813	8.883709	0.245447	1.355314	0.144644	-0.461426	-0.474854	-0.856934	1.270509	37.728720	127.331454
13228		-5.612881	-0.086705	8.514926	0.253943	1.578187	0.164529	-0.449219	-0.461914	-0.862549	1.507629	38.628463	127.479360
13229		-4.768191	0.241483	8.703289	0.243054	1.825123	0.150271	-0.436768	-0.474121	-0.868164	1.742736	39.667565	127.629625
13230		-4.549137	0.857740	8.875928	0.219168	2.165088	0.055453	-0.416504	-0.473145	-0.874512	1.929174	40.904343	127.723417
13231		-4.536051	0.841441	8.823705	0.148455	2.533310	-0.079253	-0.388184	-0.474609	-0.886963	2.020028	42.352767	127.730670
13232		-4.789155	0.396941	8.834803	0.136665	2.910769	-0.176444	-0.360107	-0.487549	-0.892334	2.059543	44.020744	127.673582
13233		-4.825793	-0.019483	8.680867	0.149607	3.264752	-0.226135	-0.329834	-0.482422	-0.907959	2.085278	45.891012	127.587309
13234		-5.400642	-0.181647	9.355766	0.104764	3.670254	-0.210691	-0.298584	-0.490479	-0.922119	2.098651	47.994337	127.523040
13235		-3.765463	-1.520764	8.735997	0.141972	4.180485	-0.146476	-0.261963	-0.489990	-0.926270	2.188513	50.387280	127.532991
13236		-4.429032	-0.515354	8.902678	0.122130	4.864636	-0.101276	-0.225830	-0.491943	-0.945068	2.324326	53.171684	127.616382
13237		-4.363115	-0.344910	9.186132	0.039765	5.427702	-0.039825	-0.157715	-0.494141	-0.946045	2.502075	56.275970	127.804933
13238		-5.136591	-0.107076	9.028623	-0.022535	6.168299	-0.004729	-0.096436	-0.489990	-0.963379	2.743975	59.803157	128.104741
13239		-4.983407	-0.534540	8.531437	-0.160435	6.953053	0.108266	-0.040771	-0.492676	-0.960693	3.151955	63.774774	128.670625
13240		-7.248765	-0.709519	10.416853	-0.205617	7.775530	0.265797	0.037354	-0.493652	-0.959717	3.998858	68.207909	129.725502
13241		-12.013339	1.187720	12.808218	-0.184358	8.338726	0.314303	0.110107	-0.483643	-0.958984	5.531661	72.950902	131.460310
13242		-14.361261	3.748927	12.591009	0.062613	8.710859	0.198548	0.191162	-0.489990	-0.939941	8.313443	77.888608	134.294297
13243		-21.021497	4.784643	13.740797	0.139193	8.500572	-0.186016	0.271729	-0.488281	-0.926270	13.068620	82.694543	139.032375
13244		-21.880019	1.397525	13.519971	-0.037789	8.242964	-0.600595	0.358154	-0.488037	-0.897705	28.502763	87.268525	154.533957
13245		-21.552065	3.254118	14.768099	0.111062	7.889262	-0.911921	0.432129	-0.484375	-0.860840	159.724604	87.743411	-74.268344
13246		-24.843081	6.365159	19.818376	-0.319069	6.916516	-1.194484	0.500732	-0.473145	-0.836670	178.936912	83.928030	-54.834228
13247		-11.658529	4.182885	18.625027	-0.409298	6.237585	-1.134369	0.550537	-0.463379	-0.803711	-177.026563	80.345048	-50.525697
13248		-1.785261	-3.295014	15.788432	0.202070	6.194736	-1.074286	0.603516	-0.462158	-0.763672	-175.082068	76.770655	-48.661747
13249		-13.770101	-4.200921	11.439451	1.294884	6.836748	-2.263525	0.673584	-0.452393	-0.723145	-171.316755	72.729842	-45.531344
13250		-40.414130	-2.939622	24.328051	1.806390	3.637208	-2.733746	0.699951	-0.442139	-0.685547	-166.845058	70.396668	-41.911110
13251		-18.553936	2.516392	20.486251	2.041492	0.432430	-3.015659	0.712158	-0.436035	-0.687256	-161.284673	69.687332	-37.241396
13252		-12.746363	4.054743	17.331372	1.879350	-1.773071	-3.089026	0.700684	-0.431152	-0.688477	-154.686563	69.979695	-31.362315
13253		-5.232761	5.584587	13.314042	1.579655	-2.968271	-2.987575	0.694580	-0.419434	-0.712158	-147.284838	70.641555	-24.464476
13254		-0.830979	5.983345	9.218564	1.138930	-3.277670	-2.826306	0.675537	-0.398926	-0.734619	-139.605823	71.200803	-17.033811
13255		1.157611	5.963450	6.479371	0.710729	-3.242003	-2.561091	0.651123	-0.396973	-0.758057	-132.230765	71.518263	-9.682369
13256		0.926423	5.915717	5.643281	0.277154	-3.140929	-2.294230	0.627930	-0.383301	-0.775879	-125.346418	71.633751	-2.598056
13257		-0.674853	4.818550	6.040308	-0.047622	-3.133843	-1.988955	0.594971	-0.380859	-0.806396	-118.956306	71.627198	4.162106
13258		-1.896662	3.079841	6.579688	-0.067157	-3.273618	-1.586551	0.568359	-0.368164	-0.827637	-112.666397	71.635737	10.825102
13259		-3.229863	1.674043	6.962422	0.199249	-3.487794	-1.102698	0.521484	-0.375977	-0.852539	-106.214344	71.707288	17.499916
13260		-4.861489	0.888560	7.503747	0.660353	-3.883496	-0.592301	0.470215	-0.374023	-0.874023	-98.949711	71.868032	24.743298
13261		-6.348670	0.601747	8.001476	1.150532	-4.421088	-0.111189	0.407959	-0.388184	-0.897949	-90.512312	72.015052	32.922014
13262		-7.172133	0.931168	8.352275	1.566229	-5.054897	0.328953	0.345703	-0.418457	-0.917969	-80.608972	71.980533	42.383733
13263		-6.890050	1.709591	8.046629	1.748225	-5.635071	0.681996	0.251465	-0.441650	-0.921631	-69.807036	71.532211	52.698589
13264		-6.613544	1.839227	7.742830	1.736592	-6.031228	0.926032	0.161133	-0.474121	-0.922852	-59.006598	70.508814	63.058037
13265		-7.252409	1.144108	7.880643	1.666780	-6.339156	1.103608	0.062256	-0.497559	-0.911621	-49.079350	68.881110	72.619761
13266		-8.386012	-0.204665	8.154353	1.693208	-6.647309	1.246858	-0.050537	-0.519531	-0.889404	-40.257559	66.657244	81.091264
13267		-9.250815	-1.418086	8.039763	1.903936	-6.978155	1.417076	-0.173096	-0.549561	-0.861084	-32.575840	63.914230	88.341329
13268		-7.723252	-1.972381	6.380819	2.228269	-7.146691	1.626649	-0.303711	-0.577393	-0.795898	-25.893010	60.775822	94.433609
13269		-5.033141	-2.462547	3.532580	2.581771	-6.825840	1.890692	-0.428711	-0.605713	-0.717041	-20.169052	57.594757	99.371495
13270		-7.307995	-2.975574	3.786097	2.826121	-6.015734	2.108422	-0.526123	-0.615723	-0.610107	-15.249836	54.658342	103.336431
13271		-11.679558	-2.138062	6.541588	2.854066	-5.404560	2.272604	-0.623535	-0.625977	-0.481445	-10.966716	51.933416	106.636045
13272		-13.193169	-0.071317	9.504435	2.554430	-5.104408	2.296303	-0.693359	-0.613770	-0.333984	-7.340274	49.234507	109.427035
13273		-16.296148	1.047730	11.484058	1.982800	-5.006918	2.353123	-0.729736	-0.579590	-0.175293	-4.393776	46.514493	111.865482
13274		-18.774720	2.715025	12.059441	1.240817	-5.034949	2.424080	-0.721191	-0.519287	-0.027588	-2.114559	43.691936	114.070884
13275		-20.789768	2.335016	12.377394	0.530417	-5.034480	2.349321	-0.680420	-0.473633	0.094482	-0.525022	40.835121	115.980229
13276		-25.051117	0.307027	13.142833	0.267323	-5.182422	2.168698	-0.602783	-0.421631	0.185791	0.653636	37.843542	117.589072
13277		-26.688495	-0.702574	12.109150	0.437038	-5.684440	2.063302	-0.509766	-0.369873	0.241943	1.721634	34.558850	118.970973
13278		-22.568944	0.522757	9.432609	0.637521	-6.123770	2.124728	-0.419922	-0.322998	0.283447	2.789092	30.985363	120.258051
13279		-19.098816	1.800287	8.238666	0.624147	-6.117948	2.203799	-0.335449	-0.295654	0.270020	3.741310	27.409875	121.474069
13280		-17.843070	2.328316	8.156738	0.508749	-5.876153	2.269342	-0.264160	-0.272461	0.244141	4.545961	23.939664	122.646310
13281		-17.631019	0.810454	8.038465	0.429748	-5.635108	2.408879	-0.214844	-0.249512	0.219971	5.243961	20.601057	123.835079
13282		-16.727627	-0.018314	7.577283	0.572537	-5.455311	2.566535	-0.179443	-0.225098	0.184326	5.975742	17.329671	125.061769
13283		-15.814268	-1.226194	6.873160	0.748305	-5.174797	2.728380	-0.154785	-0.228760	0.160156	6.751715	14.205782	126.335006
13284		-16.152692	-1.358080	5.122950	0.952123	-4.833010	2.832126	-0.143066	-0.218262	0.129150	7.587610	11.240285	127.632710
13285		-15.423500	-0.527291	2.293418	0.952062	-4.357791	2.732852	-0.132324	-0.203857	0.095703	8.344418	8.546620	128.855850
13286		-16.387735	-1.547755	0.370122	0.835708	-3.733567	2.376385	-0.125977	-0.197998	0.070557	8.959965	6.213156	129.889640
13287		-17.582996	-5.493873	-1.854575	0.958054	-3.120999	1.935243	-0.132324	-0.197266	0.055908	9.583892	4.265798	130.699496
13288		-17.883551	-9.139084	-4.679805	1.460711	-2.552985	1.557753	-0.124756	-0.202881	0.039063	10.461913	2.658290	131.325575
13289		-18.386700	-8.676893	-6.877996	1.868148	-1.960666	1.289765	-0.128174	-0.204834	0.034668	11.551463	1.410645	131.836975
13290		-17.800493	-5.130733	-8.271836	1.542764	-1.272135	1.028961	-0.131592	-0.205811	0.021729	12.444928	0.565653	132.262497
13291		-16.921926	-2.186654	-8.108883	0.510411	-0.462308	0.618932	-0.131348	-0.201660	0.011719	12.740341	0.225972	132.550926
13292		-17.053377	-2.949603	-5.283849	-0.486623	0.238170	0.197947	-0.114014	-0.201172	-0.003662	12.464108	0.327097	132.691573
13293		-17.641801	-5.111251	-3.105055	-0.834748	0.620820	-0.038723	-0.118896	-0.199951	-0.010742	11.987276	0.675576	132.745321
13294		-15.529037	-4.262876	-1.962581	-0.702959	0.899878	-0.018811	-0.110107	-0.195801	-0.025146	11.587561	1.177393	132.840288
13295		-0.443800	0.374538	3.141358	-0.718606	2.164840	-0.390724	-0.100098	-0.193848	-0.035645	11.177591	2.433685	132.865793
13296		-2.397918	0.383588	-2.874465	-0.613549	3.332325	-0.961211	-0.091553	-0.191406	-0.049072	10.816746	4.408878	132.689294
13297		-4.923167	12.828848	15.657880	-1.765699	3.581985	-1.178431	-0.069580	-0.192627	-0.060303	9.777428	6.544969	132.390728
13298		3.320045	6.665142	11.263057	-2.543186	2.997493	-1.401544	-0.060547	-0.182861	-0.067139	8.253602	8.363293	131.862761
13299		0.292701	1.405129	5.944914	-2.483961	3.588373	-0.757431	-0.041748	-0.180420	-0.075439	6.804628	10.454531	131.700169
13300		-8.249117	-5.366933	8.088313	-1.814159	4.391714	0.116009	-0.032227	-0.178467	-0.086426	5.838531	12.944082	132.051332
13301		-13.197052	-9.748347	16.505637	-1.087247	4.369426	0.317241	-0.020996	-0.176270	-0.093262	5.323837	15.414216	132.489584
13302		-13.555485	-9.535839	19.426106	-0.428755	4.251022	-0.247609	-0.005371	-0.177246	-0.098877	5.103407	17.849637	132.573751
13303		-17.839020	-3.025883	15.921858	0.078736	4.071003	-0.382000	0.009033	-0.167969	-0.108887	5.146378	20.188564	132.564171
13304		-17.129518	3.385325	15.356476	0.088012	3.667361	0.081198	0.022461	-0.169922	-0.104248	5.289370	22.275113	132.819108
13305		-19.811751	9.378140	14.968135	-0.969918	2.768674	0.125054	0.023926	-0.169678	-0.103027	4.824753	23.845140	133.049281
13306		-7.799789	-0.624913	8.585803	-1.130162	2.250460	0.002314	0.032227	-0.170654	-0.112061	4.225225	25.130171	133.163026
13307		-10.972912	-4.286518	10.019756	-0.682895	2.028291	-0.191934	0.026855	-0.166748	-0.109619	3.821671	26.293345	133.132499
13308		-10.209351	1.600129	8.620857	-0.578522	1.516130	-0.442041	0.042969	-0.160889	-0.110596	3.391072	27.176611	132.911017
13309		-5.955036	3.236727	8.694002	-0.802844	1.379160	-0.460346	0.052246	-0.164307	-0.114990	2.817213	27.976145	132.662973
13310		-8.079115	1.924439	9.785852	-1.053363	1.226178	-0.547890	0.048340	-0.154297	-0.111328	2.061656	28.692241	132.341167
13311		-5.336492	-0.235911	8.890827	-1.196086	1.069188	-0.553603	0.053467	-0.159424	-0.113281	1.211705	29.309879	131.999587
13312		-8.540662	-2.580551	10.837969	-1.085351	0.883356	-0.509081	0.057373	-0.151123	-0.119629	0.429572	29.821169	131.673277
13313		-6.926847	-2.211540	9.846169	-0.859479	0.665273	-0.417087	0.054199	-0.147461	-0.121826	-0.198960	30.199076	131.399246
13314		-4.896200	-0.762198	9.256763	-0.666774	0.590257	-0.286292	0.060303	-0.156006	-0.116943	-0.677940	30.537280	131.206669
13315		-6.127925	-1.272593	8.884746	-0.578970	0.543779	-0.256170	0.070557	-0.153076	-0.122314	-1.098081	30.842801	131.031531
13316		-6.623756	-1.996181	8.446130	-0.410504	0.473743	-0.156835	0.063965	-0.153320	-0.126709	-1.390213	31.113531	130.920373
13317		-5.995399	-1.919381	8.664111	-0.249318	0.397722	-0.068148	0.073242	-0.145996	-0.120361	-1.558689	31.336609	130.869058
13318		-5.808543	-1.634500	8.463165	-0.107839	0.331512	-0.014289	0.064209	-0.147217	-0.119141	-1.628442	31.527703	130.853643
13319		-5.761153	-1.052965	8.417151	-0.007602	0.324767	0.024045	0.063965	-0.154053	-0.125732	-1.625967	31.710381	130.864814
13320		-5.814017	-0.969999	8.293558	0.074088	0.311979	0.052284	0.065186	-0.151611	-0.124756	-1.567952	31.891425	130.894453
13321		-5.576714	-0.902647	8.221033	0.134052	0.281794	0.076246	0.068604	-0.151123	-0.121582	-1.464945	32.050262	130.942095
13322		-5.597619	-0.275333	8.238447	0.165504	0.258850	0.084210	0.066895	-0.150635	-0.121582	-1.342139	32.201305	130.994949
13323		-5.676728	-0.146079	8.184661	0.174875	0.235670	0.081941	0.074463	-0.149170	-0.120361	-1.212602	32.333625	131.048084
13324		-5.562514	-0.018515	8.131503	0.171982	0.204306	0.082826	0.071045	-0.154053	-0.117432	-1.085478	32.453264	131.101662
13325		-5.583712	0.059535	8.087337	0.163811	0.179738	0.070632	0.061768	-0.153076	-0.119629	-0.965412	32.553228	131.148623
13326		-5.378191	0.180501	8.193471	0.147535	0.171936	0.057752	0.071533	-0.156006	-0.120850	-0.860721	32.653958	131.186200
13327		-5.241749	0.235069	8.196524	0.129956	0.173094	0.044286	0.070801	-0.154541	-0.120361	-0.769279	32.749755	131.215829
13328		-5.480894	0.191673	8.124431	0.117371	0.165372	0.026785	0.076172	-0.147949	-0.124023	-0.692863	32.846405	131.232829
13329		-5.548995	0.230859	8.070992	0.097882	0.144173	0.006868	0.067383	-0.151123	-0.117920	-0.633259	32.925318	131.237522
13330		-5.622625	0.163919	8.013192	0.074930	0.119914	-0.014936	0.068604	-0.148926	-0.118164	-0.596246	32.995673	131.226645
13331		-5.519153	0.170320	8.028893	0.057795	0.100870	-0.028842	0.072266	-0.157959	-0.121582	-0.572660	33.049563	131.207375
13332		-5.502112	0.207795	8.082549	0.037203	0.090150	-0.041906	0.066406	-0.158203	-0.112549	-0.567171	33.102762	131.178325
13333		-5.518159	0.235840	8.094797	0.012895	0.075326	-0.054488	0.070801	-0.152344	-0.112793	-0.578835	33.141873	131.141676
13334		-5.595549	0.136265	8.038276	-0.008274	0.048062	-0.076192	0.070068	-0.158936	-0.123779	-0.612090	33.170772	131.089433
13335		-5.469415	-0.177961	8.137748	-0.019136	0.048236	-0.074450	0.074951	-0.155273	-0.125000	-0.649545	33.194206	131.039251
13336		-5.560825	-0.150639	8.171826	-0.022206	0.045343	-0.072292	0.079346	-0.154541	-0.116211	-0.689383	33.221545	130.989633
13337		-5.502532	-0.234818	8.160897	-0.014595	0.047704	-0.064398	0.071777	-0.152344	-0.125000	-0.720534	33.244691	130.946275
13338		-5.410538	-0.208903	8.231207	-0.006473	0.056152	-0.057129	0.071289	-0.156006	-0.120361	-0.745810	33.278307	130.906877
13339		-5.315296	-0.099823	8.269907	-0.000486	0.067398	-0.054020	0.072998	-0.160889	-0.119385	-0.765140	33.312783	130.870399
13340		-5.507708	-0.172014	8.173059	-0.000901	0.075212	-0.049780	0.075195	-0.147461	-0.107910	-0.784642	33.357342	130.835798
13341		-5.668670	-0.206750	8.101412	0.005548	0.062881	-0.041496	0.075928	-0.146729	-0.118652	-0.795837	33.389310	130.807897
13342		-5.626321	-0.096825	8.111834	0.007184	0.061424	-0.038164	0.072021	-0.153076	-0.123779	-0.806329	33.426075	130.781338
13343		-5.635393	-0.129275	8.159247	0.007295	0.059538	-0.025106	0.068848	-0.155273	-0.118408	-0.810350	33.456253	130.764688
13344		-5.540342	-0.170111	8.139267	0.008485	0.065879	-0.017510	0.073242	-0.158447	-0.120850	-0.812340	33.495763	130.752242
13345		-5.555215	-0.090521	8.172115	0.012523	0.062692	-0.012414	0.070068	-0.152344	-0.125000	-0.808594	33.527851	130.744268
13346		-5.735179	-0.025439	8.029697	0.004980	0.054983	-0.001638	0.067383	-0.149902	-0.121826	-0.806525	33.561261	130.742827
13347		-5.665243	0.080190	7.993687	-0.016462	0.024052	-0.021854	0.075928	-0.156006	-0.114746	-0.822777	33.571135	130.728732
13348		-5.760131	-0.603711	7.999964	-0.019104	-0.002468	-0.014465	0.073486	-0.159912	-0.113281	-0.839051	33.571567	130.719044
13349		-5.865933	-0.209477	7.976765	-0.002388	-0.029867	0.017165	0.073730	-0.147949	-0.116943	-0.832110	33.550873	130.732311
13350		-5.784737	-0.020584	7.914766	-0.017293	-0.070627	0.006158	0.075439	-0.161377	-0.128174	-0.839182	33.512489	130.737458
13351		-5.736028	-0.511130	8.067667	-0.016441	-0.105472	0.012721	0.074951	-0.150391	-0.116455	-0.841578	33.448445	130.748425
13352		-5.295654	-0.012857	8.180817	0.002533	-0.101544	0.030438	0.075684	-0.156738	-0.125000	-0.827976	33.392605	130.770530
13353		-4.952402	0.251690	8.351731	-0.018326	-0.068382	0.020845	0.074219	-0.154297	-0.124268	-0.828624	33.349876	130.786672
13354		-5.473346	0.200926	8.176448	-0.038310	-0.046412	-0.009434	0.067627	-0.158203	-0.114258	-0.853739	33.325239	130.780898
13355		-5.292440	-0.621172	8.357808	-0.038633	-0.042109	-0.025749	0.073242	-0.145752	-0.117920	-0.883714	33.297167	130.764851
13356		-5.518413	-0.710924	8.345168	0.005375	-0.017571	0.024485	0.074951	-0.146973	-0.116943	-0.871203	33.289334	130.782041
13357		-5.534126	-0.272723	8.342410	0.034291	-0.001684	0.054647	0.070313	-0.150879	-0.118896	-0.829379	33.285108	130.820674
13358		-5.673336	-0.071476	8.322440	0.037167	-0.000775	0.061399	0.071777	-0.154785	-0.117676	-0.784928	33.287176	130.862950
13359		-5.917300	0.077399	8.226650	0.038608	-0.014226	0.048025	0.076172	-0.147705	-0.119385	-0.743067	33.275666	130.897150
13360		-5.840382	0.046408	8.048136	0.025251	-0.048040	0.032359	0.070068	-0.153320	-0.117676	-0.716122	33.250434	130.919942
13361		-5.674747	-0.028838	8.133488	0.025089	-0.071402	0.012901	0.077393	-0.149658	-0.117676	-0.694970	33.205890	130.930533
13362		-5.284606	-0.008261	8.179442	0.021212	-0.077057	0.005935	0.067627	-0.148926	-0.121094	-0.680136	33.163887	130.935443
13363		-5.274456	0.125966	8.171543	0.010150	-0.066662	-0.013357	0.071045	-0.150391	-0.116943	-0.677420	33.121877	130.927993
13364		-5.241962	-0.722509	8.253740	0.015847	-0.063900	-0.006388	0.072266	-0.154785	-0.123047	-0.670306	33.087310	130.924371
13365		-5.369951	-0.623926	8.164104	0.056803	-0.052161	0.046433	0.067627	-0.154053	-0.117920	-0.618620	33.053997	130.957663
13366		-4.980226	-0.077051	8.314955	0.081711	-0.017717	0.078324	0.072754	-0.161621	-0.118896	-0.542502	33.046368	131.011497
13367		-5.139165	0.073969	8.376888	0.077053	0.017904	0.069897	0.063721	-0.162109	-0.119629	-0.470765	33.053250	131.060301
13368		-5.362257	-0.287479	8.248684	0.072770	0.034868	0.064291	0.073730	-0.149170	-0.115234	-0.405131	33.075516	131.104253
13369		-5.369022	-0.156516	8.144835	0.086529	0.032215	0.074856	0.070313	-0.156738	-0.125488	-0.326103	33.090515	131.156424
13370		-5.235428	0.034718	8.158504	0.086439	0.029728	0.073927	0.073242	-0.159912	-0.119141	-0.248983	33.109759	131.207046
13371		-5.202779	0.112918	8.130598	0.073734	0.041156	0.067644	0.080322	-0.152100	-0.109375	-0.179928	33.129750	131.254329
13372		-5.389897	0.125061	8.092122	0.060906	0.038684	0.057770	0.075195	-0.153809	-0.121094	-0.123391	33.153975	131.293961
13373		-5.436842	0.195188	8.171307	0.047871	0.034604	0.040503	0.067871	-0.159668	-0.120605	-0.079245	33.170106	131.322745
13374		-5.303481	0.136497	8.212080	0.036641	0.035005	0.021824	0.077148	-0.158203	-0.119385	-0.049981	33.192151	131.337847
13375		-5.227292	0.095517	8.294843	0.026976	0.046245	0.002663	0.072754	-0.152344	-0.115723	-0.031963	33.214911	131.340748
13376		-5.375887	0.006991	8.225275	0.020808	0.063592	-0.003897	0.064941	-0.154785	-0.115479	-0.021380	33.253288	131.338261
13377		-5.378426	0.029530	8.258174	0.018968	0.067429	-0.010485	0.065186	-0.158447	-0.117188	-0.012885	33.288183	131.332161
13378		-5.400833	0.148435	8.219297	0.015220	0.071667	-0.018004	0.074219	-0.146973	-0.129639	-0.010809	33.331166	131.320012
13379		-5.354196	0.148612	8.243607	0.004490	0.074718	-0.031714	0.072021	-0.154297	-0.117676	-0.018625	33.370235	131.299346
13380		-5.293803	0.200193	8.219411	-0.010620	0.076464	-0.042465	0.067871	-0.154541	-0.125244	-0.040593	33.415936	131.270398
13381		-5.329448	0.129525	8.207248	-0.019542	0.087998	-0.053461	0.064209	-0.156494	-0.119141	-0.070469	33.462590	131.234737
13382		-5.444364	0.011313	8.194739	-0.024384	0.092381	-0.063538	0.076416	-0.153564	-0.116455	-0.108378	33.517337	131.191227
13383		-5.554580	-0.076515	8.130977	-0.020784	0.086571	-0.063462	0.069092	-0.157471	-0.114014	-0.142876	33.563123	131.148584
13384		-5.535043	-0.177222	8.164030	-0.011051	0.083136	-0.062115	0.070068	-0.155029	-0.114746	-0.172733	33.612528	131.105945
13385		-5.570244	-0.054814	8.104633	0.015354	0.074375	-0.063864	0.070068	-0.150391	-0.117432	-0.186775	33.651293	131.062953
13386		-5.561617	0.046682	8.071710	0.007345	0.061006	-0.068770	0.062500	-0.161865	-0.120850	-0.208720	33.687983	131.015694
13387		-5.508836	-0.066449	8.112354	0.000354	0.055465	-0.062811	0.072998	-0.150391	-0.121094	-0.231007	33.715891	130.973410
13388		-5.648834	-0.007028	8.065549	-0.007002	0.042358	-0.059470	0.070068	-0.145996	-0.111084	-0.257663	33.741889	130.932548
13389		-5.727746	-0.138672	8.061212	-0.009841	0.033088	-0.058210	0.072021	-0.157471	-0.124268	-0.284048	33.756957	130.893454
13390		-5.731937	-0.112664	8.042719	-0.010694	0.010167	-0.045595	0.072998	-0.143799	-0.116211	-0.307493	33.764545	130.862225
13391		-5.765143	-0.123848	8.000293	-0.022603	-0.014228	-0.038660	0.066162	-0.145020	-0.116943	-0.333618	33.752538	130.836766
13392		-5.722432	-0.118968	8.010573	-0.017085	-0.040203	-0.032231	0.071533	-0.156738	-0.113770	-0.355500	33.731325	130.814951
13393		-5.487566	-0.063763	8.045733	-0.024844	-0.056906	-0.027342	0.073730	-0.152832	-0.117432	-0.378447	33.694891	130.797501
13394		-5.404403	0.041971	8.192214	-0.028968	-0.056238	-0.033358	0.071045	-0.149414	-0.119141	-0.407490	33.664487	130.775026
13395		-5.553707	-0.188080	8.173520	-0.029955	-0.053579	-0.035027	0.070068	-0.158447	-0.116211	-0.436258	33.629912	130.752325
13396		-5.539645	-0.220448	8.159855	-0.020264	-0.053958	-0.022929	0.068359	-0.157959	-0.122070	-0.456299	33.600828	130.737071
13397		-5.456803	-0.124928	8.182347	-0.012240	-0.059376	-0.019242	0.068848	-0.157227	-0.123535	-0.468848	33.562992	130.725305
13398		-5.452430	-0.076202	8.204661	-0.019017	-0.051559	-0.019539	0.072266	-0.151611	-0.116455	-0.486880	33.535282	130.712393
13399		-5.438622	-0.107077	8.190803	-0.011266	-0.050617	-0.014922	0.065186	-0.152832	-0.114258	-0.497231	33.502480	130.703576
13400		-5.475136	-0.066111	8.204303	-0.008234	-0.051140	-0.011464	0.071289	-0.152344	-0.118896	-0.506002	33.475028	130.696238
13401		-5.473635	-0.037808	8.189923	-0.010464	-0.050869	-0.016533	0.071289	-0.152100	-0.123779	-0.516485	33.442072	130.686335
13402		-5.441082	-0.023733	8.181388	-0.013484	-0.050335	-0.020008	0.073730	-0.151855	-0.117432	-0.531473	33.415020	130.673152
13403		-5.408789	0.040868	8.192126	-0.018412	-0.049405	-0.024419	0.079834	-0.147705	-0.112549	-0.549470	33.382856	130.657855
13404		-5.411507	-0.014656	8.209210	-0.024963	-0.047017	-0.032183	0.075195	-0.147217	-0.118164	-0.575592	33.357612	130.636345
13405		-5.442931	-0.086576	8.237353	-0.021924	-0.040122	-0.030204	0.079102	-0.155029	-0.116943	-0.597784	33.330722	130.617057
13406		-5.454276	-0.103814	8.183234	-0.022532	-0.041306	-0.031921	0.064697	-0.155762	-0.118896	-0.622391	33.308717	130.595734
13407		-5.441189	-0.136057	8.168809	-0.024211	-0.043293	-0.029623	0.079590	-0.153809	-0.128174	-0.645627	33.280001	130.576905
13408		-5.349912	-0.069629	8.173639	-0.018426	-0.045409	-0.020287	0.061523	-0.149658	-0.120117	-0.663459	33.255696	130.563624
13409		-5.437104	-0.060971	8.175751	-0.020616	-0.038658	-0.020277	0.078369	-0.149170	-0.117676	-0.681113	33.229689	130.551194
13410		-5.502415	-0.139429	8.161484	-0.019879	-0.042366	-0.016223	0.072998	-0.143311	-0.121826	-0.698231	33.207130	130.540707
13411		-5.464612	-0.185388	8.186805	-0.017954	-0.050170	-0.013834	0.070313	-0.153809	-0.120117	-0.711869	33.174567	130.532810
13412		-5.379109	-0.220933	8.186889	-0.012498	-0.052413	-0.008628	0.080078	-0.147461	-0.112793	-0.721857	33.146299	130.527627
13413		-5.287391	-0.152723	8.191878	-0.012554	-0.048448	-0.004441	0.074951	-0.160645	-0.116455	-0.728879	33.114788	130.526161
13414		-5.328071	-0.142362	8.256404	-0.005308	-0.046187	-0.000654	0.068115	-0.154541	-0.122070	-0.731798	33.090119	130.526387
13415		-5.446310	-0.168835	8.233626	-0.005996	-0.036000	0.000370	0.078857	-0.147949	-0.119629	-0.733323	33.065775	130.528106
13416		-5.343671	-0.106723	8.257435	0.001080	-0.032295	0.007467	0.071533	-0.147461	-0.114990	-0.729624	33.049103	130.533763
13417		-5.381698	-0.114932	8.250781	0.002252	-0.028975	0.004337	0.073242	-0.153320	-0.114502	-0.724981	33.028813	130.538129
13418		-5.372722	-0.113423	8.218444	0.000619	-0.027514	0.000987	0.066895	-0.151855	-0.117188	-0.723982	33.014807	130.539316
13419		-5.361197	-0.091020	8.222514	-0.000398	-0.024866	-0.000653	0.071045	-0.155029	-0.114014	-0.722737	32.996835	130.540235
13420		-5.337625	-0.076378	8.246155	-0.003326	-0.021823	-0.003221	0.068604	-0.148682	-0.109375	-0.725584	32.986039	130.538504
13421		-5.317054	-0.032217	8.252650	-0.006638	-0.022356	-0.004262	0.075928	-0.160400	-0.113281	-0.729268	32.969479	130.536937
13422		-5.337105	-0.047897	8.231297	-0.005362	-0.016527	-0.006498	0.067627	-0.150146	-0.120850	-0.734505	32.961665	130.532935
13423		-5.361119	-0.095284	8.260702	-0.010997	-0.015845	-0.019139	0.070313	-0.156738	-0.114746	-0.746240	32.948724	130.521158
13424		-5.365765	-0.037448	8.227345	-0.016210	-0.012971	-0.010362	0.067627	-0.153564	-0.115479	-0.759129	32.942892	130.514501
13425		-5.324325	-0.030738	8.236142	-0.015553	-0.008329	-0.014307	0.078369	-0.152588	-0.115967	-0.771710	32.934290	130.505963
13426		-5.360994	-0.122471	8.225970	-0.017570	-0.010443	-0.016130	0.073975	-0.158203	-0.114990	-0.787506	32.929835	130.495365
13427		-5.304321	-0.204187	8.251880	-0.014317	-0.005953	-0.010889	0.077881	-0.154541	-0.121582	-0.798119	32.922619	130.489144
13428		-5.375756	-0.200660	8.238268	-0.011064	-0.001465	-0.005647	0.071777	-0.151367	-0.119141	-0.806345	32.923362	130.485619
13429		-5.388195	-0.143031	8.238073	-0.006791	0.000376	0.001232	0.068604	-0.150146	-0.122314	-0.808181	32.919867	130.487612
13430		-5.378766	-0.121019	8.240788	-0.002018	-0.002115	-0.001822	0.072510	-0.149902	-0.122803	-0.809807	32.920250	130.486703
13431		-5.375797	-0.151214	8.257832	-0.006174	0.001562	0.002943	0.063965	-0.142334	-0.125244	-0.810662	32.917449	130.489852
13432		-5.341367	-0.082930	8.231839	-0.001188	0.004091	0.001676	0.070557	-0.149902	-0.114502	-0.810544	32.921395	130.491273
13433		-5.348393	-0.084596	8.265422	-0.006647	0.006342	-0.003528	0.064941	-0.155029	-0.121338	-0.814094	32.921280	130.489960
13434		-5.389513	-0.094076	8.256813	-0.006373	0.007409	-0.005946	0.065430	-0.150879	-0.123047	-0.819779	32.927039	130.486156
13435		-5.342902	-0.085015	8.230821	-0.006206	0.005966	-0.009257	0.071045	-0.153809	-0.123047	-0.825200	32.926662	130.480935
13436		-5.355678	-0.078788	8.210788	-0.011428	0.005828	-0.011227	0.073975	-0.155762	-0.124512	-0.835720	32.931447	130.473549
13437		-5.346820	-0.058152	8.213139	-0.014465	0.006361	-0.014686	0.064941	-0.146973	-0.119141	-0.847891	32.931249	130.464619
13438		-5.381948	-0.128670	8.238594	-0.016648	0.005690	-0.013200	0.071289	-0.160400	-0.112549	-0.862118	32.935914	130.455897
13439		-5.351250	-0.144453	8.243785	-0.013404	0.007174	-0.018707	0.074951	-0.152588	-0.125000	-0.875179	32.936144	130.444213
13440		-5.351684	-0.146637	8.243465	-0.015693	0.003993	-0.018115	0.071289	-0.151611	-0.120361	-0.890672	32.939766	130.432156
13441		-5.333479	-0.104121	8.248534	-0.016096	0.007828	-0.018040	0.064209	-0.148926	-0.119141	-0.905032	32.940371	130.420920
13442		-5.293318	-0.148637	8.236789	-0.016880	0.008085	-0.016442	0.074707	-0.148193	-0.116943	-0.920604	32.946320	130.409964
13443		-5.362937	-0.175822	8.239376	-0.015884	0.012850	-0.016254	0.071045	-0.148193	-0.125000	-0.934212	32.949814	130.399890
13444		-5.354600	-0.155291	8.241413	-0.010152	0.011666	-0.013465	0.071289	-0.155518	-0.119873	-0.944849	32.957808	130.390926
13445		-5.343206	-0.164418	8.260506	-0.011551	0.010737	-0.013579	0.071045	-0.143066	-0.116699	-0.954971	32.960114	130.382699
13446		-5.368818	-0.151094	8.220390	-0.011956	0.014572	-0.013503	0.067139	-0.148926	-0.117188	-0.966676	32.969741	130.373674
13447		-5.388999	-0.146537	8.233685	-0.009155	0.016432	-0.013279	0.072510	-0.155273	-0.121826	-0.975352	32.975311	130.365585
13448		-5.371260	-0.154235	8.218736	-0.010657	0.012994	-0.014289	0.076416	-0.153809	-0.114014	-0.986596	32.984001	130.356041
13449		-5.422341	-0.136022	8.226668	-0.008851	0.010091	-0.014254	0.065186	-0.156006	-0.129150	-0.995423	32.985926	130.347357
13450		-5.382151	-0.179792	8.214898	-0.010353	0.006652	-0.015264	0.072510	-0.147949	-0.117188	-1.006811	32.990951	130.337223
13451		-5.320505	-0.157640	8.245332	-0.008718	0.005187	-0.011915	0.064941	-0.146729	-0.114746	-1.014662	32.990088	130.330194
13452		-5.383629	-0.131710	8.233721	-0.009022	0.011531	-0.010943	0.065430	-0.153320	-0.121338	-1.023713	32.997922	130.322954
13453		-5.359540	-0.198877	8.252952	-0.005030	0.009304	-0.012393	0.067871	-0.149414	-0.118408	-1.029656	32.999411	130.315547
13454		-5.350891	-0.177718	8.255255	-0.010012	0.006768	-0.011136	0.070313	-0.149902	-0.115234	-1.039314	33.004485	130.308234
13455		-5.404003	-0.230765	8.207111	-0.001048	0.010066	-0.003082	0.069580	-0.160400	-0.120605	-1.039519	33.006506	130.307178
13456		-5.404973	-0.180034	8.226348	0.000656	0.004652	-0.003941	0.062988	-0.151367	-0.114746	-1.040378	33.010419	130.304804
13457		-5.367759	-0.141224	8.217522	0.004197	0.002791	0.000343	0.067871	-0.150391	-0.119141	-1.036254	33.008308	130.306177
13458		-5.386924	-0.134899	8.231514	0.000103	0.002509	0.000896	0.075928	-0.156250	-0.115234	-1.035610	33.011020	130.307137
13459		-5.346618	-0.126056	8.239717	0.000103	0.002509	0.000896	0.063232	-0.148926	-0.112793	-1.033624	33.008754	130.308892
13460		-5.365600	-0.120263	8.253820	-0.005042	-0.001579	-0.005294	0.064209	-0.155273	-0.118164	-1.038192	33.009033	130.305681
13461		-5.346145	-0.177745	8.220132	0.000174	-0.001438	-0.003315	0.069824	-0.158691	-0.124512	-1.037705	33.004462	130.304609
13462		-5.362049	-0.201852	8.251249	-0.003031	0.000536	-0.003466	0.070068	-0.154541	-0.116455	-1.040447	33.005942	130.302627
13463		-5.374647	-0.143871	8.251202	-0.003133	-0.001973	-0.004362	0.074219	-0.151611	-0.116699	-1.042241	33.001054	130.300846
13464		-5.377566	-0.114549	8.234283	-0.002580	0.000170	-0.009199	0.069824	-0.154053	-0.118164	-1.046852	33.002235	130.294955
13465		-5.386991	-0.137581	8.231425	-0.001079	0.003610	-0.008189	0.071533	-0.157715	-0.121338	-1.048930	33.000505	130.290490
13466		-5.387046	-0.138332	8.231376	-0.004590	-0.001944	-0.011029	0.071777	-0.154785	-0.124512	-1.055347	33.000431	130.283385
13467		-5.336778	-0.158999	8.222867	-0.003701	0.000312	-0.011734	0.069092	-0.145996	-0.116455	-1.060223	32.996773	130.276541
13468		-5.343042	-0.212269	8.237048	-0.003701	0.000312	-0.011734	0.068848	-0.156250	-0.122803	-1.066399	32.997955	130.268932
13469		-5.383926	-0.170789	8.248360	-0.002520	-0.000789	-0.002648	0.068359	-0.150146	-0.116699	-1.067211	32.993763	130.268308
13470		-5.374232	-0.199811	8.231466	-0.004152	0.000677	-0.006000	0.069092	-0.152588	-0.118408	-1.071516	32.995186	130.264612
13471		-5.374756	-0.149081	8.251039	0.002010	0.002115	0.001829	0.061523	-0.154785	-0.118164	-1.068087	32.992705	130.267010
13472		-5.343660	-0.162595	8.256531	-0.000510	0.001325	-0.000819	0.068359	-0.150391	-0.116699	-1.068379	32.994528	130.266847
13473		-5.375127	-0.149010	8.250799	0.002564	0.004259	-0.003009	0.071289	-0.142578	-0.116943	-1.066447	32.993224	130.265914
13474		-5.344204	-0.162498	8.256181	0.001500	0.003440	0.001011	0.064697	-0.154053	-0.119141	-1.064913	32.996247	130.266979
13475		-5.378847	-0.119006	8.233384	0.000145	0.005979	-0.004761	0.072021	-0.150391	-0.116699	-1.065031	32.995910	130.264826
13476		-5.329105	-0.139120	8.224543	-0.002375	0.005190	-0.007409	0.065674	-0.162109	-0.114746	-1.068851	32.999816	130.260125
13477		-5.367056	-0.178383	8.232839	-0.001763	0.006374	-0.005694	0.068115	-0.151367	-0.116699	-1.070413	32.999695	130.257329
13478		-5.348991	-0.133953	8.238052	-0.001253	0.005049	-0.004876	0.065186	-0.151367	-0.123047	-1.072640	33.003516	130.254364
13479		-5.356172	-0.135472	8.271568	0.001091	0.007275	0.001088	0.065918	-0.158691	-0.127686	-1.070049	33.003984	130.256190
13480		-5.362609	-0.126684	8.217458	-0.002857	0.012971	-0.003122	0.069092	-0.149414	-0.117432	-1.072586	33.012331	130.254329
13481		-5.339033	-0.141958	8.256260	0.000349	0.010999	-0.002970	0.071289	-0.162109	-0.112793	-1.071956	33.014889	130.253336
13482		-5.342683	-0.163213	8.218949	-0.001968	0.015229	-0.003827	0.068115	-0.152344	-0.112793	-1.074250	33.024489	130.250971
13483		-5.375210	-0.150040	8.212494	-0.001690	0.016302	-0.006247	0.074707	-0.148926	-0.115967	-1.076047	33.030050	130.247670
13484		-5.342765	-0.143079	8.253826	-0.003264	0.016808	-0.003048	0.073242	-0.158203	-0.116943	-1.078798	33.040535	130.245821
13485		-5.358828	-0.157072	8.196670	-0.001001	0.013540	-0.008745	0.065430	-0.147705	-0.113770	-1.081112	33.044487	130.240847
13486		-5.366629	-0.159069	8.229784	-0.004763	0.013368	-0.004061	0.075928	-0.155029	-0.114014	-1.085068	33.052960	130.238355
13487		-5.370807	-0.129519	8.212059	-0.000846	0.015089	-0.001296	0.069092	-0.157471	-0.119385	-1.084529	33.057879	130.238451
13488		-5.359182	-0.188280	8.211403	-0.004252	0.012043	-0.003243	0.082031	-0.150635	-0.121338	-1.087867	33.065573	130.236541
13489		-5.413428	-0.139151	8.202236	-0.002854	0.012975	-0.003128	0.072021	-0.149658	-0.117920	-1.089147	33.069261	130.235412
13490		-5.392484	-0.175457	8.204399	-0.000946	0.012581	-0.002193	0.068115	-0.151611	-0.116699	-1.090197	33.077250	130.234216
13491		-5.369361	-0.139812	8.262940	-0.003233	0.009392	-0.001605	0.077881	-0.150146	-0.115234	-1.091101	33.078902	130.234175
13492		-5.335370	-0.122466	8.217155	-0.003361	0.014302	-0.003949	0.076416	-0.150146	-0.121582	-1.094196	33.087829	130.231761
13493		-5.352328	-0.146848	8.247561	-0.004351	0.009535	-0.004141	0.067627	-0.151855	-0.119385	-1.096688	33.089535	130.229983
13494		-5.374763	-0.162476	8.224407	-0.005877	0.013513	-0.006602	0.072510	-0.154053	-0.120361	-1.102197	33.097946	130.225772
13495		-5.382524	-0.164637	8.257560	-0.006437	0.011366	-0.001763	0.068604	-0.156982	-0.124512	-1.105010	33.100728	130.225596
13496		-5.357787	-0.169908	8.208975	-0.003969	0.013119	-0.005667	0.087402	-0.160400	-0.114990	-1.109067	33.108892	130.222033
13497		-5.387033	-0.186733	8.219596	-0.002342	0.011651	-0.002311	0.066650	-0.150879	-0.118896	-1.109742	33.111832	130.221478
13498		-5.357163	-0.149735	8.244370	-0.002442	0.009141	-0.003207	0.066162	-0.148193	-0.124023	-1.111973	33.117715	130.219652
13499		-5.391707	-0.157657	8.201529	-0.005647	0.011115	-0.003365	0.077881	-0.158447	-0.118164	-1.114931	33.120336	130.218383
13500		-5.358811	-0.150765	8.243280	-0.001652	0.008890	-0.004807	0.069092	-0.156006	-0.114746	-1.117297	33.126027	130.215471
13501		-5.350188	-0.179539	8.225654	-0.001250	0.018931	-0.001227	0.069092	-0.144287	-0.122314	-1.116994	33.133149	130.215560
13502		-5.352122	-0.128889	8.244418	-0.001959	0.015238	-0.003839	0.072021	-0.150391	-0.116699	-1.119214	33.142453	130.213230
13503		-5.362743	-0.151860	8.240703	-0.005670	0.018538	-0.004819	0.075439	-0.147461	-0.119629	-1.122785	33.149310	130.210866
13504		-5.373703	-0.174812	8.236759	-0.000584	0.023593	-0.005175	0.072266	-0.152100	-0.116211	-1.124767	33.163349	130.207515
13505		-5.387753	-0.167660	8.215800	-0.000683	0.021083	-0.006072	0.068848	-0.151123	-0.124512	-1.125969	33.171650	130.204259
13506		-5.389537	-0.167962	8.214623	-0.000864	0.022521	-0.002758	0.072998	-0.151855	-0.127686	-1.127195	33.185072	130.202579
13507		-5.363095	-0.151877	8.202193	-0.002262	0.021589	-0.002877	0.076172	-0.150391	-0.120117	-1.128110	33.193698	130.201501
13508		-5.371616	-0.153743	8.234886	-0.002077	0.020154	-0.006193	0.072021	-0.149414	-0.120850	-1.131294	33.205695	130.197506
13509		-5.375810	-0.175140	8.197074	-0.000578	0.023598	-0.005183	0.075684	-0.150879	-0.119141	-1.132125	33.215446	130.194821
13510		-5.412580	-0.193274	8.240994	-0.001852	0.017754	-0.002954	0.072021	-0.144531	-0.115479	-1.133941	33.226072	130.193080
13511		-5.385884	-0.177074	8.228752	-0.000637	0.020123	0.000477	0.067139	-0.154785	-0.123779	-1.132656	33.233897	130.194317
13512		-5.390592	-0.147160	8.210665	0.001047	0.022132	-0.001827	0.069092	-0.152588	-0.121826	-1.132418	33.247013	130.193290
13513		-5.401623	-0.169487	8.206650	0.002162	0.021990	0.000709	0.076660	-0.154785	-0.110596	-1.129456	33.255910	130.194662
13514		-5.400983	-0.148535	8.242153	-0.000956	0.020017	-0.003664	0.069336	-0.148193	-0.124756	-1.131030	33.267764	130.192411
13515		-5.423879	-0.163711	8.218553	-0.001340	0.016430	-0.002138	0.067871	-0.148682	-0.118652	-1.131103	33.273444	130.191908
13516		-5.425187	-0.163998	8.217683	-0.002738	0.015498	-0.002256	0.068115	-0.142578	-0.120850	-1.133127	33.282696	130.190687
13517		-5.400364	-0.168948	8.169127	-0.001539	0.011408	-0.003926	0.073730	-0.151855	-0.118164	-1.133950	33.285479	130.189027
13518		-5.374768	-0.163443	8.244616	-0.003057	0.015390	-0.006395	0.074951	-0.154053	-0.118164	-1.137706	33.294596	130.184976
13519		-5.385736	-0.135490	8.260723	-0.000460	0.012233	-0.007946	0.071777	-0.155518	-0.115479	-1.139430	33.297805	130.180548
13520		-5.398190	-0.179517	8.220631	-0.007032	0.010190	-0.003506	0.074707	-0.146729	-0.116699	-1.144327	33.303938	130.178553
13521		-5.411203	-0.172741	8.200268	-0.004048	0.010619	-0.006585	0.072021	-0.151367	-0.124023	-1.147584	33.306238	130.175079
13522		-5.402855	-0.150998	8.202531	-0.004048	0.010620	-0.006585	0.074463	-0.152588	-0.120361	-1.151929	33.312552	130.170970
13523		-5.412841	-0.173981	8.199160	-0.000844	0.008647	-0.006419	0.068115	-0.155273	-0.124268	-1.153273	33.313724	130.167637
13524		-5.385172	-0.158152	8.187596	-0.002055	0.006278	-0.009852	0.070313	-0.156006	-0.123291	-1.157667	33.317484	130.161353
13525		-5.402446	-0.131825	8.237898	-0.002848	0.006530	-0.008255	0.069092	-0.154541	-0.119141	-1.160834	33.317422	130.156790
13526		-5.412254	-0.155076	8.234636	-0.006050	0.008503	-0.008422	0.072266	-0.154297	-0.115234	-1.166983	33.322440	130.151463
13527		-5.374810	-0.168219	8.206159	-0.007161	0.008647	-0.010963	0.067871	-0.153076	-0.115479	-1.173659	33.323558	130.145013
13528		-5.387615	-0.161583	8.185922	-0.001449	0.007464	-0.008137	0.074219	-0.152100	-0.116211	-1.177048	33.327951	130.139901
13529		-5.379058	-0.139644	8.188349	-0.000050	0.008398	-0.008019	0.070801	-0.146484	-0.117676	-1.178539	33.328961	130.135473
13530		-5.411934	-0.188045	8.249780	-0.004145	0.008110	-0.007482	0.071533	-0.153564	-0.116211	-1.183221	33.333699	130.130807
13531		-5.396548	-0.164773	8.218356	-0.000555	0.009726	-0.008843	0.065674	-0.155762	-0.113037	-1.185324	33.335460	130.125794
13532		-5.416200	-0.159324	8.231960	-0.000752	0.004702	-0.010630	0.075439	-0.150879	-0.114014	-1.189215	33.338175	130.119022
13533		-5.397702	-0.166074	8.217572	-0.005444	0.009689	-0.006710	0.076172	-0.149658	-0.115234	-1.193315	33.339939	130.115472
13534		-5.400664	-0.187712	8.180441	-0.002240	0.007716	-0.006541	0.064453	-0.154053	-0.119629	-1.196534	33.344398	130.111466
13535		-5.379925	-0.173327	8.202700	-0.000652	0.007215	-0.009738	0.068359	-0.147949	-0.114014	-1.199010	33.344709	130.105875
13536		-5.390284	-0.145512	8.219240	-0.003736	0.004271	-0.007554	0.074707	-0.151123	-0.123047	-1.203435	33.347151	130.101226
13537		-5.390593	-0.146019	8.219028	0.000071	0.003483	-0.005668	0.075439	-0.152832	-0.119385	-1.203934	33.345372	130.098479
13538		-5.368942	-0.182339	8.221705	-0.002528	0.006639	-0.004120	0.076660	-0.150879	-0.121826	-1.206378	33.349178	130.096160
13539		-5.409945	-0.191741	8.212623	-0.003034	0.007967	-0.004945	0.079102	-0.149658	-0.120850	-1.208419	33.349977	130.093844
13540		-5.358569	-0.139855	8.260531	-0.002915	0.003050	-0.002592	0.070068	-0.159180	-0.117432	-1.210475	33.351712	130.092628
13541		-5.422946	-0.185201	8.192235	-0.004431	0.007034	-0.005064	0.078613	-0.152588	-0.118408	-1.213354	33.351974	130.090243
13542		-5.409156	-0.172213	8.248299	-0.001130	0.007574	-0.004002	0.068115	-0.147949	-0.114014	-1.214945	33.356249	130.088001
13543		-5.371522	-0.184781	8.219965	-0.005034	0.005850	-0.006783	0.072021	-0.152344	-0.120850	-1.218808	33.355812	130.084456
13544		-5.434537	-0.158312	8.207948	-0.001130	0.007574	-0.004002	0.069092	-0.155273	-0.122314	-1.220392	33.360052	130.082217
13545		-5.396789	-0.170787	8.179690	-0.004023	0.003194	-0.005135	0.074951	-0.155273	-0.119873	-1.223034	33.358114	130.079841
