// General information: 
//  MT Manager version: 2022.2.0 
//  XDA version: 2022.2.0 build 7381 rev 124627 built on 2023-07-19
// Device information: 
//  DeviceId: 00B4C3A0
//  ProductCode: MTW2-3A7G6
//  Firmware Version: 4.6.0
//  Hardware Version: 2.0.0
// Device settings: 
//  Filter Profile: human(46.1)
//  Option Flags: Orientation Smoother Disabled, Position/Velocity Smoother Disabled, Continuous Zero Rotation Update Disabled, AHS Disabled, ICC Disabled
// Coordinate system: ENU
PacketCounter	SampleTimeFine	Acc_X	Acc_Y	Acc_Z	Gyr_X	Gyr_Y	Gyr_Z	Mag_X	Mag_Y	Mag_Z	Roll	Pitch	Yaw
15057		9.761903	-0.402039	0.128625	-0.017298	0.006305	0.003301	-0.625244	-0.176270	0.445801	-179.792602	-87.831182	-32.259000
15058		9.750146	-0.384113	0.117806	-0.012594	0.004324	0.001811	-0.637695	-0.182617	0.449707	-179.744153	-87.831765	-32.312438
15059		9.723703	-0.382348	0.096096	-0.014946	0.005315	0.002555	-0.626221	-0.181885	0.446533	-179.741527	-87.830415	-32.321058
15060		9.734555	-0.382884	0.137061	-0.023256	-0.001774	-0.000866	-0.629395	-0.180908	0.444092	-179.740457	-87.827545	-32.333893
15061		9.730718	-0.399619	0.167120	-0.021451	0.004586	0.002146	-0.623779	-0.178955	0.455322	-179.747795	-87.825778	-32.336271
15062		9.705162	-0.415512	0.115718	-0.022284	0.003958	0.000232	-0.632324	-0.188477	0.447754	-179.729204	-87.826132	-32.365540
15063		9.708118	-0.381015	0.115235	-0.014815	-0.004170	-0.002719	-0.626465	-0.186035	0.447021	-179.806557	-87.819361	-32.294049
15064		9.739273	-0.383939	0.077296	-0.015366	-0.004115	-0.001191	-0.634521	-0.172607	0.447510	-179.806943	-87.815129	-32.301965
15065		9.739285	-0.383761	0.076646	-0.011631	-0.008178	-0.002667	-0.637207	-0.184570	0.456299	-179.881218	-87.806057	-32.231726
15066		9.739302	-0.383472	0.075950	-0.012462	-0.005159	-0.003464	-0.625732	-0.182861	0.456543	-179.911654	-87.801260	-32.205522
15067		9.754008	-0.367032	0.086066	-0.014951	-0.009270	-0.001910	-0.632324	-0.186523	0.444824	-179.975700	-87.791559	-32.147424
15068		9.763691	-0.437246	0.067389	-0.013980	-0.003540	-0.000807	-0.627686	-0.182617	0.443848	-179.968832	-87.787632	-32.160937
15069		9.731694	-0.416276	0.134152	-0.010108	-0.002502	-0.003093	-0.635986	-0.184814	0.451172	179.952946	-87.781806	-32.085876
15070		9.749030	-0.452899	0.055699	-0.010110	-0.006148	-0.004211	-0.627197	-0.173828	0.450928	179.912504	-87.776439	-32.049784
15071		9.782255	-0.403368	0.046526	-0.007344	-0.012294	-0.005676	-0.622803	-0.178955	0.448242	179.799057	-87.764993	-31.937884
15072		9.752035	-0.417341	0.053404	-0.002920	-0.007664	-0.008373	-0.631104	-0.182373	0.451660	179.703319	-87.758686	-31.840918
15073		9.794075	-0.420114	0.056168	0.000818	-0.004435	-0.007616	-0.637695	-0.180908	0.445557	179.567364	-87.751719	-31.701812
15074		9.804987	-0.419979	0.096659	0.003036	-0.003235	-0.005318	-0.632324	-0.182129	0.441895	179.520006	-87.748026	-31.650744
15075		9.763005	-0.415982	0.093001	0.002485	-0.003181	-0.003790	-0.627686	-0.185791	0.453369	179.441638	-87.741783	-31.568312
15076		9.750402	-0.379611	0.110984	0.002068	-0.005317	-0.005305	-0.620361	-0.188965	0.447754	179.394010	-87.736864	-31.518143
15077		9.750416	-0.379316	0.110753	-0.006922	0.000779	-0.000807	-0.631104	-0.180664	0.449951	179.353498	-87.732903	-31.478990
15078		9.751301	-0.396715	0.080954	-0.003469	-0.003964	-0.005727	-0.624512	-0.184326	0.444092	179.296335	-87.728712	-31.422580
15079		9.738688	-0.360463	0.099038	-0.009274	-0.001876	-0.001179	-0.630371	-0.185303	0.453125	179.249929	-87.723225	-31.378877
15080		9.758415	-0.413489	0.151125	0.000415	-0.005155	-0.000721	-0.622803	-0.177734	0.454346	179.267862	-87.718405	-31.395328
15081		9.773984	-0.414844	0.132025	-0.003603	-0.001773	-0.002683	-0.629150	-0.191650	0.446289	179.203376	-87.712965	-31.330278
15082		9.763105	-0.414121	0.090835	-0.002770	-0.004792	-0.001888	-0.629395	-0.176514	0.461182	179.202681	-87.708324	-31.329769
15083		9.760191	-0.448301	0.090772	0.000550	-0.003699	-0.002647	-0.627930	-0.185059	0.450928	179.141954	-87.701779	-31.266100
15084		9.743785	-0.428855	0.138756	0.002351	-0.004635	-0.001864	-0.626953	-0.187256	0.453613	179.145376	-87.697213	-31.265587
15085		9.746716	-0.394361	0.138281	0.000968	0.002082	-0.000013	-0.638672	-0.184082	0.452881	179.121526	-87.694002	-31.238586
15086		9.747586	-0.411936	0.108785	0.002486	0.000466	-0.002672	-0.625244	-0.181152	0.454590	179.112064	-87.692403	-31.226119
15087		9.747577	-0.412041	0.109177	0.007757	0.007139	0.004956	-0.621582	-0.183594	0.459229	179.161701	-87.692131	-31.268770
15088		9.766914	-0.397030	0.061231	0.009544	0.008433	-0.001556	-0.630615	-0.179932	0.441406	179.170320	-87.695017	-31.269718
15089		9.763115	-0.413634	0.091978	0.008025	0.006405	-0.000015	-0.620850	-0.177979	0.446045	179.149574	-87.694283	-31.241775
15090		9.762239	-0.395854	0.122166	0.003872	0.004685	-0.001170	-0.634766	-0.177734	0.450684	179.162243	-87.695158	-31.250382
15091		9.774000	-0.413944	0.133668	0.001935	0.000519	-0.001144	-0.627930	-0.184570	0.450195	179.123241	-87.691043	-31.207660
15092		9.763997	-0.430965	0.063338	0.007191	0.002132	-0.003046	-0.629883	-0.174805	0.439697	179.111537	-87.690425	-31.189751
15093		9.735804	-0.393399	0.100754	0.003737	0.003230	0.000757	-0.632080	-0.195313	0.447998	179.100091	-87.687878	-31.173575
15094		9.750488	-0.377184	0.111695	-0.004154	-0.001721	-0.001155	-0.625977	-0.189453	0.444336	179.109128	-87.685113	-31.184132
15095		9.752237	-0.412699	0.052543	-0.000550	0.003700	0.002646	-0.625244	-0.180908	0.446289	179.121919	-87.682854	-31.194671
15096		9.747536	-0.412085	0.112649	0.000700	0.006464	0.006075	-0.624756	-0.185059	0.450928	179.234003	-87.684784	-31.305545
15097		9.759261	-0.430886	0.124400	-0.005389	0.004224	0.006063	-0.631348	-0.178711	0.451660	179.292195	-87.682850	-31.364296
15098		9.748361	-0.430847	0.083718	-0.006223	-0.000049	0.003032	-0.632324	-0.180664	0.444580	179.358949	-87.680995	-31.432694
15099		9.751280	-0.396709	0.083382	-0.002903	0.001044	0.002274	-0.621826	-0.180664	0.455322	179.365306	-87.677211	-31.438143
15100		9.747455	-0.413727	0.113625	0.000283	0.004327	0.004559	-0.631348	-0.177490	0.442871	179.456711	-87.677875	-31.527403
15101		9.789438	-0.417567	0.117601	-0.001799	0.008228	0.001452	-0.623047	-0.185547	0.454102	179.450977	-87.678203	-31.520118
15102		9.804984	-0.419212	0.100161	0.006780	0.018225	0.001027	-0.633057	-0.190430	0.453125	179.494417	-87.686820	-31.557916
15103		9.732709	-0.430423	0.106272	0.009964	0.014216	0.001078	-0.628418	-0.185059	0.449951	179.489336	-87.690578	-31.544539
15104		9.759116	-0.432727	0.129352	0.001667	0.004901	0.004944	-0.631836	-0.181641	0.455811	179.586646	-87.691570	-31.639955
15105		9.778485	-0.418019	0.081548	-0.001380	0.014012	0.004082	-0.630127	-0.177734	0.445313	179.617983	-87.695224	-31.669530
15106		9.790194	-0.436702	0.094372	0.000006	0.018233	0.005584	-0.633789	-0.184326	0.449951	179.724062	-87.703870	-31.773363
15107		9.790157	-0.437154	0.096143	0.004294	0.017762	0.003696	-0.633545	-0.184570	0.451416	179.753281	-87.709669	-31.797565
15108		9.791026	-0.455291	0.068254	0.002358	0.017243	0.004838	-0.626709	-0.179443	0.449951	179.850641	-87.717747	-31.892090
15109		9.805664	-0.439549	0.081625	0.003604	0.033179	0.004319	-0.623291	-0.177246	0.451904	179.888483	-87.732378	-31.925317
15110		9.762703	-0.418668	0.110960	0.006373	0.030680	0.003973	-0.629883	-0.178467	0.457031	179.977277	-87.748092	-32.008119
15111		9.777315	-0.403122	0.124669	0.014820	0.026055	0.009423	-0.634277	-0.187012	0.457520	-179.902459	-87.758635	-32.117400
15112		9.701097	-0.431489	0.162127	0.013020	0.036516	0.003571	-0.628662	-0.181885	0.449707	-179.813459	-87.777676	-32.196793
15113		9.716629	-0.433493	0.146887	0.009562	0.033971	0.006251	-0.627441	-0.182373	0.451172	-179.740285	-87.792749	-32.261961
15114		9.731212	-0.418046	0.160949	0.011639	0.030072	0.009361	-0.624268	-0.176270	0.449219	-179.563359	-87.808090	-32.430617
15115		9.761412	-0.404323	0.155854	0.010115	0.024396	0.009787	-0.634766	-0.180664	0.442139	-179.435330	-87.817648	-32.550362
15116		9.734980	-0.403058	0.136007	0.008454	0.023140	0.005958	-0.626221	-0.177002	0.452393	-179.308160	-87.829059	-32.670756
15117		9.716344	-0.436246	0.157247	0.004024	0.020737	0.001356	-0.625488	-0.186279	0.444580	-179.309969	-87.836563	-32.664061
15118		9.731933	-0.437943	0.140934	0.008319	0.027563	0.001701	-0.623291	-0.175293	0.442383	-179.246078	-87.850479	-32.721650
15119		9.746547	-0.421873	0.154300	0.003611	0.022249	0.000954	-0.632568	-0.183594	0.448730	-179.253834	-87.858854	-32.709240
15120		9.734824	-0.403679	0.145086	0.008317	0.020266	-0.000526	-0.628174	-0.183105	0.450928	-179.224240	-87.868645	-32.732295
15121		9.711423	-0.367303	0.124082	0.005266	0.012560	0.001443	-0.638428	-0.179199	0.451416	-179.225509	-87.871465	-32.725428
15122		9.739733	-0.405017	0.088322	-0.001794	0.011886	0.002548	-0.626709	-0.175293	0.450439	-179.155856	-87.876421	-32.794154
15123		9.743679	-0.388624	0.059483	-0.001794	0.011886	0.002547	-0.624268	-0.181396	0.446045	-179.144165	-87.878847	-32.804303
15124		9.766030	-0.407384	0.112673	0.002497	0.007763	-0.000443	-0.637939	-0.180664	0.448486	-179.118988	-87.881436	-32.825971
15125		9.725055	-0.421349	0.080135	0.001252	0.004994	-0.003870	-0.635010	-0.177002	0.458496	-179.206450	-87.879968	-32.735153
15126		9.751402	-0.422855	0.102777	-0.002346	0.003217	-0.006558	-0.631836	-0.172363	0.449951	-179.279175	-87.880038	-32.661113
15127		9.721125	-0.436886	0.110885	0.000422	0.004365	-0.005784	-0.628906	-0.181885	0.446777	-179.396637	-87.878213	-32.540751
15128		9.740770	-0.421333	0.062687	0.001252	0.004994	-0.003870	-0.629883	-0.180664	0.454346	-179.425364	-87.879278	-32.508910
15129		9.736805	-0.437651	0.093383	0.011496	0.008957	-0.002686	-0.629883	-0.182861	0.443848	-179.487788	-87.880058	-32.437275
15130		9.735784	-0.419751	0.123869	0.009002	0.008494	-0.000020	-0.626465	-0.184326	0.443604	-179.452847	-87.883092	-32.465489
15131		9.766084	-0.404862	0.116961	0.009283	0.007754	-0.004988	-0.630859	-0.180176	0.452881	-179.552506	-87.883192	-32.357862
15132		9.731806	-0.435875	0.155417	0.008032	0.006410	-0.000007	-0.626221	-0.175049	0.453125	-179.518366	-87.885032	-32.386020
15133		9.766085	-0.404488	0.118179	0.004849	0.003122	-0.002294	-0.628662	-0.181152	0.453613	-179.579372	-87.882464	-32.319615
15134		9.769043	-0.369916	0.118083	0.008031	0.002760	-0.001117	-0.631836	-0.181396	0.445557	-179.562444	-87.882178	-32.329453
15135		9.754412	-0.385848	0.107645	0.005960	0.006661	-0.004237	-0.624756	-0.178467	0.450195	-179.652404	-87.881643	-32.233436
15136		9.766096	-0.403832	0.119507	-0.003182	0.004012	-0.000066	-0.627686	-0.176758	0.445068	-179.625555	-87.882122	-32.260398
15137		9.754416	-0.385523	0.108401	-0.001243	0.000880	-0.002316	-0.633057	-0.172363	0.455566	-179.690340	-87.878266	-32.193703
15138		9.740819	-0.419345	0.068076	-0.000828	0.003021	-0.000804	-0.638184	-0.180908	0.448486	-179.672650	-87.878186	-32.208937
15139		9.734768	-0.400338	0.157501	-0.002212	0.002446	-0.001191	-0.637451	-0.183594	0.445313	-179.720288	-87.875223	-32.159957
15140		9.751473	-0.419523	0.109529	-0.004010	0.003382	-0.001980	-0.634033	-0.174805	0.448730	-179.723231	-87.875426	-32.157911
15141		9.744825	-0.402104	0.039306	-0.000404	0.011036	-0.005479	-0.625977	-0.186768	0.446289	-179.835446	-87.877392	-32.043272
15142		9.708466	-0.397399	0.137113	0.003607	0.007654	-0.003499	-0.634521	-0.180908	0.445068	-179.857687	-87.879983	-32.017395
15143		9.780762	-0.385746	0.133637	-0.000818	0.005245	-0.008102	-0.626953	-0.177979	0.447998	179.988880	-87.878621	-31.861748
15144		9.749429	-0.382187	0.171242	-0.001798	0.000936	-0.000789	-0.623535	-0.180908	0.449463	-179.994386	-87.877378	-31.877770
15145		9.738798	-0.381555	0.130618	-0.002485	0.005412	-0.003522	-0.634277	-0.182129	0.452637	179.922270	-87.876104	-31.793215
15146		9.724180	-0.397441	0.120026	-0.003041	0.001817	-0.003106	-0.625977	-0.186768	0.443604	179.901883	-87.875312	-31.772853
15147		9.754491	-0.382479	0.112442	-0.004424	0.001242	-0.003494	-0.635498	-0.188965	0.443604	179.818230	-87.871643	-31.689101
15148		9.747569	-0.433197	0.142952	-0.008162	0.001659	-0.003144	-0.629150	-0.188965	0.447998	179.793700	-87.870827	-31.669300
15149		9.750521	-0.398580	0.142388	-0.006505	-0.004383	-0.001537	-0.627441	-0.177734	0.452393	179.739725	-87.863936	-31.616440
15150		9.724223	-0.396428	0.119924	-0.010102	0.001140	-0.002005	-0.632324	-0.177979	0.450684	179.732234	-87.862760	-31.613396
15151		9.777899	-0.418067	0.134447	-0.010384	-0.009072	-0.000370	-0.632813	-0.184082	0.450195	179.694677	-87.853184	-31.579188
15152		9.751606	-0.415897	0.111453	-0.007333	-0.005012	-0.003452	-0.626465	-0.184814	0.445068	179.668089	-87.848518	-31.554844
15153		9.767296	-0.417175	0.092144	-0.010242	-0.007616	-0.002299	-0.634766	-0.180908	0.441650	179.601691	-87.839768	-31.491694
15154		9.735970	-0.413921	0.128766	-0.006091	-0.005893	-0.001136	-0.632813	-0.189453	0.447998	179.611162	-87.834651	-31.503692
15155		9.755641	-0.398527	0.079272	-0.004565	-0.011163	-0.004900	-0.632568	-0.187012	0.451416	179.509855	-87.823855	-31.402353
15156		9.747721	-0.431363	0.138025	-0.005534	-0.013247	-0.004887	-0.627441	-0.179932	0.448242	179.463466	-87.814459	-31.358622
15157		9.733125	-0.447184	0.126116	-0.001798	-0.006364	-0.003013	-0.617676	-0.175049	0.449463	179.392837	-87.806415	-31.286394
15158		9.747778	-0.430597	0.136412	0.002495	-0.006835	-0.004891	-0.635254	-0.186279	0.458008	179.352053	-87.800642	-31.241781
15159		9.762422	-0.414058	0.147109	0.005262	0.001614	-0.001891	-0.637939	-0.186279	0.452393	179.301558	-87.797171	-31.185654
15160		9.763453	-0.431874	0.117738	0.001243	0.002768	0.003428	-0.635254	-0.180664	0.449707	179.381873	-87.797000	-31.263912
15161		9.763435	-0.432111	0.118293	0.003322	0.008394	0.001472	-0.628174	-0.174316	0.454102	179.379241	-87.797437	-31.256795
15162		9.735017	-0.394858	0.155974	-0.001940	0.006780	0.003363	-0.633545	-0.178955	0.440674	179.457560	-87.799569	-31.333473
15163		9.766333	-0.398206	0.118993	-0.004293	0.000471	0.001877	-0.627686	-0.176025	0.456299	179.457736	-87.795470	-31.333532
15164		9.741062	-0.413884	0.066768	-0.013424	-0.007253	-0.003476	-0.632080	-0.177002	0.451660	179.429670	-87.789546	-31.310678
15165		9.809381	-0.419185	0.092010	-0.006505	-0.004382	-0.001538	-0.631592	-0.181152	0.445801	179.378829	-87.782647	-31.260950
15166		9.782027	-0.399354	0.099270	-0.009688	0.003280	-0.000490	-0.625000	-0.181641	0.453857	179.395529	-87.782781	-31.281048
15167		9.763431	-0.432065	0.118834	-0.008992	0.008332	-0.002832	-0.627441	-0.167725	0.447754	179.322223	-87.783157	-31.210266
15168		9.778057	-0.415504	0.130834	-0.006912	0.013958	-0.004787	-0.623779	-0.177490	0.444336	179.275261	-87.789324	-31.164144
15169		9.750692	-0.395425	0.139455	-0.010791	0.012918	-0.002510	-0.636719	-0.172607	0.449707	179.204550	-87.792324	-31.096989
15170		9.776989	-0.397392	0.162778	-0.016193	0.009849	0.001307	-0.630371	-0.183594	0.451172	179.243735	-87.796250	-31.142733
15171		9.750653	-0.395760	0.141224	-0.014678	0.005999	0.005951	-0.628418	-0.174805	0.450684	179.297944	-87.795350	-31.202820
15172		9.736002	-0.412515	0.130850	-0.011354	0.007094	0.005201	-0.636963	-0.178223	0.444824	179.397670	-87.797668	-31.306909
15173		9.753521	-0.362521	0.142113	-0.011910	0.007148	0.006727	-0.627930	-0.187256	0.450684	179.464848	-87.797425	-31.378387
15174		9.759594	-0.381985	0.053349	-0.010667	0.002616	0.007929	-0.629150	-0.178711	0.447754	179.606101	-87.797224	-31.524561
15175		9.755568	-0.399378	0.083814	-0.012323	0.008660	0.006326	-0.619629	-0.182129	0.452148	179.666906	-87.797836	-31.589899
15176		9.741972	-0.433891	0.044204	-0.015505	0.012674	0.006261	-0.633789	-0.175049	0.442871	179.779717	-87.803293	-31.709909
15177		9.737945	-0.451024	0.075071	-0.013979	0.007406	0.002494	-0.623291	-0.175049	0.443604	179.782627	-87.803173	-31.718258
15178		9.768229	-0.436652	0.068140	-0.006091	0.008709	0.003313	-0.631104	-0.181641	0.447754	179.859028	-87.806448	-31.795842
15179		9.793433	-0.421402	0.120981	-0.005677	0.010848	0.004828	-0.636475	-0.180908	0.447754	179.901537	-87.808302	-31.839059
15180		9.794476	-0.439407	0.092270	-0.001797	0.008237	0.001439	-0.631104	-0.189697	0.450684	179.951786	-87.811289	-31.888743
15181		9.767106	-0.419776	0.100160	-0.001384	0.003076	0.000725	-0.624023	-0.180420	0.453857	179.935517	-87.808687	-31.870677
15182		9.724059	-0.398503	0.126203	-0.004151	-0.001720	-0.001168	-0.629150	-0.182617	0.445313	179.944226	-87.805869	-31.880640
15183		9.704375	-0.413516	0.174130	0.001797	-0.011887	-0.002554	-0.631592	-0.172119	0.451660	179.881340	-87.794691	-31.814100
15184		9.755461	-0.401290	0.087070	0.007604	-0.012562	0.001331	-0.625977	-0.176514	0.447754	179.935911	-87.785739	-31.861942
15185		9.729162	-0.399420	0.064291	0.012453	0.001511	0.002388	-0.630371	-0.181885	0.450684	179.952448	-87.782243	-31.868772
15186		9.697784	-0.396603	0.101784	0.012453	0.001512	0.002388	-0.628174	-0.173828	0.458984	-179.975652	-87.781329	-31.931594
15187		9.752489	-0.436306	0.087279	0.007332	0.001356	0.002346	-0.630371	-0.182617	0.445068	-179.962811	-87.777743	-31.937662
15188		9.756484	-0.419809	0.058268	0.008587	0.017306	0.001821	-0.634521	-0.176758	0.452881	-179.901110	-87.785865	-31.992082
15189		9.798443	-0.423564	0.063688	0.015092	0.018035	0.002251	-0.629395	-0.179688	0.454834	-179.884857	-87.791836	-31.997116
15190		9.764093	-0.455019	0.103128	0.019386	0.017564	0.000377	-0.626953	-0.178467	0.452881	-179.837735	-87.800111	-32.030579
15191		9.794385	-0.440426	0.096915	0.018273	0.010373	0.001203	-0.627686	-0.185059	0.453613	-179.835435	-87.801694	-32.019825
15192		9.797328	-0.405959	0.097537	0.022154	0.007762	-0.002185	-0.631592	-0.178467	0.449463	-179.826211	-87.804320	-32.014700
15193		9.796248	-0.387935	0.128005	0.018973	0.008126	-0.003365	-0.632324	-0.178223	0.446045	-179.891887	-87.804622	-31.935519
15194		9.784575	-0.369520	0.117956	0.021741	0.016577	-0.000366	-0.630371	-0.186523	0.453125	-179.854278	-87.812391	-31.958784
15195		9.750187	-0.400978	0.157712	0.023952	0.025084	0.004158	-0.620361	-0.182861	0.444824	-179.803685	-87.822399	-31.993101
15196		9.735527	-0.417469	0.149180	0.023540	0.022946	0.002644	-0.629883	-0.181396	0.452637	-179.720402	-87.833734	-32.062385
15197		9.735495	-0.417682	0.150671	0.019516	0.005846	0.002406	-0.629639	-0.176514	0.447754	-179.699549	-87.832722	-32.069486
15198		9.754149	-0.384886	0.132167	0.018276	0.003076	-0.001021	-0.633789	-0.182373	0.438232	-179.674527	-87.832717	-32.082138
15199		9.750089	-0.401312	0.162832	0.021745	0.009278	-0.002591	-0.621582	-0.180176	0.442139	-179.727791	-87.833687	-32.013790
15200		9.727887	-0.382475	0.111269	0.017864	0.004588	-0.001425	-0.628662	-0.176025	0.448486	-179.709290	-87.834621	-32.021588
15201		9.730842	-0.347788	0.111378	0.015240	0.004895	-0.004133	-0.627197	-0.175781	0.448975	-179.789960	-87.833082	-31.929544
15202		9.758221	-0.367073	0.104870	0.008879	0.009270	-0.005387	-0.625000	-0.177246	0.442627	-179.835767	-87.836643	-31.876288
15203		9.729032	-0.398982	0.083716	0.008322	0.005673	-0.004968	-0.629395	-0.181641	0.452881	-179.933038	-87.835543	-31.771598
15204		9.713328	-0.396897	0.103005	0.013031	0.007343	-0.005329	-0.624756	-0.179932	0.447754	-179.976602	-87.837993	-31.719061
15205		9.771035	-0.401447	0.089050	0.017326	0.010524	-0.006094	-0.631592	-0.184326	0.446533	179.914114	-87.839663	-31.597187
15206		9.766988	-0.417346	0.119907	0.014560	0.005721	-0.007978	-0.632568	-0.179932	0.453125	179.830535	-87.841184	-31.504311
15207		9.743705	-0.380158	0.097680	0.011793	0.004571	-0.008756	-0.631348	-0.175537	0.448486	179.677785	-87.839420	-31.342112
15208		9.751327	-0.414047	0.139330	0.008469	-0.000177	-0.009113	-0.632324	-0.177490	0.446045	179.575007	-87.837552	-31.232189
15209		9.740845	-0.412727	0.098216	0.008470	-0.003830	-0.010220	-0.622314	-0.180908	0.451416	179.399995	-87.830939	-31.049617
15210		9.744956	-0.395059	0.067870	0.009028	-0.003885	-0.011747	-0.627441	-0.180908	0.448242	179.258594	-87.826889	-30.901341
15211		9.729274	-0.392493	0.086274	0.010266	-0.001111	-0.008322	-0.643311	-0.178467	0.449707	179.114407	-87.821813	-30.748585
15212		9.755558	-0.393607	0.108550	0.010267	-0.001110	-0.008322	-0.631592	-0.183594	0.446777	179.026197	-87.819428	-30.652697
15213		9.725272	-0.407697	0.116302	0.007208	0.002136	-0.003026	-0.626221	-0.181885	0.447754	178.959936	-87.816246	-30.579676
15214		9.747985	-0.357908	0.067251	0.014687	-0.002347	-0.004823	-0.630371	-0.171387	0.451904	178.926525	-87.813137	-30.537063
15215		9.761455	-0.323177	0.107479	0.007914	-0.003773	-0.008695	-0.627686	-0.178955	0.444580	178.778018	-87.806500	-30.381332
15216		9.759709	-0.374715	0.078094	0.008182	-0.003084	-0.005254	-0.632568	-0.182129	0.448486	178.736540	-87.802970	-30.332662
15217		9.744008	-0.372570	0.096666	0.003201	0.001862	-0.006123	-0.631592	-0.183594	0.454590	178.622907	-87.799577	-30.214532
15218		9.786007	-0.375470	0.100385	0.001262	-0.002312	-0.006089	-0.630615	-0.174561	0.446289	178.563852	-87.796454	-30.153556
15219		9.748107	-0.354732	0.066395	-0.003303	-0.002530	-0.007658	-0.630371	-0.175293	0.450195	178.426097	-87.790508	-30.015014
15220		9.732412	-0.352480	0.084732	-0.008983	-0.002637	-0.006174	-0.627197	-0.178223	0.453125	178.362104	-87.787227	-29.953557
15221		9.749313	-0.370955	0.036233	-0.004396	-0.003851	-0.013014	-0.636475	-0.180420	0.450928	178.146318	-87.780409	-29.737551
15222		9.749346	-0.370116	0.035925	-0.008157	-0.002004	-0.004259	-0.633057	-0.176514	0.449951	178.110636	-87.777483	-29.704542
15223		9.759905	-0.369850	0.076793	-0.007870	0.000905	-0.008122	-0.631348	-0.183105	0.452148	177.964059	-87.773454	-29.559789
15224		9.748254	-0.350811	0.065713	-0.010911	0.006370	-0.010128	-0.625732	-0.178467	0.447998	177.836201	-87.775208	-29.436277
15225		9.759965	-0.368042	0.077787	-0.006761	0.008100	-0.008964	-0.628906	-0.175049	0.449463	177.674229	-87.775252	-29.275481
15226		9.748308	-0.349097	0.066759	-0.006072	-0.000028	-0.007330	-0.628906	-0.183350	0.456543	177.594376	-87.773373	-29.196863
15227		9.744294	-0.364977	0.096846	-0.005103	0.002059	-0.007347	-0.629639	-0.171631	0.444092	177.461250	-87.769975	-29.063984
15228		9.775754	-0.367722	0.060084	-0.002631	0.007608	-0.000495	-0.620850	-0.180176	0.452393	177.479182	-87.772634	-29.081198
15229		9.745473	-0.382048	0.068113	-0.009810	0.000385	-0.006986	-0.624268	-0.179688	0.451904	177.350030	-87.768277	-28.954995
15230		9.743175	-0.345820	0.127219	-0.006629	0.000028	-0.005805	-0.631592	-0.178467	0.443115	177.291756	-87.766373	-28.898798
15231		9.760084	-0.364582	0.079158	-0.012580	0.002885	-0.006657	-0.624512	-0.169678	0.449707	177.164752	-87.763440	-28.776333
15232		9.740337	-0.379168	0.127727	-0.015218	-0.002689	-0.003168	-0.632568	-0.176514	0.456543	177.144165	-87.760177	-28.761805
15233		9.745555	-0.379987	0.067946	-0.013692	-0.000656	-0.004711	-0.629395	-0.183350	0.454834	177.048163	-87.755264	-28.671002
15234		9.767788	-0.398102	0.120127	-0.011894	-0.001590	-0.003918	-0.632568	-0.183105	0.454346	177.016848	-87.752527	-28.644172
15235		9.743261	-0.343496	0.126927	-0.017702	0.002723	-0.006701	-0.632080	-0.178711	0.450439	176.887525	-87.749479	-28.522321
15236		9.741583	-0.395015	0.097828	-0.016314	-0.000352	-0.007421	-0.624512	-0.177979	0.451416	176.802074	-87.747383	-28.444327
15237		9.759026	-0.343862	0.108569	-0.016466	0.005497	-0.003275	-0.629883	-0.186035	0.457031	176.721495	-87.746017	-28.370549
15238		9.741607	-0.394341	0.098165	-0.016747	-0.001068	-0.000523	-0.617676	-0.180420	0.449219	176.736264	-87.743664	-28.393268
15239		9.740451	-0.376165	0.127862	-0.016175	0.004759	-0.008244	-0.636475	-0.178711	0.450928	176.584565	-87.741705	-28.248147
15240		9.759064	-0.342651	0.108970	-0.015073	-0.001230	-0.005104	-0.628662	-0.177246	0.458252	176.534827	-87.739155	-28.205164
15241		9.761431	-0.377644	0.049665	-0.016870	-0.000294	-0.005898	-0.627930	-0.181885	0.452637	176.421733	-87.734372	-28.099077
15242		9.783669	-0.395775	0.101850	-0.015630	-0.001175	-0.003579	-0.633789	-0.180176	0.445557	176.394031	-87.731862	-28.077840
15243		9.771989	-0.377177	0.090384	-0.015487	0.000283	-0.005509	-0.630859	-0.179199	0.448486	176.287434	-87.727413	-27.977461
15244		9.783701	-0.394953	0.101891	-0.016050	0.003989	-0.002873	-0.630615	-0.184082	0.453857	176.265560	-87.728010	-27.963050
15245		9.753433	-0.409288	0.109783	-0.009398	0.002535	-0.005478	-0.627197	-0.172119	0.462646	176.161162	-87.724841	-27.861379
15246		9.756304	-0.374377	0.109537	-0.014104	0.000860	-0.005121	-0.625732	-0.180908	0.443604	176.111003	-87.723416	-27.816058
15247		9.757493	-0.391847	0.080091	-0.009690	0.003271	-0.000508	-0.629883	-0.177734	0.450195	176.077498	-87.720854	-27.785504
15248		9.718374	-0.353662	0.076171	-0.008424	0.000971	-0.006602	-0.628418	-0.171143	0.448242	176.009328	-87.719540	-27.720437
15249		9.740616	-0.371650	0.128540	-0.008424	0.000972	-0.006602	-0.630615	-0.181885	0.446777	175.891732	-87.715415	-27.604999
15250		9.726087	-0.387285	0.117857	-0.008845	0.006134	-0.005894	-0.632080	-0.183350	0.445313	175.829071	-87.717092	-27.544864
15251		9.759222	-0.337626	0.110537	-0.009819	0.007699	-0.004770	-0.629883	-0.178711	0.450439	175.730165	-87.716876	-27.448931
15252		9.756387	-0.371636	0.111484	-0.007606	0.005252	-0.003575	-0.623779	-0.186523	0.447266	175.701466	-87.718141	-27.423059
15253		9.793159	-0.373536	0.175033	-0.009806	0.000397	-0.006994	-0.631836	-0.179443	0.447510	175.578753	-87.713647	-27.303293
15254		9.766941	-0.370866	0.152715	-0.007865	0.000920	-0.008131	-0.619141	-0.174805	0.449219	175.488964	-87.712200	-27.217009
15255		9.756454	-0.369728	0.111986	-0.004691	0.004212	-0.005835	-0.630127	-0.187012	0.459717	175.382057	-87.709921	-27.110128
15256		9.794419	-0.389341	0.146043	-0.006632	0.003689	-0.004699	-0.622314	-0.182617	0.450684	175.339129	-87.710105	-27.068796
15257		9.779892	-0.405083	0.135619	-0.006496	0.008799	-0.005516	-0.625732	-0.181152	0.454346	175.230535	-87.710450	-26.961261
15258		9.779890	-0.404735	0.136830	-0.001948	0.016318	-0.001717	-0.631348	-0.185059	0.452881	175.217622	-87.718000	-26.947736
15259		9.765338	-0.420818	0.127557	0.005522	0.019147	-0.001290	-0.626953	-0.177002	0.454346	175.163537	-87.724450	-26.887864
15260		9.783899	-0.387675	0.110519	0.006081	0.019095	-0.002817	-0.626709	-0.176758	0.445557	175.136228	-87.733577	-26.854823
15261		9.736623	-0.383324	0.168087	0.006058	0.016858	0.004485	-0.633057	-0.180420	0.449707	175.168155	-87.738998	-26.880721
15262		9.710373	-0.381424	0.147115	0.000417	0.011681	-0.003565	-0.634277	-0.181396	0.446533	175.136373	-87.743936	-26.846509
15263		9.726112	-0.383003	0.129290	0.003436	0.003974	0.005741	-0.626953	-0.185547	0.447998	175.200893	-87.742063	-26.906531
15264		9.745905	-0.368148	0.081502	0.005658	0.011068	0.001858	-0.627686	-0.177979	0.447510	175.250588	-87.746907	-26.952096
15265		9.713137	-0.347707	0.149463	0.004684	0.012632	0.002981	-0.621094	-0.178467	0.456543	175.265391	-87.749844	-26.961646
15266		9.752251	-0.385761	0.154958	0.002472	0.015079	0.001783	-0.629883	-0.177002	0.456299	175.308218	-87.756873	-27.000524
15267		9.767982	-0.387527	0.137692	-0.002378	0.011944	0.004064	-0.626709	-0.185791	0.451416	175.335735	-87.759468	-27.026846
15268		9.757501	-0.387539	0.098084	-0.001003	0.016173	0.005566	-0.628906	-0.179932	0.442627	175.430643	-87.767306	-27.120328
15269		9.783678	-0.389744	0.122184	0.003585	0.018627	-0.000159	-0.626953	-0.183105	0.451172	175.392008	-87.773523	-27.077029
15270		9.787739	-0.373316	0.093756	0.002183	0.012162	0.005641	-0.627197	-0.183594	0.454102	175.495388	-87.779143	-27.178010
15271		9.815160	-0.393525	0.087750	0.002183	0.012163	0.005640	-0.630371	-0.177246	0.456787	175.549015	-87.781931	-27.227847
15272		9.761484	-0.372265	0.073858	0.001092	0.014505	0.001389	-0.619385	-0.187500	0.446777	175.587133	-87.788608	-27.262871
15273		9.806283	-0.341442	0.078500	-0.000429	0.008817	0.001817	-0.626465	-0.178223	0.450195	175.586787	-87.789314	-27.260191
15274		9.748517	-0.336742	0.094133	-0.002785	0.009806	0.002547	-0.631592	-0.178955	0.452148	175.644534	-87.793366	-27.318716
15275		9.718197	-0.351774	0.102858	-0.003206	0.014971	0.003253	-0.624023	-0.181396	0.446045	175.656985	-87.797651	-27.330436
15276		9.729833	-0.370419	0.115785	-0.003359	0.017165	0.006292	-0.636963	-0.172852	0.451416	175.763387	-87.806118	-27.437040
15277		9.716555	-0.404965	0.076276	0.000662	0.006476	0.006067	-0.632568	-0.174561	0.442627	175.829696	-87.805666	-27.500441
15278		9.757228	-0.391072	0.110406	0.003725	0.006894	0.001882	-0.623535	-0.178711	0.451904	175.888372	-87.808189	-27.553568
15279		9.740136	-0.372231	0.159515	0.002183	0.012165	0.005639	-0.622314	-0.185059	0.444824	175.943180	-87.810967	-27.604586
15280		9.745509	-0.373750	0.100982	0.002190	0.008512	0.004529	-0.633301	-0.183350	0.450439	176.036221	-87.814345	-27.695414
15281		9.730974	-0.390323	0.090738	0.001369	0.007883	0.002611	-0.631104	-0.175781	0.443115	176.049932	-87.814552	-27.705772
15282		9.729676	-0.372839	0.121086	-0.000013	0.007307	0.002219	-0.629883	-0.181396	0.452637	176.109965	-87.817274	-27.764111
15283		9.745456	-0.374528	0.103229	0.003726	0.006894	0.001882	-0.630127	-0.177490	0.449463	176.115128	-87.816887	-27.764562
15284		9.759963	-0.358315	0.114708	-0.003592	0.001872	-0.001593	-0.625488	-0.182373	0.453857	176.121273	-87.816279	-27.770579
15285		9.759960	-0.358312	0.114984	-0.003745	0.004066	0.001446	-0.623291	-0.181396	0.454834	176.118501	-87.814259	-27.767374
15286		9.745443	-0.374630	0.104119	-0.008859	0.000250	0.000280	-0.621582	-0.185303	0.451660	176.150188	-87.812691	-27.802421
15287		9.768747	-0.411101	0.127209	-0.001395	0.006731	0.001827	-0.628662	-0.178223	0.452637	176.151763	-87.812210	-27.802218
15288		9.757075	-0.393118	0.116506	-0.000013	0.007307	0.002219	-0.635986	-0.176270	0.452148	176.210669	-87.814788	-27.859637
15289		9.737112	-0.408445	0.165675	-0.000834	0.006678	0.000301	-0.630127	-0.175537	0.446777	176.189761	-87.814219	-27.836613
15290		9.768702	-0.411548	0.129151	-0.000981	0.005219	0.002231	-0.628662	-0.179932	0.451660	176.252622	-87.815744	-27.897046
15291		9.716373	-0.407645	0.084687	0.001116	0.003548	-0.001941	-0.629395	-0.183594	0.451904	176.202334	-87.813302	-27.843503
15292		9.755740	-0.375755	0.148229	-0.001542	0.005272	0.003756	-0.623535	-0.182617	0.453613	176.285850	-87.814822	-27.926387
15293		9.749525	-0.358850	0.077536	-0.005682	-0.000110	0.001468	-0.631348	-0.181396	0.443115	176.286253	-87.810418	-27.927469
15294		9.737873	-0.340644	0.066411	0.002084	0.005636	-0.001953	-0.628662	-0.177246	0.454346	176.285935	-87.811957	-27.924924
15295		9.749517	-0.358936	0.078155	-0.002097	0.001671	0.004172	-0.623047	-0.176270	0.450684	176.327065	-87.808672	-27.964707
15296		9.717892	-0.356215	0.115591	-0.004159	0.005580	0.001041	-0.636963	-0.185791	0.448730	176.369054	-87.810239	-28.006202
15297		9.771497	-0.377882	0.131410	-0.003597	0.005527	-0.000485	-0.626465	-0.188721	0.451416	176.335966	-87.808987	-27.972574
15298		9.745330	-0.375967	0.109705	-0.005961	0.010170	0.001353	-0.629639	-0.178223	0.442139	176.375294	-87.813255	-28.015410
15299		9.745316	-0.376127	0.110394	-0.007484	0.004481	0.001780	-0.626221	-0.184570	0.456055	176.374819	-87.811489	-28.016647
15300		9.772759	-0.395979	0.103853	-0.005547	0.008658	0.001757	-0.619629	-0.177734	0.455566	176.423166	-87.814894	-28.066877
15301		9.726609	-0.409385	0.130865	-0.004992	0.012259	0.001341	-0.629150	-0.175781	0.446777	176.410217	-87.817560	-28.054202
15302		9.754046	-0.429331	0.124374	-0.002098	0.001671	0.004171	-0.631836	-0.179932	0.442627	176.504250	-87.817003	-28.146747
15303		9.746560	-0.394732	0.083462	-0.001395	0.006732	0.001826	-0.633301	-0.179199	0.445068	176.505819	-87.816527	-28.146538
15304		9.729429	-0.375444	0.132377	-0.001918	0.009023	-0.003951	-0.632813	-0.179443	0.449951	176.471564	-87.820065	-28.112024
15305		9.775563	-0.362036	0.107256	-0.003603	0.009182	0.000624	-0.624268	-0.179443	0.448730	176.451545	-87.820948	-28.091477
15306		9.749409	-0.360164	0.085612	-0.006928	0.008083	0.001362	-0.625244	-0.180176	0.452881	176.494625	-87.824019	-28.136638
15307		9.763900	-0.344051	0.097397	-0.009692	0.006932	0.000575	-0.626465	-0.183838	0.452881	176.472447	-87.823615	-28.117423
15308		9.759704	-0.360789	0.128211	-0.009550	0.012046	-0.000245	-0.633789	-0.183594	0.444336	176.485257	-87.828812	-28.134166
15309		9.759689	-0.360816	0.129293	-0.012875	0.010948	0.000492	-0.626709	-0.172852	0.450684	176.456229	-87.830702	-28.109921
15310		9.782934	-0.397401	0.153180	-0.009291	0.012728	0.003198	-0.624512	-0.176025	0.455078	176.522251	-87.836543	-28.179165
15311		9.758116	-0.413202	0.102174	-0.008574	0.010482	-0.001367	-0.637451	-0.183105	0.448486	176.467918	-87.838102	-28.127131
15312		9.726443	-0.410341	0.139896	-0.009427	0.003959	0.002906	-0.631104	-0.182861	0.447510	176.537392	-87.838867	-28.199721
15313		9.769723	-0.431684	0.114644	-0.009278	0.005420	0.000977	-0.629150	-0.185303	0.446289	176.522822	-87.837614	-28.187881
15314		9.742251	-0.412063	0.122392	-0.011485	0.007871	-0.000226	-0.632080	-0.185547	0.445801	176.539043	-87.840543	-28.210286
15315		9.746448	-0.395322	0.093223	-0.006365	0.008033	-0.000164	-0.631592	-0.178223	0.438721	176.506431	-87.840745	-28.178721
15316		9.714771	-0.392323	0.131057	-0.004421	0.008556	-0.001295	-0.634033	-0.171631	0.452393	176.510775	-87.844115	-28.185009
15317		9.749304	-0.360746	0.094585	-0.003040	0.009132	-0.000900	-0.632813	-0.184814	0.444580	176.467809	-87.844920	-28.141176
15318		9.717623	-0.357714	0.132372	-0.005390	0.006468	-0.001285	-0.631104	-0.181885	0.452637	176.474593	-87.847047	-28.148535
15319		9.745087	-0.377226	0.125782	-0.008153	0.005317	-0.002075	-0.625977	-0.190918	0.445557	176.414399	-87.845628	-28.090394
15320		9.776764	-0.380125	0.089265	-0.007896	0.005997	0.001369	-0.633545	-0.179199	0.452881	176.457949	-87.847486	-28.138453
15321		9.772544	-0.396804	0.119728	-0.009947	0.006256	-0.002874	-0.616699	-0.185303	0.448242	176.383682	-87.846575	-28.067258
15322		9.782812	-0.397137	0.161392	-0.010922	0.007821	-0.001754	-0.628906	-0.185791	0.445557	176.377012	-87.849321	-28.065480
15323		9.746434	-0.394390	0.098447	-0.009534	0.004743	-0.002471	-0.627930	-0.182861	0.451416	176.310590	-87.847557	-28.001898
15324		9.743580	-0.428510	0.099152	-0.007590	0.005267	-0.003600	-0.635498	-0.183838	0.448730	176.280059	-87.848836	-27.975010
15325		9.760932	-0.377654	0.110440	-0.007739	0.003805	-0.001672	-0.625977	-0.175293	0.448975	176.227854	-87.846562	-27.924627
15326		9.726379	-0.409026	0.147985	-0.007327	0.002291	-0.001268	-0.633057	-0.182861	0.457764	176.237418	-87.846267	-27.936138
15327		9.753866	-0.428272	0.141032	-0.005075	0.002086	-0.007366	-0.636963	-0.177979	0.445557	176.102172	-87.842790	-27.801127
15328		9.726418	-0.408000	0.148283	-0.005225	0.000623	-0.005438	-0.631104	-0.174561	0.451416	176.051586	-87.841394	-27.751009
15329		9.730656	-0.390827	0.118498	-0.003025	0.001825	-0.003123	-0.631592	-0.177734	0.439209	175.982645	-87.837924	-27.681175
15330		9.742292	-0.408715	0.130109	-0.003438	0.003339	-0.003527	-0.625244	-0.181396	0.447998	175.960217	-87.838207	-27.657850
15331		9.734899	-0.373422	0.088986	-0.003994	-0.000263	-0.003115	-0.626465	-0.182129	0.448242	175.893376	-87.833540	-27.590672
15332		9.746542	-0.391276	0.100243	-0.003018	-0.001828	-0.004235	-0.630859	-0.176758	0.445313	175.864194	-87.830719	-27.561867
15333		9.772670	-0.392857	0.122423	-0.005367	-0.004492	-0.004622	-0.633545	-0.183838	0.447998	175.779016	-87.823568	-27.477126
15334		9.734953	-0.372173	0.088353	-0.008963	0.001038	-0.005109	-0.626953	-0.185547	0.451660	175.731429	-87.822448	-27.432810
15335		9.772709	-0.391902	0.122310	-0.003844	0.001199	-0.005043	-0.627441	-0.186035	0.454102	175.635082	-87.818524	-27.336019
15336		9.774092	-0.409234	0.092825	-0.002207	0.002452	-0.001203	-0.632813	-0.181885	0.456055	175.646584	-87.818223	-27.347956
15337		9.746624	-0.389234	0.100168	-0.001900	0.001724	-0.006172	-0.626953	-0.183838	0.452637	175.534186	-87.814544	-27.233986
15338		9.772747	-0.390811	0.122763	-0.002612	0.000312	-0.002719	-0.625977	-0.185303	0.444336	175.526291	-87.812982	-27.225615
15339		9.726586	-0.403772	0.148836	0.002244	0.003450	-0.004986	-0.624268	-0.172607	0.446045	175.432408	-87.810334	-27.127797
15340		9.729443	-0.368877	0.148744	0.000308	-0.000728	-0.004969	-0.634521	-0.178467	0.450439	175.394723	-87.808152	-27.088047
15341		9.771413	-0.371880	0.152949	0.001267	0.005015	-0.003865	-0.635742	-0.188965	0.447021	175.315455	-87.806442	-27.005415
15342		9.729473	-0.367980	0.149003	-0.003422	-0.003968	-0.005753	-0.623535	-0.174805	0.458252	175.267788	-87.802429	-26.958403
15343		9.771454	-0.370968	0.152555	-0.002191	-0.004855	-0.003429	-0.625977	-0.173584	0.444824	175.205656	-87.795099	-26.894903
15344		9.726687	-0.401466	0.148429	0.005022	-0.002705	-0.006420	-0.632813	-0.178711	0.445068	175.153239	-87.791651	-26.835598
15345		9.772878	-0.387612	0.122473	0.004451	0.000999	-0.003783	-0.631836	-0.179932	0.448730	175.082944	-87.787641	-26.760120
15346		9.715091	-0.382237	0.137006	0.004609	-0.001192	-0.006824	-0.632568	-0.192871	0.457031	175.022229	-87.785166	-26.694577
15347		9.737020	-0.400392	0.189077	0.005849	-0.005732	-0.005613	-0.628174	-0.180420	0.451172	174.935039	-87.777215	-26.601389
15348		9.779013	-0.403157	0.192705	0.006967	-0.002180	-0.007550	-0.626465	-0.180420	0.446533	174.864749	-87.773997	-26.526195
15349		9.771604	-0.367473	0.151411	0.005577	0.000898	-0.006833	-0.631348	-0.180664	0.444580	174.751680	-87.769756	-26.407264
15350		9.761371	-0.366265	0.110012	0.002121	-0.008973	-0.006396	-0.628662	-0.183350	0.457275	174.706774	-87.762832	-26.359575
15351		9.806188	-0.334486	0.112866	-0.001873	-0.009237	-0.009511	-0.637207	-0.177490	0.453125	174.565380	-87.752653	-26.216567
15352		9.807604	-0.351286	0.082634	-0.003273	-0.002506	-0.007681	-0.625977	-0.182373	0.456543	174.490902	-87.749272	-26.141071
15353		9.771753	-0.364406	0.149227	-0.002296	-0.004070	-0.008802	-0.624512	-0.189209	0.450928	174.353958	-87.742059	-26.002757
15354		9.734023	-0.343325	0.114797	0.002833	-0.007559	-0.009851	-0.627441	-0.181641	0.450195	174.257879	-87.735577	-25.904076
15355		9.755993	-0.361181	0.166644	-0.000915	-0.003494	-0.008407	-0.633057	-0.177002	0.448730	174.128133	-87.728694	-25.772174
15356		9.729913	-0.358336	0.143732	0.000062	-0.005057	-0.009529	-0.627197	-0.182373	0.446533	174.034551	-87.723784	-25.676069
15357		9.729958	-0.357469	0.142798	-0.005748	-0.013941	-0.008365	-0.626221	-0.180664	0.446289	173.919906	-87.710932	-25.562050
15358		9.741682	-0.374611	0.152765	-0.000321	-0.014502	-0.013273	-0.624268	-0.174805	0.446045	173.787991	-87.700389	-25.428890
15359		9.741754	-0.373472	0.150940	-0.005312	-0.022759	-0.010189	-0.618164	-0.187500	0.450439	173.664213	-87.682381	-25.305479
15360		9.732948	-0.319719	0.136975	-0.006533	-0.025524	-0.013628	-0.623047	-0.184814	0.458984	173.543800	-87.665441	-25.187225
15361		9.744707	-0.336628	0.145675	-0.005703	-0.028548	-0.012823	-0.631592	-0.182373	0.449951	173.396307	-87.643945	-25.040299
15362		9.753696	-0.388063	0.154437	-0.011383	-0.028662	-0.011362	-0.641357	-0.184326	0.445801	173.313066	-87.625346	-24.961738
15363		9.757901	-0.370312	0.121890	-0.011955	-0.024959	-0.008723	-0.624512	-0.174561	0.454834	173.216491	-87.606148	-24.869354
15364		9.766885	-0.422076	0.131095	-0.005870	-0.022702	-0.008672	-0.625732	-0.177246	0.450684	173.167093	-87.591256	-24.820621
15365		9.771073	-0.404165	0.098840	0.011184	-0.026001	-0.014185	-0.623291	-0.181641	0.454346	173.014636	-87.571077	-24.659035
15366		9.811783	-0.388727	0.130141	0.017931	-0.020929	-0.009172	-0.624512	-0.181152	0.455811	172.970682	-87.557037	-24.602177
15367		9.784334	-0.368148	0.135865	0.013080	-0.010867	-0.010858	-0.629639	-0.191162	0.454346	172.842000	-87.545677	-24.463297
15368		9.846341	-0.285349	0.149633	0.007117	-0.004358	-0.010607	-0.620361	-0.176270	0.445068	172.745446	-87.540930	-24.361480
15369		9.939352	-0.274135	0.228491	0.001937	0.013731	-0.005092	-0.621094	-0.178955	0.455078	172.646479	-87.543949	-24.258730
15370		9.931103	-0.307621	0.290832	-0.011709	0.037852	0.003331	-0.622803	-0.178467	0.450195	172.653364	-87.564226	-24.269711
15371		9.917216	-0.410659	0.355631	-0.007614	0.054193	0.008969	-0.621338	-0.180664	0.457031	172.666255	-87.591264	-24.284400
15372		9.912832	-0.428594	0.391233	0.000098	0.061361	0.013970	-0.628662	-0.181885	0.452148	172.784355	-87.625639	-24.399979
15373		9.879491	-0.478914	0.405077	0.008435	0.063427	0.007915	-0.629639	-0.170898	0.453369	172.777544	-87.657849	-24.385745
15374		9.923947	-0.518526	0.356288	0.004943	0.068174	0.012797	-0.624756	-0.179688	0.457764	172.875959	-87.696100	-24.477880
15375		9.920771	-0.484186	0.423200	0.009809	0.084539	0.006553	-0.622803	-0.176758	0.450684	172.813121	-87.740217	-24.406788
15376		9.930531	-0.485464	0.473625	0.017383	0.103469	0.009510	-0.629150	-0.179199	0.446045	172.808427	-87.798204	-24.389122
15377		9.900908	-0.449216	0.521806	0.032429	0.125247	0.012916	-0.626953	-0.181641	0.452393	172.771934	-87.865915	-24.331430
15378		9.886982	-0.414721	0.553571	0.042210	0.145410	0.018167	-0.637695	-0.181396	0.444580	172.831981	-87.948449	-24.365350
15379		9.856908	-0.379037	0.605873	0.052306	0.168520	0.019539	-0.625488	-0.183350	0.448730	172.822583	-88.041235	-24.323379
15380		9.907626	-0.384676	0.668998	0.057963	0.186991	0.023559	-0.633545	-0.185059	0.450684	172.900050	-88.147828	-24.366376
15381		9.911609	-0.403844	0.759613	0.049405	0.204878	0.024262	-0.620605	-0.177979	0.443604	172.891083	-88.261624	-24.326505
15382		9.923030	-0.441966	0.763878	0.038201	0.241406	0.027696	-0.636719	-0.178955	0.445557	172.913578	-88.399361	-24.325655
15383		9.933381	-0.410423	0.830886	0.032058	0.282596	0.026877	-0.628906	-0.177490	0.444580	172.728411	-88.557523	-24.119471
15384		9.885121	-0.373941	0.914777	0.031181	0.308566	0.027083	-0.641357	-0.176758	0.440186	172.494111	-88.733428	-23.864859
15385		9.824034	-0.371439	0.959009	0.006794	0.315145	0.025505	-0.633301	-0.172607	0.441406	171.997006	-88.909902	-23.361179
15386		9.812350	-0.321605	0.978050	-0.026390	0.317536	0.028340	-0.635010	-0.178223	0.433105	171.486560	-89.090939	-22.862623
15387		9.876359	-0.330167	1.038147	-0.051188	0.333014	0.028419	-0.643311	-0.173340	0.431152	170.460419	-89.277518	-21.863134
15388		9.889076	-0.335217	1.053444	-0.065507	0.345869	0.031051	-0.635742	-0.169678	0.427002	168.902547	-89.474444	-20.340456
15389		9.983594	-0.382067	1.182046	-0.109559	0.366465	0.040305	-0.640381	-0.178711	0.428711	165.604281	-89.679979	-17.102302
15390		9.958067	-0.369630	1.065563	-0.141399	0.391664	0.049715	-0.643311	-0.169434	0.423340	150.020444	-89.899573	-1.596763
15391		9.951748	-0.428718	0.771981	-0.131759	0.379839	0.049924	-0.641602	-0.184326	0.419678	10.146210	-89.871611	138.204629
15392		9.934216	-0.450964	0.596487	-0.087346	0.386175	0.051453	-0.645264	-0.177002	0.414063	-1.359500	-89.653742	149.662359
15393		9.942705	-0.423013	0.677396	-0.043188	0.413937	0.056126	-0.645020	-0.181396	0.417480	-3.901466	-89.419641	152.182235
15394		9.902348	-0.408284	0.884686	-0.038698	0.429359	0.053009	-0.649658	-0.176025	0.416504	-4.943419	-89.173423	153.203419
15395		9.836790	-0.339036	0.996793	-0.052242	0.416560	0.046224	-0.651367	-0.180176	0.411865	-5.244449	-88.937726	153.477130
15396		9.928004	-0.369168	0.961968	-0.060043	0.415724	0.035998	-0.653320	-0.179199	0.409180	-5.275286	-88.700070	153.475708
15397		9.970472	-0.393614	0.880775	-0.035695	0.440147	0.023266	-0.651611	-0.173828	0.408447	-4.900382	-88.452077	153.082809
15398		9.997816	-0.484671	0.861546	0.024494	0.469352	0.013306	-0.654297	-0.182373	0.404297	-4.440312	-88.184886	152.639115
15399		9.953616	-0.568469	1.015996	0.056498	0.508678	-0.000919	-0.655273	-0.178223	0.400391	-3.758631	-87.898584	151.992006
15400		9.952568	-0.636551	1.008746	0.017578	0.530373	-0.019283	-0.661865	-0.177246	0.395508	-3.037385	-87.597401	151.281639
15401		10.037646	-0.553623	0.761714	-0.040798	0.507480	-0.040869	-0.668945	-0.174561	0.396240	-2.212890	-87.312355	150.435514
15402		9.859812	-0.430160	0.798871	-0.057229	0.507110	-0.051491	-0.666016	-0.175537	0.381348	-1.482923	-87.024346	149.674686
15403		9.825778	-0.371564	0.955148	-0.063160	0.531554	-0.053728	-0.669678	-0.178955	0.383545	-0.822796	-86.724787	148.979918
15404		9.879730	-0.372183	0.998334	-0.024424	0.526782	-0.044379	-0.667236	-0.175293	0.380615	-0.377217	-86.424598	148.521403
15405		9.918513	-0.338312	1.060641	0.020351	0.559213	-0.018257	-0.682373	-0.175537	0.376953	-0.163557	-86.108554	148.321558
15406		9.742447	-0.374240	1.153697	0.024507	0.587080	-0.013579	-0.677979	-0.181152	0.372314	-0.046872	-85.773593	148.221837
15407		9.812666	-0.379001	1.186112	0.034936	0.572346	-0.012255	-0.670410	-0.177979	0.378662	0.079833	-85.449963	148.117422
15408		9.712590	-0.371369	1.469574	0.057801	0.628249	-0.008657	-0.678223	-0.187256	0.367188	0.152778	-85.091617	148.079892
15409		9.931920	-0.423138	1.462948	0.041016	0.670297	-0.012436	-0.680420	-0.179199	0.356934	0.255438	-84.711840	148.003007
15410		9.900847	-0.449835	0.993975	-0.039820	0.701849	-0.015502	-0.681396	-0.175049	0.363770	0.296487	-84.311145	147.939571
15411		9.807527	-0.440141	1.002071	-0.046407	0.719104	-0.029866	-0.686279	-0.179688	0.348145	0.423704	-83.903323	147.787540
15412		9.642911	-0.461888	1.341571	0.018422	0.717979	-0.025046	-0.689697	-0.169678	0.345459	0.524782	-83.493460	147.699366
15413		9.661154	-0.393111	1.437611	0.018355	0.710637	-0.013798	-0.695801	-0.178711	0.344971	0.581040	-83.090528	147.655905
15414		9.597446	-0.302501	1.625615	0.008591	0.718020	-0.000938	-0.690918	-0.175781	0.337891	0.548977	-82.680652	147.697101
15415		9.560405	-0.319013	1.780878	0.016193	0.718895	0.010382	-0.690430	-0.178467	0.336182	0.495671	-82.273117	147.762828
15416		9.462299	-0.365621	1.980005	0.031971	0.688008	0.001568	-0.693848	-0.181152	0.328613	0.477216	-81.880709	147.802931
15417		9.525852	-0.476073	2.151044	0.049377	0.672899	-0.011435	-0.699463	-0.177490	0.322510	0.537082	-81.499414	147.773627
15418		9.515385	-0.525127	2.186221	0.059898	0.676872	-0.024393	-0.706055	-0.180420	0.321289	0.631946	-81.113137	147.714487
15419		9.469155	-0.536180	2.252662	0.063045	0.689895	-0.024714	-0.696777	-0.179199	0.319580	0.736627	-80.722002	147.647668
15420		9.451755	-0.440132	1.827682	0.067851	0.724740	-0.010892	-0.707275	-0.182861	0.307861	0.775965	-80.308624	147.649846
15421		9.427221	-0.298154	1.830617	0.041148	0.774309	-0.002853	-0.707031	-0.173096	0.302490	0.783310	-79.869281	147.668939
15422		9.468796	-0.252420	2.017471	-0.020275	0.808857	0.009458	-0.712402	-0.181152	0.302734	0.704830	-79.407544	147.739284
15423		9.363027	-0.228568	2.010803	-0.026497	0.805566	0.022312	-0.711914	-0.180420	0.287109	0.603562	-78.950450	147.829552
15424		9.336543	-0.250142	2.238656	-0.014809	0.756260	0.028807	-0.716553	-0.178223	0.287842	0.488608	-78.519031	147.939884
15425		9.279698	-0.251362	2.420611	0.000486	0.728119	0.027142	-0.714844	-0.174805	0.286377	0.405818	-78.106273	148.027343
15426		9.320120	-0.261108	2.656830	0.029210	0.709044	0.028549	-0.720703	-0.181152	0.270264	0.330407	-77.702157	148.124970
15427		9.334136	-0.425290	3.040872	0.060594	0.613949	0.006684	-0.723389	-0.180420	0.267822	0.345890	-77.354709	148.147310
15428		9.584527	-0.526799	2.760843	0.086497	0.541321	-0.002565	-0.723633	-0.177734	0.265869	0.390954	-77.045819	148.152775
15429		9.613859	-0.656585	2.193683	0.129295	0.571334	0.001026	-0.729980	-0.177979	0.258301	0.459331	-76.722770	148.161278
15430		9.367437	-0.753356	2.087530	0.175626	0.609589	0.010039	-0.723877	-0.176025	0.258789	0.520479	-76.374858	148.203715
15431		9.233239	-0.708914	2.268411	0.105644	0.610677	0.024048	-0.722656	-0.170654	0.257813	0.519015	-76.029390	148.270206
15432		9.184994	-0.482669	2.384115	0.063598	0.648375	0.040229	-0.730225	-0.176270	0.250488	0.448400	-75.660133	148.383737
15433		9.313283	-0.306161	2.466586	0.067588	0.639843	0.032523	-0.731934	-0.179443	0.245361	0.411337	-75.297967	148.464688
15434		9.363236	-0.228716	2.714316	0.057417	0.639925	0.028159	-0.727051	-0.173584	0.245850	0.372646	-74.933198	148.540377
15435		9.324532	-0.232071	3.110034	0.059146	0.599997	0.025089	-0.730225	-0.168945	0.238525	0.352322	-74.593811	148.599236
15436		9.379336	-0.224967	3.423292	0.048939	0.551646	0.028913	-0.725586	-0.173584	0.238281	0.311420	-74.280275	148.674353
15437		9.282144	-0.306203	3.495358	0.039781	0.518149	0.024187	-0.733154	-0.182617	0.234619	0.286368	-73.987762	148.726772
15438		9.249271	-0.282951	3.130292	0.058069	0.473266	0.024408	-0.732178	-0.180420	0.226807	0.267476	-73.719562	148.782694
15439		9.240387	-0.416801	2.723680	0.072078	0.522171	0.025095	-0.734375	-0.170166	0.227539	0.261542	-73.424739	148.834624
15440		9.196846	-0.482062	2.585990	0.039591	0.538736	0.022922	-0.738770	-0.172607	0.218506	0.235684	-73.118709	148.887310
15441		9.195427	-0.398136	2.690551	0.004288	0.469310	0.010892	-0.733887	-0.173340	0.210693	0.220323	-72.854130	148.908640
15442		9.387410	-0.452691	2.852669	0.018142	0.457831	0.017467	-0.741699	-0.181396	0.216553	0.194086	-72.593691	148.948653
15443		9.553202	-0.511207	3.430503	0.046325	0.577371	0.038069	-0.748291	-0.169922	0.211914	0.154507	-72.267239	149.020713
15444		9.677654	-0.312481	3.256341	0.074038	0.473744	0.002852	-0.734131	-0.159912	0.201172	0.189011	-71.998513	149.031561
15445		9.403486	-0.356231	3.433085	0.161235	0.276250	-0.024535	-0.742676	-0.173584	0.202881	0.328127	-71.844458	148.985111
15446		9.092892	-0.656983	3.632283	0.112974	0.478682	0.021112	-0.743164	-0.169922	0.197998	0.347894	-71.572405	149.035715
15447		9.061062	-0.719649	3.251361	0.038918	0.540251	0.016516	-0.747314	-0.173340	0.197998	0.342279	-71.267212	149.067883
15448		9.060623	-0.738261	3.231762	0.045476	0.540169	0.025491	-0.737793	-0.174805	0.195068	0.319169	-70.960140	149.122268
15449		9.064790	-0.603721	3.355120	0.027039	0.545500	0.031718	-0.746094	-0.168701	0.190186	0.283399	-70.651977	149.179277
15450		9.015531	-0.551352	3.442165	0.032224	0.527292	0.031517	-0.749512	-0.170654	0.182373	0.246848	-70.353088	149.239846
15451		9.152226	-0.518747	3.899040	0.063784	0.568597	0.040422	-0.751709	-0.177734	0.181396	0.220942	-70.031689	149.308964
15452		9.171575	-0.396229	3.414896	0.066004	0.553343	0.033870	-0.748535	-0.173340	0.180664	0.203204	-69.717049	149.369471
15453		8.903750	-0.476802	3.198953	0.060534	0.558185	0.034431	-0.755127	-0.174316	0.170898	0.187467	-69.401588	149.426032
15454		9.038774	-0.547646	3.575255	0.015532	0.586283	0.039145	-0.751953	-0.169678	0.163086	0.135798	-69.068604	149.492344
15455		9.177121	-0.476022	3.500455	0.046654	0.640578	0.038495	-0.747070	-0.173340	0.155273	0.108700	-68.705915	149.552810
15456		9.033273	-0.345200	3.565160	0.057044	0.620619	0.024737	-0.753662	-0.170410	0.156250	0.104095	-68.351774	149.592966
15457		9.129719	-0.166019	3.784037	0.070060	0.593717	0.010784	-0.756104	-0.166748	0.156982	0.132271	-68.015900	149.608632
15458		9.123930	-0.083817	4.271900	0.084057	0.606096	0.019137	-0.759277	-0.167725	0.148438	0.150615	-67.671504	149.643179
15459		9.234231	-0.198779	4.411264	0.076339	0.591926	0.015776	-0.753418	-0.174316	0.147705	0.175339	-67.336668	149.666550
15460		8.984365	-0.261514	4.278811	0.086890	0.610832	0.010508	-0.754395	-0.169922	0.149658	0.208988	-66.989706	149.685639
15461		8.882725	-0.320811	4.176228	0.095317	0.639335	0.033988	-0.760498	-0.162354	0.139404	0.220008	-66.627753	149.735869
15462		8.639776	-0.507508	4.016070	0.090071	0.643458	0.050045	-0.761963	-0.161133	0.128906	0.201785	-66.263688	149.815813
15463		8.690537	-0.532261	3.945467	0.077596	0.655065	0.067057	-0.755859	-0.167725	0.125977	0.161917	-65.892771	149.910885
15464		8.707108	-0.438129	4.213403	0.025927	0.650099	0.075409	-0.767090	-0.165039	0.124756	0.077656	-65.522949	150.022019
15465		8.967558	-0.350071	4.436813	0.010352	0.629418	0.072683	-0.766113	-0.164795	0.114502	-0.002788	-65.166632	150.119895
15466		8.890240	-0.317698	4.625495	0.016554	0.620277	0.063110	-0.759521	-0.163574	0.113037	-0.071564	-64.814147	150.209097
15467		8.923001	-0.396927	4.652920	-0.001257	0.614130	0.046702	-0.758789	-0.172119	0.107910	-0.122709	-64.466519	150.267753
15468		8.645554	-0.302294	4.178937	0.028064	0.635436	0.039267	-0.760498	-0.164307	0.099854	-0.149321	-64.105865	150.316195
15469		8.504633	-0.279263	4.480703	0.034960	0.637658	0.040479	-0.766113	-0.173584	0.105713	-0.169913	-63.744739	150.364291
15470		8.828192	-0.298462	4.644360	0.013322	0.643249	0.047196	-0.757813	-0.159912	0.088623	-0.211175	-63.380105	150.420177
15471		8.548981	-0.393767	4.254075	0.047533	0.645819	0.037101	-0.766113	-0.158203	0.088135	-0.218653	-63.014290	150.461955
15472		8.603258	-0.509159	4.568450	0.067148	0.644092	0.036342	-0.769287	-0.163086	0.075439	-0.220289	-62.647841	150.509325
15473		8.524809	-0.402312	4.827938	0.083771	0.631865	0.030959	-0.761475	-0.162842	0.075195	-0.199224	-62.290035	150.542604
15474		8.698041	-0.368134	5.014675	0.132774	0.618089	0.028524	-0.765381	-0.165283	0.074707	-0.151991	-61.937384	150.575967
15475		8.516671	-0.383130	4.936288	0.158225	0.633085	0.042615	-0.758789	-0.161865	0.071045	-0.100794	-61.578886	150.623686
15476		8.455380	-0.358114	5.057094	0.206098	0.674810	0.039718	-0.767334	-0.166504	0.055664	-0.021842	-61.196222	150.669632
15477		8.312753	-0.462829	5.125179	0.183715	0.631541	0.043273	-0.768555	-0.166016	0.059082	0.043004	-60.838664	150.718781
15478		8.007289	-0.512783	4.737427	0.207944	0.660953	0.003696	-0.768555	-0.160156	0.056885	0.160087	-60.461770	150.721078
15479		8.242417	-0.461008	5.144123	0.152717	0.631429	-0.024573	-0.765625	-0.165039	0.048828	0.274288	-60.104216	150.693303
15480		8.094318	-0.249715	5.436396	0.116623	0.662270	-0.067558	-0.768066	-0.163330	0.047607	0.405436	-59.728175	150.620397
15481		8.586437	-0.183756	5.267145	0.157509	0.640742	-0.011387	-0.764160	-0.158936	0.043213	0.506223	-59.365290	150.611160
15482		8.128608	-0.066783	5.229446	0.135713	0.641856	0.016311	-0.766846	-0.158691	0.038818	0.563107	-59.002131	150.637584
15483		8.121020	0.039359	5.528621	0.113209	0.662578	0.018453	-0.762939	-0.168701	0.025879	0.608467	-58.626900	150.663397
15484		7.946372	-0.011762	5.652627	0.083212	0.641672	-0.015549	-0.761719	-0.167969	0.025879	0.666222	-58.262355	150.652365
15485		8.212639	-0.120629	5.638755	0.065424	0.617035	-0.031120	-0.772949	-0.168457	0.023193	0.729759	-57.912897	150.624713
15486		8.131666	-0.197026	5.538428	0.070966	0.609722	-0.014865	-0.762695	-0.169922	0.009766	0.781390	-57.567359	150.612327
15487		8.096316	-0.193081	5.481854	0.043709	0.615833	0.002984	-0.768066	-0.170410	0.016602	0.800448	-57.218836	150.622493
15488		7.953992	-0.146133	5.381680	0.031223	0.628501	0.000744	-0.767822	-0.164307	0.000000	0.815565	-56.861811	150.625624
15489		7.916354	-0.231256	5.660284	0.029565	0.608353	-0.000232	-0.769043	-0.157715	0.001465	0.829351	-56.517549	150.632484
15490		8.027559	-0.277543	5.815932	0.043872	0.613498	-0.004235	-0.772949	-0.163818	-0.008301	0.849563	-56.167904	150.639564
15491		7.927701	-0.338922	6.054717	0.039955	0.612656	0.004831	-0.769775	-0.162842	-0.010010	0.864787	-55.821222	150.651926
15492		7.815208	-0.399284	6.011564	0.030353	0.596725	0.006674	-0.764404	-0.175537	-0.014648	0.869256	-55.481114	150.668508
15493		7.714176	-0.304748	5.951225	0.042154	0.622408	0.010006	-0.762939	-0.165527	-0.028809	0.881437	-55.128892	150.686205
15494		7.575380	-0.293621	5.984158	0.030773	0.604103	0.007120	-0.771484	-0.165527	-0.017578	0.890983	-54.783131	150.694888
15495		7.584762	-0.174684	6.075633	0.055175	0.583927	0.010117	-0.765869	-0.166504	-0.021240	0.911165	-54.452960	150.712071
15496		7.565620	-0.138137	6.187411	0.078388	0.572025	0.002930	-0.765625	-0.166748	-0.032227	0.949184	-54.130696	150.722323
15497		7.491792	-0.164108	6.307144	0.088550	0.565241	-0.005976	-0.764893	-0.160400	-0.040039	1.001157	-53.811085	150.723981
15498		7.430807	-0.207120	6.370146	0.088482	0.549929	-0.021962	-0.771973	-0.175537	-0.045654	1.062032	-53.497521	150.711975
15499		7.466639	-0.259729	6.414306	0.056901	0.519749	-0.013288	-0.764160	-0.164307	-0.048584	1.101394	-53.203894	150.706764
15500		7.584117	-0.287067	6.479739	0.039809	0.516649	-0.013743	-0.775635	-0.168945	-0.051514	1.130798	-52.908307	150.698286
15501		7.324458	-0.245088	6.328740	0.030180	0.511627	-0.009529	-0.760742	-0.165039	-0.057373	1.151649	-52.619371	150.697055
15502		7.349502	-0.265573	6.268928	0.006978	0.497449	-0.010793	-0.769531	-0.165771	-0.048340	1.157821	-52.335182	150.694651
15503		7.371902	-0.235603	6.471915	0.006199	0.481987	0.002637	-0.763428	-0.170166	-0.057129	1.156266	-52.063365	150.704377
15504		7.339216	-0.200141	6.472865	0.003111	0.469074	-0.008163	-0.764160	-0.169678	-0.068848	1.160246	-51.799746	150.703195
15505		7.259778	-0.178254	6.671820	0.000420	0.478497	-0.005897	-0.763428	-0.162598	-0.062744	1.161735	-51.529829	150.704890
15506		7.103175	-0.165277	6.688511	0.012367	0.463771	-0.018472	-0.761719	-0.164795	-0.062744	1.176737	-51.266254	150.695582
15507		7.179024	-0.207286	6.810917	0.020911	0.462209	-0.032586	-0.754639	-0.174316	-0.077148	1.209017	-51.005349	150.672824
15508		7.046712	-0.244153	6.664506	0.026803	0.451281	-0.062505	-0.767090	-0.175781	-0.083496	1.265705	-50.749489	150.620350
15509		7.136431	-0.196506	6.629278	0.025495	0.429457	-0.063991	-0.766602	-0.167969	-0.086182	1.322171	-50.506913	150.569538
15510		7.212612	-0.184405	6.699343	-0.000213	0.418874	-0.036571	-0.763184	-0.177490	-0.088623	1.343347	-50.266510	150.541960
15511		7.077151	-0.223786	6.689264	0.002590	0.424867	-0.036878	-0.760742	-0.170410	-0.091553	1.367181	-50.026896	150.516205
15512		7.110439	-0.140619	6.765878	-0.011002	0.427303	-0.036832	-0.765137	-0.171631	-0.090088	1.382887	-49.782132	150.487502
15513		7.158281	-0.180974	6.856797	-0.013691	0.427369	-0.030802	-0.759766	-0.173096	-0.100342	1.392756	-49.541159	150.467646
15514		6.998293	-0.237517	6.865099	-0.016403	0.429309	-0.025541	-0.756592	-0.168701	-0.100342	1.395803	-49.296260	150.451783
15515		6.971401	-0.237413	6.930185	-0.002891	0.451374	-0.012080	-0.760254	-0.167480	-0.103027	1.398755	-49.041796	150.449101
15516		6.855739	-0.333288	6.932606	-0.011117	0.431887	-0.011746	-0.760498	-0.177246	-0.101563	1.393017	-48.795609	150.448960
15517		6.849931	-0.282414	6.908840	0.006925	0.433332	-0.009963	-0.760742	-0.172852	-0.106201	1.400468	-48.551509	150.447756
15518		6.868755	-0.231842	6.883056	0.029697	0.430014	-0.024001	-0.762939	-0.174072	-0.110596	1.430150	-48.308491	150.431999
15519		6.960621	-0.238833	6.902426	0.039908	0.421820	-0.011911	-0.752441	-0.173096	-0.120117	1.457692	-48.070955	150.429186
15520		6.832760	-0.138959	6.819687	0.046576	0.425425	-0.005568	-0.759033	-0.178467	-0.120605	1.483337	-47.828235	150.431064
15521		6.809860	-0.101680	6.882813	0.049148	0.406021	0.002222	-0.762207	-0.169434	-0.120850	1.507261	-47.599957	150.440275
15522		6.862072	-0.106488	7.008349	0.051965	0.393960	0.011681	-0.759033	-0.166992	-0.128174	1.525221	-47.376289	150.457057
15523		6.879702	-0.142437	7.032145	0.050254	0.399550	0.014181	-0.759033	-0.177979	-0.127930	1.542414	-47.151904	150.476362
15524		6.776303	-0.220909	7.149539	0.042479	0.398351	0.016246	-0.760742	-0.177490	-0.130859	1.551089	-46.925076	150.498336
15525		6.763291	-0.324925	7.173978	0.035991	0.386282	0.028507	-0.752686	-0.172363	-0.133545	1.551732	-46.708517	150.529271
15526		6.705484	-0.338039	7.114813	0.045469	0.376285	0.032183	-0.749512	-0.176025	-0.137207	1.554956	-46.495317	150.561480
15527		6.699959	-0.390792	7.154985	0.061855	0.350862	0.046544	-0.757324	-0.169678	-0.144043	1.560453	-46.299327	150.606391
15528		6.630979	-0.334765	7.198917	0.028524	0.364178	0.041356	-0.749756	-0.171387	-0.147217	1.547808	-46.091543	150.646849
15529		6.689324	-0.222295	7.237860	0.018094	0.355517	0.044173	-0.754639	-0.175781	-0.144043	1.530087	-45.892839	150.689487
15530		6.693685	-0.157216	7.261478	0.020950	0.363463	0.043172	-0.753418	-0.174072	-0.145264	1.513410	-45.685643	150.729858
15531		6.667445	-0.141081	7.233733	0.006429	0.350801	0.034903	-0.751953	-0.175537	-0.155273	1.495050	-45.489483	150.764328
15532		6.668936	-0.128321	7.308674	0.003404	0.364485	0.025940	-0.750488	-0.168701	-0.151855	1.479826	-45.281976	150.789017
15533		6.633991	-0.197284	7.263446	0.011714	0.367219	0.018737	-0.760742	-0.165527	-0.161621	1.474010	-45.076161	150.810314
15534		6.674302	-0.273405	7.285029	-0.002697	0.355395	0.012381	-0.752686	-0.172363	-0.151855	1.458226	-44.873667	150.830805
15535		6.623832	-0.272041	7.309381	-0.002344	0.360926	0.007803	-0.749512	-0.171143	-0.166992	1.450951	-44.671291	150.842890
15536		6.626853	-0.224198	7.385422	0.002230	0.371239	0.020992	-0.750488	-0.175781	-0.166260	1.437061	-44.460915	150.865340
15537		6.568675	-0.291952	7.409686	-0.002228	0.372621	0.015907	-0.745850	-0.170898	-0.166260	1.425353	-44.251952	150.883949
15538		6.590112	-0.297925	7.467972	-0.003451	0.366786	0.012516	-0.756592	-0.170410	-0.176514	1.414462	-44.043069	150.897404
15539		6.489792	-0.293134	7.527087	-0.024282	0.369343	0.002639	-0.754395	-0.170654	-0.175781	1.397762	-43.835791	150.905137
15540		6.590879	-0.219568	7.465659	-0.030530	0.380586	0.000547	-0.745361	-0.174561	-0.163818	1.374644	-43.617565	150.913289
15541		6.465090	-0.212615	7.490542	-0.018406	0.382635	0.004183	-0.756592	-0.172607	-0.179932	1.360510	-43.402691	150.922246
15542		6.512389	-0.186317	7.481736	-0.022403	0.390731	0.003319	-0.749512	-0.170898	-0.178711	1.344423	-43.184008	150.928863
15543		6.479949	-0.222357	7.506646	-0.022195	0.390728	-0.003643	-0.752441	-0.173828	-0.181152	1.332403	-42.964389	150.931619
15544		6.452207	-0.206633	7.514988	-0.026262	0.395848	-0.000972	-0.746826	-0.173584	-0.179688	1.315168	-42.741563	150.936251
15545		6.389418	-0.308896	7.503928	-0.021449	0.392078	0.000546	-0.747314	-0.170654	-0.189941	1.301485	-42.521224	150.942116
15546		6.409835	-0.298554	7.547296	-0.028187	0.389507	0.008686	-0.744141	-0.171631	-0.196045	1.278535	-42.302343	150.953706
15547		6.282945	-0.308724	7.517651	-0.025572	0.388974	0.008923	-0.740234	-0.172119	-0.188965	1.258375	-42.083885	150.965747
15548		6.302003	-0.316126	7.543528	-0.027243	0.394512	0.020712	-0.737793	-0.170898	-0.197021	1.229980	-41.860640	150.985939
15549		6.250799	-0.282820	7.568173	-0.021983	0.399444	0.025730	-0.744873	-0.174072	-0.202393	1.203471	-41.636381	151.010709
15550		6.250325	-0.236902	7.577381	-0.033566	0.394862	0.022984	-0.746338	-0.164551	-0.198730	1.171006	-41.412290	151.031621
15551		6.220411	-0.240752	7.601836	-0.031072	0.392008	0.021852	-0.738525	-0.169678	-0.208496	1.141781	-41.192225	151.052834
15552		6.193403	-0.209631	7.626964	-0.022163	0.399628	0.017667	-0.735840	-0.169434	-0.211182	1.115530	-40.966969	151.074145
15553		6.209982	-0.250613	7.618807	-0.020707	0.398623	0.012297	-0.743164	-0.170166	-0.214844	1.097298	-40.742995	151.087822
15554		6.252054	-0.259532	7.647533	-0.014105	0.406512	0.012692	-0.733887	-0.166748	-0.218018	1.080120	-40.511442	151.102231
15555		6.191062	-0.243491	7.792560	-0.013500	0.410247	0.006574	-0.736816	-0.167480	-0.220703	1.068950	-40.280742	151.111510
15556		6.130807	-0.293435	7.798320	-0.003387	0.416950	0.001690	-0.729492	-0.173584	-0.215820	1.061937	-40.042580	151.119298
15557		6.048740	-0.305866	7.803495	0.001352	0.430847	-0.002645	-0.734375	-0.168945	-0.229004	1.063653	-39.799978	151.121851
15558		5.982033	-0.371678	7.860824	0.022744	0.430967	-0.004655	-0.737793	-0.165527	-0.221680	1.077933	-39.555313	151.121061
15559		5.918556	-0.385216	7.935993	0.025191	0.427207	-0.003039	-0.736816	-0.173828	-0.233154	1.093473	-39.314792	151.123378
15560		5.884951	-0.366269	7.978777	0.025230	0.423785	0.003062	-0.726563	-0.169434	-0.245117	1.103672	-39.076387	151.131366
15561		5.902790	-0.318203	8.026052	0.017318	0.424554	0.010802	-0.737305	-0.167725	-0.236816	1.108270	-38.837539	151.143936
15562		5.872137	-0.249985	8.086814	0.005417	0.419212	0.022068	-0.719238	-0.169434	-0.249023	1.097022	-38.596882	151.166267
15563		5.865681	-0.236183	8.096625	-0.002811	0.414747	0.027217	-0.727051	-0.175049	-0.245605	1.082884	-38.363828	151.190546
15564		5.838491	-0.203389	8.087274	-0.004961	0.414242	0.032084	-0.722656	-0.168457	-0.241211	1.064837	-38.124765	151.215056
15565		5.742226	-0.129447	8.071362	-0.006896	0.412286	0.025877	-0.723877	-0.172119	-0.255615	1.049336	-37.893095	151.238001
15566		5.699216	-0.183864	8.144874	-0.007541	0.399203	0.028857	-0.722412	-0.167236	-0.260254	1.031097	-37.666178	151.261497
15567		5.632183	-0.252964	8.197712	-0.006962	0.402317	0.027677	-0.720215	-0.169189	-0.247803	1.015179	-37.440227	151.285299
15568		5.562639	-0.373292	8.231224	-0.005835	0.381305	0.029241	-0.714111	-0.165039	-0.257080	0.997084	-37.223727	151.310093
15569		5.525151	-0.443962	8.250335	-0.001700	0.369814	0.029409	-0.723877	-0.172852	-0.266357	0.983996	-37.016401	151.334439
15570		5.474050	-0.409203	8.268368	-0.003601	0.357759	0.033073	-0.721436	-0.164307	-0.263916	0.966485	-36.812047	151.360374
15571		5.420683	-0.408718	8.284611	0.002740	0.345501	0.033645	-0.727783	-0.169434	-0.266602	0.954601	-36.618679	151.387193
15572		5.407288	-0.396704	8.392034	0.003069	0.332012	0.035633	-0.714355	-0.174316	-0.277100	0.938680	-36.431706	151.417265
15573		5.397814	-0.469618	8.410649	0.003595	0.308913	0.042661	-0.719971	-0.171387	-0.281738	0.924023	-36.259371	151.449823
15574		5.342867	-0.452399	8.475553	0.009946	0.295521	0.039039	-0.717529	-0.169434	-0.279297	0.914643	-36.086314	151.475044
15575		5.336998	-0.541874	8.474494	0.007870	0.268320	0.042920	-0.720215	-0.172119	-0.268799	0.902880	-35.937226	151.507108
15576		5.300662	-0.438181	8.487706	0.007350	0.247491	0.047804	-0.718506	-0.165039	-0.273438	0.888726	-35.798448	151.539892
15577		5.290524	-0.353663	8.485789	0.015917	0.237305	0.050014	-0.720947	-0.163818	-0.284912	0.879085	-35.667179	151.576433
15578		5.217685	-0.350279	8.525387	0.025377	0.225135	0.054242	-0.717773	-0.166504	-0.285400	0.868702	-35.540706	151.618856
15579		5.149005	-0.397067	8.511002	0.032481	0.194599	0.052910	-0.715820	-0.162842	-0.287354	0.867851	-35.433919	151.656824
15580		5.148008	-0.417170	8.574833	0.033156	0.171242	0.050692	-0.718750	-0.164307	-0.281982	0.864151	-35.335333	151.694915
15581		5.105855	-0.431718	8.596231	0.038175	0.147495	0.053532	-0.708984	-0.173584	-0.292236	0.866757	-35.255535	151.732724
15582		5.116060	-0.399040	8.642063	0.050778	0.127410	0.050634	-0.715088	-0.166260	-0.279541	0.877105	-35.182550	151.765694
15583		5.081953	-0.394628	8.644491	0.053439	0.101405	0.049595	-0.713135	-0.162842	-0.288086	0.890426	-35.129131	151.800213
15584		5.071347	-0.444084	8.630969	0.048354	0.081410	0.049218	-0.704834	-0.168457	-0.286133	0.898219	-35.085615	151.835308
15585		5.013636	-0.471670	8.626550	0.054329	0.058334	0.055369	-0.710693	-0.162842	-0.289063	0.910051	-35.056933	151.873381
15586		4.985417	-0.466990	8.625436	0.060472	0.033293	0.055318	-0.714844	-0.162354	-0.290527	0.923763	-35.037815	151.909843
15587		4.960097	-0.376364	8.676309	0.066546	0.008915	0.057341	-0.715088	-0.157471	-0.290283	0.942142	-35.037478	151.948735
15588		4.910554	-0.333966	8.703847	0.071504	-0.019223	0.052650	-0.716309	-0.161133	-0.290527	0.959123	-35.048600	151.988758
15589		4.905573	-0.381288	8.718293	0.081111	-0.051130	0.042738	-0.708252	-0.170166	-0.285645	0.992107	-35.082542	152.016728
15590		4.910176	-0.359049	8.732871	0.083768	-0.077756	0.039667	-0.714355	-0.172119	-0.289551	1.026207	-35.127356	152.041002
15591		4.882870	-0.334318	8.810654	0.083793	-0.107308	0.037657	-0.715088	-0.172852	-0.282227	1.063163	-35.193453	152.064677
15592		4.892828	-0.311731	8.822289	0.083373	-0.140033	0.039270	-0.719482	-0.162598	-0.282715	1.101872	-35.274688	152.082353
15593		4.911644	-0.306411	8.780709	0.078345	-0.173585	0.038657	-0.715332	-0.168213	-0.282959	1.135802	-35.378788	152.105765
15594		4.918700	-0.161941	8.770322	0.071548	-0.211460	0.043252	-0.718750	-0.164063	-0.268799	1.161765	-35.501744	152.131986
15595		4.979812	-0.091551	8.695452	0.072391	-0.245868	0.042170	-0.717041	-0.160889	-0.274170	1.191403	-35.647310	152.156770
15596		5.014505	-0.018283	8.649396	0.078575	-0.275254	0.036978	-0.716553	-0.152588	-0.278564	1.223770	-35.811096	152.179731
15597		5.091702	-0.001269	8.624783	0.078007	-0.301375	0.032475	-0.716553	-0.168213	-0.271240	1.261091	-35.988360	152.196705
15598		5.120700	-0.047937	8.556522	0.075327	-0.335682	0.034767	-0.720703	-0.162598	-0.271484	1.290967	-36.181152	152.218336
15599		5.246679	-0.054340	8.551494	0.059551	-0.360192	0.034815	-0.723389	-0.160645	-0.259766	1.317291	-36.392152	152.235867
15600		5.276438	-0.137687	8.479286	0.047378	-0.396202	0.039797	-0.725830	-0.155273	-0.265381	1.330681	-36.622673	152.259385
15601		5.223256	-0.126469	8.377088	0.027900	-0.422436	0.044015	-0.725098	-0.156250	-0.267334	1.335459	-36.869455	152.282429
15602		5.259869	-0.127287	8.354137	0.010395	-0.454251	0.048327	-0.728271	-0.165039	-0.259521	1.319829	-37.129442	152.316223
15603		5.271452	-0.178107	8.308828	0.003539	-0.488924	0.046071	-0.723633	-0.156982	-0.248535	1.310092	-37.414329	152.339909
15604		5.313349	-0.180328	8.282052	0.002537	-0.523195	0.047398	-0.733398	-0.169678	-0.252441	1.295459	-37.716360	152.366533
15605		5.385734	-0.150910	8.256105	-0.004734	-0.555146	0.033546	-0.724609	-0.161133	-0.241699	1.286819	-38.039011	152.380389
15606		5.419348	-0.116339	8.154231	-0.006676	-0.591169	0.029760	-0.730225	-0.162354	-0.236328	1.278049	-38.378992	152.389202
15607		5.489393	-0.138077	8.140507	-0.010295	-0.622773	0.017110	-0.738037	-0.156738	-0.241455	1.274136	-38.740167	152.390154
15608		5.537268	-0.034140	8.000679	-0.009014	-0.652626	0.003876	-0.730713	-0.159668	-0.228516	1.272510	-39.114848	152.384414
15609		5.597079	-0.000854	7.929315	-0.009068	-0.682442	0.003487	-0.737793	-0.162109	-0.232422	1.276287	-39.510028	152.374323
15610		5.659359	0.049491	7.872993	-0.019746	-0.717323	-0.005484	-0.743408	-0.159180	-0.225342	1.274805	-39.920133	152.358572
15611		5.726396	0.150539	7.865935	-0.040226	-0.759267	-0.006911	-0.740723	-0.163574	-0.212646	1.266745	-40.359187	152.339324
15612		5.908311	0.202378	7.966284	-0.069832	-0.801284	-0.012963	-0.738525	-0.158936	-0.204346	1.241218	-40.818257	152.317169
15613		6.172392	0.227732	7.944572	-0.077169	-0.845838	-0.021249	-0.745117	-0.159424	-0.200195	1.220218	-41.306735	152.285756
15614		6.371696	0.105302	7.966002	-0.063222	-0.871159	-0.043293	-0.745850	-0.149902	-0.185059	1.214424	-41.807303	152.240549
15615		6.490289	-0.161469	7.790164	-0.049052	-0.894468	-0.052189	-0.745117	-0.163086	-0.192627	1.226726	-42.323263	152.184088
15616		6.521811	-0.312467	7.609715	-0.033880	-0.900729	-0.070538	-0.743652	-0.159912	-0.186035	1.251783	-42.840372	152.118941
15617		6.584001	-0.378206	7.515389	-0.012053	-0.916893	-0.070918	-0.749512	-0.161377	-0.177490	1.297450	-43.368898	152.045779
15618		6.577528	-0.400155	7.384551	0.009607	-0.938705	-0.069054	-0.753418	-0.154297	-0.167480	1.350978	-43.903569	151.975373
15619		6.607757	-0.303338	7.235771	0.028009	-0.959875	-0.063966	-0.754150	-0.164307	-0.166260	1.419212	-44.456707	151.904192
15620		6.636215	-0.223766	7.137325	0.021889	-0.985497	-0.055284	-0.760254	-0.163574	-0.139404	1.473731	-45.018924	151.844130
15621		6.698414	-0.061362	7.018769	0.020848	-1.023636	-0.059072	-0.749512	-0.164551	-0.139648	1.539187	-45.608545	151.772494
15622		6.778135	0.029685	6.896756	0.022017	-1.053112	-0.051306	-0.754883	-0.161865	-0.136719	1.599708	-46.215283	151.707588
15623		6.955783	0.076355	6.871363	0.023282	-1.072475	-0.057106	-0.755127	-0.157227	-0.121094	1.669804	-46.832792	151.632931
15624		7.130171	0.106175	6.790026	0.021455	-1.090340	-0.057538	-0.760986	-0.166260	-0.118408	1.734130	-47.457099	151.562474
15625		7.223426	0.040647	6.744997	0.018816	-1.096548	-0.061608	-0.762207	-0.165771	-0.110840	1.809022	-48.088190	151.479379
15626		7.288367	0.011948	6.596468	0.021099	-1.107100	-0.059461	-0.761719	-0.159912	-0.106689	1.881594	-48.720573	151.398543
15627		7.347546	-0.085717	6.481928	0.015553	-1.111051	-0.056083	-0.765625	-0.169678	-0.090576	1.955963	-49.359929	151.315280
15628		7.357499	-0.144324	6.336284	0.023735	-1.127656	-0.053026	-0.762451	-0.161133	-0.081055	2.029240	-50.003264	151.236902
15629		7.438075	-0.226898	6.200229	0.034612	-1.119449	-0.055914	-0.763184	-0.161621	-0.076416	2.119641	-50.647281	151.148568
15630		7.551519	-0.225673	6.075935	0.039893	-1.132840	-0.048213	-0.764160	-0.170166	-0.053955	2.201961	-51.294431	151.072552
15631		7.660303	-0.259666	5.949647	0.031832	-1.140063	-0.034954	-0.773682	-0.160156	-0.044922	2.281796	-51.950551	150.997270
15632		7.792978	-0.105501	5.869952	0.029353	-1.123290	-0.031071	-0.775146	-0.169189	-0.042480	2.353175	-52.597789	150.931198
15633		7.802823	-0.062336	5.721056	0.035893	-1.116803	-0.028440	-0.772461	-0.163330	-0.032959	2.434796	-53.240623	150.857901
15634		7.846615	0.047455	5.601343	0.041981	-1.120230	-0.028696	-0.766357	-0.161133	-0.019531	2.515508	-53.882841	150.789298
15635		7.860477	0.057168	5.522520	0.044170	-1.099945	-0.035053	-0.770752	-0.163330	-0.013916	2.611959	-54.515722	150.704763
15636		7.942835	0.077581	5.413942	0.055562	-1.095206	-0.040635	-0.770996	-0.166504	-0.003418	2.713270	-55.144258	150.622210
15637		8.064786	0.062040	5.402011	0.037522	-1.092682	-0.045404	-0.772949	-0.163574	-0.003418	2.820763	-55.772516	150.520945
15638		8.104241	-0.018760	5.265257	0.028337	-1.091226	-0.044846	-0.769287	-0.160889	0.010742	2.917196	-56.396299	150.425807
15639		8.260506	-0.005816	5.172928	0.036248	-1.054843	-0.040038	-0.767334	-0.161133	0.019531	3.024975	-57.002857	150.324791
15640		8.243287	-0.044466	5.119975	0.055109	-1.070734	-0.040554	-0.765137	-0.170410	0.022217	3.137207	-57.615297	150.231024
15641		8.244386	-0.050693	5.027494	0.053028	-1.057251	-0.047189	-0.765381	-0.166016	0.041992	3.269216	-58.222773	150.114130
15642		8.367006	-0.030644	5.011605	0.077706	-1.039019	-0.039638	-0.760986	-0.167480	0.051514	3.405034	-58.816537	150.007756
15643		8.383648	-0.035736	4.987805	0.072170	-1.035988	-0.036578	-0.760254	-0.162842	0.056396	3.546207	-59.411918	149.894446
15644		8.427480	-0.009283	4.955903	0.044486	-1.050483	-0.047447	-0.767578	-0.172852	0.060547	3.679533	-60.013657	149.771528
15645		8.641921	0.031550	4.801067	0.027810	-1.044603	-0.047335	-0.760010	-0.162842	0.072754	3.816394	-60.613277	149.635302
15646		8.664270	0.055832	4.701424	0.018889	-1.021720	-0.041478	-0.764160	-0.165283	0.080566	3.937372	-61.196577	149.510358
15647		8.710672	0.111290	4.595043	0.017413	-1.001576	-0.033308	-0.771729	-0.168457	0.077637	4.061023	-61.771863	149.383928
15648		8.624578	0.146357	4.568228	0.035094	-1.007285	-0.026938	-0.765625	-0.166504	0.097656	4.182245	-62.345578	149.270600
15649		8.570307	0.092741	4.589837	-0.008270	-0.968944	-0.023721	-0.758789	-0.168457	0.101318	4.287976	-62.902370	149.149105
15650		8.598652	0.110895	4.457168	-0.010968	-0.964470	-0.022865	-0.761230	-0.170654	0.111816	4.385382	-63.453303	149.034576
15651		8.663565	0.027410	4.458136	-0.021276	-0.982768	-0.027445	-0.767090	-0.167480	0.110352	4.498613	-64.017620	148.897593
15652		8.893309	-0.060172	4.269568	0.002604	-0.935817	-0.031003	-0.762207	-0.173096	0.122559	4.620038	-64.550024	148.765449
15653		8.898744	-0.137335	4.255668	0.008884	-0.935066	-0.044677	-0.759521	-0.177002	0.136719	4.778183	-65.086015	148.599173
15654		8.884576	-0.201080	4.120137	-0.035402	-0.930244	-0.047319	-0.759033	-0.174072	0.138428	4.913567	-65.615209	148.428416
15655		8.874765	-0.260048	4.132391	-0.036539	-0.912271	-0.035818	-0.752686	-0.167725	0.149170	5.045232	-66.138277	148.264041
15656		8.923623	-0.313474	4.028800	-0.052996	-0.900414	-0.018352	-0.751953	-0.160156	0.153564	5.139102	-66.651673	148.129613
15657		8.782423	-0.271183	3.836221	-0.061787	-0.872158	-0.001165	-0.750488	-0.166260	0.153564	5.216822	-67.153407	148.009439
15658		8.867617	-0.240418	3.812578	-0.040778	-0.846230	0.004381	-0.749023	-0.168701	0.166748	5.283577	-67.635925	147.913580
15659		8.869270	-0.178457	3.958488	-0.057415	-0.828364	0.012362	-0.751709	-0.173340	0.173340	5.347478	-68.113277	147.811874
15660		8.900741	-0.031652	3.788414	-0.134255	-0.841552	0.014220	-0.753662	-0.171631	0.174805	5.358301	-68.594271	147.718390
15661		9.136505	0.115164	3.656215	-0.169807	-0.817043	0.030027	-0.750977	-0.170654	0.187988	5.335595	-69.066086	147.641173
15662		9.318627	0.176028	3.491370	-0.184911	-0.775219	0.039638	-0.741943	-0.169434	0.192627	5.271803	-69.509903	147.597219
15663		9.307531	0.167996	3.401635	-0.184140	-0.715029	0.039990	-0.739502	-0.171143	0.206299	5.212161	-69.924085	147.551075
15664		9.247281	0.187090	3.433398	-0.195497	-0.743710	0.017590	-0.738037	-0.167969	0.206299	5.174352	-70.351358	147.474123
15665		9.395515	0.194411	3.555935	-0.202595	-0.700907	0.003377	-0.740967	-0.167725	0.205811	5.161753	-70.755612	147.367119
15666		9.405453	0.046111	3.381730	-0.194943	-0.691181	-0.011331	-0.741943	-0.163086	0.223389	5.163816	-71.150135	147.248615
15667		9.515227	-0.109106	3.194189	-0.175321	-0.672302	-0.010137	-0.739014	-0.173828	0.214600	5.190102	-71.537361	147.117572
15668		9.461226	-0.244702	3.168873	-0.138866	-0.674472	-0.004510	-0.726318	-0.174072	0.220459	5.215356	-71.923154	147.010061
15669		9.447763	-0.303589	2.946846	-0.140177	-0.667321	-0.002494	-0.730469	-0.170898	0.225830	5.254416	-72.307894	146.887335
15670		9.366805	-0.313833	2.959038	-0.098035	-0.631072	-0.002802	-0.732422	-0.173096	0.228516	5.303064	-72.667963	146.777214
15671		9.366564	-0.250541	2.752354	-0.086675	-0.640545	-0.002052	-0.736084	-0.168213	0.229980	5.374954	-73.037382	146.652708
15672		9.448079	-0.231653	2.953969	-0.071906	-0.622533	0.004267	-0.728760	-0.166016	0.237061	5.426401	-73.391346	146.556365
15673		9.566116	-0.207405	2.918788	-0.056093	-0.599228	0.028638	-0.724854	-0.176514	0.248047	5.456570	-73.738799	146.494092
15674		9.583229	-0.368377	2.841456	-0.021885	-0.556487	0.037138	-0.732666	-0.170410	0.246582	5.467002	-74.058344	146.471030
15675		9.483805	-0.393594	2.935069	-0.029310	-0.550105	0.040120	-0.733398	-0.167725	0.247314	5.483174	-74.378397	146.439454
15676		9.430974	-0.334449	2.561936	-0.045906	-0.579125	0.036424	-0.721680	-0.170898	0.260254	5.482759	-74.709021	146.413704
15677		9.587944	-0.257264	2.685953	-0.030130	-0.542708	0.034555	-0.728027	-0.172119	0.258057	5.510506	-75.024547	146.369749
15678		9.478697	-0.226333	2.851886	0.021482	-0.509286	0.034231	-0.727295	-0.173828	0.262939	5.545807	-75.316650	146.346672
15679		9.454457	-0.239052	2.926882	0.002318	-0.548264	0.031963	-0.724854	-0.171631	0.266602	5.602556	-75.635183	146.292087
15680		9.538607	-0.276845	2.528153	0.016346	-0.526862	0.033200	-0.723877	-0.171387	0.272705	5.644144	-75.936235	146.258874
15681		9.350604	-0.309391	2.625408	0.080728	-0.498074	0.025642	-0.719482	-0.170166	0.276611	5.754033	-76.225763	146.195972
15682		9.341352	-0.305377	2.632929	0.077662	-0.527580	0.014542	-0.720459	-0.166748	0.280029	5.880011	-76.526782	146.112790
15683		9.401261	-0.194045	2.412414	0.067710	-0.512517	0.019719	-0.713623	-0.171143	0.284180	6.008370	-76.824121	146.023400
15684		9.394671	-0.201875	2.562257	0.095948	-0.499775	0.017560	-0.716553	-0.164795	0.279053	6.139106	-77.109428	145.946320
15685		9.515559	-0.106995	2.486927	0.085514	-0.493355	0.019275	-0.714111	-0.175537	0.297119	6.283739	-77.395725	145.850911
15686		9.527849	-0.068893	2.523869	0.057379	-0.475891	0.018327	-0.716309	-0.174316	0.291992	6.394411	-77.666755	145.771049
15687		9.553229	-0.017687	2.491295	0.037435	-0.462451	0.011611	-0.713623	-0.167969	0.296143	6.532602	-77.934868	145.654249
15688		9.540063	0.033707	2.400323	0.037317	-0.496750	0.020017	-0.712891	-0.173828	0.306885	6.643486	-78.217189	145.562073
15689		9.661066	0.043634	2.426462	0.031723	-0.452809	0.038669	-0.707275	-0.166016	0.299561	6.710994	-78.481523	145.514337
15690		9.568909	0.020906	2.536555	-0.009444	-0.480759	0.032165	-0.709229	-0.168945	0.301514	6.763807	-78.756251	145.454772
15691		9.554746	0.073575	2.531500	-0.031460	-0.454057	0.023125	-0.699219	-0.165527	0.313232	6.845897	-79.020217	145.355373
15692		9.469794	-0.015019	2.323038	-0.024234	-0.448160	0.004550	-0.703613	-0.166748	0.310059	6.965285	-79.274145	145.219494
15693		9.531431	-0.127795	2.199697	-0.043388	-0.468124	0.003444	-0.705322	-0.167480	0.320068	7.116411	-79.544647	145.043084
15694		9.568169	-0.178701	2.241915	-0.036935	-0.462085	-0.006360	-0.705322	-0.168701	0.315186	7.280779	-79.805522	144.854880
15695		9.427991	-0.184965	2.200276	-0.056839	-0.456448	0.000463	-0.701172	-0.174561	0.320313	7.446799	-80.068983	144.655811
15696		9.506506	-0.178961	2.043455	-0.058758	-0.438861	-0.008919	-0.698730	-0.168457	0.333008	7.619512	-80.314920	144.444712
15697		9.509264	-0.278793	2.091220	-0.038492	-0.428057	-0.005850	-0.699219	-0.164795	0.325195	7.824594	-80.561552	144.216992
15698		9.535623	-0.284589	1.949820	-0.040302	-0.460420	-0.010081	-0.694580	-0.176025	0.332031	8.038098	-80.821095	143.978456
15699		9.639705	-0.297384	1.792962	-0.045539	-0.404912	-0.000996	-0.691162	-0.170654	0.338379	8.233884	-81.054713	143.756385
15700		9.609101	-0.175235	2.130273	-0.027582	-0.423753	0.019108	-0.697021	-0.167969	0.342773	8.363882	-81.295728	143.607560
15701		9.565561	-0.098214	1.846880	-0.018529	-0.453173	0.031993	-0.698242	-0.167236	0.332275	8.498722	-81.559285	143.463070
15702		9.590427	-0.138770	1.789795	-0.009646	-0.460318	0.046598	-0.688232	-0.164063	0.344482	8.553595	-81.821523	143.402649
15703		9.598622	-0.181990	2.029642	-0.011499	-0.461987	0.032990	-0.690674	-0.172119	0.351318	8.709869	-82.090081	143.240774
15704		9.634911	-0.165245	1.700249	-0.039707	-0.464869	0.018371	-0.684570	-0.162354	0.352295	8.887397	-82.354034	143.039323
15705		9.687922	-0.101357	1.667503	-0.041141	-0.394945	0.015194	-0.697021	-0.165527	0.351318	9.081031	-82.582914	142.822829
15706		9.668637	-0.114081	1.716067	-0.019887	-0.395242	0.001133	-0.691406	-0.161621	0.352295	9.311609	-82.804665	142.580874
15707		9.613485	-0.242348	1.815388	-0.006651	-0.372589	0.005159	-0.682861	-0.168701	0.353027	9.582149	-83.019730	142.307011
15708		9.559105	-0.294354	1.670813	-0.023973	-0.413948	-0.013179	-0.685059	-0.168701	0.358398	9.928317	-83.249335	141.945039
15709		9.606550	-0.295857	1.643102	-0.008532	-0.399151	-0.015416	-0.677490	-0.170410	0.365967	10.361692	-83.476876	141.506416
15710		9.672725	-0.298916	1.599073	-0.018948	-0.422811	-0.023937	-0.684814	-0.169922	0.373535	10.843638	-83.711118	141.010166
15711		9.749970	-0.175574	1.324454	-0.025590	-0.349667	-0.002639	-0.676758	-0.166016	0.375488	11.215104	-83.911421	140.624370
15712		9.813932	-0.069982	1.423385	-0.009570	-0.334314	-0.002897	-0.671631	-0.165039	0.373779	11.556537	-84.099074	140.277274
15713		9.876884	-0.032448	1.569518	0.007564	-0.302302	0.020558	-0.675293	-0.171387	0.380615	11.812613	-84.275004	140.026825
15714		9.723135	-0.011996	1.764445	0.019059	-0.332640	0.025186	-0.683350	-0.168701	0.373291	12.053421	-84.464735	139.796785
15715		9.709921	-0.067794	1.678469	-0.018509	-0.350522	0.032370	-0.673096	-0.170166	0.376709	12.320046	-84.668869	139.520895
15716		9.716705	-0.159403	1.616973	-0.064847	-0.400738	0.030504	-0.676270	-0.168213	0.379883	12.602497	-84.894693	139.199665
15717		9.694886	-0.218846	1.440112	-0.064074	-0.423152	0.015824	-0.675537	-0.172363	0.388916	13.107316	-85.136973	138.658670
15718		9.723687	-0.220927	1.424754	-0.060565	-0.425482	-0.002230	-0.665771	-0.172363	0.386963	13.733829	-85.372679	137.995424
15719		9.570451	-0.229945	1.318590	-0.052560	-0.376970	-0.001011	-0.665527	-0.169189	0.389648	14.402496	-85.585898	137.297051
15720		9.673118	-0.204294	1.244167	-0.028441	-0.325786	-0.014894	-0.669922	-0.168945	0.386475	15.091111	-85.763699	136.589881
15721		9.694825	-0.184798	1.267746	-0.037268	-0.302150	-0.015133	-0.670654	-0.167725	0.398438	15.852188	-85.932032	135.807979
15722		9.685534	-0.072563	1.393084	-0.049244	-0.284159	-0.002882	-0.667480	-0.169434	0.386719	16.442198	-86.086842	135.189263
15723		9.786897	0.039424	1.351549	-0.081528	-0.237938	0.010730	-0.664307	-0.167480	0.403809	16.924813	-86.222949	134.661327
15724		9.808559	0.075412	1.453115	-0.104054	-0.226505	0.020070	-0.659424	-0.165771	0.397217	17.227637	-86.349523	134.299044
15725		9.696207	0.048324	1.490604	-0.085874	-0.200409	0.025473	-0.663818	-0.164307	0.403076	17.540724	-86.467189	133.938628
15726		9.749756	-0.036739	1.680738	-0.093517	-0.197334	0.019731	-0.660645	-0.172119	0.395508	17.811529	-86.578508	133.615896
15727		9.705329	-0.146616	1.513410	-0.101589	-0.224141	0.016703	-0.661621	-0.170166	0.406006	18.317910	-86.707267	133.052923
15728		9.514806	-0.206850	1.434535	-0.099600	-0.215971	0.017443	-0.665771	-0.179443	0.408691	18.736435	-86.827191	132.576918
15729		9.739213	-0.259996	1.443927	-0.101513	-0.169303	0.013690	-0.663086	-0.170410	0.400635	19.164257	-86.925147	132.092794
15730		9.528796	-0.331153	1.456558	-0.147427	-0.215583	-0.013362	-0.657471	-0.170166	0.399902	19.947696	-87.038160	131.223644
15731		9.593379	-0.302435	1.427333	-0.137874	-0.187985	-0.010044	-0.643066	-0.177002	0.401855	20.761217	-87.140747	130.332558
15732		9.692192	-0.291363	1.435837	-0.146530	-0.223669	-0.029334	-0.663574	-0.173096	0.413818	21.895521	-87.253694	129.112596
15733		9.819835	-0.206773	1.108373	-0.137694	-0.228124	-0.024905	-0.655518	-0.183594	0.404297	23.222261	-87.372443	127.707999
15734		9.946312	-0.131452	0.993677	-0.149357	-0.241718	-0.027003	-0.656494	-0.173340	0.412598	24.643355	-87.492505	126.200007
15735		10.123641	-0.092152	0.972378	-0.170916	-0.208745	-0.009046	-0.653320	-0.177490	0.409912	25.912410	-87.601835	124.834353
15736		10.049425	-0.071408	0.907530	-0.172453	-0.162955	-0.008552	-0.651855	-0.176514	0.410645	26.850224	-87.683744	123.798116
15737		9.942010	-0.027297	0.949583	-0.175661	-0.167728	-0.017863	-0.652832	-0.172607	0.418213	28.169304	-87.767535	122.379853
15738		9.916690	-0.075885	0.982336	-0.156104	-0.133095	-0.015256	-0.653564	-0.182373	0.411621	29.146671	-87.831249	121.314072
15739		9.825703	-0.135892	1.055845	-0.118922	-0.131597	-0.016478	-0.647461	-0.180908	0.405518	30.382847	-87.895182	120.011433
15740		9.855445	-0.200721	1.251255	-0.129849	-0.172819	-0.033971	-0.660400	-0.190674	0.414795	32.108425	-87.969730	118.210345
15741		9.730020	-0.147951	0.855847	-0.151823	-0.134782	-0.015124	-0.645752	-0.182373	0.415771	33.520943	-88.032943	116.712508
15742		9.708378	-0.215760	0.866015	-0.155523	-0.033894	0.000473	-0.651367	-0.187744	0.408691	33.662383	-88.049689	116.482046
15743		9.767444	-0.205334	0.780736	-0.202060	-0.046847	-0.012308	-0.654053	-0.179688	0.410400	34.258060	-88.070952	115.772769
15744		9.809031	-0.208914	0.787065	-0.188071	0.029150	-0.003956	-0.656250	-0.181396	0.414795	33.827833	-88.056216	116.096208
15745		9.721909	-0.201932	0.874785	-0.168744	0.026507	-0.009830	-0.642822	-0.188232	0.415771	33.715886	-88.043410	116.114060
15746		9.778369	-0.240537	0.865262	-0.134750	-0.031972	-0.021867	-0.651855	-0.186279	0.415039	34.160940	-88.052827	115.592797
15747		9.719989	-0.251589	0.942937	-0.116299	-0.027926	-0.018743	-0.651611	-0.188965	0.422363	34.718900	-88.062862	114.970425
15748		9.750927	-0.218876	0.861752	-0.106933	-0.065253	-0.028989	-0.650635	-0.187256	0.406494	35.621049	-88.085202	114.007792
15749		9.813326	-0.219260	0.989140	-0.079477	-0.040492	-0.036796	-0.652832	-0.187988	0.421875	36.596765	-88.094339	112.988552
15750		9.715336	-0.279531	1.029318	-0.084828	-0.046113	-0.009618	-0.654297	-0.184570	0.413086	37.066485	-88.113309	112.471162
15751		9.717036	-0.315225	0.924997	-0.055002	-0.034360	-0.006870	-0.643555	-0.193359	0.410400	37.598411	-88.129323	111.910000
15752		9.626016	-0.393616	1.080322	-0.028453	-0.011137	-0.002325	-0.645996	-0.195313	0.403809	37.640114	-88.134639	111.852976
15753		9.417199	-0.360285	1.216983	-0.032688	0.066682	-0.002977	-0.645752	-0.186523	0.413086	37.060415	-88.105979	112.416829
15754		9.881459	-0.427580	1.245142	-0.056721	0.023130	-0.007958	-0.648438	-0.184814	0.410889	36.807180	-88.093574	112.638440
15755		9.816712	-0.287604	0.781185	-0.053328	-0.092332	-0.027036	-0.655762	-0.192383	0.416992	38.229942	-88.128839	111.186914
15756		9.885067	-0.238553	0.734748	-0.020587	-0.045933	-0.024363	-0.647217	-0.189941	0.417969	38.960485	-88.142056	110.445640
15757		9.838276	-0.162907	0.781243	-0.017264	-0.040976	-0.032798	-0.649414	-0.191650	0.410889	39.968460	-88.150859	109.429823
15758		9.801661	-0.071444	0.695022	-0.044826	-0.099063	-0.032970	-0.653076	-0.191650	0.421631	41.455716	-88.183009	107.917330
15759		9.759168	-0.013740	0.707668	-0.023424	-0.084257	-0.025366	-0.657227	-0.187988	0.413330	42.929845	-88.211473	106.431625
15760		9.697578	-0.006764	0.809702	0.011588	-0.088038	-0.012295	-0.641602	-0.192383	0.416260	44.122633	-88.244811	105.246450
15761		9.685077	-0.022148	0.787596	0.000531	-0.118113	-0.009345	-0.644287	-0.182617	0.413330	45.955414	-88.291124	103.415716
15762		9.585522	-0.014787	0.780041	-0.019149	-0.093846	-0.000667	-0.648438	-0.179443	0.418701	47.179454	-88.329663	102.181604
15763		9.517163	-0.113352	0.883464	-0.015305	-0.073502	0.005873	-0.646240	-0.189209	0.415283	48.304822	-88.362577	101.049574
15764		9.583557	-0.222193	0.952013	-0.030835	-0.042970	0.011552	-0.638916	-0.178711	0.427979	48.672807	-88.385855	100.665539
15765		9.632293	-0.349070	0.867563	-0.093174	-0.039456	0.014087	-0.651855	-0.187500	0.415283	49.177633	-88.408815	100.109689
15766		9.758416	-0.326258	0.642023	-0.139838	-0.032908	0.001160	-0.646484	-0.188477	0.424561	49.494815	-88.423797	99.714138
15767		9.860429	-0.282777	0.564290	-0.124923	-0.027023	0.002491	-0.642090	-0.194092	0.413818	49.963186	-88.436864	99.176569
15768		9.965690	-0.221282	0.558842	-0.100822	-0.010842	-0.006730	-0.648682	-0.194336	0.424072	50.070269	-88.439743	99.012764
15769		10.081479	-0.090748	0.351188	-0.083995	-0.045133	-0.016587	-0.643555	-0.193115	0.425049	51.125502	-88.450725	97.911580
15770		10.099317	0.030652	0.460113	-0.048570	-0.025885	-0.012974	-0.642578	-0.190430	0.412598	51.602944	-88.456204	97.407391
15771		10.068401	0.050805	0.563907	-0.040631	-0.012026	-0.001759	-0.650146	-0.198730	0.415771	51.951602	-88.461506	97.037899
15772		9.954287	-0.028755	0.697330	-0.033966	0.013702	0.019114	-0.647949	-0.193115	0.420654	51.335208	-88.466947	97.635900
15773		9.792467	-0.227400	0.894191	-0.024896	-0.025945	0.024735	-0.646484	-0.194824	0.417236	51.575138	-88.489146	97.384196
15774		9.702798	-0.362371	0.775039	-0.021462	-0.064931	0.026199	-0.648438	-0.198486	0.424316	52.219248	-88.525865	96.728778
15775		9.673955	-0.432358	0.744585	-0.003040	-0.060980	0.029328	-0.647949	-0.192383	0.416016	53.066053	-88.562194	95.882538
15776		9.664513	-0.468868	0.698375	0.034641	-0.035223	0.025604	-0.640869	-0.192627	0.411865	53.265778	-88.588008	95.703734
15777		9.647339	-0.365988	0.672511	0.075308	0.001282	0.026379	-0.647217	-0.191162	0.418213	53.078927	-88.601401	95.936383
15778		9.649528	-0.194603	0.731247	0.095962	-0.004514	0.019832	-0.652100	-0.193848	0.416748	52.809650	-88.613984	96.261849
15779		9.661755	-0.023335	0.729813	0.092634	-0.017421	0.013811	-0.641113	-0.194580	0.418701	53.161995	-88.628060	95.965073
15780		9.771942	0.106665	0.725002	0.066972	-0.002783	0.011415	-0.642334	-0.189453	0.420166	52.963464	-88.636140	96.203059
15781		9.766977	0.175290	0.783595	0.048218	0.002785	0.022271	-0.642090	-0.191162	0.419922	52.780991	-88.647106	96.415798
15782		9.786532	0.102894	0.808409	0.020657	0.001255	0.022116	-0.646240	-0.194824	0.418457	52.317380	-88.658814	96.892790
15783		9.829509	0.011033	0.686030	-0.016994	0.004627	0.011741	-0.645264	-0.188232	0.424072	52.211695	-88.664308	96.991345
15784		9.809989	-0.058423	0.603608	-0.029384	0.006707	0.009930	-0.646729	-0.184570	0.422363	51.785541	-88.668405	97.402159
15785		9.885564	-0.133289	0.719655	-0.034400	0.015516	0.001006	-0.639404	-0.180420	0.423340	51.620540	-88.665184	97.550070
15786		9.879363	-0.185235	0.651344	-0.032719	0.038398	-0.002559	-0.649658	-0.189453	0.419922	50.773440	-88.652597	98.380901
15787		9.827475	-0.181355	0.708729	-0.037303	0.073781	-0.002131	-0.641602	-0.187988	0.420410	49.582209	-88.626524	99.553669
15788		9.845096	-0.199940	0.770202	-0.032273	0.081398	0.000223	-0.647217	-0.194336	0.413574	47.978133	-88.597732	101.141247
15789		9.857733	-0.184030	0.792146	-0.020012	0.118666	0.005278	-0.640137	-0.188477	0.412354	46.034662	-88.555722	103.076428
15790		9.817804	-0.130014	0.969923	-0.010183	0.152437	0.015282	-0.651611	-0.187256	0.416260	43.263206	-88.501060	105.843909
15791		9.839895	-0.115983	0.938123	-0.019143	0.152004	0.011712	-0.650879	-0.184570	0.418213	41.009735	-88.443425	108.089788
15792		9.871415	-0.068084	0.949629	-0.036751	0.185105	0.016049	-0.642822	-0.185547	0.414063	38.169228	-88.368877	110.912281
15793		9.852140	-0.068667	0.986789	-0.048877	0.220736	0.013263	-0.646729	-0.195557	0.409424	35.461252	-88.274928	113.595982
15794		9.880707	-0.072566	1.076445	-0.051331	0.253138	0.011421	-0.653809	-0.187988	0.413330	32.538942	-88.159155	116.491459
15795		9.912823	-0.111141	1.210317	-0.052792	0.267662	0.006220	-0.647705	-0.186279	0.409668	30.111444	-88.033052	118.892611
15796		9.985518	-0.135470	1.283716	-0.059326	0.310206	0.009573	-0.652344	-0.187500	0.406738	27.437687	-87.880500	121.535878
15797		10.024282	-0.158728	1.536335	-0.094808	0.318569	0.019752	-0.648193	-0.186035	0.404785	25.087181	-87.725119	123.836331
15798		9.975805	-0.244977	1.389071	-0.119060	0.337185	0.014872	-0.645752	-0.194336	0.399902	22.834255	-87.552286	126.024636
15799		9.845071	-0.341431	1.294093	-0.109587	0.276186	-0.000039	-0.657959	-0.189941	0.397461	21.474478	-87.409222	127.325460
15800		9.873583	-0.551921	1.225796	-0.054374	0.239760	-0.002203	-0.655029	-0.192139	0.395508	20.332524	-87.280303	128.438518
15801		9.926306	-0.519972	1.054604	-0.019989	0.195943	-0.011566	-0.666504	-0.190430	0.398438	19.706806	-87.176153	129.056085
15802		9.969996	-0.382561	0.896895	-0.003176	0.153866	-0.014373	-0.663818	-0.191162	0.391357	19.195241	-87.089972	129.567915
15803		10.015992	-0.140553	0.696848	-0.009441	0.169696	-0.021813	-0.655762	-0.188721	0.395264	18.851661	-86.997622	129.909118
15804		9.988924	0.001672	0.751849	0.005087	0.244494	-0.021034	-0.660156	-0.184814	0.392822	18.164678	-86.860604	130.601471
15805		9.877138	-0.008026	1.092681	0.037447	0.308309	-0.010710	-0.662598	-0.191895	0.397217	17.374062	-86.694199	131.417411
15806		9.753024	-0.155911	1.436289	0.060756	0.331304	-0.001831	-0.658936	-0.190918	0.389648	16.429722	-86.512043	132.400210
15807		9.744095	-0.260184	1.653198	0.080974	0.347784	0.015855	-0.665527	-0.190674	0.391602	15.496584	-86.326712	133.384242
15808		9.753607	-0.296448	1.671481	0.086748	0.364528	0.025526	-0.664551	-0.185303	0.385010	14.456507	-86.128291	134.477891
15809		9.767902	-0.264902	1.691074	0.056379	0.365741	0.033320	-0.668213	-0.188721	0.381836	13.522400	-85.933388	135.449208
15810		9.803287	-0.218304	1.623261	0.024973	0.364121	0.037615	-0.666260	-0.191162	0.382813	12.548450	-85.734246	136.441747
15811		9.838335	-0.155403	1.628487	0.018439	0.398197	0.040298	-0.670654	-0.191406	0.381836	11.664467	-85.519895	137.341492
15812		9.755074	-0.170889	1.804130	0.017921	0.412361	0.029834	-0.674316	-0.190430	0.379883	10.847188	-85.290747	138.173010
15813		9.809771	-0.161709	1.951985	-0.001103	0.424542	0.034809	-0.667725	-0.187744	0.366455	10.112920	-85.059123	138.911843
15814		9.737828	-0.178250	2.070666	-0.021700	0.425749	0.032284	-0.674805	-0.186523	0.366699	9.386113	-84.820785	139.630259
15815		9.696373	-0.213367	1.998679	-0.067642	0.367929	0.023157	-0.677246	-0.186279	0.367920	8.863935	-84.618726	140.118330
15816		9.759582	-0.254515	1.743248	-0.086345	0.352343	0.014106	-0.680176	-0.183838	0.369629	8.375742	-84.419131	140.560680
15817		9.855766	-0.281628	1.712601	-0.074999	0.377918	0.012001	-0.674072	-0.194336	0.369141	7.973301	-84.209781	140.924518
15818		9.969675	-0.414368	1.754081	-0.047643	0.428901	0.017333	-0.676025	-0.192627	0.359131	7.496365	-83.966680	141.378366
15819		10.013867	-0.492602	2.020543	-0.012196	0.488078	0.030011	-0.679932	-0.192627	0.350586	7.020981	-83.695471	141.852083
15820		9.926083	-0.525702	2.131112	-0.014684	0.485719	0.037896	-0.676758	-0.186279	0.357178	6.500204	-83.420272	142.368270
15821		9.852819	-0.400473	1.857756	-0.062016	0.427864	0.031198	-0.680176	-0.183838	0.346436	6.098999	-83.182616	142.739053
15822		9.903120	-0.269163	1.730234	-0.034802	0.461436	0.047301	-0.690674	-0.191650	0.343994	5.605724	-82.921163	143.217667
15823		9.854365	-0.256272	1.924258	0.040106	0.549820	0.068798	-0.688232	-0.196533	0.341797	5.101004	-82.615261	143.752195
15824		9.733014	-0.306829	2.042389	0.073183	0.590800	0.082351	-0.695801	-0.182617	0.338867	4.547367	-82.280270	144.353391
15825		9.693199	-0.329288	2.187489	0.089312	0.624291	0.080416	-0.696045	-0.186523	0.329102	4.084822	-81.931153	144.874625
15826		9.813115	-0.344552	2.146994	0.132251	0.692157	0.091011	-0.690430	-0.181396	0.328369	3.593400	-81.537125	145.449362
15827		9.529791	-0.417701	2.437440	0.179841	0.730951	0.091807	-0.699707	-0.192627	0.327881	3.199764	-81.126286	145.954385
15828		9.597565	-0.410432	2.335433	0.149859	0.714260	0.092640	-0.691162	-0.181152	0.319092	2.798261	-80.718751	146.448877
15829		9.704451	-0.442604	2.247736	0.064693	0.741581	0.087782	-0.707031	-0.184082	0.316650	2.428346	-80.300721	146.864118
15830		9.783191	-0.297342	1.854066	-0.020763	0.726989	0.066259	-0.704346	-0.183838	0.314941	2.085290	-79.884293	147.201475
15831		9.752693	-0.229304	1.604305	-0.007193	0.779770	0.045530	-0.711426	-0.173828	0.304932	1.862484	-79.442824	147.426388
15832		9.563081	-0.184986	1.768236	0.041938	0.846227	0.042929	-0.708008	-0.182861	0.299561	1.660413	-78.957241	147.658535
15833		9.235189	-0.181793	2.128474	0.089418	0.859876	0.035017	-0.708740	-0.182129	0.293457	1.549982	-78.469474	147.826016
15834		9.246745	-0.135629	2.419333	0.090955	0.836055	0.032638	-0.712158	-0.185791	0.288818	1.436454	-77.989394	147.995992
15835		9.190249	-0.152017	2.664785	0.124360	0.835624	0.033966	-0.724365	-0.183838	0.284668	1.371517	-77.515390	148.137993
15836		9.084121	-0.231210	2.934818	0.215206	0.815627	0.020206	-0.719238	-0.176758	0.277588	1.379572	-77.046712	148.256752
15837		9.065622	-0.277951	3.021110	0.240704	0.763298	0.002416	-0.714600	-0.180664	0.277832	1.472188	-76.613697	148.305923
15838		9.282271	-0.254946	2.736151	0.187970	0.761743	-0.000397	-0.721680	-0.172119	0.269775	1.520110	-76.175823	148.368778
15839		9.404079	-0.293060	2.024821	0.260695	0.755589	0.018468	-0.719727	-0.181152	0.261230	1.587098	-75.747498	148.456352
15840		9.502575	-0.420157	2.165062	0.369326	0.831459	0.036417	-0.728271	-0.177490	0.259033	1.653086	-75.270196	148.607971
15841		9.425198	-0.462519	2.824862	0.361208	0.911152	0.051245	-0.734131	-0.173340	0.241455	1.699989	-74.753373	148.776332
15842		9.455409	-0.308590	2.986021	0.232272	0.913778	0.075237	-0.725098	-0.166504	0.244385	1.611209	-74.229187	149.007376
15843		9.376740	-0.078667	3.289830	0.210419	0.874997	0.084777	-0.727783	-0.168701	0.239746	1.521229	-73.733512	149.229104
15844		9.446827	-0.012992	3.831573	0.294220	0.812567	0.058462	-0.738525	-0.172607	0.233643	1.523615	-73.267346	149.404186
15845		9.296567	0.054710	3.677352	0.287900	0.733667	0.025779	-0.735352	-0.168945	0.225342	1.608478	-72.851694	149.490607
15846		9.290774	-0.324524	3.126572	0.232488	0.631313	-0.045126	-0.740479	-0.163086	0.228271	1.780046	-72.487413	149.451350
15847		9.095007	-0.709777	3.505254	0.189166	0.739427	-0.060870	-0.740967	-0.166748	0.214111	1.960241	-72.066981	149.378669
15848		9.170145	-0.819629	2.893706	0.165829	0.751097	-0.069218	-0.739258	-0.166992	0.210449	2.118904	-71.633580	149.313813
15849		9.352445	-0.802636	2.240612	0.243260	0.807726	-0.037261	-0.745850	-0.164551	0.214600	2.274857	-71.174444	149.299046
15850		9.236709	-0.691657	2.817538	0.343788	0.879198	0.021231	-0.743896	-0.163818	0.200928	2.367951	-70.669883	149.410930
15851		9.185193	-0.528798	3.649342	0.367324	0.898658	0.048988	-0.751953	-0.162354	0.205322	2.444588	-70.160752	149.555710
15852		8.894401	-0.225336	4.263076	0.395652	0.837575	0.070651	-0.741455	-0.169922	0.187012	2.494732	-69.681448	149.746248
15853		8.956354	-0.042276	4.558716	0.445293	0.746372	0.062716	-0.750488	-0.165771	0.181885	2.608785	-69.259958	149.899650
15854		9.129106	0.073856	3.997521	0.399728	0.719403	0.041706	-0.751465	-0.157959	0.187500	2.717806	-68.847277	150.027677
15855		9.041997	-0.082096	2.555538	0.316832	0.795694	0.043579	-0.744873	-0.165527	0.174561	2.785246	-68.397223	150.152968
15856		8.635900	-0.070268	2.366924	0.219026	0.866532	0.025621	-0.749756	-0.159668	0.165771	2.806257	-67.900493	150.266733
15857		8.822253	0.249492	2.599597	0.206815	0.919795	0.015274	-0.756592	-0.164307	0.159912	2.845741	-67.378681	150.354959
15858		9.077758	0.498020	3.352147	0.265828	1.000782	-0.006293	-0.747314	-0.161377	0.166504	2.931110	-66.803830	150.427748
15859		9.034090	0.384906	3.703761	0.327112	0.922552	-0.081230	-0.758057	-0.160889	0.136475	3.166136	-66.277634	150.378669
15860		9.105977	0.041008	3.947278	0.396984	0.854651	-0.126049	-0.760986	-0.161865	0.148193	3.485449	-65.782925	150.278339
15861		9.087434	-0.263851	4.353483	0.432828	0.787555	-0.127625	-0.756348	-0.163818	0.139893	3.835871	-65.332042	150.168661
15862		8.830829	-0.422880	4.789904	0.416354	0.762162	-0.091784	-0.756104	-0.168457	0.128174	4.116289	-64.891409	150.123322
15863		8.591494	-0.396293	5.153877	0.420755	0.715158	-0.072323	-0.761475	-0.163086	0.131592	4.385760	-64.483797	150.094763
15864		8.647701	-0.293641	5.162554	0.412226	0.713507	-0.056811	-0.759521	-0.161377	0.126709	4.617346	-64.071979	150.099293
15865		9.072258	-0.340660	4.423253	0.370137	0.771277	-0.046496	-0.753662	-0.163574	0.119141	4.814706	-63.633452	150.118558
15866		8.650580	-0.262254	4.336602	0.372279	0.830481	-0.025232	-0.759766	-0.156982	0.112305	4.970364	-63.156776	150.183129
15867		8.206923	-0.088232	4.376880	0.378131	0.821963	-0.023831	-0.755371	-0.157959	0.109375	5.137620	-62.690523	150.241503
15868		8.276904	0.089590	4.875883	0.329274	0.818002	-0.045495	-0.760986	-0.154297	0.102295	5.288461	-62.220039	150.285068
15869		8.562326	0.530797	4.929872	0.269644	0.824157	-0.066343	-0.766357	-0.159668	0.097900	5.436238	-61.750408	150.295600
15870		8.665578	0.676692	5.255198	0.214093	0.806032	-0.079651	-0.765869	-0.156006	0.087402	5.555163	-61.284962	150.301370
15871		8.697478	0.864073	5.166396	0.080014	0.798232	-0.074776	-0.766602	-0.161865	0.076904	5.602739	-60.829665	150.302341
15872		8.544490	0.950562	4.992555	-0.026545	0.756091	-0.064367	-0.766602	-0.165039	0.077148	5.571980	-60.392803	150.320686
15873		8.318076	0.830964	4.344404	-0.114532	0.760811	-0.068925	-0.770508	-0.159180	0.072266	5.506457	-59.959170	150.323544
15874		8.029880	1.088828	3.750155	-0.025834	0.778037	-0.105121	-0.774658	-0.165771	0.069824	5.516008	-59.508081	150.296065
15875		7.954081	1.092832	4.415773	0.040966	0.792289	-0.137397	-0.771240	-0.163818	0.053955	5.602184	-59.052696	150.226127
15876		8.281650	0.673485	4.688136	0.034677	0.748831	-0.174261	-0.767090	-0.170410	0.048096	5.711601	-58.614217	150.122237
15877		8.798957	0.153324	5.171607	0.106053	0.774384	-0.192599	-0.756592	-0.165527	0.039551	5.882732	-58.165699	149.995672
15878		8.710284	-0.371171	5.579700	0.093455	0.747830	-0.157416	-0.767578	-0.168701	0.035645	6.004381	-57.727858	149.913632
15879		8.525289	-0.645605	5.799550	0.065613	0.733118	-0.092119	-0.757568	-0.170410	0.039063	6.059837	-57.308634	149.895514
15880		8.332230	-0.677653	5.880991	0.010766	0.740074	-0.003286	-0.777100	-0.175781	0.031738	5.995924	-56.885131	149.978097
15881		8.105146	-0.649584	5.663201	-0.032457	0.756247	0.048667	-0.766602	-0.179688	0.030273	5.871696	-56.461082	150.107605
15882		7.871275	-0.334513	5.377275	-0.044092	0.757268	0.078261	-0.766113	-0.177490	0.020752	5.711549	-56.032871	150.268760
15883		7.742286	0.146308	5.130798	-0.082518	0.771928	0.083537	-0.768066	-0.168457	0.016357	5.534895	-55.601458	150.428268
15884		7.884825	0.543109	5.540443	-0.060045	0.782139	0.070361	-0.771729	-0.166504	0.010254	5.377509	-55.158120	150.576642
15885		7.837136	0.611854	5.668893	-0.008587	0.757349	0.022079	-0.762939	-0.172852	-0.001221	5.301565	-54.731309	150.666556
15886		7.803371	0.446629	5.874678	0.025125	0.754700	-0.006595	-0.766357	-0.169434	-0.009277	5.261728	-54.298995	150.732282
15887		7.775223	0.202255	6.168981	0.006581	0.713590	-0.031316	-0.761963	-0.167725	-0.010498	5.242891	-53.894271	150.763377
15888		7.786328	0.118315	6.305831	0.004312	0.682667	-0.025531	-0.771240	-0.184082	-0.022461	5.212805	-53.501546	150.802370
15889		7.831640	0.049933	6.487027	-0.002797	0.651217	0.004702	-0.766846	-0.168213	-0.022949	5.166644	-53.134259	150.861148
15890		7.714935	0.060092	6.355451	-0.033587	0.626174	0.036705	-0.768311	-0.168457	-0.031250	5.074583	-52.776423	150.949889
15891		7.742756	-0.008291	6.046883	-0.058669	0.611111	0.041071	-0.768066	-0.164307	-0.035400	4.974476	-52.433752	151.036829
15892		7.613980	0.096199	6.066880	-0.073668	0.612175	0.023025	-0.762939	-0.163818	-0.041260	4.871686	-52.083069	151.112475
15893		7.643664	0.199078	5.977964	-0.037125	0.625921	0.007812	-0.763916	-0.167969	-0.049805	4.810349	-51.730166	151.166661
15894		7.639760	0.282280	6.035662	0.003066	0.644927	-0.008738	-0.763184	-0.176025	-0.049316	4.774987	-51.358740	151.212265
15895		7.587209	0.207091	6.246486	0.008339	0.642597	-0.012820	-0.765137	-0.168701	-0.056885	4.755035	-50.995290	151.247318
15896		7.532308	0.132787	6.456831	0.024637	0.643867	-0.013423	-0.767090	-0.166748	-0.056885	4.738235	-50.624620	151.284672
15897		7.516253	0.050774	6.592879	0.024877	0.634692	-0.003390	-0.767334	-0.164551	-0.059082	4.722658	-50.266115	151.326706
15898		7.433157	0.012582	6.507211	0.001571	0.628662	0.024686	-0.763672	-0.166016	-0.075195	4.667108	-49.906994	151.399825
15899		7.316406	0.080670	6.453376	-0.016521	0.622981	0.043889	-0.767090	-0.175537	-0.078125	4.598109	-49.557318	151.481227
15900		7.279271	0.192217	6.407183	-0.017975	0.643623	0.052628	-0.764160	-0.165527	-0.067627	4.515175	-49.188933	151.574285
15901		7.178463	0.348123	6.434469	-0.026568	0.652891	0.046753	-0.761230	-0.174072	-0.082275	4.439661	-48.822159	151.657582
15902		7.092870	0.334768	6.571574	-0.023269	0.651772	0.047127	-0.755859	-0.173340	-0.088623	4.360664	-48.451171	151.743606
15903		7.133565	0.377501	6.696623	-0.036401	0.656921	0.045658	-0.757080	-0.161865	-0.092773	4.282753	-48.081900	151.823516
15904		7.031883	0.241371	6.822099	-0.065965	0.656202	0.049983	-0.757324	-0.165283	-0.104004	4.179681	-47.707002	151.909022
15905		6.880570	0.108304	6.948570	-0.095389	0.646916	0.040271	-0.759766	-0.176270	-0.107178	4.074687	-47.343048	151.980770
15906		6.842174	0.150946	7.007185	-0.106154	0.628163	0.033774	-0.763428	-0.170654	-0.113525	3.963504	-46.982282	152.046145
15907		6.827155	0.189557	7.029282	-0.103361	0.617462	0.033725	-0.772461	-0.165039	-0.120361	3.861917	-46.634728	152.107791
15908		6.730696	0.149731	7.039819	-0.089920	0.608460	0.033681	-0.754883	-0.171875	-0.116455	3.762167	-46.285137	152.172286
15909		6.642222	0.179951	7.045585	-0.065040	0.592449	0.033956	-0.759521	-0.166748	-0.124023	3.685628	-45.951756	152.230352
15910		6.680764	0.234696	7.080075	-0.050708	0.579278	0.034594	-0.752686	-0.167969	-0.128174	3.612620	-45.620037	152.289100
15911		6.735723	0.215312	7.048078	-0.066602	0.572962	0.040303	-0.762695	-0.162109	-0.144531	3.534047	-45.297922	152.349417
15912		6.779638	0.303168	7.116199	-0.097895	0.564353	0.048594	-0.758301	-0.164795	-0.132080	3.426722	-44.973406	152.418958
15913		6.854167	0.211597	7.191076	-0.123034	0.560899	0.057921	-0.750732	-0.160400	-0.143066	3.308311	-44.658632	152.490601
15914		6.836233	0.177199	7.213106	-0.153968	0.561981	0.061805	-0.756592	-0.167969	-0.136963	3.164212	-44.337788	152.568512
15915		6.789902	0.110408	7.270900	-0.171710	0.569540	0.058988	-0.754639	-0.156250	-0.154541	3.019644	-44.017862	152.638487
15916		6.689289	-0.006471	7.243373	-0.184804	0.574755	0.057069	-0.754395	-0.156494	-0.150879	2.863121	-43.689657	152.709940
15917		6.541631	-0.099587	7.264987	-0.189053	0.570258	0.052119	-0.759277	-0.164551	-0.161865	2.715030	-43.368867	152.771431
15918		6.500796	-0.117051	7.267414	-0.174314	0.568516	0.048076	-0.750977	-0.166260	-0.167725	2.571889	-43.043500	152.833011
15919		6.436885	-0.112135	7.319843	-0.164862	0.557461	0.043421	-0.751465	-0.168457	-0.165771	2.444981	-42.729603	152.884480
15920		6.474880	-0.101834	7.287919	-0.154035	0.550078	0.040724	-0.746338	-0.165283	-0.171631	2.322808	-42.413731	152.931517
15921		6.359878	-0.123496	7.337563	-0.133088	0.536504	0.032414	-0.751465	-0.164063	-0.183838	2.222197	-42.111428	152.971569
15922		6.431733	-0.233060	7.395270	-0.113021	0.528182	0.025434	-0.751709	-0.157227	-0.176514	2.132774	-41.806966	153.005163
15923		6.453131	-0.316708	7.536709	-0.091901	0.518427	0.024980	-0.742432	-0.157959	-0.183838	2.061272	-41.514767	153.037395
15924		6.436167	-0.327112	7.605696	-0.084028	0.522203	0.030536	-0.751953	-0.157715	-0.187744	1.985401	-41.215710	153.077287
15925		6.428736	-0.252442	7.656739	-0.085308	0.529957	0.041427	-0.739990	-0.164063	-0.195068	1.910381	-40.917167	153.121007
15926		6.361778	-0.103447	7.599810	-0.079220	0.541914	0.048253	-0.739990	-0.158936	-0.192139	1.830569	-40.606053	153.170893
15927		6.255276	-0.035579	7.628510	-0.075682	0.549274	0.045285	-0.738770	-0.156250	-0.195313	1.760179	-40.296430	153.216526
15928		6.169432	0.013098	7.675801	-0.073871	0.548898	0.044403	-0.742432	-0.156982	-0.205811	1.686440	-39.982779	153.262870
15929		6.160090	0.088390	7.727824	-0.064457	0.540261	0.043605	-0.740234	-0.163574	-0.208252	1.624682	-39.678206	153.305657
15930		6.106088	0.048549	7.864085	-0.054119	0.528248	0.040742	-0.741211	-0.156494	-0.211914	1.566130	-39.374803	153.346017
15931		6.112748	0.019166	7.883305	-0.048332	0.518920	0.039021	-0.737793	-0.158691	-0.222168	1.517098	-39.082317	153.383839
15932		6.060044	-0.107717	7.897903	-0.048869	0.508064	0.050712	-0.730469	-0.152832	-0.217529	1.457280	-38.789920	153.431356
15933		6.047839	-0.100352	7.913603	-0.045216	0.502445	0.049744	-0.738037	-0.151123	-0.232422	1.406248	-38.506968	153.475714
15934		5.931739	-0.167532	7.901551	-0.036468	0.490440	0.057467	-0.738037	-0.159912	-0.238037	1.350140	-38.224370	153.529091
15935		5.889218	-0.138335	7.999099	-0.028943	0.490996	0.059907	-0.733398	-0.155273	-0.237305	1.304945	-37.948049	153.579656
15936		5.837919	-0.108249	7.956240	-0.029304	0.483523	0.067816	-0.728760	-0.153809	-0.238037	1.251316	-37.667982	153.635795
15937		5.771760	0.027639	7.944057	-0.031925	0.475684	0.071100	-0.730957	-0.150879	-0.241455	1.200622	-37.400498	153.693215
15938		5.757995	0.069936	8.025697	-0.040360	0.467315	0.070861	-0.726807	-0.160156	-0.246094	1.139608	-37.131223	153.752260
15939		5.724934	0.061942	8.018292	-0.043604	0.466772	0.074578	-0.733887	-0.150635	-0.252441	1.081871	-36.868791	153.810971
15940		5.659211	0.040284	8.058666	-0.042085	0.464272	0.072260	-0.722900	-0.150391	-0.248535	1.021706	-36.600557	153.867582
15941		5.637444	-0.003232	8.121887	-0.025216	0.450146	0.070760	-0.723145	-0.147705	-0.256592	0.977290	-36.347520	153.922333
15942		5.543753	-0.036623	8.174238	-0.012787	0.450813	0.066448	-0.721436	-0.150391	-0.262939	0.935998	-36.087644	153.976157
15943		5.518163	-0.129652	8.219067	-0.010785	0.441942	0.065633	-0.727051	-0.158447	-0.257324	0.902895	-35.839199	154.026393
15944		5.524363	-0.122751	8.301725	-0.017594	0.430457	0.071336	-0.725342	-0.145264	-0.272461	0.860077	-35.590977	154.079050
15945		5.432922	-0.208091	8.300024	-0.015550	0.425553	0.075918	-0.716309	-0.150146	-0.267334	0.820917	-35.351951	154.135623
15946		5.471957	-0.136748	8.386222	-0.025749	0.415235	0.079745	-0.718750	-0.149414	-0.270752	0.768426	-35.110980	154.196816
15947		5.358963	0.005339	8.393772	-0.029494	0.404798	0.093351	-0.721191	-0.145996	-0.274170	0.715251	-34.883894	154.264561
15948		5.381064	0.077155	8.441103	-0.038607	0.393796	0.096302	-0.719971	-0.153076	-0.278076	0.650645	-34.656821	154.335516
15949		5.299870	0.091833	8.470771	-0.048715	0.381695	0.093753	-0.716797	-0.144775	-0.283203	0.587375	-34.442856	154.402410
15950		5.245117	0.068249	8.469187	-0.056618	0.368735	0.091669	-0.715820	-0.146729	-0.281738	0.516342	-34.229049	154.467096
15951		5.185065	0.044734	8.500774	-0.063527	0.362679	0.084418	-0.713867	-0.144287	-0.293213	0.449212	-34.025802	154.526468
15952		5.165043	-0.070892	8.522398	-0.066062	0.355456	0.080265	-0.708984	-0.143311	-0.284668	0.377327	-33.818650	154.583284
15953		5.082867	-0.247764	8.567157	-0.055396	0.339607	0.075831	-0.718506	-0.153809	-0.304443	0.319016	-33.628477	154.635790
15954		5.099348	-0.330858	8.558030	-0.042539	0.322918	0.071895	-0.716309	-0.142822	-0.292969	0.266394	-33.439227	154.682861
15955		5.082941	-0.303521	8.540788	-0.027716	0.314239	0.068324	-0.709229	-0.147461	-0.302002	0.227444	-33.263493	154.729515
15956		4.999878	-0.370522	8.545717	-0.009797	0.302046	0.065257	-0.711182	-0.149902	-0.304932	0.195730	-33.087101	154.773350
15957		4.999635	-0.238081	8.528797	-0.006382	0.282313	0.072503	-0.711914	-0.139648	-0.302002	0.167948	-32.929622	154.822370
15958		5.001633	-0.176642	8.582587	-0.000483	0.274252	0.078647	-0.704590	-0.147461	-0.302002	0.137159	-32.768507	154.874576
15959		5.006392	-0.150110	8.601721	-0.010244	0.270171	0.079649	-0.708740	-0.153076	-0.311523	0.104973	-32.617949	154.928072
15960		5.017279	-0.107474	8.604192	-0.015508	0.267367	0.085154	-0.707764	-0.145020	-0.306885	0.066810	-32.460492	154.978907
15961		5.001372	-0.113949	8.583766	-0.027312	0.266702	0.086921	-0.705322	-0.143066	-0.318115	0.022670	-32.311865	155.036915
15962		4.951312	-0.169045	8.574030	-0.035141	0.267422	0.084887	-0.706055	-0.142822	-0.308594	-0.028840	-32.153777	155.091549
15963		4.884418	-0.118375	8.594696	-0.041124	0.265998	0.086223	-0.708008	-0.139404	-0.325439	-0.080116	-32.005468	155.148587
15964		4.806628	-0.119002	8.630909	-0.041526	0.269495	0.083625	-0.709473	-0.137939	-0.313721	-0.135226	-31.846298	155.203545
15965		4.774100	-0.195026	8.642047	-0.045469	0.261005	0.078602	-0.707520	-0.134033	-0.319824	-0.185764	-31.700772	155.254945
15966		4.713975	-0.301379	8.646374	-0.036998	0.249032	0.074839	-0.701172	-0.138916	-0.322021	-0.236181	-31.555679	155.306822
15967		4.738545	-0.385767	8.739558	-0.028996	0.232812	0.070426	-0.704102	-0.135498	-0.330566	-0.274010	-31.426255	155.352374
15968		4.748338	-0.378142	8.739213	-0.029237	0.219550	0.069988	-0.707275	-0.138672	-0.327148	-0.317018	-31.294578	155.398050
15969		4.806113	-0.377267	8.749540	-0.024083	0.212442	0.069838	-0.701904	-0.137207	-0.327393	-0.351524	-31.176773	155.442956
15970		4.757826	-0.396344	8.770158	-0.024672	0.201069	0.075646	-0.707764	-0.135986	-0.331299	-0.392740	-31.057314	155.491377
15971		4.775123	-0.354651	8.769542	-0.026036	0.191708	0.079383	-0.692139	-0.135986	-0.335449	-0.431396	-30.951296	155.542468
15972		4.724174	-0.320036	8.734508	-0.029250	0.188159	0.085286	-0.709717	-0.136719	-0.336914	-0.478718	-30.837109	155.597171
15973		4.682346	-0.305221	8.754877	-0.017903	0.189655	0.079820	-0.696777	-0.132568	-0.328613	-0.512549	-30.732201	155.648269
15974		4.633868	-0.306451	8.791478	-0.011101	0.189152	0.083013	-0.708008	-0.143555	-0.329102	-0.548348	-30.619813	155.701975
15975		4.560128	-0.266524	8.750119	-0.009328	0.183796	0.083031	-0.695801	-0.135010	-0.328125	-0.578076	-30.518192	155.754990
15976		4.448250	-0.344746	8.788950	0.003939	0.189203	0.087940	-0.703369	-0.129883	-0.331543	-0.603505	-30.408659	155.807402
15977		4.381769	-0.306540	8.819774	0.007743	0.175468	0.092745	-0.690918	-0.135254	-0.340576	-0.626464	-30.311707	155.866707
15978		4.381313	-0.313357	8.866706	0.008670	0.167682	0.098389	-0.695557	-0.133789	-0.335938	-0.655367	-30.211305	155.929872
15979		4.368430	-0.334408	8.856524	0.002191	0.153588	0.098855	-0.697266	-0.131836	-0.340332	-0.683346	-30.126799	155.993173
15980		4.411873	-0.297732	8.965916	-0.001031	0.134827	0.095633	-0.697998	-0.125977	-0.336670	-0.716117	-30.045313	156.053588
15981		4.430466	-0.374728	8.908570	-0.004272	0.116103	0.092388	-0.698486	-0.128906	-0.340332	-0.745566	-29.982271	156.112723
15982		4.507156	-0.411286	8.953646	-0.011044	0.096680	0.087911	-0.697754	-0.133545	-0.334717	-0.783319	-29.923687	156.171636
15983		4.532262	-0.437830	8.913128	-0.019032	0.086681	0.084178	-0.703613	-0.120361	-0.342529	-0.818478	-29.877504	156.225463
15984		4.480293	-0.404655	9.012075	-0.021206	0.082508	0.089221	-0.687500	-0.125244	-0.347900	-0.862049	-29.827921	156.285020
15985		4.412581	-0.436801	9.035486	-0.024311	0.066281	0.087308	-0.698975	-0.126953	-0.345459	-0.901228	-29.793331	156.340997
15986		4.373136	-0.421184	9.082527	-0.020872	0.052328	0.081552	-0.701172	-0.132324	-0.333252	-0.942069	-29.756660	156.394187
15987		4.295390	-0.465658	9.047630	-0.009700	0.031263	0.071180	-0.701416	-0.121094	-0.335938	-0.967693	-29.742222	156.439822
15988		4.323720	-0.456353	9.038360	-0.010548	0.006990	0.058611	-0.693359	-0.128906	-0.342285	-0.994022	-29.738622	156.478435
15989		4.271682	-0.485459	9.024911	-0.002169	-0.011718	0.043470	-0.697998	-0.126709	-0.333252	-1.006494	-29.749052	156.506267
15990		4.300766	-0.563002	9.067387	-0.002561	-0.036792	0.037161	-0.693848	-0.124512	-0.345703	-1.020784	-29.768016	156.529148
15991		4.368991	-0.573169	9.010686	-0.002645	-0.060053	0.030144	-0.696533	-0.127441	-0.339355	-1.029470	-29.806261	156.548772
15992		4.389936	-0.454772	9.027981	0.006481	-0.082825	0.026158	-0.694580	-0.117676	-0.341064	-1.036336	-29.849198	156.565989
15993		4.443506	-0.445938	9.053181	0.006565	-0.108766	0.026152	-0.699707	-0.115479	-0.340332	-1.038764	-29.915385	156.583587
15994		4.431107	-0.442552	9.041739	0.005745	-0.135156	0.022715	-0.701660	-0.120850	-0.340576	-1.049009	-29.988714	156.605583
15995		4.413664	-0.456379	9.045562	-0.003513	-0.152440	0.021857	-0.691406	-0.124023	-0.336182	-1.056119	-30.079962	156.620918
15996		4.393167	-0.484607	8.958436	-0.003932	-0.174085	0.021249	-0.700439	-0.127197	-0.337402	-1.069025	-30.175483	156.637859
15997		4.379365	-0.498177	8.960590	0.006791	-0.196566	0.013755	-0.699707	-0.126953	-0.333252	-1.067878	-30.292092	156.648428
15998		4.410325	-0.467395	9.025224	0.007239	-0.225978	0.018773	-0.702881	-0.127930	-0.332764	-1.072146	-30.417936	156.661642
15999		4.371577	-0.493167	9.035435	0.012407	-0.259119	0.018680	-0.705811	-0.123291	-0.330322	-1.069897	-30.570325	156.676298
16000		4.452588	-0.518566	8.984183	0.006387	-0.289503	0.016493	-0.695313	-0.123047	-0.333252	-1.075132	-30.733076	156.690385
16001		4.450868	-0.548448	8.964033	0.014708	-0.318304	0.014918	-0.710449	-0.127686	-0.324463	-1.070759	-30.919408	156.703327
16002		4.489887	-0.565214	8.898377	0.019130	-0.349189	0.015053	-0.709229	-0.121338	-0.322510	-1.068801	-31.115082	156.716922
16003		4.504133	-0.525953	8.877518	0.022101	-0.376179	0.011131	-0.707275	-0.116455	-0.318604	-1.059339	-31.334610	156.728068
16004		4.574627	-0.477025	8.849767	0.031260	-0.411020	0.006237	-0.707520	-0.125244	-0.305664	-1.050337	-31.567359	156.741426
16005		4.602994	-0.453744	8.774878	0.040581	-0.443012	0.004910	-0.707520	-0.123047	-0.316650	-1.028564	-31.825242	156.749146
16006		4.673729	-0.423074	8.866114	0.034466	-0.479756	-0.001518	-0.703857	-0.125000	-0.309814	-1.013064	-32.098049	156.754034
16007		4.738480	-0.404147	8.759006	0.029109	-0.509966	-0.005816	-0.713135	-0.127686	-0.308350	-0.994397	-32.394399	156.755140
16008		4.766454	-0.363196	8.729822	0.028556	-0.541033	-0.011726	-0.714844	-0.121094	-0.300537	-0.978490	-32.700050	156.752101
16009		4.780309	-0.318458	8.660356	0.030256	-0.573284	-0.016956	-0.723389	-0.127197	-0.298828	-0.955330	-33.032781	156.746120
16010		4.802171	-0.344792	8.626783	0.035631	-0.605661	-0.023034	-0.716309	-0.125732	-0.290527	-0.932689	-33.376987	156.738959
16011		4.849032	-0.322916	8.647927	0.032238	-0.642125	-0.026775	-0.722656	-0.118408	-0.285156	-0.904809	-33.749241	156.726603
16012		4.947445	-0.272172	8.570150	0.030710	-0.677158	-0.036823	-0.727783	-0.119385	-0.276855	-0.880501	-34.134922	156.711617
16013		4.977517	-0.297960	8.531031	0.028204	-0.707398	-0.038275	-0.730713	-0.123047	-0.280762	-0.850378	-34.544660	156.691434
16014		5.140179	-0.327431	8.459924	0.016202	-0.740335	-0.041419	-0.726318	-0.122803	-0.271484	-0.833308	-34.966680	156.675379
16015		5.204607	-0.341435	8.403342	0.010220	-0.782852	-0.042554	-0.726807	-0.121582	-0.263184	-0.811614	-35.419667	156.652370
