// General information: 
//  MT Manager version: 2022.2.0 
//  XDA version: 2022.2.0 build 7381 rev 124627 built on 2023-07-19
// Device information: 
//  DeviceId: 00B4C3A0
//  ProductCode: MTW2-3A7G6
//  Firmware Version: 4.6.0
//  Hardware Version: 2.0.0
// Device settings: 
//  Filter Profile: human(46.1)
//  Option Flags: Orientation Smoother Disabled, Position/Velocity Smoother Disabled, Continuous Zero Rotation Update Disabled, AHS Disabled, ICC Disabled
// Coordinate system: ENU
PacketCounter	SampleTimeFine	Acc_X	Acc_Y	Acc_Z	Gyr_X	Gyr_Y	Gyr_Z	Mag_X	Mag_Y	Mag_Z	Roll	Pitch	Yaw
03606		9.715518	-0.409725	0.077363	0.055904	-0.078135	-0.030487	-0.626953	-0.141846	0.478760	-93.393885	-88.137301	-121.173782
03607		9.712294	-0.387960	0.098510	0.049156	-0.084339	-0.031904	-0.614014	-0.148682	0.478516	-94.942628	-88.151452	-119.592623
03608		9.708101	-0.441825	0.023259	0.047707	-0.091559	-0.032630	-0.617920	-0.149170	0.477051	-96.684149	-88.164478	-117.820185
03609		9.701519	-0.401210	0.071948	0.049496	-0.096992	-0.032518	-0.622559	-0.144287	0.481689	-98.513084	-88.175232	-115.959629
03610		9.745333	-0.395353	0.003885	0.048559	-0.098555	-0.031360	-0.626221	-0.147949	0.471680	-100.417921	-88.183225	-114.023324
03611		9.714812	-0.378786	0.002812	0.043945	-0.098213	-0.030461	-0.618652	-0.145508	0.487305	-102.287960	-88.188686	-112.124612
03612		9.763378	-0.407007	-0.063289	0.049277	-0.097433	-0.035184	-0.622803	-0.147949	0.475830	-104.214380	-88.194879	-110.166315
03613		9.806950	-0.413060	-0.040675	0.055132	-0.092376	-0.030149	-0.619385	-0.141846	0.485840	-105.997458	-88.197076	-108.348175
03614		9.818227	-0.390623	-0.040125	0.056354	-0.087379	-0.026677	-0.628418	-0.142578	0.479492	-107.713655	-88.196377	-106.596154
03615		9.826247	-0.349714	-0.010391	0.053680	-0.083101	-0.023137	-0.625732	-0.147949	0.485352	-109.291625	-88.192941	-104.983549
03616		9.790700	-0.300065	-0.011425	0.055679	-0.069810	-0.018076	-0.617676	-0.154541	0.479980	-110.645610	-88.188055	-103.594303
03617		9.774545	-0.283862	-0.028985	0.052433	-0.062663	-0.018977	-0.627197	-0.142822	0.480713	-111.841276	-88.184478	-102.366081
03618		9.788981	-0.281312	-0.054487	0.036690	-0.058815	-0.015929	-0.616211	-0.147705	0.479248	-112.993363	-88.178988	-101.189712
03619		9.805204	-0.294499	-0.048494	0.019958	-0.049777	-0.008867	-0.617188	-0.156006	0.479736	-113.904272	-88.171436	-100.264397
03620		9.785941	-0.351981	-0.099909	0.007396	-0.044550	-0.007489	-0.618652	-0.146973	0.483398	-114.762578	-88.163662	-99.398743
03621		9.774701	-0.371012	-0.113269	0.002834	-0.044201	-0.006525	-0.612549	-0.151123	0.488525	-115.566332	-88.155509	-98.591183
03622		9.776537	-0.385793	-0.086446	0.011679	-0.040369	-0.002853	-0.615479	-0.145264	0.475830	-116.304475	-88.145623	-97.843291
03623		9.771516	-0.350952	-0.092263	0.015035	-0.034998	-0.012744	-0.615967	-0.140137	0.478516	-116.992920	-88.142234	-97.143662
03624		9.767745	-0.319219	-0.157376	0.019812	-0.032724	-0.014038	-0.613281	-0.145996	0.482422	-117.685608	-88.139465	-96.436582
03625		9.767737	-0.317880	-0.160593	0.012008	-0.034171	-0.013888	-0.620361	-0.143555	0.485352	-118.362743	-88.136239	-95.749435
03626		9.780867	-0.312148	-0.123712	0.006374	-0.029050	-0.011431	-0.614258	-0.148193	0.479736	-118.979821	-88.132636	-95.125707
03627		9.782798	-0.326126	-0.095660	0.002383	-0.030193	-0.013876	-0.614502	-0.143555	0.485596	-119.597004	-88.130089	-94.504373
03628		9.766536	-0.310660	-0.109794	-0.001344	-0.030079	-0.008758	-0.614014	-0.155029	0.483154	-120.205894	-88.124431	-93.893259
03629		9.767327	-0.321518	-0.021656	-0.005773	-0.020361	-0.005298	-0.625244	-0.148193	0.484863	-120.603813	-88.120137	-93.496336
03630		9.754155	-0.325561	-0.063620	-0.014226	-0.020736	-0.004239	-0.616699	-0.143066	0.482910	-121.033821	-88.114678	-93.071582
03631		9.762284	-0.378383	-0.092210	-0.018601	-0.019549	0.001781	-0.616699	-0.143555	0.485107	-121.351305	-88.106948	-92.762056
03632		9.759172	-0.359783	-0.065637	-0.010523	-0.024008	0.003861	-0.617432	-0.142090	0.489502	-121.748468	-88.096376	-92.368039
03633		9.759142	-0.360150	-0.067976	-0.006626	-0.023284	0.003777	-0.615723	-0.149170	0.486816	-122.093060	-88.086261	-92.024059
03634		9.752094	-0.310988	-0.103088	-0.009274	-0.017622	-0.000497	-0.617676	-0.144287	0.484863	-122.429085	-88.079591	-91.690494
03635		9.750088	-0.295958	-0.135408	-0.009285	-0.010461	0.004825	-0.621826	-0.151123	0.487793	-122.576071	-88.072920	-91.546298
03636		9.760156	-0.364519	-0.131978	-0.012073	-0.007006	0.003384	-0.616211	-0.145508	0.483887	-122.722543	-88.067585	-91.403996
03637		9.758144	-0.349566	-0.163845	-0.015554	-0.011429	0.002873	-0.611084	-0.149170	0.487061	-122.901829	-88.061580	-91.231278
03638		9.774401	-0.364323	-0.153633	-0.009708	-0.006763	0.005413	-0.609375	-0.145020	0.481689	-123.023115	-88.055319	-91.112819
03639		9.811150	-0.324771	-0.155935	-0.009296	-0.003301	0.010146	-0.617432	-0.145996	0.487305	-123.020298	-88.048252	-91.118574
03640		9.772332	-0.350638	-0.185763	-0.006922	-0.010219	0.006850	-0.619141	-0.149902	0.490479	-123.174107	-88.040210	-90.965975
03641		9.752965	-0.317908	-0.169179	-0.002461	-0.010985	0.003346	-0.615479	-0.149170	0.491455	-123.333924	-88.033999	-90.805090
03642		9.766185	-0.313823	-0.130164	-0.005157	-0.007112	0.004429	-0.620605	-0.153564	0.483887	-123.463447	-88.028069	-90.675778
03643		9.749884	-0.299659	-0.141776	-0.011705	-0.002171	0.000243	-0.613037	-0.144287	0.484863	-123.534102	-88.026201	-90.609877
03644		9.766170	-0.314044	-0.130713	-0.021322	0.001809	0.000278	-0.617920	-0.153564	0.491943	-123.586635	-88.025066	-90.566868
03645		9.766176	-0.313898	-0.130629	-0.019138	0.001217	-0.002736	-0.618652	-0.152100	0.492676	-123.643059	-88.025593	-90.519111
03646		9.767224	-0.317081	-0.190530	-0.021972	-0.004278	-0.004152	-0.618164	-0.144287	0.486572	-123.820847	-88.024627	-90.351144
03647		9.770268	-0.335751	-0.219324	-0.014824	0.005400	0.001917	-0.615234	-0.149658	0.487793	-123.772433	-88.024246	-90.405663
03648		9.736666	-0.303206	-0.181507	-0.016724	0.003253	-0.006059	-0.618408	-0.141357	0.486084	-123.860855	-88.026581	-90.324108
03649		9.733640	-0.284041	-0.152491	-0.012872	0.002182	-0.000789	-0.612793	-0.140381	0.493164	-123.878968	-88.026420	-90.310650
03650		9.736690	-0.302732	-0.181027	-0.016544	0.004085	-0.001018	-0.616699	-0.144775	0.481201	-123.909197	-88.026619	-90.287218
03651		9.749944	-0.298318	-0.140521	-0.022172	0.009203	0.001457	-0.612549	-0.142578	0.487549	-123.815312	-88.027536	-90.390752
03652		9.740686	-0.333576	-0.118250	-0.024405	0.000840	0.004484	-0.617676	-0.145020	0.485107	-123.843914	-88.024082	-90.373456
03653		9.720408	-0.288682	-0.191342	-0.024169	-0.003689	-0.001157	-0.606689	-0.152588	0.486572	-123.953069	-88.022165	-90.275150
03654		9.730468	-0.356988	-0.187736	-0.012738	-0.005940	0.004266	-0.615723	-0.145996	0.487549	-124.069746	-88.016640	-90.163037
03655		9.736675	-0.303246	-0.180994	-0.015246	0.001941	-0.002826	-0.609863	-0.149902	0.490234	-124.117604	-88.017385	-90.121616
03656		9.716172	-0.357973	-0.168064	-0.014323	0.002113	0.003836	-0.621338	-0.146240	0.488281	-124.128412	-88.014645	-90.116344
03657		9.759984	-0.367208	-0.137136	-0.014549	-0.007667	-0.001194	-0.623291	-0.144775	0.490479	-124.289596	-88.011485	-89.960897
03658		9.772262	-0.350984	-0.188729	-0.009391	-0.010884	0.002274	-0.624756	-0.146240	0.484619	-124.488453	-88.005277	-89.764635
03659		9.775416	-0.278743	-0.153708	-0.008836	-0.005217	0.004185	-0.611084	-0.141113	0.487061	-124.553333	-88.000383	-89.702012
03660		9.778432	-0.297858	-0.183030	-0.014137	-0.004213	0.003543	-0.611328	-0.149902	0.486816	-124.651402	-87.995721	-89.609319
03661		9.781431	-0.317008	-0.212911	-0.025160	-0.015996	0.005400	-0.614746	-0.137695	0.490234	-124.866909	-87.986620	-89.405319
03662		9.767095	-0.318389	-0.194957	-0.024744	-0.019694	0.004798	-0.609863	-0.154541	0.488525	-125.163759	-87.976257	-89.119802
03663		9.739505	-0.323787	-0.216796	-0.016651	-0.013819	-0.001007	-0.620117	-0.148682	0.489746	-125.402361	-87.970788	-88.887814
03664		9.764006	-0.300084	-0.169103	-0.017029	-0.011509	0.007460	-0.616699	-0.147949	0.484375	-125.557810	-87.961824	-88.739360
03665		9.729192	-0.356171	-0.137603	-0.020655	-0.007805	0.001884	-0.616699	-0.145508	0.495361	-125.685652	-87.957113	-88.620879
03666		9.724153	-0.322225	-0.139992	-0.020609	0.001146	0.001878	-0.614258	-0.152832	0.481689	-125.728723	-87.954957	-88.586927
03667		9.741439	-0.340003	-0.188481	-0.020469	0.003361	-0.000947	-0.614990	-0.140869	0.476318	-125.740333	-87.955252	-88.584688
03668		9.754727	-0.335634	-0.148344	-0.015167	0.002356	-0.000307	-0.619385	-0.146240	0.482666	-125.784951	-87.954515	-88.546068
03669		9.780271	-0.314804	-0.159066	-0.014842	-0.001754	-0.003431	-0.615967	-0.145020	0.492432	-125.873572	-87.954285	-88.463068
03670		9.780278	-0.314705	-0.158852	-0.007026	0.006844	0.001765	-0.620850	-0.137451	0.497314	-125.835667	-87.954090	-88.502356
03671		9.778275	-0.299131	-0.189266	-0.013725	0.002430	-0.004938	-0.612549	-0.144287	0.485107	-125.891476	-87.955650	-88.450715
03672		9.780302	-0.314384	-0.158005	-0.009307	0.007016	0.002253	-0.610107	-0.152832	0.492188	-125.848024	-87.955287	-88.496862
03673		9.769055	-0.334056	-0.166254	-0.008281	0.010789	-0.001775	-0.609131	-0.140625	0.486328	-125.766755	-87.958387	-88.580459
03674		9.780347	-0.314150	-0.155659	-0.011260	0.020572	-0.002908	-0.609375	-0.144287	0.488770	-125.595508	-87.964950	-88.755601
03675		9.769136	-0.333341	-0.162855	-0.010701	0.019091	-0.006335	-0.612061	-0.146973	0.489258	-125.446240	-87.972782	-88.907821
03676		9.777398	-0.294470	-0.123334	-0.010424	0.013177	-0.004115	-0.614746	-0.140381	0.494629	-125.381496	-87.977424	-88.975913
03677		9.770404	-0.244197	-0.154996	-0.009303	0.010215	-0.010966	-0.616699	-0.145508	0.487061	-125.391856	-87.984449	-88.967621
03678		9.746893	-0.279415	-0.112490	-0.020619	0.011486	-0.006011	-0.612061	-0.151611	0.484863	-125.372844	-87.989415	-88.995796
03679		9.738720	-0.317293	-0.149490	-0.019133	0.010167	-0.002774	-0.617676	-0.154297	0.489014	-125.309877	-87.992812	-89.067374
03680		9.725516	-0.321112	-0.188475	-0.017597	0.010654	-0.004881	-0.612061	-0.149414	0.492920	-125.289248	-87.996973	-89.095436
03681		9.716297	-0.355667	-0.165681	-0.015086	0.013109	-0.005670	-0.617188	-0.143799	0.483398	-125.216064	-88.002676	-89.175141
03682		9.719409	-0.373631	-0.193198	-0.013318	0.016224	-0.008078	-0.625000	-0.150146	0.486328	-125.147954	-88.010170	-89.248259
03683		9.755157	-0.329347	-0.133360	-0.010062	0.018019	-0.007245	-0.614502	-0.142090	0.488281	-125.008841	-88.018251	-89.390592
03684		9.764466	-0.293358	-0.153601	-0.003770	0.011841	-0.010624	-0.615967	-0.154785	0.483887	-125.017833	-88.025492	-89.381087
03685		9.748215	-0.278327	-0.163788	-0.004847	0.006257	-0.001252	-0.617188	-0.146484	0.486816	-124.983547	-88.026838	-89.415651
03686		9.751319	-0.296582	-0.192039	-0.008707	0.007339	-0.006531	-0.612793	-0.150635	0.486328	-125.017672	-88.030678	-89.383829
03687		9.735073	-0.281600	-0.202085	-0.006528	0.013900	-0.004192	-0.613281	-0.147461	0.488281	-124.908560	-88.035900	-89.494212
03688		9.730904	-0.350525	-0.177022	-0.008491	0.017107	-0.001486	-0.616211	-0.150391	0.484131	-124.760060	-88.040568	-89.644997
03689		9.763498	-0.379214	-0.153316	-0.007838	0.016038	-0.002390	-0.612549	-0.150146	0.485352	-124.604091	-88.045621	-89.803060
03690		9.772795	-0.343944	-0.173508	0.000496	0.014205	-0.000601	-0.615234	-0.149902	0.488525	-124.480792	-88.048902	-89.923477
03691		9.772831	-0.343800	-0.171741	0.005750	0.021744	-0.002472	-0.608643	-0.151611	0.481934	-124.238686	-88.055803	-90.160042
03692		9.745381	-0.348788	-0.190000	0.015393	0.017772	-0.002486	-0.617920	-0.153809	0.488770	-124.073500	-88.061098	-90.313829
03693		9.739183	-0.311355	-0.130637	0.014277	0.013587	-0.000984	-0.615723	-0.153076	0.491943	-123.925348	-88.064698	-90.451917
03694		9.767879	-0.309200	-0.168664	0.015160	0.015145	-0.002189	-0.616455	-0.156250	0.489990	-123.793044	-88.068985	-90.572937
03695		9.779124	-0.289438	-0.157884	0.013848	0.017282	-0.000387	-0.619141	-0.148926	0.485352	-123.588873	-88.073424	-90.767398
03696		9.779149	-0.289618	-0.155943	0.008943	0.021730	0.003699	-0.620117	-0.144531	0.483643	-123.309688	-88.076947	-91.038945
03697		9.777255	-0.274640	-0.184553	0.003721	0.023141	0.005565	-0.613770	-0.145020	0.480225	-122.959825	-88.080251	-91.384143
03698		9.800501	-0.339285	-0.138131	0.001981	0.028975	0.007962	-0.621094	-0.147949	0.484375	-122.538675	-88.083854	-91.801724
03699		9.798622	-0.324533	-0.165990	-0.002445	0.031534	0.006097	-0.617920	-0.153320	0.485352	-122.063612	-88.089308	-92.275781
03700		9.789332	-0.360220	-0.141380	-0.000395	0.028735	0.005915	-0.607422	-0.150391	0.483398	-121.662220	-88.093618	-92.674954
03701		9.768057	-0.312306	-0.151799	0.004681	0.025106	0.006875	-0.613770	-0.145752	0.492432	-121.273950	-88.096584	-93.058744
03702		9.724382	-0.303717	-0.180787	0.005335	0.024036	0.005972	-0.613037	-0.153809	0.485352	-120.935146	-88.099298	-93.392008
03703		9.708169	-0.289676	-0.189714	0.000369	0.020933	0.002192	-0.616455	-0.141113	0.493164	-120.652662	-88.103082	-93.671980
03704		9.721256	-0.285813	-0.147575	0.005987	0.022966	0.005069	-0.618164	-0.147217	0.485596	-120.335388	-88.105814	-93.983327
03705		9.735666	-0.285242	-0.165034	0.001335	0.022899	0.003506	-0.617188	-0.145264	0.488770	-120.004822	-88.109301	-94.310071
03706		9.726329	-0.320737	-0.141264	-0.003461	0.020616	0.004770	-0.625732	-0.156738	0.482178	-119.729074	-88.111398	-94.585283
03707		9.726342	-0.321153	-0.139363	-0.006714	0.018821	0.003930	-0.616211	-0.155762	0.486572	-119.456829	-88.113643	-94.859409
03708		9.763150	-0.281264	-0.138870	-0.011282	0.019164	0.004888	-0.620605	-0.141602	0.485107	-119.205402	-88.115188	-95.114771
03709		9.740772	-0.320998	-0.155321	-0.012683	0.020892	0.004162	-0.611816	-0.149414	0.480957	-118.903880	-88.117725	-95.421253
03710		9.753802	-0.317077	-0.113243	-0.007233	0.022105	0.001998	-0.616699	-0.148193	0.489258	-118.628261	-88.121450	-95.698498
03711		9.713414	-0.326451	-0.171764	-0.007854	0.016034	-0.002438	-0.618652	-0.153320	0.484619	-118.454898	-88.125870	-95.874004
03712		9.740851	-0.321181	-0.149863	-0.000839	0.016337	0.001169	-0.614990	-0.152100	0.488281	-118.269537	-88.128379	-96.057277
03713		9.777680	-0.280794	-0.149407	-0.003720	0.019385	-0.002804	-0.623535	-0.147949	0.480957	-118.044321	-88.133929	-96.282788
03714		9.710278	-0.307420	-0.137901	0.001360	0.015756	-0.001833	-0.611572	-0.145752	0.488281	-117.890140	-88.137759	-96.433602
03715		9.752120	-0.301194	-0.135959	-0.002921	0.010187	0.001357	-0.620117	-0.147217	0.484375	-117.767951	-88.138586	-96.554795
03716		9.694093	-0.293015	-0.147134	0.001852	0.003523	0.000115	-0.623291	-0.151123	0.483154	-117.787680	-88.138146	-96.531325
03717		9.734460	-0.283760	-0.086327	-0.007943	0.005279	0.002924	-0.617920	-0.146729	0.485596	-117.729636	-88.136948	-96.591593
03718		9.742715	-0.336949	-0.112785	-0.002554	0.004685	0.006114	-0.618408	-0.142578	0.479004	-117.684678	-88.133776	-96.635370
03719		9.740933	-0.321623	-0.143497	-0.003332	-0.002203	-0.003363	-0.617920	-0.148682	0.487061	-117.792009	-88.133666	-96.526936
03720		9.773352	-0.350358	-0.121478	-0.001852	-0.003523	-0.000115	-0.620361	-0.148193	0.478027	-117.925119	-88.131455	-96.392148
03721		9.742711	-0.336800	-0.113588	-0.002387	-0.009184	-0.002026	-0.611084	-0.157959	0.485840	-118.129882	-88.128857	-96.186235
03722		9.740922	-0.321120	-0.145359	-0.004013	-0.010081	-0.002447	-0.618652	-0.153564	0.480469	-118.383967	-88.126014	-95.931646
03723		9.740914	-0.320941	-0.146298	-0.006956	-0.008841	-0.001071	-0.618652	-0.151123	0.490234	-118.583219	-88.123105	-95.734889
03724		9.719666	-0.272202	-0.160361	-0.007923	-0.010807	-0.002391	-0.617920	-0.154297	0.483398	-118.848691	-88.119967	-95.471148
03725		9.766509	-0.299960	-0.158372	-0.005536	-0.001623	-0.000363	-0.610107	-0.150879	0.487793	-118.928428	-88.118555	-95.392568
03726		9.755319	-0.319477	-0.167900	-0.008129	-0.004486	-0.002103	-0.611084	-0.150635	0.496582	-119.094187	-88.116985	-95.228712
03727		9.797146	-0.313112	-0.167329	-0.008992	0.002903	-0.000915	-0.621582	-0.139160	0.484375	-119.119780	-88.116938	-95.205784
03728		9.780936	-0.298587	-0.178294	-0.007594	0.001174	-0.000190	-0.621338	-0.143066	0.488037	-119.182647	-88.115977	-95.144568
03729		9.755325	-0.319491	-0.167522	-0.007862	0.005686	0.005448	-0.604248	-0.141602	0.474121	-119.095586	-88.113450	-95.232533
03730		9.771530	-0.334535	-0.155757	-0.006895	0.007651	0.006767	-0.607666	-0.145508	0.487061	-119.000818	-88.110810	-95.328636
03731		9.771525	-0.335113	-0.154826	-0.005783	0.011835	0.005259	-0.609863	-0.143799	0.477539	-118.829577	-88.110109	-95.500199
03732		9.752077	-0.302586	-0.135974	-0.002759	0.011003	0.006405	-0.622314	-0.141113	0.487549	-118.685017	-88.108559	-95.643752
03733		9.729700	-0.342287	-0.153386	-0.007492	0.010530	0.002314	-0.615967	-0.155273	0.483643	-118.553440	-88.108961	-95.776434
03734		9.755628	-0.334475	-0.072143	-0.000167	0.013865	0.008144	-0.611084	-0.146973	0.482178	-118.349713	-88.107290	-95.977698
03735		9.723214	-0.306116	-0.092901	0.003148	0.017468	0.003638	-0.616699	-0.151611	0.484375	-118.100626	-88.109039	-96.223085
03736		9.742663	-0.339681	-0.109046	0.005286	0.015078	0.005986	-0.615967	-0.151367	0.485352	-117.893083	-88.108734	-96.425044
03737		9.731466	-0.360126	-0.116534	0.001988	0.020421	0.010474	-0.614746	-0.145996	0.487793	-117.543377	-88.107723	-96.771733
03738		9.728193	-0.342507	-0.086043	-0.005629	0.012651	0.010294	-0.617432	-0.150391	0.490723	-117.345413	-88.104523	-96.970363
03739		9.786180	-0.351970	-0.072869	-0.006210	0.014127	0.013712	-0.618408	-0.146729	0.479980	-117.074957	-88.099987	-97.241851
03740		9.784416	-0.337660	-0.101735	0.000152	0.025843	0.010335	-0.617188	-0.147461	0.487305	-116.671720	-88.100117	-97.642554
03741		9.787672	-0.357290	-0.128185	0.006119	0.023768	0.010109	-0.619141	-0.140625	0.480957	-116.270155	-88.099823	-98.038223
03742		9.787678	-0.357823	-0.126217	0.001438	0.016162	0.000687	-0.616455	-0.150635	0.488525	-116.089645	-88.102305	-98.215339
03743		9.787683	-0.358053	-0.125173	-0.001015	0.005171	0.004009	-0.613525	-0.144043	0.483398	-116.027736	-88.100331	-98.275041
03744		9.780989	-0.308669	-0.156916	-0.000188	0.015265	0.000264	-0.613037	-0.142090	0.488281	-115.864940	-88.102782	-98.435366
03745		9.726421	-0.331442	-0.105731	0.002175	0.015500	0.002310	-0.622314	-0.145752	0.477295	-115.656182	-88.104169	-98.639809
03746		9.740905	-0.330549	-0.123742	0.000037	0.017890	-0.000044	-0.616699	-0.148193	0.485840	-115.453670	-88.107392	-98.839742
03747		9.726451	-0.331771	-0.101893	0.002493	0.027478	0.004499	-0.617188	-0.140381	0.484619	-115.034559	-88.110651	-99.255158
03748		9.744244	-0.349802	-0.147643	0.001092	0.029207	0.003768	-0.617676	-0.145752	0.495605	-114.623094	-88.114530	-99.663552
03749		9.768309	-0.326410	-0.095464	-0.001197	0.029379	0.004238	-0.615723	-0.146973	0.483154	-114.180638	-88.118006	-100.103646
03750		9.752158	-0.312660	-0.103480	0.001764	0.035679	0.010709	-0.612793	-0.136719	0.485352	-113.613306	-88.119533	-100.667603
03751		9.777851	-0.292757	-0.110143	0.006630	0.039768	0.004102	-0.622314	-0.138916	0.486084	-112.995607	-88.125181	-101.278619
03752		9.765006	-0.309831	-0.055771	-0.000159	0.040693	0.008033	-0.618896	-0.150635	0.489258	-112.363059	-88.128836	-101.908927
03753		9.752207	-0.314722	-0.092021	-0.007322	0.038177	0.007230	-0.621338	-0.152344	0.478516	-111.751943	-88.132089	-102.521637
03754		9.728135	-0.351595	-0.047166	-0.014187	0.038694	0.008638	-0.621094	-0.149902	0.486084	-111.151849	-88.134561	-103.127514
03755		9.758780	-0.365954	-0.051904	-0.012795	0.036964	0.009363	-0.630127	-0.145752	0.486572	-110.545402	-88.136163	-103.739671
03756		9.760556	-0.369681	-0.108569	-0.010005	0.025964	0.002986	-0.617676	-0.149902	0.483398	-110.185165	-88.138758	-104.103165
03757		9.791021	-0.395785	-0.023795	-0.007497	0.028415	0.002205	-0.617676	-0.145508	0.479492	-109.758096	-88.142148	-104.532275
03758		9.769949	-0.347302	-0.033875	-0.006165	0.035221	0.000381	-0.617188	-0.149902	0.488281	-109.254062	-88.147743	-105.037439
03759		9.715419	-0.357431	-0.071479	-0.007640	0.036542	-0.002877	-0.622559	-0.138916	0.482910	-108.719173	-88.155153	-105.574504
03760		9.741167	-0.336628	-0.078461	-0.003446	0.031353	-0.000680	-0.623047	-0.146240	0.483887	-108.278427	-88.160333	-106.014785
03761		9.771872	-0.349917	-0.083931	-0.005366	0.027426	-0.003319	-0.627686	-0.148438	0.483398	-107.888449	-88.165995	-106.404928
03762		9.737804	-0.317484	-0.043820	-0.007211	0.032847	-0.003474	-0.618652	-0.146973	0.483643	-107.434413	-88.172752	-106.860660
03763		9.752404	-0.316347	-0.059903	-0.006632	0.038908	0.000942	-0.621094	-0.150879	0.480469	-106.821137	-88.177903	-107.475560
03764		9.757376	-0.350636	-0.054096	-0.007969	0.041043	0.002720	-0.621826	-0.151123	0.477539	-106.187219	-88.182296	-108.111698
03765		9.811843	-0.340787	-0.008322	-0.009975	0.053186	0.005348	-0.614746	-0.139648	0.477051	-105.298407	-88.186845	-109.004720
03766		9.788087	-0.365055	-0.052061	-0.014345	0.065093	0.005914	-0.613281	-0.146240	0.478027	-104.224529	-88.192363	-110.084689
03767		9.744822	-0.356118	-0.077904	-0.008670	0.059986	0.003499	-0.628906	-0.139404	0.486328	-103.215975	-88.197718	-111.095775
03768		9.743410	-0.341115	-0.103265	0.002232	0.052059	0.007141	-0.617920	-0.149658	0.480957	-102.348365	-88.199716	-111.959866
03769		9.773458	-0.367684	-0.015468	-0.004719	0.061109	0.005954	-0.625000	-0.148193	0.477295	-101.299279	-88.202758	-113.009220
03770		9.753851	-0.335168	0.008621	-0.006813	0.072841	0.006039	-0.617432	-0.149170	0.476807	-100.062646	-88.206587	-114.247698
03771		9.791662	-0.386379	-0.050175	-0.009855	0.073672	0.004850	-0.621094	-0.151123	0.475098	-98.783936	-88.210154	-115.530455
03772		9.748510	-0.377334	-0.075119	-0.016138	0.072714	0.002803	-0.624756	-0.147949	0.479492	-97.554057	-88.214104	-116.767515
03773		9.785444	-0.337603	-0.067743	-0.008251	0.092838	0.007648	-0.621582	-0.147949	0.483154	-95.910367	-88.215485	-118.414560
03774		9.786777	-0.353690	-0.027602	-0.013221	0.098680	0.003750	-0.612793	-0.143799	0.484131	-94.192916	-88.218100	-120.137753
03775		9.781864	-0.320031	-0.019475	-0.010932	0.107841	0.005713	-0.621338	-0.137207	0.472412	-92.282678	-88.217886	-122.052293
03776		9.785557	-0.339032	-0.037713	-0.024623	0.110683	0.003046	-0.622803	-0.145508	0.468994	-90.348373	-88.217562	-123.998980
03777		9.744955	-0.360980	0.001934	-0.024640	0.101739	0.003065	-0.619873	-0.142334	0.467529	-88.554842	-88.214865	-125.804468
03778		9.787910	-0.370862	0.043650	-0.024594	0.093201	0.005612	-0.625732	-0.140137	0.475098	-86.953379	-88.209704	-127.418140
03779		9.774542	-0.359727	-0.018610	-0.024218	0.089103	0.002494	-0.625488	-0.149170	0.470459	-85.408238	-88.204612	-128.974799
03780		9.773449	-0.344154	-0.041042	-0.018572	0.083594	-0.002402	-0.627930	-0.148193	0.470703	-83.983724	-88.201854	-130.407992
03781		9.775647	-0.375124	0.028439	-0.017407	0.079238	-0.001358	-0.623779	-0.143555	0.472412	-82.620383	-88.197292	-131.779755
03782		9.732766	-0.365308	0.003771	-0.010385	0.080936	-0.005562	-0.632080	-0.143311	0.476074	-81.242747	-88.194377	-133.161359
03783		9.707923	-0.400906	0.052078	-0.009052	0.078800	-0.007350	-0.621826	-0.143555	0.471924	-79.881619	-88.191098	-134.525292
03784		9.722800	-0.399283	0.040531	0.000407	0.081534	-0.004441	-0.622070	-0.149902	0.473877	-78.502723	-88.185411	-135.901976
03785		9.722783	-0.398805	0.048452	0.004972	0.081185	-0.005355	-0.625732	-0.149414	0.468018	-77.116412	-88.178773	-137.283484
03786		9.737690	-0.397286	0.036736	0.019752	0.073580	-0.004121	-0.623535	-0.154297	0.475342	-75.886510	-88.171935	-138.500018
03787		9.742585	-0.430930	0.045914	0.026616	0.073060	-0.005472	-0.628418	-0.143555	0.480469	-74.647425	-88.164679	-139.722472
03788		9.749562	-0.392153	0.091031	0.028017	0.061996	-0.007158	-0.631348	-0.143311	0.470703	-73.615490	-88.159734	-140.736208
03789		9.708646	-0.413078	0.125385	0.030626	0.046584	-0.007749	-0.624023	-0.147705	0.470459	-72.831646	-88.156549	-141.499713
03790		9.682948	-0.329240	0.114069	0.027578	0.037679	-0.013895	-0.633545	-0.152588	0.473633	-72.184312	-88.158554	-142.128904
03791		9.708879	-0.307489	0.107569	0.023603	0.026216	-0.008436	-0.625977	-0.135010	0.464844	-71.745830	-88.158936	-142.551860
03792		9.734792	-0.286400	0.101062	0.011456	0.037878	-0.000426	-0.635254	-0.147949	0.471191	-71.180064	-88.153219	-143.108684
03793		9.743949	-0.236411	0.053003	0.013504	0.043819	0.014781	-0.628662	-0.150391	0.469482	-70.589221	-88.137289	-143.688956
03794		9.751999	-0.275346	-0.000431	0.002577	0.041802	0.021459	-0.623291	-0.138672	0.466553	-70.104655	-88.118659	-144.169635
03795		9.715033	-0.317836	0.003702	-0.005889	0.041830	0.024849	-0.632568	-0.143555	0.468262	-69.639430	-88.097497	-144.635760
03796		9.772570	-0.328965	0.021639	-0.014594	0.048569	0.030972	-0.626465	-0.150879	0.467773	-69.133804	-88.072140	-145.147366
03797		9.719711	-0.357653	0.014564	-0.014128	0.044880	0.030412	-0.628906	-0.141357	0.474854	-68.680053	-88.047148	-145.607098
03798		9.731324	-0.356433	0.059150	-0.012084	0.041681	0.027776	-0.630615	-0.144775	0.467041	-68.284944	-88.024675	-146.006698
03799		9.716167	-0.359830	0.082055	-0.026419	0.035864	0.020983	-0.624268	-0.154053	0.471191	-67.941571	-88.006372	-146.362442
03800		9.735958	-0.395075	0.068125	-0.019710	0.033125	0.022510	-0.631104	-0.146973	0.463379	-67.663380	-87.988384	-146.649434
03801		9.746814	-0.377325	0.080753	-0.013819	0.029838	0.014853	-0.632813	-0.142822	0.467529	-67.374731	-87.974653	-146.944261
03802		9.720731	-0.399068	0.093023	-0.014814	0.027074	0.008506	-0.628418	-0.144043	0.461670	-67.105229	-87.965308	-147.219756
03803		9.740435	-0.314120	0.022289	-0.012007	0.023616	0.010038	-0.637695	-0.144775	0.469238	-66.883391	-87.955252	-147.445906
03804		9.747934	-0.292534	0.093265	-0.021367	0.012364	0.009699	-0.632324	-0.139648	0.461914	-66.846031	-87.948526	-147.492871
03805		9.743064	-0.259600	0.092520	-0.028917	0.014353	0.014386	-0.628662	-0.138672	0.466064	-66.799316	-87.938198	-147.553291
03806		9.719718	-0.269073	0.012864	-0.034410	0.013146	0.016449	-0.633057	-0.146484	0.460205	-66.800865	-87.927738	-147.568800
03807		9.720364	-0.286063	0.044939	-0.038869	0.015310	0.011951	-0.622070	-0.141602	0.463135	-66.732241	-87.918519	-147.656981
03808		9.725804	-0.337175	0.078983	-0.039738	0.014155	0.015660	-0.628906	-0.155273	0.467529	-66.717879	-87.908246	-147.691467
03809		9.725744	-0.338554	0.080415	-0.040976	0.018103	0.012042	-0.626953	-0.133789	0.461670	-66.614462	-87.898519	-147.816298
03810		9.740786	-0.338593	0.062461	-0.037033	0.009493	0.009637	-0.628906	-0.151855	0.466797	-66.628817	-87.892471	-147.820497
03811		9.699615	-0.361038	0.091418	-0.032401	-0.000181	0.006360	-0.627197	-0.138184	0.463623	-66.747400	-87.889756	-147.717566
03812		9.709181	-0.429834	0.095261	-0.038235	0.004117	0.003609	-0.637207	-0.141846	0.468018	-66.801851	-87.888097	-147.682330
03813		9.692742	-0.400131	0.053044	-0.031485	0.001771	0.007667	-0.631104	-0.146484	0.460449	-66.899610	-87.884163	-147.599284
03814		9.730387	-0.376481	0.083916	-0.027989	-0.002754	0.008326	-0.634766	-0.144043	0.471924	-67.074529	-87.881551	-147.437624
03815		9.741328	-0.357648	0.093205	-0.029635	-0.004043	0.005365	-0.627686	-0.143799	0.459717	-67.238879	-87.880195	-147.287511
03816		9.757070	-0.372708	0.104007	-0.027781	-0.009856	0.003064	-0.636475	-0.147217	0.463867	-67.483209	-87.881892	-147.056273
03817		9.736529	-0.324476	0.089256	-0.025149	-0.015541	0.007434	-0.624756	-0.140625	0.471191	-67.820007	-87.881879	-146.731206
03818		9.744737	-0.362287	0.030053	-0.018668	-0.011586	0.011722	-0.639404	-0.145996	0.464600	-68.134627	-87.879257	-146.424405
03819		9.714530	-0.365619	0.067496	-0.018943	-0.005281	0.011948	-0.626221	-0.142334	0.472412	-68.349073	-87.874544	-146.217700
03820		9.719272	-0.400779	0.068226	-0.018224	-0.015667	0.008650	-0.621582	-0.138672	0.466553	-68.703136	-87.874308	-145.871173
03821		9.724014	-0.435858	0.068495	-0.009676	-0.014904	0.010318	-0.626221	-0.151611	0.464111	-69.044033	-87.872414	-145.532227
03822		9.798751	-0.372189	0.098513	-0.010218	-0.012011	0.005841	-0.628662	-0.140137	0.466553	-69.325020	-87.872790	-145.254236
03823		9.802823	-0.391326	0.068443	-0.008574	-0.010727	0.008799	-0.636230	-0.141602	0.457520	-69.591861	-87.870773	-144.989623
03824		9.787069	-0.377025	0.054899	-0.013899	-0.029145	-0.001864	-0.630615	-0.147705	0.466553	-70.082638	-87.878559	-144.503808
03825		9.802844	-0.391654	0.063338	-0.010374	-0.033277	0.001302	-0.628906	-0.151611	0.467041	-70.637338	-87.884678	-143.952161
03826		9.772738	-0.394052	0.098636	-0.011542	-0.028530	0.002728	-0.633057	-0.143555	0.464111	-71.147739	-87.889530	-143.445362
03827		9.742648	-0.396512	0.134310	-0.011336	-0.025909	0.002404	-0.626953	-0.144775	0.471436	-71.607377	-87.893428	-142.989624
03828		9.768718	-0.376151	0.122679	-0.001469	-0.018348	0.002235	-0.632324	-0.143555	0.468262	-71.962724	-87.896432	-142.632211
03829		9.700872	-0.402859	0.128046	-0.002610	-0.022922	0.001233	-0.620361	-0.154053	0.468018	-72.373080	-87.900185	-142.220206
03830		9.701618	-0.418744	0.156916	0.004958	-0.015186	0.001495	-0.625977	-0.152344	0.469482	-72.676267	-87.902881	-141.911303
03831		9.754454	-0.393394	0.167720	0.013423	-0.005893	0.000562	-0.629639	-0.137695	0.472168	-72.822272	-87.904153	-141.755817
03832		9.718894	-0.345599	0.173038	0.009471	-0.007003	-0.001965	-0.627197	-0.135498	0.465088	-72.985487	-87.907290	-141.584395
03833		9.738720	-0.378427	0.154668	-0.001805	-0.012833	-0.002558	-0.627197	-0.144775	0.473389	-73.230647	-87.911063	-141.336386
03834		9.779833	-0.356462	0.124294	-0.010991	-0.021459	-0.003265	-0.636719	-0.146484	0.471191	-73.619183	-87.917219	-140.951225
03835		9.784632	-0.390386	0.124252	-0.018162	-0.014631	-0.001732	-0.624512	-0.151123	0.469971	-73.906161	-87.920864	-140.671751
03836		9.800431	-0.404817	0.134853	-0.021028	-0.002240	-0.003336	-0.633301	-0.137695	0.468994	-74.011500	-87.923886	-140.575731
03837		9.814713	-0.387854	0.084752	-0.022367	0.000282	0.000929	-0.634521	-0.146729	0.465820	-74.086755	-87.923653	-140.510486
03838		9.788682	-0.408307	0.094206	-0.026146	0.001398	-0.004433	-0.624512	-0.145264	0.469238	-74.135295	-87.926699	-140.474236
03839		9.774427	-0.424623	0.144334	-0.027378	0.005357	-0.008030	-0.627930	-0.141602	0.467529	-74.096150	-87.930613	-140.526592
03840		9.750605	-0.372734	0.191784	-0.041007	0.018340	-0.003322	-0.622559	-0.141357	0.466064	-73.899759	-87.930375	-140.743953
03841		9.772936	-0.392254	0.085244	-0.046972	0.011491	-0.003158	-0.627197	-0.148193	0.475830	-73.801196	-87.930572	-140.866435
03842		9.776977	-0.410164	0.057528	-0.038753	0.017772	-0.006282	-0.625244	-0.146240	0.470459	-73.598947	-87.932011	-141.088365
03843		9.792756	-0.424447	0.071183	-0.022379	0.029286	-0.002137	-0.632813	-0.142578	0.462402	-73.222846	-87.928817	-141.474864
03844		9.765967	-0.429204	0.053185	-0.009239	0.039021	0.001118	-0.627197	-0.137695	0.472412	-72.716689	-87.922535	-141.983981
03845		9.735120	-0.415834	0.064224	0.000064	0.029794	0.001984	-0.633057	-0.146973	0.476074	-72.340207	-87.916605	-142.357324
03846		9.726961	-0.379203	0.124972	-0.000901	0.027450	-0.001858	-0.626465	-0.148926	0.470215	-71.993331	-87.913718	-142.702277
03847		9.741997	-0.377943	0.108213	-0.005929	0.022552	-0.000371	-0.634277	-0.141846	0.469238	-71.722356	-87.910373	-142.974208
03848		9.757747	-0.392322	0.121627	-0.009436	0.017369	-0.005983	-0.633545	-0.153076	0.462402	-71.511685	-87.911431	-143.187760
03849		9.772129	-0.374849	0.073457	-0.007102	0.017587	-0.003896	-0.621582	-0.153564	0.467041	-71.293886	-87.910745	-143.407373
03850		9.752964	-0.357224	0.123328	-0.005518	0.018085	-0.005965	-0.630371	-0.146240	0.471191	-71.070166	-87.911602	-143.631736
03851		9.741312	-0.360160	0.084825	0.004115	0.022637	-0.008309	-0.623535	-0.150635	0.457520	-70.752583	-87.912424	-143.944915
03852		9.763939	-0.336122	0.137466	0.001985	0.025039	-0.010717	-0.625732	-0.143311	0.466797	-70.396095	-87.914436	-144.297832
03853		9.756335	-0.314714	0.229142	-0.008621	0.037560	-0.002310	-0.633301	-0.144775	0.463623	-69.894863	-87.908895	-144.801988
03854		9.701542	-0.292439	0.128026	-0.024448	0.023144	-0.002011	-0.622314	-0.154785	0.463867	-69.628866	-87.906420	-145.079510
03855		9.778302	-0.318348	0.095473	-0.028038	0.016904	0.002752	-0.632568	-0.152344	0.459717	-69.472378	-87.902137	-145.250065
03856		9.752862	-0.354983	0.137106	-0.037117	0.019431	-0.000901	-0.627930	-0.156982	0.465088	-69.275421	-87.899748	-145.465765
03857		9.757608	-0.389188	0.141236	-0.036752	0.033988	0.000898	-0.628662	-0.144043	0.458740	-68.864497	-87.892957	-145.896516
03858		9.741201	-0.358697	0.102068	-0.033970	0.030132	-0.000092	-0.630615	-0.150391	0.461182	-68.517102	-87.887814	-146.260954
03859		9.744734	-0.360856	0.044673	-0.030245	0.018524	-0.004712	-0.625977	-0.136719	0.458496	-68.298441	-87.886961	-146.494688
03860		9.726059	-0.359371	0.124989	-0.029737	0.015230	-0.002759	-0.631348	-0.150146	0.462158	-68.149926	-87.886295	-146.657684
03861		9.736395	-0.323592	0.105595	-0.036719	0.014966	-0.006528	-0.625244	-0.145020	0.463867	-67.977426	-87.887072	-146.848412
03862		9.809066	-0.330398	0.101308	-0.034857	0.009163	-0.008841	-0.622559	-0.155273	0.460938	-67.883628	-87.890912	-146.959590
03863		9.778216	-0.316378	0.109763	-0.039423	0.010279	-0.002972	-0.633301	-0.146484	0.465820	-67.802323	-87.890955	-147.061309
03864		9.778226	-0.315820	0.110509	-0.040409	0.007555	-0.009338	-0.635010	-0.143311	0.476318	-67.731445	-87.895394	-147.152735
03865		9.815843	-0.291136	0.142428	-0.045876	0.007106	-0.002283	-0.622314	-0.147217	0.468018	-67.705176	-87.895629	-147.202037
03866		9.865556	-0.279667	0.245934	-0.056761	0.016593	0.003901	-0.631104	-0.154541	0.458252	-67.591622	-87.891076	-147.345541
03867		9.861881	-0.278161	0.307401	-0.068607	0.023744	0.006231	-0.628906	-0.149170	0.460938	-67.388350	-87.883260	-147.585994
03868		9.861209	-0.263304	0.278640	-0.085391	0.017449	0.012591	-0.635986	-0.146973	0.471680	-67.332347	-87.873898	-147.688326
03869		9.838664	-0.288065	0.229644	-0.103143	0.018893	0.022572	-0.632813	-0.150879	0.454590	-67.317717	-87.858409	-147.759259
03870		9.772913	-0.406966	0.171331	-0.108300	0.022905	0.023925	-0.624268	-0.144287	0.460938	-67.266448	-87.841845	-147.869989
03871		9.739397	-0.451604	0.112204	-0.105726	0.016806	0.025720	-0.631104	-0.153076	0.461670	-67.300162	-87.825123	-147.894223
03872		9.686510	-0.479544	0.101018	-0.088617	0.017937	0.026630	-0.639404	-0.151123	0.467285	-67.323724	-87.808227	-147.918785
03873		9.681636	-0.447735	0.100601	-0.073804	0.009179	0.020467	-0.625488	-0.149170	0.468750	-67.414569	-87.796012	-147.867720
03874		9.700906	-0.466391	0.053158	-0.061808	0.013951	0.020289	-0.637939	-0.154297	0.457520	-67.440696	-87.783351	-147.874344
03875		9.683953	-0.396581	0.171219	-0.056754	0.019231	0.021357	-0.629395	-0.143311	0.461426	-67.390052	-87.768467	-147.955053
03876		9.683320	-0.382596	0.142395	-0.052111	0.019265	0.023035	-0.636719	-0.152100	0.459229	-67.354627	-87.753181	-148.017716
03877		9.736459	-0.376046	0.187575	-0.057531	0.029581	0.024681	-0.632813	-0.144531	0.460693	-67.185773	-87.734150	-148.216777
03878		9.747262	-0.359098	0.201057	-0.071164	0.044016	0.021448	-0.632324	-0.152832	0.465820	-66.827308	-87.714146	-148.613662
03879		9.719988	-0.349992	0.153318	-0.075537	0.048466	0.031995	-0.629150	-0.150391	0.464600	-66.473117	-87.686943	-149.008510
03880		9.734564	-0.335365	0.107780	-0.065518	0.037804	0.029491	-0.632324	-0.150391	0.456543	-66.251138	-87.663968	-149.265572
03881		9.718794	-0.323117	0.099822	-0.060941	0.036718	0.023624	-0.629150	-0.149170	0.466797	-66.005073	-87.643768	-149.544106
03882		9.772279	-0.333207	0.177084	-0.058905	0.043215	0.025985	-0.635010	-0.151855	0.461182	-65.700619	-87.621266	-149.879929
03883		9.740877	-0.305779	0.158301	-0.065231	0.041928	0.021271	-0.643799	-0.150391	0.466309	-65.389779	-87.600966	-150.225599
03884		9.771977	-0.337636	0.185194	-0.070220	0.047825	0.017297	-0.631348	-0.158691	0.461426	-64.997077	-87.581717	-150.656248
03885		9.765160	-0.376227	0.150003	-0.071906	0.046201	0.011769	-0.634277	-0.155762	0.457031	-64.593136	-87.565130	-151.099340
03886		9.750145	-0.395530	0.203331	-0.062319	0.039953	0.014892	-0.627686	-0.156250	0.459229	-64.289361	-87.548834	-151.436461
03887		9.776575	-0.392711	0.228047	-0.060160	0.027870	0.012274	-0.629883	-0.157471	0.461182	-64.111335	-87.536414	-151.647022
03888		9.745611	-0.380345	0.238500	-0.070511	0.034801	0.007458	-0.630615	-0.152344	0.463867	-63.837107	-87.525124	-151.959273
03889		9.734225	-0.384115	0.200937	-0.076797	0.034618	0.010269	-0.637451	-0.149170	0.460449	-63.583625	-87.511969	-152.254534
03890		9.702958	-0.355297	0.181208	-0.077031	0.031990	0.010537	-0.631104	-0.160156	0.461670	-63.369679	-87.499703	-152.510191
03891		9.722766	-0.389058	0.166228	-0.075941	0.036181	0.009049	-0.628418	-0.156250	0.464600	-63.094720	-87.486609	-152.826404
03892		9.703032	-0.374070	0.217966	-0.071795	0.039875	0.011325	-0.634521	-0.155518	0.452881	-62.796354	-87.471784	-153.163564
03893		9.681016	-0.413560	0.200607	-0.069710	0.036718	0.008685	-0.635254	-0.150879	0.460693	-62.515999	-87.458626	-153.481758
03894		9.691586	-0.378940	0.184346	-0.060682	0.043055	0.012406	-0.636475	-0.151367	0.457031	-62.188734	-87.442254	-153.841481
03895		9.638947	-0.421754	0.205183	-0.060910	0.040429	0.012676	-0.639893	-0.152588	0.456055	-61.892664	-87.425818	-154.169742
03896		9.539670	-0.419250	0.191537	-0.067653	0.033919	0.008510	-0.631592	-0.147705	0.451660	-61.656275	-87.413728	-154.442502
03897		9.469545	-0.517470	0.161228	-0.070515	0.037400	0.006943	-0.633057	-0.154053	0.452393	-61.370433	-87.400824	-154.766073
03898		9.462725	-0.537939	0.094574	-0.043559	0.042364	0.000904	-0.638916	-0.153320	0.458496	-60.986190	-87.390092	-155.173027
03899		9.482059	-0.520647	-0.010557	-0.018102	0.038598	0.001945	-0.637207	-0.158691	0.450439	-60.633401	-87.379239	-155.533829
03900		9.708475	-0.436968	0.059103	-0.020188	0.062917	0.009284	-0.636963	-0.152588	0.448242	-60.072289	-87.358243	-156.104441
03901		9.919086	-0.323023	0.090837	-0.024065	0.106320	0.031199	-0.636719	-0.161377	0.457520	-59.195134	-87.312950	-156.994039
03902		10.031078	-0.307842	0.291402	-0.049733	0.151569	0.052357	-0.637207	-0.158691	0.456543	-58.041671	-87.243649	-158.174661
03903		9.908816	-0.222877	0.436190	-0.060789	0.153828	0.070878	-0.645508	-0.159668	0.448486	-57.043860	-87.163264	-159.206366
03904		9.632809	-0.180806	0.416978	-0.117487	0.100186	0.081383	-0.636963	-0.154541	0.447510	-56.706089	-87.094453	-159.609291
03905		9.399801	-0.259038	0.226697	-0.191311	0.047740	0.087768	-0.632813	-0.151611	0.444336	-56.944732	-87.038474	-159.477895
03906		9.223030	-0.542216	-0.161186	-0.218469	0.034201	0.095941	-0.640869	-0.150879	0.445801	-57.369170	-86.983259	-159.175552
03907		9.289831	-0.929351	-0.389848	-0.200556	0.067576	0.105609	-0.638672	-0.155029	0.447754	-57.521857	-86.912437	-159.134876
03908		9.532066	-1.396809	-0.541193	-0.146999	0.122687	0.098920	-0.633789	-0.150391	0.444824	-57.125188	-86.828367	-159.613817
03909		9.677099	-1.805467	-0.635626	-0.073583	0.168039	0.080710	-0.643555	-0.158936	0.442871	-56.226730	-86.737930	-160.553109
03910		9.844205	-1.982730	-0.655229	-0.002786	0.178250	0.058753	-0.632813	-0.153809	0.442383	-55.134413	-86.654201	-161.646172
03911		9.944942	-1.938846	-0.548355	0.090353	0.182502	0.034657	-0.641602	-0.159180	0.448242	-53.874208	-86.578512	-162.854456
03912		9.901561	-1.632995	-0.474517	0.147515	0.157033	0.007421	-0.646729	-0.153564	0.443359	-52.670974	-86.523053	-163.972528
03913		9.855784	-1.220347	-0.364993	0.149701	0.123139	-0.005007	-0.641602	-0.151855	0.434082	-51.680718	-86.483342	-164.876360
03914		9.757095	-0.830543	-0.273078	0.100513	0.124387	-0.015109	-0.636475	-0.145508	0.444580	-50.669950	-86.447244	-165.828683
03915		9.604022	-0.537924	-0.396789	0.047872	0.122307	-0.018368	-0.644775	-0.154785	0.443604	-49.708169	-86.411752	-166.761986
03916		9.576432	-0.418052	-0.399095	0.025819	0.109384	-0.023733	-0.648682	-0.151611	0.440430	-48.829997	-86.383075	-167.624402
03917		9.508036	-0.458054	-0.354946	0.005685	0.098911	-0.036409	-0.645020	-0.150879	0.442139	-47.974527	-86.362487	-168.475843
03918		9.555282	-0.466169	-0.370821	-0.011680	0.105727	-0.045387	-0.646240	-0.140625	0.433838	-47.035453	-86.342719	-169.420857
03919		9.566128	-0.458762	-0.319516	-0.034361	0.112543	-0.062854	-0.646484	-0.150391	0.439453	-45.973423	-86.325879	-170.501512
03920		9.690141	-0.487016	-0.205693	-0.073429	0.137142	-0.061014	-0.642822	-0.147705	0.434570	-44.795851	-86.297631	-171.721015
03921		9.792401	-0.553788	-0.111596	-0.117204	0.154196	-0.050980	-0.636719	-0.148438	0.427979	-43.628614	-86.256290	-172.954990
03922		9.706502	-0.529081	-0.268388	-0.145487	0.105904	-0.030715	-0.645020	-0.150635	0.434814	-42.911054	-86.226299	-173.754962
03923		9.587958	-0.488742	-0.264170	-0.194248	0.037885	-0.032354	-0.649414	-0.155518	0.429199	-42.626040	-86.224658	-174.149157
03924		9.750387	-0.303056	0.022549	-0.278774	-0.001567	-0.034188	-0.647461	-0.161377	0.430420	-42.602852	-86.240733	-174.329795
03925		9.857975	-0.373137	0.042036	-0.320978	-0.001565	-0.023939	-0.640137	-0.163574	0.437012	-42.673698	-86.252406	-174.440920
03926		9.791741	-0.535380	0.065491	-0.290721	0.038711	-0.037194	-0.657959	-0.166504	0.434570	-42.398485	-86.252625	-174.880977
03927		9.645688	-1.000470	0.153777	-0.212321	0.110924	-0.093609	-0.647949	-0.164307	0.427979	-41.296433	-86.243001	-176.105222
03928		9.657091	-1.352146	0.396226	-0.116654	0.215961	-0.151418	-0.646240	-0.164063	0.431152	-39.173464	-86.206803	-178.297117
03929		9.679523	-1.225588	1.164492	-0.038680	0.290950	-0.187628	-0.647217	-0.159912	0.426514	-36.426954	-86.142947	178.930383
03930		9.738751	-0.899335	1.834573	-0.022015	0.315145	-0.214244	-0.652100	-0.169434	0.422363	-33.463434	-86.067616	175.950038
03931		9.663333	-0.782608	1.877024	-0.036592	0.291760	-0.249446	-0.646240	-0.170410	0.408447	-30.483745	-86.003536	172.944768
03932		9.595703	-0.889608	1.504393	0.012607	0.275714	-0.293633	-0.650146	-0.170166	0.418213	-27.313788	-85.949069	169.776898
03933		9.422850	-1.127574	1.611167	0.176020	0.313157	-0.309418	-0.650879	-0.172363	0.419678	-23.914455	-85.866000	166.471970
03934		9.107121	-1.638727	2.310489	0.492686	0.205266	-0.310124	-0.652344	-0.169434	0.420166	-20.765054	-85.827436	163.599985
03935		8.903964	-1.972302	1.412701	0.743447	0.033610	-0.340596	-0.653809	-0.166748	0.415771	-17.729883	-85.875969	160.986569
03936		8.436851	-1.729834	0.435984	0.700324	-0.023184	-0.365800	-0.648926	-0.172363	0.425293	-14.570866	-85.949838	158.224455
03937		8.474366	-0.974768	-0.698081	0.599837	-0.133705	-0.331808	-0.650391	-0.178955	0.419678	-11.841572	-86.070310	155.835666
03938		9.215886	-0.472458	-0.802111	0.708686	0.152835	-0.252918	-0.643555	-0.168457	0.415039	-9.150079	-86.013447	153.547431
03939		9.690429	0.123888	-1.215302	0.732032	0.331886	-0.167138	-0.653809	-0.164307	0.415771	-7.034470	-85.841153	151.848627
03940		10.316814	0.760214	-1.746674	0.700859	0.380050	-0.072917	-0.646973	-0.161865	0.420166	-5.751938	-85.632282	150.967891
03941		11.044568	1.449381	-1.984940	0.676447	0.438079	0.009320	-0.656494	-0.157715	0.412842	-5.139969	-85.384585	150.745453
03942		11.527126	1.747568	-1.550811	0.645653	0.502976	0.040501	-0.660645	-0.156738	0.412354	-4.749338	-85.098362	150.727359
03943		11.479420	1.788518	-1.157346	0.560703	0.390543	-0.007638	-0.656738	-0.163574	0.407959	-4.188195	-84.878278	150.489223
03944		11.380050	1.617205	-1.341210	0.467320	0.160076	-0.129392	-0.655029	-0.156250	0.408447	-3.036758	-84.794304	149.604617
03945		11.411736	1.142681	-1.806568	0.367147	0.042916	-0.245788	-0.653564	-0.152100	0.406738	-1.276530	-84.777955	148.050022
03946		11.387754	0.597566	-2.064328	0.309376	0.060338	-0.315114	-0.651855	-0.157959	0.407227	0.874592	-84.746908	146.070563
03947		11.331377	-0.050603	-1.888937	0.289981	0.108242	-0.358658	-0.651123	-0.159668	0.408447	3.235173	-84.680690	143.869060
03948		11.061497	-0.327653	-1.881088	0.350517	0.178921	-0.377914	-0.655762	-0.163086	0.407715	5.650567	-84.564574	141.647391
03949		10.654921	-0.316561	-1.673536	0.503370	0.247857	-0.338287	-0.650391	-0.153564	0.402344	7.764035	-84.404222	139.815735
03950		10.129566	-0.368876	-0.940204	0.643104	0.274171	-0.280597	-0.654541	-0.166748	0.410156	9.499951	-84.227629	138.444216
03951		9.603392	-0.077758	-0.622852	0.658842	0.215387	-0.251124	-0.660400	-0.147705	0.408936	11.050353	-84.084035	137.267283
03952		9.527636	0.579354	-0.772569	0.644612	0.209447	-0.246669	-0.652832	-0.161133	0.407471	12.513731	-83.940523	136.169921
03953		9.650694	1.237980	-0.497822	0.671009	0.342277	-0.261198	-0.656494	-0.155518	0.409180	13.837307	-83.719123	135.228117
03954		9.552098	1.721981	-0.063598	0.675514	0.461856	-0.282929	-0.660889	-0.159668	0.403809	15.041434	-83.425226	134.408550
03955		9.375544	1.882900	0.150748	0.596624	0.490213	-0.286105	-0.656982	-0.154541	0.396484	16.091190	-83.114327	133.697949
03956		9.114467	1.742546	0.476998	0.506071	0.509179	-0.269339	-0.651855	-0.151123	0.395752	16.917265	-82.793534	133.160441
03957		8.658398	1.466402	0.641959	0.385829	0.486831	-0.233058	-0.665771	-0.157959	0.398193	17.495684	-82.491203	132.802572
03958		8.379798	1.201171	0.221427	0.228836	0.417228	-0.221694	-0.671387	-0.161621	0.397949	17.994940	-82.227556	132.433823
03959		8.318224	0.999458	-0.161792	0.160725	0.356244	-0.224245	-0.671875	-0.163330	0.384033	18.516765	-81.997058	132.002092
03960		8.366611	0.724281	-0.027066	0.176436	0.342316	-0.220422	-0.673584	-0.158691	0.383789	19.023281	-81.773449	131.595260
03961		8.334603	0.720654	-0.311578	0.153543	0.305200	-0.219688	-0.669678	-0.165527	0.385986	19.537502	-81.569905	131.166404
03962		8.342865	0.975843	-0.582034	0.176135	0.304363	-0.199421	-0.668701	-0.167236	0.385254	19.971784	-81.369876	130.832007
03963		8.348771	1.244426	-0.435696	0.192625	0.311069	-0.160379	-0.678223	-0.169922	0.375732	20.257034	-81.174451	130.656847
03964		8.398061	1.491636	-0.351081	0.145484	0.281873	-0.126955	-0.672852	-0.167725	0.378418	20.426576	-81.000440	130.572306
03965		8.595356	1.595763	-0.330737	0.066812	0.272319	-0.092638	-0.673584	-0.164307	0.372559	20.446469	-80.838918	130.592604
03966		8.823259	1.374897	-0.043495	-0.026689	0.284610	-0.067179	-0.675049	-0.173340	0.378418	20.312975	-80.675355	130.715062
03967		8.901643	1.122920	0.049670	-0.147211	0.190022	-0.051873	-0.672363	-0.171387	0.375244	20.181051	-80.566473	130.765287
03968		8.781176	1.076319	-0.491879	-0.227655	0.051224	-0.029187	-0.673828	-0.174561	0.364990	20.093069	-80.535869	130.724951
03969		8.745309	0.966966	-0.778736	-0.272472	0.004869	0.013404	-0.679199	-0.174072	0.357178	19.900219	-80.539468	130.764122
03970		8.909820	0.814842	-0.822618	-0.336499	0.028926	0.037851	-0.670898	-0.170166	0.364014	19.560087	-80.533904	130.916190
03971		9.148416	0.750842	-0.747224	-0.375315	0.030168	0.040418	-0.681152	-0.176758	0.364990	19.190219	-80.528914	131.075533
03972		9.480137	0.848824	-0.670089	-0.363081	0.033594	0.040579	-0.676758	-0.173584	0.363525	18.821401	-80.521014	131.241247
03973		9.579041	0.981900	-0.727549	-0.341441	0.069943	0.053871	-0.684570	-0.174072	0.353271	18.385227	-80.496997	131.487852
03974		9.564594	1.186503	-0.970041	-0.333686	0.050853	0.062621	-0.684326	-0.181641	0.351807	17.944539	-80.483239	131.743532
03975		9.718402	1.410912	-0.962079	-0.337497	0.043097	0.073175	-0.684326	-0.182373	0.357178	17.478928	-80.476721	132.022391
03976		10.021958	1.562923	-0.794899	-0.360218	0.139254	0.080720	-0.680908	-0.185059	0.350342	16.877890	-80.416911	132.425292
03977		10.373600	1.622347	-0.825050	-0.415584	0.169628	0.078510	-0.677979	-0.188721	0.356445	16.233002	-80.341055	132.840774
03978		10.813680	1.601574	-1.052107	-0.536736	0.109310	0.082447	-0.699951	-0.182861	0.351074	15.566078	-80.296538	133.208068
03979		11.122712	1.484187	-1.680055	-0.670171	0.106014	0.116593	-0.683838	-0.190674	0.354248	14.723936	-80.259993	133.675854
03980		11.359696	1.436917	-2.092690	-0.758543	0.121568	0.166438	-0.680420	-0.197266	0.340820	13.659580	-80.218644	134.317551
03981		11.562755	1.261993	-2.339581	-0.804095	0.098373	0.210934	-0.694092	-0.192627	0.343262	12.453543	-80.195890	135.076871
03982		12.219929	0.937536	-1.854658	-0.790429	0.229429	0.230070	-0.685059	-0.196045	0.346436	11.109430	-80.096947	135.984151
03983		13.207023	-0.138430	0.228833	-0.816189	0.359766	0.148905	-0.705078	-0.203857	0.331299	9.961700	-79.914986	136.677720
03984		13.761286	-1.180335	2.599896	-0.970450	0.100806	-0.035586	-0.696045	-0.208496	0.340332	9.469271	-79.857465	136.615826
03985		13.146020	-1.962287	1.777176	-1.310814	-0.521612	-0.175826	-0.691895	-0.210938	0.335938	9.571170	-80.140705	135.752717
03986		12.454258	-1.376691	-2.492083	-1.189449	-0.986143	-0.185036	-0.692383	-0.213623	0.335449	10.084723	-80.682210	134.543440
03987		12.866103	-0.636744	-3.550219	-0.566702	-0.758457	-0.075566	-0.691650	-0.217529	0.333740	10.520823	-81.107298	133.775904
03988		12.812626	0.193516	-3.349524	-0.097701	-0.254840	0.069613	-0.690918	-0.213379	0.339111	10.389029	-81.260966	133.855324
03989		12.891642	0.188827	-2.630661	0.427634	0.097629	0.240608	-0.686035	-0.218994	0.335205	9.699227	-81.235483	134.804127
03990		12.649727	0.231126	0.147568	0.599847	0.399644	0.449658	-0.696045	-0.211670	0.327148	8.186736	-81.052169	136.685394
03991		11.549193	0.274555	3.395587	0.143722	0.243329	0.558233	-0.691650	-0.212402	0.335938	6.162271	-80.959542	138.821388
03992		11.241868	0.406189	1.877056	-0.136615	-0.242685	0.581900	-0.693359	-0.208008	0.339111	4.059597	-81.130647	140.873458
03993		10.629653	0.085606	2.601360	0.014914	-0.084106	0.573472	-0.705078	-0.213379	0.333496	1.978709	-81.201838	142.990890
03994		9.587881	0.569021	4.569909	-0.301331	-0.270943	0.436887	-0.695801	-0.202148	0.342041	0.196089	-81.364711	144.622365
03995		9.660378	1.892108	3.337262	-0.432381	-0.419799	0.347157	-0.694336	-0.204834	0.337646	-1.393708	-81.608799	145.982265
03996		9.478688	2.695283	3.058162	-0.361919	-0.326075	0.293579	-0.697266	-0.208008	0.343750	-2.798113	-81.792256	147.194665
03997		9.149429	2.399910	3.538752	-0.463738	-0.206200	0.204687	-0.699463	-0.209229	0.343506	-3.927044	-81.908847	148.069600
03998		9.096055	1.550564	3.515353	-0.549953	-0.062470	0.136323	-0.703369	-0.215088	0.336670	-4.808976	-81.941478	148.644800
03999		9.388586	0.147252	3.938928	-0.638474	0.133703	0.078040	-0.703125	-0.213379	0.342773	-5.437179	-81.866578	148.912742
04000		9.461117	-0.718261	4.245463	-0.658229	0.206041	0.020150	-0.701660	-0.214111	0.322021	-5.812841	-81.750847	148.913944
04001		9.386155	-1.114616	3.812940	-0.585256	0.117588	-0.053478	-0.703125	-0.214600	0.337891	-5.889097	-81.692170	148.655054
04002		9.285622	-1.225911	3.162053	-0.498371	0.027984	-0.112431	-0.710449	-0.221680	0.334473	-5.723957	-81.685621	148.202278
04003		9.136865	-0.927805	2.794928	-0.475628	-0.038471	-0.117203	-0.701416	-0.223145	0.324707	-5.550749	-81.719235	147.754731
04004		9.204056	-0.400826	2.544210	-0.469916	-0.110361	-0.049789	-0.706543	-0.225098	0.333496	-5.665812	-81.787839	147.601636
04005		9.525257	-0.153370	2.194693	-0.455150	-0.139680	0.050720	-0.702881	-0.236816	0.328125	-6.183288	-81.869432	147.863841
04006		9.678874	-0.218625	1.762373	-0.426080	-0.129081	0.150355	-0.705811	-0.236328	0.332520	-7.088402	-81.935822	148.534179
04007		9.647667	-0.493005	1.530757	-0.402525	-0.121642	0.222807	-0.707031	-0.239014	0.333252	-8.280013	-81.992760	149.507557
04008		9.451757	-0.724552	1.350500	-0.370248	-0.084324	0.227701	-0.710205	-0.226563	0.323242	-9.463651	-82.023244	150.491278
04009		9.189888	-0.999008	1.382860	-0.299733	-0.028487	0.192431	-0.714111	-0.237793	0.324707	-10.430896	-82.025175	151.297411
04010		8.877492	-1.258448	1.439814	-0.247845	0.005726	0.146705	-0.708984	-0.238770	0.331299	-11.158290	-82.009060	151.891219
04011		8.542802	-1.408905	1.313945	-0.170023	-0.027823	0.125382	-0.715576	-0.231445	0.322266	-11.781511	-82.015254	152.425007
04012		8.488063	-1.465181	1.315920	-0.082098	-0.068785	0.146596	-0.721191	-0.231934	0.326904	-12.475455	-82.038977	153.080918
04013		8.420834	-1.522865	1.234111	-0.002521	-0.058216	0.181589	-0.708008	-0.236816	0.328857	-13.258802	-82.053130	153.873222
04014		8.279774	-1.575487	1.151100	0.102985	-0.045519	0.224153	-0.719971	-0.235107	0.324219	-14.139795	-82.050875	154.825030
04015		8.102680	-1.463432	1.275342	0.199031	-0.016739	0.255970	-0.718018	-0.240479	0.329590	-15.062296	-82.027929	155.874430
04016		8.022361	-1.318953	1.331667	0.275900	0.017658	0.274040	-0.718994	-0.232666	0.327393	-15.964583	-81.978982	156.947900
04017		7.826748	-1.207081	1.337368	0.353310	0.067819	0.298945	-0.719482	-0.218506	0.326172	-16.850501	-81.897991	158.049862
04018		7.796874	-1.038984	1.421105	0.403698	0.103723	0.334255	-0.720215	-0.223389	0.330811	-17.774498	-81.787033	159.219662
04019		7.737841	-1.014896	1.456438	0.449496	0.144556	0.363794	-0.723389	-0.222412	0.325928	-18.705677	-81.647704	160.423641
04020		7.678676	-1.043115	1.525184	0.510857	0.204100	0.378799	-0.730469	-0.216064	0.325684	-19.540098	-81.468855	161.565800
04021		7.713961	-1.022804	1.598680	0.555285	0.263166	0.359591	-0.733154	-0.211670	0.326416	-20.168449	-81.261545	162.525863
04022		7.836409	-0.885585	1.674040	0.542144	0.284726	0.339746	-0.728027	-0.214111	0.322998	-20.667840	-81.043469	163.348330
04023		8.196285	-0.840557	1.848387	0.392393	0.286852	0.315107	-0.723877	-0.208008	0.325195	-21.140561	-80.829916	164.057384
04024		8.518006	-0.953368	1.462551	0.287771	0.223161	0.298859	-0.731934	-0.211426	0.319336	-21.670953	-80.651085	164.764536
04025		8.609908	-1.444131	1.003000	0.298563	0.127008	0.270170	-0.742432	-0.205322	0.315674	-22.210323	-80.530075	165.487335
04026		8.592723	-1.765316	0.760884	0.352223	0.073327	0.201354	-0.732422	-0.194092	0.330322	-22.553559	-80.449988	166.042677
04027		8.577221	-1.988954	0.670941	0.401319	0.057866	0.110671	-0.733398	-0.208008	0.327393	-22.603817	-80.399323	166.329487
04028		8.556939	-1.954101	0.340753	0.462332	-0.006635	0.014502	-0.740723	-0.201660	0.331543	-22.396636	-80.402345	166.390726
04029		8.713157	-1.696890	-0.187486	0.537252	-0.121234	-0.041464	-0.733398	-0.198242	0.329590	-22.123559	-80.479929	166.428592
04030		8.957264	-1.335570	-0.517582	0.623872	-0.230595	-0.065815	-0.744629	-0.203125	0.334961	-21.856939	-80.619257	166.523377
04031		9.112254	-0.829442	-0.872542	0.684755	-0.291831	-0.096556	-0.733887	-0.186279	0.334961	-21.538003	-80.799433	166.600372
04032		9.043065	-0.426410	-1.088000	0.676899	-0.342404	-0.135106	-0.743164	-0.193604	0.337646	-21.149556	-81.013045	166.602452
04033		8.901334	-0.247614	-1.184051	0.635831	-0.379377	-0.180296	-0.732666	-0.193359	0.337402	-20.674378	-81.257447	166.492861
04034		8.881654	-0.300082	-1.094852	0.589827	-0.395180	-0.210530	-0.742188	-0.196045	0.341797	-20.114746	-81.514438	166.271343
04035		8.812835	-0.572962	-0.889803	0.565917	-0.366976	-0.211999	-0.731689	-0.194336	0.342285	-19.508854	-81.758045	165.989306
04036		8.759696	-0.994416	-0.636031	0.567980	-0.328610	-0.234366	-0.736572	-0.202393	0.348877	-18.730740	-81.982672	165.534720
04037		8.857580	-1.349507	-0.677546	0.634041	-0.349613	-0.283377	-0.731934	-0.193848	0.357178	-17.718346	-82.228462	164.882039
04038		9.238355	-1.506680	-0.495394	0.742811	-0.369564	-0.293994	-0.741211	-0.204346	0.363525	-16.561850	-82.483228	164.147281
04039		9.608128	-1.531976	-0.427681	0.783070	-0.371938	-0.299633	-0.739258	-0.196533	0.370117	-15.302775	-82.740142	163.332735
04040		9.869114	-1.364785	-0.567875	0.769207	-0.312374	-0.271090	-0.726807	-0.200684	0.365479	-14.028620	-82.955430	162.495456
04041		10.054452	-1.003814	-0.430054	0.740569	-0.189610	-0.230077	-0.737061	-0.199219	0.370850	-12.773318	-83.096651	161.660922
04042		10.347810	-0.586136	-0.209980	0.628173	-0.021498	-0.157939	-0.738281	-0.201416	0.373535	-11.704933	-83.130712	160.949991
04043		10.301355	-0.525080	-0.319381	0.455200	0.072724	-0.101226	-0.731689	-0.200439	0.368408	-10.915884	-83.106320	160.420571
04044		10.203131	-0.703115	-0.684578	0.338585	0.046572	-0.096542	-0.729248	-0.196045	0.376221	-10.233589	-83.093096	159.931393
04045		10.212798	-0.597263	-1.014317	0.277923	0.017821	-0.141978	-0.733643	-0.198975	0.376953	-9.407774	-83.102107	159.262606
04046		10.307760	-0.541028	-1.197333	0.206946	-0.073368	-0.210931	-0.741455	-0.201416	0.379395	-8.352278	-83.165167	158.321598
04047		10.786808	-0.746895	-1.088197	0.181988	-0.367718	-0.286507	-0.737305	-0.208496	0.385498	-7.116570	-83.401391	157.185015
04048		11.934169	-0.654796	-1.755608	0.216543	-0.604558	-0.271624	-0.738525	-0.208984	0.386719	-5.968530	-83.766152	156.157279
04049		13.468566	-0.213098	-1.885869	0.184021	-0.417838	-0.206197	-0.734131	-0.209961	0.390625	-4.986033	-84.021268	155.277905
04050		13.869905	0.115383	-1.998560	0.198444	-0.012405	-0.058864	-0.735840	-0.215820	0.396240	-4.556063	-84.034048	154.962590
04051		13.183646	-0.433671	-1.162737	0.353226	0.090770	0.021758	-0.735596	-0.216553	0.395508	-4.441368	-83.986921	155.053467
04052		12.531344	-1.001265	1.704047	0.481248	-0.119375	0.006673	-0.740967	-0.206787	0.398438	-4.250678	-84.057725	155.141656
04053		12.150888	0.153131	0.598610	0.426907	-0.720825	-0.197564	-0.746338	-0.211670	0.412109	-3.154439	-84.482928	154.288456
04054		12.219822	2.268881	-0.655743	0.420059	-0.647113	-0.230519	-0.732178	-0.206787	0.416748	-1.664103	-84.861842	153.036059
04055		12.937863	4.690622	2.768460	1.167477	-0.373633	-0.096639	-0.733154	-0.213379	0.425537	-0.416535	-85.082713	152.457916
04056		14.273924	5.837059	5.723200	1.131878	-0.050460	0.099732	-0.730225	-0.204834	0.423584	-0.434047	-85.114100	153.129066
04057		12.266982	4.782185	6.197481	0.233041	0.231777	0.334916	-0.729736	-0.210205	0.422363	-2.480029	-84.982073	155.319516
04058		9.300381	1.359017	8.817331	0.083909	-0.386559	0.540475	-0.735352	-0.201904	0.440186	-6.216025	-85.182444	159.120230
04059		9.841272	-2.259590	7.539360	-0.656715	-1.288235	0.584784	-0.740479	-0.194824	0.443359	-12.350138	-85.862858	164.898327
04060		10.644970	-4.745541	3.139488	-1.423089	-1.003167	0.463854	-0.721924	-0.204102	0.451660	-19.230145	-86.347098	170.979587
04061		10.703020	-5.801352	0.866024	-1.082949	-0.465756	0.216825	-0.729004	-0.214111	0.449219	-23.311960	-86.555338	174.450261
04062		10.715247	-5.481907	-0.082238	-0.215213	-0.247602	-0.131798	-0.722412	-0.208496	0.454102	-23.224780	-86.718173	174.242080
04063		10.420030	-3.188153	-0.405792	0.540234	0.032357	-0.304619	-0.725830	-0.211914	0.448242	-19.983813	-86.769638	171.308567
04064		10.189155	-0.605034	1.495876	0.943663	0.373022	-0.242107	-0.729004	-0.209961	0.458496	-16.030717	-86.611962	167.893128
04065		10.571995	1.410060	3.408153	0.880918	0.451444	-0.066102	-0.725586	-0.205322	0.452393	-13.870659	-86.376433	166.237349
04066		10.905749	2.875914	3.887323	0.553802	0.430191	0.089149	-0.731689	-0.202881	0.452148	-13.430412	-86.127686	166.116816
04067		10.439231	2.978137	3.566114	0.180187	0.255784	0.123961	-0.732178	-0.205322	0.455566	-13.850056	-85.973037	166.643599
04068		9.702560	2.012102	2.894946	-0.174608	-0.111177	0.010752	-0.726074	-0.204102	0.458008	-14.264165	-86.036154	166.961102
04069		9.574112	1.121747	2.077780	-0.426379	-0.379752	-0.167717	-0.733154	-0.209961	0.463379	-13.933155	-86.275008	166.388146
04070		9.391684	0.560522	1.247946	-0.520345	-0.422018	-0.300701	-0.723877	-0.215820	0.464111	-12.442303	-86.552601	164.598324
04071		8.969779	0.190127	0.624493	-0.481515	-0.379732	-0.352312	-0.725098	-0.222412	0.471436	-10.057360	-86.809887	161.936583
04072		8.431171	-0.008910	0.161620	-0.382508	-0.298421	-0.339800	-0.721436	-0.223633	0.467529	-7.189656	-87.011074	158.847901
04073		8.110085	-0.008133	0.089353	-0.267514	-0.175917	-0.291392	-0.724609	-0.237305	0.481445	-4.308230	-87.132688	155.812822
04074		8.052777	0.059037	0.319852	-0.196779	-0.068324	-0.241077	-0.717529	-0.234863	0.480469	-1.683769	-87.181913	153.074913
04075		8.119994	0.476287	0.533794	-0.150457	0.010148	-0.227489	-0.722656	-0.236572	0.471436	0.871310	-87.181650	150.433847
04076		8.182213	1.081271	0.717791	-0.158989	0.045063	-0.221053	-0.718994	-0.247559	0.482178	3.325239	-87.154102	147.888382
04077		8.048309	1.568627	1.061655	-0.249862	0.046124	-0.209288	-0.714844	-0.248047	0.481934	5.535042	-87.123105	145.535546
04078		7.811572	1.816542	1.255883	-0.410967	0.017410	-0.204725	-0.726074	-0.247559	0.477295	7.597567	-87.102656	143.237304
04079		7.660436	1.707221	1.232756	-0.615890	-0.026101	-0.212994	-0.716064	-0.250977	0.484375	9.683697	-87.103662	140.798530
04080		7.702875	1.370561	0.984197	-0.776448	-0.043558	-0.235928	-0.716553	-0.263916	0.474609	11.970948	-87.105626	138.065585
04081		7.660274	0.967730	0.719891	-0.876884	-0.029909	-0.245799	-0.719971	-0.270020	0.480469	14.272187	-87.094786	135.261760
04082		7.766339	0.615857	0.321324	-0.872866	-0.005220	-0.232834	-0.715820	-0.279785	0.482910	16.328683	-87.065251	132.704496
04083		8.028760	0.438407	0.223750	-0.794239	0.047248	-0.213175	-0.712891	-0.285889	0.481201	17.999483	-87.007667	130.578916
04084		8.141919	0.442557	0.267296	-0.727593	0.110014	-0.192680	-0.717773	-0.296875	0.479736	19.195787	-86.915448	128.966132
04085		8.255944	0.518255	0.156109	-0.686442	0.085884	-0.165972	-0.720947	-0.296875	0.479248	20.169468	-86.841331	127.599791
04086		8.337737	0.561340	0.141867	-0.658730	0.036218	-0.143828	-0.716309	-0.294922	0.479248	21.069717	-86.795590	126.322814
04087		8.281547	0.524493	-0.067290	-0.631018	0.007591	-0.097634	-0.712402	-0.302246	0.477539	21.638505	-86.775393	125.394575
04088		8.235272	0.537870	-0.332122	-0.604279	-0.039141	-0.068455	-0.711914	-0.309570	0.482178	22.110119	-86.784273	124.578111
04089		8.233887	0.486919	-0.632846	-0.587628	-0.088910	-0.015216	-0.712158	-0.305664	0.482666	22.296419	-86.832349	124.057857
04090		8.218704	0.455605	-0.849782	-0.539483	-0.121806	0.037233	-0.709229	-0.313477	0.477783	22.131911	-86.907699	123.915718
04091		8.287759	0.569717	-0.913127	-0.430343	-0.091044	0.101396	-0.710693	-0.318115	0.479736	21.269828	-86.981919	124.536144
04092		8.353781	0.622003	-0.688816	-0.341948	-0.002360	0.174816	-0.711182	-0.323242	0.486084	19.311839	-87.020638	126.303296
04093		8.492582	0.611291	-0.074268	-0.326027	0.130429	0.246765	-0.722656	-0.322021	0.490234	16.142635	-86.996891	129.293029
04094		8.492361	0.881397	-0.154803	-0.379803	0.246990	0.312838	-0.723389	-0.313477	0.474365	12.029659	-86.906010	133.196577
04095		8.627331	1.325843	-0.675205	-0.506865	0.311427	0.387024	-0.723389	-0.319580	0.484375	7.256714	-86.771722	137.689884
04096		8.818447	1.981634	-0.069864	-0.752730	0.274589	0.420993	-0.721680	-0.324707	0.480957	2.426494	-86.638104	142.098765
04097		9.175120	2.431560	0.797391	-1.052749	0.151488	0.459526	-0.723877	-0.321045	0.480957	-2.597392	-86.555548	146.531235
04098		9.465285	2.050748	0.418580	-1.229667	0.105878	0.473193	-0.733154	-0.322754	0.478271	-7.648771	-86.473751	150.888782
04099		9.785232	1.194003	0.292424	-1.225520	0.146537	0.453003	-0.725098	-0.328613	0.477295	-12.203779	-86.350918	154.754164
04100		10.149778	0.226106	0.442865	-1.152366	0.131183	0.403283	-0.735107	-0.327881	0.465088	-16.043132	-86.224418	157.942610
04101		10.267958	-0.442340	0.396005	-1.023451	0.031407	0.310964	-0.735352	-0.335205	0.475342	-19.112217	-86.158031	160.435652
04102		10.313239	-1.108045	-0.438714	-0.845124	-0.105972	0.191919	-0.732666	-0.333008	0.475342	-21.462985	-86.179590	162.309052
04103		10.703434	-1.998551	-1.152212	-0.688936	-0.177900	0.098995	-0.728027	-0.347656	0.472168	-23.257212	-86.256798	163.717434
04104		11.205827	-2.765645	-1.894935	-0.658799	-0.238882	0.005076	-0.731201	-0.351074	0.471680	-24.553577	-86.383417	164.640903
04105		11.237337	-2.766786	-3.014791	-0.700245	-0.449098	-0.004185	-0.723877	-0.354492	0.484619	-26.768876	-86.620879	166.462663
04106		11.843397	-0.822868	-4.911931	-0.443746	-0.585031	0.218593	-0.725098	-0.353516	0.496338	-31.840879	-86.854632	171.290888
04107		11.880912	1.458705	-5.683753	0.801327	-0.727668	0.829479	-0.717041	-0.344482	0.498047	-43.017430	-86.901245	-177.049931
04108		12.047906	-0.638101	-4.735361	0.730473	-0.241449	0.783586	-0.721436	-0.333252	0.505371	-49.932757	-86.672537	-169.701899
04109		12.829756	0.314357	-3.867158	-0.397385	0.621392	0.509377	-0.720215	-0.340332	0.502930	-48.922329	-86.222903	-170.935734
04110		12.160862	0.251114	-0.099399	-0.648977	0.594024	0.198846	-0.732178	-0.332275	0.497803	-46.764407	-85.911911	-173.468780
04111		11.888116	0.284318	0.716181	-0.240771	-0.128885	0.032727	-0.726074	-0.344482	0.506104	-47.895735	-85.952087	-172.465858
04112		11.456115	-0.454196	-1.167694	-0.355237	-0.302588	0.005630	-0.722412	-0.338867	0.511230	-50.032393	-86.065422	-170.525365
04113		11.111327	-0.974487	-1.064677	-0.346855	-0.240748	0.063338	-0.727783	-0.340088	0.511719	-52.196118	-86.127468	-168.547697
04114		10.503065	-1.936365	0.287377	-0.183643	-0.030696	-0.000746	-0.725830	-0.343994	0.516357	-52.534652	-86.140343	-168.311178
04115		10.295239	-2.955176	1.968385	-0.214536	0.164356	-0.075021	-0.723145	-0.358643	0.519775	-51.229958	-86.119648	-169.732963
04116		10.653128	-3.210665	3.638454	-0.553143	0.276832	-0.151803	-0.716797	-0.354248	0.518555	-48.971064	-86.086510	-172.312079
04117		11.177620	-2.954583	3.522848	-0.674628	0.518810	-0.341160	-0.718750	-0.358887	0.504395	-44.325442	-86.028353	-177.348007
04118		10.571889	-1.863378	4.720814	-0.222443	0.839048	-0.570560	-0.712891	-0.374756	0.517822	-36.547526	-85.876351	174.729602
04119		9.615143	-0.550656	7.041900	-0.083416	0.547161	-0.754481	-0.723389	-0.376465	0.505371	-29.251049	-85.852288	167.374366
04120		10.028875	0.843308	6.229405	-0.444508	-0.112514	-0.808761	-0.709717	-0.389648	0.507568	-24.027881	-86.120596	161.885754
04121		11.172741	2.439344	4.119339	-0.465635	-0.229111	-0.709422	-0.702881	-0.390137	0.510742	-19.278916	-86.397421	156.866832
04122		11.631862	3.625102	2.862457	-0.281791	-0.025829	-0.468232	-0.706055	-0.400879	0.512695	-15.398265	-86.494339	152.819617
04123		11.642727	2.891857	2.411711	-0.477292	0.079028	-0.193237	-0.701416	-0.408447	0.513428	-13.751610	-86.483018	150.904135
04124		11.355025	0.928779	2.068477	-0.722085	0.289622	-0.015167	-0.702637	-0.406006	0.509033	-13.418249	-86.326587	150.158249
04125		11.105434	-0.948140	2.528078	-0.733926	0.463859	0.029623	-0.703613	-0.413818	0.498047	-13.174639	-86.068630	149.500949
04126		11.303148	-2.040996	3.191124	-0.608042	0.344484	0.004304	-0.700928	-0.417969	0.504883	-12.930098	-85.878630	148.909234
04127		11.549121	-2.772016	2.733079	-0.528497	0.097954	-0.006565	-0.699707	-0.418457	0.500488	-13.014609	-85.829250	148.698365
04128		10.961034	-2.903055	1.987336	-0.303391	-0.214327	0.071231	-0.691406	-0.422363	0.507813	-14.147202	-85.941867	149.662279
04129		10.378791	-2.646168	1.371445	-0.002845	-0.414949	0.187075	-0.696045	-0.424316	0.513916	-16.565163	-86.147112	152.092995
04130		9.793432	-2.098958	0.942193	0.150583	-0.381455	0.263041	-0.691650	-0.414551	0.512451	-19.694731	-86.310755	155.318486
04131		9.398565	-1.647210	0.674734	0.196676	-0.343199	0.281432	-0.688232	-0.412842	0.528076	-23.105649	-86.439191	158.857935
04132		9.331198	-1.200108	0.442501	0.192570	-0.291952	0.279182	-0.685791	-0.416016	0.523193	-26.516984	-86.526592	162.388918
04133		9.088960	-0.932857	0.312556	0.188823	-0.172696	0.290124	-0.681641	-0.414307	0.530518	-29.629487	-86.539569	165.624723
04134		8.688488	-0.732944	0.263972	0.182930	-0.101374	0.295973	-0.692871	-0.406738	0.537354	-32.430058	-86.504417	168.538136
04135		8.215602	-0.695761	0.179815	0.151847	-0.050544	0.309098	-0.678467	-0.406250	0.533203	-35.027587	-86.433802	171.237087
04136		7.755165	-0.799900	0.144637	0.122569	0.034375	0.303605	-0.685547	-0.402344	0.529785	-37.019744	-86.317916	173.306275
04137		7.413431	-1.052574	0.223045	0.112232	0.152031	0.258682	-0.676025	-0.406494	0.537598	-37.975839	-86.162051	174.337656
04138		7.174547	-1.286110	0.475758	0.140168	0.252023	0.202080	-0.685547	-0.402344	0.540771	-37.954197	-85.979290	174.399138
04139		6.981048	-1.457580	0.757189	0.210746	0.298553	0.157952	-0.678223	-0.398682	0.541504	-37.408239	-85.791993	173.975451
04140		6.845263	-1.594613	1.001858	0.342902	0.289095	0.142696	-0.684570	-0.405518	0.544189	-36.770696	-85.612892	173.535810
04141		6.980041	-1.612359	1.157369	0.499119	0.296487	0.159466	-0.688721	-0.393555	0.542236	-36.163302	-85.425363	173.216010
04142		7.231313	-1.647077	1.119735	0.623422	0.347048	0.188847	-0.697510	-0.390869	0.540771	-35.474559	-85.203176	172.886027
04143		7.451255	-1.502635	0.961793	0.660954	0.376371	0.216535	-0.688721	-0.383789	0.539795	-34.857280	-84.958798	172.649153
04144		7.764333	-1.346553	0.759177	0.687724	0.374694	0.214044	-0.687256	-0.374268	0.548340	-34.248807	-84.714837	172.436523
04145		8.101653	-1.219999	0.708790	0.679770	0.358042	0.200477	-0.690918	-0.378662	0.552002	-33.677994	-84.483878	172.256953
04146		8.341930	-1.094488	0.731384	0.633152	0.292409	0.179426	-0.683594	-0.373047	0.556641	-33.261037	-84.289866	172.205186
04147		8.368370	-1.077598	0.381120	0.620622	0.199895	0.157550	-0.692627	-0.365234	0.557373	-33.054526	-84.147963	172.357585
04148		8.374765	-1.185699	-0.018234	0.650899	0.139749	0.130404	-0.693604	-0.367920	0.551514	-32.878781	-84.042582	172.558512
04149		8.348952	-1.277246	-0.139234	0.698089	0.141613	0.059310	-0.694336	-0.361572	0.563477	-32.355674	-83.959285	172.437249
04150		8.429654	-1.230935	-0.202292	0.744311	0.173816	-0.043418	-0.686035	-0.360352	0.567627	-31.248933	-83.890240	171.755809
04151		8.503692	-0.969046	-0.273971	0.796610	0.194894	-0.143826	-0.683594	-0.361084	0.568359	-29.624825	-83.839160	170.583933
04152		8.666788	-0.498833	-0.336135	0.819229	0.174009	-0.218337	-0.689453	-0.348633	0.575195	-27.708394	-83.814253	169.131131
04153		8.980566	0.083123	-0.450362	0.807781	0.122899	-0.268609	-0.681885	-0.346680	0.584473	-25.701511	-83.824136	167.580581
04154		9.283761	0.440290	-0.615688	0.734159	0.064384	-0.273203	-0.669678	-0.346680	0.587402	-23.828686	-83.858864	166.122654
04155		9.540224	0.460329	-0.430022	0.585647	0.033134	-0.261675	-0.683350	-0.350098	0.585449	-22.152181	-83.903769	164.776567
04156		9.685595	0.000617	0.203927	0.384094	0.046167	-0.251699	-0.676758	-0.344482	0.593506	-20.587973	-83.934403	163.427508
04157		9.847839	-0.453678	0.582092	0.226748	0.045813	-0.264364	-0.676514	-0.341309	0.596680	-19.043496	-83.965028	162.007589
04158		9.926133	-0.623741	0.636468	0.235349	0.006198	-0.271903	-0.669678	-0.344971	0.602783	-17.498805	-84.013269	160.592633
04159		9.855120	-0.451514	0.513316	0.279589	-0.066360	-0.244589	-0.669678	-0.344971	0.598145	-16.168794	-84.094309	159.419057
04160		9.899775	-0.229096	0.503327	0.290194	-0.133756	-0.218289	-0.660156	-0.349609	0.605957	-15.032706	-84.204567	158.446842
04161		10.294301	-0.179048	0.881179	0.188094	-0.082303	-0.160883	-0.659668	-0.348389	0.611816	-14.169653	-84.277567	157.690303
04162		10.586047	-0.526415	0.670949	0.002417	0.010381	-0.110412	-0.660889	-0.350342	0.614014	-13.544437	-84.289771	157.066036
04163		10.568874	-0.848977	-0.139039	-0.089251	0.047748	-0.074767	-0.655518	-0.351318	0.615723	-13.126705	-84.277192	156.597401
04164		10.172818	-0.784146	-1.372693	-0.000434	0.014825	-0.063961	-0.648682	-0.355225	0.612549	-12.755015	-84.279958	156.226281
04165		9.648391	-0.653126	-2.522910	0.210632	-0.118864	-0.067189	-0.652832	-0.341553	0.618164	-12.416347	-84.359062	156.009792
04166		9.439173	-0.801625	-3.099948	0.371478	-0.305975	-0.075194	-0.641846	-0.341309	0.620850	-12.157610	-84.542371	155.966362
04167		9.845475	-1.350626	-3.033883	0.418296	-0.411991	-0.107439	-0.638428	-0.345459	0.627930	-11.809610	-84.790484	155.860125
04168		10.286833	-2.332139	-0.871751	0.146644	-0.652665	-0.192232	-0.638428	-0.342041	0.633057	-11.355162	-85.181787	155.490956
04169		11.612919	-1.435095	-2.265521	0.027280	-1.143887	-0.288340	-0.622314	-0.344238	0.653809	-10.899806	-85.861305	155.052449
04170		13.663822	-0.886394	-3.968512	0.434857	-0.743182	-0.113714	-0.618164	-0.339111	0.647949	-10.896631	-86.294615	155.301681
04171		13.666411	-0.791126	-1.506899	0.882443	-0.106462	0.123962	-0.604492	-0.337158	0.671387	-11.680153	-86.345249	156.596026
04172		11.576923	-1.546188	1.055310	0.945200	-0.503184	0.058547	-0.601074	-0.329102	0.677246	-12.668689	-86.622864	158.131677
04173		10.956250	-1.450205	-0.943101	0.958688	-1.018346	-0.123112	-0.601318	-0.326904	0.688477	-13.307392	-87.211965	159.323928
04174		10.216636	-0.686980	-0.732088	1.263366	-0.887311	-0.173804	-0.589111	-0.318604	0.693604	-13.021476	-87.732512	159.764965
04175		10.284736	0.454802	1.776212	1.775801	-0.744774	-0.227775	-0.567383	-0.305176	0.710938	-10.956227	-88.181770	158.719081
04176		11.814404	1.915832	2.391461	1.677770	-0.410335	-0.251554	-0.568359	-0.294922	0.717041	-6.376242	-88.438910	155.101494
04177		11.942742	3.657387	3.996421	1.093088	0.240358	-0.073596	-0.567627	-0.279541	0.722168	-3.874081	-88.310269	153.227456
04178		10.337232	4.102674	7.524779	0.903249	0.064001	0.297875	-0.559814	-0.279785	0.721436	-8.891171	-88.257684	158.767218
04179		10.233416	1.434946	6.597309	0.797690	-0.645690	0.602577	-0.563477	-0.263184	0.727539	-24.050726	-88.521232	174.392477
04180		9.579684	-2.119557	4.075753	0.077426	-0.766871	0.613390	-0.549561	-0.260010	0.726807	-46.362218	-88.683091	-163.242534
04181		9.159557	-4.142549	3.013095	-0.207663	-0.717572	0.478681	-0.550049	-0.266846	0.744873	-68.218737	-88.676214	-141.496775
04182		10.274281	-5.077642	0.837592	0.135770	-0.604118	0.262149	-0.539551	-0.263672	0.748779	-84.035762	-88.613509	-125.594903
04183		11.096515	-4.431592	-0.684866	0.684685	-0.237940	0.006228	-0.536865	-0.250000	0.752930	-89.457977	-88.617140	-119.776150
04184		11.755785	-2.036364	-0.469393	1.165604	0.221825	-0.109934	-0.531250	-0.247803	0.756836	-83.380022	-88.672339	-125.185104
04185		12.524581	0.756317	1.202440	1.428529	0.504991	-0.009730	-0.545654	-0.232666	0.754639	-70.766721	-88.612739	-136.980682
04186		12.588903	2.488404	2.653765	1.393040	0.505924	0.195356	-0.535400	-0.221680	0.763428	-61.637277	-88.393982	-145.312120
04187		11.567472	2.984785	2.602746	1.142015	0.312581	0.288718	-0.531738	-0.207275	0.757080	-58.682709	-88.162589	-147.610869
04188		10.672027	2.997832	2.237190	0.808211	0.079634	0.186586	-0.535889	-0.202637	0.764648	-58.789955	-88.049061	-147.037571
04189		10.434025	2.673580	1.787414	0.462023	-0.166010	-0.049194	-0.537354	-0.193604	0.758057	-60.668859	-88.122714	-144.890202
04190		10.125658	1.987784	1.269809	0.228894	-0.354103	-0.290798	-0.527588	-0.198975	0.767822	-63.954445	-88.366008	-141.469203
04191		9.520098	1.354431	0.821770	0.094186	-0.393524	-0.406338	-0.518311	-0.195068	0.767334	-68.383639	-88.671311	-136.981982
04192		9.130364	0.962983	0.445312	0.036153	-0.290028	-0.427921	-0.517334	-0.197266	0.777344	-72.040162	-88.959431	-133.301302
04193		9.003220	0.859824	0.177980	-0.006473	-0.160467	-0.388404	-0.515137	-0.192627	0.778320	-73.664034	-89.199822	-131.678330
04194		9.175756	0.965393	0.116137	-0.056868	-0.063330	-0.356900	-0.504395	-0.199463	0.768311	-71.775438	-89.406780	-133.596979
04195		9.116137	1.056670	0.188433	-0.116559	-0.046414	-0.344401	-0.499268	-0.204590	0.777100	-67.148822	-89.601944	-138.287927
04196		8.908255	1.116471	0.146250	-0.178271	-0.037752	-0.351736	-0.505859	-0.208984	0.779297	-51.940628	-89.789804	-153.595788
04197		8.672353	1.319332	0.139992	-0.220286	0.008053	-0.347640	-0.498291	-0.214111	0.782227	14.207864	-89.865657	140.131916
04198		8.555591	1.553666	0.203109	-0.220729	0.075072	-0.335453	-0.493164	-0.214355	0.781006	52.811821	-89.717722	101.403952
04199		8.426153	1.674970	0.361212	-0.241443	0.108131	-0.300274	-0.500488	-0.219727	0.778564	59.911778	-89.542218	94.168170
04200		8.335332	1.668745	0.496628	-0.311739	0.138805	-0.261775	-0.494141	-0.215332	0.777100	60.574906	-89.373949	93.329060
04201		8.089569	1.529568	0.482102	-0.403010	0.139329	-0.234655	-0.493408	-0.225586	0.769287	60.346302	-89.219716	93.329426
04202		8.012810	1.445230	0.319757	-0.486505	0.169286	-0.207554	-0.490723	-0.225342	0.779785	58.681568	-89.069467	94.718235
04203		8.058341	1.370195	0.291277	-0.538559	0.247721	-0.185375	-0.495850	-0.230713	0.773438	55.104043	-88.905119	97.990380
04204		8.069433	1.252407	0.271338	-0.597153	0.291838	-0.171662	-0.494141	-0.231689	0.770020	51.251831	-88.727806	101.503861
04205		8.156773	1.054535	0.219304	-0.636082	0.269568	-0.170393	-0.492920	-0.236328	0.773438	48.669211	-88.556173	103.725349
04206		8.172949	0.966637	0.038721	-0.642898	0.199120	-0.171680	-0.500244	-0.242188	0.765137	47.654284	-88.408703	104.374818
04207		8.125765	0.930673	-0.201608	-0.621574	0.135771	-0.144572	-0.479736	-0.241211	0.768799	47.347029	-88.297657	104.328624
04208		8.121507	1.020058	-0.377996	-0.594851	0.106995	-0.110490	-0.483643	-0.246826	0.761963	47.015882	-88.211509	104.321611
04209		8.132578	1.130316	-0.414333	-0.578869	0.123110	-0.050833	-0.488037	-0.250000	0.759766	45.797746	-88.144383	105.211245
04210		8.241504	1.164608	-0.591345	-0.624889	0.146628	0.017506	-0.481201	-0.255859	0.759766	43.490221	-88.093698	107.164455
04211		8.258101	1.084613	-0.943383	-0.709303	0.160950	0.067759	-0.492432	-0.258301	0.762207	40.470543	-88.053896	109.781938
04212		8.291527	0.857123	-1.096768	-0.764449	0.168722	0.092802	-0.487549	-0.261475	0.756592	37.116963	-88.014098	112.701907
04213		8.381505	0.681689	-1.362841	-0.797773	0.165998	0.122372	-0.489258	-0.267578	0.749023	33.519883	-87.980100	115.846552
04214		8.420498	0.522491	-1.738814	-0.796795	0.155324	0.147760	-0.485596	-0.271240	0.750488	29.765780	-87.951198	119.148874
04215		8.415860	0.403281	-2.026029	-0.774704	0.119927	0.168507	-0.489502	-0.265869	0.742920	26.104220	-87.939126	122.371375
04216		8.507945	0.355853	-1.941258	-0.736241	0.091015	0.198400	-0.476807	-0.271729	0.745361	22.241616	-87.940741	125.817038
04217		8.693077	0.227247	-1.301676	-0.679628	0.087019	0.210216	-0.480225	-0.283203	0.736572	18.275839	-87.939400	129.398474
04218		9.032498	0.113545	-0.687846	-0.635882	0.117878	0.231117	-0.480957	-0.284668	0.749756	13.904814	-87.913976	133.410458
04219		9.185825	0.068035	-0.709772	-0.643741	0.104780	0.259016	-0.485840	-0.274414	0.743896	9.268281	-87.888923	137.683762
04220		9.378173	0.114680	-0.722669	-0.642820	0.103798	0.292176	-0.486572	-0.281982	0.732422	4.251945	-87.852424	142.337666
04221		9.765627	0.277725	0.128507	-0.613233	0.189197	0.296605	-0.483398	-0.283447	0.735840	-0.606739	-87.753527	146.851044
04222		10.002033	0.404360	0.665281	-0.521586	0.282983	0.271033	-0.476074	-0.279541	0.738037	-4.540504	-87.587403	150.491634
04223		10.121610	0.495888	0.587042	-0.430826	0.322931	0.231953	-0.481689	-0.285400	0.732422	-7.367693	-87.393662	153.077189
04224		9.974155	0.630371	0.016053	-0.465505	0.272282	0.195134	-0.480713	-0.275635	0.725830	-9.506754	-87.225798	154.954269
04225		9.733801	0.703392	-0.622013	-0.484111	0.166470	0.168001	-0.481689	-0.277100	0.725342	-11.358261	-87.118653	156.533062
04226		9.541966	0.728796	-1.596990	-0.519177	0.016678	0.164233	-0.478760	-0.289307	0.729980	-13.441853	-87.091957	158.324141
04227		9.530424	1.069949	-2.849198	-0.803074	-0.175031	0.173340	-0.468750	-0.292725	0.723389	-16.343270	-87.167492	160.771242
04228		9.673212	1.572784	-3.948208	-1.196963	-0.307013	0.208374	-0.466797	-0.286621	0.721680	-20.540737	-87.299425	164.289663
04229		9.993738	2.390520	-5.074873	-1.141635	-0.472587	0.292572	-0.464844	-0.301514	0.721680	-26.987958	-87.484077	170.091519
04230		10.500068	3.438714	-5.439025	-0.249316	-1.013046	0.618987	-0.457275	-0.288330	0.724854	-42.193537	-87.765405	-174.830322
04231		11.036684	0.606044	-4.826791	0.455504	-0.994920	0.612407	-0.460693	-0.279541	0.736816	-59.447661	-87.857980	-157.299873
04232		13.600182	-0.429934	-3.940298	-1.149302	0.101417	0.255973	-0.452881	-0.283447	0.731445	-60.754733	-87.703347	-156.648147
04233		14.328599	-0.187720	-2.953458	-1.570108	0.885783	-0.054252	-0.447510	-0.298096	0.723145	-51.369168	-87.447976	-166.939712
04234		12.908904	-1.496954	-0.535800	-0.889920	0.508456	-0.058538	-0.450439	-0.308105	0.712891	-46.663376	-87.283993	-172.158224
04235		12.097498	-2.424499	-0.959803	-0.622116	-0.174342	0.013451	-0.455811	-0.292725	0.710938	-48.772845	-87.349276	-170.400526
04236		12.617609	-3.658347	0.743375	-0.626303	0.187461	-0.047963	-0.449463	-0.298828	0.711914	-47.074591	-87.299661	-172.457198
04237		12.714098	-5.449665	4.455972	-1.066232	0.860881	-0.208592	-0.447510	-0.304443	0.710693	-39.173152	-87.024543	179.022795
04238		14.302812	-7.432446	5.092592	-1.350812	1.097581	-0.421804	-0.454346	-0.316650	0.689941	-29.913685	-86.644542	168.976834
04239		14.247891	-8.338225	6.138666	-0.660980	1.285239	-0.643175	-0.464600	-0.328125	0.685791	-20.077639	-86.135186	158.744663
04240		10.815942	-5.593777	8.697258	0.062766	0.889665	-0.827913	-0.455078	-0.320068	0.677979	-11.619225	-85.776200	150.303978
04241		8.417371	-0.140245	7.766893	0.033803	-0.503672	-0.754264	-0.459229	-0.324219	0.680664	-6.200189	-86.132933	144.893521
04242		9.098065	4.550760	3.831210	-0.065117	-1.410715	-0.457069	-0.438965	-0.320068	0.683105	-2.983002	-86.962820	141.635869
04243		10.597197	8.173749	3.070630	0.106871	-1.231307	-0.172622	-0.430664	-0.318848	0.689209	-1.383743	-87.675728	140.098875
04244		11.654294	8.379832	1.810932	0.024960	-0.593795	0.099016	-0.416992	-0.318848	0.685059	-3.241307	-88.016334	141.974725
04245		11.186096	5.559376	0.500209	-0.657657	0.221822	0.300085	-0.417969	-0.316162	0.688477	-8.037932	-87.876880	146.400140
04246		10.505808	1.903749	1.201368	-0.976451	0.695436	0.302751	-0.423584	-0.322998	0.677246	-11.172624	-87.457835	148.980152
04247		11.076627	-1.721130	3.256832	-1.029486	1.047124	0.134201	-0.438965	-0.327393	0.669678	-10.961724	-86.858278	148.181227
04248		10.945493	-4.291110	4.422206	-0.735273	0.863474	-0.121911	-0.440186	-0.339600	0.660645	-8.785023	-86.385599	145.581418
04249		10.653094	-4.769356	3.008415	-0.462058	0.262377	-0.246524	-0.437012	-0.336182	0.656738	-6.556079	-86.259266	143.085381
04250		10.202895	-4.160614	1.636522	-0.239393	-0.146435	-0.084688	-0.429199	-0.336426	0.653564	-6.091361	-86.350897	142.484922
04251		10.069598	-3.271236	1.109542	0.030449	-0.413106	0.192087	-0.427002	-0.333252	0.657471	-8.320363	-86.575677	144.738390
04252		10.005965	-2.346178	0.964901	0.140742	-0.502082	0.382409	-0.428467	-0.328125	0.652588	-12.898449	-86.821160	149.407514
04253		9.633091	-1.649327	0.708033	0.167783	-0.484596	0.459312	-0.425049	-0.319092	0.656982	-18.937112	-87.019873	155.553856
04254		9.233113	-1.186181	0.604673	0.179663	-0.419464	0.462299	-0.421631	-0.311768	0.656738	-25.449992	-87.145263	162.180910
04255		8.772745	-1.012612	0.546308	0.181469	-0.310768	0.412480	-0.421875	-0.305908	0.658691	-31.295092	-87.192986	168.139918
04256		8.183244	-0.920648	0.492356	0.189135	-0.227457	0.369975	-0.414063	-0.307617	0.654541	-36.283066	-87.185834	173.245059
04257		7.689931	-0.902157	0.346569	0.217622	-0.170159	0.347585	-0.415039	-0.296875	0.652100	-40.572917	-87.141329	177.667672
04258		7.580760	-0.963900	0.201515	0.254721	-0.076580	0.343868	-0.412109	-0.293457	0.656250	-43.915338	-87.043483	-178.836798
04259		7.669577	-1.197652	0.138094	0.309356	0.033194	0.343504	-0.414551	-0.289307	0.647461	-46.155559	-86.893387	-176.413291
04260		7.813039	-1.382953	0.376822	0.376375	0.061546	0.328056	-0.421387	-0.291504	0.658203	-47.815314	-86.733882	-174.532314
04261		7.805073	-1.582331	0.577248	0.489158	-0.008778	0.314851	-0.416260	-0.270752	0.656738	-49.687965	-86.603963	-172.373115
04262		7.674168	-1.864409	0.582092	0.630491	-0.066100	0.308505	-0.410400	-0.265625	0.652588	-51.703535	-86.493019	-169.989311
04263		7.591433	-2.002494	0.630811	0.720813	-0.044064	0.322685	-0.411133	-0.263184	0.648438	-53.455950	-86.363664	-167.817066
04264		7.540834	-2.019820	0.538922	0.775566	0.008543	0.320962	-0.410400	-0.246826	0.653320	-54.648222	-86.213633	-166.174315
04265		7.674244	-1.855796	0.417400	0.796259	0.066997	0.295005	-0.416016	-0.250000	0.653564	-55.206803	-86.055193	-165.154594
04266		7.873802	-1.632671	0.298656	0.794918	0.097755	0.263846	-0.411377	-0.235352	0.665771	-55.352284	-85.900716	-164.549501
04267		7.904302	-1.345741	0.231652	0.782646	0.087624	0.235247	-0.411621	-0.227783	0.656250	-55.427140	-85.763133	-164.022246
04268		7.921347	-1.230926	0.087338	0.762951	0.076081	0.215420	-0.411133	-0.222656	0.657471	-55.472521	-85.638427	-163.535689
04269		7.820629	-1.189445	0.152947	0.753686	0.048347	0.191773	-0.421143	-0.212158	0.654541	-55.588285	-85.533983	-162.983889
04270		7.715066	-1.078459	0.316402	0.767308	-0.020619	0.162371	-0.408447	-0.207764	0.654541	-55.965216	-85.465363	-162.162122
04271		7.849601	-0.984248	0.289723	0.756007	-0.086171	0.103447	-0.410400	-0.201416	0.653320	-56.500033	-85.445281	-161.188522
04272		8.183609	-0.775831	0.052980	0.730612	-0.107332	0.046010	-0.410400	-0.192139	0.647949	-56.937288	-85.458611	-160.327277
04273		8.366916	-0.582683	-0.227747	0.702257	-0.135741	-0.005009	-0.409180	-0.187012	0.658447	-57.380042	-85.504877	-159.476959
04274		8.441007	-0.591724	-0.500896	0.649674	-0.214055	-0.053353	-0.405762	-0.180908	0.653076	-58.160534	-85.597725	-158.318072
04275		8.496628	-0.706531	-0.903099	0.609239	-0.274028	-0.110625	-0.402588	-0.176025	0.656738	-59.187032	-85.735103	-156.935996
04276		8.508392	-0.821139	-1.051787	0.558435	-0.293119	-0.185360	-0.399414	-0.173828	0.659912	-60.149395	-85.913089	-155.647587
04277		8.594401	-0.832335	-1.063921	0.513035	-0.317525	-0.268551	-0.395020	-0.165039	0.655762	-61.096870	-86.137925	-154.400606
04278		8.686019	-0.714369	-1.131004	0.460734	-0.368368	-0.350440	-0.387207	-0.162109	0.662109	-62.260852	-86.416236	-152.966954
04279		8.902442	-0.494096	-1.442587	0.399698	-0.388030	-0.408237	-0.385498	-0.166504	0.660645	-63.616193	-86.727074	-151.377199
04280		9.015091	-0.494083	-1.762740	0.460980	-0.363617	-0.393331	-0.379150	-0.164307	0.656982	-65.048414	-87.021759	-149.675662
04281		9.117996	-0.685767	-1.394596	0.603868	-0.300496	-0.358447	-0.371826	-0.158447	0.654297	-66.222093	-87.281119	-148.151539
04282		9.359956	-0.881783	-0.744322	0.651742	-0.206304	-0.343187	-0.368164	-0.156494	0.651855	-66.553924	-87.509831	-147.442889
04283		9.805771	-0.980027	0.121040	0.566013	-0.107355	-0.336920	-0.366699	-0.145264	0.648438	-65.795258	-87.712456	-147.875051
04284		10.123400	-1.106271	0.914664	0.354609	-0.012291	-0.331988	-0.364990	-0.146484	0.639160	-63.710883	-87.888797	-149.754963
04285		9.676634	-1.357697	0.646550	0.187304	-0.054276	-0.337354	-0.364502	-0.143555	0.645752	-61.985051	-88.076351	-151.371899
04286		9.100465	-1.708124	-0.671183	0.279369	-0.277242	-0.359545	-0.366211	-0.144287	0.639404	-63.392053	-88.333661	-149.801396
04287		8.937305	-1.926222	-1.767540	0.511914	-0.374840	-0.335330	-0.355469	-0.142578	0.645508	-67.554267	-88.598939	-145.341715
04288		9.049776	-2.006985	-1.955940	0.665388	-0.380334	-0.300795	-0.351074	-0.141113	0.639648	-73.944933	-88.834891	-138.565460
04289		9.377455	-1.850028	-1.448212	0.657139	-0.342229	-0.325943	-0.348633	-0.127441	0.643311	-82.118133	-89.059093	-130.011749
04290		9.552869	-1.583799	-1.917479	0.562176	-0.440245	-0.446131	-0.343994	-0.136475	0.638184	-100.188106	-89.312813	-111.615223
04291		9.638688	-1.426879	-2.888146	0.406659	-0.707505	-0.628111	-0.330078	-0.128662	0.642822	-148.941094	-89.382650	-62.623861
04292		9.787891	-0.740548	-3.702678	0.393287	-0.998082	-0.688813	-0.330322	-0.128418	0.629395	176.218645	-88.894472	-27.552170
04293		9.700189	-0.164840	-4.277239	0.593574	-1.119956	-0.623820	-0.319824	-0.115967	0.643311	166.476272	-88.199660	-17.464049
04294		9.448952	-0.004968	-4.805388	0.821490	-1.144623	-0.532199	-0.313232	-0.117920	0.638916	163.637653	-87.484273	-14.149791
04295		9.587549	-0.170259	-5.169631	1.040584	-1.078255	-0.425523	-0.303467	-0.113525	0.634033	163.131113	-86.818622	-13.043037
04296		10.192933	-0.360392	-4.852426	1.329133	-0.707737	-0.287350	-0.302246	-0.102783	0.642578	163.231383	-86.380028	-12.377932
04297		11.003314	0.206828	-4.174376	1.509872	-0.244520	-0.177173	-0.292236	-0.099365	0.632568	163.253738	-86.212545	-11.530747
04298		12.110238	0.557191	-2.547074	1.578253	0.384622	-0.113963	-0.295898	-0.085205	0.625977	162.193756	-86.400821	-9.559733
04299		12.170762	0.339951	1.630109	1.614868	1.137901	-0.018338	-0.305176	-0.069336	0.616455	159.250400	-87.009069	-5.682083
04300		10.428404	0.067131	6.135864	1.278993	0.626028	-0.035264	-0.307373	-0.067627	0.614014	156.919126	-87.331698	-2.611600
04301		12.704323	1.565869	2.643898	1.177297	-0.059535	-0.008508	-0.309814	-0.065186	0.614258	157.833306	-87.294681	-2.848840
04302		15.719640	4.787811	5.023064	1.476315	0.724207	0.309113	-0.316406	-0.055420	0.602295	158.982494	-87.742959	-3.149771
04303		17.642080	9.126102	11.849684	1.377536	1.312486	0.782518	-0.325684	-0.040771	0.590088	166.173606	-88.592346	-9.552047
04304		15.447920	8.069019	11.381787	0.588528	0.277018	1.109869	-0.326172	-0.034912	0.591553	-165.775496	-88.750549	-37.270211
04305		12.073510	2.595727	8.249462	-0.380774	-0.741817	0.984267	-0.323242	-0.031006	0.591553	-152.193944	-88.143733	-51.072121
04306		10.338282	-3.571372	8.336425	-1.202370	-0.986766	0.744137	-0.308594	-0.042480	0.593750	-150.279309	-87.440241	-53.674887
04307		11.794755	-8.370719	4.558568	-1.757104	-1.198736	0.240645	-0.313477	-0.048584	0.591553	-155.108814	-86.763375	-49.844687
04308		12.421494	-8.805352	-2.784527	-1.178978	-0.539650	-0.300527	-0.308105	-0.057129	0.593506	-160.522454	-86.539209	-45.095796
04309		11.318504	-5.312756	-4.216361	0.505829	0.259795	-0.492429	-0.307861	-0.051758	0.588379	-164.053278	-86.763813	-41.266038
04310		11.403005	-1.274599	-1.089944	1.937099	0.633022	-0.350274	-0.323242	-0.049805	0.578125	-164.762752	-87.164352	-39.441466
04311		12.135188	1.919829	3.571163	2.054187	1.025643	0.005775	-0.331299	-0.036865	0.573730	-159.474272	-87.719687	-43.554453
04312		12.864207	3.590949	4.836198	1.307188	1.084464	0.336396	-0.331787	-0.032715	0.563721	-145.983029	-88.183950	-56.302030
04313		12.504065	4.270284	3.616366	0.799978	0.766890	0.527928	-0.338867	-0.022217	0.562256	-128.550916	-88.300054	-73.281097
04314		11.222467	3.871281	1.423360	0.540009	0.290697	0.433577	-0.334717	-0.020752	0.559082	-119.286843	-88.184897	-82.237291
04315		10.676602	3.929432	1.326714	0.459899	0.181321	0.182466	-0.336914	-0.020020	0.558350	-114.725937	-88.137124	-86.534328
04316		9.953517	3.785037	2.557549	0.162767	-0.005827	-0.081929	-0.342529	-0.020264	0.552002	-115.424617	-88.177020	-85.739310
04317		9.664130	3.138881	1.978110	-0.279028	-0.312991	-0.327151	-0.334717	-0.021484	0.550049	-123.621021	-88.250296	-77.696284
04318		9.608474	2.363431	0.287839	-0.365498	-0.287504	-0.475466	-0.339111	-0.025635	0.561279	-134.021176	-88.357899	-67.498436
04319		9.055975	1.752160	-0.239877	-0.069211	0.048610	-0.537893	-0.339355	-0.039551	0.548828	-142.004029	-88.583224	-59.549815
04320		8.493286	1.129655	0.826979	0.200533	0.264640	-0.505420	-0.344238	-0.037598	0.538574	-148.820595	-88.870586	-52.613997
04321		8.452588	0.567015	1.739229	0.136827	0.247168	-0.421726	-0.338623	-0.041748	0.540283	-157.371392	-89.104513	-43.980858
04322		8.925858	0.568289	1.730927	-0.233874	0.129394	-0.326979	-0.339844	-0.034424	0.548584	-168.385160	-89.228304	-33.097283
04323		9.387832	0.921578	1.101942	-0.529425	0.065336	-0.241356	-0.345215	-0.046631	0.537109	-178.939242	-89.278498	-22.843057
04324		9.150872	0.938710	0.584344	-0.540295	0.089963	-0.183291	-0.344482	-0.056641	0.535645	171.924728	-89.320741	-14.013269
04325		8.739753	0.855871	0.440959	-0.463679	0.130851	-0.188170	-0.346680	-0.054932	0.540527	161.026920	-89.366274	-3.377817
04326		8.413979	1.110446	0.649141	-0.456186	0.220177	-0.215073	-0.353271	-0.061035	0.541260	145.062615	-89.420766	12.328648
04327		8.447952	1.496837	1.363426	-0.560976	0.292492	-0.236217	-0.345459	-0.060303	0.528320	123.236866	-89.439074	33.836643
04328		8.674626	1.577449	1.737238	-0.770842	0.272930	-0.240248	-0.350342	-0.071777	0.522949	103.832717	-89.373227	52.802797
04329		9.160842	1.403425	1.427243	-0.925910	0.163414	-0.263082	-0.353760	-0.075684	0.524414	93.932412	-89.237949	62.175896
04330		9.366742	1.050357	1.234732	-0.813076	0.072613	-0.280357	-0.354980	-0.086182	0.523682	90.421347	-89.078817	65.224096
04331		9.045134	0.977077	0.675929	-0.701510	-0.050577	-0.302076	-0.355225	-0.083740	0.521729	91.622717	-88.905156	63.623170
04332		8.838082	1.058965	0.097758	-0.610219	-0.135646	-0.319379	-0.353760	-0.093750	0.525635	94.672566	-88.717903	60.225633
04333		8.580594	1.108842	0.198862	-0.561745	-0.159716	-0.289473	-0.347656	-0.096436	0.527832	97.516858	-88.542894	57.061211
04334		8.234582	1.317967	-0.155021	-0.599562	-0.246902	-0.246597	-0.346924	-0.100342	0.514404	101.603063	-88.379439	52.632558
04335		8.216771	1.581186	-0.777664	-0.598539	-0.270033	-0.200415	-0.358398	-0.101563	0.518555	105.510560	-88.230805	48.382898
04336		8.287183	1.755112	-0.605641	-0.527810	-0.209874	-0.143414	-0.354248	-0.105713	0.519287	108.161312	-88.116420	45.430905
04337		8.237069	1.803112	0.065273	-0.521488	-0.206912	-0.104510	-0.356201	-0.112061	0.513428	110.652836	-88.019602	42.641646
04338		8.374456	1.991237	0.319870	-0.653001	-0.309146	-0.093860	-0.350586	-0.116455	0.515625	114.373564	-87.900884	38.546853
04339		8.540162	2.116086	0.158128	-0.794430	-0.374685	-0.084483	-0.344238	-0.122070	0.514648	118.479946	-87.760659	33.984680
04340		8.526121	1.892944	0.313455	-0.865865	-0.396681	-0.046936	-0.336426	-0.128418	0.519287	122.565553	-87.620446	29.401922
04341		8.472392	1.563188	0.183025	-0.947952	-0.417985	-0.023053	-0.343506	-0.133057	0.514404	126.495089	-87.472171	24.927808
04342		8.531341	1.233527	0.134474	-0.972887	-0.386449	-0.005022	-0.339600	-0.141113	0.510986	129.789362	-87.331257	21.074825
04343		8.588027	0.916698	0.049944	-0.956730	-0.361555	0.014210	-0.336182	-0.141602	0.512939	132.649232	-87.199090	17.665566
04344		8.662861	0.752230	0.198087	-0.944051	-0.328787	0.046898	-0.343262	-0.152344	0.511475	135.243695	-87.085620	14.528972
04345		8.865516	0.680533	0.171872	-1.010672	-0.303087	0.096266	-0.346680	-0.159668	0.507813	137.778122	-86.995711	11.413979
04346		9.193984	0.508550	-0.038194	-1.071254	-0.188285	0.159728	-0.338379	-0.159424	0.510986	139.858800	-86.972561	8.718454
04347		9.306533	-0.203751	0.284034	-1.138648	-0.071210	0.212770	-0.337891	-0.167480	0.503418	141.519296	-87.016320	6.405038
04348		9.697401	-1.029374	0.583485	-1.141106	-0.025298	0.253582	-0.333740	-0.173584	0.503418	143.311222	-87.091144	3.958741
04349		10.222236	-1.779365	-0.092288	-1.039994	-0.075716	0.277358	-0.333496	-0.174072	0.502197	145.810664	-87.146046	0.862168
04350		10.873298	-1.866108	-0.979009	-0.792616	-0.070889	0.267745	-0.344727	-0.180420	0.507813	148.442743	-87.192757	-2.225144
04351		11.272341	-1.572742	-0.776436	-0.432336	0.047787	0.284225	-0.352295	-0.183105	0.495850	150.849987	-87.296757	-4.880518
04352		11.279267	-0.908035	-0.004667	-0.152634	0.209291	0.289699	-0.344482	-0.179443	0.488037	152.759304	-87.478316	-6.876692
04353		11.144575	-0.540347	0.740878	-0.017707	0.366712	0.302146	-0.343262	-0.176514	0.489746	154.238430	-87.741644	-8.364610
04354		11.136816	-0.647615	1.234595	-0.027373	0.408844	0.284821	-0.344971	-0.186279	0.494873	155.566838	-88.020369	-9.706946
04355		11.342420	-0.901733	1.323436	-0.057132	0.383401	0.277980	-0.344727	-0.180176	0.487305	157.368412	-88.283451	-11.539563
04356		11.228175	-1.105038	1.571456	-0.058072	0.330997	0.273643	-0.353271	-0.178711	0.483398	160.144504	-88.514367	-14.347349
04357		10.639943	-1.020583	1.905470	-0.053680	0.178523	0.244715	-0.358154	-0.173584	0.486084	164.277569	-88.652767	-18.509802
04358		10.056541	-0.772274	1.616445	-0.038637	-0.025674	0.193319	-0.358887	-0.178467	0.487305	169.028664	-88.661193	-23.281676
04359		9.538676	-0.357468	0.942370	0.013498	-0.139309	0.121637	-0.348633	-0.185059	0.475342	172.458305	-88.591696	-26.701934
04360		9.193060	0.100092	0.433320	0.092365	-0.108080	0.081746	-0.353271	-0.177002	0.481201	174.656815	-88.532512	-28.845529
04361		8.946095	0.538331	0.344701	0.115152	-0.015033	0.069843	-0.349121	-0.183105	0.471191	176.312790	-88.525194	-30.433420
04362		8.760214	0.906191	0.456538	0.077031	0.041318	0.081873	-0.363281	-0.180420	0.479492	178.153513	-88.548199	-32.227924
04363		8.643339	1.142836	0.517740	0.022603	0.047491	0.101142	-0.353516	-0.180908	0.481689	-179.535426	-88.574245	-34.524122
04364		8.651304	1.123452	0.712333	-0.032070	0.050684	0.118129	-0.358643	-0.179932	0.480225	-176.776993	-88.598192	-37.299106
04365		8.750769	0.836168	0.859663	-0.083067	0.065102	0.127164	-0.353516	-0.185303	0.478760	-173.703262	-88.627507	-40.418700
04366		8.905519	0.342860	0.875719	-0.116526	0.066462	0.123703	-0.353760	-0.182129	0.477539	-170.608285	-88.652689	-43.578663
04367		9.190387	-0.131366	0.777544	-0.131369	0.058975	0.106314	-0.360107	-0.183838	0.483398	-167.863972	-88.672772	-46.396362
04368		9.522172	-0.489012	0.759138	-0.110992	0.077111	0.094507	-0.364258	-0.179688	0.481201	-165.210034	-88.700318	-49.111939
04369		9.787772	-0.628856	0.744936	-0.075861	0.107206	0.076226	-0.356201	-0.179688	0.476074	-162.628876	-88.745591	-51.734564
04370		10.111466	-0.632129	0.823755	-0.042826	0.116955	0.058661	-0.361084	-0.183838	0.485107	-160.215641	-88.795664	-54.170228
04371		10.287295	-0.590189	0.853435	-0.023597	0.093229	0.047000	-0.366211	-0.185059	0.474609	-158.121691	-88.834434	-56.275500
04372		10.430933	-0.589727	0.819277	-0.027822	0.054429	0.042930	-0.357422	-0.190186	0.475586	-156.472713	-88.851040	-57.938090
04373		10.400492	-0.550029	0.711739	-0.034847	0.042914	0.041881	-0.362305	-0.183594	0.466309	-154.921637	-88.862059	-59.506800
04374		10.208325	-0.555370	0.563296	-0.031521	0.011963	0.038264	-0.362061	-0.190186	0.473389	-153.860001	-88.856153	-60.584042
04375		10.010160	-0.461015	0.227944	-0.025209	-0.055190	0.031622	-0.357178	-0.184570	0.473389	-153.792358	-88.818309	-60.663503
04376		10.044011	-0.412607	-0.026775	0.005084	-0.066268	0.023676	-0.360840	-0.184570	0.468994	-154.063308	-88.775642	-60.386911
04377		10.039752	-0.326569	0.037948	0.041434	-0.001526	0.029630	-0.365234	-0.185303	0.471436	-153.377488	-88.765870	-61.046502
04378		9.977350	-0.304521	0.056746	0.064848	0.056325	0.034297	-0.361328	-0.184082	0.472168	-151.892230	-88.782929	-62.492268
04379		9.854295	-0.361474	0.117283	0.070032	0.075842	0.034824	-0.367432	-0.183350	0.467773	-150.050897	-88.809809	-64.291233
04380		9.793779	-0.372029	0.202685	0.074706	0.100541	0.028000	-0.368164	-0.186279	0.477051	-147.955484	-88.848454	-66.341603
04381		9.724820	-0.362336	0.380637	0.090282	0.150187	0.011444	-0.363037	-0.183838	0.478760	-145.236087	-88.915325	-69.007141
04382		9.785365	-0.205916	0.618327	0.120906	0.203523	0.011442	-0.364258	-0.181396	0.475342	-141.126183	-89.002490	-73.045767
04383		9.903201	-0.073770	0.905009	0.125218	0.247125	0.030005	-0.358398	-0.183105	0.473877	-134.622156	-89.094904	-79.476295
04384		9.768139	-0.085694	0.789728	0.080752	0.222931	0.048933	-0.366455	-0.181152	0.474365	-127.188261	-89.155597	-86.862111
04385		9.652485	-0.154905	0.522874	0.038438	0.170676	0.071389	-0.367920	-0.180176	0.459473	-120.102734	-89.174861	-93.923725
04386		9.599260	-0.260180	0.487969	0.010092	0.166007	0.087177	-0.367432	-0.186035	0.478027	-112.829343	-89.171259	-101.189420
04387		9.605171	-0.422642	0.558821	0.004353	0.175485	0.083582	-0.366943	-0.173584	0.466064	-105.324728	-89.158280	-108.689697
04388		9.616196	-0.546279	0.669236	0.011483	0.167594	0.056334	-0.377441	-0.181152	0.465820	-98.703641	-89.146101	-115.302259
04389		9.608566	-0.555311	0.583793	0.015911	0.140824	0.033399	-0.376465	-0.185059	0.462646	-93.305525	-89.135267	-120.689226
04390		9.604538	-0.428440	0.351259	0.011759	0.088668	0.035470	-0.372070	-0.175293	0.470459	-90.118454	-89.116406	-123.867262
04391		9.695270	-0.285164	0.161350	0.007937	0.053300	0.036559	-0.374023	-0.182129	0.464355	-88.269141	-89.094960	-125.709615
04392		9.788815	-0.184608	0.222487	-0.001986	0.081003	0.040394	-0.381104	-0.184814	0.469971	-85.632270	-89.069557	-128.345294
04393		9.841860	-0.155403	0.405358	-0.017056	0.112656	0.027487	-0.374268	-0.177490	0.463623	-81.929287	-89.046964	-132.055914
04394		9.831716	-0.225972	0.498165	-0.034753	0.127677	0.015983	-0.370117	-0.177734	0.464355	-77.928892	-89.025680	-136.074120
04395		9.758223	-0.292773	0.475711	-0.050325	0.115368	0.013127	-0.370605	-0.187012	0.472656	-74.412961	-89.002826	-139.616772
04396		9.710585	-0.322316	0.412292	-0.067562	0.089509	0.020656	-0.383545	-0.184082	0.459717	-72.014639	-88.977546	-142.051513
04397		9.715598	-0.375253	0.452711	-0.085151	0.095251	0.024712	-0.372070	-0.181641	0.455566	-69.551262	-88.946589	-144.561454
04398		9.668579	-0.416278	0.579538	-0.075627	0.112915	0.032173	-0.374023	-0.175293	0.467773	-66.893819	-88.906563	-147.260034
04399		9.641890	-0.495841	0.528935	-0.081175	0.099351	0.029404	-0.375977	-0.182373	0.455078	-64.690128	-88.868336	-149.508023
04400		9.703438	-0.426935	0.340455	-0.093057	0.072519	0.037773	-0.377930	-0.186768	0.466553	-63.479696	-88.832006	-150.769359
04401		9.754876	-0.334717	0.399730	-0.111010	0.075233	0.057579	-0.373779	-0.187012	0.453613	-62.479928	-88.783567	-151.830327
04402		9.801232	-0.368612	0.411535	-0.136555	0.079473	0.061307	-0.380127	-0.194336	0.454346	-61.578240	-88.732575	-152.807816
04403		9.779798	-0.359108	0.466360	-0.147917	0.072813	0.055247	-0.387207	-0.174561	0.456055	-60.774279	-88.685293	-153.694119
04404		9.690785	-0.447811	0.485547	-0.157608	0.055162	0.047534	-0.380615	-0.187256	0.464355	-60.362538	-88.647496	-154.193630
04405		9.654179	-0.443428	0.396028	-0.159247	0.041272	0.037207	-0.384277	-0.183838	0.456543	-60.089552	-88.617821	-154.555326
04406		9.602161	-0.423364	0.293848	-0.169907	0.034309	0.035304	-0.377197	-0.182861	0.461426	-60.002443	-88.591957	-154.737171
04407		9.602055	-0.410116	0.266101	-0.166944	0.032027	0.026371	-0.386475	-0.188232	0.452148	-59.813206	-88.570247	-155.019512
04408		9.632953	-0.442928	0.291668	-0.171740	0.032663	0.029508	-0.385010	-0.187256	0.459961	-59.703997	-88.547705	-155.224518
04409		9.622621	-0.431749	0.223642	-0.179495	0.047577	0.025602	-0.381592	-0.190918	0.458496	-59.228972	-88.521782	-155.799941
04410		9.648491	-0.413434	0.220338	-0.178808	0.061022	0.026471	-0.375000	-0.189453	0.454590	-58.575574	-88.492263	-156.553376
04411		9.715590	-0.423082	0.281603	-0.181647	0.056951	0.034872	-0.390137	-0.181885	0.456055	-58.077067	-88.458702	-157.153540
04412		9.803659	-0.448744	0.294437	-0.189169	0.052475	0.038915	-0.378906	-0.185303	0.451660	-57.771447	-88.425411	-157.565030
04413		9.792666	-0.489724	0.317687	-0.181756	0.049727	0.047250	-0.377930	-0.191406	0.450684	-57.575100	-88.387881	-157.862999
04414		9.740521	-0.503145	0.276038	-0.167900	0.034671	0.045622	-0.386719	-0.191162	0.453369	-57.656813	-88.356748	-157.874822
04415		9.740491	-0.490875	0.248108	-0.167055	0.024711	0.044659	-0.383545	-0.199707	0.459473	-57.853596	-88.328119	-157.771080
04416		9.777388	-0.421029	0.193679	-0.152747	0.029734	0.046932	-0.389404	-0.197021	0.453857	-58.016074	-88.297854	-157.693418
04417		9.776862	-0.372765	0.266840	-0.141858	0.041214	0.043140	-0.376953	-0.197754	0.450684	-57.909115	-88.264928	-157.879109
04418		9.802842	-0.286197	0.303696	-0.143265	0.046230	0.047005	-0.390137	-0.193848	0.447754	-57.803796	-88.229603	-158.063930
04419		9.771630	-0.331199	0.244307	-0.147524	0.043186	0.049541	-0.382813	-0.201172	0.447510	-57.743025	-88.192949	-158.206664
04420		9.736220	-0.307121	0.124085	-0.155508	0.029837	0.046828	-0.383789	-0.189453	0.446533	-57.900623	-88.162707	-158.135461
04421		9.699755	-0.334664	0.092147	-0.148475	0.017850	0.045981	-0.387695	-0.190430	0.452881	-58.187843	-88.135487	-157.930571
04422		9.745795	-0.384506	0.127041	-0.151213	0.011760	0.039205	-0.384033	-0.194092	0.444580	-58.531658	-88.114378	-157.670588
04423		9.718113	-0.462233	0.224606	-0.160076	0.022839	0.039329	-0.387451	-0.190918	0.447510	-58.679200	-88.088858	-157.612097
04424		9.707881	-0.467254	0.184783	-0.154806	0.017587	0.027871	-0.384277	-0.191895	0.452637	-58.829014	-88.071511	-157.548277
04425		9.702207	-0.522931	0.173598	-0.131325	0.001300	0.019926	-0.390625	-0.195313	0.449707	-59.098099	-88.061860	-157.351690
04426		9.692743	-0.438772	0.142964	-0.104552	-0.013215	0.013072	-0.388916	-0.198975	0.445313	-59.534016	-88.060791	-156.972792
04427		9.724127	-0.383320	0.175047	-0.080529	-0.020978	0.009414	-0.383057	-0.192871	0.446777	-60.006107	-88.062674	-156.543963
04428		9.719235	-0.350011	0.172600	-0.069042	-0.027287	0.005754	-0.381592	-0.194824	0.448730	-60.567799	-88.069025	-156.018861
04429		9.729315	-0.349496	0.210975	-0.060893	-0.023195	0.005871	-0.380615	-0.196289	0.454102	-61.035409	-88.073038	-155.583262
04430		9.756047	-0.310948	0.171736	-0.060133	-0.024855	-0.000059	-0.385498	-0.194824	0.453613	-61.514188	-88.081334	-155.136017
04431		9.750513	-0.363994	0.157352	-0.058673	-0.026914	-0.001801	-0.387451	-0.203125	0.451904	-61.979852	-88.089986	-154.701095
04432		9.782141	-0.358972	0.117439	-0.058845	-0.029855	-0.004078	-0.383789	-0.191650	0.448242	-62.510396	-88.101398	-154.201322
04433		9.756321	-0.361811	0.091681	-0.044604	-0.031362	-0.011118	-0.391113	-0.197266	0.447021	-62.972569	-88.115710	-153.761833
04434		9.734663	-0.433789	0.125066	-0.033135	-0.026128	-0.014963	-0.384277	-0.201416	0.450439	-63.357245	-88.131455	-153.393277
04435		9.699122	-0.418822	0.029643	-0.022928	-0.016831	-0.022391	-0.382568	-0.197998	0.444580	-63.501707	-88.147644	-153.259249
04436		9.792018	-0.491133	0.065941	0.007386	0.000324	-0.016411	-0.385986	-0.197754	0.453125	-63.439660	-88.157298	-153.314425
04437		9.848812	-0.516690	0.110876	0.023222	0.000640	-0.015325	-0.397217	-0.208252	0.452881	-63.336992	-88.165386	-153.401202
04438		9.807960	-0.485260	0.046856	0.054475	-0.019382	-0.022292	-0.389404	-0.201172	0.450928	-63.516572	-88.183102	-153.187634
04439		9.839862	-0.408527	0.049704	0.082713	-0.023761	-0.026013	-0.390625	-0.185059	0.441162	-63.690274	-88.202899	-152.963801
04440		9.762841	-0.329467	-0.007294	0.103371	-0.009576	-0.026098	-0.385498	-0.203369	0.451904	-63.656486	-88.220048	-152.935680
04441		9.741558	-0.330625	0.070224	0.116039	-0.008085	-0.023885	-0.380859	-0.193115	0.449707	-63.573410	-88.234765	-152.949650
04442		9.788264	-0.356468	0.073694	0.115970	-0.007776	-0.021413	-0.389160	-0.205322	0.454102	-63.540601	-88.249054	-152.913328
04443		9.798606	-0.405032	0.043729	0.119519	-0.000763	-0.020948	-0.393555	-0.206543	0.450439	-63.355668	-88.260394	-153.027208
04444		9.788861	-0.386420	-0.026476	0.130744	0.001518	-0.027152	-0.381592	-0.192871	0.446533	-63.106062	-88.275226	-153.199314
04445		9.747482	-0.319949	0.011339	0.148115	0.002082	-0.030725	-0.386230	-0.198975	0.456787	-62.766395	-88.290787	-153.451607
04446		9.742294	-0.299761	0.041280	0.148304	-0.008125	-0.040968	-0.384521	-0.196533	0.447021	-62.541042	-88.315135	-153.589380
04447		9.772475	-0.378216	0.153382	0.158330	0.001779	-0.043533	-0.387207	-0.195801	0.455566	-62.071992	-88.337199	-153.965250
04448		9.741418	-0.360864	0.161496	0.153681	0.004683	-0.043234	-0.379639	-0.191895	0.448242	-61.582020	-88.359165	-154.364667
04449		9.731952	-0.324123	0.060930	0.146003	-0.012656	-0.028556	-0.382813	-0.194824	0.457764	-61.498943	-88.377479	-154.361468
04450		9.825469	-0.307875	0.109195	0.143489	-0.010540	-0.013128	-0.384277	-0.196777	0.453369	-61.565086	-88.388379	-154.210383
04451		9.799861	-0.293793	0.056650	0.149280	-0.002012	-0.000451	-0.378174	-0.193848	0.451660	-61.562610	-88.389635	-154.124673
04452		9.794273	-0.294102	0.116455	0.144478	-0.001396	0.002684	-0.380371	-0.188477	0.448730	-61.618633	-88.390069	-153.983146
04453		9.752895	-0.283177	0.082128	0.133278	-0.016197	0.001538	-0.379883	-0.197021	0.450195	-61.900100	-88.394164	-153.622552
04454		9.747849	-0.249106	0.080362	0.124373	-0.019275	0.002295	-0.385498	-0.196045	0.453613	-62.288125	-88.399556	-153.160417
04455		9.732378	-0.234204	0.067058	0.108276	-0.024870	0.001885	-0.387207	-0.193115	0.449951	-62.749775	-88.405640	-152.633903
04456		9.731906	-0.268135	0.125357	0.090884	-0.015255	-0.004963	-0.388428	-0.199463	0.453613	-63.021205	-88.413504	-152.307607
04457		9.778402	-0.312510	0.158599	0.084708	-0.013228	-0.005093	-0.383789	-0.189453	0.446045	-63.222847	-88.419990	-152.054711
04458		9.746981	-0.315994	0.195048	0.085905	-0.006058	-0.004344	-0.383545	-0.191650	0.455566	-63.336642	-88.425105	-151.888966
04459		9.736806	-0.317719	0.153595	0.081735	-0.009082	-0.001702	-0.383545	-0.193359	0.459717	-63.497241	-88.428757	-151.678835
04460		9.711223	-0.234304	0.139374	0.071878	-0.027888	0.000916	-0.375977	-0.188965	0.446289	-64.080590	-88.436652	-151.051400
04461		9.726748	-0.249358	0.148612	0.069839	-0.022151	0.003179	-0.383057	-0.182373	0.459961	-64.543856	-88.440942	-150.545309
04462		9.737001	-0.247052	0.187790	0.061529	-0.018042	-0.001926	-0.380859	-0.191406	0.454102	-64.929074	-88.447617	-150.122013
04463		9.809677	-0.270586	0.213433	0.062001	-0.009481	0.002211	-0.386963	-0.185059	0.450684	-65.150403	-88.449175	-149.862442
04464		9.758012	-0.262504	0.137580	0.045249	-0.013679	0.005306	-0.384521	-0.192383	0.458984	-65.529038	-88.450920	-149.455064
04465		9.732081	-0.267133	0.113332	0.037386	-0.027040	0.002827	-0.379395	-0.184326	0.451904	-66.111482	-88.456184	-148.848355
04466		9.752623	-0.262498	0.192514	0.040286	-0.031204	-0.000628	-0.382813	-0.188721	0.451660	-66.788856	-88.464844	-148.144977
04467		9.762948	-0.259904	0.230823	0.037557	-0.025119	-0.002546	-0.380615	-0.193604	0.451904	-67.298477	-88.472165	-147.611024
04468		9.705158	-0.371911	0.264275	0.026925	-0.020863	-0.007267	-0.387939	-0.177246	0.455078	-67.736423	-88.481720	-147.154821
04469		9.705440	-0.461750	0.092510	0.028767	-0.029583	-0.011781	-0.391846	-0.195557	0.453369	-68.277396	-88.494663	-146.594547
04470		9.726774	-0.387806	0.050168	0.051900	-0.049269	-0.024566	-0.388428	-0.188965	0.451172	-69.161580	-88.519105	-145.677647
04471		9.784109	-0.339816	0.131511	0.072128	-0.026871	-0.030216	-0.379883	-0.185059	0.458252	-69.503588	-88.541035	-145.291563
04472		9.841686	-0.258204	0.154563	0.077221	-0.006366	-0.022123	-0.378662	-0.181396	0.457031	-69.523390	-88.555228	-145.224827
04473		9.826339	-0.170485	0.182029	0.073403	-0.003782	-0.017531	-0.379639	-0.190918	0.459229	-69.483700	-88.565689	-145.219838
04474		9.831461	-0.203011	0.183135	0.063083	0.007122	-0.012754	-0.383789	-0.180420	0.450439	-69.297439	-88.572141	-145.367332
04475		9.794806	-0.258650	0.211636	0.055679	0.013147	-0.016477	-0.383789	-0.187500	0.459961	-68.909296	-88.578585	-145.721062
04476		9.758665	-0.247004	0.118633	0.062233	-0.007415	-0.021356	-0.377441	-0.196045	0.456055	-68.962760	-88.592600	-145.629244
04477		9.732830	-0.178529	0.134493	0.067104	-0.016270	-0.019518	-0.389648	-0.197266	0.455322	-69.180372	-88.606690	-145.370486
04478		9.805930	-0.095532	0.138635	0.055580	-0.013258	-0.020535	-0.386963	-0.186523	0.454102	-69.379300	-88.621435	-145.136978
04479		9.722667	-0.106373	0.130520	0.035773	-0.004728	-0.016496	-0.385742	-0.186279	0.463135	-69.390444	-88.631548	-145.102705
04480		9.655154	-0.099161	0.072952	0.025086	-0.025104	-0.012548	-0.384277	-0.189697	0.448242	-69.949691	-88.644322	-144.526254
04481		9.743617	-0.119311	0.078921	0.012855	-0.021048	-0.012683	-0.381104	-0.185059	0.463379	-70.385199	-88.655549	-144.080634
04482		9.743643	-0.117878	0.077908	0.007193	0.000016	-0.016586	-0.380127	-0.185059	0.454590	-70.358065	-88.665498	-144.100984
04483		9.764539	-0.131741	0.029497	0.012085	-0.009552	-0.019786	-0.377930	-0.187012	0.443115	-70.477132	-88.678314	-143.972335
04484		9.800798	-0.155666	0.151928	0.014810	-0.016349	-0.022929	-0.385742	-0.184326	0.462891	-70.780403	-88.694804	-143.657828
04485		9.769721	-0.177987	0.057737	0.007641	-0.019244	-0.026569	-0.376953	-0.185303	0.460205	-71.086296	-88.713086	-143.344852
04486		9.728177	-0.165511	0.021725	0.006409	-0.025346	-0.019722	-0.385254	-0.180908	0.454346	-71.657587	-88.729387	-142.767077
04487		9.749039	-0.125184	0.040396	-0.006323	-0.028443	-0.013860	-0.379395	-0.188965	0.458984	-72.324059	-88.742245	-142.101442
04488		9.681381	-0.096960	0.111394	-0.005436	-0.027225	-0.017567	-0.385742	-0.186279	0.464355	-72.995949	-88.757394	-141.429838
04489		9.676218	-0.077745	0.138376	-0.015165	-0.020705	-0.018370	-0.381592	-0.187256	0.453369	-73.464360	-88.771133	-140.967384
04490		9.749137	-0.049284	0.072251	-0.023061	-0.021840	-0.016086	-0.379639	-0.186279	0.449707	-74.047405	-88.784322	-140.394754
04491		9.769979	-0.079943	0.052241	-0.032570	-0.024231	-0.016827	-0.385498	-0.185303	0.455322	-74.652201	-88.797565	-139.805862
04492		9.790809	-0.093657	0.001201	-0.036471	-0.037231	-0.021651	-0.376221	-0.188477	0.450928	-75.642004	-88.815796	-138.834076
04493		9.749187	-0.098058	-0.006073	-0.037372	-0.038813	-0.020491	-0.384521	-0.184570	0.463867	-76.657243	-88.832688	-137.837413
04494		9.780436	-0.108645	-0.017069	-0.049067	-0.039156	-0.026238	-0.382568	-0.189941	0.456299	-77.740703	-88.852990	-136.779183
04495		9.775344	-0.176653	-0.000423	-0.052133	-0.036896	-0.017425	-0.379395	-0.190430	0.445801	-78.790705	-88.867179	-135.756221
04496		9.785863	-0.172330	0.037235	-0.048420	-0.027238	-0.017365	-0.375732	-0.193359	0.458740	-79.645751	-88.880442	-134.926089
04497		9.733856	-0.196268	0.020262	-0.043043	-0.028930	-0.021520	-0.380859	-0.193359	0.454834	-80.486508	-88.895510	-134.107213
04498		9.739166	-0.228093	0.018095	-0.037665	-0.030620	-0.025676	-0.375488	-0.194336	0.463623	-81.440229	-88.913278	-133.172233
04499		9.697474	-0.215288	-0.019065	-0.028109	-0.040112	-0.027140	-0.381104	-0.184570	0.451904	-82.639871	-88.931867	-131.985859
04500		9.723342	-0.174379	-0.062278	-0.013833	-0.061782	-0.031553	-0.376709	-0.187988	0.457031	-84.599197	-88.954120	-130.031458
04501		9.738721	-0.152840	-0.117598	0.004361	-0.069743	-0.026059	-0.376953	-0.196777	0.455322	-86.828221	-88.971896	-127.796942
04502		9.754387	-0.094570	-0.073352	0.011709	-0.063864	-0.020201	-0.370117	-0.184814	0.450195	-89.008636	-88.984927	-125.606803
04503		9.754572	-0.108990	-0.049069	0.001205	-0.057384	-0.027711	-0.370361	-0.192871	0.461426	-90.972259	-89.000586	-123.639559
04504		9.775398	-0.067803	-0.033619	-0.010095	-0.062603	-0.023588	-0.373047	-0.191650	0.447021	-93.238759	-89.012697	-121.375834
04505		9.791129	-0.080335	-0.028701	-0.015287	-0.070192	-0.021960	-0.379883	-0.184326	0.465820	-95.738158	-89.021741	-118.882200
04506		9.786072	-0.060912	-0.006233	-0.018531	-0.071636	-0.020437	-0.365234	-0.191162	0.451904	-98.393450	-89.027985	-116.234474
04507		9.755774	-0.096497	0.084604	-0.017104	-0.073365	-0.019670	-0.373535	-0.189453	0.457031	-101.057410	-89.031489	-113.577305
04508		9.708799	-0.137615	0.033585	-0.010826	-0.085004	-0.024723	-0.369385	-0.182129	0.463379	-104.227877	-89.034044	-110.409921
04509		9.729642	-0.167097	0.007404	0.006547	-0.081792	-0.028875	-0.364502	-0.185303	0.460449	-107.261967	-89.036580	-107.369020
04510		9.724715	-0.147133	0.029142	0.007609	-0.076877	-0.025293	-0.367676	-0.196533	0.455078	-110.174545	-89.035265	-104.449000
04511		9.693560	-0.132237	0.028830	0.007113	-0.084046	-0.019368	-0.375244	-0.194824	0.464844	-113.146676	-89.026968	-101.469739
04512		9.714816	-0.179152	0.032356	0.001883	-0.091998	-0.020293	-0.375244	-0.192139	0.464600	-116.382881	-89.014250	-98.229314
04513		9.761107	-0.100536	0.006372	0.012308	-0.087291	-0.015712	-0.368896	-0.189453	0.463623	-119.247478	-88.997879	-95.354603
04514		9.818624	-0.107302	0.013230	0.018386	-0.065507	-0.011224	-0.368652	-0.197021	0.460449	-121.400118	-88.983036	-93.188425
04515		9.843913	-0.067717	-0.031637	0.007511	-0.064290	-0.018092	-0.372559	-0.187012	0.456299	-123.520609	-88.970910	-91.060660
04516		9.801697	-0.055568	-0.071778	0.004225	-0.078348	-0.023889	-0.375244	-0.189209	0.464844	-126.115664	-88.954878	-88.460091
04517		9.832832	-0.066022	-0.087659	0.008914	-0.089820	-0.021878	-0.364746	-0.194336	0.458740	-128.804647	-88.932310	-85.762912
04518		9.812438	-0.118861	-0.086877	0.008750	-0.079706	-0.032339	-0.369141	-0.194336	0.457275	-131.410956	-88.915208	-83.148461
04519		9.765308	-0.088840	-0.098161	0.004174	-0.078005	-0.021430	-0.376465	-0.191162	0.463867	-133.621439	-88.892733	-80.932550
04520		9.729035	-0.127592	-0.107584	-0.004834	-0.072199	-0.020463	-0.366699	-0.192627	0.461914	-135.657660	-88.869987	-78.896042
04521		9.755809	-0.208799	-0.101668	-0.002080	-0.066020	-0.013831	-0.370605	-0.190430	0.455322	-137.304481	-88.846617	-77.247455
04522		9.729340	-0.212118	-0.129887	0.010303	-0.067402	-0.014158	-0.369873	-0.185303	0.464111	-138.955138	-88.821129	-75.587883
04523		9.744805	-0.137842	-0.116172	0.033635	-0.068438	-0.015583	-0.360352	-0.189209	0.461182	-140.525859	-88.795516	-73.994915
04524		9.717529	-0.124455	-0.174578	0.043887	-0.066697	-0.013278	-0.371094	-0.189453	0.462158	-141.988275	-88.768223	-72.504349
04525		9.759088	-0.116516	-0.178344	0.041532	-0.066563	-0.012907	-0.362061	-0.184570	0.458252	-143.337789	-88.740877	-71.128083
04526		9.784664	-0.093895	-0.193397	0.037554	-0.067330	-0.013020	-0.364990	-0.196533	0.462891	-144.682370	-88.711714	-69.758979
04527		9.831688	-0.120005	-0.196476	0.037706	-0.064707	-0.013329	-0.363525	-0.190430	0.463867	-145.899985	-88.684033	-68.516807
04528		9.822750	-0.171723	-0.152837	0.036842	-0.065936	-0.009640	-0.366699	-0.194824	0.466797	-147.042121	-88.653187	-67.350580
04529		9.806649	-0.156353	-0.170715	0.044236	-0.071932	-0.006103	-0.364258	-0.187988	0.454102	-148.099034	-88.618688	-66.265382
04530		9.759373	-0.128365	-0.181313	0.046844	-0.078732	-0.009392	-0.361084	-0.185059	0.473389	-149.279172	-88.580478	-65.055374
04531		9.738631	-0.095521	-0.170957	0.051855	-0.084951	-0.008011	-0.363770	-0.190918	0.471436	-150.405914	-88.539078	-63.895923
04532		9.723401	-0.096711	-0.159971	0.047299	-0.082414	-0.010064	-0.360352	-0.189941	0.463623	-151.512798	-88.498069	-62.758891
04533		9.740303	-0.127209	-0.125769	0.044475	-0.066697	-0.006796	-0.364502	-0.192139	0.463867	-152.317935	-88.464542	-61.925347
04534		9.750782	-0.106911	-0.121696	0.036117	-0.062659	-0.011728	-0.355957	-0.189941	0.464111	-153.172262	-88.433137	-61.047337
04535		9.746213	-0.088241	-0.098836	0.041606	-0.072909	-0.013493	-0.359375	-0.181396	0.468994	-154.089173	-88.397479	-60.103593
04536		9.734552	-0.090107	-0.146394	0.045623	-0.071421	-0.008370	-0.352539	-0.183105	0.464844	-154.881058	-88.360008	-59.282570
04537		9.728942	-0.055232	-0.153763	0.032147	-0.063072	-0.009321	-0.363525	-0.188965	0.476074	-155.571330	-88.327755	-58.570949
04538		9.703272	-0.075882	-0.150528	0.020356	-0.053452	-0.007238	-0.362305	-0.186768	0.468994	-156.151963	-88.298867	-57.975728
04539		9.744869	-0.068385	-0.153561	0.012445	-0.054985	-0.007378	-0.362305	-0.192139	0.473145	-156.710260	-88.269993	-57.407411
04540		9.748098	-0.068639	-0.218262	0.006705	-0.047731	-0.007889	-0.358887	-0.192139	0.471436	-157.230125	-88.243934	-56.880792
04541		9.733016	-0.069939	-0.203587	0.006930	-0.044739	-0.005639	-0.353516	-0.190186	0.463135	-157.655463	-88.219803	-56.448644
04542		9.773464	-0.046120	-0.236005	0.001581	-0.043417	-0.003925	-0.364014	-0.186768	0.469971	-158.053797	-88.194933	-56.046539
04543		9.752861	-0.013678	-0.221961	0.004645	-0.044236	-0.002698	-0.370117	-0.188965	0.468994	-158.405691	-88.170262	-55.689168
04544		9.773251	-0.045407	-0.244837	-0.001175	-0.048902	-0.005500	-0.352783	-0.181641	0.468994	-158.845759	-88.142628	-55.246877
04545		9.781839	-0.080045	-0.308355	-0.007219	-0.046537	-0.002890	-0.362305	-0.189453	0.463623	-159.201590	-88.116610	-54.892356
04546		9.797837	-0.094286	-0.301797	-0.012621	-0.045582	-0.003713	-0.351807	-0.188477	0.469971	-159.575523	-88.090210	-54.522784
04547		9.776485	-0.132883	-0.326920	-0.011369	-0.049934	-0.002685	-0.360107	-0.185059	0.466797	-159.930884	-88.062175	-54.171103
04548		9.800616	-0.094768	-0.371306	-0.007740	-0.054060	0.000464	-0.359131	-0.197266	0.470459	-160.264107	-88.030242	-53.839453
04549		9.814100	-0.076162	-0.425598	-0.016359	-0.043359	-0.001531	-0.354736	-0.185059	0.464600	-160.548308	-88.005396	-53.561823
04550		9.799031	-0.078152	-0.410154	-0.016390	-0.033700	0.003604	-0.363770	-0.188232	0.471924	-160.710501	-87.983769	-53.406257
