// General information: 
//  MT Manager version: 2022.2.0 
//  XDA version: 2022.2.0 build 7381 rev 124627 built on 2023-07-19
// Device information: 
//  DeviceId: 00B4BCF6
//  ProductCode: MTW2-3A7G6
//  Firmware Version: 4.6.0
//  Hardware Version: 2.0.0
// Device settings: 
//  Filter Profile: human(46.1)
//  Option Flags: Orientation Smoother Disabled, Position/Velocity Smoother Disabled, Continuous Zero Rotation Update Disabled, AHS Disabled, ICC Disabled
// Coordinate system: ENU
PacketCounter	SampleTimeFine	Acc_X	Acc_Y	Acc_Z	Gyr_X	Gyr_Y	Gyr_Z	Mag_X	Mag_Y	Mag_Z	Roll	Pitch	Yaw
15057		-5.442582	0.261117	8.192060	-0.000982	0.009863	-0.003602	0.079102	-0.100586	-0.747314	1.810436	33.494415	136.645309
15058		-5.440649	0.238434	8.182061	-0.002255	0.008396	-0.004668	0.072266	-0.106445	-0.749756	1.809082	33.495531	136.642261
15059		-5.451614	0.222505	8.152575	-0.001635	0.007884	-0.002647	0.077393	-0.108154	-0.755371	1.808936	33.496145	136.641451
15060		-5.437129	0.273853	8.160060	-0.004901	0.007177	-0.006450	0.065186	-0.104736	-0.743652	1.805447	33.496460	136.636712
15061		-5.442567	0.237122	8.180824	-0.000264	0.007637	-0.001929	0.076904	-0.106934	-0.753906	1.806356	33.496918	136.636389
15062		-5.425529	0.266086	8.178718	-0.008595	0.010839	-0.005883	0.074951	-0.106934	-0.749756	1.800992	33.499218	136.632925
15063		-5.444095	0.235655	8.179849	-0.004148	0.007443	-0.007754	0.079346	-0.105957	-0.755371	1.797465	33.499671	136.628597
15064		-5.431885	0.228149	8.198905	-0.004347	0.010874	-0.007056	0.076660	-0.105713	-0.746826	1.794076	33.502186	136.623728
15065		-5.422535	0.219073	8.158168	-0.005852	0.010344	-0.004449	0.073486	-0.107666	-0.739014	1.790860	33.504240	136.621733
15066		-5.441180	0.212709	8.228435	-0.004347	0.010875	-0.007056	0.081543	-0.100586	-0.749512	1.787518	33.506717	136.616010
15067		-5.424292	0.217688	8.157037	-0.003728	0.010362	-0.005035	0.079590	-0.104736	-0.748779	1.785296	33.508792	136.613612
15068		-5.448389	0.232124	8.177090	-0.004348	0.010876	-0.007056	0.075684	-0.101318	-0.745850	1.781801	33.511419	136.610107
15069		-5.451825	0.253925	8.186138	-0.000785	0.006437	-0.004298	0.081787	-0.113281	-0.750732	1.781498	33.511233	136.608130
15070		-5.457394	0.217339	8.206791	-0.001084	0.011583	-0.003251	0.087158	-0.099609	-0.742188	1.781464	33.514134	136.604900
15071		-5.430232	0.238210	8.164455	-0.003109	0.009850	-0.003014	0.080322	-0.103271	-0.748779	1.780357	33.515880	136.603878
15072		-5.430963	0.237863	8.163979	-0.001638	0.007887	-0.002645	0.075684	-0.109619	-0.747314	1.780022	33.516815	136.603416
15073		-5.444636	0.268080	8.213217	-0.003629	0.008649	-0.005384	0.074707	-0.104248	-0.749512	1.777704	33.517915	136.600741
15074		-5.419451	0.230172	8.182598	-0.003110	0.009851	-0.003014	0.073975	-0.104248	-0.744873	1.776578	33.519704	136.598228
15075		-5.433259	0.236424	8.162493	-0.002976	0.010631	-0.006338	0.074463	-0.109375	-0.755371	1.774295	33.521955	136.594938
15076		-5.441590	0.221997	8.192636	-0.000885	0.008154	-0.003948	0.078125	-0.104248	-0.741455	1.774060	33.522755	136.592074
15077		-5.447818	0.266198	8.211168	-0.003729	0.010366	-0.005035	0.077881	-0.100586	-0.751953	1.771836	33.524831	136.589675
15078		-5.443196	0.221064	8.191594	-0.003111	0.009852	-0.003014	0.070068	-0.097900	-0.749023	1.770581	33.526714	136.589179
15079		-5.436428	0.234544	8.160437	-0.002123	0.009182	-0.007991	0.076904	-0.107666	-0.745117	1.768142	33.528165	136.584724
15080		-5.447563	0.242509	8.200050	-0.000468	0.011073	-0.001228	0.077148	-0.107422	-0.747070	1.769114	33.530577	136.585684
15081		-5.468942	0.235077	8.210561	-0.000986	0.009871	-0.003599	0.078125	-0.107422	-0.741699	1.769001	33.532345	136.584261
15082		-5.412982	0.220061	8.197960	-0.004383	0.008386	-0.004082	0.080322	-0.106934	-0.749268	1.766742	33.533391	136.580206
15083		-5.450011	0.241394	8.198456	-0.003212	0.011569	-0.002664	0.079102	-0.103027	-0.748047	1.765728	33.536115	136.579460
15084		-5.448005	0.218801	8.188457	0.000586	0.006193	-0.003579	0.073730	-0.106445	-0.753174	1.766391	33.535947	136.577217
15085		-5.427989	0.225832	8.177057	-0.002292	0.005909	-0.001691	0.079834	-0.101807	-0.749756	1.766207	33.535412	136.577019
15086		-5.449088	0.218304	8.187750	-0.000886	0.008157	-0.003948	0.071777	-0.105225	-0.749268	1.765883	33.536280	136.575501
15087		-5.431967	0.247586	8.185772	-0.002393	0.007625	-0.001342	0.077881	-0.112793	-0.748047	1.765794	33.536721	136.575580
15088		-5.432641	0.247156	8.185337	-0.003630	0.008653	-0.005385	0.075439	-0.105957	-0.750244	1.763507	33.537842	136.570498
15089		-5.464050	0.223840	8.166865	-0.003012	0.008140	-0.003363	0.076904	-0.111084	-0.746826	1.762302	33.538614	136.569198
15090		-5.446952	0.252972	8.164883	-0.003012	0.008140	-0.003363	0.076660	-0.109375	-0.754639	1.761111	33.539446	136.565665
15091		-5.445083	0.254106	8.224134	-0.003866	0.009590	-0.001711	0.079834	-0.098389	-0.749268	1.760061	33.541019	136.565531
15092		-5.432665	0.222986	8.174029	-0.004282	0.006673	-0.004432	0.074219	-0.108887	-0.746094	1.757575	33.541086	136.563773
15093		-5.456650	0.237460	8.194153	-0.003731	0.010371	-0.005035	0.077637	-0.103516	-0.742920	1.755349	33.543165	136.561371
15094		-5.434255	0.221988	8.173000	-0.002597	0.011058	-0.000642	0.077881	-0.101318	-0.759277	1.755415	33.545624	136.560688
15095		-5.458234	0.236853	8.193116	-0.000168	0.005929	-0.002275	0.076416	-0.103271	-0.746826	1.756227	33.545112	136.560089
15096		-5.458807	0.236645	8.192740	-0.001641	0.007893	-0.002644	0.077637	-0.096680	-0.743652	1.755903	33.545810	136.560563
15097		-5.443773	0.207371	8.202367	0.000485	0.007912	-0.003228	0.076660	-0.100098	-0.744629	1.756750	33.546449	136.559352
15098		-5.439530	0.243405	8.180874	-0.002911	0.006426	-0.003713	0.069580	-0.104004	-0.749023	1.755202	33.546354	136.560376
15099		-5.460522	0.235702	8.191625	-0.002809	0.004710	-0.004063	0.073975	-0.101318	-0.749512	1.753807	33.545174	136.558524
15100		-5.437625	0.220198	8.170806	-0.002809	0.004710	-0.004063	0.073730	-0.100098	-0.746582	1.752279	33.543926	136.557830
15101		-5.461359	0.234884	8.191090	-0.002294	0.005911	-0.001691	0.073975	-0.099854	-0.751709	1.752094	33.543393	136.557633
15102		-5.438693	0.219636	8.170110	-0.000372	0.009362	-0.001575	0.075928	-0.107422	-0.757813	1.752885	33.544833	136.559919
15103		-5.423469	0.190443	8.179863	-0.001473	0.001964	-0.000369	0.073486	-0.108398	-0.748291	1.753626	33.542017	136.560547
15104		-5.460163	0.212043	8.180533	-0.001743	0.009611	-0.002294	0.073975	-0.097168	-0.750244	1.753561	33.543617	136.558536
15105		-5.453262	0.225862	8.149443	-0.000270	0.007647	-0.001925	0.080322	-0.108887	-0.746094	1.754467	33.544082	136.558214
15106		-5.423212	0.248550	8.167097	-0.000270	0.007647	-0.001925	0.082275	-0.104736	-0.748535	1.755238	33.544643	136.558297
15107		-5.464914	0.233753	8.188751	-0.003767	0.007877	-0.002061	0.073242	-0.095459	-0.747070	1.754091	33.545242	136.557887
15108		-5.432036	0.233909	8.196934	-0.002294	0.005912	-0.001692	0.072998	-0.104004	-0.744873	1.753692	33.544828	136.559502
15109		-5.450587	0.204070	8.197923	-0.001193	0.013312	-0.002896	0.072754	-0.107910	-0.750732	1.753766	33.548554	136.558633
15110		-5.426048	0.247551	8.165244	0.000346	0.007133	0.000097	0.072998	-0.104004	-0.750244	1.755747	33.548655	136.558912
15111		-5.457227	0.224692	8.146820	-0.001677	0.005398	0.000330	0.082764	-0.108887	-0.755127	1.756677	33.547792	136.560092
15112		-5.457828	0.224504	8.146423	-0.002498	0.009346	-0.000992	0.074463	-0.097656	-0.750244	1.756621	33.549314	136.559425
15113		-5.445466	0.217620	8.165652	0.001305	0.003967	-0.001904	0.076172	-0.101563	-0.749756	1.758394	33.547671	136.559040
15114		-5.448640	0.239794	8.174916	-0.003049	0.005646	-0.000390	0.076416	-0.099121	-0.758545	1.758037	33.547005	136.562218
15115		-5.459219	0.224120	8.145501	0.000448	0.005417	-0.000252	0.075195	-0.110107	-0.749023	1.759963	33.546163	136.562999
15116		-5.436516	0.232846	8.193994	0.000036	0.002499	-0.002974	0.076660	-0.106689	-0.750488	1.760479	33.543739	136.562044
15117		-5.413454	0.217660	8.173283	-0.001575	0.003681	-0.000020	0.077637	-0.096436	-0.748047	1.761314	33.541899	136.562948
15118		-5.447222	0.217082	8.164495	0.002059	0.004234	-0.003206	0.076660	-0.101563	-0.755127	1.762849	33.540530	136.562892
15119		-5.450447	0.239412	8.173722	-0.001164	0.006600	0.002702	0.074707	-0.101074	-0.748047	1.764987	33.540314	136.565727
15120		-5.417505	0.239813	8.181970	-0.003049	0.005647	-0.000390	0.073242	-0.103027	-0.755371	1.764670	33.539656	136.568113
15121		-5.474802	0.254149	8.193583	-0.001025	0.007382	-0.000622	0.076172	-0.106445	-0.753662	1.765634	33.539946	136.568681
15122		-5.436319	0.209927	8.182770	-0.001678	0.005398	0.000330	0.068115	-0.106689	-0.754639	1.766460	33.539093	136.570177
15123		-5.411500	0.253486	8.150285	0.000243	0.008851	0.000448	0.071777	-0.101807	-0.754395	1.768575	33.540205	136.571512
15124		-5.466295	0.245751	8.152166	0.001650	0.011102	-0.001806	0.073975	-0.108154	-0.752441	1.770564	33.542517	136.572410
15125		-5.459030	0.202476	8.192343	-0.004523	0.007612	-0.000761	0.078857	-0.098145	-0.750732	1.769475	33.542942	136.572888
15126		-5.454771	0.238618	8.170861	0.000345	0.007135	0.000098	0.082275	-0.096436	-0.755615	1.771353	33.543151	136.574614
15127		-5.442487	0.231885	8.190056	0.001855	0.007669	-0.002505	0.068604	-0.108398	-0.746826	1.773256	33.543639	136.573895
15128		-5.448295	0.252529	8.139469	-0.001539	0.006182	-0.002994	0.068604	-0.099121	-0.745117	1.772853	33.543330	136.573921
15129		-5.443562	0.231463	8.189354	-0.002294	0.005915	-0.001692	0.078857	-0.109375	-0.748779	1.772666	33.542799	136.573723
15130		-5.431151	0.224502	8.208646	-0.000924	0.005666	-0.000972	0.073730	-0.102295	-0.751709	1.773449	33.542118	136.573935
15131		-5.438943	0.186439	8.169675	-0.001539	0.006182	-0.002994	0.078369	-0.101563	-0.742920	1.773204	33.541763	136.572848
15132		-5.473654	0.266737	8.158667	0.001100	0.007403	-0.001203	0.080811	-0.103516	-0.753662	1.775005	33.542154	136.573905
15133		-5.409364	0.209159	8.187103	-0.001063	0.004884	0.002352	0.081055	-0.108154	-0.749023	1.777047	33.540960	136.576464
15134		-5.466720	0.223501	8.198635	-0.004626	0.009331	-0.000412	0.079590	-0.103027	-0.757080	1.775970	33.542569	136.575977
15135		-5.446870	0.230578	8.187178	0.001855	0.007670	-0.002504	0.074707	-0.105713	-0.745605	1.777873	33.543058	136.575258
15136		-5.468099	0.223266	8.197722	-0.001885	0.008834	0.001030	0.079346	-0.104980	-0.749023	1.778877	33.544244	136.576948
15137		-5.445460	0.208209	8.176733	-0.000514	0.008586	0.001750	0.069580	-0.101563	-0.750977	1.781050	33.545182	136.579173
15138		-5.428345	0.237757	8.174843	-0.001782	0.007118	0.000679	0.074463	-0.099365	-0.741211	1.781941	33.545316	136.581320
15139		-5.485718	0.252166	8.186340	-0.001027	0.007385	-0.000622	0.079102	-0.103271	-0.752930	1.782905	33.545607	136.581889
15140		-5.429460	0.237525	8.174108	-0.001679	0.005400	0.000329	0.077148	-0.099365	-0.758545	1.783651	33.544845	136.584198
15141		-5.460552	0.214509	8.155654	-0.002294	0.005916	-0.001693	0.075684	-0.102051	-0.752930	1.783464	33.544315	136.584000
15142		-5.440736	0.245532	8.213712	0.002779	0.002004	-0.001531	0.080811	-0.110840	-0.755127	1.785972	33.541606	136.586203
15143		-5.438427	0.223090	8.203865	-0.003116	0.009867	-0.003015	0.066650	-0.106934	-0.756348	1.784860	33.543362	136.585182
15144		-5.454236	0.228060	8.124152	-0.001577	0.003683	-0.000021	0.072754	-0.095215	-0.751221	1.785701	33.541498	136.584586
15145		-5.439290	0.222756	8.203302	0.000550	0.003702	-0.000601	0.077637	-0.112061	-0.748779	1.787532	33.539680	136.585091
15146		-5.431987	0.236730	8.172453	-0.000924	0.005668	-0.000972	0.079346	-0.108398	-0.745361	1.788278	33.539039	136.585786
15147		-5.445319	0.243360	8.152530	-0.000924	0.005668	-0.000972	0.080566	-0.100586	-0.756836	1.789147	33.538354	136.586078
15148		-5.450730	0.206977	8.173253	0.000343	0.007137	0.000099	0.077393	-0.103516	-0.750244	1.791048	33.538675	136.586667
15149		-5.469670	0.258144	8.172379	-0.004318	0.004181	-0.001463	0.071777	-0.101807	-0.750732	1.789768	33.537146	136.586589
15150		-5.441367	0.222186	8.201940	0.001267	0.001469	0.001071	0.077637	-0.099854	-0.747803	1.792467	33.534046	136.589232
15151		-5.434116	0.236242	8.171051	-0.000375	0.009371	-0.001573	0.078857	-0.103760	-0.751709	1.793467	33.535492	136.589191
15152		-5.424573	0.251743	8.199857	-0.000962	0.003168	0.002001	0.079346	-0.101807	-0.751221	1.795229	33.533462	136.592426
15153		-5.447930	0.242910	8.150799	-0.000271	0.007654	-0.001923	0.069824	-0.102783	-0.757080	1.796135	33.533932	136.592107
15154		-5.438426	0.258327	8.179584	-0.000924	0.005669	-0.000972	0.083008	-0.108398	-0.751465	1.796830	33.533265	136.594006
15155		-5.436117	0.235739	8.169735	-0.002909	0.006434	-0.003716	0.086426	-0.108398	-0.751953	1.795529	33.533068	136.592429
15156		-5.444182	0.221409	8.200093	-0.000718	0.002234	-0.001672	0.073486	-0.101807	-0.757813	1.796185	33.530747	136.589135
15157		-5.424097	0.228481	8.188815	-0.002502	0.009353	-0.000993	0.081787	-0.096924	-0.754150	1.796185	33.532172	136.589491
15158		-5.455262	0.205387	8.170268	-0.002192	0.004200	-0.002043	0.073242	-0.100586	-0.744629	1.795632	33.530771	136.591972
15159		-5.445593	0.220876	8.199171	0.001060	0.004905	0.001772	0.071777	-0.110840	-0.754639	1.798670	33.529599	136.594133
15160		-5.448874	0.243367	8.208380	0.000957	0.006623	0.002123	0.073242	-0.104492	-0.741699	1.801746	33.529366	136.596170
15161		-5.438839	0.235209	8.167938	0.000446	0.005421	-0.000250	0.072754	-0.106934	-0.752686	1.803670	33.528527	136.596953
15162		-5.436538	0.212935	8.158071	0.000342	0.007139	0.000100	0.076416	-0.101563	-0.746094	1.805638	33.528650	136.597309
15163		-5.442691	0.257493	8.176772	-0.000925	0.005670	-0.000972	0.079590	-0.108887	-0.750977	1.806506	33.527966	136.597601
15164		-5.473759	0.234616	8.158268	0.001202	0.005689	-0.001551	0.073730	-0.105713	-0.749268	1.808287	33.527436	136.596622
15165		-5.438345	0.236504	8.226472	-0.003600	0.001948	0.000207	0.077148	-0.100342	-0.757568	1.808025	33.524599	136.597643
15166		-5.441142	0.234647	8.166420	-0.003116	0.009871	-0.003016	0.076416	-0.107666	-0.750244	1.806755	33.526404	136.597707
15167		-5.446630	0.198095	8.187096	0.002062	0.004239	-0.003201	0.065430	-0.105225	-0.756592	1.808471	33.524941	136.596436
15168		-5.444803	0.256664	8.175393	-0.001474	0.001967	-0.000372	0.077393	-0.102539	-0.750732	1.809157	33.522035	136.596930
15169		-5.426632	0.205166	8.175769	-0.000925	0.005670	-0.000972	0.080566	-0.103271	-0.744385	1.810025	33.521351	136.597222
15170		-5.440455	0.235678	8.225100	0.000445	0.005422	-0.000250	0.074219	-0.100098	-0.752441	1.811796	33.520684	136.598093
15171		-5.446063	0.256656	8.174553	0.003082	0.006643	0.001545	0.074463	-0.100586	-0.749756	1.815926	33.520512	136.600135
15172		-5.443673	0.234381	8.164741	-0.002948	0.003933	-0.000744	0.078857	-0.103516	-0.745361	1.815478	33.518858	136.602860
15173		-5.431216	0.227492	8.184123	0.000445	0.005422	-0.000250	0.077393	-0.109131	-0.746826	1.817402	33.518019	136.603643
15174		-5.447087	0.256570	8.173874	-0.000757	-0.000268	0.001301	0.083008	-0.101807	-0.742920	1.819106	33.514039	136.603631
15175		-5.431612	0.227604	8.183857	0.001059	0.004906	0.001773	0.080078	-0.104736	-0.749512	1.822142	33.512868	136.605791
15176		-5.434785	0.250003	8.193145	0.000549	0.003704	-0.000600	0.072510	-0.103027	-0.750977	1.823825	33.511303	136.605770
15177		-5.435099	0.249869	8.192940	-0.002948	0.003934	-0.000744	0.074951	-0.105957	-0.750488	1.823599	33.509620	136.606180
15178		-5.432602	0.227356	8.183207	-0.000821	0.003953	-0.001322	0.074463	-0.102051	-0.749756	1.824266	33.507965	136.606469
15179		-5.435894	0.249601	8.192422	0.001098	0.007408	-0.001200	0.069824	-0.104004	-0.755127	1.826227	33.508281	136.606642
15180		-5.410275	0.212159	8.162033	-0.003156	0.007370	-0.000043	0.065430	-0.101074	-0.748291	1.826040	33.508513	136.608987
15181		-5.444933	0.235326	8.222147	0.001751	0.009395	-0.002150	0.076660	-0.098877	-0.758545	1.828039	33.509984	136.608551
15182		-5.437779	0.249613	8.191170	0.005312	0.004945	0.000617	0.075439	-0.104980	-0.746094	1.832840	33.508785	136.613059
15183		-5.438482	0.249809	8.190698	-0.002098	0.012277	0.001729	0.079834	-0.104004	-0.755371	1.834140	33.511836	136.615351
15184		-5.428613	0.241522	8.150127	-0.000312	0.005155	0.001051	0.072998	-0.098389	-0.747559	1.836000	33.510947	136.616788
15185		-5.460263	0.242616	8.200831	0.001711	0.006893	0.000823	0.082031	-0.102051	-0.755127	1.839073	33.510930	136.618340
15186		-5.416765	0.234978	8.169113	-0.000312	0.005156	0.001051	0.079590	-0.105957	-0.744385	1.840814	33.510041	136.622015
15187		-5.474012	0.249511	8.180567	0.000445	0.005423	-0.000249	0.080078	-0.107422	-0.744385	1.842737	33.509202	136.622797
15188		-5.438302	0.227680	8.179410	-0.001029	0.007391	-0.000622	0.077393	-0.107666	-0.746338	1.843656	33.509701	136.621006
15189		-5.441658	0.249934	8.188584	0.000445	0.005424	-0.000249	0.075439	-0.102295	-0.751953	1.845579	33.508863	136.621788
15190		-5.426312	0.220956	8.198503	0.002780	0.002005	-0.001527	0.072510	-0.099854	-0.749268	1.848216	33.506182	136.621170
15191		-5.442337	0.249964	8.188131	-0.003914	0.007104	0.001256	0.074707	-0.101807	-0.753906	1.848232	33.506278	136.623023
15192		-5.440144	0.227562	8.178189	-0.000521	0.008593	0.001751	0.077881	-0.101074	-0.745361	1.850185	33.507226	136.627521
15193		-5.456412	0.256748	8.167646	0.000953	0.006626	0.002124	0.074219	-0.105957	-0.748291	1.853313	33.507033	136.629960
15194		-5.397902	0.243941	8.215316	0.000196	0.006359	0.003424	0.070068	-0.102051	-0.755371	1.856368	33.506752	136.633337
15195		-5.454776	0.234777	8.157316	-0.000625	0.010313	0.002102	0.073242	-0.106445	-0.748291	1.858629	33.508670	136.635842
15196		-5.466010	0.243018	8.196989	-0.002440	0.005138	0.001628	0.076172	-0.098633	-0.749756	1.859491	33.507579	136.638746
15197		-5.445877	0.250487	8.185762	0.003692	0.006129	0.003570	0.078613	-0.110352	-0.745361	1.864731	33.507074	136.642167
15198		-5.446416	0.250752	8.185395	0.000341	0.007143	0.000101	0.073975	-0.104492	-0.758057	1.866637	33.507343	136.642713
15199		-5.447068	0.250719	8.184962	-0.001891	0.008844	0.001028	0.075195	-0.104980	-0.755859	1.867748	33.508439	136.644449
15200		-5.458199	0.258870	8.224713	-0.001578	0.003687	-0.000023	0.073486	-0.109131	-0.746826	1.868444	33.506622	136.646186
15201		-5.445119	0.228249	8.174858	0.000445	0.005425	-0.000249	0.074707	-0.105713	-0.748779	1.870367	33.505784	136.646968
15202		-5.415023	0.250936	8.192816	-0.002294	0.005922	-0.001696	0.075439	-0.104248	-0.756104	1.870155	33.505286	136.645255
15203		-5.445981	0.227987	8.174291	0.000549	0.003706	-0.000599	0.078125	-0.107422	-0.752686	1.871983	33.503471	136.645758
15204		-5.415865	0.250825	8.192262	0.000340	0.007144	0.000101	0.078369	-0.110352	-0.747559	1.873898	33.503704	136.646543
15205		-5.426413	0.235248	8.162700	-0.001787	0.007125	0.000678	0.076660	-0.101807	-0.754395	1.874914	33.503823	136.648000
15206		-5.447521	0.228000	8.173265	0.002572	0.005444	-0.000825	0.074707	-0.109131	-0.752197	1.877752	33.503131	136.647525
15207		-5.430254	0.257685	8.171548	-0.001176	0.006609	0.002701	0.078125	-0.110840	-0.744629	1.879879	33.502916	136.650359
15208		-5.430975	0.257658	8.171069	-0.000480	0.011100	-0.001221	0.080322	-0.108154	-0.752441	1.881007	33.505438	136.647637
15209		-5.431721	0.257551	8.170577	-0.001787	0.007126	0.000678	0.077881	-0.104004	-0.751709	1.882023	33.505557	136.649093
15210		-5.432325	0.257361	8.170182	-0.002399	0.007643	-0.001346	0.066650	-0.110840	-0.748291	1.881829	33.506178	136.648346
15211		-5.440774	0.243119	8.200323	0.000487	0.007930	-0.003221	0.077637	-0.108643	-0.745605	1.882680	33.506830	136.647143
15212		-5.466848	0.256437	8.160675	-0.002948	0.003937	-0.000747	0.077637	-0.106445	-0.740723	1.882493	33.505116	136.645104
15213		-5.434027	0.256672	8.169071	-0.000987	0.009898	-0.003594	0.068115	-0.111816	-0.749512	1.882383	33.506902	136.643688
15214		-5.452276	0.227027	8.170121	0.002781	0.002006	-0.001525	0.078613	-0.103516	-0.752441	1.885144	33.504127	136.641143
15215		-5.442802	0.242580	8.198993	-0.000377	0.009382	-0.001571	0.075928	-0.106934	-0.749023	1.886144	33.505580	136.641106
15216		-5.409951	0.242973	8.207415	-0.001579	0.003688	-0.000023	0.072510	-0.096191	-0.745605	1.886852	33.503864	136.641816
15217		-5.464525	0.235068	8.209146	-0.001998	0.010566	0.001378	0.078613	-0.107422	-0.757324	1.888055	33.505939	136.643830
15218		-5.424019	0.249677	8.186901	0.000950	0.006629	0.002126	0.085449	-0.107178	-0.757324	1.890969	33.505817	136.648112
15219		-5.455060	0.226893	8.168265	-0.000925	0.005676	-0.000972	0.083008	-0.100342	-0.750977	1.891835	33.505136	136.648402
15220		-5.445662	0.242236	8.197104	-0.003158	0.007376	-0.000047	0.080078	-0.106934	-0.755859	1.891600	33.505734	136.649543
15221		-5.428503	0.271773	8.195343	0.002467	0.007165	-0.000473	0.073975	-0.104004	-0.752197	1.894617	33.505898	136.650209
15222		-5.436118	0.233812	8.156281	-0.004422	0.005906	-0.001121	0.079834	-0.109863	-0.750000	1.893303	33.505450	136.650436
15223		-5.450209	0.264167	8.205507	0.001856	0.007683	-0.002496	0.071533	-0.100098	-0.750000	1.895210	33.505948	136.649724
15224		-5.460533	0.248567	8.176051	-0.001474	0.001969	-0.000374	0.080566	-0.107422	-0.754883	1.895823	33.503203	136.650370
15225		-5.438102	0.257120	8.224746	-0.001431	0.004473	-0.003346	0.074219	-0.112061	-0.749512	1.895484	33.501879	136.649002
15226		-5.448387	0.241288	8.195320	-0.002190	0.004205	-0.002047	0.078613	-0.112061	-0.750732	1.895202	33.500486	136.646112
15227		-5.425355	0.225909	8.174648	-0.003664	0.006174	-0.002421	0.066406	-0.112061	-0.757568	1.893956	33.500119	136.645419
15228		-5.444339	0.276916	8.173691	-0.002295	0.005925	-0.001696	0.077393	-0.100342	-0.756348	1.893837	33.499549	136.642300
15229		-5.405804	0.232634	8.163086	-0.000272	0.007665	-0.001921	0.075195	-0.106201	-0.754639	1.894743	33.500025	136.641983
15230		-5.429926	0.247443	8.183052	-0.000883	0.008182	-0.003944	0.073975	-0.106201	-0.753174	1.894343	33.500915	136.641753
15231		-5.451238	0.239966	8.193464	-0.001895	0.008848	0.001028	0.072754	-0.106201	-0.750732	1.895451	33.502014	136.643488
15232		-5.446873	0.276119	8.172030	-0.001536	0.006194	-0.002996	0.069824	-0.103516	-0.751953	1.895116	33.501664	136.642268
15233		-5.421925	0.262379	8.211007	0.000486	0.007934	-0.003220	0.075684	-0.115967	-0.756592	1.895967	33.502319	136.641066
15234		-5.432414	0.246562	8.181427	-0.003664	0.006175	-0.002421	0.076416	-0.113037	-0.753174	1.894722	33.501919	136.638675
15235		-5.433067	0.246212	8.181005	-0.001747	0.009635	-0.002295	0.075439	-0.100830	-0.746826	1.894666	33.503530	136.638147
15236		-5.454392	0.238656	8.191402	-0.002401	0.007647	-0.001346	0.075928	-0.109863	-0.753906	1.894496	33.504066	136.637321
15237		-5.434502	0.245671	8.180067	-0.000988	0.009904	-0.003593	0.070313	-0.108398	-0.748047	1.894385	33.505856	136.635906
15238		-5.455842	0.238109	8.190453	-0.002401	0.007647	-0.001346	0.082764	-0.105957	-0.749023	1.894281	33.506300	136.634287
15239		-5.435858	0.245271	8.179179	0.001855	0.007686	-0.002494	0.069580	-0.105713	-0.749756	1.896188	33.506800	136.633577
15240		-5.420745	0.215993	8.189008	-0.002800	0.004724	-0.004071	0.076660	-0.103271	-0.747559	1.894687	33.505724	136.631377
15241		-5.444667	0.230782	8.209102	0.001201	0.005698	-0.001546	0.078857	-0.102539	-0.749023	1.896554	33.505067	136.631272
15242		-5.440241	0.267001	8.187713	-0.001642	0.007916	-0.002645	0.068848	-0.109375	-0.750977	1.896212	33.505847	136.631445
15243		-5.407511	0.267255	8.196132	-0.002402	0.007648	-0.001346	0.077881	-0.106201	-0.751465	1.896115	33.506303	136.631522
15244		-5.438662	0.244081	8.177350	-0.003011	0.008166	-0.003370	0.076172	-0.099854	-0.750000	1.894858	33.507090	136.629264
15245		-5.459864	0.236432	8.187821	-0.002296	0.005928	-0.001697	0.076660	-0.103027	-0.752441	1.894667	33.506568	136.629061
15246		-5.442590	0.265964	8.186185	0.002570	0.005449	-0.000820	0.071289	-0.108398	-0.746582	1.897351	33.505853	136.631566
15247		-5.419723	0.250836	8.165402	-0.003117	0.009886	-0.003020	0.073975	-0.103027	-0.752686	1.896238	33.507623	136.630545
15248		-5.443819	0.265478	8.185384	-0.001431	0.004476	-0.003346	0.080566	-0.100830	-0.746582	1.895799	33.506283	136.629227
15249		-5.441429	0.242974	8.175542	-0.001034	0.007399	-0.000621	0.078857	-0.106934	-0.751465	1.896757	33.506583	136.629797
15250		-5.421354	0.250071	8.164343	-0.002296	0.005928	-0.001697	0.070801	-0.109375	-0.751709	1.896395	33.506264	136.629899
15251		-5.445420	0.264866	8.184339	-0.000274	0.007669	-0.001919	0.069092	-0.103760	-0.748291	1.897300	33.506742	136.629583
15252		-5.433191	0.257742	8.203704	-0.004927	0.004706	-0.003499	0.071045	-0.106445	-0.742676	1.894833	33.505453	136.628002
15253		-5.425775	0.271603	8.172869	0.000944	0.006633	0.002129	0.070557	-0.102783	-0.749756	1.897957	33.505262	136.630443
15254		-5.444051	0.241888	8.173828	-0.002905	0.006447	-0.003721	0.073730	-0.104736	-0.752441	1.896543	33.505015	136.629342
15255		-5.439711	0.220772	8.223723	-0.000168	0.005949	-0.002270	0.079346	-0.110107	-0.749268	1.897354	33.504515	136.628746
15256		-5.445196	0.241472	8.173078	-0.000381	0.009390	-0.001568	0.069092	-0.106201	-0.750244	1.898283	33.506074	136.627607
15257		-5.433148	0.234590	8.192322	-0.001034	0.007401	-0.000621	0.074463	-0.101807	-0.747314	1.899241	33.506374	136.628177
15258		-5.433745	0.234548	8.191927	0.000334	0.007152	0.000105	0.075928	-0.102539	-0.750244	1.901109	33.506483	136.630213
15259		-5.437244	0.256723	8.201050	-0.002403	0.007650	-0.001347	0.083984	-0.107178	-0.745361	1.901011	33.506941	136.630290
15260		-5.434901	0.234230	8.191169	-0.000928	0.005680	-0.000972	0.070801	-0.107178	-0.743408	1.901732	33.506480	136.630237
15261		-5.448161	0.241018	8.171115	0.002462	0.007172	-0.000467	0.077637	-0.105469	-0.753174	1.904749	33.506647	136.630907
15262		-5.438042	0.232676	8.130619	-0.004638	0.009352	-0.000424	0.074707	-0.101318	-0.746826	1.903655	33.508098	136.631148
15263		-5.431589	0.270219	8.169052	0.000045	0.002508	-0.002971	0.073242	-0.099365	-0.741455	1.904279	33.505642	136.629992
15264		-5.431927	0.270004	8.168835	-0.003057	0.005661	-0.000399	0.077148	-0.109375	-0.742920	1.903898	33.504992	136.632981
15265		-5.429437	0.247431	8.159050	-0.002190	0.004209	-0.002048	0.075195	-0.108154	-0.749268	1.903612	33.503492	136.632498
15266		-5.427874	0.248524	8.218575	-0.003559	0.004459	-0.002774	0.065918	-0.104248	-0.753174	1.902257	33.502251	136.629279
15267		-5.438145	0.232560	8.189064	-0.003665	0.006180	-0.002423	0.076660	-0.108398	-0.748291	1.901009	33.501887	136.628583
15268		-5.451289	0.239040	8.169087	-0.000822	0.003960	-0.001322	0.080566	-0.100342	-0.743408	1.901692	33.500173	136.628578
15269		-5.408655	0.254905	8.206854	-0.002511	0.009373	-0.000995	0.069580	-0.112305	-0.752686	1.901687	33.501610	136.628936
15270		-5.439812	0.231810	8.187978	-0.002404	0.007652	-0.001346	0.083252	-0.115234	-0.751221	1.901499	33.502137	136.628385
15271		-5.440467	0.231531	8.187550	-0.000883	0.008190	-0.003942	0.075928	-0.101563	-0.746094	1.901294	33.502953	136.626691
15272		-5.441157	0.231414	8.187095	-0.000535	0.008605	0.001755	0.076660	-0.102295	-0.750488	1.903408	33.504101	136.626829
15273		-5.413254	0.252760	8.145338	-0.001036	0.007403	-0.000620	0.083008	-0.104004	-0.751953	1.904365	33.504403	136.627399
15274		-5.445347	0.253472	8.195773	-0.001644	0.007922	-0.002644	0.076904	-0.104980	-0.742676	1.904003	33.505249	136.627588
15275		-5.435160	0.244982	8.155313	-0.002404	0.007653	-0.001347	0.074707	-0.104492	-0.750977	1.903904	33.505708	136.627665
15276		-5.435870	0.244714	8.154848	-0.001751	0.009643	-0.002293	0.068359	-0.104980	-0.744385	1.903711	33.507416	136.627224
15277		-5.423985	0.237768	8.174018	-0.002011	0.010577	0.001380	0.072510	-0.104248	-0.749512	1.904908	33.509498	136.629240
15278		-5.424590	0.237578	8.173622	-0.002190	0.004211	-0.002049	0.072510	-0.111084	-0.753906	1.904500	33.507922	136.629416
15279		-5.437719	0.244132	8.153632	-0.000168	0.005952	-0.002269	0.079590	-0.108398	-0.744873	1.905311	33.507425	136.628821
15280		-5.425605	0.237006	8.172964	-0.004380	0.008422	-0.004098	0.080811	-0.106934	-0.749023	1.903045	33.508462	136.624635
15281		-5.446854	0.229261	8.183367	-0.001537	0.006202	-0.002995	0.080078	-0.099609	-0.746582	1.902799	33.508122	136.623546
15282		-5.439487	0.243061	8.152485	-0.002405	0.007654	-0.001347	0.074951	-0.099609	-0.747314	1.902502	33.508817	136.624208
15283		-5.427341	0.236018	8.171840	-0.002298	0.005933	-0.001698	0.073730	-0.104980	-0.743896	1.902310	33.508298	136.624004
15284		-5.464139	0.257567	8.172086	-0.001798	0.007135	0.000678	0.075684	-0.098145	-0.748291	1.903121	33.508473	136.626898
15285		-5.444055	0.264676	8.160931	-0.000776	0.006472	-0.004293	0.071289	-0.109619	-0.750244	1.902823	33.508313	136.624924
15286		-5.431845	0.257699	8.180333	-0.001691	0.005414	0.000327	0.071533	-0.105225	-0.747070	1.903577	33.507470	136.627080
15287		-5.432475	0.257429	8.179923	-0.003120	0.009895	-0.003020	0.078125	-0.109375	-0.753662	1.902461	33.509246	136.626059
15288		-5.430139	0.234859	8.170015	-0.000061	0.004232	-0.002619	0.073975	-0.103271	-0.751953	1.903108	33.507817	136.624291
15289		-5.454198	0.249622	8.190004	-0.002406	0.007655	-0.001346	0.083496	-0.097168	-0.750732	1.903008	33.508278	136.624368
15290		-5.424362	0.272100	8.208101	-0.002905	0.006453	-0.003722	0.077881	-0.099854	-0.751953	1.901413	33.508272	136.625437
15291		-5.444559	0.240787	8.149166	-0.000385	0.009397	-0.001565	0.079834	-0.104248	-0.750000	1.902410	33.509735	136.625404
15292		-5.446326	0.264225	8.218025	-0.002905	0.006453	-0.003722	0.079102	-0.105225	-0.752197	1.900872	33.509730	136.625373
15293		-5.423338	0.248974	8.197341	-0.000277	0.007676	-0.001916	0.085205	-0.110107	-0.746338	1.901776	33.510213	136.625059
15294		-5.478055	0.240831	8.198684	-0.003121	0.009897	-0.003020	0.080322	-0.104004	-0.747314	1.900585	33.512264	136.622007
15295		-5.421791	0.226137	8.186913	-0.000169	0.005955	-0.002268	0.072754	-0.100586	-0.755127	1.901396	33.511769	136.621413
15296		-5.438065	0.254985	8.176284	-0.000992	0.009918	-0.003590	0.074951	-0.103760	-0.754395	1.901061	33.513665	136.621706
15297		-5.438847	0.254721	8.175772	-0.003276	0.009108	0.000302	0.077148	-0.102051	-0.748047	1.901105	33.514927	136.622949
15298		-5.447446	0.240360	8.205858	-0.001537	0.006205	-0.002995	0.074951	-0.108154	-0.750732	1.900657	33.514668	136.623267
15299		-5.437116	0.231958	8.165456	-0.000277	0.007677	-0.001916	0.072021	-0.104492	-0.750244	1.901561	33.515153	136.622954
15300		-5.461244	0.246868	8.185391	0.000437	0.005436	-0.000243	0.079102	-0.104248	-0.748047	1.903389	33.514318	136.623491
15301		-5.438145	0.231769	8.164776	-0.000776	0.006475	-0.004292	0.072998	-0.105469	-0.749268	1.903091	33.514159	136.621518
15302		-5.428965	0.247153	8.193671	0.000328	0.007158	0.000109	0.080322	-0.103271	-0.748779	1.904966	33.514394	136.622666
15303		-5.439080	0.231583	8.164159	-0.001476	0.001972	-0.000376	0.073486	-0.110596	-0.749268	1.905695	33.511581	136.623280
15304		-5.450370	0.239404	8.203944	-0.003511	0.006975	-0.005748	0.073975	-0.101074	-0.750244	1.903203	33.511846	136.619230
15305		-5.442882	0.252972	8.173141	-0.002797	0.004733	-0.004074	0.074219	-0.105957	-0.748291	1.901808	33.510685	136.617367
15306		-5.461053	0.222992	8.174072	-0.001537	0.006206	-0.002995	0.069824	-0.104736	-0.754639	1.901387	33.510373	136.617386
15307		-5.443922	0.252319	8.172468	-0.001646	0.007928	-0.002644	0.071533	-0.103027	-0.754639	1.901234	33.511015	136.616578
15308		-5.422162	0.260790	8.221058	-0.002408	0.007658	-0.001347	0.077881	-0.106201	-0.743408	1.900959	33.511379	136.618503
15309		-5.445171	0.251610	8.171658	-0.003511	0.006976	-0.005748	0.073242	-0.101074	-0.754883	1.898548	33.511535	136.615542
15310		-5.433038	0.244472	8.191051	-0.000170	0.005957	-0.002267	0.075195	-0.103760	-0.743408	1.899185	33.511116	136.615761
15311		-5.443555	0.228691	8.161257	-0.003340	0.013345	-0.002317	0.071045	-0.104004	-0.748779	1.898253	33.514853	136.615301
15312		-5.434620	0.244011	8.190016	0.001198	0.005708	-0.001539	0.080322	-0.102295	-0.749756	1.899973	33.514208	136.615824
15313		-5.447838	0.250724	8.169907	-0.000279	0.007680	-0.001915	0.075195	-0.103516	-0.755615	1.900876	33.514693	136.615511
15314		-5.435817	0.243752	8.189229	-0.001647	0.007929	-0.002643	0.079346	-0.095215	-0.754395	1.900506	33.515472	136.616048
15315		-5.415716	0.250882	8.178123	-0.000932	0.005687	-0.000970	0.071777	-0.105957	-0.756348	1.901367	33.514799	136.616339
15316		-5.437011	0.243350	8.188448	-0.001756	0.009652	-0.002292	0.066162	-0.104980	-0.752441	1.901017	33.516482	136.618995
15317		-5.432772	0.279461	8.166969	-0.000994	0.009923	-0.003588	0.072021	-0.099854	-0.743652	1.900904	33.518284	136.617585
15318		-5.441362	0.265075	8.197071	-0.002191	0.004215	-0.002050	0.072266	-0.108643	-0.746094	1.900434	33.516659	136.619248
15319		-5.426259	0.235593	8.206959	-0.005144	0.008159	-0.002804	0.082275	-0.104492	-0.739990	1.898218	33.517436	136.618337
15320		-5.418835	0.249343	8.176103	-0.000170	0.005959	-0.002266	0.075439	-0.100098	-0.750732	1.898964	33.517087	136.615862
15321		-5.452719	0.248571	8.166716	-0.002410	0.007660	-0.001347	0.071533	-0.100342	-0.745117	1.898861	33.517550	136.615940
15322		-5.432693	0.255635	8.155569	-0.001647	0.007931	-0.002643	0.074463	-0.104004	-0.752930	1.898445	33.518211	136.617874
15323		-5.431672	0.256759	8.214905	-0.001647	0.007931	-0.002643	0.070313	-0.112305	-0.757813	1.898290	33.518854	136.617067
15324		-5.429308	0.234192	8.204983	-0.000776	0.006480	-0.004291	0.079346	-0.104736	-0.751465	1.897945	33.518646	136.614562
15325		-5.422018	0.248099	8.174031	-0.000499	0.011127	-0.001211	0.072510	-0.103271	-0.749512	1.899031	33.521092	136.614812
15326		-5.456039	0.247406	8.164534	-0.000171	0.005959	-0.002266	0.069092	-0.107422	-0.743164	1.899675	33.520683	136.614854
15327		-5.423234	0.247933	8.173229	-0.001201	0.006620	0.002703	0.074707	-0.106689	-0.754150	1.901787	33.520475	136.617690
15328		-5.447412	0.262748	8.193127	-0.000775	0.006480	-0.004291	0.074219	-0.106445	-0.754639	1.901435	33.520273	136.615024
15329		-5.444945	0.240184	8.183267	-0.003063	0.005668	-0.000403	0.075684	-0.111328	-0.744629	1.901290	33.519578	136.615705
15330		-5.423248	0.248730	8.231910	-0.000390	0.009406	-0.001562	0.075928	-0.105469	-0.745605	1.902270	33.521095	136.613688
15331		-5.441150	0.276176	8.161501	-0.001538	0.006210	-0.002995	0.078857	-0.099121	-0.751709	1.902023	33.520759	136.612600
15332		-5.459517	0.246201	8.162246	-0.003125	0.009906	-0.003020	0.073242	-0.103516	-0.749756	1.900684	33.522682	136.612795
15333		-5.425297	0.247898	8.230585	-0.000281	0.007683	-0.001914	0.074219	-0.104248	-0.754883	1.901586	33.523170	136.612484
15334		-5.417801	0.261886	8.199764	-0.001697	0.005419	0.000326	0.076172	-0.107666	-0.753418	1.902325	33.522325	136.614923
15335		-5.451652	0.261115	8.190359	-0.002411	0.007663	-0.001347	0.076416	-0.107422	-0.752930	1.902221	33.522790	136.615001
15336		-5.438322	0.230566	8.140383	-0.000549	0.008615	0.001759	0.084717	-0.110107	-0.747803	1.904301	33.523825	136.616236
15337		-5.453043	0.260976	8.189437	-0.001154	0.009136	-0.000266	0.072021	-0.104980	-0.750977	1.905346	33.525114	136.617090
15338		-5.425408	0.225040	8.219030	-0.000934	0.005690	-0.000970	0.085205	-0.108643	-0.748291	1.906141	33.524604	136.615658
15339		-5.451210	0.238456	8.179146	-0.001044	0.007413	-0.000618	0.074707	-0.099854	-0.751465	1.907093	33.524912	136.616231
15340		-5.434106	0.267963	8.177590	-0.001807	0.007143	0.000678	0.074707	-0.110352	-0.747803	1.907922	33.525256	136.617677
15341		-5.473116	0.230725	8.189036	-0.003015	0.008185	-0.003373	0.077148	-0.105469	-0.750977	1.906710	33.526059	136.616375
15342		-5.435390	0.267343	8.176757	-0.002411	0.007664	-0.001347	0.075928	-0.109131	-0.749756	1.906557	33.526603	136.614887
15343		-5.444055	0.253106	8.206817	0.000323	0.007164	0.000112	0.075195	-0.097168	-0.746094	1.908567	33.526755	136.615955
15344		-5.446084	0.251741	8.146755	0.000543	0.003718	-0.000592	0.073975	-0.102539	-0.742676	1.910205	33.525023	136.617439
15345		-5.441917	0.230718	8.196724	-0.002301	0.005941	-0.001699	0.077148	-0.107422	-0.750244	1.910008	33.524510	136.617235
15346		-5.445382	0.252788	8.205947	-0.000934	0.005691	-0.000970	0.076904	-0.102783	-0.757080	1.910742	33.523918	136.617305
15347		-5.433184	0.245802	8.225444	-0.001428	0.004489	-0.003347	0.066650	-0.108887	-0.747314	1.910403	33.522604	136.615936
15348		-5.414502	0.251406	8.154716	-0.004432	0.005920	-0.001133	0.070313	-0.106689	-0.750244	1.909088	33.522005	136.616598
15349		-5.453420	0.214308	8.166198	0.002453	0.007186	-0.000453	0.077393	-0.107666	-0.757080	1.912104	33.522180	136.617278
15350		-5.426797	0.259314	8.193894	-0.003125	0.009910	-0.003021	0.072021	-0.099609	-0.753174	1.910900	33.523966	136.615887
15351		-5.468733	0.244410	8.214891	0.000543	0.003718	-0.000591	0.076416	-0.104248	-0.749268	1.912725	33.522158	136.616393
15352		-5.404067	0.243984	8.173063	-0.005196	0.005649	0.000162	0.070557	-0.102539	-0.755127	1.911335	33.521471	136.619696
15353		-5.440871	0.265493	8.173171	-0.000442	0.006894	0.001408	0.077148	-0.110107	-0.753906	1.913394	33.521444	136.621648
15354		-5.449423	0.251409	8.203306	-0.001095	0.004899	0.002352	0.071533	-0.103516	-0.753662	1.915299	33.520258	136.624409
15355		-5.438717	0.243207	8.163077	-0.000824	0.003969	-0.001321	0.069580	-0.108154	-0.754395	1.916067	33.518607	136.624419
15356		-5.439184	0.243078	8.162769	-0.001045	0.007416	-0.000617	0.067383	-0.100830	-0.751953	1.916903	33.518815	136.625860
15357		-5.430044	0.258302	8.191775	-0.004322	0.004197	-0.001486	0.073730	-0.110840	-0.749512	1.915607	33.517298	136.625763
15358		-5.455496	0.271714	8.152069	0.001256	0.001474	0.001082	0.075928	-0.102295	-0.755615	1.918343	33.514084	136.627825
15359		-5.460723	0.235325	8.172889	-0.001477	0.001974	-0.000378	0.071045	-0.106201	-0.750488	1.919069	33.511272	136.628437
15360		-5.406870	0.243120	8.171235	-0.003005	0.001431	0.002213	0.082031	-0.103516	-0.745117	1.919722	33.508109	136.632045
15361		-5.464014	0.257252	8.182239	-0.002080	0.002495	-0.002404	0.073730	-0.095459	-0.751465	1.919341	33.505636	136.631279
15362		-5.427931	0.235255	8.181676	-0.002080	0.002495	-0.002404	0.073975	-0.104492	-0.751953	1.918644	33.503342	136.633156
15363		-5.421500	0.272804	8.220416	-0.001477	0.001974	-0.000378	0.079102	-0.107910	-0.744629	1.919370	33.500531	136.633769
15364		-5.446070	0.205264	8.182523	-0.000060	0.004240	-0.002616	0.076416	-0.105713	-0.751465	1.919987	33.499186	136.631907
15365		-5.425824	0.212639	8.171556	0.000924	0.006645	0.002139	0.067627	-0.106201	-0.748047	1.923102	33.499002	136.634355
15366		-5.404933	0.302653	8.218534	0.002240	0.003878	0.005838	0.075684	-0.104004	-0.744629	1.928236	33.497133	136.639302
15367		-5.468926	0.279266	8.190506	-0.004432	0.005922	-0.001134	0.079590	-0.103027	-0.751953	1.927032	33.496597	136.639486
15368		-5.430091	0.235099	8.180247	-0.000332	0.005171	0.001057	0.079346	-0.097168	-0.752686	1.928807	33.495759	136.641563
15369		-5.430581	0.235134	8.179920	-0.000443	0.006895	0.001409	0.066895	-0.107178	-0.753662	1.930865	33.495732	136.643515
15370		-5.467295	0.256862	8.180059	-0.000221	0.003448	0.000704	0.082764	-0.105957	-0.750977	1.932500	33.493749	136.647360
15371		-5.428366	0.212841	8.169863	-0.001699	0.005422	0.000326	0.074951	-0.109619	-0.759521	1.933409	33.492899	136.648535
15372		-5.468135	0.256924	8.179496	0.002291	0.006395	0.002870	0.076416	-0.105469	-0.746582	1.937489	33.492742	136.650178
15373		-5.442106	0.219864	8.149311	-0.003559	0.010051	0.003973	0.071533	-0.107666	-0.746582	1.938773	33.494471	136.653965
15374		-5.477414	0.243059	8.209145	0.001747	0.002676	0.003461	0.071289	-0.100098	-0.755371	1.942730	33.492037	136.656222
15375		-5.469452	0.257587	8.178595	0.003989	0.000973	0.002544	0.071289	-0.106934	-0.751953	1.947681	33.488596	136.658816
15376		-5.457094	0.251133	8.198214	0.001035	0.004922	0.001787	0.073242	-0.098389	-0.749756	1.950505	33.487375	136.663062
15377		-5.412944	0.243803	8.167192	0.002622	0.001223	0.001814	0.075439	-0.106445	-0.756104	1.954398	33.484091	136.665159
15378		-5.446307	0.243554	8.158004	0.001094	0.000681	0.004404	0.073730	-0.098389	-0.755615	1.958149	33.480501	136.671190
15379		-5.472999	0.281072	8.187723	0.002733	-0.000501	0.001461	0.070557	-0.106934	-0.755859	1.961949	33.476237	136.673005
15380		-5.487569	0.229484	8.179393	0.001315	-0.002767	0.003699	0.075195	-0.100342	-0.755615	1.965516	33.470608	136.679058
15381		-5.382237	0.268113	8.186082	0.005525	-0.005242	0.005539	0.068604	-0.104980	-0.753662	1.972397	33.463548	136.683560
15382		-5.440180	0.281613	8.137718	0.002411	-0.007668	0.001348	0.077881	-0.104248	-0.746094	1.975640	33.455161	136.687777
15383		-5.432068	0.238566	8.178834	-0.001851	-0.007709	0.002477	0.077637	-0.105469	-0.740967	1.977102	33.446748	136.690117
15384		-5.467706	0.260092	8.179682	-0.002181	-0.008119	-0.003221	0.062744	-0.110107	-0.745361	1.976074	33.438430	136.687325
15385		-5.418049	0.231404	8.199572	-0.000866	-0.010886	0.000478	0.078857	-0.103271	-0.745361	1.977302	33.428238	136.688217
15386		-5.466054	0.259843	8.180795	-0.000102	-0.010614	-0.000817	0.069336	-0.106201	-0.751953	1.978414	33.418206	136.687402
15387		-5.332053	0.262060	8.217783	-0.000977	-0.009161	0.000830	0.070557	-0.110596	-0.747803	1.979734	33.408995	136.688576
15388		-5.446811	0.289375	8.180689	0.000551	-0.008619	-0.001760	0.074707	-0.108398	-0.749268	1.980925	33.400089	136.686957
15389		-5.468997	0.223094	8.203160	-0.005187	-0.006686	-0.001008	0.071533	-0.111084	-0.744873	1.979170	33.392331	136.686928
15390		-5.450723	0.252456	8.202410	-0.000323	-0.007166	-0.000113	0.076172	-0.100830	-0.750244	1.980542	33.384349	136.684786
15391		-5.426462	0.237637	8.182582	0.003938	-0.007124	-0.001244	0.074951	-0.096436	-0.753662	1.983921	33.376345	136.684585
15392		-5.408186	0.267364	8.181818	0.000441	-0.006894	-0.001408	0.068115	-0.113281	-0.746094	1.984860	33.368638	136.688185
15393		-5.418605	0.275475	8.222236	-0.000213	-0.008889	-0.000465	0.076660	-0.107422	-0.751465	1.986131	33.359608	136.688475
15394		-5.414927	0.253002	8.213161	-0.002183	-0.008117	-0.003220	0.071045	-0.107178	-0.753174	1.985265	33.351125	136.684138
15395		-5.390607	0.237644	8.193380	-0.003550	-0.007867	-0.003950	0.067383	-0.111084	-0.753906	1.983323	33.342750	136.682064
15396		-5.408465	0.288612	8.193178	-0.000706	-0.010090	-0.002843	0.067139	-0.101074	-0.748291	1.983369	33.333018	136.679763
15397		-5.379564	0.252581	8.223633	-0.000926	-0.006643	-0.002138	0.067383	-0.104492	-0.744873	1.983629	33.325307	136.678960
15398		-5.412379	0.251733	8.214879	-0.000003	-0.005579	-0.006755	0.071289	-0.102051	-0.749268	1.982497	33.318210	136.677012
15399		-5.408924	0.228957	8.205663	-0.005791	-0.006164	-0.003032	0.064453	-0.100098	-0.750244	1.979641	33.310792	136.675609
15400		-5.416188	0.271656	8.165184	-0.001861	-0.000952	-0.003107	0.068848	-0.104736	-0.741943	1.978810	33.306296	136.677519
15401		-5.411354	0.250338	8.215597	-0.002897	-0.005871	-0.004894	0.066895	-0.105957	-0.748291	1.976916	33.299081	136.674848
15402		-5.385109	0.293670	8.184335	-0.002293	-0.006392	-0.002868	0.070557	-0.104492	-0.750977	1.976012	33.291480	136.673656
15403		-5.364360	0.243285	8.245160	-0.002787	-0.007594	-0.005246	0.072266	-0.099854	-0.748291	1.974028	33.283286	136.670704
15404		-5.422456	0.255833	8.196877	-0.000877	-0.004126	-0.005107	0.073975	-0.105957	-0.743896	1.972993	33.277146	136.669841
15405		-5.388550	0.255896	8.206358	-0.003934	-0.010789	-0.006680	0.065674	-0.104736	-0.750000	1.969772	33.267150	136.665833
15406		-5.408757	0.247964	8.217379	-0.003992	-0.000973	-0.002540	0.073486	-0.107666	-0.760742	1.968077	33.262721	136.664819
15407		-5.354419	0.255565	8.215993	0.000710	-0.007822	-0.005083	0.073730	-0.103027	-0.749756	1.968157	33.254393	136.661975
15408		-5.354294	0.255382	8.216080	0.000701	0.004511	-0.003912	0.075684	-0.107422	-0.744629	1.968658	33.253242	136.660677
15409		-5.430772	0.238563	8.168502	-0.000604	0.000522	-0.002025	0.075684	-0.112549	-0.748291	1.969241	33.249631	136.660124
15410		-5.416562	0.233137	8.248012	0.002130	0.000022	-0.000566	0.072998	-0.097168	-0.749756	1.971934	33.245934	136.656783
15411		-5.411548	0.269849	8.227068	0.003992	0.000973	0.002540	0.077148	-0.106445	-0.743652	1.976869	33.242491	136.659366
15412		-5.449928	0.233389	8.238884	0.006995	-0.000457	0.000326	0.073242	-0.100830	-0.743164	1.982416	33.238495	136.661521
15413		-5.408595	0.248709	8.217463	0.006122	0.000995	0.001974	0.076416	-0.109375	-0.756592	1.988359	33.235076	136.663715
15414		-5.408718	0.249087	8.217371	0.002783	0.002016	-0.001510	0.069092	-0.101807	-0.753906	1.990924	33.232511	136.663302
15415		-5.416720	0.235406	8.247844	0.006947	-0.002973	0.003295	0.071777	-0.108643	-0.751221	1.997782	33.226794	136.666305
15416		-5.362553	0.244177	8.246309	0.008967	-0.001228	0.003081	0.074219	-0.110107	-0.747070	2.005572	33.222124	136.669998
15417		-5.379715	0.272899	8.176326	0.011591	-0.000004	0.004892	0.072998	-0.110107	-0.752197	2.015727	33.218074	136.674163
15418		-5.405646	0.230306	8.207785	0.009130	0.005144	0.006514	0.066650	-0.106934	-0.754639	2.025131	33.217095	136.676748
15419		-5.372781	0.232223	8.216524	0.013121	0.006119	0.009054	0.072510	-0.110840	-0.749756	2.037804	33.216465	136.683909
15420		-5.391903	0.285121	8.215426	0.011484	0.007300	0.011998	0.074951	-0.104736	-0.750488	2.050595	33.216466	136.692111
15421		-5.435156	0.270666	8.176803	0.014817	0.000701	0.008729	0.068848	-0.109375	-0.752441	2.064044	33.212738	136.698915
15422		-5.389113	0.266084	8.205665	0.012907	-0.002766	0.008592	0.068604	-0.104980	-0.754883	2.076165	33.207129	136.705279
15423		-5.418596	0.326893	8.244974	0.009459	-0.000023	0.005459	0.070801	-0.099121	-0.754150	2.085307	33.203052	136.709825
15424		-5.346007	0.284622	8.244046	0.011589	-0.000002	0.004893	0.068115	-0.106201	-0.762451	2.095152	33.199031	136.717417
15425		-5.313002	0.286277	8.252884	0.009179	0.007662	0.003543	0.069824	-0.111816	-0.746338	2.103519	33.199393	136.720842
15426		-5.436625	0.219606	8.247180	0.010869	0.014577	0.004381	0.069336	-0.108154	-0.744385	2.113178	33.203696	136.724661
15427		-5.363188	0.236198	8.234012	0.015623	0.015825	0.005626	0.071045	-0.105713	-0.748535	2.126132	33.208687	136.729720
15428		-5.331980	0.319388	8.240288	0.014698	0.014766	0.010244	0.074463	-0.105225	-0.749512	2.140142	33.213038	136.737601
15429		-5.436063	0.316099	8.092751	0.009722	0.011382	0.002949	0.069824	-0.105713	-0.753906	2.148651	33.215540	136.740717
15430		-5.444473	0.302874	8.122973	0.006943	-0.002969	0.003300	0.074951	-0.107910	-0.746826	2.155284	33.209935	136.744810
15431		-5.402745	0.343196	8.230736	0.001476	-0.001973	0.000380	0.066406	-0.106201	-0.748291	2.157918	33.204846	136.745824
15432		-5.366090	0.321529	8.230570	-0.000324	-0.007165	-0.000107	0.066650	-0.110840	-0.745361	2.159120	33.196875	136.746270
15433		-5.407117	0.306793	8.252195	-0.001257	-0.001475	-0.001081	0.074219	-0.108887	-0.755371	2.159647	33.192103	136.746297
15434		-5.431297	0.239257	8.214738	0.000220	-0.003447	-0.000701	0.075439	-0.104492	-0.752197	2.161068	33.186258	136.745248
15435		-5.385191	0.233300	8.243725	0.003336	-0.001017	0.003486	0.068848	-0.108154	-0.755615	2.165942	33.181649	136.748411
15436		-5.316468	0.293789	8.250388	0.007216	0.001683	0.006378	0.072510	-0.107910	-0.746582	2.173957	33.178647	136.754595
15437		-5.322215	0.258395	8.270924	0.007975	0.014290	0.006240	0.061035	-0.111084	-0.755859	2.182738	33.182741	136.760038
15438		-5.280130	0.332848	8.237083	0.007105	0.021333	0.014636	0.065918	-0.102783	-0.748047	2.194188	33.190627	136.771077
15439		-5.335939	0.326167	8.237459	0.008954	0.023452	0.005402	0.072021	-0.104248	-0.750488	2.203350	33.199983	136.776190
15440		-5.411145	0.288163	8.179155	0.005185	0.024618	0.008908	0.068604	-0.110596	-0.742432	2.211415	33.209958	136.786349
15441		-5.387903	0.275564	8.217433	0.006823	0.023435	0.005967	0.070557	-0.111572	-0.747314	2.219571	33.219291	136.791853
15442		-5.424785	0.299709	8.276145	0.005728	0.028341	0.008314	0.071289	-0.102051	-0.753418	2.228037	33.231422	136.796758
15443		-5.467147	0.262390	8.226594	0.008239	0.031295	0.010477	0.064697	-0.110352	-0.745117	2.238816	33.245153	136.805563
15444		-5.420894	0.235380	8.244306	0.012225	0.032276	0.013021	0.070801	-0.108154	-0.750977	2.252663	33.259361	136.817616
15445		-5.400653	0.303329	8.220308	0.019106	0.033548	0.013708	0.072021	-0.118408	-0.748291	2.270925	33.274306	136.828706
15446		-5.493142	0.294027	8.091461	0.015392	0.024886	0.013085	0.072510	-0.110352	-0.746338	2.286715	33.284370	136.836267
15447		-5.445728	0.267455	8.109974	0.014739	0.010547	0.012877	0.067139	-0.104248	-0.746094	2.301827	33.286160	136.846169
15448		-5.517556	0.314195	8.169771	0.011628	0.008113	0.008687	0.072754	-0.109863	-0.750732	2.313377	33.286680	136.853722
15449		-5.390779	0.362460	8.225082	0.012557	0.002419	0.009666	0.077148	-0.110840	-0.749512	2.325908	33.283888	136.861200
15450		-5.384398	0.238540	8.208009	0.012937	0.005354	0.012392	0.075439	-0.111084	-0.746094	2.339613	33.282902	136.869354
15451		-5.378240	0.278242	8.246398	0.013426	0.006563	0.014768	0.074707	-0.108887	-0.748535	2.354622	33.282359	136.880442
15452		-5.377191	0.256413	8.176770	0.014514	0.007256	0.019172	0.071045	-0.108398	-0.749756	2.371798	33.282311	136.893272
15453		-5.370132	0.353782	8.143777	0.019483	0.005055	0.019726	0.074219	-0.110352	-0.750488	2.392116	33.280781	136.907711
15454		-5.478158	0.340475	8.146608	0.014080	-0.003788	0.012675	0.078857	-0.106201	-0.744873	2.406394	33.274468	136.917042
15455		-5.341004	0.404465	8.231679	0.009818	-0.003825	0.013800	0.071777	-0.104004	-0.757568	2.418804	33.267992	136.927164
15456		-5.383756	0.389527	8.193236	0.005840	0.001941	0.005655	0.067627	-0.113525	-0.749512	2.425652	33.265228	136.934250
15457		-5.394479	0.317716	8.235152	0.006497	0.003935	0.004709	0.065674	-0.113281	-0.740479	2.432866	33.263412	136.938370
15458		-5.412674	0.289182	8.236062	0.009607	0.006374	0.008899	0.070557	-0.110352	-0.751953	2.443482	33.262811	136.943406
15459		-5.358046	0.299996	8.293809	0.012666	0.013049	0.010463	0.066895	-0.114990	-0.751221	2.456538	33.266070	136.951732
15460		-5.340042	0.307387	8.222448	0.014084	0.020918	0.014965	0.075928	-0.105225	-0.740479	2.472164	33.273698	136.962482
15461		-5.324077	0.338833	8.219966	0.013268	0.024888	0.013634	0.072510	-0.113770	-0.747559	2.486953	33.283651	136.973334
15462		-5.384362	0.353684	8.169695	0.013864	0.024376	0.015662	0.073730	-0.103760	-0.750000	2.502683	33.293450	136.984955
15463		-5.328238	0.342637	8.217112	0.012939	0.030074	0.014679	0.068359	-0.105957	-0.748047	2.517769	33.306341	136.996687
15464		-5.403314	0.387786	8.215696	0.008201	0.035574	0.007823	0.073975	-0.109863	-0.739502	2.527331	33.322613	137.007316
15465		-5.378369	0.353191	8.243986	0.007811	0.038251	0.011842	0.073486	-0.108154	-0.747070	2.538559	33.340253	137.017363
15466		-5.366850	0.406211	8.249953	0.005523	0.044202	0.010123	0.074707	-0.108398	-0.755615	2.547756	33.361493	137.026346
15467		-5.367293	0.303871	8.240192	0.006023	0.052166	0.006898	0.070068	-0.116699	-0.750244	2.556342	33.387221	137.033441
15468		-5.442260	0.324734	8.168392	0.012132	0.053175	0.008891	0.076172	-0.105957	-0.756348	2.569099	33.413523	137.041475
15469		-5.362072	0.356325	8.183026	0.004104	0.048709	0.006762	0.074951	-0.113281	-0.750000	2.576489	33.437273	137.048385
15470		-5.389837	0.372072	8.200340	0.005044	0.049763	0.002146	0.074219	-0.102051	-0.749268	2.582479	33.461887	137.053212
15471		-5.445148	0.342585	8.189354	0.006360	0.053761	0.000255	0.070801	-0.113281	-0.748047	2.588795	33.488696	137.055824
15472		-5.362291	0.351060	8.194574	0.000731	0.053983	0.000633	0.081299	-0.107422	-0.746094	2.591787	33.515649	137.060885
15473		-5.452679	0.263991	8.245325	0.005913	0.060696	0.001647	0.078369	-0.110840	-0.749512	2.598501	33.546391	137.064677
15474		-5.434964	0.248122	8.162252	0.011729	0.062657	0.007321	0.072754	-0.103027	-0.744873	2.610517	33.578366	137.072651
15475		-5.489188	0.359157	8.136510	0.013567	0.063635	0.010436	0.082031	-0.113281	-0.747559	2.625022	33.610560	137.082591
15476		-5.464839	0.381774	8.092156	0.010400	0.058688	0.009213	0.073975	-0.110107	-0.750977	2.636926	33.640100	137.092741
15477		-5.345106	0.371089	8.157264	0.012159	0.055769	0.005935	0.078857	-0.110596	-0.742920	2.648792	33.667907	137.099360
15478		-5.482192	0.452622	8.173693	0.006484	0.058849	-0.005694	0.080078	-0.118896	-0.743164	2.652856	33.697864	137.098476
15479		-5.408258	0.446465	8.209461	-0.004186	0.057386	-0.012299	0.082520	-0.113525	-0.748291	2.648433	33.727078	137.092610
15480		-5.503139	0.378479	8.209250	-0.004857	0.066401	-0.019586	0.082031	-0.105225	-0.749756	2.641001	33.761863	137.078184
15481		-5.506221	0.352765	8.136598	-0.006476	0.061983	-0.023397	0.081299	-0.112549	-0.749023	2.631085	33.793999	137.064808
15482		-5.481215	0.374027	8.152115	-0.004058	0.062448	-0.018246	0.072998	-0.118408	-0.743652	2.624275	33.826465	137.056169
15483		-5.536568	0.261706	8.142663	-0.006044	0.056462	-0.015414	0.084717	-0.110596	-0.749512	2.617550	33.855229	137.048101
15484		-5.541661	0.341377	8.137308	-0.006122	0.053956	-0.012438	0.075195	-0.104492	-0.744385	2.611837	33.882549	137.039929
15485		-5.543133	0.317918	8.124904	-0.002558	0.056252	-0.015219	0.079590	-0.114990	-0.755127	2.607167	33.911187	137.031975
15486		-5.530232	0.427126	8.118672	-0.008509	0.049272	-0.014962	0.086426	-0.117188	-0.751465	2.598857	33.935809	137.025506
15487		-5.536592	0.366911	8.127775	-0.008756	0.044597	-0.018035	0.084473	-0.109619	-0.751709	2.589334	33.957847	137.015232
15488		-5.507174	0.365496	8.134988	-0.012838	0.045350	-0.020261	0.078857	-0.105469	-0.743652	2.576510	33.980611	137.001885
15489		-5.513060	0.306497	8.203852	-0.010161	0.049113	-0.021402	0.079590	-0.109131	-0.748291	2.564945	34.005318	136.989409
15490		-5.485687	0.465138	8.146609	-0.012959	0.047100	-0.019913	0.088379	-0.108154	-0.740234	2.552049	34.028852	136.980138
15491		-5.416210	0.340150	8.206698	-0.011643	0.051114	-0.021795	0.081299	-0.117188	-0.739014	2.539497	34.054709	136.967433
15492		-5.546846	0.290946	8.146241	-0.015065	0.053873	-0.024966	0.082520	-0.112793	-0.750977	2.523735	34.082433	136.949864
15493		-5.545198	0.242259	8.064919	-0.013862	0.048591	-0.018275	0.087646	-0.113037	-0.741211	2.511209	34.106752	136.939491
15494		-5.557645	0.226683	8.092748	-0.004896	0.043118	-0.012472	0.087402	-0.110107	-0.742676	2.505897	34.127959	136.931001
15495		-5.617985	0.240385	8.100475	-0.000549	0.034649	-0.008309	0.091064	-0.116699	-0.746826	2.504618	34.144047	136.927087
15496		-5.564789	0.389451	8.143938	0.021307	0.034704	-0.020730	0.084473	-0.109619	-0.742676	2.510973	34.160777	136.911658
15497		-5.550446	0.414822	8.021570	-0.014177	0.033244	-0.022159	0.087158	-0.113525	-0.749512	2.496476	34.176407	136.898118
15498		-5.504415	0.384376	8.040516	-0.007693	0.024794	-0.018536	0.075439	-0.107422	-0.751221	2.486833	34.187264	136.885859
15499		-5.391622	0.358401	8.198721	-0.014063	0.031518	-0.022506	0.091064	-0.110596	-0.752930	2.472225	34.201910	136.872014
15500		-5.553487	0.308442	8.129128	-0.012630	0.033799	-0.024733	0.085938	-0.110596	-0.747559	2.457384	34.217944	136.858336
15501		-5.538659	0.335724	8.126358	-0.009837	0.035834	-0.026213	0.085938	-0.111816	-0.750488	2.443812	34.235146	136.842038
15502		-5.529654	0.326903	8.144383	-0.001024	0.039247	-0.034669	0.087646	-0.109619	-0.750000	2.431911	34.254622	136.819478
15503		-5.565864	0.322457	8.072815	0.000081	0.030423	-0.043397	0.076172	-0.104248	-0.738525	2.417214	34.269137	136.791103
15504		-5.702453	0.479220	8.027313	-0.002400	0.027457	-0.045586	0.083984	-0.109131	-0.742188	2.399946	34.281979	136.763144
15505		-5.755986	0.003569	7.989360	-0.014003	0.010958	-0.027436	0.084717	-0.107910	-0.750977	2.383073	34.284955	136.745248
15506		-5.630215	0.269077	8.031369	-0.010815	0.000620	-0.015342	0.086182	-0.112793	-0.746338	2.372380	34.281771	136.736426
15507		-5.453403	0.346403	8.158605	-0.011812	-0.004338	-0.017134	0.086182	-0.114502	-0.746582	2.360536	34.275740	136.725228
15508		-5.491971	0.305999	8.110059	-0.010695	-0.001113	-0.015690	0.087158	-0.105225	-0.745117	2.349925	34.271628	136.712649
15509		-5.528128	0.325824	8.109747	-0.011813	-0.004335	-0.017134	0.093750	-0.110840	-0.756104	2.338085	34.265596	136.701455
15510		-5.527054	0.244738	8.171709	-0.008146	0.004394	-0.016471	0.086670	-0.105957	-0.748779	2.328499	34.264801	136.691740
15511		-5.614538	0.233204	8.102228	-0.007375	0.001763	-0.005766	0.083496	-0.110596	-0.751953	2.323734	34.261993	136.688596
15512		-5.638807	0.247366	8.121787	-0.002982	0.000077	-0.007194	0.085693	-0.110352	-0.748779	2.320690	34.258316	136.685637
15513		-5.542877	0.269622	8.101114	-0.001698	-0.002702	-0.003477	0.078369	-0.109375	-0.745605	2.320000	34.252899	136.683953
15514		-5.606402	0.326651	8.070104	-0.001652	-0.006968	-0.000855	0.085938	-0.116943	-0.746582	2.320160	34.244946	136.684194
15515		-5.628736	0.258790	8.032744	-0.002284	-0.017133	-0.003695	0.080811	-0.107422	-0.744873	2.318822	34.231272	136.681955
15516		-5.597138	0.281374	8.053259	-0.005565	-0.027176	0.000994	0.092285	-0.108643	-0.747559	2.317220	34.211770	136.681106
15517		-5.532632	0.385302	8.082082	-0.007242	-0.038028	-0.006260	0.081055	-0.114746	-0.754639	2.311718	34.186192	136.676509
15518		-5.519602	0.318739	8.115834	-0.012560	-0.038766	-0.009592	0.085938	-0.105713	-0.749512	2.301759	34.160419	136.668471
15519		-5.383987	0.320050	8.157421	-0.008049	-0.042179	-0.011372	0.079346	-0.109863	-0.747070	2.293755	34.132581	136.660234
15520		-5.542178	0.213813	8.162657	-0.009451	-0.025624	-0.004561	0.090332	-0.110107	-0.739990	2.287643	34.114108	136.658400
15521		-5.585396	0.219181	8.134211	-0.003551	-0.025403	0.000801	0.079102	-0.110107	-0.750732	2.287207	34.095595	136.659054
15522		-5.507504	0.153974	8.126934	0.004053	-0.022483	0.009638	0.083740	-0.106689	-0.750244	2.294469	34.078697	136.664914
15523		-5.539779	0.235490	8.116275	0.008403	-0.022809	0.017574	0.083496	-0.108398	-0.740723	2.307412	34.061284	136.677226
15524		-5.592809	0.310126	8.115953	0.009106	-0.025062	0.019257	0.087158	-0.110840	-0.750732	2.321149	34.042665	136.691353
15525		-5.546097	0.386603	8.145260	0.006400	-0.032711	0.013991	0.082764	-0.111084	-0.745361	2.331389	34.019662	136.700897
15526		-5.516630	0.431105	8.116152	-0.000923	-0.043354	0.007082	0.085693	-0.108887	-0.748047	2.334466	33.990905	136.704207
15527		-5.587059	0.334650	8.131446	-0.007535	-0.041313	0.000043	0.081543	-0.105957	-0.749023	2.331191	33.963302	136.703870
15528		-5.510648	0.289404	8.075178	-0.005365	-0.060477	0.003935	0.075928	-0.111328	-0.752686	2.330118	33.924797	136.706830
15529		-5.414787	0.278687	8.197639	-0.004951	-0.054995	0.003695	0.078857	-0.111084	-0.750000	2.329517	33.889276	136.708632
15530		-5.461518	0.246695	8.132065	-0.003594	-0.055234	0.004439	0.082275	-0.109863	-0.748779	2.329869	33.853553	136.710840
15531		-5.448073	0.262569	8.164416	-0.000058	-0.051566	0.011035	0.080811	-0.102783	-0.750244	2.334938	33.819823	136.717794
15532		-5.518786	0.248202	8.178175	0.007280	-0.049063	0.014156	0.071289	-0.106689	-0.747559	2.345157	33.787605	136.728834
15533		-5.490864	0.235018	8.160972	0.013728	-0.045100	0.018914	0.078613	-0.113525	-0.753662	2.361226	33.757390	136.741376
15534		-5.482684	0.354531	8.140364	0.014313	-0.045613	0.020946	0.079590	-0.114990	-0.752441	2.378241	33.726765	136.755906
15535		-5.466638	0.349989	8.162780	0.013133	-0.044565	0.016885	0.084229	-0.114746	-0.746582	2.393175	33.696899	136.767037
15536		-5.526096	0.328102	8.136573	0.008575	-0.045025	0.012283	0.075928	-0.117432	-0.757813	2.403709	33.667093	136.771630
15537		-5.458998	0.352957	8.167764	0.006788	-0.050235	0.011786	0.072998	-0.112793	-0.754150	2.412951	33.634099	136.779068
15538		-5.400868	0.361858	8.169641	0.005905	-0.050129	0.004056	0.077881	-0.110596	-0.749268	2.418720	33.601305	136.779590
15539		-5.258344	0.402698	8.249122	0.001535	-0.041664	-0.000090	0.067627	-0.110352	-0.746094	2.420562	33.573505	136.779104
15540		-5.278590	0.336594	8.272899	-0.003299	-0.026279	-0.002839	0.073730	-0.110840	-0.752441	2.418698	33.554534	136.777501
15541		-5.451053	0.236652	8.199101	0.000272	-0.015847	-0.001849	0.072021	-0.113525	-0.751221	2.419562	33.541554	136.776557
15542		-5.459927	0.302064	8.168418	0.001337	-0.015154	0.002561	0.069336	-0.104004	-0.747803	2.422618	33.528828	136.778385
15543		-5.430862	0.266610	8.199730	0.002879	-0.014611	-0.000021	0.076660	-0.105713	-0.750488	2.425689	33.516511	136.778731
15544		-5.409758	0.355420	8.187915	0.006669	-0.014414	0.005867	0.075195	-0.106445	-0.747559	2.432821	33.504168	136.786906
15545		-5.471885	0.332652	8.160172	0.005191	-0.012435	0.005477	0.072510	-0.105713	-0.750488	2.439332	33.492963	136.791085
15546		-5.485386	0.281354	8.152486	0.004715	-0.013646	0.003098	0.069336	-0.111084	-0.748047	2.444341	33.481169	136.796483
15547		-5.453855	0.305058	8.172361	0.007721	-0.021851	0.006503	0.078125	-0.107666	-0.751221	2.452535	33.464548	136.801087
15548		-5.403987	0.358439	8.191593	0.003916	-0.028816	0.006213	0.080078	-0.108154	-0.749512	2.458120	33.443995	136.806271
15549		-5.419473	0.329401	8.194078	0.003093	-0.024835	0.004880	0.069336	-0.113037	-0.746826	2.462994	33.425705	136.809667
15550		-5.390627	0.374940	8.223607	-0.000455	-0.020360	0.002070	0.073486	-0.112793	-0.742432	2.464683	33.410152	136.811141
15551		-5.298788	0.361410	8.223670	0.003581	-0.016853	0.001662	0.065674	-0.107178	-0.737793	2.468747	33.396511	136.812563
15552		-5.402738	0.323329	8.216869	-0.000133	-0.006401	-0.003424	0.074951	-0.115479	-0.747559	2.468808	33.388936	136.810679
15553		-5.423774	0.314434	8.167993	0.002529	-0.009415	0.001026	0.068604	-0.107422	-0.752930	2.472150	33.379568	136.811883
15554		-5.410879	0.308172	8.188252	0.005565	-0.002720	0.002604	0.073975	-0.103516	-0.741943	2.477798	33.374008	136.814419
15555		-5.473909	0.285371	8.160057	0.007520	-0.003486	0.005372	0.080078	-0.103516	-0.752686	2.485733	33.367926	136.818776
15556		-5.379283	0.252128	8.209649	0.012969	-0.004476	0.008325	0.079346	-0.111328	-0.756836	2.497468	33.361441	136.828803
15557		-5.380029	0.334748	8.207477	0.015235	0.001948	0.011195	0.068359	-0.102295	-0.761475	2.512105	33.358322	136.837310
15558		-5.443666	0.313069	8.178850	0.014891	0.007139	0.012239	0.076172	-0.104492	-0.741943	2.526668	33.358228	136.850587
15559		-5.279133	0.398938	8.223487	0.017972	0.008221	0.007073	0.067139	-0.114258	-0.750732	2.541423	33.358800	136.856458
15560		-5.310077	0.460014	8.261532	0.009569	0.013166	0.003338	0.078369	-0.112305	-0.750244	2.549834	33.362336	136.860859
15561		-5.341840	0.437455	8.241572	0.001835	0.026875	-0.006941	0.081787	-0.111084	-0.747070	2.550375	33.373942	136.857696
15562		-5.331204	0.349329	8.262113	-0.002532	0.035328	-0.011088	0.083740	-0.118164	-0.755127	2.546821	33.390816	136.850543
15563		-5.425514	0.360508	8.201170	-0.005602	0.041018	-0.011522	0.072998	-0.118164	-0.749023	2.541606	33.410634	136.844667
15564		-5.458019	0.255547	8.182360	-0.007031	0.038752	-0.009287	0.070557	-0.108643	-0.744873	2.536412	33.429314	136.836008
15565		-5.489007	0.372945	8.207347	-0.001175	0.035094	-0.010346	0.075928	-0.114746	-0.747559	2.534072	33.445710	136.830752
15566		-5.480040	0.363710	8.165826	-0.007113	0.028105	-0.010083	0.077637	-0.117676	-0.747803	2.528177	33.458141	136.825137
15567		-5.460549	0.289023	8.156169	-0.006408	0.025858	-0.008400	0.073730	-0.111084	-0.745850	2.523416	33.469201	136.820932
15568		-5.519749	0.302481	8.165082	-0.004160	0.024153	-0.009299	0.076660	-0.113281	-0.747559	2.519517	33.479418	136.813947
15569		-5.464317	0.287562	8.153697	-0.000681	0.017159	-0.003510	0.071045	-0.115723	-0.745117	2.519742	33.485375	136.812833
15570		-5.501775	0.309211	8.152752	0.002980	0.010953	-0.001043	0.074463	-0.112793	-0.738770	2.522848	33.487757	136.811341
15571		-5.436241	0.310744	8.171339	0.003686	0.008704	0.000640	0.069824	-0.115723	-0.745361	2.527006	33.488770	136.812820
15572		-5.343794	0.357626	8.218303	0.003569	0.010435	0.000988	0.077393	-0.114502	-0.757080	2.531221	33.490760	136.812653
15573		-5.376120	0.415593	8.196205	-0.000848	0.023145	-0.005789	0.080322	-0.109375	-0.753662	2.530587	33.500200	136.810157
15574		-5.400897	0.349264	8.217127	-0.000499	0.017952	-0.006832	0.066895	-0.111572	-0.753174	2.529476	33.506878	136.807007
15575		-5.424263	0.339685	8.166547	-0.005939	0.027082	-0.006025	0.082520	-0.105957	-0.746826	2.525901	33.518578	136.804467
15576		-5.419935	0.295909	8.205844	-0.004979	0.036286	-0.006865	0.080078	-0.103271	-0.746338	2.522457	33.535621	136.803503
15577		-5.475167	0.344135	8.133382	-0.005519	0.032555	-0.006271	0.078125	-0.104248	-0.746094	2.519118	33.550460	136.800957
15578		-5.317477	0.310572	8.200715	-0.000966	0.033029	-0.001667	0.075439	-0.111572	-0.749023	2.519743	33.565659	136.805105
15579		-5.366362	0.399106	8.226633	0.001353	0.041989	-0.001764	0.080811	-0.108887	-0.752441	2.522210	33.585785	136.805941
15580		-5.442140	0.359732	8.166239	-0.002261	0.043951	-0.001610	0.072021	-0.116699	-0.747803	2.522489	33.607158	136.807559
15581		-5.406321	0.315557	8.154698	-0.000247	0.045713	-0.001809	0.079834	-0.109619	-0.757568	2.524086	33.629416	136.808478
15582		-5.434196	0.330428	8.171890	0.001180	0.047996	-0.004038	0.079346	-0.111328	-0.751953	2.525572	33.653064	136.807609
15583		-5.534170	0.305898	8.130923	-0.004404	0.043944	-0.001064	0.070313	-0.104736	-0.748291	2.525043	33.674291	136.808988
15584		-5.482966	0.315382	8.187885	0.000733	0.035754	0.001806	0.072754	-0.119629	-0.749023	2.528157	33.690748	136.814401
15585		-5.495533	0.382241	8.214024	-0.001025	0.037316	-0.004290	0.074463	-0.106445	-0.748047	2.528222	33.708262	136.813361
15586		-5.525503	0.334999	8.123865	-0.002220	0.031575	-0.002757	0.072998	-0.112793	-0.758301	2.527997	33.722388	136.812882
15587		-5.473979	0.342716	8.121628	-0.001518	0.029325	-0.001072	0.075928	-0.120605	-0.747070	2.528874	33.735247	136.813813
15588		-5.496140	0.254418	8.132651	0.000663	0.025092	0.001008	0.074707	-0.111572	-0.750244	2.531717	33.745570	136.814304
15589		-5.543274	0.260791	8.101609	0.001102	0.019523	0.008985	0.070557	-0.112793	-0.747314	2.537777	33.752564	136.821862
15590		-5.541928	0.320590	8.089340	0.009708	0.004316	0.017656	0.076416	-0.112549	-0.742676	2.551702	33.750530	136.835340
15591		-5.473507	0.383768	8.156693	0.005201	0.007738	0.019439	0.074219	-0.112549	-0.745850	2.563909	33.750508	136.849736
15592		-5.503214	0.279950	8.079694	0.007189	0.002713	0.024841	0.085449	-0.103516	-0.745850	2.579125	33.747470	136.867093
15593		-5.458399	0.358508	8.167011	0.007232	-0.001544	0.027466	0.079590	-0.103271	-0.747070	2.595403	33.741922	136.886724
15594		-5.493665	0.300077	8.109318	0.012830	-0.008526	0.032721	0.083252	-0.113525	-0.752441	2.616362	33.732471	136.913172
15595		-5.465925	0.348238	8.138360	0.012872	-0.012780	0.035347	0.066406	-0.118652	-0.746338	2.638675	33.720274	136.937863
15596		-5.482184	0.323377	8.199700	0.012560	-0.011829	0.039016	0.078857	-0.111328	-0.744873	2.662181	33.708495	136.963518
15597		-5.466586	0.377002	8.149114	0.016210	-0.018040	0.041495	0.081299	-0.110352	-0.752441	2.688640	33.693105	136.992250
15598		-5.420060	0.374332	8.179564	0.016010	-0.007787	0.036590	0.074463	-0.116455	-0.751953	2.713073	33.683869	137.018293
15599		-5.467581	0.405840	8.159599	0.013056	-0.011973	0.032028	0.073486	-0.115723	-0.747314	2.734202	33.672189	137.040690
15600		-5.514336	0.356050	8.142019	0.009445	-0.010007	0.032176	0.078857	-0.108643	-0.744629	2.753288	33.661603	137.062038
15601		-5.423495	0.426984	8.199750	0.009246	-0.007916	0.023501	0.076172	-0.107666	-0.752197	2.769044	33.652468	137.078691
15602		-5.491682	0.368970	8.192216	0.002996	-0.002935	0.019186	0.081299	-0.113281	-0.755371	2.779370	33.646411	137.094699
15603		-5.512507	0.361153	8.143033	0.001400	-0.007373	0.015368	0.079346	-0.116943	-0.749268	2.787536	33.637808	137.105774
15604		-5.487903	0.429425	8.181317	-0.003998	-0.010632	0.015020	0.079590	-0.108154	-0.739014	2.792288	33.627529	137.115353
15605		-5.495623	0.333262	8.154747	-0.002369	-0.007576	0.009468	0.074707	-0.110107	-0.752686	2.796040	33.618972	137.122361
15606		-5.548634	0.325833	8.156025	-0.003346	-0.016784	0.010311	0.076660	-0.113525	-0.747559	2.799124	33.605241	137.131015
15607		-5.555793	0.310704	8.127943	-0.000795	-0.030472	0.013980	0.075195	-0.119141	-0.751221	2.805062	33.583455	137.140349
15608		-5.603995	0.281489	8.121067	0.002265	-0.036169	0.014426	0.067627	-0.106201	-0.751465	2.812740	33.558471	137.148206
15609		-5.564930	0.342018	8.121385	0.010213	-0.046593	0.018441	0.070068	-0.111328	-0.750244	2.826362	33.527331	137.160045
15610		-5.395757	0.427213	8.170118	0.010743	-0.051004	0.014080	0.068115	-0.115723	-0.752686	2.838271	33.493692	137.171747
15611		-5.202062	0.498489	8.258723	0.004491	-0.046018	0.009771	0.067383	-0.115234	-0.756348	2.845320	33.463123	137.177634
15612		-5.218773	0.412614	8.333125	-0.000229	-0.028101	0.004021	0.071533	-0.110352	-0.749268	2.847721	33.442853	137.180548
15613		-5.428211	0.416572	8.256322	0.002737	-0.012898	0.000347	0.075684	-0.112549	-0.747559	2.850819	33.431505	137.181095
15614		-5.526999	0.332690	8.170426	0.002171	-0.004231	0.002081	0.074707	-0.117676	-0.753174	2.854204	33.425156	137.183845
15615		-5.384788	0.350900	8.238590	0.007609	-0.005225	0.005049	0.066895	-0.114258	-0.751465	2.862013	33.418065	137.187876
15616		-5.426702	0.335665	8.199839	0.007609	-0.005225	0.005049	0.075195	-0.108887	-0.750488	2.869724	33.410972	137.191340
15617		-5.438543	0.343188	8.180065	0.007023	-0.004709	0.003017	0.070313	-0.104004	-0.749512	2.876437	33.404233	137.193993
15618		-5.414138	0.411457	8.217974	0.007023	-0.004709	0.003017	0.072266	-0.111816	-0.747314	2.882799	33.397575	137.200000
15619		-5.534384	0.401764	8.140125	0.006701	-0.011908	0.002921	0.068604	-0.116455	-0.749756	2.889152	33.386719	137.202336
15620		-5.520526	0.395430	8.161204	0.000729	-0.027045	-0.000584	0.073486	-0.116943	-0.754150	2.890338	33.367319	137.201653
15621		-5.428461	0.462522	8.159875	0.005505	-0.030036	0.003327	0.070068	-0.117188	-0.753418	2.895812	33.346077	137.203637
15622		-5.250440	0.399861	8.241249	-0.002541	-0.030276	-0.001469	0.072754	-0.112793	-0.746826	2.894779	33.324891	137.201318
15623		-5.184946	0.423070	8.271195	0.001275	-0.023307	-0.001181	0.068848	-0.113770	-0.745605	2.896258	33.307631	137.200446
15624		-5.339991	0.355116	8.255613	-0.004741	-0.001254	-0.001280	0.075195	-0.110107	-0.752930	2.894518	33.303053	137.200178
15625		-5.388665	0.383378	8.235259	-0.000924	0.005713	-0.000992	0.070068	-0.113037	-0.749512	2.895361	33.302394	137.200441
15626		-5.371451	0.412722	8.233795	-0.002509	0.009427	-0.001041	0.068359	-0.107666	-0.744385	2.895123	33.303967	137.201800
15627		-5.408081	0.353309	8.235312	-0.003320	0.013407	-0.002379	0.069824	-0.108887	-0.753662	2.894217	33.307751	137.201379
15628		-5.403610	0.389301	8.213543	-0.000601	0.012911	-0.000897	0.072021	-0.115479	-0.742676	2.895127	33.311222	137.204638
15629		-5.365808	0.425857	8.201488	-0.002509	0.009428	-0.001041	0.069092	-0.110352	-0.746582	2.895114	33.312689	137.204997
15630		-5.366899	0.425295	8.200804	-0.005191	0.016687	-0.008128	0.070557	-0.113525	-0.755371	2.890882	33.318574	137.200554
15631		-5.467656	0.422784	8.171171	-0.007685	0.013719	-0.010305	0.067871	-0.115723	-0.744385	2.884499	33.322765	137.194716
15632		-5.423467	0.415539	8.200029	-0.003531	0.015490	-0.011055	0.071533	-0.110840	-0.746582	2.880124	33.327994	137.188269
15633		-5.334557	0.400292	8.198706	-0.008385	0.015969	-0.011990	0.070313	-0.114014	-0.749756	2.872747	33.333519	137.181353
15634		-5.411372	0.382305	8.149294	-0.007498	0.014505	-0.013627	0.075439	-0.111816	-0.751465	2.865056	33.338308	137.173651
15635		-5.448005	0.321919	8.150754	-0.007347	0.008523	-0.011345	0.073730	-0.115234	-0.746826	2.858375	33.339553	137.166919
15636		-5.460435	0.329438	8.190049	-0.002796	0.008996	-0.006740	0.067383	-0.113281	-0.750732	2.855882	33.341087	137.162824
15637		-5.449805	0.401358	8.147671	-0.006327	0.002460	-0.001332	0.073242	-0.112549	-0.744873	2.853441	33.338576	137.162744
15638		-5.407826	0.416704	8.186483	-0.011407	0.006404	-0.001574	0.064697	-0.113037	-0.755371	2.847913	33.338363	137.162783
15639		-5.444300	0.437250	8.186101	-0.012595	-0.000713	-0.009405	0.074219	-0.112549	-0.739014	2.838783	33.334266	137.157066
15640		-5.479830	0.376589	8.188272	-0.013256	-0.002713	-0.008462	0.075684	-0.112305	-0.743408	2.829440	33.329011	137.152106
15641		-5.506928	0.410611	8.158028	-0.014632	-0.010612	-0.012972	0.070557	-0.111572	-0.750244	2.817618	33.319347	137.143614
15642		-5.274664	0.410582	8.166330	-0.015218	-0.010094	-0.015004	0.073730	-0.110352	-0.745850	2.804530	33.310162	137.133668
15643		-5.333577	0.446817	8.246167	-0.019111	-0.008561	-0.020551	0.069824	-0.116943	-0.753906	2.787337	33.301880	137.120062
15644		-5.356692	0.296025	8.210867	-0.013697	0.002844	-0.016440	0.077393	-0.112061	-0.746582	2.774868	33.300091	137.109195
15645		-5.287953	0.355443	8.277982	-0.011246	0.010065	-0.016886	0.075195	-0.115967	-0.754150	2.763901	33.302362	137.098721
15646		-5.418923	0.329253	8.229179	-0.010029	0.023949	-0.014651	0.072754	-0.107666	-0.753418	2.754586	33.312722	137.088957
15647		-5.444618	0.260559	8.190216	-0.000092	0.019530	-0.013474	0.070557	-0.108154	-0.737061	2.751462	33.320314	137.081129
15648		-5.441346	0.377213	8.165980	-0.000469	0.017958	-0.006832	0.065918	-0.109619	-0.749512	2.750328	33.326911	137.079352
15649		-5.400378	0.392865	8.204173	0.000838	0.013816	-0.012486	0.076416	-0.115967	-0.745605	2.748002	33.331205	137.072011
15650		-5.467640	0.390847	8.184250	-0.006579	0.008805	-0.012631	0.068115	-0.111328	-0.749756	2.741141	33.332691	137.064045
15651		-5.477280	0.374056	8.154575	-0.003984	0.001894	-0.014570	0.069580	-0.114258	-0.758301	2.735052	33.330218	137.054884
15652		-5.501187	0.387827	8.174434	-0.008566	-0.005349	-0.013579	0.073975	-0.115479	-0.753662	2.726427	33.323548	137.046865
15653		-5.673856	0.288377	8.159419	-0.012497	-0.018735	-0.017301	0.073975	-0.104980	-0.748779	2.714068	33.309341	137.035165
15654		-5.767460	0.262819	8.123028	-0.003450	-0.049007	-0.013809	0.065430	-0.108887	-0.741943	2.707448	33.277854	137.025653
15655		-5.676027	0.350825	8.133324	-0.009672	-0.075586	-0.014810	0.072510	-0.111816	-0.752441	2.696653	33.231039	137.013836
15656		-5.656797	0.342673	8.158207	-0.005877	-0.095903	-0.013836	0.070557	-0.111084	-0.751465	2.687866	33.172605	137.002786
15657		-5.486247	0.364974	8.161601	-0.006285	-0.113727	-0.014737	0.068604	-0.113525	-0.749512	2.678410	33.103956	136.989831
15658		-5.382193	0.330560	8.277139	-0.008367	-0.111191	-0.017155	0.065918	-0.114990	-0.761963	2.666776	33.036912	136.975196
15659		-5.390110	0.218718	8.286244	-0.004048	-0.107227	-0.011859	0.071045	-0.106201	-0.744629	2.659835	32.971903	136.964460
15660		-5.339853	0.233055	8.270903	0.005317	-0.101590	0.000406	0.060791	-0.114990	-0.754395	2.662709	32.909898	136.963118
15661		-5.264527	0.154233	8.297106	0.015222	-0.093593	0.002702	0.060303	-0.111328	-0.746826	2.672457	32.852305	136.962747
15662		-5.282008	0.251857	8.319387	0.020701	-0.079673	0.003826	0.065430	-0.113525	-0.750732	2.685870	32.802574	136.963801
15663		-5.231991	0.327839	8.290550	0.037203	-0.069470	0.010490	0.058594	-0.117188	-0.748779	2.711482	32.758577	136.969469
15664		-5.187290	0.287448	8.284332	0.035752	-0.059353	0.013872	0.051270	-0.104736	-0.751709	2.737585	32.720281	136.976614
15665		-5.243672	0.409023	8.304784	0.040871	-0.048389	0.012258	0.064941	-0.110840	-0.756348	2.766285	32.688295	136.984121
15666		-5.151781	0.477905	8.243450	0.030650	-0.036284	0.009195	0.061523	-0.112305	-0.744141	2.787898	32.663243	136.993519
15667		-5.157317	0.466678	8.275493	0.026393	-0.029571	0.004708	0.060059	-0.106445	-0.750244	2.805847	32.642233	136.996484
15668		-5.157261	0.547709	8.214553	0.018105	-0.019611	-0.004961	0.066895	-0.112061	-0.755127	2.815420	32.627227	136.994949
15669		-5.143374	0.541913	8.235264	0.010295	-0.015191	-0.006649	0.058350	-0.108887	-0.748779	2.820238	32.614765	136.990669
15670		-5.136380	0.497224	8.217096	0.002827	-0.009207	-0.014983	0.055420	-0.112549	-0.752686	2.817579	32.606048	136.982534
15671		-4.999893	0.696606	8.228431	-0.008153	0.009362	-0.022360	0.063232	-0.108887	-0.743896	2.806519	32.608078	136.968402
15672		-5.130192	0.533473	8.314836	-0.017493	0.019993	-0.027065	0.062500	-0.114990	-0.757080	2.788353	32.616320	136.952917
15673		-5.281181	0.336363	8.282453	-0.021641	0.024975	-0.031899	0.064941	-0.113281	-0.746094	2.766343	32.627542	136.932815
15674		-5.184793	0.415880	8.306638	-0.018600	0.031669	-0.030334	0.067383	-0.102783	-0.748535	2.746615	32.642653	136.913538
15675		-5.274984	0.404200	8.296886	-0.019709	0.036589	-0.027998	0.066650	-0.117676	-0.746338	2.727328	32.660404	136.896448
15676		-5.371778	0.354505	8.248190	-0.019058	0.038594	-0.028943	0.061279	-0.110352	-0.746338	2.707860	32.679523	136.879007
15677		-5.406993	0.269859	8.239328	-0.020312	0.030362	-0.024424	0.065186	-0.110596	-0.755615	2.689413	32.693604	136.864127
15678		-5.369787	0.305789	8.285964	-0.014517	0.024198	-0.022523	0.064697	-0.111816	-0.752930	2.674653	32.704169	136.851439
15679		-5.396882	0.316624	8.244832	-0.015229	0.026447	-0.024204	0.064453	-0.115479	-0.749512	2.659120	32.715997	136.836572
15680		-5.357373	0.329108	8.222512	-0.010486	0.020950	-0.017339	0.059326	-0.113037	-0.743652	2.648598	32.724585	136.825570
15681		-5.333929	0.313983	8.261449	-0.011563	0.013497	-0.016146	0.068604	-0.114746	-0.750244	2.637900	32.728782	136.815770
15682		-5.264525	0.348426	8.198688	-0.007588	0.014487	-0.013588	0.064453	-0.114258	-0.750244	2.630334	32.733553	136.806508
15683		-4.998582	0.493570	8.318607	-0.011066	0.029598	-0.015598	0.062256	-0.106201	-0.752197	2.620391	32.746949	136.797581
15684		-5.107656	0.533768	8.307469	-0.022613	0.044463	-0.022375	0.062500	-0.115967	-0.754883	2.601369	32.769073	136.785594
15685		-5.299703	0.297672	8.224584	-0.025387	0.057339	-0.022702	0.064697	-0.110352	-0.746094	2.581052	32.798526	136.772671
15686		-5.208328	0.319103	8.259143	-0.020521	0.065009	-0.018008	0.060547	-0.108398	-0.748047	2.565249	32.832276	136.762704
15687		-5.127599	0.407744	8.321399	-0.022406	0.084566	-0.016199	0.075928	-0.115234	-0.751221	2.549463	32.877141	136.755009
15688		-5.368048	0.260459	8.264334	-0.023896	0.086566	-0.016586	0.072754	-0.116211	-0.747559	2.532543	32.923296	136.746443
15689		-5.513110	0.218483	8.242689	-0.023196	0.084340	-0.014904	0.058350	-0.111572	-0.756104	2.516750	32.967995	136.739586
15690		-5.457722	0.320377	8.264763	-0.022614	0.075711	-0.016649	0.058838	-0.112061	-0.759033	2.500397	33.007813	136.730363
15691		-5.506279	0.301415	8.221762	-0.018236	0.074052	-0.018097	0.072754	-0.101563	-0.759277	2.486063	33.046700	136.720984
15692		-5.318453	0.404703	8.222948	-0.022212	0.073082	-0.020666	0.072266	-0.111084	-0.750244	2.468165	33.085078	136.713098
15693		-5.263926	0.366483	8.259058	-0.025649	0.082638	-0.029417	0.069336	-0.105713	-0.749512	2.445464	33.129153	136.696198
15694		-5.342895	0.323323	8.196674	-0.029808	0.080877	-0.028669	0.064941	-0.113281	-0.754150	2.420385	33.172313	136.680322
15695		-5.483524	0.259347	8.225064	-0.026853	0.076940	-0.027884	0.073975	-0.118652	-0.749512	2.397425	33.213078	136.664246
15696		-5.483269	0.211535	8.202077	-0.021784	0.074370	-0.018275	0.071533	-0.111084	-0.753174	2.380904	33.252166	136.652176
15697		-5.552218	0.185363	8.169232	-0.016410	0.070862	-0.012334	0.063477	-0.109375	-0.745850	2.369631	33.289074	136.646530
15698		-5.513832	0.258945	8.193195	-0.005526	0.068891	-0.006388	0.067139	-0.110352	-0.739746	2.366653	33.324672	136.645112
15699		-5.522505	0.280390	8.199050	-0.005043	0.061972	-0.007790	0.071777	-0.106934	-0.741943	2.363454	33.356381	136.642316
15700		-5.497674	0.301271	8.155377	-0.004812	0.051713	-0.002907	0.080322	-0.107666	-0.751709	2.361913	33.382120	136.642265
15701		-5.412534	0.368082	8.150713	-0.005183	0.044904	-0.012042	0.069824	-0.108154	-0.758301	2.356758	33.404159	136.636067
15702		-5.316869	0.369046	8.177830	-0.008246	0.042465	-0.016264	0.073975	-0.106934	-0.744385	2.347974	33.425026	136.627924
15703		-5.374410	0.359226	8.175967	-0.012059	0.043623	-0.012797	0.075684	-0.102051	-0.749023	2.338564	33.446348	136.621161
15704		-5.500255	0.288879	8.165663	-0.013816	0.045207	-0.018892	0.080811	-0.113770	-0.751709	2.325573	33.468842	136.611861
15705		-5.443254	0.250577	8.144036	-0.011750	0.042705	-0.016465	0.073975	-0.116699	-0.746826	2.314925	33.489722	136.602541
15706		-5.512587	0.248804	8.181899	-0.008976	0.037941	-0.012358	0.081055	-0.107910	-0.752441	2.307330	33.507935	136.592544
15707		-5.371221	0.242788	8.179761	-0.003606	0.034412	-0.006407	0.072021	-0.111572	-0.751221	2.305025	33.523833	136.589891
15708		-5.410509	0.263786	8.177446	-0.001789	0.035375	-0.003277	0.075195	-0.104492	-0.749756	2.304797	33.540329	136.589081
15709		-5.416862	0.285573	8.184933	-0.004635	0.037612	-0.004418	0.075684	-0.109375	-0.753662	2.302704	33.558013	136.587881
15710		-5.409329	0.359365	8.200973	-0.002292	0.042324	-0.001870	0.073242	-0.107666	-0.749512	2.302759	33.578413	136.589685
15711		-5.434025	0.351225	8.208654	-0.007137	0.049615	-0.008406	0.074463	-0.108887	-0.755859	2.297897	33.603061	136.586074
15712		-5.377759	0.315256	8.246464	-0.006669	0.057650	-0.011603	0.083496	-0.114258	-0.751709	2.292014	33.632394	136.581364
15713		-5.394914	0.320710	8.223126	-0.007632	0.063396	-0.012580	0.074707	-0.106689	-0.741943	2.285481	33.665026	136.575253
15714		-5.475104	0.302269	8.170073	-0.007890	0.066881	-0.011875	0.085938	-0.106689	-0.739990	2.278989	33.699784	136.568262
15715		-5.524248	0.226014	8.138227	-0.007967	0.064352	-0.008909	0.078613	-0.100342	-0.748047	2.273668	33.732879	136.564690
15716		-5.512008	0.254995	8.134024	-0.000526	0.065134	-0.006095	0.067871	-0.113281	-0.752930	2.273393	33.766581	136.564112
15717		-5.527510	0.321145	8.158825	-0.006039	0.063600	-0.006126	0.070313	-0.111328	-0.751465	2.270223	33.799182	136.562430
15718		-5.508000	0.305678	8.136054	-0.001130	0.054983	-0.008952	0.088623	-0.104248	-0.752197	2.268591	33.826718	136.558472
15719		-5.489558	0.370830	8.111671	-0.010844	0.055930	-0.010885	0.083008	-0.109863	-0.749756	2.260721	33.855035	136.553295
15720		-5.508343	0.318547	8.159689	-0.012400	0.051504	-0.014724	0.082520	-0.104980	-0.744141	2.250175	33.881160	136.545289
15721		-5.451623	0.280385	8.138196	-0.014862	0.048535	-0.016929	0.079346	-0.114258	-0.743896	2.237553	33.905377	136.535729
15722		-5.483542	0.315314	8.164466	-0.014418	0.049753	-0.014542	0.074951	-0.102783	-0.749512	2.225991	33.930350	136.526538
15723		-5.534777	0.260689	8.142632	-0.012745	0.052460	-0.011052	0.081055	-0.104248	-0.742188	2.216890	33.956681	136.521121
15724		-5.549413	0.185105	8.121536	-0.009404	0.047151	-0.004902	0.078613	-0.104980	-0.748047	2.211720	33.979853	136.521776
15725		-5.574312	0.177114	8.128842	-0.003420	0.049507	0.006548	0.083008	-0.106689	-0.749268	2.214703	34.004103	136.528426
15726		-5.634877	0.190317	8.075760	0.004250	0.039967	0.014252	0.083008	-0.112305	-0.749268	2.224695	34.022788	136.541033
15727		-5.593513	0.265485	8.042692	0.005760	0.026854	0.022840	0.083008	-0.110107	-0.746338	2.238906	34.033704	136.558341
15728		-5.511981	0.298482	8.061267	0.005573	0.022168	0.019749	0.067627	-0.107178	-0.747803	2.251653	34.042115	136.571672
15729		-5.442627	0.339238	8.119691	0.002334	0.018911	0.018820	0.086914	-0.108154	-0.746582	2.262234	34.048568	136.585995
15730		-5.476967	0.339424	8.108476	-0.000695	0.016463	0.014575	0.076172	-0.104736	-0.752441	2.269233	34.053675	136.597899
15731		-5.543464	0.258909	8.148599	-0.000615	0.019013	0.011611	0.089355	-0.106689	-0.745361	2.275341	34.060346	136.607247
15732		-5.452934	0.305027	8.137127	0.000175	0.030016	0.011162	0.077881	-0.108643	-0.751465	2.281658	34.073430	136.617518
15733		-5.569873	0.333504	8.153918	0.000247	0.021846	0.007366	0.082520	-0.109619	-0.746582	2.286665	34.081819	136.624014
15734		-5.549609	0.260269	8.144372	-0.003556	0.029841	0.005233	0.083740	-0.120850	-0.749512	2.288644	34.094858	136.629102
15735		-5.574070	0.333857	8.151035	-0.000327	0.022380	0.005332	0.080322	-0.108154	-0.748535	2.292545	34.103599	136.634209
15736		-5.577387	0.274006	8.101266	0.001582	0.022008	-0.000898	0.080566	-0.117676	-0.743408	2.295099	34.112330	136.632408
15737		-5.567171	0.267221	8.120306	-0.002569	0.020211	-0.000197	0.087891	-0.106934	-0.756592	2.295539	34.119955	136.633634
15738		-5.559331	0.281265	8.089324	-0.002134	0.010697	0.001359	0.082275	-0.109375	-0.739014	2.296595	34.122211	136.633948
15739		-5.575502	0.310032	8.078019	-0.000878	0.008304	-0.003942	0.083252	-0.107178	-0.744141	2.296367	34.123106	136.632253
15740		-5.543874	0.311924	8.147670	-0.000306	0.007774	-0.001907	0.081299	-0.103027	-0.742676	2.297088	34.123751	136.631298
15741		-5.561158	0.280652	8.088090	-0.003626	0.001963	0.000124	0.077881	-0.105957	-0.754150	2.296764	34.120922	136.632240
15742		-5.557556	0.258030	8.078748	-0.005247	-0.005031	-0.000759	0.089355	-0.108154	-0.749512	2.294795	34.114114	136.634340
15743		-5.534368	0.325199	8.117859	-0.000447	-0.011937	-0.003220	0.077148	-0.110596	-0.744385	2.294779	34.103404	136.632584
15744		-5.516101	0.354510	8.117905	-0.005689	-0.006241	-0.003146	0.088867	-0.109131	-0.747314	2.291729	34.096058	136.630331
15745		-5.517694	0.295093	8.129544	-0.006131	-0.007452	-0.005533	0.084717	-0.103271	-0.753662	2.287631	34.087969	136.627101
15746		-5.534617	0.264631	8.130453	-0.005559	-0.007982	-0.003498	0.081543	-0.113037	-0.739014	2.284395	34.079723	136.625802
15747		-5.516358	0.293723	8.130500	-0.006214	-0.010002	-0.002570	0.077881	-0.106689	-0.746094	2.281360	34.070106	136.624552
15748		-5.548597	0.292368	8.120702	-0.002635	-0.007672	-0.005306	0.076904	-0.111328	-0.751221	2.279241	34.061918	136.620431
15749		-5.499494	0.263691	8.142286	-0.006426	-0.010812	0.000746	0.079102	-0.109375	-0.742920	2.277356	34.051762	136.621451
15750		-5.541947	0.329142	8.160986	-0.004728	-0.011992	-0.002168	0.084717	-0.114014	-0.750488	2.275187	34.040981	136.619786
15751		-5.521498	0.275984	8.103175	-0.007441	-0.011490	-0.003676	0.086914	-0.109375	-0.744873	2.271000	34.030537	136.617734
15752		-5.523853	0.297643	8.113412	-0.004681	-0.016283	0.000442	0.078369	-0.102295	-0.748535	2.269810	34.017444	136.616392
15753		-5.430118	0.342498	8.104240	-0.007756	-0.014439	-0.006416	0.083496	-0.106445	-0.749512	2.264341	34.005373	136.612368
15754		-5.471131	0.326446	8.124804	-0.009372	-0.010707	-0.006464	0.085205	-0.114014	-0.744629	2.257718	33.995516	136.610035
15755		-5.451941	0.275341	8.186497	-0.012296	-0.011015	-0.004655	0.087158	-0.109863	-0.743164	2.250383	33.985365	136.607325
15756		-5.492842	0.257959	8.146958	-0.008664	-0.002255	-0.003946	0.078613	-0.108887	-0.747070	2.245455	33.980431	136.602716
15757		-5.567341	0.241389	8.156883	-0.008696	-0.009098	0.001627	0.082764	-0.101807	-0.756104	2.242637	33.971237	136.604397
15758		-5.542407	0.226282	8.137811	-0.002794	-0.002049	0.001456	0.076660	-0.105469	-0.739258	2.242993	33.966151	136.607481
15759		-5.528135	0.278272	8.146964	-0.001647	-0.003112	0.005525	0.076416	-0.105713	-0.752441	2.245807	33.960296	136.612014
15760		-5.531222	0.300588	8.156690	-0.001962	-0.006061	0.002784	0.078613	-0.106934	-0.749512	2.247126	33.952799	136.615637
15761		-5.571837	0.284203	8.117336	-0.001888	-0.014230	-0.001016	0.077637	-0.112793	-0.753906	2.247111	33.940726	136.615353
15762		-5.585762	0.312792	8.107664	-0.005521	-0.022986	-0.001726	0.085449	-0.107910	-0.746094	2.244475	33.923670	136.613998
15763		-5.540044	0.246150	8.091137	-0.008897	-0.035221	-0.003142	0.077393	-0.109131	-0.752441	2.239311	33.899627	136.611683
15764		-5.540359	0.267405	8.102799	-0.012087	-0.042764	-0.001464	0.076904	-0.103760	-0.753418	2.232686	33.871346	136.609894
15765		-5.543680	0.310868	8.124253	-0.009692	-0.046207	-0.002699	0.078125	-0.107178	-0.740479	2.227078	33.841002	136.607596
15766		-5.321076	0.321939	8.178105	-0.010716	-0.046877	-0.007120	0.079346	-0.111084	-0.746826	2.218961	33.810422	136.603104
15767		-5.307672	0.395758	8.258541	-0.016061	-0.032601	-0.012249	0.081543	-0.106689	-0.751709	2.206254	33.788079	136.594602
15768		-5.325243	0.305114	8.271563	-0.018821	-0.017093	-0.015519	0.072754	-0.104248	-0.760498	2.190798	33.774813	136.583482
15769		-5.432990	0.147015	8.284530	-0.009694	-0.002924	-0.008355	0.078369	-0.112305	-0.756348	2.183675	33.769374	136.578457
15770		-5.469207	0.166488	8.223956	-0.004013	0.007176	0.001196	0.076416	-0.109619	-0.750244	2.183433	33.769497	136.580941
15771		-5.488966	0.217812	8.222240	0.003042	0.013154	0.005087	0.078613	-0.112549	-0.745117	2.188989	33.772969	136.585597
15772		-5.433804	0.284474	8.150658	0.009650	0.017927	0.006591	0.082764	-0.113037	-0.747559	2.198892	33.779202	136.589738
15773		-5.486932	0.335874	8.138439	0.005757	0.012653	0.006590	0.075928	-0.106934	-0.751709	2.206573	33.782353	136.595418
15774		-5.470424	0.366138	8.137261	0.002019	0.012482	0.000665	0.078125	-0.099365	-0.744629	2.209714	33.785637	136.595883
15775		-5.446808	0.351399	8.117250	-0.002449	0.007739	-0.001370	0.082764	-0.106201	-0.743896	2.209573	33.786150	136.595950
15776		-5.429279	0.300769	8.177614	-0.007278	0.015055	-0.007913	0.081543	-0.109131	-0.747070	2.203984	33.791143	136.593002
15777		-5.403201	0.264191	8.207575	-0.004822	0.018031	-0.005701	0.086182	-0.110107	-0.750000	2.200976	33.797644	136.590358
15778		-5.479372	0.246456	8.156380	-0.005210	0.023250	-0.004639	0.084229	-0.108887	-0.750000	2.198087	33.807318	136.587067
15779		-5.465897	0.217273	8.165733	0.002675	0.025221	0.000583	0.085938	-0.116943	-0.745361	2.201888	33.817797	136.588942
15780		-5.489683	0.289586	8.112983	-0.002912	0.021124	0.003496	0.071533	-0.112305	-0.751221	2.203480	33.826095	136.589722
15781		-5.504093	0.297722	8.151286	0.003119	0.026432	0.002972	0.077393	-0.108398	-0.745850	2.208471	33.837214	136.593277
15782		-5.526780	0.290520	8.160065	0.000190	0.015405	0.003939	0.082520	-0.112793	-0.745117	2.211890	33.841954	136.596409
15783		-5.500267	0.253682	8.130177	-0.001218	0.019950	0.000579	0.080811	-0.112305	-0.748535	2.213384	33.849414	136.598144
15784		-5.517024	0.282647	8.118593	-0.000125	0.012459	0.001197	0.082031	-0.117676	-0.749268	2.215562	33.852709	136.597685
15785		-5.533226	0.311427	8.107386	-0.003677	0.006255	-0.002478	0.079834	-0.111816	-0.757324	2.214270	33.852397	136.596948
15786		-5.509751	0.297493	8.147472	-0.003547	0.004516	-0.002832	0.076904	-0.105713	-0.738037	2.212852	33.851194	136.593220
15787		-5.506470	0.274657	8.137866	-0.005088	0.000081	-0.006682	0.078369	-0.106689	-0.745361	2.209046	33.847440	136.589420
15788		-5.518431	0.280702	8.117704	-0.004515	-0.000452	-0.004647	0.074951	-0.109131	-0.752197	2.206146	33.843388	136.587293
15789		-5.485283	0.280860	8.128116	-0.005822	-0.004493	-0.002794	0.077637	-0.104736	-0.751221	2.203345	33.836929	136.586053
15790		-5.497491	0.287940	8.167959	-0.009110	-0.003457	-0.006334	0.081543	-0.107910	-0.751221	2.197113	33.831139	136.583169
15791		-5.514763	0.257475	8.168571	-0.001671	-0.002695	-0.003496	0.082764	-0.111572	-0.754150	2.196448	33.825725	136.581494
15792		-5.508979	0.293585	8.148135	-0.005378	-0.003286	-0.000405	0.081299	-0.104736	-0.745361	2.194681	33.820050	136.581098
15793		-5.468751	0.249459	8.139612	-0.002898	-0.004182	-0.004603	0.084229	-0.111816	-0.742676	2.192867	33.813808	136.578621
15794		-5.508330	0.292700	8.148606	-0.002324	-0.004715	-0.002569	0.074951	-0.108154	-0.747803	2.191989	33.807402	136.576609
15795		-5.486948	0.299911	8.138955	-0.003107	-0.004996	-0.001288	0.079346	-0.100586	-0.751953	2.191315	33.800622	136.576395
15796		-5.486357	0.299422	8.139371	-0.005432	-0.009711	-0.003857	0.076904	-0.104004	-0.751221	2.187995	33.791235	136.575857
15797		-5.482094	0.276624	8.130413	-0.003292	-0.009681	-0.004385	0.079834	-0.104736	-0.752197	2.185961	33.781840	136.573387
15798		-5.460906	0.284596	8.180786	-0.006581	-0.008644	-0.007924	0.079346	-0.111572	-0.755859	2.180435	33.773186	136.570054
15799		-5.465431	0.245888	8.141951	-0.009112	-0.003455	-0.006332	0.088135	-0.109619	-0.747070	2.174414	33.767398	136.566409
15800		-5.506810	0.229920	8.162241	-0.005302	-0.011449	-0.004212	0.083984	-0.102295	-0.756592	2.171140	33.757192	136.562412
15801		-5.509408	0.251629	8.172365	-0.003500	-0.010495	-0.001071	0.080811	-0.100830	-0.751221	2.170246	33.747258	136.562208
15802		-5.499480	0.265583	8.142892	-0.003370	-0.012234	-0.001425	0.080811	-0.114258	-0.745850	2.168916	33.736515	136.564190
15803		-5.481077	0.295066	8.143086	-0.000577	-0.010183	-0.002881	0.079590	-0.109375	-0.748291	2.169009	33.726800	136.562748
15804		-5.492594	0.302687	8.183366	-0.002458	-0.013690	-0.003061	0.081055	-0.102051	-0.744873	2.167828	33.715214	136.558801
15805		-5.434119	0.288456	8.174843	-0.002588	-0.011951	-0.002706	0.077637	-0.108154	-0.747314	2.166812	33.704483	136.557433
15806		-5.462755	0.264936	8.155692	-0.003869	-0.009144	-0.006419	0.085205	-0.108887	-0.746094	2.163452	33.695566	136.554147
15807		-5.450101	0.257445	8.176322	-0.006139	-0.007435	-0.005534	0.077148	-0.104004	-0.747803	2.159387	33.687482	136.550952
15808		-5.422899	0.300784	8.146291	-0.003739	-0.010882	-0.006774	0.082520	-0.104248	-0.755127	2.155968	33.677625	136.546666
15809		-5.464038	0.285005	8.166756	-0.004652	-0.009425	-0.005137	0.072510	-0.108643	-0.753174	2.152881	33.668393	136.543696
15810		-5.451377	0.277513	8.187382	-0.005358	-0.007152	-0.006815	0.077881	-0.107666	-0.748047	2.148562	33.660566	136.540320
15811		-5.435380	0.247818	8.198381	-0.004130	-0.005665	-0.005709	0.079102	-0.112061	-0.753662	2.145611	33.653498	136.537055
15812		-5.483351	0.275245	8.177895	-0.004576	-0.006869	-0.008097	0.074707	-0.111816	-0.745850	2.141349	33.645895	136.530955
15813		-5.471090	0.267761	8.198246	-0.002956	0.000116	-0.007206	0.076660	-0.100586	-0.751465	2.138583	33.642168	136.526810
15814		-5.461941	0.281675	8.168274	-0.000968	-0.004964	-0.001817	0.086426	-0.106445	-0.747314	2.138735	33.635462	136.526681
15815		-5.478968	0.251494	8.169020	-0.005694	-0.006228	-0.003145	0.078613	-0.113525	-0.754883	2.135859	33.628016	136.525166
15816		-5.497476	0.302169	8.168257	-0.000632	-0.005885	-0.005487	0.074463	-0.101563	-0.756104	2.134858	33.621030	136.520459
15817		-5.460375	0.280420	8.169364	-0.001935	-0.009926	-0.003634	0.077393	-0.101563	-0.746826	2.133897	33.611478	136.518514
15818		-5.414605	0.273967	8.200244	-0.004652	-0.009422	-0.005137	0.072266	-0.112305	-0.746582	2.130492	33.602302	136.518157
15819		-5.458842	0.279251	8.170429	-0.004652	-0.009422	-0.005137	0.075684	-0.106689	-0.745605	2.127411	33.593070	136.515194
15820		-5.496389	0.241154	8.181443	-0.005750	-0.012646	-0.006599	0.071289	-0.099365	-0.748779	2.122992	33.582040	136.509999
15821		-5.491644	0.218572	8.172765	0.001097	-0.018198	-0.000239	0.073730	-0.102051	-0.747559	2.124945	33.567679	136.510180
15822		-5.467432	0.284740	8.152621	-0.002457	-0.013683	-0.003063	0.072021	-0.104736	-0.755371	2.123528	33.555956	136.511433
15823		-5.471648	0.248063	8.174030	0.000967	-0.016458	0.000116	0.069580	-0.114258	-0.749512	2.125566	33.542584	136.511902
15824		-5.470219	0.248147	8.174984	0.000315	-0.018477	0.001043	0.078613	-0.102539	-0.750732	2.127431	33.527976	136.512554
15825		-5.423661	0.242515	8.206296	0.005172	-0.018950	0.002013	0.077393	-0.103516	-0.753174	2.132561	33.513137	136.514261
15826		-5.389217	0.244029	8.217388	0.006848	-0.016259	0.005507	0.071533	-0.107178	-0.748535	2.139713	33.499910	136.520068
15827		-5.436463	0.272962	8.197445	0.005359	-0.014269	0.005112	0.067871	-0.111328	-0.747559	2.146188	33.487683	136.524018
15828		-5.464914	0.250820	8.178450	0.007817	-0.011296	0.007324	0.080078	-0.114014	-0.752930	2.154831	33.477054	136.528969
15829		-5.464533	0.253001	8.238687	0.008209	-0.005801	0.007107	0.076416	-0.112305	-0.751953	2.163811	33.469632	136.534502
15830		-5.453148	0.327198	8.197793	0.008787	-0.006334	0.009140	0.082275	-0.105225	-0.753906	2.173815	33.462020	136.538740
15831		-5.437585	0.300748	8.268387	0.014368	-0.002235	0.006221	0.080322	-0.112305	-0.752686	2.186036	33.456657	136.543754
15832		-5.444300	0.345483	8.227517	0.013273	0.005250	0.005608	0.070068	-0.113281	-0.749756	2.197315	33.455838	136.547678
15833		-5.494848	0.314903	8.157753	0.010887	0.004831	0.000437	0.070801	-0.113281	-0.755859	2.205454	33.454646	136.548906
15834		-5.490188	0.212658	8.149580	0.010236	0.002812	0.001365	0.076172	-0.103760	-0.746582	2.213487	33.452237	136.548937
15835		-5.489624	0.212595	8.089916	0.015087	-0.008368	0.001488	0.074951	-0.105225	-0.750244	2.224236	33.443466	136.550535
15836		-5.378835	0.289492	8.079645	0.017411	-0.014364	0.003209	0.079102	-0.102051	-0.752686	2.236601	33.431341	136.554497
15837		-5.377390	0.292017	8.140558	0.010464	-0.028916	0.004536	0.072754	-0.110352	-0.744629	2.245546	33.410737	136.557630
15838		-5.396297	0.285352	8.151888	0.006651	-0.020929	0.002420	0.075195	-0.101318	-0.752930	2.251380	33.394887	136.560154
15839		-5.322892	0.324366	8.152736	0.010333	-0.027174	0.004890	0.068604	-0.109863	-0.753174	2.260404	33.375272	136.563569
15840		-5.336778	0.356533	8.263077	0.005677	-0.025886	0.000608	0.076416	-0.109619	-0.753662	2.264896	33.356521	136.565738
15841		-5.307195	0.319928	8.235144	0.001737	-0.016166	-0.001154	0.073486	-0.104980	-0.743408	2.266877	33.343343	136.565303
15842		-5.309723	0.342021	8.245250	-0.002204	-0.006447	-0.002915	0.073975	-0.112305	-0.755127	2.265862	33.335902	136.564121
15843		-5.365043	0.273325	8.196789	-0.002260	-0.002159	-0.005523	0.072266	-0.104248	-0.743896	2.264116	33.330842	136.561073
15844		-5.328845	0.252959	8.257155	0.003570	0.002330	-0.002746	0.074463	-0.115967	-0.752686	2.266631	33.328373	136.560056
15845		-5.356911	0.288737	8.226105	0.000136	0.008966	0.000487	0.075439	-0.113525	-0.748291	2.268686	33.329547	136.561427
15846		-5.265968	0.335523	8.274646	-0.000106	0.019278	-0.004374	0.075439	-0.112549	-0.752197	2.268883	33.336857	136.556817
15847		-5.437771	0.293190	8.183980	-0.007102	0.019720	-0.004807	0.068359	-0.105957	-0.741943	2.264958	33.344307	136.554852
15848		-5.420001	0.380759	8.171250	-0.006901	0.020535	-0.008123	0.073242	-0.106445	-0.751953	2.259749	33.352348	136.550189
15849		-5.421587	0.379429	8.170259	-0.009609	0.017172	-0.016033	0.074951	-0.107666	-0.757568	2.250118	33.358593	136.540458
15850		-5.465291	0.222763	8.202188	-0.015118	0.015627	-0.016072	0.068848	-0.109131	-0.745361	2.237047	33.364038	136.531644
15851		-5.393757	0.178500	8.202516	-0.006197	0.018270	-0.006442	0.070801	-0.112061	-0.746582	2.232999	33.370694	136.528513
15852		-5.374958	0.186641	8.251119	-0.003550	0.025924	-0.001137	0.075195	-0.104492	-0.759766	2.232470	33.381599	136.528176
15853		-5.479376	0.205374	8.168905	0.007132	0.029946	0.002615	0.076416	-0.104004	-0.754395	2.239647	33.394737	136.531568
15854		-5.468052	0.259586	8.236146	0.011134	0.026643	0.007828	0.064697	-0.113525	-0.746338	2.250713	33.405987	136.540714
15855		-5.461724	0.353683	8.083561	0.009643	0.017925	0.006589	0.070068	-0.107666	-0.747314	2.260654	33.412152	136.546513
15856		-5.456869	0.312395	8.183194	0.003110	0.015704	0.002125	0.074219	-0.108154	-0.752197	2.265024	33.417052	136.548575
15857		-5.558896	0.251563	8.163064	0.001807	0.011665	0.003981	0.065186	-0.109863	-0.754883	2.269400	33.419692	136.552418
15858		-5.479628	0.165157	8.144951	0.008784	0.004382	0.009990	0.071777	-0.097900	-0.744385	2.279749	33.417979	136.560732
15859		-5.523201	0.232557	8.163140	0.013694	-0.000378	0.013570	0.077148	-0.109863	-0.751221	2.294376	33.413504	136.570822
15860		-5.489321	0.233930	8.113811	0.011551	-0.011119	0.013259	0.069824	-0.109863	-0.748291	2.307179	33.402992	136.582329
15861		-5.429287	0.281887	8.153757	0.017317	-0.013046	0.012595	0.077637	-0.110840	-0.747070	2.323315	33.391284	136.591395
15862		-5.347931	0.337356	8.183905	0.012979	-0.019526	0.010209	0.068115	-0.110596	-0.747070	2.335807	33.376008	136.597751
15863		-5.307322	0.297741	8.295529	0.010451	-0.014340	0.011801	0.080078	-0.103516	-0.745361	2.347681	33.363574	136.606227
15864		-5.296336	0.372944	8.314219	0.004468	0.004743	0.002031	0.071533	-0.106445	-0.752441	2.352496	33.362407	136.609053
15865		-5.399054	0.391446	8.233032	-0.002954	0.010816	-0.006366	0.077637	-0.099365	-0.745605	2.350228	33.364799	136.605782
15866		-5.343664	0.456289	8.161669	-0.008053	0.010894	-0.013040	0.068115	-0.102295	-0.751221	2.342167	33.367518	136.600569
15867		-5.389851	0.461452	8.190731	-0.016839	0.006509	-0.023028	0.073242	-0.108154	-0.748291	2.325594	33.367832	136.585755
15868		-5.420587	0.295974	8.183554	-0.018123	0.009314	-0.026741	0.076660	-0.107910	-0.747070	2.306649	33.369846	136.570444
15869		-5.360975	0.258204	8.224037	-0.018255	0.011056	-0.026387	0.071289	-0.109375	-0.751709	2.288067	33.372833	136.553452
15870		-5.444075	0.284009	8.252113	-0.015483	0.016978	-0.021435	0.075684	-0.108398	-0.749023	2.272834	33.379189	136.539875
15871		-5.456167	0.207743	8.232581	-0.008302	0.021223	-0.017897	0.079102	-0.106201	-0.756592	2.263303	33.387798	136.528975
15872		-5.515793	0.220281	8.240447	-0.000733	0.030967	-0.014579	0.078613	-0.106689	-0.746338	2.259259	33.402084	136.520961
15873		-5.497692	0.227232	8.228585	0.004380	0.037737	-0.013470	0.075928	-0.113037	-0.745850	2.258905	33.420046	136.513539
15874		-5.410178	0.213214	8.167508	0.009526	0.044085	-0.003343	0.074463	-0.113037	-0.751465	2.265265	33.441587	136.511761
15875		-5.455781	0.277319	8.064134	0.011594	0.030851	-0.001753	0.077393	-0.107178	-0.754639	2.273369	33.455341	136.512193
15876		-5.455442	0.258286	8.172732	0.006851	0.022736	0.002486	0.073486	-0.105469	-0.750732	2.280064	33.464460	136.514773
15877		-5.576429	0.247922	8.091025	0.011762	0.017975	0.006070	0.072021	-0.108887	-0.745361	2.291033	33.470664	136.520225
15878		-5.473651	0.289496	8.160158	0.009289	0.008150	0.009426	0.066650	-0.115723	-0.749023	2.301480	33.471196	136.528468
15879		-5.503562	0.408482	8.187132	0.009371	-0.000013	0.005623	0.074951	-0.105713	-0.749512	2.310638	33.467110	136.533120
15880		-5.341772	0.434509	8.188007	0.003941	0.000988	0.002612	0.086426	-0.109619	-0.744385	2.315420	33.463640	136.535299
15881		-5.264712	0.430514	8.288289	-0.005278	0.006110	-0.008935	0.074707	-0.109375	-0.742920	2.310768	33.463395	136.530129
15882		-5.433542	0.306349	8.199184	-0.009275	0.009416	-0.014155	0.081299	-0.104248	-0.744629	2.301723	33.465420	136.519934
15883		-5.453777	0.216540	8.210269	-0.005335	0.010405	-0.011543	0.077393	-0.105469	-0.741699	2.296117	33.467694	136.513092
15884		-5.397375	0.202026	8.200425	-0.003562	0.015232	-0.001991	0.084229	-0.104980	-0.750732	2.294923	33.472737	136.513647
15885		-5.497474	0.199578	8.168820	0.005026	0.014937	0.004915	0.078857	-0.105469	-0.744385	2.301551	33.477227	136.518225
15886		-5.531359	0.200085	8.157892	0.015158	0.008358	0.014829	0.070068	-0.108643	-0.748535	2.317334	33.477990	136.530148
15887		-5.493333	0.239659	8.147186	0.013438	0.002686	0.023315	0.068115	-0.113281	-0.753906	2.335560	33.475037	136.547016
15888		-5.384216	0.318959	8.196312	0.016935	0.002470	0.023541	0.080322	-0.105713	-0.741699	2.355732	33.471858	136.563984
15889		-5.441589	0.335359	8.205395	0.015188	-0.002779	0.023008	0.079102	-0.106934	-0.757324	2.374755	33.465775	136.580483
15890		-5.196330	0.394082	8.226448	0.011271	0.003080	0.014824	0.071533	-0.104980	-0.747559	2.388235	33.463454	136.592359
15891		-5.225892	0.433537	8.314420	0.005081	0.021369	0.008357	0.072510	-0.113525	-0.754395	2.396303	33.471538	136.599492
15892		-5.393658	0.368378	8.153230	-0.001601	0.032022	-0.003945	0.070801	-0.114746	-0.756104	2.395854	33.486007	136.599079
15893		-5.340630	0.356439	8.261638	-0.006383	0.045772	-0.007050	0.075928	-0.105713	-0.745605	2.391908	33.508429	136.596338
15894		-5.537766	0.326695	8.128215	-0.009850	0.042122	-0.013686	0.075439	-0.106934	-0.749512	2.383220	33.528938	136.588947
15895		-5.511929	0.208997	8.158837	-0.002753	0.033098	-0.008011	0.080566	-0.107178	-0.752441	2.380783	33.544128	136.585177
15896		-5.533498	0.259559	8.155825	-0.001134	0.029370	-0.007963	0.077393	-0.107910	-0.744873	2.378961	33.557319	136.582295
15897		-5.479683	0.326219	8.143678	-0.003303	0.022489	-0.001867	0.077148	-0.114746	-0.744629	2.378372	33.566288	136.582442
15898		-5.498597	0.296129	8.143131	-0.002854	0.012970	-0.000317	0.071777	-0.109375	-0.741699	2.378344	33.569891	136.581805
15899		-5.460302	0.253518	8.193676	-0.001938	0.011512	-0.001951	0.083008	-0.106689	-0.748047	2.378332	33.572579	136.581581
15900		-5.505901	0.259266	8.162596	-0.000530	0.006965	0.001413	0.084961	-0.107666	-0.743164	2.380113	33.572705	136.583531
15901		-5.506479	0.259613	8.162195	0.003978	0.007422	0.006067	0.074219	-0.108643	-0.745850	2.386472	33.572861	136.588698
15902		-5.442488	0.343042	8.180945	0.005519	0.001134	0.009077	0.077881	-0.112305	-0.755615	2.394534	33.569526	136.595413
15903		-5.475543	0.343079	8.170464	0.003246	0.002844	0.009955	0.072998	-0.107666	-0.745361	2.401877	33.566967	136.603121
15904		-5.505119	0.320659	8.150491	0.003019	0.002449	0.004252	0.081787	-0.117676	-0.746826	2.406729	33.564370	136.606872
15905		-5.545374	0.225403	8.172107	0.005966	-0.008386	0.010627	0.077148	-0.114258	-0.747314	2.415705	33.555364	136.614715
15906		-5.571844	0.262204	8.141679	0.006017	-0.012682	0.013236	0.071533	-0.113281	-0.744873	2.425589	33.544005	136.620651
15907		-5.544452	0.308849	8.171939	0.008735	-0.023910	0.013908	0.068848	-0.115967	-0.750000	2.437141	33.526030	136.630288
15908		-5.476968	0.391399	8.132671	0.004671	-0.033884	0.010806	0.073242	-0.109131	-0.751709	2.444963	33.502347	136.635685
15909		-5.463463	0.325501	8.106249	0.004704	-0.037758	0.004398	0.072510	-0.125000	-0.753174	2.450365	33.476676	136.638376
15910		-5.481014	0.318430	8.118459	-0.000490	-0.047081	0.006246	0.063721	-0.107666	-0.750732	2.453310	33.445630	136.639335
15911		-5.441041	0.298492	8.181869	0.001156	-0.054682	-0.000114	0.082764	-0.112793	-0.750244	2.454696	33.410381	136.638429
15912		-5.332313	0.337763	8.194910	0.002480	-0.051047	0.007050	0.075439	-0.119873	-0.747803	2.459399	33.377092	136.642740
15913		-5.382940	0.331212	8.256872	0.002164	-0.043268	0.005146	0.075195	-0.102295	-0.747803	2.463528	33.348249	136.645771
15914		-5.459570	0.278369	8.229506	0.006155	-0.035845	0.011205	0.069580	-0.115967	-0.747559	2.472161	33.323644	136.652467
15915		-5.437242	0.368117	8.219608	0.008477	-0.031123	0.013770	0.070068	-0.114502	-0.759033	2.483340	33.301538	136.661753
15916		-5.509301	0.352260	8.171017	0.009415	-0.025738	0.006562	0.070557	-0.115234	-0.748535	2.492343	33.282683	136.664660
15917		-5.497864	0.366982	8.142498	0.000117	-0.033889	-0.002856	0.073730	-0.112549	-0.748535	2.492431	33.259405	136.662469
15918		-5.544312	0.254623	8.136335	-0.008189	-0.030232	-0.016036	0.065430	-0.106445	-0.739014	2.482758	33.238635	136.649808
15919		-5.473303	0.312957	8.147646	-0.008079	-0.046141	-0.032650	0.069336	-0.110596	-0.749268	2.466788	33.209081	136.626877
15920		-5.519534	0.279882	8.140922	-0.007828	-0.060320	-0.034190	0.071777	-0.110596	-0.750488	2.449953	33.171436	136.603368
15921		-5.405026	0.213244	8.146518	-0.005176	-0.067226	-0.036132	0.074463	-0.114014	-0.745850	2.434054	33.129886	136.577481
15922		-5.201121	0.356082	8.198114	0.001535	-0.071008	-0.029412	0.061523	-0.100830	-0.753418	2.424316	33.086165	136.554925
15923		-4.958563	0.458651	8.359717	0.000999	-0.049468	-0.020756	0.062256	-0.111328	-0.744385	2.418020	33.054401	136.540096
15924		-5.113868	0.269319	8.305057	-0.001599	-0.025422	-0.014531	0.060303	-0.114502	-0.754395	2.412653	33.036137	136.532800
15925		-5.145931	0.269663	8.355494	0.008613	-0.004157	0.000478	0.072998	-0.106689	-0.750977	2.419348	33.029797	136.533785
15926		-5.314473	0.287427	8.254461	0.013331	0.011687	0.009040	0.071777	-0.110107	-0.750977	2.431978	33.032333	136.541446
15927		-5.355174	0.331238	8.202813	0.011062	0.013393	0.009926	0.068604	-0.109863	-0.754883	2.443869	33.035808	136.549390
15928		-5.296779	0.377721	8.181506	0.011570	0.010314	0.014923	0.067383	-0.110840	-0.743652	2.457630	33.037506	136.561082
15929		-5.393397	0.355565	8.200912	0.006465	0.010386	0.008253	0.066406	-0.105469	-0.741943	2.466217	33.039299	136.567797
15930		-5.307363	0.365805	8.210470	0.007115	0.012405	0.007322	0.063965	-0.117432	-0.749023	2.474627	33.042315	136.574653
15931		-5.330898	0.439942	8.218006	0.003819	0.013434	0.003788	0.066406	-0.113770	-0.752441	2.480086	33.045961	136.578411
15932		-5.317053	0.412554	8.287576	-0.000444	0.020207	-0.000722	0.069336	-0.108887	-0.753662	2.481453	33.053571	136.577651
15933		-5.355244	0.292831	8.239099	-0.003363	0.019895	0.001093	0.068604	-0.102295	-0.747803	2.481899	33.060983	136.579759
15934		-5.345098	0.286166	8.258018	0.000972	0.026382	0.003473	0.076660	-0.116943	-0.745850	2.485488	33.072129	136.586125
15935		-5.361319	0.234496	8.247645	0.002980	0.028154	0.003294	0.062988	-0.111816	-0.746338	2.490524	33.084213	136.589984
15936		-5.419118	0.307848	8.244171	0.008859	0.028367	0.008685	0.068115	-0.111084	-0.749023	2.500836	33.096380	136.595634
15937		-5.440587	0.360143	8.241251	0.007240	0.032096	0.008638	0.076904	-0.117188	-0.754883	2.510376	33.110586	136.603268
15938		-5.463685	0.352027	8.189744	0.003629	0.030181	0.002363	0.064941	-0.108643	-0.740234	2.515330	33.123997	136.605188
15939		-5.392995	0.309663	8.189694	0.004019	0.024968	0.001306	0.069336	-0.109375	-0.746582	2.520174	33.134305	136.607602
15940		-5.449049	0.301682	8.188076	0.003888	0.026708	0.001659	0.076416	-0.107422	-0.750732	2.524877	33.145623	136.611006
15941		-5.480010	0.279052	8.167426	0.003291	0.009686	0.004369	0.069092	-0.110840	-0.753906	2.530199	33.147107	136.615055
15942		-5.426771	0.288177	8.167153	0.005018	0.008097	0.010472	0.074951	-0.101563	-0.752197	2.538496	33.147669	136.624167
15943		-5.379951	0.342055	8.186139	0.008069	-0.004045	0.007478	0.074707	-0.106445	-0.747070	2.547489	33.141213	136.629926
15944		-5.447682	0.282668	8.177100	0.006451	-0.000317	0.007430	0.070068	-0.108398	-0.745850	2.555211	33.137098	136.638472
15945		-5.338052	0.360371	8.226154	0.005929	-0.004076	0.008008	0.067139	-0.108887	-0.751465	2.563173	33.130610	136.644589
15946		-5.250969	0.510785	8.283314	-0.002509	0.001308	-0.004821	0.072021	-0.112549	-0.744873	2.561340	33.127580	136.643284
15947		-5.472402	0.437895	8.243037	-0.017789	0.012228	-0.024023	0.065674	-0.113037	-0.746826	2.544019	33.131242	136.628005
15948		-5.298463	0.372428	8.264960	-0.019127	0.019321	-0.030351	0.075684	-0.108643	-0.743408	2.523533	33.139176	136.607703
15949		-5.388777	0.300128	8.204856	-0.019282	0.024940	-0.023592	0.071777	-0.112549	-0.748779	2.505720	33.150095	136.593096
15950		-5.363250	0.262120	8.234563	-0.011007	0.021709	-0.019428	0.068848	-0.115967	-0.751953	2.493941	33.159231	136.580710
15951		-5.210812	0.330096	8.252847	-0.012471	0.034002	-0.009976	0.069336	-0.102051	-0.751953	2.485261	33.174993	136.575673
15952		-5.351198	0.288985	8.230646	-0.005429	0.039999	-0.006083	0.071045	-0.104980	-0.748779	2.481923	33.194125	136.574562
15953		-5.404877	0.257708	8.218762	-0.003499	0.039223	-0.003295	0.075928	-0.106201	-0.747314	2.480967	33.212709	136.574245
15954		-5.381683	0.301584	8.186009	0.002578	0.040251	-0.001209	0.075684	-0.116699	-0.742920	2.483971	33.231975	136.577092
15955		-5.452353	0.380928	8.161566	0.000360	0.037670	0.002281	0.074463	-0.112549	-0.753906	2.487293	33.249532	136.580547
15956		-5.472667	0.351132	8.160115	-0.002742	0.032670	0.000997	0.075684	-0.109375	-0.759766	2.488161	33.264419	136.580793
15957		-5.405596	0.330534	8.169701	-0.001641	0.025180	0.001621	0.066162	-0.107178	-0.747314	2.489888	33.274842	136.583427
15958		-5.271309	0.371592	8.248557	-0.003186	0.031467	-0.001390	0.063721	-0.110107	-0.748535	2.489434	33.288982	136.585645
15959		-5.340974	0.370433	8.285727	-0.005147	0.043398	-0.012362	0.068115	-0.114014	-0.747803	2.484193	33.310182	136.579244
15960		-5.451910	0.351043	8.222640	-0.009696	0.046821	-0.010606	0.068359	-0.112793	-0.740723	2.476912	33.333213	136.574038
15961		-5.485183	0.326557	8.200294	-0.008131	0.047393	-0.013165	0.074219	-0.108643	-0.748291	2.469714	33.356718	136.567196
15962		-5.413995	0.341024	8.188493	-0.009662	0.042959	-0.017014	0.074219	-0.102783	-0.752197	2.459936	33.377826	136.557158
15963		-5.443342	0.294066	8.156894	-0.010796	0.043608	-0.012066	0.072266	-0.108398	-0.755371	2.451553	33.399136	136.550947
15964		-5.423140	0.279296	8.195041	-0.007302	0.043398	-0.011833	0.080078	-0.102783	-0.750488	2.444929	33.420385	136.547269
15965		-5.421023	0.314694	8.172180	-0.004324	0.039420	-0.011026	0.069336	-0.109375	-0.742676	2.440572	33.439271	136.541639
15966		-5.470811	0.260511	8.150689	-0.010917	0.034632	-0.012552	0.079102	-0.109619	-0.748291	2.431492	33.455557	136.536115
15967		-5.490875	0.229429	8.149320	-0.006797	0.029585	-0.007674	0.070557	-0.108643	-0.750244	2.426821	33.468730	136.532493
15968		-5.509626	0.258601	8.196726	-0.005878	0.028129	-0.009305	0.070557	-0.103516	-0.746582	2.421812	33.481197	136.527956
15969		-5.409343	0.377743	8.204281	-0.004958	0.026673	-0.010937	0.072998	-0.114014	-0.754395	2.416908	33.492782	136.522005
15970		-5.375185	0.355281	8.203796	-0.006234	0.029486	-0.014655	0.072021	-0.111572	-0.748291	2.409685	33.506069	136.514437
15971		-5.387138	0.339392	8.232108	-0.009706	0.036570	-0.020460	0.086426	-0.107422	-0.740967	2.398603	33.523547	136.502228
15972		-5.448841	0.290928	8.190205	-0.014479	0.039604	-0.024415	0.082031	-0.115723	-0.761719	2.383123	33.543042	136.486502
15973		-5.417470	0.348133	8.187388	-0.010904	0.041958	-0.027138	0.078125	-0.105469	-0.745605	2.368888	33.563758	136.469844
15974		-5.498530	0.350439	8.143874	-0.013481	0.040723	-0.029007	0.079590	-0.106934	-0.747803	2.352233	33.583978	136.451343
15975		-5.519759	0.257948	8.093583	-0.011090	0.030841	-0.033684	0.079834	-0.103271	-0.752197	2.335209	33.598475	136.429851
15976		-5.498393	0.242215	8.132674	-0.010336	0.023826	-0.020377	0.077881	-0.113525	-0.751953	2.323253	33.608803	136.418699
15977		-5.489959	0.175207	8.163084	-0.006021	0.012718	-0.013243	0.078857	-0.105469	-0.745361	2.316619	33.612443	136.410742
15978		-5.454325	0.153365	8.163571	0.000885	0.009289	-0.000785	0.075928	-0.107910	-0.743896	2.318433	33.613950	136.410796
15979		-5.427921	0.257964	8.181290	0.006891	0.014192	0.007738	0.070313	-0.113037	-0.749512	2.327204	33.617948	136.417303
15980		-5.459958	0.316801	8.158894	0.007596	0.011913	0.009421	0.080811	-0.106934	-0.751953	2.336826	33.620594	136.424466
15981		-5.395480	0.319849	8.179143	0.007832	0.019175	0.009558	0.075684	-0.116211	-0.746094	2.346909	33.627400	136.432367
15982		-5.404639	0.365125	8.196833	0.001999	0.025409	0.007583	0.080078	-0.103027	-0.755615	2.352838	33.637929	136.437961
15983		-5.459497	0.355672	8.134809	0.002009	0.025844	-0.001435	0.079590	-0.110596	-0.747070	2.355505	33.648810	136.438495
15984		-5.465184	0.377728	8.142924	-0.001780	0.023108	-0.004420	0.078369	-0.115723	-0.744873	2.354542	33.658335	136.437832
15985		-5.509909	0.301830	8.112454	-0.006274	0.022652	-0.009090	0.085693	-0.114990	-0.749023	2.349495	33.667569	136.433010
15986		-5.466964	0.295234	8.142246	-0.004077	0.018379	-0.007000	0.082520	-0.108398	-0.747559	2.346359	33.674493	136.426367
15987		-5.363759	0.254167	8.213934	-0.003289	0.018666	-0.008277	0.072510	-0.105957	-0.744385	2.343267	33.681425	136.421989
15988		-5.519822	0.323093	8.178358	-0.001135	0.025145	-0.005342	0.079102	-0.110352	-0.746094	2.342383	33.692078	136.420421
15989		-5.456548	0.264761	8.149766	-0.001591	0.017060	-0.002167	0.080811	-0.107910	-0.750488	2.342570	33.697947	136.420201
15990		-5.458182	0.264519	8.148679	-0.000431	0.022867	-0.003658	0.085449	-0.106201	-0.739990	2.342728	33.707303	136.418912
15991		-5.480978	0.256875	8.157208	0.001405	0.019515	0.002099	0.077881	-0.109863	-0.753174	2.346298	33.714478	136.421697
15992		-5.420490	0.281450	8.186933	0.004817	0.016735	0.005303	0.087646	-0.109131	-0.749023	2.352767	33.720151	136.426551
15993		-5.535974	0.308080	8.143091	0.003973	0.020763	0.003974	0.076416	-0.108643	-0.750732	2.358547	33.727996	136.430664
15994		-5.450872	0.317942	8.153600	-0.000739	0.019483	0.002614	0.084717	-0.107422	-0.747070	2.360856	33.735300	136.433721
15995		-5.500769	0.345952	8.130980	0.000838	0.020056	0.000062	0.072021	-0.105469	-0.745361	2.363335	33.742833	136.435122
15996		-5.540651	0.308379	8.139898	-0.001453	0.015322	-0.002522	0.081055	-0.115479	-0.745850	2.363173	33.747793	136.435565
15997		-5.420338	0.377124	8.150379	-0.006026	0.012296	-0.004237	0.081787	-0.122070	-0.754395	2.359953	33.750985	136.433787
15998		-5.446748	0.330874	8.120172	-0.005438	0.012196	-0.011217	0.082764	-0.111328	-0.751221	2.354387	33.754410	136.423291
15999		-5.437919	0.264498	8.150963	-0.008170	0.012261	-0.003722	0.076416	-0.108643	-0.746582	2.350134	33.757569	136.421865
16000		-5.484983	0.270617	8.178959	-0.004727	0.016362	-0.006080	0.083984	-0.110352	-0.754639	2.346817	33.763222	136.418657
16001		-5.496057	0.195962	8.159493	-0.003120	0.012184	0.002991	0.075195	-0.106689	-0.744385	2.348025	33.766179	136.421851
16002		-5.412116	0.286675	8.168939	0.002295	0.011183	0.006038	0.086670	-0.111328	-0.755127	2.353252	33.768579	136.427468
16003		-5.475044	0.263084	8.137406	0.001226	0.014389	0.008021	0.079102	-0.104980	-0.749512	2.358911	33.772680	136.434190
16004		-5.541635	0.262010	8.115334	0.006919	0.009896	0.010361	0.080078	-0.112793	-0.749756	2.368398	33.774309	136.442847
16005		-5.503329	0.360398	8.153659	0.002771	0.008079	0.011034	0.085205	-0.105957	-0.750488	2.375997	33.774726	136.451465
16006		-5.544791	0.344446	8.112705	0.000656	0.008480	0.002531	0.074463	-0.108154	-0.742188	2.378909	33.775725	136.454068
16007		-5.525882	0.293520	8.113980	0.001493	-0.001997	0.000408	0.075195	-0.105469	-0.752441	2.381547	33.770625	136.455080
16008		-5.454112	0.391712	8.163495	-0.002620	0.003070	-0.004483	0.071533	-0.115967	-0.752197	2.379782	33.768520	136.454217
16009		-5.489539	0.271488	8.115138	-0.005048	0.000079	-0.006715	0.077393	-0.106445	-0.752441	2.375979	33.764777	136.450383
16010		-5.456503	0.271732	8.126018	-0.004856	-0.005982	-0.004463	0.088623	-0.107666	-0.751465	2.372882	33.757471	136.447971
16011		-5.476620	0.323526	8.184644	-0.002288	-0.004737	-0.002585	0.075684	-0.108398	-0.755127	2.372164	33.750873	136.446844
16012		-5.497673	0.255865	8.145997	0.000472	-0.009553	0.001544	0.086426	-0.108154	-0.752686	2.374268	33.741568	136.449038
16013		-5.435082	0.280333	8.177292	0.003463	-0.007098	0.005813	0.078857	-0.105469	-0.750732	2.380020	33.733419	136.453624
16014		-5.463580	0.257853	8.157522	0.005607	-0.007062	0.005299	0.076416	-0.111328	-0.746338	2.386515	33.725469	136.458735
16015		-5.499522	0.280095	8.156640	0.007159	-0.006925	0.011765	0.082520	-0.108887	-0.742920	2.396658	33.717276	136.467420
16016		-5.547152	0.309113	8.135442	0.005380	-0.007884	0.008612	0.077881	-0.109619	-0.747070	2.404372	33.708718	136.473142
16017		-5.523139	0.376144	8.115340	0.001225	-0.016147	0.005835	0.077637	-0.108154	-0.748779	2.408698	33.695386	136.477475
16018		-5.477551	0.310641	8.098792	-0.001352	-0.023837	0.000506	0.076416	-0.108887	-0.740234	2.409166	33.677851	136.478143
16019		-5.364798	0.366625	8.201123	-0.001352	-0.023836	0.000506	0.074951	-0.111328	-0.749023	2.409856	33.660246	136.478585
16020		-5.420707	0.379717	8.210708	-0.007385	-0.017983	-0.007182	0.078857	-0.107178	-0.755615	2.404072	33.646215	136.473510
16021		-5.462209	0.303534	8.182259	-0.006085	-0.013920	-0.009027	0.078369	-0.113037	-0.747803	2.398580	33.634516	136.467687
16022		-5.474366	0.310278	8.222335	-0.009210	-0.008182	-0.009487	0.070313	-0.114502	-0.751221	2.391005	33.626212	136.461608
16023		-5.515076	0.232619	8.133787	-0.008932	-0.011672	-0.010195	0.066650	-0.104492	-0.743896	2.383476	33.615826	136.455051
16024		-5.492771	0.239350	8.124974	-0.004112	-0.019017	-0.003624	0.075195	-0.109375	-0.748779	2.380911	33.600957	136.453480
16025		-5.516005	0.253522	8.145165	-0.000616	-0.019230	-0.003379	0.077148	-0.109131	-0.746338	2.380624	33.586081	136.451394
16026		-5.522138	0.238001	8.116694	0.000847	-0.028104	0.002592	0.075928	-0.110596	-0.749756	2.383094	33.566056	136.453105
16027		-5.378609	0.316416	8.179385	0.004205	-0.026572	0.003191	0.077637	-0.113281	-0.747803	2.387948	33.546821	136.455322
16028		-5.229388	0.490990	8.269765	-0.002389	-0.013742	-0.003076	0.076172	-0.114990	-0.749512	2.386688	33.535175	136.452494
16029		-5.429510	0.366917	8.228720	-0.008483	-0.003580	-0.013364	0.079590	-0.104004	-0.744141	2.378355	33.529497	136.443999
16030		-5.437517	0.210396	8.211775	-0.006618	-0.000055	-0.013172	0.071533	-0.116943	-0.751465	2.371010	33.525963	136.435309
