// General information: 
//  MT Manager version: 2022.2.0 
//  XDA version: 2022.2.0 build 7381 rev 124627 built on 2023-07-19
// Device information: 
//  DeviceId: 00B4BCF6
//  ProductCode: MTW2-3A7G6
//  Firmware Version: 4.6.0
//  Hardware Version: 2.0.0
// Device settings: 
//  Filter Profile: human(46.1)
//  Option Flags: Orientation Smoother Disabled, Position/Velocity Smoother Disabled, Continuous Zero Rotation Update Disabled, AHS Disabled, ICC Disabled
// Coordinate system: ENU
PacketCounter	SampleTimeFine	Acc_X	Acc_Y	Acc_Z	Gyr_X	Gyr_Y	Gyr_Z	Mag_X	Mag_Y	Mag_Z	Roll	Pitch	Yaw
18023		-5.354193	-1.140253	8.215641	0.002587	0.003881	-0.002628	-0.446289	-0.165771	-0.549316	-7.778043	32.907672	46.390589
18024		-5.363688	-1.130181	8.183789	0.003744	0.001358	-0.000208	-0.454834	-0.171143	-0.548340	-7.772893	32.906434	46.394368
18025		-5.365330	-1.107545	8.209874	0.002587	0.003881	-0.002628	-0.456543	-0.172119	-0.551270	-7.769767	32.906981	46.395840
18026		-5.373348	-1.151880	8.179342	0.005596	0.002353	0.002530	-0.453369	-0.168945	-0.548340	-7.762600	32.906519	46.401378
18027		-5.362837	-1.151516	8.157368	0.008463	0.000949	-0.001403	-0.447998	-0.172119	-0.548096	-7.755507	32.905478	46.403667
18028		-5.375149	-1.128193	8.205466	0.005943	0.004111	0.002689	-0.453369	-0.166260	-0.547363	-7.748171	32.906026	46.409151
18029		-5.366186	-1.073407	8.182111	0.004719	-0.000409	-0.001195	-0.453857	-0.169922	-0.545654	-7.743080	32.904235	46.411836
18030		-5.384556	-1.149686	8.201218	0.002992	0.001740	-0.001498	-0.449219	-0.165283	-0.546143	-7.738855	32.903113	46.414706
18031		-5.345085	-1.105384	8.165606	0.006513	0.004484	0.000571	-0.448486	-0.164307	-0.545166	-7.732327	32.904224	46.418609
18032		-5.365272	-1.127002	8.183189	0.002017	0.003507	-0.000510	-0.457764	-0.162842	-0.538086	-7.728386	32.904181	46.421985
18033		-5.356119	-1.104641	8.187390	0.003620	-0.001786	-0.002644	-0.452637	-0.172119	-0.545654	-7.724381	32.901456	46.425432
18034		-5.365450	-1.126692	8.183115	0.002364	0.005265	-0.000351	-0.453369	-0.165527	-0.546875	-7.720271	32.902423	46.428754
18035		-5.345851	-1.136593	8.192710	0.004661	0.003488	-0.002167	-0.454346	-0.156738	-0.550781	-7.715755	32.902748	46.430570
18036		-5.386063	-1.116003	8.172962	0.005760	0.004865	-0.000718	-0.447998	-0.172119	-0.560791	-7.709813	32.903458	46.433681
18037		-5.357308	-1.135604	8.214254	0.003463	0.006642	0.001097	-0.449951	-0.162598	-0.555176	-7.704955	32.905882	46.438815
18038		-5.387005	-1.115195	8.172452	0.005190	0.004492	0.001400	-0.443604	-0.166992	-0.551025	-7.698543	32.906543	46.443393
18039		-5.356788	-1.125101	8.160096	0.005760	0.004864	-0.000718	-0.456299	-0.161865	-0.549316	-7.692945	32.907818	46.446909
18040		-5.348032	-1.134398	8.191591	0.006636	0.007627	0.003007	-0.460205	-0.158936	-0.538574	-7.685270	32.910382	46.452288
18041		-5.359370	-1.101507	8.185684	0.004785	0.006631	0.000269	-0.449951	-0.168701	-0.551758	-7.679942	32.912633	46.458139
18042		-5.369087	-1.123057	8.181229	0.007792	0.005105	0.005429	-0.450684	-0.167480	-0.549072	-7.670589	32.913949	46.465387
18043		-5.380092	-1.121972	8.203079	0.008239	0.002332	0.000876	-0.455078	-0.165771	-0.546875	-7.662849	32.913868	46.469248
18044		-5.360516	-1.099438	8.185212	0.005760	0.004863	-0.000718	-0.455078	-0.163818	-0.544434	-7.656906	32.914575	46.472361
18045		-5.380762	-1.120829	8.202796	0.007263	0.004100	0.001862	-0.452881	-0.171875	-0.552979	-7.649442	32.915525	46.477915
18046		-5.371914	-1.097915	8.206861	0.007263	0.004100	0.001862	-0.456543	-0.169189	-0.537842	-7.641651	32.915995	46.482843
18047		-5.372222	-1.129384	8.234263	0.005189	0.004491	0.001400	-0.447754	-0.165771	-0.548828	-7.635557	32.917126	46.486380
18048		-5.361920	-1.097069	8.184610	0.006165	0.002723	0.000414	-0.453857	-0.166016	-0.546387	-7.628860	32.916703	46.490453
18049		-5.371366	-1.118858	8.180308	0.004091	0.003114	-0.000048	-0.453369	-0.165771	-0.546387	-7.623869	32.916972	46.494181
18050		-5.351599	-1.128562	8.190067	0.005818	0.000965	0.000256	-0.457520	-0.164795	-0.546875	-7.617343	32.915538	46.498306
18051		-5.391576	-1.139950	8.197963	0.003519	0.002743	0.002069	-0.450928	-0.177002	-0.549072	-7.611879	32.915727	46.504070
18052		-5.362744	-1.095419	8.184291	0.004091	0.003114	-0.000048	-0.448730	-0.173340	-0.550049	-7.606561	32.915489	46.507795
18053		-5.372199	-1.117273	8.179978	0.005413	0.003103	-0.000876	-0.454834	-0.167236	-0.546387	-7.601109	32.915691	46.508288
18054		-5.384595	-1.094175	8.227966	0.002768	0.003124	0.000779	-0.459473	-0.169189	-0.549316	-7.596244	32.915521	46.512571
18055		-5.383463	-1.116382	8.201630	0.005009	0.005242	-0.002008	-0.453613	-0.166748	-0.544434	-7.591546	32.916810	46.514753
18056		-5.344080	-1.104409	8.193429	0.000289	0.005654	-0.000816	-0.452881	-0.167969	-0.548340	-7.588811	32.917956	46.517729
18057		-5.335421	-1.114196	8.224822	0.000412	0.008799	0.001619	-0.450195	-0.171143	-0.545898	-7.585587	32.921549	46.521938
18058		-5.365182	-1.094035	8.182879	0.005009	0.005242	-0.002008	-0.445801	-0.171875	-0.552246	-7.580567	32.922371	46.524146
18059		-5.356576	-1.103641	8.214263	0.000759	0.010556	0.001777	-0.452393	-0.169434	-0.543213	-7.577171	32.927005	46.526701
18060		-5.374494	-1.138248	8.151557	0.003179	0.011921	0.002398	-0.450195	-0.171875	-0.540771	-7.571904	32.931952	46.531289
18061		-5.378529	-1.092846	8.203204	0.003526	0.013678	0.002557	-0.449707	-0.167480	-0.544189	-7.566779	32.938360	46.534505
18062		-5.379542	-1.092522	8.202583	0.002081	0.010544	0.000950	-0.451172	-0.166504	-0.547607	-7.562606	32.942415	46.538237
18063		-5.380421	-1.092334	8.202032	0.002653	0.010914	-0.001168	-0.456787	-0.166504	-0.543701	-7.559223	32.946998	46.540476
18064		-5.359836	-1.124972	8.185173	-0.000519	0.009929	-0.003080	-0.447021	-0.169922	-0.554932	-7.557991	32.950400	46.541537
18065		-5.391231	-1.114755	8.196748	-0.001091	0.009559	-0.000963	-0.453369	-0.169434	-0.544189	-7.556612	32.954235	46.543766
18066		-5.391916	-1.082571	8.168749	0.004783	0.006627	0.000270	-0.449707	-0.163818	-0.553467	-7.550948	32.956014	46.547392
18067		-5.393832	-1.092079	8.222192	-0.001559	0.004657	-0.003556	-0.453369	-0.168945	-0.552002	-7.550552	32.956869	46.548815
18068		-5.372833	-1.092808	8.178021	0.000289	0.005652	-0.000816	-0.445801	-0.165039	-0.548828	-7.547815	32.958012	46.551793
18069		-5.374797	-1.070394	8.203852	-0.000461	0.006033	-0.002106	-0.449707	-0.173096	-0.538818	-7.546324	32.959774	46.553837
18070		-5.413529	-1.104992	8.185292	-0.002882	0.004667	-0.002729	-0.457031	-0.168457	-0.544678	-7.546060	32.960214	46.555608
18071		-5.393911	-1.115701	8.194856	-0.005480	0.004053	-0.006760	-0.447754	-0.174316	-0.550537	-7.549040	32.960421	46.553377
18072		-5.374366	-1.094173	8.176831	0.000289	0.005652	-0.000815	-0.450439	-0.171143	-0.543701	-7.546303	32.961564	46.556356
18073		-5.394693	-1.084301	8.166686	-0.000414	0.005397	-0.007790	-0.452637	-0.177490	-0.548828	-7.546833	32.962514	46.552460
18074		-5.394788	-1.116700	8.194142	-0.000524	-0.001006	-0.003567	-0.456055	-0.170166	-0.550537	-7.545250	32.959668	46.554173
18075		-5.385686	-1.094625	8.198270	0.001838	0.004255	-0.003918	-0.454346	-0.167480	-0.543457	-7.543006	32.960243	46.552905
18076		-5.356910	-1.082795	8.212067	-0.003633	0.005047	-0.004020	-0.457764	-0.162598	-0.546631	-7.543667	32.960801	46.553769
18077		-5.426142	-1.107291	8.205623	-0.003979	0.003290	-0.004178	-0.455322	-0.172607	-0.541504	-7.544807	32.960773	46.555895
18078		-5.418834	-1.031346	8.208073	-0.007958	0.006580	-0.008356	-0.452637	-0.163818	-0.550049	-7.549618	32.961875	46.553686
18079		-5.374717	-1.152360	8.176516	-0.012048	0.003466	-0.008311	-0.453857	-0.166260	-0.541504	-7.556905	32.961652	46.551634
18080		-5.367326	-1.109128	8.206503	-0.010557	0.005963	-0.012387	-0.452637	-0.165283	-0.548828	-7.564659	32.962100	46.546751
18081		-5.367657	-1.110495	8.206102	-0.009629	0.004831	-0.007688	-0.450195	-0.167725	-0.550781	-7.570402	32.962699	46.545915
18082		-5.367882	-1.111619	8.205803	-0.007901	0.002683	-0.007383	-0.443848	-0.168213	-0.553467	-7.574631	32.961661	46.544715
18083		-5.349589	-1.068232	8.214064	-0.006351	0.001287	-0.010485	-0.454590	-0.158203	-0.555420	-7.579364	32.960117	46.541073
18084		-5.368090	-1.113794	8.205371	-0.008306	0.004819	-0.008514	-0.447266	-0.168945	-0.550293	-7.584346	32.960207	46.538914
18085		-5.359148	-1.092758	8.209286	-0.008079	0.003433	-0.010790	-0.445313	-0.169189	-0.548096	-7.590288	32.959836	46.536939
18086		-5.377637	-1.138323	8.200583	-0.006578	0.002672	-0.008209	-0.455322	-0.165039	-0.548584	-7.594062	32.958728	46.535182
18087		-5.368558	-1.116816	8.204655	-0.001679	0.001512	-0.005989	-0.457275	-0.176514	-0.550781	-7.594463	32.957592	46.534945
18088		-5.387038	-1.097575	8.140987	-0.001679	0.001512	-0.005989	-0.456055	-0.166504	-0.552979	-7.594556	32.955994	46.534794
18089		-5.388486	-1.107906	8.194645	-0.005946	-0.000853	-0.009353	-0.448486	-0.168213	-0.544922	-7.598517	32.953235	46.531347
18090		-5.388209	-1.108687	8.194722	-0.002715	-0.003760	-0.006467	-0.444092	-0.159668	-0.545654	-7.599121	32.948607	46.531348
18091		-5.388063	-1.109299	8.194735	-0.005650	0.001539	-0.003510	-0.453369	-0.171143	-0.546143	-7.600888	32.947681	46.533788
18092		-5.377376	-1.110340	8.172672	-0.005601	0.000904	-0.009194	-0.453125	-0.177002	-0.548828	-7.604377	32.945495	46.531524
18093		-5.328379	-1.109092	8.196474	-0.003754	0.001900	-0.006453	-0.452148	-0.172607	-0.544434	-7.606138	32.944504	46.528190
18094		-5.368186	-1.121572	8.204249	-0.002025	-0.000246	-0.006148	-0.454346	-0.166504	-0.552490	-7.606402	32.941896	46.528091
18095		-5.368191	-1.122213	8.204158	-0.004505	0.002280	-0.007743	-0.451416	-0.166016	-0.553467	-7.609096	32.941032	46.525841
18096		-5.357605	-1.122885	8.182078	-0.000406	0.002137	-0.001131	-0.448975	-0.170166	-0.556152	-7.606703	32.940158	46.528921
18097		-5.359426	-1.100694	8.208044	-0.000418	0.005396	-0.007786	-0.447021	-0.165283	-0.548096	-7.607241	32.941130	46.526905
18098		-5.338320	-1.101410	8.163925	-0.000061	0.003894	-0.000971	-0.445801	-0.171631	-0.556152	-7.604678	32.941266	46.529935
18099		-5.388947	-1.113308	8.193610	0.000622	-0.000264	-0.007801	-0.449219	-0.167236	-0.544434	-7.604343	32.939022	46.527987
18100		-5.390646	-1.091287	8.219638	-0.003637	0.005042	-0.004017	-0.455078	-0.161865	-0.550049	-7.605006	32.939579	46.528852
18101		-5.389515	-1.082242	8.165597	-0.004388	0.005422	-0.005307	-0.457764	-0.165039	-0.552979	-7.606895	32.940675	46.530202
18102		-5.359095	-1.125206	8.180782	-0.002659	0.003276	-0.005003	-0.453857	-0.165527	-0.544189	-7.607273	32.940154	46.530560
18103		-5.380915	-1.093328	8.196813	-0.004567	0.006172	-0.008714	-0.461670	-0.164063	-0.545166	-7.610552	32.941398	46.529443
18104		-5.328917	-1.136938	8.168190	-0.004099	0.000141	-0.006613	-0.448486	-0.169678	-0.549316	-7.612193	32.938974	46.528994
18105		-5.352162	-1.082510	8.210519	-0.004211	0.004670	-0.001900	-0.451904	-0.161865	-0.550293	-7.612682	32.939872	46.531785
18106		-5.412305	-1.085142	8.208131	-0.006069	0.006931	-0.011295	-0.454834	-0.172363	-0.556885	-7.617508	32.940949	46.527554
18107		-5.454187	-1.044018	8.214133	-0.015284	0.006353	-0.011197	-0.454590	-0.168213	-0.549072	-7.627855	32.942158	46.523860
18108		-5.333425	-1.064989	8.191514	-0.019154	0.005106	-0.020086	-0.451172	-0.175049	-0.542969	-7.643324	32.941528	46.513845
18109		-5.339533	-1.198734	8.189392	-0.016214	0.007479	-0.015894	-0.449951	-0.165283	-0.554443	-7.655956	32.942951	46.504359
18110		-5.372279	-1.103735	8.172142	-0.011658	0.004568	-0.013834	-0.457520	-0.165283	-0.545898	-7.664803	32.942490	46.498624
18111		-5.350833	-1.169759	8.183001	-0.007331	0.003042	-0.009498	-0.447754	-0.170898	-0.559082	-7.669797	32.941912	46.497108
18112		-5.331200	-1.148902	8.165026	-0.009062	0.005185	-0.009802	-0.452393	-0.169189	-0.553467	-7.675704	32.942108	46.494045
18113		-5.362146	-1.139611	8.176788	-0.002839	0.004025	-0.008408	-0.459473	-0.168457	-0.541992	-7.677781	32.942240	46.490773
18114		-5.383920	-1.107663	8.192915	-0.001337	0.003266	-0.005827	-0.447266	-0.165283	-0.546631	-7.677704	32.941651	46.490574
18115		-5.353370	-1.118329	8.180702	-0.002253	0.001137	-0.003871	-0.447510	-0.172119	-0.551758	-7.677611	32.940364	46.492030
18116		-5.373415	-1.108507	8.170748	0.001489	0.002501	-0.004071	-0.447510	-0.172119	-0.553467	-7.675231	32.939475	46.493089
18117		-5.353641	-1.118734	8.180469	0.000738	0.002880	-0.005362	-0.460449	-0.165527	-0.546387	-7.674072	32.939172	46.490548
18118		-5.373836	-1.108910	8.170417	-0.000243	0.004644	-0.004375	-0.448242	-0.164795	-0.547607	-7.672902	32.939476	46.491206
18119		-5.384782	-1.109176	8.192144	-0.003755	0.001895	-0.006452	-0.455811	-0.166992	-0.545410	-7.674663	32.938434	46.491969
18120		-5.384922	-1.109682	8.191983	-0.001910	0.002894	-0.003710	-0.447754	-0.169922	-0.559082	-7.674117	32.937795	46.493236
18121		-5.354379	-1.120436	8.179753	-0.003755	0.001895	-0.006452	-0.463379	-0.168701	-0.545166	-7.675883	32.936813	46.492264
18122		-5.374336	-1.111079	8.169794	-0.003525	0.000509	-0.008729	-0.454590	-0.164307	-0.545410	-7.677990	32.934437	46.490354
18123		-5.354487	-1.121891	8.179483	-0.004163	0.004030	-0.007582	-0.453125	-0.175537	-0.549805	-7.680491	32.934463	46.489851
18124		-5.354783	-1.122457	8.179212	-0.000994	0.005022	-0.005665	-0.448730	-0.164063	-0.542969	-7.680246	32.934883	46.489602
18125		-5.365881	-1.122726	8.200840	-0.001746	0.005401	-0.006956	-0.452393	-0.164063	-0.542480	-7.681204	32.935807	46.486954
18126		-5.375527	-1.113413	8.168692	-0.002154	0.007536	-0.008085	-0.452393	-0.171875	-0.549561	-7.682637	32.937470	46.484839
18127		-5.356092	-1.123947	8.178150	-0.000652	0.006779	-0.005504	-0.456055	-0.158936	-0.548584	-7.682504	32.939273	46.484173
18128		-5.377799	-1.124112	8.221780	-0.004097	0.000136	-0.006614	-0.450684	-0.166016	-0.548340	-7.684143	32.936846	46.483728
18129		-5.356621	-1.092860	8.150228	-0.000652	0.006778	-0.005504	-0.456055	-0.171875	-0.545898	-7.684025	32.938667	46.485952
18130		-5.398395	-1.115047	8.211359	-0.003070	0.005406	-0.006130	-0.448242	-0.166504	-0.547607	-7.685159	32.939270	46.485353
18131		-5.357104	-1.126051	8.177198	-0.002773	0.000129	-0.007439	-0.451660	-0.167725	-0.552734	-7.686619	32.937152	46.483247
18132		-5.377040	-1.116543	8.167269	-0.001680	0.001507	-0.005987	-0.444092	-0.166016	-0.544678	-7.686710	32.935551	46.483101
18133		-5.349850	-1.114583	8.234848	-0.004052	0.007169	-0.005143	-0.446045	-0.163574	-0.548584	-7.688422	32.937662	46.482670
18134		-5.368793	-1.095597	8.170823	-0.006878	0.007932	-0.006899	-0.447021	-0.171387	-0.542480	-7.692146	32.939640	46.481320
18135		-5.430763	-1.076100	8.194432	-0.006878	0.007931	-0.006899	-0.452637	-0.168945	-0.551514	-7.696152	32.942026	46.479029
18136		-5.381993	-1.075517	8.218105	-0.014939	0.000415	-0.018191	-0.455811	-0.161133	-0.545654	-7.708275	32.938869	46.470726
18137		-5.360652	-1.110098	8.201290	-0.016109	0.010595	-0.013455	-0.447510	-0.176025	-0.542236	-7.720110	32.942226	46.466018
18138		-5.390165	-1.124307	8.186539	-0.015060	0.004938	-0.013475	-0.450928	-0.172363	-0.548828	-7.730793	32.941997	46.460493
18139		-5.359446	-1.168641	8.201613	-0.013846	0.001790	-0.016739	-0.454102	-0.170898	-0.550781	-7.742077	32.940100	46.448959
18140		-5.339763	-1.148313	8.183655	-0.010569	0.005926	-0.012382	-0.451172	-0.164551	-0.551270	-7.749833	32.940514	46.444082
18141		-5.369090	-1.161794	8.169106	-0.005667	0.004780	-0.010160	-0.446289	-0.172119	-0.556641	-7.754187	32.940846	46.440679
18142		-5.372999	-1.085629	8.193721	-0.002732	0.007160	-0.005965	-0.452393	-0.175049	-0.552246	-7.755155	32.942456	46.440030
18143		-5.371480	-1.140776	8.194681	-0.003755	0.001889	-0.006452	-0.451904	-0.166748	-0.554688	-7.756901	32.941481	46.436152
18144		-5.400843	-1.121425	8.152815	-0.003646	0.005030	-0.004012	-0.450684	-0.168457	-0.543945	-7.757568	32.942033	46.437019
18145		-5.393684	-1.109729	8.210493	-0.006992	0.004784	-0.009335	-0.448486	-0.167969	-0.551270	-7.762373	32.942421	46.434197
18146		-5.422779	-1.123182	8.196093	-0.010090	-0.000104	-0.010288	-0.452637	-0.165527	-0.541748	-7.768783	32.939573	46.431292
18147		-5.331980	-1.164682	8.213602	-0.005708	-0.002254	-0.011635	-0.451416	-0.168945	-0.550049	-7.773339	32.935769	46.427960
18148		-5.330155	-1.155942	8.159932	-0.005940	-0.000871	-0.009357	-0.452393	-0.165283	-0.547119	-7.776989	32.932558	46.425756
18149		-5.333456	-1.112012	8.212359	-0.004097	0.000131	-0.006614	-0.451172	-0.167480	-0.543945	-7.778899	32.930499	46.425461
18150		-5.362336	-1.125014	8.198157	-0.005189	-0.001249	-0.008067	-0.455566	-0.166748	-0.548828	-7.781625	32.927173	46.424165
18151		-5.371412	-1.115980	8.166342	-0.004275	0.000881	-0.010019	-0.452393	-0.158203	-0.547363	-7.784918	32.925238	46.421561
18152		-5.353266	-1.104380	8.202272	-0.003416	0.003644	-0.006288	-0.455322	-0.166992	-0.545166	-7.786220	32.924827	46.421017
18153		-5.340821	-1.159939	8.181325	-0.006762	0.003396	-0.011612	-0.447266	-0.169678	-0.543945	-7.791656	32.924197	46.419603
18154		-5.420565	-1.153111	8.169140	-0.005027	0.001257	-0.011309	-0.452393	-0.164551	-0.536133	-7.795606	32.922041	46.415884
18155		-5.340925	-1.162030	8.180960	-0.006584	0.002645	-0.008206	-0.458008	-0.165039	-0.540771	-7.799630	32.921220	46.413555
18156		-5.341101	-1.162859	8.180728	-0.002844	0.004016	-0.008403	-0.449707	-0.168701	-0.543945	-7.801400	32.920856	46.411547
18157		-5.330633	-1.163598	8.158531	-0.003077	0.005400	-0.006125	-0.447998	-0.170410	-0.558105	-7.802791	32.921743	46.411093
18158		-5.352618	-1.131739	8.174648	-0.002665	0.003266	-0.004998	-0.459473	-0.167480	-0.544189	-7.803169	32.921218	46.411457
18159		-5.383627	-1.122049	8.186454	-0.001001	0.005018	-0.005659	-0.451660	-0.169434	-0.544189	-7.803200	32.922005	46.410551
18160		-5.394832	-1.122410	8.208015	-0.002737	0.007156	-0.005962	-0.451904	-0.166016	-0.552246	-7.804170	32.923613	46.409903
18161		-5.355386	-1.110997	8.199994	-0.005259	0.002639	-0.009031	-0.451172	-0.165771	-0.549316	-7.807756	32.922779	46.407267
18162		-5.342978	-1.166587	8.178971	-0.007229	0.006160	-0.007055	-0.446777	-0.167236	-0.551270	-7.811651	32.923736	46.405970
18163		-5.343220	-1.167331	8.178707	-0.003005	0.001508	-0.005161	-0.450684	-0.160400	-0.553467	-7.812478	32.922607	46.406495
18164		-5.363300	-1.157692	8.168713	0.000735	0.002880	-0.005356	-0.448486	-0.170166	-0.539307	-7.811021	32.921835	46.406652
18165		-5.356284	-1.113334	8.199091	-0.001575	0.004644	-0.003544	-0.456543	-0.171631	-0.547119	-7.810586	32.922566	46.408551
18166		-5.334901	-1.145964	8.182457	-0.000823	0.004268	-0.002254	-0.453125	-0.169922	-0.544678	-7.808952	32.922823	46.410677
18167		-5.365972	-1.136108	8.194246	-0.001575	0.004644	-0.003544	-0.446289	-0.169189	-0.545410	-7.808489	32.923484	46.410068
18168		-5.366506	-1.136177	8.193888	0.003595	0.009154	-0.002122	-0.449707	-0.167236	-0.549561	-7.804521	32.926525	46.411830
18169		-5.357918	-1.146043	8.225279	0.000841	0.006020	-0.002915	-0.453369	-0.167236	-0.554199	-7.802535	32.928104	46.412262
18170		-5.409088	-1.094382	8.199726	-0.006761	0.003390	-0.011612	-0.453857	-0.167480	-0.549561	-7.807698	32.927134	46.408141
18171		-5.335147	-1.170073	8.154654	-0.003651	0.005024	-0.004010	-0.449219	-0.169678	-0.542236	-7.808641	32.928048	46.409230
18172		-5.357046	-1.138466	8.170813	-0.006923	0.000883	-0.008371	-0.451904	-0.156250	-0.557617	-7.812578	32.925908	46.407534
18173		-5.328174	-1.127051	8.184842	-0.002844	0.004013	-0.008402	-0.454590	-0.164795	-0.556885	-7.814636	32.925922	46.407923
18174		-5.339262	-1.127592	8.206460	-0.003078	0.005396	-0.006124	-0.447021	-0.168701	-0.540283	-7.815772	32.926519	46.407328
18175		-5.348890	-1.118269	8.174312	-0.004064	0.007156	-0.005136	-0.448242	-0.171631	-0.548340	-7.817469	32.928543	46.407275
18176		-5.369156	-1.141211	8.191452	-0.004007	0.006522	-0.010819	-0.456787	-0.167236	-0.553223	-7.820921	32.929412	46.403400
18177		-5.360627	-1.119764	8.195376	-0.004815	0.007532	-0.006426	-0.455811	-0.164795	-0.545654	-7.823535	32.931546	46.401240
18178		-5.370123	-1.142957	8.190574	-0.006083	0.006900	-0.011285	-0.446045	-0.168945	-0.549561	-7.828367	32.932593	46.397014
18179		-5.361770	-1.121667	8.194368	-0.006214	0.011423	-0.006564	-0.453125	-0.165771	-0.550293	-7.832031	32.936910	46.395527
18180		-5.362305	-1.154661	8.221214	-0.004816	0.007530	-0.006426	-0.451416	-0.171143	-0.546875	-7.834382	32.938694	46.394528
18181		-5.361357	-1.145454	8.167007	-0.003388	0.010667	-0.004807	-0.439697	-0.164063	-0.547363	-7.835736	32.942706	46.393577
18182		-5.362002	-1.145830	8.166531	0.000087	0.006395	-0.004203	-0.455322	-0.164307	-0.551514	-7.834403	32.944020	46.394187
18183		-5.373424	-1.145936	8.187993	-0.001135	0.009538	-0.000936	-0.448975	-0.168457	-0.550781	-7.833009	32.947760	46.397942
18184		-5.343347	-1.156104	8.175517	0.001177	0.007776	-0.002748	-0.459473	-0.162354	-0.549561	-7.830587	32.949970	46.399408
18185		-5.356596	-1.133960	8.223213	-0.002402	0.008906	-0.005795	-0.455566	-0.169922	-0.547607	-7.831660	32.952900	46.400160
18186		-5.355190	-1.156578	8.196654	0.002811	0.002500	-0.004888	-0.446533	-0.165283	-0.549316	-7.828821	32.951949	46.400669
18187		-5.355784	-1.124242	8.168977	0.002442	0.008406	0.002111	-0.453125	-0.168213	-0.543213	-7.824177	32.955220	46.404849
18188		-5.367156	-1.123892	8.190536	0.003665	0.005264	-0.001155	-0.453369	-0.166016	-0.550781	-7.819615	32.956129	46.407627
18189		-5.345719	-1.155982	8.173983	0.002752	0.003134	0.000795	-0.454590	-0.164307	-0.540039	-7.815001	32.956263	46.411983
18190		-5.367896	-1.123237	8.190141	0.005505	0.006268	0.001591	-0.455811	-0.163330	-0.552490	-7.808425	32.957955	46.416525
18191		-5.355624	-1.144973	8.141860	0.008980	0.001997	0.002197	-0.459717	-0.167725	-0.545166	-7.799673	32.957526	46.424228
18192		-5.346860	-1.153786	8.173547	0.012247	0.006138	0.006560	-0.456787	-0.162842	-0.549316	-7.787399	32.959530	46.432146
18193		-5.389028	-1.110160	8.179896	0.012144	0.002998	0.004119	-0.449219	-0.161133	-0.546143	-7.776169	32.959791	46.440865
18194		-5.421857	-1.076687	8.218112	0.010879	0.002365	-0.000740	-0.442871	-0.166992	-0.545410	-7.767175	32.959084	46.444193
18195		-5.422018	-1.076210	8.218068	0.001663	0.001753	-0.000660	-0.456543	-0.169922	-0.550781	-7.763671	32.958394	46.447695
18196		-5.347692	-1.183174	8.200734	0.001487	0.002501	-0.004064	-0.455566	-0.168945	-0.544678	-7.761288	32.957507	46.448761
18197		-5.378757	-1.140917	8.185192	0.003563	0.002122	-0.003597	-0.447754	-0.162842	-0.549805	-7.757758	32.956694	46.449511
18198		-5.360914	-1.096296	8.193816	0.002238	0.002125	-0.002774	-0.453125	-0.161865	-0.555420	-7.754452	32.955693	46.451485
18199		-5.369971	-1.118524	8.189426	0.001325	-0.000003	-0.000823	-0.448486	-0.166260	-0.554443	-7.751131	32.954022	46.457929
18200		-5.360897	-1.128373	8.221179	0.002238	0.002125	-0.002774	-0.448975	-0.162842	-0.544922	-7.747825	32.953021	46.459903
18201		-5.350448	-1.096233	8.171719	0.002576	0.003881	-0.002610	-0.452148	-0.161133	-0.542725	-7.744625	32.953396	46.462545
18202		-5.359708	-1.118310	8.167217	0.004077	0.003130	-0.000028	-0.455078	-0.163574	-0.544922	-7.739305	32.953177	46.466283
18203		-5.372637	-1.095716	8.215175	0.001825	0.004257	-0.003901	-0.448730	-0.164551	-0.546387	-7.737000	32.953543	46.469818
18204		-5.371193	-1.118190	8.188670	-0.000487	0.006019	-0.002091	-0.454590	-0.169189	-0.539551	-7.735199	32.954805	46.471895
18205		-5.380579	-1.140673	8.184028	-0.000250	0.004635	-0.004368	-0.447021	-0.166748	-0.543701	-7.734256	32.955354	46.471502
18206		-5.380965	-1.140780	8.183759	0.001588	0.005640	-0.001623	-0.450195	-0.165527	-0.550293	-7.731074	32.956436	46.473931
18207		-5.352490	-1.128603	8.197699	-0.001238	0.006395	-0.003381	-0.455322	-0.171875	-0.552246	-7.730449	32.958144	46.474310
18208		-5.372889	-1.118577	8.187504	0.004414	0.004886	0.000136	-0.449707	-0.171387	-0.547119	-7.724963	32.958934	46.477999
18209		-5.373260	-1.118553	8.187264	-0.001576	0.004638	-0.003545	-0.446045	-0.169189	-0.555176	-7.724482	32.959602	46.476508
18210		-5.364523	-1.096448	8.191433	0.002813	0.002497	-0.004887	-0.456787	-0.161377	-0.554443	-7.721643	32.958648	46.477017
18211		-5.364748	-1.096461	8.191284	0.001250	0.003884	-0.001786	-0.454834	-0.161865	-0.551025	-7.718902	32.959109	46.481155
18212		-5.363142	-1.118973	8.164871	-0.000588	0.002878	-0.004532	-0.450684	-0.158936	-0.544678	-7.717900	32.958399	46.481869
18213		-5.383134	-1.141458	8.182238	-0.000588	0.002878	-0.004532	-0.452393	-0.167969	-0.549072	-7.717160	32.957986	46.486820
18214		-5.385100	-1.119431	8.208349	-0.002251	0.001126	-0.003873	-0.449463	-0.162598	-0.550537	-7.716781	32.956332	46.488141
18215		-5.374329	-1.119976	8.186368	-0.003002	0.001501	-0.005164	-0.452637	-0.171631	-0.546875	-7.717580	32.955123	46.489317
18216		-5.365249	-1.098092	8.190737	0.002950	-0.002028	-0.009605	-0.455566	-0.170410	-0.544189	-7.716174	32.951237	46.487049
18217		-5.354225	-1.130631	8.196287	-0.002489	0.002509	-0.001595	-0.454590	-0.166016	-0.554932	-7.715366	32.950770	46.487170
18218		-5.354274	-1.131023	8.196201	-0.002014	-0.000259	-0.006150	-0.456787	-0.162842	-0.548340	-7.715620	32.948154	46.487077
18219		-5.356166	-1.108950	8.222374	-0.000413	0.002131	-0.001127	-0.453857	-0.161865	-0.553711	-7.713479	32.947576	46.493197
18220		-5.383406	-1.143790	8.181734	0.000737	0.002875	-0.005355	-0.450684	-0.168457	-0.542725	-7.712021	32.946801	46.493356
18221		-5.363797	-1.121945	8.164034	-0.002664	0.003256	-0.005000	-0.451660	-0.159668	-0.553467	-7.712643	32.946562	46.494675
18222		-5.385886	-1.089978	8.180125	-0.000251	0.004634	-0.004368	-0.454346	-0.164551	-0.546631	-7.711476	32.946862	46.495339
18223		-5.375220	-1.122424	8.185448	0.000499	0.004259	-0.003077	-0.464111	-0.158936	-0.547607	-7.709645	32.947361	46.500399
18224		-5.375560	-1.122743	8.185181	-0.003653	0.005014	-0.004013	-0.452148	-0.175293	-0.551514	-7.710315	32.947904	46.501268
18225		-5.346894	-1.110699	8.199252	0.002812	0.002497	-0.004886	-0.451172	-0.164307	-0.553467	-7.707695	32.947177	46.503842
18226		-5.365243	-1.123403	8.162883	-0.003078	0.005386	-0.006127	-0.452148	-0.170410	-0.557373	-7.708832	32.947768	46.503248
18227		-5.378427	-1.101177	8.210655	0.003248	0.007393	-0.002280	-0.449707	-0.170898	-0.547363	-7.705293	32.950178	46.505833
18228		-5.366156	-1.155782	8.189591	-0.000153	0.007773	-0.001926	-0.444824	-0.176758	-0.547607	-7.703327	32.952448	46.507863
18229		-5.397498	-1.113702	8.173828	0.000162	0.002502	-0.003241	-0.456299	-0.173584	-0.551025	-7.701616	32.951945	46.502579
18230		-5.368822	-1.101523	8.187934	0.000499	0.004258	-0.003077	-0.447998	-0.164551	-0.556885	-7.699525	32.952130	46.504152
18231		-5.378058	-1.124214	8.183338	-0.004740	0.003632	-0.005469	-0.451416	-0.166748	-0.555908	-7.701531	32.952126	46.503497
18232		-5.378323	-1.124553	8.183117	0.003149	0.004252	-0.004721	-0.463379	-0.172363	-0.551758	-7.698526	32.952182	46.503957
18233		-5.356798	-1.157039	8.166578	-0.001577	0.004635	-0.003545	-0.459229	-0.164551	-0.543945	-7.698042	32.952821	46.505735
18234		-5.350153	-1.112783	8.196843	-0.003316	0.006768	-0.003850	-0.462158	-0.164551	-0.549072	-7.698546	32.954372	46.506555
18235		-5.328863	-1.145340	8.180142	0.000596	0.007398	-0.000635	-0.450928	-0.163574	-0.555420	-7.695863	32.956675	46.513186
18236		-5.382127	-1.103094	8.207973	-0.000904	0.008146	-0.003217	-0.456787	-0.169189	-0.544678	-7.694821	32.959058	46.514308
18237		-5.352016	-1.113260	8.195562	0.001508	0.009524	-0.002584	-0.453857	-0.163086	-0.552734	-7.692467	32.962551	46.516616
18238		-5.372654	-1.135537	8.212513	-0.000807	0.011285	-0.000775	-0.451172	-0.169189	-0.542969	-7.690626	32.966903	46.519104
18239		-5.382443	-1.125749	8.180243	0.000835	0.006013	-0.002912	-0.453369	-0.158691	-0.545898	-7.688599	32.968363	46.520747
18240		-5.393770	-1.125861	8.201775	-0.001241	0.006390	-0.003381	-0.455566	-0.166992	-0.543213	-7.687722	32.969735	46.521920
18241		-5.405264	-1.093927	8.195839	-0.004468	0.006024	0.000376	-0.451904	-0.171143	-0.545410	-7.687517	32.971394	46.527919
18242		-5.425446	-1.116726	8.213009	-0.005489	0.004004	-0.006761	-0.451172	-0.162109	-0.548096	-7.690200	32.971152	46.527022
18243		-5.462464	-1.008817	8.275822	-0.014716	0.006632	-0.013334	-0.448975	-0.165527	-0.544678	-7.700947	32.972165	46.520515
18244		-5.551318	-1.026447	8.258589	-0.031691	0.004110	-0.025377	-0.456055	-0.171387	-0.545654	-7.725505	32.970552	46.507009
18245		-5.357522	-1.069068	8.190757	-0.044594	0.004714	-0.037441	-0.452393	-0.166748	-0.549805	-7.762122	32.968577	46.483269
18246		-5.291804	-1.171439	8.141062	-0.041195	0.004326	-0.037792	-0.442383	-0.161865	-0.550293	-7.796705	32.966111	46.461346
18247		-5.311580	-1.198543	8.157826	-0.033949	0.005211	-0.029245	-0.444824	-0.172852	-0.548584	-7.824281	32.965167	46.444980
18248		-5.397400	-1.095809	8.196297	-0.027962	0.005464	-0.025558	-0.453125	-0.165771	-0.553223	-7.846833	32.964284	46.431231
18249		-5.437367	-1.112323	8.203105	-0.034544	0.008075	-0.033770	-0.446533	-0.170410	-0.550293	-7.876535	32.964569	46.408931
18250		-5.635536	-1.035900	8.321953	-0.048267	0.009672	-0.041442	-0.453125	-0.168213	-0.543213	-7.916782	32.964811	46.384044
18251		-5.675540	-0.959604	8.246705	-0.076165	-0.006083	-0.062374	-0.454346	-0.168457	-0.548584	-7.980095	32.954709	46.343429
18252		-5.369472	-1.232233	8.151950	-0.079532	-0.020424	-0.070678	-0.447021	-0.165283	-0.550049	-8.047437	32.935498	46.301645
18253		-5.203569	-1.300709	8.124114	-0.062477	-0.021781	-0.057676	-0.448975	-0.157227	-0.554443	-8.100334	32.916832	46.267899
18254		-5.390952	-1.140260	8.194477	-0.056223	-0.019143	-0.048138	-0.451416	-0.165771	-0.553955	-8.146059	32.900106	46.241282
18255		-5.512050	-1.076520	8.215867	-0.066055	-0.030990	-0.055577	-0.454102	-0.157471	-0.546631	-8.199754	32.876416	46.213766
18256		-5.382752	-1.178841	8.169859	-0.067904	-0.039053	-0.059819	-0.449463	-0.165039	-0.540039	-8.255351	32.847401	46.181256
18257		-5.301526	-1.315548	8.126880	-0.060412	-0.039548	-0.053556	-0.452637	-0.161133	-0.548340	-8.304495	32.818826	46.154898
18258		-5.238037	-1.319748	8.130548	-0.047161	-0.038375	-0.041337	-0.454834	-0.158936	-0.553467	-8.341420	32.791683	46.134866
18259		-5.190213	-1.245568	8.181776	-0.031161	-0.034039	-0.028316	-0.458008	-0.170166	-0.549072	-8.364876	32.768377	46.127126
18260		-5.317671	-1.079701	8.256257	-0.034902	-0.028422	-0.026620	-0.453125	-0.159668	-0.546631	-8.389908	32.748088	46.116068
18261		-5.566836	-0.898627	8.352542	-0.055408	-0.026791	-0.039222	-0.451904	-0.166504	-0.541992	-8.431547	32.727889	46.097028
18262		-5.570300	-0.919341	8.295979	-0.086072	-0.052850	-0.062454	-0.456055	-0.166504	-0.547852	-8.497585	32.690720	46.064326
18263		-5.372531	-1.294322	8.143964	-0.083673	-0.058526	-0.063322	-0.463379	-0.161133	-0.549316	-8.562345	32.650453	46.030018
18264		-5.143114	-1.391729	8.146214	-0.077122	-0.060539	-0.049450	-0.458984	-0.155762	-0.551514	-8.618011	32.609981	46.006971
18265		-5.234643	-1.326886	8.237607	-0.063950	-0.048428	-0.036675	-0.452637	-0.159424	-0.548828	-8.662324	32.577676	45.997737
18266		-5.249072	-1.313470	8.175932	-0.058239	-0.043507	-0.037342	-0.462402	-0.165283	-0.543457	-8.703658	32.547866	45.981174
18267		-5.245436	-1.319857	8.177237	-0.052672	-0.034064	-0.033265	-0.455566	-0.160400	-0.541992	-8.741004	32.523962	45.968015
18268		-5.291307	-1.328350	8.154257	-0.049937	-0.030916	-0.032454	-0.454346	-0.158447	-0.549316	-8.776475	32.501690	45.953488
18269		-5.195274	-1.395107	8.145390	-0.045310	-0.027367	-0.034582	-0.456543	-0.159668	-0.539307	-8.810447	32.481488	45.939166
18270		-5.122043	-1.428998	8.153035	-0.029666	-0.014429	-0.026862	-0.455566	-0.152344	-0.541992	-8.833183	32.469028	45.926710
18271		-5.214193	-1.371239	8.162984	-0.020925	-0.003933	-0.020866	-0.463135	-0.160645	-0.547607	-8.849537	32.463214	45.920324
18272		-5.317514	-1.313040	8.194775	-0.013918	-0.005379	-0.018208	-0.458740	-0.156982	-0.541504	-8.860634	32.456635	45.912740
18273		-5.355663	-1.284849	8.122110	-0.014010	-0.008519	-0.020669	-0.454834	-0.162598	-0.538574	-8.872684	32.448216	45.908090
18274		-5.200213	-1.409471	8.168600	-0.001124	-0.012179	-0.011132	-0.460938	-0.164551	-0.546143	-8.873518	32.438411	45.905968
18275		-5.153618	-1.462265	8.081893	0.014637	-0.010149	-0.004008	-0.464355	-0.158691	-0.543701	-8.863049	32.430545	45.907675
18276		-5.148537	-1.393998	8.140313	0.031102	-0.000841	0.011610	-0.458008	-0.160645	-0.544434	-8.837875	32.429165	45.919619
18277		-5.118227	-1.399583	8.128366	0.042878	0.008173	0.022741	-0.460938	-0.166260	-0.547119	-8.802662	32.434009	45.941800
18278		-5.152641	-1.362637	8.167146	0.056631	0.020718	0.033395	-0.457275	-0.160889	-0.555176	-8.756217	32.446729	45.966126
18279		-5.281198	-1.263368	8.215242	0.061303	0.028024	0.039408	-0.456055	-0.163330	-0.535400	-8.705564	32.464347	45.996242
18280		-5.430779	-1.196988	8.333874	0.056803	0.026962	0.038321	-0.457031	-0.160156	-0.542969	-8.657559	32.480994	46.023269
18281		-5.454307	-1.116704	8.269505	0.036650	0.015619	0.017219	-0.462891	-0.159424	-0.539063	-8.628273	32.489521	46.036154
18282		-5.292059	-1.171557	8.239562	0.019572	0.013594	0.010914	-0.460693	-0.166504	-0.540283	-8.610734	32.496217	46.046162
18283		-5.186627	-1.317074	8.234857	0.022632	0.025547	0.013410	-0.455078	-0.165527	-0.546631	-8.591353	32.509969	46.057830
18284		-5.223476	-1.218050	8.218106	0.021009	0.037211	0.011416	-0.460205	-0.160645	-0.538086	-8.574088	32.530081	46.065789
18285		-5.262596	-1.130019	8.254202	0.010919	0.047798	0.010805	-0.462402	-0.164551	-0.544189	-8.563589	32.556299	46.072134
18286		-5.222631	-1.192848	8.218096	0.003627	0.053890	0.003799	-0.466553	-0.155273	-0.540039	-8.559936	32.585209	46.073297
18287		-4.860028	-1.360489	8.203164	0.005250	0.076735	0.007699	-0.458252	-0.162109	-0.547119	-8.555354	32.627452	46.079934
18288		-5.018061	-1.355285	8.206386	0.008830	0.107476	0.024944	-0.456787	-0.153076	-0.548340	-8.543961	32.688525	46.089914
18289		-5.292280	-1.355056	8.070073	0.030958	0.121642	0.039935	-0.456299	-0.164795	-0.540039	-8.515421	32.759088	46.113264
18290		-5.176578	-1.331741	8.126939	0.045881	0.128326	0.059652	-0.451904	-0.169189	-0.546143	-8.471195	32.834905	46.144630
18291		-5.320421	-1.306918	8.164392	0.077488	0.131464	0.077429	-0.454102	-0.161377	-0.550537	-8.402603	32.914091	46.183798
18292		-5.566058	-1.240368	8.206007	0.084238	0.121010	0.087535	-0.448730	-0.157715	-0.548828	-8.325547	32.988024	46.234986
18293		-5.649326	-1.177333	8.219249	0.078330	0.102731	0.081785	-0.450684	-0.161377	-0.549561	-8.253145	33.051308	46.285701
18294		-5.689410	-0.950177	8.255148	0.051798	0.086891	0.059961	-0.456055	-0.167725	-0.547119	-8.202790	33.103531	46.321850
18295		-5.572631	-1.015542	8.230777	0.026693	0.074226	0.039758	-0.448975	-0.166504	-0.553223	-8.173764	33.147085	46.345030
18296		-5.503978	-1.085930	8.182174	0.016039	0.076913	0.024916	-0.449707	-0.155273	-0.550537	-8.156251	33.190764	46.358510
18297		-5.448200	-1.135541	8.181918	0.007568	0.068852	0.024749	-0.451172	-0.159668	-0.544922	-8.143443	33.230139	46.373360
18298		-5.482593	-1.146350	8.163755	0.004413	0.064070	0.014679	-0.443115	-0.165527	-0.546875	-8.135680	33.265698	46.381179
18299		-5.507949	-1.103131	8.123044	-0.001405	0.063035	0.014377	-0.445068	-0.164795	-0.551758	-8.131496	33.300864	46.385797
18300		-5.475397	-1.100591	8.166120	-0.005883	0.058255	0.005119	-0.452881	-0.166504	-0.540527	-8.132871	33.332348	46.387703
18301		-5.488746	-1.123362	8.158397	-0.009447	0.052355	0.000554	-0.447510	-0.161377	-0.549316	-8.137840	33.360295	46.383532
18302		-5.600902	-1.129497	8.127915	-0.015745	0.043324	-0.004837	-0.449463	-0.164063	-0.560303	-8.147789	33.382504	46.380121
18303		-5.519695	-1.183179	8.085926	-0.020786	0.031175	-0.013500	-0.450195	-0.161377	-0.544189	-8.163431	33.397417	46.372306
18304		-5.444535	-1.170639	8.123620	-0.018208	0.024805	-0.010957	-0.449219	-0.156250	-0.546387	-8.176095	33.408623	46.366530
18305		-5.421514	-1.259167	8.106830	-0.013042	0.015325	-0.012501	-0.445313	-0.158936	-0.548340	-8.186047	33.414488	46.361501
18306		-5.442133	-1.282339	8.123333	0.004980	0.005270	-0.001924	-0.442383	-0.158936	-0.543457	-8.180997	33.415351	46.363766
18307		-5.363008	-1.256461	8.109108	0.011276	0.004042	0.008591	-0.439941	-0.157715	-0.539551	-8.168550	33.416623	46.371850
18308		-5.365756	-1.264876	8.162660	0.017410	0.003563	0.015707	-0.450684	-0.163086	-0.540771	-8.149689	33.417951	46.386263
18309		-5.485696	-1.234974	8.129398	0.023127	0.005206	0.021704	-0.447510	-0.157227	-0.546143	-8.125571	33.420840	46.401869
18310		-5.521837	-1.113290	8.139435	0.018899	0.002814	0.018294	-0.440918	-0.156494	-0.552490	-8.104847	33.421942	46.418114
18311		-5.504565	-1.098846	8.175972	0.015843	0.001178	0.010667	-0.445313	-0.161133	-0.552979	-8.088884	33.421794	46.430623
18312		-5.451497	-1.139095	8.148198	0.012361	-0.001584	0.008550	-0.445557	-0.162109	-0.544922	-8.075319	33.419609	46.440671
18313		-5.400658	-1.157871	8.146744	0.005813	0.001019	0.000314	-0.449951	-0.160400	-0.549316	-8.068934	33.418500	46.443547
18314		-5.478565	-1.029277	8.189902	-0.003322	0.006738	-0.003838	-0.441650	-0.161865	-0.547852	-8.069434	33.420038	46.444373
18315		-5.450010	-1.161208	8.121302	-0.007539	0.007599	-0.013878	-0.449219	-0.151123	-0.543945	-8.076353	33.421510	46.437461
18316		-5.393192	-1.138026	8.150133	-0.011361	0.010084	-0.014661	-0.439209	-0.162354	-0.552002	-8.085689	33.424074	46.430608
18317		-5.312272	-1.201483	8.163298	-0.009884	0.016335	-0.010567	-0.448486	-0.163574	-0.552979	-8.093199	33.430787	46.427220
18318		-5.410972	-1.239930	8.139674	-0.009408	0.024332	-0.005483	-0.448242	-0.164063	-0.542236	-8.098741	33.442173	46.425226
18319		-5.477322	-1.134581	8.133361	-0.012157	0.028192	-0.004800	-0.452637	-0.165283	-0.544189	-8.105978	33.455987	46.421542
18320		-5.340447	-1.140835	8.147905	-0.015395	0.031051	-0.007691	-0.452148	-0.156006	-0.546143	-8.116140	33.471005	46.417391
18321		-5.049608	-1.292945	8.185445	-0.011718	0.050170	0.003307	-0.444092	-0.169434	-0.549316	-8.121250	33.497858	46.419777
18322		-5.282207	-1.335411	8.175131	-0.003249	0.068796	0.022243	-0.436035	-0.165283	-0.552490	-8.115235	33.536707	46.432324
18323		-5.569385	-1.062281	8.165989	-0.004673	0.072645	0.022115	-0.440186	-0.160156	-0.548828	-8.110478	33.578018	46.438754
18324		-5.575511	-1.029572	8.134588	-0.012548	0.075224	0.014687	-0.439453	-0.163574	-0.556641	-8.112960	33.619901	46.445548
18325		-5.568301	-1.117142	8.136581	-0.019486	0.072940	0.003813	-0.440674	-0.162354	-0.546387	-8.123611	33.659920	46.443437
18326		-5.512273	-1.170474	8.136504	-0.019078	0.070802	0.004935	-0.439209	-0.156982	-0.546875	-8.133278	33.698508	46.444005
18327		-5.515329	-1.193673	8.106245	-0.014172	0.062696	0.005685	-0.439941	-0.160400	-0.547363	-8.139604	33.732779	46.445020
18328		-5.528738	-1.184112	8.071011	-0.006597	0.054605	0.004811	-0.448975	-0.162354	-0.552002	-8.141294	33.762170	46.447076
18329		-5.575312	-1.174400	8.101224	-0.002216	0.049245	0.010125	-0.438477	-0.155762	-0.551270	-8.138341	33.789133	46.452566
18330		-5.624585	-1.166515	8.020074	-0.007810	0.036754	0.003535	-0.443359	-0.180176	-0.555908	-8.140238	33.808295	46.455495
18331		-5.527877	-1.183769	8.042244	0.003145	0.025065	0.008964	-0.447754	-0.155518	-0.544434	-8.133329	33.821524	46.458417
18332		-5.571638	-1.140903	8.047144	0.005917	0.014228	0.006770	-0.440674	-0.161865	-0.550537	-8.124904	33.828171	46.465757
18333		-5.668320	-1.121363	8.134515	0.000510	0.004244	-0.003048	-0.444336	-0.159180	-0.544922	-8.122945	33.828523	46.468426
18334		-5.624131	-0.946481	8.103494	-0.016655	0.003203	-0.022051	-0.444580	-0.162109	-0.550293	-8.137809	33.826581	46.457162
18335		-5.495296	-1.130250	8.086270	-0.022741	-0.003298	-0.030707	-0.440430	-0.164063	-0.546631	-8.159251	33.820418	46.440464
18336		-5.447752	-1.252212	8.054675	-0.017851	-0.004406	-0.028440	-0.449219	-0.168945	-0.555176	-8.176810	33.813634	46.425587
18337		-5.517542	-1.225061	8.045898	-0.011987	-0.010502	-0.020536	-0.441650	-0.167725	-0.553467	-8.187816	33.804229	46.413483
18338		-5.560403	-1.130263	8.051934	-0.002984	-0.022435	-0.021278	-0.439941	-0.164795	-0.552979	-8.193144	33.787800	46.405271
18339		-5.598130	-1.176567	8.087185	-0.000558	-0.028037	-0.022134	-0.447021	-0.166016	-0.547363	-8.197267	33.768401	46.393836
18340		-5.504481	-1.152448	8.053790	0.002610	-0.034014	-0.021695	-0.437500	-0.161377	-0.543457	-8.198908	33.745372	46.386484
18341		-5.453072	-1.183337	8.108079	0.005363	-0.037872	-0.022374	-0.437988	-0.160400	-0.539307	-8.199165	33.720289	46.377714
18342		-5.529309	-1.176924	8.096518	0.002278	-0.035772	-0.021869	-0.435791	-0.164795	-0.551025	-8.200958	33.696248	46.370421
18343		-5.564271	-1.070167	8.162168	-0.007373	-0.041182	-0.033590	-0.446533	-0.169189	-0.547363	-8.212583	33.668444	46.354944
18344		-5.473471	-1.179248	8.125932	-0.016550	-0.045600	-0.041732	-0.441162	-0.164795	-0.552734	-8.232111	33.637200	46.335103
18345		-5.447379	-1.279270	8.166121	-0.010462	-0.039095	-0.033082	-0.449219	-0.163330	-0.549561	-8.245379	33.610584	46.317836
18346		-5.404153	-1.236794	8.134025	-0.010074	-0.034235	-0.030445	-0.444092	-0.163574	-0.550537	-8.257533	33.586704	46.304588
18347		-5.365135	-1.324680	8.098565	0.004415	-0.033041	-0.018932	-0.441406	-0.166260	-0.550537	-8.257278	33.564660	46.298559
18348		-5.382275	-1.314425	8.090294	0.019388	-0.030843	-0.003845	-0.443115	-0.162354	-0.543701	-8.242720	33.544890	46.303081
18349		-5.382385	-1.257648	8.091473	0.029034	-0.028676	0.014490	-0.449707	-0.160156	-0.547607	-8.216050	33.528086	46.319008
18350		-5.440081	-1.256253	8.090158	0.046518	-0.025718	0.024547	-0.443359	-0.161377	-0.547119	-8.175575	33.513538	46.342318
18351		-5.412226	-1.216146	8.133346	0.052966	-0.024448	0.031849	-0.449219	-0.161133	-0.553955	-8.128942	33.500491	46.371643
18352		-5.382032	-1.165039	8.122932	0.058185	-0.023812	0.034282	-0.449463	-0.163574	-0.551270	-8.078259	33.487779	46.401355
18353		-5.411712	-1.148400	8.136390	0.062138	-0.020063	0.039983	-0.446289	-0.159180	-0.553955	-8.023589	33.477856	46.434966
18354		-5.393374	-1.129091	8.174439	0.056628	-0.012360	0.041347	-0.450684	-0.159668	-0.550537	-7.971778	33.472160	46.468353
18355		-5.386953	-1.077627	8.206374	0.055669	-0.000513	0.046296	-0.440186	-0.169189	-0.556396	-7.919501	33.473794	46.505958
18356		-5.359320	-1.026532	8.194002	0.043865	0.015412	0.038632	-0.443115	-0.164307	-0.556152	-7.877472	33.483596	46.534866
18357		-5.326918	-0.997000	8.265889	0.029975	0.038703	0.031985	-0.443115	-0.168945	-0.547363	-7.847300	33.506417	46.555087
18358		-5.310188	-0.915193	8.356860	0.005647	0.070942	0.015341	-0.449219	-0.159180	-0.547119	-7.838769	33.545894	46.562956
18359		-5.229361	-1.140172	8.369348	-0.013535	0.111308	0.017392	-0.442383	-0.173096	-0.556396	-7.842698	33.608623	46.568130
18360		-4.598231	-1.235073	8.364108	-0.044493	0.174426	0.022349	-0.439209	-0.167969	-0.548828	-7.865625	33.707386	46.571046
18361		-4.494466	-1.182982	8.747457	-0.078402	0.303979	0.050632	-0.436523	-0.165771	-0.552734	-7.904236	33.882110	46.577050
18362		-5.101823	-1.629997	8.481383	-0.089542	0.401222	0.078319	-0.429932	-0.160645	-0.554688	-7.943694	34.114000	46.596536
18363		-5.286955	-1.055122	8.769481	-0.102019	0.524670	0.101612	-0.435059	-0.162598	-0.555420	-7.988184	34.417989	46.619326
18364		-5.321961	-0.750106	8.997739	-0.137601	0.676774	0.086890	-0.427979	-0.161865	-0.554199	-8.067076	34.806927	46.617565
18365		-4.155249	-1.332725	9.714064	-0.068927	0.970462	0.031987	-0.418457	-0.171631	-0.551758	-8.145696	35.358071	46.547079
18366		-2.430128	1.029316	12.157367	-0.211279	1.701461	0.049455	-0.405029	-0.155518	-0.554443	-8.344066	36.324959	46.413428
18367		-5.211415	-1.071962	10.296095	-0.336457	2.210229	-0.000835	-0.381104	-0.149658	-0.560059	-8.674596	37.575140	46.180631
18368		-3.853862	-1.213824	11.341365	-0.360145	2.739023	0.012543	-0.362549	-0.161377	-0.561523	-9.063108	39.124906	45.885554
18369		-1.949058	-3.269105	11.426968	-0.187610	3.420962	0.165865	-0.339355	-0.142334	-0.571533	-9.351848	41.072607	45.602826
18370		-3.308176	-4.290001	11.683405	0.075803	4.049491	0.431483	-0.301270	-0.159424	-0.570068	-9.426553	43.400149	45.425692
18371		-6.316854	-4.518125	11.679173	0.332942	4.364767	0.652246	-0.256592	-0.156494	-0.576416	-9.268563	45.925693	45.377786
18372		-6.973539	-4.787615	10.891550	0.575492	4.588807	0.826954	-0.235352	-0.163086	-0.574951	-8.876405	48.594787	45.461386
18373		-9.732951	-4.943563	11.721609	0.959737	4.579954	1.051399	-0.189453	-0.169678	-0.575928	-8.073209	51.275929	45.791124
18374		-12.199172	-5.519399	11.708323	1.216837	4.230928	1.097934	-0.149658	-0.176270	-0.563965	-6.971019	53.759561	46.300028
18375		-8.827256	-5.634535	10.695619	1.692229	3.707037	1.201809	-0.121582	-0.188232	-0.564941	-5.347919	55.941756	47.098162
18376		-2.525948	-4.117002	12.698610	2.097938	3.164537	1.217671	-0.095459	-0.211182	-0.563965	-3.282780	57.800099	48.127397
18377		-9.996660	-1.656087	18.101775	1.684257	2.456652	0.877823	-0.071045	-0.221924	-0.564697	-1.590563	59.223697	48.979359
18378		-6.962551	0.106392	20.619083	0.460604	0.769927	0.245871	-0.072021	-0.229980	-0.564941	-1.099342	59.665658	49.242223
18379		3.305252	-1.757584	15.064657	-0.522162	-0.077073	0.001704	-0.070068	-0.226074	-0.568848	-1.390741	59.616520	49.250573
18380		5.376549	-3.808623	12.644518	-0.789035	-0.367110	0.240803	-0.067627	-0.217041	-0.561035	-1.592952	59.407491	49.539436
18381		3.817946	-4.194039	12.110706	-0.615305	-0.549053	0.486938	-0.069824	-0.205078	-0.564697	-1.458575	59.094458	50.105456
18382		1.863307	-2.656867	13.032673	-0.537340	-0.973261	0.500238	-0.070068	-0.214355	-0.566650	-1.264930	58.541423	50.690552
18383		1.604836	-1.733060	12.681596	-0.717538	-1.463940	0.308995	-0.084961	-0.204102	-0.561279	-1.357290	57.700085	51.065557
18384		1.893420	-1.845354	11.621978	-0.925700	-1.843337	0.094668	-0.093750	-0.198730	-0.573730	-1.753364	56.643445	51.224279
18385		1.246976	-2.179579	10.688649	-0.997127	-2.079967	-0.091403	-0.105713	-0.191162	-0.574951	-2.336363	55.443053	51.209970
18386		0.218504	-1.968900	10.292389	-0.971734	-2.269573	-0.270992	-0.122070	-0.172119	-0.574951	-3.021317	54.134564	51.051950
18387		-1.099924	-1.476900	10.219304	-0.965182	-2.437413	-0.495175	-0.143066	-0.163086	-0.579346	-3.840810	52.715452	50.720054
18388		-2.370746	-1.138441	10.100304	-0.981213	-2.609164	-0.739427	-0.153809	-0.156738	-0.594238	-4.793940	51.190659	50.222513
18389		-3.610811	-0.991399	9.961478	-0.971972	-2.787987	-0.954085	-0.176514	-0.150146	-0.592285	-5.827040	49.541025	49.604195
18390		-4.859768	-0.645247	9.655652	-0.937074	-2.960305	-1.097276	-0.199463	-0.137207	-0.590088	-6.856604	47.783732	48.946917
18391		-5.871898	-0.211176	9.208480	-0.925821	-3.116955	-1.153244	-0.237061	-0.128174	-0.594727	-7.840033	45.919300	48.326049
18392		-6.708424	0.006744	8.609114	-0.947193	-3.235562	-1.145184	-0.254883	-0.113770	-0.590820	-8.759514	43.988186	47.791581
18393		-7.668568	-0.503086	7.951747	-0.933549	-3.294200	-1.097476	-0.292725	-0.112305	-0.591309	-9.590150	42.015934	47.357811
18394		-8.665899	-1.232171	7.265855	-0.822986	-3.295497	-1.068275	-0.329590	-0.102783	-0.602539	-10.298685	40.048554	46.995478
18395		-9.702765	-1.471954	6.636965	-0.658275	-3.211343	-1.111932	-0.358643	-0.099854	-0.597168	-10.907063	38.114268	46.628467
18396		-10.582150	-1.144750	5.945505	-0.514719	-3.046061	-1.217773	-0.387939	-0.089844	-0.599121	-11.460920	36.265017	46.198603
18397		-11.249208	0.016522	5.517539	-0.467695	-2.786881	-1.353967	-0.423584	-0.087402	-0.588867	-12.035334	34.535613	45.669241
18398		-12.413015	1.070905	5.276532	-0.547657	-2.506977	-1.459354	-0.441650	-0.092529	-0.581055	-12.686058	32.951795	45.061058
18399		-13.760494	1.326243	4.651517	-0.649542	-2.292199	-1.523857	-0.474365	-0.081299	-0.569824	-13.404954	31.467731	44.409842
18400		-14.467715	0.878160	3.729935	-0.593985	-2.143665	-1.538737	-0.495117	-0.072266	-0.567871	-14.078370	30.063584	43.756916
18401		-14.402409	0.704230	2.724478	-0.347006	-2.018432	-1.476177	-0.510254	-0.079346	-0.559326	-14.575164	28.727060	43.148623
18402		-13.596455	1.070652	1.981131	-0.026660	-1.864959	-1.326595	-0.541992	-0.084717	-0.558594	-14.835427	27.498992	42.626732
18403		-12.912666	1.971798	1.664794	0.186485	-1.675602	-1.098487	-0.554199	-0.083740	-0.550293	-14.910057	26.403709	42.224634
18404		-12.906333	2.316620	1.686619	0.227548	-1.473691	-0.843767	-0.572998	-0.093506	-0.544678	-14.898544	25.461849	41.950664
18405		-13.212776	1.783588	1.614173	0.178494	-1.321752	-0.578386	-0.576172	-0.087158	-0.544189	-14.852490	24.639813	41.815677
18406		-13.163724	1.060985	1.340397	0.157009	-1.197924	-0.281010	-0.593750	-0.093262	-0.535400	-14.751065	23.933531	41.841239
18407		-12.458026	0.826169	1.041812	0.141657	-1.081457	0.016922	-0.596191	-0.089355	-0.529297	-14.594486	23.332357	42.026775
18408		-11.701850	0.848539	0.807796	0.070433	-0.891583	0.315739	-0.615967	-0.091797	-0.523682	-14.422309	22.881543	42.360247
18409		-11.479783	0.610429	0.595548	-0.078171	-0.681276	0.563984	-0.612549	-0.088623	-0.516602	-14.292786	22.580073	42.808579
18410		-11.587533	0.209289	0.490539	-0.252042	-0.440057	0.756226	-0.613525	-0.077148	-0.514404	-14.234978	22.440867	43.334284
18411		-11.555114	-0.028145	0.316166	-0.410573	-0.190303	0.897587	-0.612793	-0.070068	-0.519287	-14.250571	22.459006	43.906638
18412		-9.220154	-1.473868	-6.447339	0.199967	1.359416	1.696250	-0.599854	-0.065430	-0.531006	-13.814162	23.448707	44.729390
18413		7.019056	-1.257563	-0.427750	0.692400	2.444490	2.424009	-0.572998	-0.067627	-0.543457	-12.951294	25.130774	45.859999
18414		-15.138763	-2.895762	17.257655	0.374441	2.719950	1.694695	-0.543213	-0.066162	-0.543945	-12.439106	26.862805	46.536775
18415		-11.251785	-10.011814	12.890483	0.051393	2.124681	0.387759	-0.531494	-0.060303	-0.556152	-12.430355	28.097366	46.489863
18416		-6.873649	-10.874097	7.067300	0.244143	2.507325	0.088708	-0.516357	-0.060547	-0.565674	-12.430305	29.509511	46.197671
18417		-12.480302	-4.245408	10.961974	0.445020	2.902077	0.184542	-0.497559	-0.062744	-0.567139	-12.321027	31.154391	45.908130
18418		-15.994396	1.557641	13.978526	0.701367	2.087346	0.439860	-0.481934	-0.073730	-0.578369	-11.918928	32.374873	45.906764
18419		-19.770451	7.867093	15.902289	0.711126	0.905422	0.668976	-0.475342	-0.072021	-0.578857	-11.335142	32.958690	46.232336
18420		-7.466583	2.014400	9.257845	0.270540	-0.100197	0.218193	-0.468750	-0.074219	-0.584717	-11.090217	32.924898	46.395943
18421		-4.938670	-6.040852	6.992896	0.322009	0.104698	0.191370	-0.469482	-0.074707	-0.585693	-10.840022	33.003424	46.514862
18422		-5.687762	-2.256347	7.810528	0.276918	-0.033608	0.134743	-0.464844	-0.081299	-0.577637	-10.626552	32.997065	46.613748
18423		-7.901863	1.552431	8.928400	0.222174	-0.101854	0.159859	-0.469727	-0.073975	-0.589600	-10.430854	32.955178	46.737851
18424		-6.162046	-3.160602	7.565257	0.153355	-0.219646	0.067840	-0.468018	-0.088379	-0.584961	-10.300407	32.836537	46.814504
18425		-5.892293	-1.660849	8.469718	0.147569	-0.186744	0.094034	-0.477539	-0.076172	-0.589844	-10.166361	32.739645	46.904254
18426		-5.497435	-1.166359	8.450510	0.154678	-0.161292	0.106729	-0.478516	-0.083008	-0.582764	-10.025509	32.657525	46.999176
18427		-5.757710	-2.186533	8.086567	0.165637	-0.159240	0.115157	-0.467041	-0.086914	-0.582520	-9.875838	32.577880	47.099111
18428		-5.614409	-1.364576	8.255046	0.202849	-0.167249	0.152750	-0.478516	-0.097168	-0.583740	-9.691042	32.496442	47.224839
18429		-5.513258	-1.952262	8.096595	0.253094	-0.180713	0.182764	-0.481445	-0.088135	-0.589844	-9.466368	32.410583	47.371646
18430		-5.657566	-1.817605	8.175137	0.279479	-0.189673	0.197430	-0.481445	-0.090332	-0.586426	-9.221180	32.319813	47.528766
18431		-5.537661	-1.170884	8.263668	0.258617	-0.205952	0.173568	-0.479004	-0.096436	-0.581299	-8.996229	32.217841	47.670956
18432		-5.670470	-1.105632	8.505786	0.240151	-0.217406	0.143794	-0.479248	-0.096436	-0.592529	-8.792231	32.105582	47.793915
18433		-5.773047	-0.984470	8.437837	0.189276	-0.224060	0.111513	-0.483154	-0.100342	-0.583496	-8.629106	31.987148	47.895319
18434		-5.217392	-0.588969	8.422411	0.136284	-0.201574	0.066999	-0.483154	-0.090088	-0.583984	-8.513554	31.876718	47.964363
18435		-4.983220	-0.942140	8.448037	0.093842	-0.152454	0.021970	-0.483154	-0.097412	-0.587402	-8.441070	31.790958	47.998143
18436		-4.893264	-1.193873	8.379086	0.063050	-0.105787	0.013390	-0.488525	-0.100342	-0.589600	-8.391688	31.730164	48.021523
18437		-4.807169	-1.131243	8.341744	0.047789	-0.062360	0.018278	-0.488525	-0.104492	-0.578857	-8.351694	31.695091	48.043788
18438		-4.495768	-1.334833	8.216400	0.049344	-0.018810	0.029191	-0.487305	-0.101318	-0.585938	-8.309184	31.684887	48.069085
18439		-4.841683	-1.318231	8.458358	0.049282	0.016751	0.059647	-0.482910	-0.103516	-0.589844	-8.257928	31.698018	48.111172
18440		-5.413574	-1.150750	8.324719	0.050903	0.019592	0.070388	-0.481689	-0.097412	-0.589355	-8.202042	31.712932	48.160209
18441		-5.269862	-1.225469	8.176112	0.051301	0.005915	0.065139	-0.487061	-0.094727	-0.588379	-8.147122	31.720286	48.207034
18442		-5.048719	-1.298606	8.118854	0.058651	0.017608	0.074290	-0.483154	-0.095703	-0.579102	-8.085289	31.734307	48.258909
18443		-4.823022	-1.283272	8.146756	0.078112	0.025773	0.091626	-0.483643	-0.103271	-0.588379	-8.006666	31.754961	48.321560
18444		-4.651629	-1.268106	8.284218	0.084846	0.052429	0.108320	-0.488281	-0.098633	-0.584473	-7.919504	31.791325	48.392967
18445		-4.967346	-1.023221	8.435245	0.079046	0.085287	0.121412	-0.486328	-0.102783	-0.575684	-7.832630	31.847908	48.470129
18446		-4.868215	-0.812735	8.296064	0.050062	0.122907	0.111381	-0.484619	-0.098145	-0.588135	-7.767495	31.924344	48.537336
18447		-4.579119	-0.755117	8.462542	0.014615	0.193279	0.107408	-0.490479	-0.104980	-0.583984	-7.727353	32.040986	48.595590
18448		-4.522086	-0.803958	8.543092	-0.024276	0.282679	0.102602	-0.482666	-0.100830	-0.585938	-7.715267	32.207380	48.642689
18449		-4.661480	-1.176195	8.469509	-0.056917	0.370154	0.093471	-0.482666	-0.097900	-0.587158	-7.729263	32.423300	48.675762
18450		-5.045916	-1.314246	8.275665	-0.077899	0.418525	0.093895	-0.476563	-0.093018	-0.591797	-7.757380	32.666161	48.704699
18451		-5.754535	-0.936086	8.194473	-0.109088	0.433362	0.061568	-0.466553	-0.099609	-0.586182	-7.815934	32.915483	48.710275
18452		-5.791882	-0.779180	8.170033	-0.127290	0.402471	0.036309	-0.467041	-0.092041	-0.586182	-7.892795	33.144771	48.701323
18453		-5.492840	-1.987044	7.943613	-0.018460	0.308926	0.096461	-0.458740	-0.096680	-0.593506	-7.880246	33.326244	48.741796
18454		-5.892743	-2.047920	7.872802	0.074111	0.242041	0.178386	-0.461914	-0.094971	-0.590820	-7.780284	33.475563	48.844522
18455		-5.776387	-1.285479	7.913087	0.109737	0.202341	0.200595	-0.461426	-0.098877	-0.591309	-7.649113	33.604445	48.966506
18456		-5.431885	-1.358888	7.870394	0.123747	0.182823	0.204050	-0.453857	-0.103027	-0.591553	-7.507022	33.721691	49.093221
18457		-5.133503	-1.476504	8.108220	0.141221	0.191730	0.224912	-0.449951	-0.093018	-0.590820	-7.347007	33.845846	49.233879
18458		-5.347346	-1.159847	8.137074	0.139984	0.219992	0.228696	-0.451172	-0.097168	-0.603271	-7.186906	33.985428	49.375367
18459		-5.481384	-0.690548	8.287919	0.104454	0.258034	0.218898	-0.444580	-0.093262	-0.593506	-7.052187	34.146204	49.507466
18460		-5.534936	-0.682932	8.257795	0.070596	0.302800	0.194994	-0.446533	-0.098145	-0.596924	-6.947416	34.329977	49.620102
18461		-5.594467	-0.286487	8.526665	0.021590	0.377884	0.159872	-0.443848	-0.094238	-0.595215	-6.887400	34.554451	49.702762
18462		-5.555412	-0.083938	8.570818	-0.050376	0.460878	0.096512	-0.441895	-0.104980	-0.594727	-6.896921	34.821195	49.735081
18463		-5.699965	-0.937344	8.294814	-0.088469	0.534712	0.058304	-0.441895	-0.094482	-0.597900	-6.946954	35.127843	49.734587
18464		-5.832097	-1.376530	8.076389	-0.070522	0.578472	0.081942	-0.431396	-0.093506	-0.593994	-6.979482	35.460487	49.746581
18465		-5.880843	-1.266254	8.040853	-0.040427	0.608814	0.108086	-0.423584	-0.101563	-0.598877	-6.985645	35.812738	49.774158
18466		-5.976462	-1.120798	8.062446	-0.040047	0.617173	0.113753	-0.426514	-0.104980	-0.602051	-6.989453	36.169613	49.805108
18467		-5.523410	-1.228129	8.344367	-0.019904	0.690686	0.138025	-0.417236	-0.089355	-0.597168	-6.975095	36.570510	49.846997
18468		-5.679674	-0.570334	8.897184	-0.099482	0.823965	0.141760	-0.401855	-0.097412	-0.608154	-7.011308	37.046942	49.880106
18469		-5.450761	-0.566010	8.802818	-0.147088	1.122487	0.102009	-0.398926	-0.096191	-0.606445	-7.108163	37.690827	49.857848
18470		-5.634407	-1.023336	8.688275	-0.207022	1.262253	0.076686	-0.386719	-0.093018	-0.608643	-7.259859	38.411832	49.802640
18471		-5.884924	-0.686380	8.640493	-0.208516	1.465077	0.077624	-0.380371	-0.088379	-0.603271	-7.426524	39.248445	49.725873
18472		-5.882636	-0.607122	8.577806	-0.271798	1.667932	0.036141	-0.358887	-0.082031	-0.613037	-7.665713	40.196534	49.593800
18473		-5.467835	-0.661647	8.680326	-0.318465	1.945472	0.002966	-0.352783	-0.087646	-0.610596	-7.973497	41.299424	49.400354
18474		-5.468583	-0.762154	8.719831	-0.352965	2.260772	-0.063278	-0.328125	-0.072754	-0.615723	-8.369385	42.574477	49.109198
18475		-4.184248	-0.798174	8.974166	-0.383247	2.625359	-0.124711	-0.303467	-0.078125	-0.609619	-8.863806	44.049303	48.707164
18476		-2.779556	-0.675933	8.522011	-0.385171	3.165689	-0.015444	-0.274902	-0.079102	-0.611084	-9.375787	45.836872	48.293535
18477		-3.547536	-0.940335	8.522466	-0.250211	3.817321	0.171378	-0.245361	-0.068115	-0.611572	-9.800470	48.007943	47.907108
18478		-5.510858	-0.924001	9.269862	-0.062090	4.559732	0.342445	-0.209961	-0.064941	-0.612793	-10.132235	50.613159	47.515344
18479		-3.943949	-1.311860	8.714251	0.012794	5.322537	0.400517	-0.160156	-0.074219	-0.608398	-10.532437	53.652375	46.998001
18480		-5.525403	-1.353640	10.063486	0.127417	6.255979	0.475463	-0.119141	-0.072998	-0.598389	-11.038810	57.222691	46.293615
18481		-7.501974	-0.880346	12.000315	0.119935	7.149265	0.499561	-0.059082	-0.078857	-0.588867	-11.858589	61.292014	45.259278
18482		-11.070795	-2.820337	14.294280	-0.155696	7.503231	0.398815	0.001221	-0.065918	-0.562744	-13.370983	65.535855	43.667912
18483		-13.703325	-3.714250	12.665929	-0.224424	7.608481	0.580629	0.069580	-0.075928	-0.546143	-15.338339	69.839527	41.680700
18484		-18.642760	-3.775413	12.574870	-0.392423	7.467308	0.827686	0.126221	-0.078857	-0.517822	-17.915618	74.074287	39.207435
18485		-19.175337	-6.328251	13.363109	-0.455229	6.949787	1.154835	0.177002	-0.072754	-0.479492	-20.989477	78.047754	36.309871
18486		-18.759426	-7.459229	14.488442	-0.705744	6.432880	1.369352	0.222412	-0.074951	-0.447266	-25.489903	81.745433	32.150691
18487		-14.480727	-5.424801	14.173114	-1.193471	5.890679	1.508670	0.270020	-0.082031	-0.409912	-34.216587	85.108545	24.057387
18488		-8.266604	-2.198227	14.209603	-2.065650	5.242412	1.442312	0.305908	-0.067139	-0.385986	-63.201947	87.790935	-3.789148
18489		0.790376	-2.321501	12.787480	-2.967878	4.502826	1.427989	0.331787	-0.053955	-0.346680	-144.884325	88.014463	-83.809552
18490		-26.302599	-7.623984	13.297839	-2.772567	3.782307	2.046503	0.361328	-0.055420	-0.321533	178.379416	86.195419	-118.995938
18491		-17.383533	-12.347360	20.726150	-1.355480	0.409451	1.885323	0.366943	-0.052246	-0.313477	162.854872	85.790509	-133.780571
18492		-9.334172	-8.710156	14.021801	-0.360543	-1.065287	1.688383	0.364014	-0.067871	-0.317139	146.855435	85.934248	-149.615112
18493		-0.305368	-5.346712	7.795591	0.335573	-1.537806	1.970065	0.356445	-0.081543	-0.323486	127.097630	85.811259	-169.617006
18494		0.560779	-2.548713	5.993501	0.634482	-1.303015	2.133837	0.349854	-0.098389	-0.341064	111.629946	85.103546	174.501855
18495		-1.200470	-1.348831	5.882344	0.553567	-0.998341	2.062932	0.355957	-0.109619	-0.349854	102.371614	84.138676	164.883798
18496		-2.338672	-1.885774	6.076077	0.339050	-0.840222	1.657166	0.351074	-0.116211	-0.353760	96.797981	83.278860	159.080218
18497		-3.847716	-3.023924	6.646455	0.228573	-0.869156	1.098337	0.348145	-0.130371	-0.366455	92.414313	82.691058	154.531165
18498		-5.678511	-3.727680	7.279140	0.195844	-1.095532	0.495801	0.343506	-0.126953	-0.369629	87.706388	82.404297	149.669072
18499		-6.950826	-4.021637	7.504522	0.227357	-1.514356	-0.129665	0.320801	-0.133301	-0.384766	81.241685	82.393286	143.015444
18500		-6.790023	-4.098611	7.168795	0.396810	-2.044052	-0.656791	0.312500	-0.123291	-0.395264	72.206958	82.487341	133.671547
18501		-5.426825	-3.307029	6.406767	0.616960	-2.532233	-0.980847	0.288086	-0.107422	-0.412109	60.740299	82.419068	121.748565
18502		-3.851354	-1.480263	5.635877	0.710854	-2.848422	-1.080890	0.257324	-0.111572	-0.435547	48.785962	81.976752	109.271444
18503		-3.244940	0.219756	5.091936	0.568826	-3.002838	-1.045636	0.234375	-0.108887	-0.440674	38.151887	81.129011	98.192040
18504		-3.537043	0.841424	4.908036	0.264676	-3.098163	-0.985148	0.215088	-0.104004	-0.466064	29.549720	79.961993	89.317640
18505		-4.293567	0.481686	4.866701	-0.015628	-3.192991	-0.961783	0.179932	-0.086670	-0.481201	22.663675	78.549777	82.318492
18506		-4.997440	-0.167176	4.995296	-0.152614	-3.304419	-0.993481	0.147949	-0.083496	-0.496094	17.148351	76.958223	76.763995
18507		-5.885113	-0.679372	5.192144	-0.158724	-3.416126	-1.099693	0.116455	-0.065186	-0.501221	12.562182	75.216295	72.133455
18508		-6.567672	-1.067833	5.387043	-0.075351	-3.527137	-1.262068	0.086182	-0.062744	-0.510498	8.677679	73.359207	68.142678
18509		-7.164210	-1.102945	5.606854	0.016457	-3.631597	-1.456032	0.052979	-0.029541	-0.529297	5.281718	71.383671	64.569990
18510		-7.719527	-0.873025	5.862558	0.068198	-3.743037	-1.672606	0.008301	-0.031982	-0.533936	2.257303	69.303267	61.316552
18511		-8.081023	-0.720805	6.061349	0.073300	-3.857652	-1.879879	-0.033447	-0.021973	-0.547852	-0.479230	67.098351	58.324469
18512		-8.699710	-0.777302	6.226734	0.066847	-3.993957	-2.047219	-0.064941	-0.004639	-0.555420	-2.907532	64.773361	55.622680
18513		-8.924146	-0.873615	6.334033	0.106395	-4.133378	-2.159904	-0.118408	0.013916	-0.562256	-4.997393	62.313914	53.220532
18514		-8.989315	-0.944776	6.444066	0.180676	-4.243757	-2.212793	-0.173584	0.018066	-0.565918	-6.717843	59.763223	51.135329
18515		-9.181870	-0.758388	6.724910	0.259425	-4.309263	-2.228507	-0.230225	0.036865	-0.562500	-8.109380	57.138751	49.327962
18516		-9.859666	-0.807661	7.000548	0.285426	-4.402607	-2.216114	-0.282959	0.050537	-0.557129	-9.227471	54.451520	47.777560
18517		-11.302403	-1.803906	7.090067	0.344892	-4.511768	-2.193518	-0.344238	0.050049	-0.544434	-10.097196	51.681043	46.441855
18518		-12.953724	-2.664114	7.038500	0.535359	-4.618795	-2.210845	-0.403809	0.048828	-0.531738	-10.709379	48.847460	45.245962
18519		-14.697006	-2.725220	6.954929	0.765883	-4.721230	-2.253706	-0.449219	0.054932	-0.516602	-11.089413	45.936119	44.132619
18520		-15.910378	-2.403239	6.791382	0.893213	-4.813097	-2.282223	-0.504883	0.047363	-0.489746	-11.306416	42.975094	43.090873
18521		-16.612052	-2.054469	6.256442	0.895544	-4.861968	-2.274926	-0.552002	0.044678	-0.465820	-11.434053	39.976632	42.122314
18522		-16.847181	-1.079037	5.635472	0.780937	-4.808463	-2.216079	-0.601074	0.046143	-0.434326	-11.536278	37.022092	41.237931
18523		-17.368569	-0.105787	5.174575	0.482294	-4.671357	-2.086961	-0.638184	0.034912	-0.400879	-11.709077	34.149800	40.464643
18524		-18.114560	-0.354218	4.750936	0.176555	-4.522232	-1.926975	-0.683105	0.031250	-0.376221	-11.958283	31.385614	39.815700
18525		-17.975043	-1.134955	4.012354	0.084569	-4.402401	-1.720412	-0.718506	0.020508	-0.344238	-12.159687	28.704086	39.314644
18526		-17.568087	-1.295867	3.471653	0.147490	-4.238897	-1.488525	-0.750244	0.002930	-0.320801	-12.238668	26.148258	38.957702
18527		-17.568850	-1.095340	3.147619	0.196997	-4.010002	-1.258898	-0.775635	-0.011475	-0.273438	-12.224671	23.742189	38.720742
18528		-18.240803	0.066499	2.520207	0.085555	-3.767969	-1.069204	-0.807373	-0.030518	-0.241943	-12.232163	21.500794	38.571364
18529		-18.214187	0.306436	1.415863	-0.156917	-3.527459	-0.907916	-0.825439	-0.052002	-0.199707	-12.348892	19.408556	38.491622
18530		-17.156430	-0.645258	-0.319516	-0.306053	-3.228767	-0.703170	-0.842529	-0.054443	-0.171631	-12.520491	17.513533	38.500535
18531		-14.935124	-0.554200	-1.771675	-0.259841	-2.763743	-0.436756	-0.851563	-0.079590	-0.141602	-12.637131	15.908001	38.609124
18532		-14.000603	1.116151	-2.429592	-0.285029	-2.143350	-0.188397	-0.861084	-0.083740	-0.114014	-12.753510	14.684547	38.783432
18533		-15.187698	2.560425	-3.111276	-0.599427	-1.514472	0.003676	-0.867432	-0.080322	-0.088623	-13.045371	13.834721	38.988953
18534		-16.018752	1.395643	-4.102866	-0.860729	-0.979746	0.226170	-0.859131	-0.090088	-0.067871	-13.475174	13.316389	39.254844
18535		-16.015375	-0.130711	-4.607483	-0.775990	-0.444423	0.454484	-0.866455	-0.089600	-0.049561	-13.844372	13.127197	39.580161
18536		-16.895644	-0.478980	-3.642860	-0.484366	0.041391	0.614647	-0.864258	-0.087646	-0.042480	-14.041398	13.233443	39.929019
18537		-16.821293	-0.486622	-2.840348	-0.183851	0.388808	0.690170	-0.865723	-0.092773	-0.038574	-14.066568	13.543569	40.271383
18538		-2.102035	-2.053287	3.593157	0.388371	1.519435	1.000060	-0.860352	-0.073242	-0.046143	-13.755483	14.524737	40.632640
18539		6.715993	-6.253265	7.654493	0.708262	2.182252	1.163636	-0.860352	-0.069336	-0.045166	-13.251004	15.894809	41.005555
18540		-5.858666	-6.277489	11.457192	1.000154	2.683721	1.116555	-0.858398	-0.069824	-0.047607	-12.591900	17.534891	41.301298
18541		4.407225	-6.317725	6.456250	0.947129	2.517043	0.979360	-0.856445	-0.064209	-0.052490	-11.967646	19.061692	41.559251
18542		-3.842164	-4.637854	8.547659	0.733247	3.646289	0.776150	-0.856934	-0.058105	-0.060547	-11.541655	21.195876	41.573410
18543		-17.875253	-1.984734	13.126233	0.525776	3.796817	0.323521	-0.852783	-0.055176	-0.079102	-11.341119	23.362850	41.306826
18544		-17.978799	3.157865	14.411000	0.443136	3.151862	0.185969	-0.844238	-0.056152	-0.078125	-11.196611	25.152949	41.038238
18545		-12.021502	6.430708	13.905627	0.093207	2.705583	0.393700	-0.847412	-0.050537	-0.085693	-11.179734	26.716257	40.953475
18546		-11.356738	3.600810	13.237132	-0.379950	2.372985	0.265221	-0.844727	-0.045166	-0.091309	-11.455735	28.077470	40.824732
18547		-8.435194	0.251821	10.530907	-0.697449	2.088911	-0.011132	-0.850586	-0.041992	-0.088379	-11.988728	29.247280	40.544618
18548		-10.575087	-8.232913	12.583679	0.009802	1.870732	0.241090	-0.844971	-0.041748	-0.100830	-12.030458	30.322666	40.447396
18549		-11.479566	-4.626728	7.478885	0.316957	1.183007	0.430883	-0.839844	-0.039795	-0.111328	-11.785510	31.036226	40.569785
18550		-7.330351	-3.412550	7.834684	0.258739	1.044808	0.269792	-0.836914	-0.032715	-0.108398	-11.615914	31.652000	40.608998
18551		-10.398868	-0.027423	9.670500	0.141680	0.627852	0.161974	-0.846191	-0.035645	-0.103760	-11.520185	32.022683	40.635158
18552		-6.589630	-1.110664	8.338659	0.115597	0.191825	0.104931	-0.837646	-0.040039	-0.110840	-11.427568	32.140573	40.683046
18553		-6.215886	-3.468140	7.880408	0.138645	0.137446	0.084104	-0.836914	-0.040771	-0.105469	-11.325149	32.227100	40.724651
18554		-5.645424	-2.705155	7.869150	0.212901	0.081116	0.149633	-0.839111	-0.034180	-0.117676	-11.152645	32.287599	40.817528
18555		-5.785095	-2.153524	8.028500	0.259365	0.013856	0.177552	-0.833984	-0.045166	-0.111816	-10.938974	32.314719	40.937908
18556		-4.978699	-2.057651	7.960907	0.272899	0.023901	0.174782	-0.834229	-0.046875	-0.111328	-10.718827	32.345164	41.055407
18557		-4.944787	-0.867131	8.568633	0.245584	0.047048	0.177732	-0.841553	-0.035889	-0.113770	-10.514964	32.390239	41.172043
18558		-5.177384	-0.568874	8.711420	0.210555	0.081170	0.154710	-0.839844	-0.031494	-0.111816	-10.341139	32.450178	41.269475
18559		-5.682725	-0.722128	8.634261	0.149278	0.112141	0.121727	-0.833008	-0.036133	-0.109619	-10.216261	32.525612	41.341301
18560		-5.628294	-0.522050	8.643077	0.073203	0.131216	0.071958	-0.837891	-0.037598	-0.108643	-10.153722	32.605041	41.377802
18561		-5.640436	-0.474763	8.554681	-0.015338	0.135205	0.021540	-0.835205	-0.035156	-0.109863	-10.160433	32.683239	41.380124
18562		-5.401633	-1.089020	8.374713	-0.080479	0.157326	-0.019898	-0.835205	-0.040771	-0.109375	-10.220819	32.768083	41.351963
18563		-5.466797	-1.461503	8.182729	-0.112267	0.173651	-0.035590	-0.832764	-0.033936	-0.111084	-10.306387	32.862129	41.311166
18564		-5.272748	-1.655516	8.134613	-0.108502	0.172008	-0.029104	-0.838623	-0.036133	-0.108398	-10.387421	32.954236	41.274691
18565		-5.310628	-1.822236	8.048265	-0.075031	0.163256	0.012381	-0.839355	-0.029297	-0.108154	-10.433720	33.047299	41.267038
18566		-5.363495	-2.227419	7.915356	-0.010946	0.150991	0.069076	-0.834961	-0.042725	-0.113281	-10.421608	33.137702	41.298969
18567		-5.198956	-2.152939	7.840875	0.088319	0.122290	0.159389	-0.828857	-0.029541	-0.110107	-10.317407	33.222837	41.395390
18568		-5.394060	-2.475763	7.752413	0.184308	0.108784	0.236469	-0.831055	-0.031006	-0.113037	-10.128364	33.306366	41.545786
18569		-5.475283	-2.097483	7.814570	0.286101	0.069961	0.309050	-0.832031	-0.026367	-0.113770	-9.851243	33.376309	41.750312
18570		-5.665329	-1.930348	7.865448	0.368855	0.021889	0.369785	-0.824707	-0.036621	-0.111328	-9.500350	33.422393	42.002105
18571		-5.541888	-1.748013	7.947747	0.459488	-0.032876	0.421059	-0.830322	-0.027588	-0.107910	-9.074901	33.442459	42.295093
18572		-5.473960	-1.931999	7.908373	0.503606	-0.059945	0.460295	-0.833740	-0.029297	-0.110107	-8.607528	33.447116	42.617842
18573		-5.670393	-1.211241	8.077434	0.491447	-0.077363	0.455606	-0.828125	-0.033691	-0.110107	-8.148168	33.440971	42.939081
18574		-5.557428	-0.836158	8.177693	0.451630	-0.082765	0.420888	-0.828125	-0.031006	-0.112061	-7.724199	33.425307	43.237202
18575		-5.712867	-0.773199	8.156193	0.420879	-0.086419	0.382829	-0.827393	-0.027832	-0.114502	-7.332352	33.404590	43.509471
18576		-5.555726	-0.814816	8.135703	0.420451	-0.108460	0.359434	-0.826172	-0.026611	-0.111328	-6.948522	33.366488	43.767489
18577		-5.623274	-0.845007	8.161890	0.389630	-0.107613	0.338458	-0.825195	-0.029053	-0.108398	-6.590803	33.327721	44.010687
18578		-5.538493	-0.768709	8.157000	0.353203	-0.108676	0.302401	-0.828369	-0.024658	-0.113770	-6.267582	33.283165	44.229045
18579		-5.454520	-0.936371	8.183157	0.327625	-0.097084	0.290975	-0.830566	-0.026611	-0.116455	-5.964260	33.245192	44.438342
18580		-5.506332	-0.992145	8.108438	0.319571	-0.085810	0.290667	-0.824707	-0.025391	-0.112793	-5.666231	33.211036	44.646341
18581		-5.626588	-0.675818	8.124926	0.287212	-0.067300	0.266390	-0.823486	-0.029541	-0.115479	-5.396866	33.186910	44.836269
18582		-5.324422	-0.445232	8.225621	0.247668	-0.049016	0.239109	-0.823975	-0.025635	-0.112061	-5.160967	33.169402	45.006296
18583		-5.496334	-0.381923	8.246243	0.215550	-0.021637	0.207104	-0.823242	-0.028320	-0.107910	-4.956516	33.167035	45.152739
18584		-5.389487	-0.150283	8.378191	0.183058	0.001756	0.178215	-0.826416	-0.015869	-0.101074	-4.782083	33.174534	45.278116
18585		-5.284428	-0.217707	8.382343	0.162612	0.031602	0.155856	-0.822754	-0.018066	-0.114990	-4.628650	33.199400	45.386633
18586		-5.319976	-0.187653	8.390870	0.131339	0.060274	0.148802	-0.825928	-0.020752	-0.111816	-4.496447	33.238418	45.488856
18587		-5.426785	0.097662	8.404437	0.086999	0.080762	0.115576	-0.827881	-0.021484	-0.108643	-4.402571	33.289154	45.567492
18588		-5.382989	-0.296680	8.363259	0.055552	0.100283	0.088919	-0.819092	-0.023438	-0.113281	-4.337127	33.348127	45.626959
18589		-5.454291	-0.494064	8.307258	0.044618	0.107677	0.075038	-0.826172	-0.023926	-0.111328	-4.283232	33.412324	45.676754
18590		-5.447413	-0.831436	8.106057	0.038579	0.114271	0.072555	-0.824463	-0.021240	-0.108887	-4.233849	33.478497	45.724526
18591		-5.296819	-0.987985	8.110972	0.046883	0.122613	0.090741	-0.822266	-0.020508	-0.111328	-4.172913	33.551807	45.784548
18592		-5.354477	-0.913555	8.131930	0.053713	0.134539	0.099587	-0.819092	-0.016357	-0.118896	-4.104918	33.630596	45.850105
18593		-5.197047	-0.719397	8.233720	0.043222	0.163116	0.108947	-0.819824	-0.018066	-0.119629	-4.039958	33.727671	45.920941
18594		-5.399808	-0.069758	8.422039	0.005776	0.215891	0.082494	-0.818604	-0.021484	-0.116211	-4.007776	33.852159	45.971149
18595		-5.350685	-0.256160	8.456931	-0.022398	0.258951	0.052499	-0.822754	-0.018555	-0.112793	-4.004230	34.001659	45.998831
18596		-5.380076	-0.619208	8.430733	-0.029687	0.303656	0.048353	-0.814697	-0.021240	-0.118164	-4.007608	34.174931	46.021458
18597		-5.348873	-0.644724	8.446858	-0.021321	0.352469	0.069977	-0.810547	-0.019287	-0.114014	-3.998961	34.378553	46.056836
18598		-5.552869	-0.485763	8.322720	-0.021203	0.395992	0.075759	-0.807861	-0.015137	-0.116699	-3.989029	34.605691	46.094151
18599		-5.680465	-0.578119	8.280808	-0.021764	0.436279	0.068838	-0.813965	-0.019775	-0.122559	-3.983014	34.857138	46.124945
18600		-5.496789	-0.975583	8.290317	0.019064	0.489807	0.086994	-0.810059	-0.020752	-0.117432	-3.947635	35.138329	46.165929
18601		-5.541071	-1.005394	8.179758	0.081165	0.560004	0.135400	-0.813965	-0.023193	-0.127197	-3.858508	35.463042	46.238077
18602		-5.385101	-1.076867	8.244666	0.181781	0.638542	0.165246	-0.799072	-0.019043	-0.120605	-3.700616	35.832111	46.328655
18603		-5.308371	0.366959	9.193738	0.062493	0.869601	0.171778	-0.796875	-0.016846	-0.125732	-3.613086	36.334891	46.414941
18604		-5.557082	-0.905992	8.498355	-0.018781	1.027891	0.190425	-0.797607	-0.013428	-0.139893	-3.566943	36.927261	46.508717
18605		-5.533993	-0.166428	8.835509	-0.082642	1.202649	0.195167	-0.789795	-0.014404	-0.141602	-3.558501	37.621138	46.599311
18606		-5.518020	0.197064	8.967072	-0.148227	1.443765	0.145507	-0.785400	-0.019287	-0.144531	-3.615340	38.449705	46.643359
18607		-5.631686	0.633204	9.248965	-0.289252	1.747221	0.022916	-0.771240	-0.022217	-0.161865	-3.819288	39.448646	46.581044
18608		-5.430138	0.744034	9.303607	-0.448548	2.099109	-0.155992	-0.768066	-0.018799	-0.155029	-4.218383	40.639907	46.358737
18609		-4.412753	0.424958	9.330593	-0.550795	2.587964	-0.337645	-0.764404	-0.016602	-0.165283	-4.802497	42.101929	45.950954
18610		-3.012965	0.890334	9.779216	-0.608824	3.192122	-0.456012	-0.749512	-0.015869	-0.177979	-5.543792	43.897735	45.374215
18611		-3.296740	0.592114	9.165665	-0.687402	3.968692	-0.503605	-0.726318	-0.031006	-0.194336	-6.458035	46.127862	44.637121
18612		-4.076580	0.463125	8.971379	-0.613599	4.750830	-0.498471	-0.708252	-0.030518	-0.217285	-7.473901	48.793173	43.734588
18613		-4.641777	0.327283	9.126450	-0.497448	5.380562	-0.328900	-0.680420	-0.026611	-0.231445	-8.494256	51.818672	42.777901
18614		-5.347331	-1.571900	9.871690	-0.259133	5.970478	0.111189	-0.656006	-0.035889	-0.249023	-9.266244	55.206466	42.001589
18615		-5.661281	-3.653280	9.930712	-0.156323	6.801733	-0.014088	-0.631348	-0.040283	-0.256348	-10.390768	59.043596	40.768688
18616		-8.257068	-1.335688	11.734636	-0.334492	7.269933	-0.079020	-0.583008	-0.041504	-0.283691	-12.128453	63.118602	39.002567
18617		-11.210621	-2.977011	10.469670	-0.418770	7.355709	0.065870	-0.544189	-0.044189	-0.286621	-14.368266	67.228453	36.799434
18618		-13.643153	-1.598483	10.016955	-0.645284	7.329052	0.323238	-0.505615	-0.046387	-0.286377	-17.284579	71.318610	34.077583
18619		-15.159015	-3.437859	9.002103	-1.022994	7.198551	0.452811	-0.454590	-0.044678	-0.296631	-21.622993	75.294446	30.161823
18620		-16.314962	-4.566619	9.834900	-1.217708	7.010727	0.575498	-0.411133	-0.048828	-0.283447	-28.472148	79.077848	23.856319
18621		-15.933925	-4.619094	9.944444	-1.416841	6.690705	0.779042	-0.364014	-0.065674	-0.281738	-40.373917	82.507505	12.626718
18622		-13.249476	-4.310020	10.288157	-1.767336	6.364714	0.890582	-0.317139	-0.064209	-0.259033	-65.685842	85.169330	-11.803767
18623		-12.317568	-2.150876	11.832316	-2.455046	5.930662	0.936505	-0.258545	-0.058838	-0.229492	-111.201288	85.850739	-56.035323
18624		-11.158703	-0.996257	12.736155	-3.693861	5.274017	0.846217	-0.230713	-0.058838	-0.205322	-144.863854	84.316887	-87.689874
18625		-1.616679	-2.227039	10.297593	-4.401713	4.189784	0.946388	-0.190186	-0.065186	-0.169189	-160.969463	82.418981	-101.363160
18626		-24.834432	-6.769233	8.134363	-3.717634	3.738804	2.038596	-0.158203	-0.065918	-0.135986	-173.878957	80.577414	-112.260895
18627		-20.301173	-12.723936	17.756296	-1.775996	0.491828	2.098067	-0.138428	-0.072266	-0.111328	177.881337	80.343451	-119.585315
18628		-13.306401	-8.930393	12.828672	-0.321966	-1.365999	1.851522	-0.113525	-0.107178	-0.094971	170.767471	81.020746	-126.607964
18629		-4.411623	-5.220779	8.363253	0.492455	-2.098476	1.928958	-0.092285	-0.117188	-0.096191	161.959994	81.938633	-135.799701
18630		-0.893044	-1.676361	5.563926	0.661381	-2.022720	1.941080	-0.073730	-0.145264	-0.080322	151.416048	82.566737	-146.823412
18631		-1.743360	-0.137626	4.630665	0.489576	-1.694837	1.874149	-0.055176	-0.170898	-0.081299	140.491079	82.777446	-158.121685
18632		-2.352524	0.003071	4.574031	0.109209	-1.422814	1.707523	-0.041260	-0.181152	-0.084229	130.568122	82.673002	-168.188788
18633		-3.661000	-0.770505	5.092399	-0.243388	-1.328741	1.390074	-0.014160	-0.192383	-0.083008	122.033192	82.485659	-176.655737
18634		-5.614382	-2.331776	5.905397	-0.426065	-1.451025	0.979576	-0.003418	-0.210938	-0.076904	114.245609	82.381029	175.733779
18635		-7.532589	-4.029186	6.713075	-0.368897	-1.832068	0.520243	0.010254	-0.221191	-0.078857	105.781191	82.462823	167.407648
18636		-8.431902	-4.650639	6.852842	-0.091119	-2.461065	0.044675	0.019775	-0.226563	-0.097168	95.010693	82.690500	156.598364
18637		-6.758382	-4.018708	6.343924	0.242527	-3.091282	-0.364230	0.012695	-0.234863	-0.111084	81.038445	82.838507	142.374565
18638		-4.533401	-2.572997	5.325206	0.391078	-3.481387	-0.634461	0.027588	-0.233398	-0.125000	65.424849	82.605179	126.408959
18639		-2.935266	-1.220181	4.452334	0.340606	-3.589533	-0.792062	0.024170	-0.242920	-0.128418	50.917205	81.894794	111.572048
18640		-2.677953	-0.375007	4.214872	0.140007	-3.538409	-0.898143	0.022705	-0.245605	-0.140137	39.151722	80.816431	99.590777
18641		-3.237887	-0.300267	4.354057	-0.112669	-3.469696	-1.018054	0.021240	-0.244141	-0.161133	29.787131	79.494490	90.152770
18642		-4.153407	-0.817479	4.781565	-0.292326	-3.444220	-1.164261	0.012695	-0.234375	-0.174072	22.256665	78.007097	82.645656
18643		-5.072341	-1.618141	5.263000	-0.320743	-3.476363	-1.318255	0.014648	-0.235352	-0.187500	16.045118	76.360729	76.464634
18644		-6.022589	-1.987987	5.888164	-0.221361	-3.547771	-1.478265	-0.001953	-0.231445	-0.199951	10.920369	74.576632	71.301432
18645		-7.227037	-1.904395	6.517879	-0.107574	-3.685438	-1.660320	-0.013672	-0.225830	-0.204346	6.565905	72.621697	66.827176
18646		-8.354041	-1.640893	7.197035	-0.042195	-3.908826	-1.866116	-0.026367	-0.221924	-0.229004	2.808026	70.473044	62.890952
18647		-8.951160	-1.221699	7.431253	-0.030675	-4.189233	-2.060388	-0.047119	-0.232910	-0.247559	-0.461742	68.084857	59.414511
18648		-8.711359	-0.947999	7.291288	-0.047195	-4.444960	-2.196708	-0.065430	-0.215576	-0.257813	-3.223959	65.495751	56.438316
18649		-8.247626	-0.763419	7.023160	-0.069548	-4.592428	-2.257964	-0.074463	-0.208496	-0.265381	-5.509796	62.761131	53.942620
18650		-8.137837	-0.595864	7.027407	-0.096239	-4.644124	-2.255526	-0.109619	-0.206299	-0.270020	-7.363951	59.969642	51.892503
18651		-8.559703	-0.672301	7.349806	-0.133169	-4.650253	-2.218498	-0.122314	-0.203857	-0.283203	-8.880203	57.140066	50.204761
18652		-9.305531	-1.275881	7.928192	-0.148746	-4.640945	-2.177560	-0.142578	-0.208984	-0.293945	-10.121265	54.309445	48.805343
18653		-10.316132	-2.165985	8.662487	-0.099268	-4.609193	-2.145365	-0.165527	-0.202148	-0.293945	-11.128589	51.474971	47.613285
18654		-11.919114	-3.048777	9.493969	-0.007408	-4.601877	-2.159383	-0.187256	-0.201172	-0.289063	-11.945781	48.642227	46.552066
18655		-14.105165	-4.077690	10.310985	0.127484	-4.679944	-2.251854	-0.206543	-0.208496	-0.304688	-12.615060	45.735570	45.539661
18656		-17.050542	-4.470329	10.768431	0.325982	-4.887434	-2.443880	-0.228516	-0.209961	-0.310059	-13.144750	42.691812	44.511180
18657		-19.188932	-3.424893	10.349159	0.530023	-5.135638	-2.706348	-0.256104	-0.218994	-0.314453	-13.561058	39.458833	43.414756
18658		-20.399459	-1.480835	8.907481	0.505887	-5.312081	-2.870338	-0.278076	-0.229492	-0.322998	-13.945042	36.109755	42.313754
18659		-20.313528	-0.525081	6.697332	0.364803	-5.286920	-2.904552	-0.305176	-0.233643	-0.319580	-14.332501	32.754742	41.257842
18660		-19.981438	0.085228	4.608352	0.303048	-5.033287	-2.734665	-0.332520	-0.243896	-0.333252	-14.637005	29.568968	40.332272
18661		-20.136753	0.713369	2.992163	0.247682	-4.678440	-2.417026	-0.358398	-0.252930	-0.328125	-14.843337	26.614529	39.590831
18662		-20.017346	0.929547	1.810287	0.218286	-4.297849	-2.023379	-0.380127	-0.257813	-0.334473	-14.945760	23.935199	39.055884
18663		-19.847966	0.112981	0.547648	0.262542	-3.953315	-1.606728	-0.398926	-0.266846	-0.327881	-14.920868	21.501203	38.727941
18664		-19.041164	-1.574888	-0.926472	0.498079	-3.654029	-1.210096	-0.419189	-0.278320	-0.330322	-14.683536	19.298366	38.587301
18665		-17.085310	-1.964916	-2.503012	0.906096	-3.271238	-0.920878	-0.430176	-0.284180	-0.324219	-14.176743	17.345154	38.544548
18666		-15.464603	0.529801	-3.014755	1.124026	-2.679786	-0.834022	-0.446289	-0.294922	-0.345703	-13.559155	15.738341	38.448239
18667		-16.510208	2.467720	-3.744722	0.775393	-2.115132	-0.819021	-0.456543	-0.302734	-0.319336	-13.160695	14.445643	38.268852
18668		-16.509567	1.910050	-4.900897	0.276167	-1.600514	-0.746509	-0.476074	-0.305664	-0.328613	-13.052447	13.453828	38.057563
18669		-16.556164	0.747250	-6.012642	0.027853	-1.065245	-0.523535	-0.472168	-0.308105	-0.330322	-13.070678	12.787841	37.902704
18670		-16.549170	0.663137	-6.173744	0.042876	-0.514539	-0.212547	-0.478271	-0.318604	-0.330078	-13.056013	12.471449	37.853076
18671		-16.238696	1.278698	-5.745383	0.123759	0.044804	0.080824	-0.477295	-0.309326	-0.339111	-12.974731	12.504835	37.896976
18672		-11.552760	4.732878	-4.576766	-0.201186	2.207746	0.932629	-0.459473	-0.304932	-0.345703	-13.032947	13.855891	38.143037
18673		11.268499	-2.397465	-2.078286	0.029029	2.944830	1.235989	-0.440430	-0.314453	-0.349609	-12.932403	15.658424	38.468418
18674		-11.564725	-6.215549	16.451137	0.494748	3.378195	1.608282	-0.415039	-0.305420	-0.358398	-12.505015	17.747674	38.965653
18675		-2.174655	-7.636309	11.563104	0.443686	2.589333	1.266425	-0.407959	-0.311768	-0.375000	-12.117050	19.350910	39.383476
18676		-1.565846	-9.440669	6.241862	0.314503	3.428922	0.806724	-0.371094	-0.311035	-0.369873	-11.918607	21.366967	39.433133
18677		-14.782475	-9.022097	9.994035	0.280156	4.331902	0.142291	-0.348389	-0.316650	-0.376221	-11.936702	23.811110	38.967486
18678		-23.695544	-1.983814	15.411011	0.422344	3.621606	-0.383458	-0.331299	-0.315186	-0.380127	-11.990233	25.793796	38.260806
18679		-13.239097	8.185147	13.410896	0.271547	2.686261	-0.090123	-0.312256	-0.308594	-0.385498	-12.018197	27.288497	37.850032
18680		-8.763644	9.395069	13.576568	-0.294458	2.362991	0.303628	-0.290527	-0.309082	-0.386230	-12.244861	28.646971	37.724459
18681		-8.244476	1.074306	10.626212	-0.699460	2.043671	0.177189	-0.280762	-0.314209	-0.392334	-12.728878	29.812595	37.552140
18682		-11.727191	-12.200869	11.489315	0.187930	1.862794	0.363028	-0.268555	-0.306396	-0.385498	-12.636559	30.897812	37.519868
18683		-11.631582	-4.608538	7.566005	0.421745	1.257123	0.395355	-0.255371	-0.298340	-0.385986	-12.352434	31.650724	37.600427
18684		-8.499271	1.574792	9.129328	0.220008	0.989675	0.306405	-0.253174	-0.305908	-0.389893	-12.191405	32.240388	37.664728
18685		-10.601266	0.592124	9.781952	-0.032989	0.421406	0.025671	-0.243164	-0.309082	-0.390381	-12.230635	32.480540	37.625490
18686		-5.086465	-3.844884	6.871673	-0.033320	0.183735	-0.031984	-0.249756	-0.312988	-0.390381	-12.272186	32.577789	37.581956
18687		-6.656860	-3.405588	8.167942	-0.008730	0.272439	-0.064373	-0.247803	-0.309570	-0.385498	-12.318618	32.723705	37.503913
18688		-6.799728	0.807807	9.241734	-0.093548	0.123659	-0.076057	-0.246826	-0.309082	-0.389404	-12.406128	32.781854	37.439478
18689		-5.554331	-1.749550	8.171675	-0.160493	0.035689	-0.144175	-0.242188	-0.303467	-0.383789	-12.549842	32.785322	37.342575
18690		-5.143107	-3.523593	7.569368	-0.119660	0.070280	-0.126887	-0.245117	-0.298096	-0.393799	-12.666543	32.807034	37.251945
18691		-5.390325	-1.970880	8.153161	-0.066281	0.074295	-0.059276	-0.239990	-0.310303	-0.387695	-12.728995	32.842459	37.205618
18692		-5.189769	-1.660868	8.121586	-0.055922	0.062504	-0.035085	-0.243164	-0.305176	-0.386963	-12.775557	32.871245	37.177103
18693		-5.551390	-1.456617	8.331330	-0.080959	0.085415	-0.057584	-0.248047	-0.301514	-0.385010	-12.846830	32.913010	37.130106
18694		-5.749681	-1.227356	8.353541	-0.115099	0.070753	-0.068374	-0.242432	-0.306641	-0.387939	-12.940109	32.942088	37.078077
18695		-5.522726	-1.567313	8.081807	-0.126368	0.054651	-0.076932	-0.239746	-0.305908	-0.388916	-13.041915	32.964075	37.022786
18696		-5.405459	-1.848452	8.005889	-0.125834	0.057244	-0.082202	-0.240479	-0.308105	-0.393066	-13.145330	32.983666	36.963499
18697		-5.413479	-1.885570	7.995641	-0.116478	0.050941	-0.069086	-0.239502	-0.308594	-0.381836	-13.238392	33.004454	36.913907
18698		-5.409638	-2.174612	7.967368	-0.097763	0.043114	-0.049246	-0.234375	-0.301025	-0.399170	-13.312663	33.020344	36.878654
18699		-5.476103	-2.374542	7.964833	-0.074103	0.039390	-0.033463	-0.243652	-0.296387	-0.386475	-13.367629	33.039294	36.854485
18700		-5.448350	-2.196152	7.912825	-0.032982	0.005988	0.004564	-0.243408	-0.303711	-0.383789	-13.382113	33.041571	36.860839
18701		-5.438230	-2.248823	7.913242	0.020102	-0.006936	0.046129	-0.234619	-0.308350	-0.387451	-13.350307	33.045234	36.896880
18702		-5.006474	-2.470044	7.711378	0.069369	-0.025910	0.081751	-0.234619	-0.294434	-0.387939	-13.275415	33.039904	36.959597
18703		-5.073782	-2.346575	7.856845	0.119120	-0.002994	0.124252	-0.241943	-0.303711	-0.384521	-13.158908	33.055912	37.046983
18704		-5.225147	-2.393422	7.715688	0.150514	0.025957	0.135608	-0.232910	-0.302490	-0.385986	-13.022310	33.086312	37.137530
18705		-5.467118	-1.615010	8.105581	0.139965	0.050686	0.119169	-0.236816	-0.309326	-0.386719	-12.900113	33.131299	37.213390
18706		-5.460668	-1.439438	8.182245	0.116290	0.061381	0.093791	-0.237549	-0.301025	-0.398682	-12.801093	33.175840	37.270880
18707		-5.454147	-1.612446	8.198568	0.086173	0.088338	0.080397	-0.240479	-0.302734	-0.395508	-12.726721	33.236740	37.315432
18708		-5.574397	-1.401735	8.206473	0.053211	0.100934	0.057266	-0.240723	-0.308838	-0.397217	-12.680295	33.298663	37.342756
18709		-5.572157	-1.494078	8.170852	0.025595	0.111756	0.043210	-0.233154	-0.301758	-0.388672	-12.656014	33.367920	37.359111
18710		-5.715635	-1.438441	8.178711	-0.000307	0.111615	0.029857	-0.233154	-0.305664	-0.396973	-12.651127	33.432354	37.366581
18711		-5.575354	-1.278374	8.101826	-0.035329	0.104950	0.004649	-0.233887	-0.308350	-0.386475	-12.675343	33.492973	37.358178
18712		-5.416989	-1.685412	8.012894	-0.054149	0.115937	-0.012828	-0.233643	-0.309326	-0.383301	-12.717485	33.554452	37.336330
18713		-5.271773	-2.152146	7.854604	-0.044838	0.133767	-0.004546	-0.226563	-0.301514	-0.392822	-12.753015	33.630007	37.317309
18714		-5.356527	-2.234921	7.825885	-0.005693	0.135026	0.019148	-0.230957	-0.312012	-0.395508	-12.757208	33.706180	37.313917
18715		-5.576822	-2.172888	7.761907	0.032452	0.122854	0.048334	-0.228271	-0.303467	-0.390137	-12.727907	33.782304	37.332020
18716		-5.537415	-2.245607	7.721438	0.070000	0.105416	0.076992	-0.231934	-0.302979	-0.387695	-12.664534	33.849213	37.372119
18717		-5.502526	-2.179596	7.776294	0.107138	0.096628	0.107376	-0.234131	-0.302246	-0.393555	-12.567957	33.918040	37.434135
18718		-5.600268	-1.856143	7.862597	0.133061	0.086404	0.128011	-0.237061	-0.306885	-0.389404	-12.447391	33.980535	37.511808
18719		-5.480395	-1.813959	7.851719	0.147828	0.084347	0.135114	-0.226318	-0.302490	-0.392334	-12.315678	34.045691	37.594777
18720		-5.324157	-1.953250	7.819076	0.161269	0.089448	0.142422	-0.235352	-0.301514	-0.383057	-12.173337	34.111346	37.682210
18721		-5.321604	-1.773223	7.893508	0.154549	0.106072	0.150958	-0.234131	-0.306152	-0.382813	-12.033087	34.190232	37.773242
18722		-5.382271	-1.457324	8.110221	0.129714	0.146580	0.129390	-0.227783	-0.311279	-0.392090	-11.917915	34.286019	37.844161
18723		-5.417063	-1.131660	8.227809	0.086963	0.183451	0.092626	-0.229248	-0.308105	-0.396729	-11.844382	34.401096	37.885100
18724		-5.403110	-1.372488	8.160836	0.058030	0.229281	0.072511	-0.220459	-0.318848	-0.393555	-11.798320	34.536428	37.906062
18725		-5.475768	-1.541996	8.076666	0.050777	0.272463	0.071476	-0.219971	-0.304443	-0.401855	-11.760460	34.698869	37.920344
18726		-5.668845	-1.513600	7.906786	0.050436	0.295323	0.071955	-0.218018	-0.310059	-0.392090	-11.724044	34.871160	37.931857
18727		-5.833575	-1.271909	8.023061	0.033771	0.306515	0.051391	-0.219727	-0.302246	-0.382813	-11.706330	35.050344	37.927841
18728		-5.806537	-1.294680	7.949059	-0.000659	0.316413	0.012325	-0.210693	-0.314697	-0.388428	-11.724318	35.227525	37.895594
18729		-5.297488	-1.787770	7.874979	0.026484	0.336790	0.039353	-0.214844	-0.312500	-0.392822	-11.718065	35.422300	37.878966
18730		-5.265124	-2.641330	7.633890	0.097883	0.373782	0.111477	-0.213135	-0.315918	-0.390381	-11.644812	35.643188	37.906875
18731		-5.497885	-2.542749	7.701266	0.181570	0.401220	0.203506	-0.208008	-0.314453	-0.388916	-11.488514	35.892979	37.995184
18732		-5.844908	-2.039743	7.839129	0.233533	0.427146	0.249467	-0.211670	-0.311523	-0.391602	-11.284440	36.159330	38.113043
18733		-6.045525	-1.629253	7.913473	0.262142	0.458274	0.259906	-0.203369	-0.310303	-0.387451	-11.061149	36.446934	38.235485
18734		-5.911540	-1.434432	8.037764	0.273517	0.496335	0.254650	-0.202393	-0.319336	-0.385742	-10.834610	36.752033	38.351005
18735		-6.360413	-1.137966	8.085408	0.277685	0.558562	0.243277	-0.192871	-0.323730	-0.390625	-10.614138	37.093533	38.452139
18736		-6.305928	-0.987381	8.240422	0.233109	0.613910	0.204752	-0.190918	-0.322021	-0.393799	-10.438090	37.458950	38.520718
18737		-6.033598	-0.706151	8.690786	0.078758	0.690056	0.155567	-0.181152	-0.324219	-0.390137	-10.377090	37.865024	38.545623
18738		-5.674857	-0.362945	8.738528	-0.120037	0.921003	0.063959	-0.182861	-0.328857	-0.384521	-10.488895	38.388785	38.474394
18739		-5.453015	-1.681872	8.208590	-0.203320	1.153211	0.017229	-0.167969	-0.322510	-0.379150	-10.691374	39.041121	38.335733
18740		-6.196293	-0.505722	8.641365	-0.219670	1.454864	-0.002617	-0.175049	-0.322266	-0.385498	-10.943356	39.857782	38.135757
18741		-5.688868	-1.129434	8.372050	-0.341169	1.661145	-0.068296	-0.149170	-0.326172	-0.383301	-11.323607	40.785053	37.849030
18742		-5.370412	-0.963900	8.598100	-0.409945	1.982542	-0.103571	-0.144775	-0.314453	-0.383057	-11.805898	41.884237	37.473018
18743		-4.828639	-1.049669	8.641132	-0.416153	2.356682	-0.081154	-0.125244	-0.319336	-0.385498	-12.341145	43.195805	37.032886
18744		-3.332329	-1.413252	8.579876	-0.291658	2.756399	0.080918	-0.113525	-0.306152	-0.380127	-12.791733	44.745653	36.623270
18745		-2.831167	-1.981579	8.324661	-0.083498	3.356655	0.303557	-0.085205	-0.315918	-0.369873	-13.102943	46.659563	36.254190
18746		-4.889935	-0.992104	8.949926	-0.018867	4.066445	0.455408	-0.062012	-0.315186	-0.377197	-13.418461	48.985535	35.841824
18747		-4.530951	-1.786908	8.643536	0.052099	4.782187	0.529337	-0.032227	-0.321777	-0.360352	-13.805894	51.720210	35.298920
18748		-5.324073	-1.758069	9.460588	0.103205	5.554784	0.584588	-0.005127	-0.317139	-0.347656	-14.343722	54.887214	34.553494
18749		-6.278901	-1.945435	10.566025	-0.037553	6.172015	0.526112	0.027588	-0.321289	-0.329102	-15.289893	58.383026	33.445850
18750		-7.644177	-1.556318	10.230628	-0.182666	6.714806	0.477345	0.070801	-0.319092	-0.311768	-16.788862	62.154970	31.840023
18751		-10.070652	-2.164819	10.793645	-0.318747	7.155729	0.539345	0.106201	-0.324707	-0.279785	-18.953983	66.152079	29.637613
18752		-12.914269	-0.718966	10.655719	-0.463861	7.420178	0.584387	0.143799	-0.317139	-0.250732	-22.159981	70.250667	26.472200
18753		-16.768236	-1.733767	10.728055	-0.814949	7.411537	0.544151	0.170898	-0.316650	-0.227783	-27.278444	74.241336	21.590459
18754		-19.702887	-3.421007	11.746180	-1.358606	7.105288	0.528248	0.220703	-0.321289	-0.201416	-35.558681	77.880863	13.864966
18755		-17.711667	-5.068502	11.599621	-1.581909	6.649080	0.763707	0.242920	-0.317627	-0.176270	-48.404042	81.022991	1.726053
18756		-18.058621	-5.214128	12.871239	-2.069955	6.176099	0.888950	0.272949	-0.316650	-0.148193	-69.856288	83.313327	-18.723577
18757		-14.724604	-3.073125	14.178222	-3.020196	5.486312	0.965450	0.287109	-0.315186	-0.127686	-99.949954	84.172614	-47.249852
18758		-11.144081	0.024933	15.026324	-4.619698	4.666379	0.791469	0.305420	-0.310303	-0.098877	-127.166003	83.508251	-71.957360
18759		4.728168	-0.762122	9.857476	-5.541305	3.650274	1.039360	0.321289	-0.294922	-0.083252	-145.537949	82.402286	-87.268945
18760		-32.084883	-9.414555	10.094335	-4.687676	3.212390	2.517350	0.326904	-0.291748	-0.065674	-162.991780	81.365492	-102.184654
18761		-19.676287	-16.059959	17.983625	-2.435319	-0.376273	2.675286	0.336426	-0.312988	-0.072021	-174.325217	81.887431	-112.230611
18762		-11.269179	-10.836008	12.535774	-0.511576	-2.040600	2.416952	0.330566	-0.315674	-0.087402	174.898967	83.070994	-122.804135
18763		-1.948339	-5.058356	7.104245	0.377340	-2.313757	2.404448	0.328369	-0.339111	-0.115479	160.587780	84.090706	-137.423127
18764		1.033139	-2.657600	4.437846	0.457875	-1.895106	2.309683	0.331543	-0.349854	-0.126221	144.056035	84.442093	-154.301338
18765		-1.219384	-1.305841	4.633275	0.412424	-1.365300	2.056535	0.318359	-0.374512	-0.142090	130.133671	84.217987	-168.530025
18766		-2.650848	-1.336170	4.814088	0.183912	-1.022831	1.582740	0.315674	-0.367676	-0.163330	120.623887	83.815371	-178.198500
18767		-4.141288	-2.349077	5.751069	-0.016604	-0.953298	1.065396	0.316162	-0.385010	-0.172363	113.638817	83.525168	174.782450
18768		-6.071266	-3.159597	6.801994	-0.059094	-1.197414	0.477663	0.307373	-0.388184	-0.181885	107.076285	83.505167	168.210873
18769		-6.536132	-3.906069	7.267454	0.068764	-1.672923	-0.099391	0.311035	-0.382813	-0.189453	98.745586	83.778263	159.788513
18770		-5.965509	-3.638431	7.064441	0.324044	-2.246318	-0.557445	0.299805	-0.379883	-0.213623	86.865692	84.159428	147.655404
18771		-4.045098	-2.371870	6.386492	0.523950	-2.731880	-0.853588	0.290283	-0.371826	-0.231934	70.811325	84.336545	131.218635
18772		-2.566175	-0.561609	5.806136	0.498222	-3.003826	-0.970773	0.261963	-0.368652	-0.260254	53.549479	84.017633	113.580835
18773		-2.194492	0.360014	5.420666	0.271928	-3.143098	-1.003809	0.251221	-0.365479	-0.280518	38.483556	83.165378	98.264448
18774		-3.224505	0.252187	5.719448	0.000807	-3.273263	-1.029182	0.236572	-0.361084	-0.294922	26.957885	81.896067	86.640099
18775		-4.642347	-0.361083	6.006894	-0.166739	-3.535901	-1.106742	0.209717	-0.350830	-0.311523	18.142347	80.251831	77.814101
18776		-4.762535	-0.879640	5.885680	-0.177747	-3.854880	-1.196253	0.184814	-0.347656	-0.343506	11.565984	78.286297	71.224607
18777		-4.600094	-0.670820	5.794416	-0.146989	-4.089027	-1.268444	0.154541	-0.340576	-0.359863	6.681314	76.073253	66.302129
18778		-4.726357	-0.143353	5.921298	-0.174271	-4.203160	-1.346588	0.125488	-0.339355	-0.371094	2.989288	73.734720	62.581455
18779		-5.737597	0.214823	6.360139	-0.281588	-4.299788	-1.447636	0.099609	-0.329590	-0.387207	-0.010486	71.278857	59.605803
18780		-6.865864	0.179031	6.887139	-0.402090	-4.454000	-1.546308	0.064941	-0.328613	-0.403564	-2.510262	68.705104	57.190324
18781		-7.804366	-0.006001	7.241898	-0.499943	-4.664315	-1.626583	0.029541	-0.322510	-0.421875	-4.626028	65.965079	55.208165
18782		-8.521828	-0.413762	7.316577	-0.536367	-4.893891	-1.664164	-0.010742	-0.315430	-0.427002	-6.354727	63.080327	53.633213
18783		-9.111824	-1.097172	7.444702	-0.488687	-5.088432	-1.667908	-0.046631	-0.313965	-0.435303	-7.724889	60.054886	52.393558
18784		-9.774660	-1.937313	7.490717	-0.359762	-5.247862	-1.699635	-0.084473	-0.322021	-0.447266	-8.792488	56.937293	51.382488
18785		-10.746051	-2.939412	7.473349	-0.144849	-5.360676	-1.806832	-0.125732	-0.320313	-0.450195	-9.639661	53.724777	50.453263
18786		-11.754270	-3.455427	7.093322	0.136852	-5.394166	-2.002004	-0.158691	-0.314697	-0.446777	-10.319280	50.480151	49.491813
18787		-12.193927	-3.767557	6.610196	0.442789	-5.304610	-2.250475	-0.193359	-0.328857	-0.449463	-10.874649	47.240683	48.417461
18788		-13.294816	-3.940567	6.636638	0.730903	-5.077575	-2.487981	-0.235352	-0.337158	-0.461670	-11.310619	44.109591	47.221647
18789		-15.672940	-3.926686	7.289619	0.979178	-4.855133	-2.716371	-0.264648	-0.348389	-0.454834	-11.640824	41.059265	45.904478
18790		-19.853065	-2.876267	8.108225	1.147159	-4.776090	-2.955017	-0.300537	-0.353271	-0.457031	-11.887691	38.033110	44.483212
18791		-23.666504	-0.693540	7.821424	1.126367	-4.923263	-3.074864	-0.331543	-0.360596	-0.448242	-12.081060	34.894339	43.071629
18792		-23.613982	0.602681	5.546801	0.901542	-5.059054	-2.935531	-0.362305	-0.378662	-0.437256	-12.240214	31.704577	41.839392
18793		-20.952139	1.004576	2.613668	0.755827	-4.870321	-2.508492	-0.395996	-0.389160	-0.430176	-12.277166	28.660866	40.903316
18794		-18.951373	0.937532	0.544550	0.707608	-4.366887	-1.875190	-0.425049	-0.398682	-0.425781	-12.138133	25.986450	40.320882
18795		-19.127308	1.111266	-0.005206	0.637170	-3.785736	-1.251914	-0.452881	-0.399902	-0.412109	-11.886624	23.705954	40.048530
18796		-19.271205	1.793902	0.130620	0.411127	-3.309010	-0.792377	-0.473389	-0.395996	-0.404053	-11.672659	21.755508	39.990137
18797		-18.653787	1.865793	-0.145505	0.017124	-2.911615	-0.474758	-0.491455	-0.404785	-0.398438	-11.633739	20.059155	40.069054
18798		-16.908527	0.577194	-1.000160	-0.279554	-2.526964	-0.202993	-0.512207	-0.399414	-0.394043	-11.728828	18.615973	40.262744
18799		-14.259027	0.231801	-1.598837	-0.360446	-2.033747	0.054073	-0.516357	-0.407227	-0.394043	-11.845853	17.476093	40.548476
18800		-14.199120	1.482567	-1.633273	-0.477128	-1.491223	0.225223	-0.535645	-0.405762	-0.376221	-12.024168	16.665080	40.869078
18801		-15.740045	1.784932	-2.022000	-0.725398	-1.083785	0.346232	-0.532715	-0.402100	-0.376221	-12.342287	16.096153	41.211352
18802		-15.916539	0.826598	-2.890336	-0.833266	-0.758689	0.479657	-0.546143	-0.384766	-0.374023	-12.714383	15.729698	41.592065
18803		-15.824555	0.093313	-3.293626	-0.672320	-0.423505	0.623556	-0.545654	-0.390625	-0.376953	-12.984869	15.570721	42.013550
18804		-15.136795	-0.192835	-3.393286	-0.366375	-0.025322	0.743810	-0.553467	-0.381348	-0.374512	-13.075917	15.650982	42.451749
18805		-8.728569	-1.809811	-4.336665	0.308973	1.041032	0.875163	-0.551025	-0.379395	-0.377686	-12.795085	16.344611	42.825046
18806		0.001198	-0.756500	-1.395011	0.615267	2.269880	1.135788	-0.523438	-0.380615	-0.374023	-12.332468	17.753853	43.197217
18807		-10.610966	-1.400800	13.758988	0.636270	3.146020	0.903701	-0.512207	-0.382080	-0.377441	-11.922806	19.625530	43.335641
18808		-6.676003	-4.228726	14.279214	0.186363	1.991111	-0.085256	-0.507813	-0.385254	-0.394287	-11.917939	20.729904	43.037442
18809		-0.468603	-6.634796	7.573453	0.016810	2.225788	-0.341860	-0.497803	-0.384521	-0.398193	-12.084605	21.937582	42.550955
18810		-4.454133	-3.630694	9.880247	0.017542	3.253410	0.022407	-0.474854	-0.387939	-0.401367	-12.232269	23.760802	42.142400
18811		-21.694458	1.290692	16.148545	-0.099291	3.087027	-0.074733	-0.456543	-0.394531	-0.410156	-12.479923	25.480248	41.683828
18812		-18.585212	4.916785	15.096035	-0.115860	1.885978	0.015605	-0.443604	-0.389893	-0.413818	-12.654083	26.535171	41.435887
18813		-7.323870	6.639860	11.916037	-0.462254	1.421832	0.218494	-0.440430	-0.381104	-0.412109	-12.945747	27.359636	41.374643
18814		-5.172847	-0.343660	9.836400	-0.790962	1.520319	0.141168	-0.430420	-0.387451	-0.416260	-13.459469	28.224481	41.242802
18815		-5.622675	-5.286768	8.360677	-0.827486	1.633965	-0.129758	-0.421875	-0.366211	-0.413330	-14.091199	29.118550	40.911166
18816		-11.347700	-11.337986	10.169303	0.514502	1.500965	0.314937	-0.407471	-0.375977	-0.424561	-13.811691	29.995040	40.878255
18817		-9.168308	-2.371159	7.629912	0.384289	0.918550	0.270354	-0.407959	-0.378174	-0.420654	-13.573302	30.545788	40.912683
18818		-6.694499	-0.734119	8.364360	0.226236	0.770995	0.214860	-0.401123	-0.377930	-0.412354	-13.430733	31.002407	40.936128
18819		-7.949926	-2.875575	8.314854	0.176672	0.482294	0.121748	-0.396484	-0.385498	-0.430176	-13.323929	31.290436	40.945210
18820		-6.192121	-3.742497	7.676069	0.199943	0.360431	0.100249	-0.397949	-0.393799	-0.427002	-13.201034	31.502940	40.959388
18821		-5.963864	-1.956340	8.240622	0.200153	0.310748	0.117259	-0.396240	-0.384033	-0.429443	-13.067955	31.694825	40.993114
18822		-6.250232	-1.169128	8.700455	0.191108	0.155262	0.138212	-0.395264	-0.393555	-0.423828	-12.919936	31.797618	41.064522
18823		-5.420077	-2.216670	8.082035	0.203011	0.121090	0.140267	-0.385254	-0.379150	-0.422363	-12.761407	31.886411	41.143062
18824		-4.593093	-2.585448	7.983110	0.232423	0.126307	0.166969	-0.395020	-0.389160	-0.421387	-12.576796	31.976286	41.238528
18825		-5.505785	-1.144794	8.564136	0.234422	0.143111	0.198330	-0.394043	-0.383057	-0.424561	-12.381085	32.084133	41.352914
18826		-5.138250	-1.278598	8.357272	0.198464	0.111498	0.175761	-0.397461	-0.387451	-0.420654	-12.210959	32.166261	41.457217
18827		-5.327943	-1.552087	8.286771	0.191842	0.164685	0.174283	-0.385742	-0.386475	-0.429688	-12.048806	32.282693	41.553651
18828		-5.708640	-1.336738	8.353524	0.174895	0.166337	0.161369	-0.389648	-0.392578	-0.423096	-11.900669	32.393351	41.641479
18829		-5.551260	-1.150124	8.425658	0.127494	0.167541	0.134208	-0.389160	-0.391357	-0.430420	-11.789020	32.506274	41.711816
18830		-5.656719	-1.487920	8.366269	0.078519	0.167038	0.098546	-0.389648	-0.390869	-0.433838	-11.717982	32.609705	41.758456
18831		-5.694555	-1.314259	8.248307	0.041417	0.157421	0.077394	-0.389160	-0.396973	-0.424561	-11.674772	32.710207	41.792863
18832		-5.371339	-1.558357	8.234321	0.049376	0.136097	0.090042	-0.397461	-0.394287	-0.426270	-11.620889	32.795219	41.838413
18833		-5.399204	-2.338819	7.958530	0.086191	0.132529	0.121461	-0.381104	-0.391113	-0.426758	-11.533907	32.886762	41.905998
18834		-5.321579	-2.122966	7.880710	0.126571	0.128015	0.155996	-0.389648	-0.399902	-0.416504	-11.410874	32.974634	41.997170
18835		-5.441586	-2.192942	7.839430	0.163689	0.130926	0.181341	-0.382080	-0.384033	-0.427734	-11.257087	33.071772	42.105630
18836		-5.544878	-1.893317	7.892596	0.206245	0.103006	0.213535	-0.385498	-0.400391	-0.418701	-11.064847	33.151550	42.239484
18837		-5.463038	-1.817553	7.918689	0.263440	0.070032	0.246832	-0.393555	-0.387939	-0.427002	-10.824746	33.220949	42.400804
18838		-5.514931	-2.035888	7.852316	0.358940	0.023097	0.306913	-0.388916	-0.396240	-0.426758	-10.504186	33.264660	42.608676
18839		-5.640297	-2.187758	7.754226	0.427093	-0.009726	0.359153	-0.384033	-0.399170	-0.420654	-10.122626	33.299138	42.856525
18840		-5.748260	-1.275653	8.036203	0.427983	-0.038417	0.371142	-0.389648	-0.397705	-0.426514	-9.734065	33.312240	43.115846
18841		-5.724383	-0.922621	8.184055	0.373204	-0.045046	0.323149	-0.379883	-0.404053	-0.431396	-9.394118	33.320655	43.343919
18842		-5.654407	-0.802693	8.231075	0.326125	-0.046583	0.284179	-0.387451	-0.407227	-0.437256	-9.095584	33.318549	43.545496
18843		-5.432334	-1.331595	8.139094	0.327368	-0.058987	0.270262	-0.390137	-0.406494	-0.422607	-8.800626	33.312329	43.739329
18844		-5.660824	-1.150460	8.081432	0.323417	-0.075243	0.278578	-0.385986	-0.417969	-0.417236	-8.504199	33.291763	43.939988
18845		-5.681863	-1.078827	8.104945	0.306049	-0.085669	0.263514	-0.390625	-0.415527	-0.430908	-8.222688	33.268208	44.131703
18846		-5.609719	-0.727267	8.130494	0.265430	-0.085116	0.231901	-0.391602	-0.412598	-0.429199	-7.976666	33.236658	44.301294
18847		-5.451488	-0.752406	8.302383	0.230662	-0.074526	0.202324	-0.397705	-0.408936	-0.417969	-7.761977	33.213265	44.450067
18848		-5.472425	-1.080406	8.175879	0.224105	-0.078864	0.189189	-0.391846	-0.418945	-0.417969	-7.556173	33.180914	44.589701
18849		-5.357573	-1.342683	8.015546	0.231725	-0.080653	0.202424	-0.391113	-0.413574	-0.422852	-7.340796	33.153124	44.738766
18850		-5.432921	-1.100668	8.010638	0.241925	-0.073066	0.212296	-0.395508	-0.418213	-0.413818	-7.116810	33.124859	44.893199
18851		-5.286842	-1.158596	7.954623	0.229125	-0.061256	0.222234	-0.393799	-0.420898	-0.427490	-6.896781	33.108521	45.053705
18852		-5.025044	-1.144050	8.128305	0.214900	-0.054982	0.233776	-0.392822	-0.414551	-0.420654	-6.681381	33.091007	45.220932
18853		-5.242320	-0.976094	8.209686	0.205631	-0.031535	0.247410	-0.393311	-0.418701	-0.422363	-6.466930	33.092193	45.395974
18854		-5.211793	-0.923993	8.174051	0.189910	-0.015148	0.254513	-0.396973	-0.422363	-0.423828	-6.259905	33.097639	45.574108
18855		-5.272715	-0.632349	8.281804	0.178503	0.006085	0.252715	-0.397949	-0.425049	-0.421387	-6.060461	33.119491	45.750008
18856		-5.180321	-0.496453	8.360300	0.146991	0.043501	0.235196	-0.397705	-0.430176	-0.420898	-5.887315	33.156191	45.910946
18857		-5.214068	-0.712803	8.428414	0.128270	0.090096	0.218998	-0.397705	-0.429443	-0.423584	-5.731967	33.223034	46.058384
18858		-5.222243	-0.845993	8.398927	0.104846	0.143494	0.217715	-0.396484	-0.430908	-0.421875	-5.592645	33.315025	46.201118
18859		-5.336326	-0.644868	8.446031	0.080804	0.209549	0.197496	-0.389893	-0.428467	-0.422119	-5.476099	33.448157	46.326663
18860		-5.443729	-0.384559	8.410498	0.046518	0.280345	0.167993	-0.401367	-0.427490	-0.427490	-5.392886	33.615032	46.427336
18861		-5.490031	-0.396151	8.411118	0.012577	0.333970	0.133252	-0.383545	-0.423828	-0.425781	-5.343146	33.815354	46.501773
18862		-5.462173	-0.833506	8.403733	-0.001163	0.395611	0.118823	-0.386230	-0.429443	-0.435059	-5.309190	34.045212	46.562099
18863		-5.400323	-0.872454	8.436677	-0.001907	0.447942	0.134697	-0.385742	-0.428955	-0.424561	-5.270333	34.310512	46.631006
18864		-5.566646	-0.627545	8.503675	-0.024357	0.514641	0.144391	-0.382568	-0.431152	-0.432373	-5.243075	34.609564	46.702164
18865		-5.706134	-0.511647	8.614767	-0.056669	0.594346	0.128173	-0.374268	-0.424805	-0.425537	-5.242455	34.957955	46.757979
18866		-5.786237	-0.125548	8.668927	-0.097843	0.702093	0.081240	-0.372314	-0.423340	-0.431641	-5.288593	35.360645	46.773560
18867		-5.646121	-0.006154	8.943398	-0.134059	0.841041	0.014380	-0.368164	-0.425293	-0.420898	-5.387563	35.843729	46.733271
18868		-5.578341	-0.474131	9.189989	-0.084741	1.048685	-0.022849	-0.356445	-0.414795	-0.433838	-5.483835	36.438495	46.650752
18869		-4.143698	1.578731	10.921384	-0.405651	1.615594	-0.190913	-0.344727	-0.424561	-0.437744	-5.862386	37.351245	46.405132
18870		-5.716219	-0.211219	9.944573	-0.511828	2.150505	-0.317149	-0.341064	-0.418213	-0.439209	-6.395638	38.554850	46.013402
18871		-4.721822	-0.237227	10.382114	-0.692090	2.658509	-0.385573	-0.314453	-0.409912	-0.437988	-7.113618	40.043685	45.503663
18872		-3.192614	-1.172831	10.572507	-0.659900	3.326445	-0.397470	-0.292969	-0.408936	-0.434326	-7.900218	41.901506	44.879345
18873		-0.016810	-1.647494	10.291145	-0.582582	4.094711	-0.283161	-0.271240	-0.398438	-0.446777	-8.695106	44.201415	44.202008
18874		-0.420554	-2.384691	9.577078	-0.224364	5.221900	0.216638	-0.236572	-0.402100	-0.436035	-9.169538	47.174415	43.717505
18875		-3.549192	-2.437290	9.618657	0.026553	6.215759	0.659664	-0.190674	-0.401855	-0.430176	-9.379236	50.751024	43.417716
18876		-5.236607	-3.555777	10.351719	0.312566	6.960599	1.112301	-0.149658	-0.406738	-0.431396	-9.214810	54.787806	43.398028
18877		-5.164620	-3.278689	11.151890	0.598910	7.792013	1.459238	-0.103516	-0.411621	-0.421387	-8.659880	59.328111	43.648592
18878		-11.005008	-1.637885	12.417728	0.385352	8.079187	1.376175	-0.058105	-0.407715	-0.402344	-8.247110	64.020803	43.865284
18879		-14.689292	-2.732794	11.784314	0.048487	8.083014	1.373143	-0.008545	-0.412354	-0.385742	-7.917136	68.715854	44.193662
18880		-18.029871	-2.111296	11.785927	-0.097192	7.906046	1.454618	0.032715	-0.424316	-0.365723	-7.304330	73.314229	44.899068
18881		-18.236313	-2.383903	12.551881	-0.873300	7.600551	1.285077	0.074707	-0.425049	-0.344727	-7.070157	77.725409	45.656337
18882		-16.279660	-5.318223	12.235712	-1.386122	7.184324	1.301731	0.119629	-0.412354	-0.321045	-6.411402	81.899055	47.130968
18883		-12.665234	-3.788552	12.910065	-1.691218	6.792449	1.481131	0.145508	-0.413086	-0.294434	-2.178474	85.844535	52.359042
18884		-11.641865	-3.140554	14.535544	-2.445563	6.306882	1.582045	0.180420	-0.401611	-0.265381	51.693806	89.116300	107.658424
18885		-8.723819	-1.656010	13.748102	-3.316822	5.316984	1.415683	0.195801	-0.389404	-0.250732	147.934533	87.101080	-154.178893
18886		-10.344132	-3.934293	9.354255	-3.195384	4.355915	2.133707	0.219971	-0.386230	-0.229736	149.429432	84.332946	-150.845431
18887		-36.124785	-9.292022	24.864567	-2.045396	0.955652	1.720982	0.214355	-0.382080	-0.232178	143.408870	83.334941	-155.723086
18888		-13.023717	-7.475974	17.820684	-0.800489	-1.799798	1.392421	0.204590	-0.391846	-0.230469	131.715903	83.558442	-167.031729
18889		2.176205	-2.998256	8.806915	-0.365363	-2.460811	1.359348	0.189697	-0.398193	-0.239746	117.012116	83.717865	178.384118
18890		6.088625	-0.221626	4.511582	-0.371763	-1.909340	1.646919	0.177734	-0.392334	-0.251221	104.875127	83.222917	166.382013
18891		2.212050	-0.286074	4.628136	-0.432810	-1.149889	1.630549	0.159912	-0.406982	-0.260498	97.937819	82.438034	159.639762
18892		-0.891906	-1.693822	5.105810	-0.476544	-0.834412	1.305371	0.157227	-0.406006	-0.244873	93.677788	81.739071	155.613611
18893		-4.055396	-3.303342	7.075649	-0.369137	-1.027673	0.777268	0.142334	-0.405029	-0.246826	89.361219	81.309552	151.463111
18894		-6.608104	-4.031936	8.856899	-0.148897	-1.657205	0.119153	0.137695	-0.401123	-0.265625	83.137578	81.175877	145.251563
18895		-6.392380	-3.916116	9.140922	0.090634	-2.427359	-0.536016	0.113037	-0.400635	-0.267334	73.915089	81.198464	135.866911
18896		-5.512441	-2.877929	8.423544	0.300863	-3.159858	-1.081600	0.086426	-0.394531	-0.272949	61.797539	81.085600	123.428813
18897		-3.674715	-1.187639	7.139733	0.373517	-3.673789	-1.453950	0.059082	-0.392090	-0.276855	48.278431	80.551392	109.519562
18898		-2.262360	0.402902	5.953820	0.248941	-3.891922	-1.658042	0.034668	-0.388672	-0.291748	35.877695	79.522737	96.785231
18899		-2.078262	1.219834	5.340843	-0.002180	-3.945147	-1.731185	0.003174	-0.390137	-0.279541	25.677127	78.070527	86.389936
18900		-2.686606	0.843741	5.116017	-0.194107	-3.950946	-1.760977	-0.017090	-0.376709	-0.285400	17.754608	76.333186	78.380230
18901		-3.688252	0.166038	5.287168	-0.233682	-3.991846	-1.739655	-0.046631	-0.372314	-0.276367	11.689906	74.357344	72.251430
18902		-4.776258	-0.123780	5.758787	-0.183304	-4.076221	-1.693226	-0.058594	-0.373047	-0.265869	7.134586	72.207297	67.604791
18903		-5.833433	-0.112561	6.265649	-0.160529	-4.213273	-1.676990	-0.076660	-0.372314	-0.268799	3.592843	69.877062	63.958093
18904		-6.733913	-0.254901	6.527415	-0.181750	-4.385115	-1.706567	-0.086426	-0.376709	-0.253662	0.754695	67.400130	61.022174
18905		-7.803096	-0.951079	7.010974	-0.199265	-4.555699	-1.772664	-0.092529	-0.375977	-0.247070	-1.607934	64.765712	58.563142
18906		-8.992490	-1.516672	7.526066	-0.139854	-4.780601	-1.846782	-0.107666	-0.378662	-0.245850	-3.544057	61.979104	56.486562
18907		-10.189372	-1.722466	8.176351	-0.092557	-5.049774	-1.931348	-0.107666	-0.383057	-0.255127	-5.158223	58.993295	54.693090
18908		-11.298209	-2.093678	8.297952	-0.070611	-5.365326	-2.006365	-0.125488	-0.375000	-0.254883	-6.493472	55.815998	53.155742
18909		-11.614483	-3.206183	7.732717	0.008659	-5.622747	-2.070496	-0.125244	-0.372559	-0.269287	-7.570341	52.456476	51.821133
18910		-11.999231	-4.439875	7.049136	0.214757	-5.682061	-2.156870	-0.149170	-0.375488	-0.274902	-8.387490	49.058709	50.606434
18911		-12.915979	-5.179870	6.369756	0.556422	-5.565131	-2.314821	-0.156006	-0.374268	-0.287109	-8.969109	45.689812	49.382965
18912		-14.052290	-4.853464	5.789895	0.897899	-5.283466	-2.538417	-0.169922	-0.379639	-0.296143	-9.373624	42.467400	48.060902
18913		-15.543354	-3.459450	5.448723	1.037321	-4.847103	-2.851423	-0.177979	-0.389160	-0.310303	-9.775368	39.441073	46.541700
18914		-18.737563	-1.716007	5.687003	0.866058	-4.378769	-3.174442	-0.180176	-0.384277	-0.322754	-10.334360	36.651093	44.828373
18915		-21.575011	-1.532201	5.042249	0.525133	-4.088342	-3.428468	-0.203857	-0.382080	-0.342041	-11.090776	33.969561	42.999427
18916		-21.904902	-3.139537	3.458962	0.517239	-3.888999	-3.499655	-0.215576	-0.388916	-0.346436	-11.768827	31.386129	41.193366
18917		-21.449664	-2.517310	2.172640	0.747712	-3.637059	-3.272787	-0.225830	-0.398926	-0.370850	-12.153870	28.946460	39.574198
18918		-21.516266	-0.331949	1.936167	0.830810	-3.350422	-2.907373	-0.232422	-0.408203	-0.380859	-12.319707	26.715499	38.197488
18919		-22.360875	0.638532	1.920348	0.658291	-3.204019	-2.485948	-0.247559	-0.410889	-0.394043	-12.420194	24.607519	37.093538
18920		-20.517935	-0.051068	0.831737	0.525385	-3.184778	-1.950692	-0.270508	-0.419678	-0.400879	-12.421995	22.583323	36.334666
18921		-15.271529	3.240295	0.481128	0.340431	-2.836372	-1.383905	-0.277832	-0.419189	-0.415283	-12.394323	20.818922	35.880438
18922		-19.596239	6.082218	-0.118642	-0.477151	-2.586680	-0.846697	-0.296143	-0.424561	-0.419922	-12.720675	19.265120	35.723182
18923		-17.515592	4.749772	-2.428075	-1.324931	-2.439977	-0.210146	-0.305908	-0.415039	-0.431885	-13.410711	17.871735	35.936540
18924		-16.555313	2.390966	-4.999636	-1.660284	-2.073522	0.453277	-0.326172	-0.413330	-0.439697	-14.192858	16.778312	36.501373
18925		-16.093591	1.160290	-6.439929	-1.505867	-1.583566	1.049528	-0.336426	-0.400146	-0.448486	-14.814640	16.048816	37.349054
18926		-16.258829	1.030546	-6.934211	-1.203777	-0.997598	1.458195	-0.337891	-0.385254	-0.450684	-15.230678	15.711752	38.345795
18927		-16.005195	0.505757	-7.219478	-0.861382	-0.349069	1.627802	-0.337158	-0.379639	-0.456787	-15.453297	15.766561	39.339261
18928		-16.151871	-0.953077	-6.507623	-0.388782	0.364718	1.612389	-0.336182	-0.381348	-0.465332	-15.434844	16.212465	40.211461
18929		3.021291	-7.317266	9.057091	0.770525	1.567680	1.764236	-0.323486	-0.377686	-0.459473	-14.767205	17.346461	40.990502
18930		2.465823	-8.045197	10.014782	1.065875	1.992726	1.900327	-0.306152	-0.383789	-0.465576	-13.902918	18.720647	41.806383
18931		-4.897167	-6.101620	13.453855	0.961109	2.332772	1.133337	-0.287598	-0.391113	-0.465332	-13.238142	20.174718	42.147121
18932		-0.217404	-9.055402	5.444643	0.995963	2.376253	0.472147	-0.274658	-0.395996	-0.470703	-12.681060	21.560496	42.106305
18933		-4.520513	-5.309507	6.819802	1.007803	3.129714	0.448189	-0.241699	-0.399902	-0.467773	-12.158073	23.369107	41.964006
18934		-14.518963	1.071227	12.648262	0.791370	3.275945	0.200328	-0.218994	-0.402832	-0.459473	-11.827469	25.227211	41.663164
18935		-15.366390	4.920188	14.550447	0.413777	2.630789	0.089604	-0.201904	-0.414307	-0.458740	-11.714226	26.716119	41.380715
18936		-10.339689	7.991381	12.640856	-0.024083	2.184160	0.305815	-0.187744	-0.409668	-0.463135	-11.768231	27.975251	41.291129
18937		-9.878454	4.781995	12.072357	-0.586300	2.068008	0.149039	-0.168457	-0.404053	-0.460938	-12.189420	29.155769	41.110670
18938		-10.136748	-0.834519	10.839983	-0.906255	1.828690	-0.180890	-0.157715	-0.406982	-0.456055	-12.892848	30.154305	40.736542
18939		-12.051709	-11.235595	11.547383	0.301274	1.381227	0.318836	-0.146484	-0.409180	-0.457520	-12.714549	30.970776	40.744657
18940		-10.435230	-2.619210	7.901840	0.149583	0.842722	0.192627	-0.137939	-0.400635	-0.454590	-12.624661	31.464356	40.750893
18941		-6.619430	0.316414	8.437888	-0.024047	0.696462	0.052181	-0.138916	-0.406494	-0.459229	-12.671008	31.865116	40.687114
18942		-8.217243	-1.927195	8.606720	-0.079362	0.446590	-0.041958	-0.134033	-0.405518	-0.457275	-12.763133	32.107712	40.597248
18943		-5.229319	-4.619564	6.901164	0.039746	0.274256	0.005288	-0.135986	-0.397461	-0.456543	-12.756794	32.266751	40.564460
18944		-7.448351	-2.908951	8.227493	0.148262	0.185949	0.099440	-0.130371	-0.407959	-0.461182	-12.648301	32.381500	40.606718
18945		-5.664537	-1.921366	7.992599	0.271604	-0.012250	0.204471	-0.122803	-0.408936	-0.464844	-12.415942	32.405290	40.748522
18946		-5.612683	-3.373458	7.767375	0.354464	-0.038137	0.254278	-0.123535	-0.406738	-0.446533	-12.116324	32.413152	40.926848
18947		-5.757301	-2.213894	7.953617	0.411149	-0.095218	0.312004	-0.134033	-0.409912	-0.454834	-11.759464	32.401962	41.151868
18948		-5.288654	-0.554983	8.532916	0.393914	-0.148875	0.337333	-0.130371	-0.418701	-0.455811	-11.399666	32.355414	41.400513
18949		-5.029705	-0.999413	8.468079	0.351633	-0.137107	0.305544	-0.133789	-0.416748	-0.452881	-11.076595	32.317648	41.626382
18950		-5.170318	-1.196716	8.351050	0.326990	-0.105647	0.288623	-0.134033	-0.418213	-0.444580	-10.776169	32.287739	41.836200
18951		-5.085623	-0.867664	8.368518	0.329568	-0.068442	0.288904	-0.132568	-0.426025	-0.454346	-10.476629	32.284789	42.041778
18952		-5.461705	-1.273715	8.306688	0.325914	-0.036110	0.279309	-0.143555	-0.421143	-0.456543	-10.184917	32.291277	42.236521
18953		-5.340058	-1.744802	8.123077	0.334424	-0.019933	0.273711	-0.131592	-0.427002	-0.444824	-9.890942	32.312364	42.426200
18954		-5.478461	-1.699394	8.168273	0.308927	-0.000001	0.262232	-0.135254	-0.429932	-0.450684	-9.617102	32.335927	42.605529
18955		-5.601481	-1.060847	8.198360	0.265716	-0.007330	0.230888	-0.131104	-0.424561	-0.451172	-9.378322	32.358569	42.765397
18956		-5.403578	-1.278120	8.239817	0.228563	-0.000312	0.198590	-0.135498	-0.442139	-0.458984	-9.173038	32.374812	42.902464
18957		-5.302233	-1.545948	8.145137	0.220461	0.015806	0.192088	-0.128174	-0.438721	-0.447021	-8.975152	32.406044	43.034106
18958		-5.144420	-1.355327	8.131030	0.215864	0.026330	0.204124	-0.134521	-0.442139	-0.445313	-8.776425	32.437050	43.172308
18959		-4.836048	-1.303488	8.051943	0.200612	0.069715	0.190758	-0.129883	-0.439697	-0.451172	-8.593040	32.497913	43.297838
18960		-5.119984	-0.985659	8.413149	0.150053	0.131297	0.155007	-0.130371	-0.441895	-0.449219	-8.455005	32.583509	43.392858
18961		-5.689063	-0.359786	8.546166	0.080534	0.164903	0.094619	-0.131104	-0.443359	-0.447998	-8.379787	32.689695	43.444753
18962		-5.306445	-0.693064	8.461623	0.012468	0.189876	0.031702	-0.127441	-0.449219	-0.450684	-8.368129	32.797998	43.451343
18963		-5.593489	-0.792528	8.327923	-0.018553	0.201065	0.005417	-0.128174	-0.444580	-0.451172	-8.383874	32.917183	43.439734
18964		-5.555057	-1.063738	8.281026	-0.024664	0.186756	-0.002624	-0.132568	-0.444336	-0.450928	-8.405937	33.020848	43.423414
18965		-5.679451	-1.014871	8.184546	-0.028689	0.172300	-0.001118	-0.123047	-0.453857	-0.446289	-8.428387	33.123167	43.410163
18966		-5.955447	-0.794157	8.233716	-0.045140	0.150731	-0.013401	-0.126221	-0.441406	-0.449951	-8.464319	33.205495	43.390022
18967		-5.718701	-0.960926	8.132647	-0.068849	0.137180	-0.036106	-0.126953	-0.442627	-0.448242	-8.520912	33.284963	43.356466
18968		-5.540763	-1.290168	8.020726	-0.065938	0.119124	-0.037613	-0.127930	-0.441406	-0.450195	-8.576168	33.347291	43.322919
18969		-5.260440	-1.662078	7.852377	-0.038281	0.112850	-0.017335	-0.122314	-0.443359	-0.446777	-8.607042	33.414538	43.304392
18970		-5.077937	-1.782424	7.892392	0.011174	0.107947	0.033533	-0.112305	-0.437012	-0.449219	-8.590989	33.476604	43.320181
18971		-5.335085	-1.727728	7.890908	0.070117	0.102592	0.082326	-0.127197	-0.446045	-0.446289	-8.521910	33.546495	43.370390
18972		-5.444596	-1.407428	7.926828	0.097819	0.095727	0.115094	-0.118896	-0.443848	-0.446533	-8.424710	33.608493	43.443083
18973		-5.408401	-1.351012	8.034345	0.116140	0.091552	0.137716	-0.114746	-0.440186	-0.448730	-8.307533	33.676580	43.532413
18974		-5.544976	-1.036552	8.165763	0.120092	0.097153	0.143656	-0.120850	-0.445313	-0.445557	-8.186482	33.741495	43.624838
18975		-5.578578	-1.100823	8.089104	0.114156	0.096478	0.139844	-0.119629	-0.445068	-0.440674	-8.069459	33.812210	43.715596
18976		-5.577729	-0.938836	8.123230	0.109398	0.102127	0.140118	-0.126953	-0.449219	-0.447266	-7.955705	33.879349	43.805593
18977		-5.597902	-1.068234	8.080119	0.098788	0.104646	0.121667	-0.117188	-0.444336	-0.451904	-7.854377	33.952955	43.883616
18978		-5.614086	-1.108630	8.098173	0.093998	0.107825	0.116099	-0.118652	-0.457520	-0.443359	-7.758507	34.021191	43.957075
