// General information: 
//  MT Manager version: 2022.2.0 
//  XDA version: 2022.2.0 build 7381 rev 124627 built on 2023-07-19
// Device information: 
//  DeviceId: 00B4C223
//  ProductCode: MTW2-3A7G6
//  Firmware Version: 4.6.0
//  Hardware Version: 2.0.0
// Device settings: 
//  Filter Profile: human(46.1)
//  Option Flags: Orientation Smoother Disabled, Position/Velocity Smoother Disabled, Continuous Zero Rotation Update Disabled, AHS Disabled, ICC Disabled
// Coordinate system: ENU
PacketCounter	SampleTimeFine	Acc_X	Acc_Y	Acc_Z	Gyr_X	Gyr_Y	Gyr_Z	Mag_X	Mag_Y	Mag_Z	Roll	Pitch	Yaw
59268		-5.922578	-0.737671	8.002590	-0.001064	0.002407	0.003452	-0.857422	0.339600	-0.629883	-5.402450	36.391812	-13.737846
59269		-5.934659	-0.765847	7.986508	-0.003033	0.000173	0.001750	-0.866943	0.335205	-0.635254	-5.401650	36.391956	-13.737507
59270		-5.944888	-0.746137	7.996172	-0.003899	0.001353	-0.000478	-0.870361	0.335449	-0.637695	-5.402697	36.392926	-13.739178
59271		-5.922659	-0.774876	7.955228	-0.004134	-0.003240	0.002277	-0.858643	0.333740	-0.636719	-5.402171	36.391151	-13.738237
59272		-5.924311	-0.786522	7.976839	-0.004056	-0.001709	0.001358	-0.859375	0.338623	-0.623779	-5.402409	36.390488	-13.739839
59273		-5.924243	-0.786789	7.976864	-0.003977	-0.000178	0.000440	-0.863037	0.346191	-0.633789	-5.402687	36.390361	-13.740405
59274		-5.936004	-0.778573	8.008243	-0.003070	-0.005646	-0.001176	-0.864502	0.337891	-0.626465	-5.403273	36.387283	-13.740047
59275		-5.955925	-0.775490	7.980753	-0.001712	-0.003741	0.003171	-0.862305	0.335938	-0.631104	-5.400964	36.385271	-13.738439
59276		-5.923315	-0.787256	7.977506	-0.000570	-0.004616	-0.001200	-0.862305	0.333252	-0.628662	-5.400178	36.382770	-13.740322
59277		-5.923009	-0.787466	7.977713	-0.003524	-0.002912	-0.000368	-0.864990	0.330566	-0.624512	-5.400427	36.381040	-13.741277
59278		-5.932799	-0.767850	7.987698	-0.004625	-0.006326	0.000159	-0.860596	0.344482	-0.637451	-5.401337	36.377624	-13.743671
59279		-5.932526	-0.768306	7.987857	-0.004312	-0.000201	-0.003514	-0.863281	0.344727	-0.625000	-5.403468	36.377270	-13.747037
59280		-5.888043	-0.752434	8.000482	-0.005492	-0.005146	-0.002069	-0.861816	0.336670	-0.624023	-5.405825	36.374443	-13.746801
59281		-5.911683	-0.809141	7.968661	-0.000413	-0.001554	-0.003036	-0.861816	0.333252	-0.625244	-5.405467	36.373343	-13.749737
59282		-5.901467	-0.792667	8.006186	-0.003977	-0.000178	0.000441	-0.862549	0.341797	-0.632324	-5.406126	36.373443	-13.751049
59283		-5.921529	-0.789751	7.978586	-0.003069	-0.005647	-0.001176	-0.865967	0.337402	-0.626709	-5.406344	36.370109	-13.752392
59284		-5.911120	-0.773284	8.016254	-0.002500	-0.001030	0.000025	-0.860107	0.339844	-0.626953	-5.406286	36.369719	-13.752772
59285		-5.887051	-0.753784	8.001085	-0.001023	-0.001882	-0.000392	-0.861572	0.337158	-0.627686	-5.405153	36.368575	-13.753813
59286		-5.931179	-0.770312	7.988664	-0.003110	-0.001359	0.002669	-0.855469	0.335205	-0.632813	-5.404317	36.368136	-13.752226
59287		-5.888764	-0.765536	8.022630	-0.003899	0.001353	-0.000477	-0.859619	0.333008	-0.627930	-5.404996	36.368833	-13.753543
59288		-5.909052	-0.762605	7.994868	-0.004055	-0.001710	0.001359	-0.855469	0.338623	-0.627441	-5.405228	36.368147	-13.754272
59289		-5.929283	-0.759647	7.967151	-0.003977	-0.000179	0.000441	-0.860107	0.333740	-0.625244	-5.405505	36.368019	-13.754837
59290		-5.943044	-0.763028	8.019879	-0.005867	-0.000880	-0.002179	-0.862549	0.329102	-0.632080	-5.408299	36.367591	-13.757162
59291		-5.898765	-0.783804	7.985088	-0.004844	0.001002	-0.001786	-0.860840	0.337158	-0.625732	-5.410055	36.368017	-13.759384
59292		-5.908950	-0.764455	7.994767	-0.007344	-0.000029	-0.001762	-0.860352	0.337402	-0.630615	-5.413558	36.368095	-13.763084
59293		-5.907073	-0.753655	7.973255	-0.005867	-0.000881	-0.002178	-0.870361	0.340820	-0.628906	-5.415990	36.367425	-13.765457
59294		-5.910770	-0.777114	8.016141	-0.004766	0.002533	-0.002704	-0.862793	0.336182	-0.624756	-5.418508	36.368905	-13.768254
59295		-5.898944	-0.785917	7.984748	-0.003563	0.001374	0.003478	-0.866211	0.333496	-0.626709	-5.417334	36.369827	-13.766771
59296		-5.931196	-0.774506	7.988246	-0.005944	-0.002413	-0.001261	-0.860840	0.354248	-0.630371	-5.419737	36.368540	-13.769434
59297		-5.909157	-0.766456	7.994422	-0.000041	0.004287	0.003846	-0.857178	0.330322	-0.634033	-5.416507	36.371144	-13.767887
59298		-5.907552	-0.754942	7.972779	-0.001477	0.000852	0.000417	-0.859619	0.330566	-0.625000	-5.415737	36.371868	-13.766561
59299		-5.931516	-0.774671	7.987992	-0.001555	-0.000680	0.001335	-0.861328	0.336914	-0.626221	-5.414231	36.371503	-13.766460
59300		-5.909307	-0.766604	7.994297	-0.004054	-0.001711	0.001359	-0.860352	0.339600	-0.629883	-5.414468	36.370768	-13.767400
59301		-5.907335	-0.755475	7.972889	-0.004999	-0.002062	0.000049	-0.867920	0.339600	-0.638428	-5.415421	36.369545	-13.768116
59302		-5.943125	-0.766968	8.019443	-0.004054	-0.001711	0.001359	-0.863525	0.333740	-0.629395	-5.415635	36.368846	-13.767606
59303		-5.920724	-0.795718	7.978590	-0.004545	-0.004796	-0.000760	-0.864502	0.336914	-0.637207	-5.416558	36.366020	-13.768711
59304		-5.918617	-0.748059	8.004556	-0.006553	-0.002742	0.001384	-0.861084	0.336182	-0.628418	-5.418160	36.364726	-13.769623
59305		-5.930291	-0.776485	7.988726	-0.000569	-0.004617	-0.001202	-0.865234	0.335693	-0.625732	-5.416997	36.361978	-13.771053
59306		-5.938394	-0.745451	7.977149	-0.005866	-0.000881	-0.002178	-0.863281	0.342773	-0.633301	-5.419784	36.361521	-13.773956
59307		-5.919736	-0.797427	7.979153	-0.006889	-0.002764	-0.002570	-0.862549	0.344238	-0.631836	-5.422891	36.359755	-13.776480
59308		-5.907413	-0.769937	7.995377	-0.007044	-0.005828	-0.000735	-0.865234	0.331787	-0.630127	-5.425524	36.356591	-13.775509
59309		-5.929089	-0.778731	7.989399	-0.005489	-0.005147	-0.002069	-0.860596	0.335205	-0.628662	-5.427524	36.353493	-13.777518
59310		-5.908335	-0.782619	8.017401	-0.006434	-0.005498	-0.003379	-0.866455	0.341309	-0.625977	-5.430950	36.350349	-13.782032
59311		-5.940257	-0.808219	7.973833	-0.006888	-0.002764	-0.002569	-0.864258	0.340088	-0.624023	-5.434055	36.348583	-13.784554
59312		-5.897638	-0.803734	8.007905	-0.004053	-0.001713	0.001360	-0.868652	0.331055	-0.633301	-5.434284	36.347824	-13.783241
59313		-5.907614	-0.784077	8.017790	-0.003521	-0.002914	-0.000367	-0.868164	0.341797	-0.630371	-5.434530	36.346092	-13.784194
59314		-5.903710	-0.761605	7.974991	-0.005411	-0.003616	-0.002986	-0.857666	0.338867	-0.628662	-5.437281	36.344035	-13.788026
59315		-5.937551	-0.761929	8.000133	-0.005943	-0.002414	-0.001259	-0.861816	0.330566	-0.627930	-5.439309	36.342540	-13.789644
59316		-5.915162	-0.790846	7.959234	-0.006020	-0.003947	-0.000342	-0.859863	0.335449	-0.631348	-5.441275	36.340450	-13.791191
59317		-5.902895	-0.763384	7.975423	-0.007832	-0.003116	-0.003878	-0.855957	0.345215	-0.627686	-5.445455	36.338412	-13.794616
59318		-5.926590	-0.783965	7.990741	-0.009308	-0.002265	-0.003460	-0.865723	0.338623	-0.635986	-5.450666	36.337128	-13.796164
59319		-5.916210	-0.804770	7.981031	-0.006278	-0.002435	-0.005213	-0.861816	0.336914	-0.630615	-5.454543	36.335406	-13.800579
59320		-5.924378	-0.773898	7.969428	-0.004052	-0.001714	0.001361	-0.865967	0.341309	-0.627930	-5.454749	36.334697	-13.800529
59321		-5.893604	-0.797763	7.987516	-0.009798	-0.005350	-0.005579	-0.853027	0.336182	-0.631104	-5.460679	36.331291	-13.805006
59322		-5.901720	-0.767173	7.975930	-0.002757	0.000481	-0.004845	-0.860107	0.334961	-0.636963	-5.462833	36.331488	-13.808575
59323		-5.947653	-0.795822	7.984920	-0.010861	-0.002948	-0.002124	-0.856445	0.337891	-0.633545	-5.468019	36.329641	-13.810768
59324		-5.904906	-0.791757	8.019030	-0.006354	-0.003968	-0.004295	-0.863037	0.334473	-0.625000	-5.471811	36.327370	-13.814686
59325		-5.921324	-0.766313	7.948507	-0.006277	-0.002435	-0.005212	-0.861816	0.342041	-0.628662	-5.475685	36.325646	-13.819099
59326		-5.934743	-0.770119	8.001433	-0.006431	-0.005501	-0.003378	-0.867188	0.332031	-0.626953	-5.479099	36.322480	-13.821559
59327		-5.915867	-0.822147	8.003492	-0.006885	-0.002767	-0.002567	-0.864990	0.333740	-0.637695	-5.482198	36.320711	-13.824076
59328		-5.901616	-0.783323	7.998356	-0.006920	-0.008586	-0.005498	-0.865479	0.334229	-0.635742	-5.486658	36.315686	-13.830471
59329		-5.933496	-0.772359	8.002142	-0.005863	-0.000884	-0.002174	-0.865234	0.350342	-0.627686	-5.489083	36.315012	-13.832838
59330		-5.902577	-0.796110	8.020314	-0.005107	-0.009418	-0.001963	-0.859131	0.333252	-0.625244	-5.490972	36.309710	-13.832796
59331		-5.900315	-0.785135	7.999138	-0.004387	-0.001735	-0.002592	-0.864014	0.338135	-0.632813	-5.492691	36.308528	-13.835401
59332		-5.901836	-0.797082	8.020762	-0.004540	-0.004801	-0.000759	-0.863770	0.339844	-0.631348	-5.493943	36.305918	-13.837058
59333		-5.932068	-0.774418	8.003001	-0.007416	-0.001568	-0.000838	-0.860352	0.338623	-0.633545	-5.496670	36.304928	-13.838432
59334		-5.889414	-0.806578	7.989720	-0.004463	-0.003268	-0.001675	-0.855469	0.333496	-0.634033	-5.498310	36.303162	-13.839510
59335		-5.911301	-0.815294	7.983599	-0.005940	-0.002418	-0.001256	-0.860840	0.335938	-0.629883	-5.500332	36.301664	-13.841122
59336		-5.909110	-0.767666	8.009722	-0.003140	-0.007185	-0.000261	-0.865967	0.344238	-0.628418	-5.500465	36.297751	-13.842515
59337		-5.920596	-0.795982	7.993996	-0.000566	-0.004618	-0.001204	-0.856689	0.335938	-0.638916	-5.499297	36.295000	-13.843940
59338		-5.898236	-0.788125	8.000378	-0.005863	-0.000885	-0.002172	-0.874756	0.345947	-0.619141	-5.502038	36.294574	-13.845128
59339		-5.920085	-0.796994	7.994273	-0.006429	-0.005503	-0.003377	-0.868652	0.339600	-0.635254	-5.505102	36.291200	-13.848030
59340		-5.909460	-0.781008	8.032067	-0.005484	-0.005153	-0.002067	-0.865479	0.335449	-0.627197	-5.507441	36.288259	-13.848299
59341		-5.897159	-0.789925	8.000994	-0.004463	-0.003269	-0.001675	-0.864990	0.335938	-0.626953	-5.508757	36.286252	-13.850148
59342		-5.893334	-0.767303	7.958222	-0.003518	-0.002918	-0.000366	-0.865723	0.338623	-0.632568	-5.509341	36.284703	-13.851952
59343		-5.895012	-0.779223	7.979722	-0.006394	0.000315	-0.000443	-0.865967	0.340332	-0.628662	-5.511392	36.284808	-13.853175
59344		-5.930592	-0.790938	8.026390	-0.003139	-0.007186	-0.000262	-0.863525	0.342285	-0.629639	-5.511528	36.280854	-13.853105
59345		-5.908152	-0.819679	7.985481	-0.005862	-0.000886	-0.002171	-0.858643	0.342041	-0.623779	-5.513949	36.280178	-13.855468
59346		-5.904291	-0.760605	7.990076	-0.003062	-0.005653	-0.001178	-0.867920	0.335449	-0.628174	-5.514484	36.277045	-13.854802
59347		-5.919355	-0.811996	8.017242	-0.003670	-0.005986	0.001467	-0.865723	0.338379	-0.635498	-5.513920	36.273661	-13.854244
59348		-5.893257	-0.781000	7.980844	-0.003594	-0.004452	0.000551	-0.865234	0.339355	-0.628906	-5.514088	36.271312	-13.854896
59349		-5.872596	-0.784649	8.008737	-0.004462	-0.003269	-0.001674	-0.859131	0.336914	-0.625000	-5.515402	36.269304	-13.856745
59350		-5.882546	-0.801759	7.971334	-0.005938	-0.002420	-0.001254	-0.862305	0.343262	-0.627441	-5.517750	36.268002	-13.858174
59351		-5.928256	-0.793718	8.027841	-0.003931	-0.004470	-0.003402	-0.864502	0.337891	-0.634521	-5.519434	36.265215	-13.861163
59352		-5.871768	-0.786215	8.009191	-0.005938	-0.002420	-0.001254	-0.866211	0.340088	-0.629883	-5.521772	36.263933	-13.861650
59353		-5.893863	-0.794996	8.002920	-0.006318	0.001848	-0.001357	-0.865723	0.344482	-0.632813	-5.524223	36.264861	-13.863624
59354		-5.892111	-0.784074	7.981388	-0.005862	-0.000887	-0.002170	-0.861328	0.334229	-0.626221	-5.526964	36.264392	-13.864235
59355		-5.905769	-0.824099	7.986789	-0.002496	-0.001035	0.000027	-0.859131	0.339355	-0.625488	-5.526529	36.263752	-13.865032
59356		-5.937937	-0.812510	7.990468	-0.001628	-0.002218	0.002252	-0.858154	0.332275	-0.624512	-5.524950	36.262754	-13.864817
59357		-5.913913	-0.792879	7.975332	-0.002496	-0.001035	0.000027	-0.863037	0.334473	-0.625977	-5.524515	36.262114	-13.865614
59358		-5.903656	-0.776403	8.012901	-0.001552	-0.000684	0.001336	-0.862061	0.336426	-0.628906	-5.523344	36.261934	-13.867485
59359		-5.895282	-0.807835	8.024505	-0.002083	0.000516	0.003065	-0.858154	0.340576	-0.622803	-5.521465	36.262346	-13.866240
59360		-5.915647	-0.804546	7.996802	-0.001552	-0.000684	0.001336	-0.858643	0.341064	-0.626709	-5.520283	36.262173	-13.865743
59361		-5.891682	-0.784740	7.981640	0.000869	-0.001183	0.002224	-0.859619	0.340088	-0.627197	-5.516995	36.261570	-13.864976
59362		-5.871397	-0.788086	8.009279	-0.004428	0.002549	0.001260	-0.864014	0.333496	-0.633057	-5.517617	36.263247	-13.863901
59363		-5.926030	-0.784687	8.006474	-0.001062	0.002400	0.003458	-0.864990	0.336670	-0.634277	-5.515065	36.264756	-13.862506
59364		-5.924264	-0.773185	7.985011	-0.002572	-0.002569	0.000943	-0.858154	0.342285	-0.622070	-5.514550	36.263511	-13.863775
59365		-5.881677	-0.804895	7.971660	-0.003103	-0.001369	0.002672	-0.863281	0.331543	-0.631104	-5.513344	36.262826	-13.862678
59366		-5.901866	-0.765139	7.991434	-0.001628	-0.002218	0.002252	-0.862549	0.334961	-0.628662	-5.511760	36.261825	-13.862132
59367		-5.903518	-0.776702	8.012974	-0.003103	-0.001369	0.002672	-0.863037	0.339600	-0.629150	-5.510554	36.261141	-13.861036
59368		-5.915273	-0.804982	7.997035	-0.003593	-0.004453	0.000550	-0.859375	0.337891	-0.621338	-5.510713	36.258776	-13.861466
59369		-5.870681	-0.788548	8.009758	0.000717	-0.004252	0.004056	-0.862305	0.341064	-0.632568	-5.506623	36.256523	-13.859195
59370		-5.894199	-0.808230	8.025261	-0.003668	-0.005987	0.001467	-0.865479	0.333496	-0.631104	-5.506378	36.253330	-13.857826
59371		-5.902266	-0.776713	8.013895	0.001738	-0.002368	0.004449	-0.864990	0.335449	-0.624512	-5.501614	36.252173	-13.855405
59372		-5.913881	-0.804496	7.998113	-0.000379	-0.007671	0.004579	-0.863525	0.337646	-0.625000	-5.498127	36.248171	-13.854088
59373		-5.880961	-0.779523	8.042325	0.000228	-0.007337	0.001935	-0.866699	0.339600	-0.632080	-5.495081	36.244043	-13.853108
59374		-5.888962	-0.784372	7.983683	0.000718	-0.004253	0.004056	-0.855225	0.343994	-0.626953	-5.491313	36.241968	-13.850592
59375		-5.910729	-0.792452	7.977735	-0.002723	-0.005638	0.002776	-0.874512	0.341553	-0.633545	-5.489675	36.238855	-13.849133
59376		-5.914000	-0.815296	8.020858	0.003290	-0.001684	0.003112	-0.859619	0.340088	-0.625488	-5.484921	36.238209	-13.845674
59377		-5.888261	-0.783923	7.984244	-0.004578	-0.000519	0.003094	-0.869385	0.334229	-0.627930	-5.484419	36.238032	-13.844338
59378		-5.900242	-0.775528	8.015500	0.000415	0.001550	0.003038	-0.861572	0.338867	-0.631592	-5.481489	36.239200	-13.843582
59379		-5.867955	-0.787124	8.011895	-0.001627	-0.002219	0.002253	-0.863037	0.339355	-0.623291	-5.479579	36.238008	-13.842726
59380		-5.922343	-0.783533	8.009314	-0.001136	0.000865	0.004374	-0.861328	0.332275	-0.629639	-5.476942	36.238872	-13.840010
59381		-5.910420	-0.791753	7.978033	-0.000682	-0.001869	0.003561	-0.858398	0.334717	-0.630371	-5.473958	36.237950	-13.838252
59382		-5.867890	-0.786796	8.011975	-0.002081	0.000515	0.003066	-0.872803	0.336426	-0.634033	-5.472392	36.238568	-13.838966
59383		-5.901948	-0.786573	8.037046	-0.002157	-0.001019	0.003982	-0.867920	0.343506	-0.633545	-5.470111	36.238155	-13.836968
59384		-5.890029	-0.794847	8.005757	0.000945	0.000350	0.001309	-0.864746	0.340576	-0.635498	-5.467541	36.238559	-13.836534
59385		-5.879864	-0.814467	7.995952	-0.000342	-0.001854	0.007515	-0.859619	0.339844	-0.630127	-5.462710	36.237862	-13.831981
59386		-5.866272	-0.774377	7.990497	0.001852	0.004983	0.006468	-0.861816	0.332031	-0.631836	-5.457635	36.241221	-13.827601
59387		-5.898712	-0.762323	7.994031	-0.000682	-0.001869	0.003561	-0.868408	0.337158	-0.631836	-5.454651	36.240299	-13.825843
59388		-5.920841	-0.770351	7.987823	-0.001136	0.000865	0.004375	-0.860840	0.337158	-0.627686	-5.452013	36.241166	-13.825417
59389		-5.900580	-0.773515	8.015446	-0.001136	0.000865	0.004375	-0.861572	0.342041	-0.626709	-5.449058	36.241848	-13.823269
59390		-5.919328	-0.758517	7.966207	-0.001060	0.002399	0.003459	-0.865723	0.336670	-0.635742	-5.446816	36.243529	-13.820925
59391		-5.890674	-0.793065	8.005459	0.000264	-0.001520	0.004870	-0.859863	0.337158	-0.628906	-5.442756	36.242878	-13.818265
59392		-5.856710	-0.792974	7.980353	-0.000114	0.002749	0.004767	-0.867188	0.338623	-0.632813	-5.439432	36.244856	-13.816528
59393		-5.860580	-0.815718	8.023055	-0.000644	0.003948	0.006497	-0.868896	0.332520	-0.631836	-5.435430	36.247411	-13.813086
59394		-5.901571	-0.772180	8.014845	-0.001249	0.003613	0.009142	-0.862061	0.334961	-0.631836	-5.430976	36.250086	-13.809292
59395		-5.910400	-0.740213	8.002943	0.002875	0.006865	0.006862	-0.861328	0.331543	-0.639160	-5.424920	36.254325	-13.805787
59396		-5.914700	-0.799344	7.998024	-0.001966	0.007867	0.005086	-0.860596	0.336914	-0.627930	-5.422719	36.259258	-13.805963
59397		-5.891290	-0.779406	7.982452	-0.000643	0.003948	0.006497	-0.861084	0.336426	-0.628662	-5.418715	36.261812	-13.802519
59398		-5.903480	-0.770614	8.013590	0.000756	0.001563	0.006993	-0.860352	0.338867	-0.619141	-5.413919	36.263203	-13.798819
59399		-5.879972	-0.750609	7.998096	-0.001965	0.007866	0.005086	-0.863037	0.338867	-0.628906	-5.411418	36.267916	-13.796635
59400		-5.916311	-0.798092	7.996958	0.002836	0.001047	0.003927	-0.864014	0.329834	-0.625488	-5.406701	36.268808	-13.793888
59401		-5.914677	-0.786373	7.975410	-0.005637	0.001880	0.006553	-0.864990	0.336426	-0.621826	-5.405452	36.270186	-13.790265
59402		-5.902872	-0.758059	7.991366	0.002307	0.002246	0.005657	-0.864258	0.340820	-0.627197	-5.400379	36.271833	-13.789509
59403		-5.867419	-0.746328	7.944602	-0.001095	0.006680	0.007312	-0.866211	0.335693	-0.634521	-5.396399	36.275988	-13.785670
59404		-5.907408	-0.780356	8.033640	-0.000566	0.005481	0.005582	-0.860352	0.336182	-0.628662	-5.393102	36.279531	-13.783203
59405		-5.895930	-0.788365	8.002054	0.000303	0.004295	0.007807	-0.862549	0.330811	-0.633545	-5.388018	36.282352	-13.778853
59406		-5.916697	-0.784449	7.974101	0.001249	0.004643	0.009117	-0.868164	0.340820	-0.631104	-5.382164	36.285622	-13.775685
59407		-5.937357	-0.743999	7.993543	-0.000302	0.003959	0.010453	-0.858643	0.341064	-0.630127	-5.376305	36.288394	-13.769439
59408		-5.907264	-0.766740	8.011172	0.002385	0.003779	0.004742	-0.862549	0.337646	-0.627197	-5.371592	36.290926	-13.765954
59409		-5.950029	-0.771048	7.977067	0.002308	0.002245	0.005658	-0.865967	0.340088	-0.628662	-5.366178	36.292461	-13.762987
59410		-5.914189	-0.722966	7.977885	-0.002687	0.000180	0.005712	-0.859863	0.339844	-0.625000	-5.363837	36.292963	-13.759501
59411		-5.907860	-0.765850	8.010818	-0.002532	0.003249	0.003880	-0.864014	0.335449	-0.631348	-5.361979	36.294975	-13.757859
59412		-5.936609	-0.731134	7.971432	-0.002497	-0.001032	0.000027	-0.863281	0.336914	-0.628662	-5.361855	36.294495	-13.758658
59413		-5.918099	-0.782636	7.973238	-0.003103	-0.001368	0.002673	-0.865234	0.337158	-0.629639	-5.360649	36.293809	-13.757564
59414		-5.907830	-0.766072	8.010819	-0.000606	-0.000336	0.002646	-0.860596	0.332275	-0.631592	-5.358374	36.293862	-13.757249
59415		-5.897728	-0.786060	8.000955	-0.002420	0.000502	-0.000889	-0.861816	0.334961	-0.629883	-5.358343	36.294053	-13.758799
59416		-5.873802	-0.766321	7.985741	-0.000266	-0.000323	0.006601	-0.868896	0.338135	-0.627930	-5.354208	36.294351	-13.757122
59417		-5.952019	-0.782457	7.998390	-0.006018	-0.003947	-0.000340	-0.865967	0.332764	-0.629395	-5.355833	36.292033	-13.757988
59418		-5.917787	-0.746619	8.020739	-0.004423	0.002552	0.001262	-0.861328	0.333984	-0.630859	-5.356451	36.293632	-13.760112
59419		-5.948244	-0.723746	8.002850	-0.005940	-0.002413	-0.001255	-0.857178	0.339111	-0.626709	-5.358476	36.292139	-13.761729
59420		-5.929604	-0.775734	8.004700	-0.006886	-0.002761	-0.002565	-0.862305	0.337891	-0.631348	-5.361868	36.290556	-13.764136
59421		-5.901736	-0.733676	7.946770	-0.006963	-0.004296	-0.001649	-0.859619	0.346924	-0.628662	-5.364569	36.287968	-13.765906
59422		-5.893037	-0.765671	7.958599	-0.006094	-0.005483	0.000576	-0.865234	0.338379	-0.620117	-5.366075	36.285007	-13.763335
59423		-5.906389	-0.769345	8.011568	-0.005411	-0.003612	-0.002985	-0.867676	0.341064	-0.625732	-5.368472	36.282738	-13.766095
59424		-5.906090	-0.770024	8.011723	-0.008437	-0.003446	-0.001227	-0.864746	0.335938	-0.629639	-5.372199	36.280743	-13.766629
59425		-5.907632	-0.782084	8.033308	-0.003520	-0.002916	-0.000366	-0.858887	0.334717	-0.628906	-5.372443	36.279011	-13.767582
59426		-5.861252	-0.754593	8.024534	-0.006622	-0.004285	0.002307	-0.861572	0.332764	-0.628418	-5.373588	36.276809	-13.767826
59427		-5.903468	-0.759767	7.990763	-0.002914	-0.002579	-0.003012	-0.865234	0.339355	-0.630127	-5.374606	36.275127	-13.770674
59428		-5.927301	-0.779861	8.006004	-0.003366	0.000154	-0.002197	-0.868896	0.336426	-0.630127	-5.375946	36.275203	-13.774197
59429		-5.903231	-0.760522	7.990866	-0.003519	-0.002916	-0.000366	-0.864258	0.341797	-0.630615	-5.376190	36.273471	-13.775150
59430		-5.904719	-0.772415	8.012504	-0.004542	-0.004799	-0.000760	-0.862793	0.337402	-0.631348	-5.377407	36.270792	-13.776219
59431		-5.880477	-0.753003	7.997500	-0.002574	-0.002568	0.000943	-0.860840	0.333740	-0.627441	-5.376575	36.269329	-13.776268
59432		-5.904339	-0.773093	8.012718	-0.005785	0.000656	-0.003085	-0.860840	0.333008	-0.632324	-5.379685	36.269655	-13.780417
59433		-5.882084	-0.765361	8.019003	-0.004124	-0.003253	0.002280	-0.864746	0.336670	-0.629883	-5.379155	36.267872	-13.779475
59434		-5.904146	-0.773658	8.012805	-0.001474	0.000850	0.000421	-0.857666	0.333740	-0.624512	-5.378331	36.268504	-13.781882
59435		-5.902262	-0.762261	7.991416	-0.004124	-0.003253	0.002280	-0.861328	0.341553	-0.638672	-5.377801	36.266722	-13.780940
59436		-5.902077	-0.762480	7.991532	-0.004047	-0.001718	0.001364	-0.853760	0.336182	-0.630859	-5.377938	36.265968	-13.780284
59437		-5.903658	-0.774250	8.013108	-0.002045	-0.003767	-0.000788	-0.870850	0.329102	-0.627930	-5.377480	36.263728	-13.781478
59438		-5.925477	-0.782634	8.007084	-0.003596	-0.004452	0.000549	-0.859131	0.328857	-0.634033	-5.377616	36.261325	-13.784421
59439		-5.899461	-0.751597	7.970638	-0.002573	-0.002569	0.000943	-0.864746	0.330566	-0.621338	-5.376783	36.259862	-13.784471
59440		-5.890872	-0.783252	7.982384	-0.003595	-0.004452	0.000549	-0.856934	0.338135	-0.629395	-5.376928	36.257443	-13.788647
59441		-5.922726	-0.771779	7.986288	-0.003067	-0.005650	-0.001181	-0.865723	0.337402	-0.625732	-5.377146	36.254107	-13.789994
59442		-5.922531	-0.771983	7.986412	-0.001474	0.000850	0.000422	-0.855225	0.336670	-0.629883	-5.376321	36.254719	-13.789610
59443		-5.891997	-0.795554	8.004239	-0.006543	-0.002752	0.001393	-0.864990	0.330566	-0.626465	-5.377568	36.253175	-13.789330
59444		-5.867961	-0.776147	7.989085	-0.003025	0.000164	0.001759	-0.866699	0.336914	-0.632080	-5.377046	36.253478	-13.790161
59445		-5.914084	-0.804131	7.998000	-0.003024	0.000164	0.001759	-0.861328	0.334229	-0.626953	-5.376239	36.253618	-13.789816
59446		-5.890166	-0.784572	7.982775	-0.003024	0.000164	0.001759	-0.877197	0.340332	-0.630127	-5.375724	36.253907	-13.790745
59447		-5.910291	-0.744849	8.002593	-0.003178	-0.002907	0.003589	-0.865234	0.334717	-0.627197	-5.374117	36.252393	-13.788901
59448		-5.900175	-0.764847	7.992710	-0.001397	0.002385	-0.000493	-0.866943	0.330566	-0.625977	-5.373726	36.253768	-13.792314
59449		-5.922411	-0.773155	7.986388	-0.004575	-0.000521	0.003096	-0.858643	0.339600	-0.627686	-5.373220	36.253588	-13.790978
59450		-5.902040	-0.776797	8.014054	-0.003970	-0.000184	0.000450	-0.861816	0.340576	-0.638184	-5.373786	36.253591	-13.792162
59451		-5.900159	-0.765389	7.992670	-0.001627	-0.002221	0.002252	-0.864258	0.342041	-0.629639	-5.371877	36.252396	-13.791310
59452		-5.888066	-0.737583	8.008810	-0.004839	0.001004	-0.001774	-0.865967	0.341553	-0.627197	-5.373877	36.253033	-13.792000
59453		-5.901857	-0.777631	8.014107	-0.004992	-0.002067	0.000056	-0.871094	0.332275	-0.635254	-5.374821	36.251808	-13.792711
59454		-5.911839	-0.758024	8.024055	-0.002496	-0.001034	0.000028	-0.863281	0.335449	-0.626709	-5.374683	36.251303	-13.795539
59455		-5.879557	-0.770007	8.020411	-0.002420	0.000502	-0.000887	-0.862793	0.333740	-0.629883	-5.374649	36.251494	-13.797088
59456		-5.922136	-0.775032	7.986410	-0.003893	0.001352	-0.000465	-0.856445	0.343506	-0.624023	-5.375605	36.252331	-13.799613
59457		-5.901821	-0.778706	8.014029	-0.004574	-0.000522	0.003096	-0.859619	0.327637	-0.631592	-5.375099	36.252150	-13.798276
59458		-5.899826	-0.767245	7.992738	-0.001175	-0.004955	0.001436	-0.854248	0.338867	-0.626221	-5.373434	36.249526	-13.796750
59459		-5.923634	-0.786920	8.008027	-0.000528	0.001197	0.001731	-0.860107	0.342773	-0.621094	-5.371248	36.250253	-13.796494
59460		-5.909751	-0.747415	8.002753	-0.001968	-0.002231	-0.001703	-0.857422	0.332764	-0.629639	-5.371463	36.248984	-13.793376
59461		-5.901209	-0.779034	8.014448	-0.001099	-0.003419	0.000521	-0.861816	0.338623	-0.628174	-5.369930	36.247013	-13.793668
59462		-5.899180	-0.767779	7.993163	-0.005938	-0.002415	-0.001252	-0.865234	0.333984	-0.631104	-5.372219	36.245692	-13.795323
59463		-5.887045	-0.740330	8.009307	-0.005785	0.000656	-0.003082	-0.858398	0.339600	-0.628174	-5.375037	36.245852	-13.798434
59464		-5.951506	-0.717656	8.016565	-0.010776	-0.001411	-0.003025	-0.866699	0.336670	-0.632080	-5.380881	36.245000	-13.801311
59465		-5.971560	-0.715660	7.988995	-0.017130	-0.005373	-0.007317	-0.865234	0.336426	-0.630371	-5.391733	36.241493	-13.807016
59466		-5.859341	-0.827233	8.022781	-0.016678	-0.008107	-0.008133	-0.862549	0.334229	-0.626709	-5.402831	36.236534	-13.814352
59467		-5.932555	-0.660239	7.969122	-0.019361	-0.006079	-0.013888	-0.864014	0.332520	-0.632813	-5.417677	36.232267	-13.824654
59468		-5.825606	-0.807260	8.067091	-0.022799	-0.007464	-0.015166	-0.857910	0.331543	-0.632080	-5.435241	36.227295	-13.838155
59469		-5.889805	-0.858658	7.979672	-0.014102	-0.005540	-0.009074	-0.861816	0.334961	-0.620850	-5.445080	36.223593	-13.845086
59470		-5.927866	-0.769122	7.998208	-0.012704	-0.007926	-0.008582	-0.866211	0.335938	-0.625977	-5.454091	36.218702	-13.852433
59471		-5.882847	-0.754422	8.011076	-0.013648	-0.008275	-0.009890	-0.869873	0.334961	-0.625244	-5.463900	36.213393	-13.859754
59472		-5.894257	-0.784123	7.995209	-0.014100	-0.005543	-0.009071	-0.856201	0.336914	-0.627686	-5.474035	36.209765	-13.868192
59473		-5.923994	-0.762754	7.977851	-0.017502	-0.011206	-0.014208	-0.867920	0.334229	-0.628174	-5.487734	36.202547	-13.878363
59474		-5.904562	-0.779775	8.027328	-0.013569	-0.006742	-0.010802	-0.861572	0.328369	-0.633545	-5.498199	36.198217	-13.886528
59475		-5.924169	-0.778163	8.000073	-0.015609	-0.010513	-0.011590	-0.864746	0.334473	-0.625000	-5.509744	36.191534	-13.894891
59476		-5.907566	-0.692943	8.021424	-0.020786	-0.009523	-0.017310	-0.869385	0.336670	-0.626953	-5.526946	36.185261	-13.910544
59477		-5.898251	-0.727285	8.033329	-0.024221	-0.010911	-0.018587	-0.863037	0.333496	-0.624512	-5.546323	36.177960	-13.923817
59478		-5.935934	-0.639844	8.052204	-0.034382	-0.012000	-0.024244	-0.858154	0.340332	-0.629395	-5.574109	36.169828	-13.941986
59479		-5.912655	-0.672892	8.011424	-0.045898	-0.014987	-0.034246	-0.859375	0.335938	-0.628418	-5.612256	36.159318	-13.966026
59480		-5.900010	-0.849022	8.003753	-0.045136	-0.011580	-0.038709	-0.860107	0.345703	-0.629150	-5.652163	36.150703	-13.990699
59481		-5.835935	-0.889552	8.017979	-0.041424	-0.011733	-0.032560	-0.870850	0.341797	-0.622559	-5.687160	36.142118	-14.013753
59482		-5.855126	-0.890849	7.990714	-0.035297	-0.012380	-0.025533	-0.863281	0.342529	-0.626465	-5.715926	36.133694	-14.026935
59483		-5.833784	-0.934435	7.971037	-0.028953	-0.008410	-0.021244	-0.868652	0.334473	-0.630127	-5.739192	36.127631	-14.042221
59484		-5.810888	-0.929072	7.977505	-0.016907	-0.006617	-0.012977	-0.861084	0.339355	-0.630127	-5.752436	36.123223	-14.050708
59485		-5.818845	-0.899134	7.966311	-0.008755	-0.003481	-0.005166	-0.867432	0.341553	-0.625488	-5.757641	36.120888	-14.054993
59486		-5.847280	-0.792653	8.022664	-0.005851	-0.000896	-0.002156	-0.872803	0.340820	-0.629639	-5.760287	36.120372	-14.054433
59487		-5.847453	-0.829186	7.974944	-0.005024	0.002190	0.003925	-0.859863	0.334473	-0.629883	-5.759810	36.121793	-14.052705
59488		-5.871455	-0.849304	7.989932	-0.003891	0.001340	-0.000453	-0.871094	0.336182	-0.629639	-5.760721	36.122649	-14.053581
59489		-5.883487	-0.841073	8.021204	0.002301	0.002241	0.005654	-0.865723	0.332031	-0.629883	-5.755331	36.124198	-14.050636
59490		-5.892159	-0.809118	8.009721	0.002904	0.002585	0.003010	-0.868164	0.328857	-0.626221	-5.750976	36.125938	-14.051946
59491		-5.873906	-0.859958	8.010872	0.001844	0.004973	0.006477	-0.865479	0.338867	-0.629639	-5.745619	36.129091	-14.048614
59492		-5.872686	-0.847658	7.989202	0.004334	0.006015	0.006446	-0.872559	0.331543	-0.625732	-5.739162	36.132971	-14.047450
59493		-5.883373	-0.827113	7.998892	0.004335	0.006014	0.006447	-0.863525	0.338867	-0.634521	-5.732433	36.136716	-14.044213
59494		-5.872036	-0.798377	8.014748	0.003878	0.008746	0.007269	-0.872314	0.337646	-0.632813	-5.726001	36.142214	-14.042313
59495		-5.864496	-0.865463	7.977970	0.002065	0.009586	0.003744	-0.853760	0.343506	-0.625244	-5.721845	36.147840	-14.041235
59496		-5.853386	-0.836771	7.993657	0.005840	0.010980	0.008973	-0.867432	0.338867	-0.626953	-5.713649	36.154742	-14.033344
59497		-5.918855	-0.812464	8.000596	0.005767	0.009442	0.009885	-0.864746	0.334717	-0.636963	-5.704806	36.160636	-14.027917
59498		-5.877294	-0.842741	7.986333	0.007655	0.010138	0.012500	-0.863525	0.345703	-0.627930	-5.694072	36.167254	-14.021100
59499		-5.854146	-0.821614	7.970816	0.007094	0.005519	0.011282	-0.860596	0.335449	-0.633301	-5.683721	36.170990	-14.014408
59500		-5.898943	-0.800434	8.005599	0.009056	0.007753	0.012986	-0.863037	0.340332	-0.625244	-5.671865	36.176292	-14.003517
59501		-5.919862	-0.759207	8.025270	0.010456	0.005369	0.013472	-0.857422	0.346436	-0.622314	-5.658666	36.180063	-13.995264
59502		-5.945866	-0.789360	8.061618	0.005059	0.001745	0.010491	-0.868652	0.343018	-0.633545	-5.649905	36.181730	-13.982836
59503		-5.914039	-0.836228	8.010122	0.005208	0.004820	0.008668	-0.872070	0.326172	-0.624023	-5.641692	36.184916	-13.977936
59504		-5.868219	-0.807294	8.001207	0.003967	-0.001679	0.011007	-0.871582	0.340088	-0.631348	-5.633232	36.184613	-13.972983
59505		-5.876847	-0.774902	7.989725	0.003736	0.005665	0.009094	-0.864502	0.345215	-0.634277	-5.625719	36.188303	-13.967839
59506		-5.892843	-0.825078	8.015996	0.007967	0.004325	0.013504	-0.864746	0.338135	-0.628906	-5.614130	36.191641	-13.955856
59507		-5.847147	-0.795882	8.007011	0.005061	0.001743	0.010493	-0.857422	0.343994	-0.629883	-5.605111	36.193172	-13.949450
59508		-5.820610	-0.841468	8.067202	0.005701	0.007897	0.010799	-0.850098	0.332764	-0.625488	-5.596090	36.198404	-13.940072
59509		-5.870723	-0.801806	7.999921	0.005738	0.013707	0.013751	-0.868408	0.340820	-0.633057	-5.585810	36.206937	-13.932189
59510		-5.914422	-0.769264	8.012754	0.000981	0.016241	0.011075	-0.859619	0.337646	-0.624512	-5.579723	36.216937	-13.926520
59511		-5.875293	-0.811775	8.019417	0.001132	0.019315	0.009252	-0.866211	0.342285	-0.624512	-5.574186	36.228416	-13.922199
59512		-5.876988	-0.811486	8.018204	-0.004569	0.021501	0.005267	-0.863037	0.335693	-0.635498	-5.573939	36.241000	-13.918846
59513		-5.931449	-0.795907	7.992929	0.001626	0.022390	0.011385	-0.865234	0.334717	-0.629639	-5.567349	36.254351	-13.913226
59514		-5.931448	-0.747256	8.017834	0.001627	0.022388	0.011387	-0.861084	0.336182	-0.636719	-5.561013	36.267850	-13.909190
59515		-5.882515	-0.809620	8.014339	0.001214	0.020846	0.008346	-0.870361	0.336426	-0.631836	-5.555863	36.280150	-13.905609
59516		-5.957152	-0.790278	7.961485	0.001139	0.019307	0.009258	-0.867920	0.335938	-0.627441	-5.550564	36.291770	-13.902195
59517		-5.948368	-0.773150	7.998136	0.003931	0.014539	0.010232	-0.856201	0.342285	-0.632324	-5.542806	36.300578	-13.896841
59518		-5.907134	-0.803857	7.983737	0.002912	0.012654	0.009835	-0.868164	0.338135	-0.635986	-5.535976	36.308415	-13.890511
59519		-5.821565	-0.818284	7.982002	0.003856	0.013000	0.011145	-0.867432	0.342529	-0.630615	-5.527814	36.316395	-13.884402
59520		-5.889365	-0.805625	8.009709	0.002165	0.021186	0.009658	-0.860352	0.339844	-0.634521	-5.521833	36.329072	-13.878278
59521		-5.931587	-0.761531	8.000796	0.005034	0.017955	0.009722	-0.864502	0.340820	-0.624023	-5.513789	36.339798	-13.873511
59522		-5.995658	-0.725601	7.985754	0.003599	0.014531	0.006281	-0.861572	0.341309	-0.625000	-5.508131	36.348484	-13.869272
59523		-5.932191	-0.748837	7.977711	-0.004219	0.011418	0.002404	-0.859375	0.343750	-0.633545	-5.508192	36.355079	-13.869237
59524		-5.953373	-0.745545	7.949339	-0.003690	0.010225	0.000670	-0.859863	0.336670	-0.625732	-5.508878	36.361018	-13.867322
59525		-5.957648	-0.769220	7.991606	-0.005204	0.005266	-0.001860	-0.858398	0.333740	-0.627930	-5.511045	36.363870	-13.869887
59526		-5.978260	-0.766302	7.963616	-0.007775	0.002693	-0.000924	-0.858887	0.329590	-0.631592	-5.514451	36.365400	-13.873868
59527		-5.957999	-0.770335	7.991236	-0.003437	-0.001383	-0.001285	-0.862793	0.342041	-0.632080	-5.515095	36.364491	-13.875571
59528		-5.903592	-0.810692	7.946309	-0.005167	0.000998	-0.005726	-0.860352	0.342041	-0.629883	-5.518940	36.364834	-13.882026
59529		-5.925658	-0.783241	7.987549	-0.006459	-0.001227	0.000474	-0.864502	0.334473	-0.623047	-5.520582	36.364110	-13.882493
59530		-5.903322	-0.775717	7.993963	-0.004794	-0.003268	-0.005638	-0.857666	0.334961	-0.623535	-5.524021	36.361960	-13.886905
59531		-5.894806	-0.807757	8.005491	-0.003437	-0.001383	-0.001285	-0.862061	0.337891	-0.629639	-5.524664	36.361050	-13.888607
59532		-5.935352	-0.764942	7.997678	-0.004831	0.001000	-0.001771	-0.862305	0.343262	-0.636230	-5.526667	36.361566	-13.891700
59533		-5.892825	-0.797076	7.984129	-0.005401	-0.003613	-0.002993	-0.864746	0.338623	-0.622803	-5.529062	36.359290	-13.894460
59534		-5.936881	-0.813809	7.971592	-0.003436	-0.001383	-0.001284	-0.860596	0.329834	-0.625488	-5.529956	36.358483	-13.894143
59535		-5.928375	-0.809385	8.030717	-0.002571	-0.002574	0.000936	-0.867676	0.340332	-0.628418	-5.529122	36.357017	-13.894191
59536		-5.892133	-0.798106	7.984536	-0.006085	-0.005494	0.000563	-0.866455	0.339600	-0.627441	-5.530611	36.353929	-13.896096
59537		-5.892031	-0.798128	7.984610	0.002908	0.002576	0.003018	-0.861328	0.333252	-0.630371	-5.525974	36.355515	-13.895023
59538		-5.891954	-0.797928	7.984687	-0.001177	-0.004957	0.001423	-0.854004	0.337158	-0.627197	-5.524302	36.352806	-13.895415
59539		-5.912069	-0.794349	7.957139	-0.000607	-0.000345	0.002645	-0.868164	0.336914	-0.634277	-5.521716	36.352705	-13.894406
59540		-5.881588	-0.781318	8.022510	-0.000270	-0.000343	0.006600	-0.860107	0.343506	-0.626465	-5.517524	36.352954	-13.890945
59541		-5.924138	-0.785743	7.988431	-0.002001	0.002038	0.002159	-0.860107	0.336182	-0.630127	-5.516037	36.354186	-13.890444
59542		-5.924206	-0.785781	7.988377	-0.001550	-0.000691	0.001335	-0.860840	0.337891	-0.624756	-5.514775	36.353930	-13.888812
59543		-5.912171	-0.757772	8.004683	-0.000607	-0.000345	0.002645	-0.860352	0.339111	-0.633545	-5.512189	36.353829	-13.887803
59544		-5.902090	-0.777742	7.994675	-0.003887	0.001346	-0.000461	-0.869141	0.339355	-0.629395	-5.513100	36.354638	-13.888541
59545		-5.932575	-0.754666	7.976876	-0.003965	-0.000191	0.000450	-0.862549	0.343506	-0.632080	-5.513366	36.354504	-13.889097
59546		-5.926092	-0.798126	8.009640	-0.003965	-0.000191	0.000450	-0.860352	0.335205	-0.632324	-5.513879	36.354467	-13.887370
59547		-5.892022	-0.798591	7.984570	-0.004830	0.001000	-0.001770	-0.855713	0.341309	-0.629639	-5.515621	36.354889	-13.889579
59548		-5.946455	-0.795369	7.981825	-0.003965	-0.000191	0.000450	-0.863281	0.332031	-0.620850	-5.516119	36.354910	-13.889842
59549		-5.900431	-0.767828	7.973008	-0.005359	0.002192	-0.000036	-0.853760	0.335449	-0.622070	-5.517484	36.356108	-13.890905
59550		-5.914277	-0.807675	7.978062	-0.001628	-0.002228	0.002246	-0.859863	0.341553	-0.622803	-5.515845	36.354955	-13.892767
59551		-5.936294	-0.815638	7.971842	0.000259	-0.001536	0.004865	-0.855957	0.333496	-0.625488	-5.511783	36.354296	-13.890104
59552		-5.956328	-0.775850	7.991948	-0.004199	-0.004803	0.003182	-0.865723	0.335205	-0.624023	-5.511104	36.351767	-13.888266
59553		-5.913826	-0.807351	7.978428	-0.000191	0.001192	0.005689	-0.854248	0.338379	-0.629639	-5.507064	36.352710	-13.885205
59554		-5.944114	-0.747427	8.008432	0.000103	-0.004611	0.006687	-0.854492	0.344971	-0.631592	-5.502455	36.350496	-13.881513
59555		-5.923434	-0.786936	7.988836	-0.002805	-0.007186	0.003668	-0.861328	0.339844	-0.637207	-5.500423	36.346549	-13.879312
59556		-5.900673	-0.778683	7.995630	-0.000467	-0.009224	0.005464	-0.861572	0.334717	-0.623047	-5.496425	36.341742	-13.872662
59557		-5.920333	-0.774948	7.968442	-0.001333	-0.008033	0.003244	-0.855957	0.333252	-0.632568	-5.493694	36.337289	-13.870705
59558		-5.975771	-0.746864	8.035305	-0.003298	-0.010262	0.001535	-0.868408	0.331299	-0.623779	-5.492963	36.331585	-13.872334
59559		-5.991607	-0.684479	8.013015	-0.009332	-0.008069	-0.006409	-0.864258	0.338867	-0.636719	-5.498862	36.326581	-13.877208
59560		-5.940148	-0.784747	7.963693	-0.010169	-0.013029	-0.001031	-0.862061	0.338135	-0.627441	-5.503034	36.319132	-13.879848
59561		-5.864391	-0.793034	7.994672	-0.011373	-0.011837	-0.007205	-0.869385	0.343262	-0.626953	-5.510282	36.311935	-13.885027
59562		-5.885499	-0.802234	7.989014	-0.006542	-0.012838	-0.005437	-0.864014	0.334961	-0.625977	-5.514227	36.304336	-13.887126
59563		-5.938799	-0.799355	7.987126	-0.005675	-0.014031	-0.003217	-0.858887	0.340332	-0.628906	-5.516448	36.296106	-13.889330
59564		-5.915525	-0.791808	7.994213	-0.004730	-0.013686	-0.001907	-0.856445	0.337646	-0.625732	-5.517831	36.288256	-13.890577
59565		-5.922748	-0.760954	7.983578	-0.006540	-0.012840	-0.005435	-0.863770	0.343262	-0.630859	-5.521524	36.280583	-13.894431
59566		-5.923427	-0.773505	8.005691	-0.006012	-0.014033	-0.007170	-0.860107	0.338867	-0.633301	-5.525815	36.272273	-13.897511
59567		-5.924126	-0.822116	7.980224	-0.005144	-0.015226	-0.004950	-0.860596	0.348389	-0.638428	-5.528406	36.263266	-13.900856
59568		-5.876709	-0.795013	7.972352	-0.005559	-0.016765	-0.007993	-0.868652	0.342041	-0.633301	-5.532637	36.253440	-13.902418
59569		-5.899187	-0.815701	7.988411	-0.005634	-0.018304	-0.007081	-0.866943	0.336670	-0.625488	-5.536274	36.242560	-13.907056
59570		-5.885628	-0.788554	8.005745	-0.006237	-0.018652	-0.004435	-0.858398	0.349854	-0.630371	-5.539375	36.231721	-13.908595
59571		-5.852090	-0.800854	8.002902	-0.001629	-0.012306	-0.004578	-0.860107	0.333740	-0.626953	-5.539910	36.224400	-13.911872
59572		-5.841214	-0.821072	7.993414	-0.004607	-0.006347	0.000144	-0.862549	0.341797	-0.625977	-5.540637	36.220899	-13.909578
59573		-5.894991	-0.781697	8.038845	-0.003059	-0.005654	-0.001193	-0.865723	0.336426	-0.625732	-5.540847	36.217558	-13.910918
59574		-5.856942	-0.722658	8.018883	-0.004380	-0.001731	-0.002588	-0.861084	0.334961	-0.626465	-5.542797	36.216463	-13.912641
59575		-5.874235	-0.822463	8.019103	-0.007815	-0.003117	-0.003867	-0.866455	0.334473	-0.626709	-5.546951	36.214421	-13.916045
59576		-5.896183	-0.831186	8.012908	-0.003435	-0.001386	-0.001279	-0.868896	0.341064	-0.621582	-5.547828	36.213600	-13.919829
59577		-5.902685	-0.788294	7.980217	-0.003963	-0.000194	0.000456	-0.871338	0.330566	-0.627441	-5.548088	36.213464	-13.920378
59578		-5.894179	-0.820213	7.991645	-0.006002	-0.003964	-0.000340	-0.861328	0.338867	-0.624268	-5.549959	36.211155	-13.922292
59579		-5.915937	-0.792535	8.033183	-0.001020	-0.001885	-0.000398	-0.873535	0.336914	-0.632568	-5.548821	36.210007	-13.923329
59580		-5.905648	-0.812498	8.023283	-0.002567	-0.002578	0.000940	-0.865479	0.342529	-0.625488	-5.548223	36.208628	-13.923075
59581		-5.888200	-0.785696	7.928002	-0.002642	-0.004117	0.001850	-0.860352	0.333496	-0.628906	-5.546986	36.206332	-13.922369
59582		-5.893035	-0.784773	8.039980	-0.002642	-0.004117	0.001850	-0.859375	0.339355	-0.631104	-5.545981	36.204151	-13.921371
59583		-5.892718	-0.784877	8.040202	-0.002642	-0.004117	0.001850	-0.858643	0.331543	-0.630371	-5.544743	36.201855	-13.920666
59584		-5.914598	-0.828933	7.986584	0.004188	-0.007153	0.001450	-0.860352	0.342529	-0.631348	-5.539850	36.197984	-13.921461
59585		-5.896774	-0.765591	7.939189	-0.002375	-0.005658	0.006715	-0.862061	0.332275	-0.623047	-5.536367	36.195078	-13.917213
59586		-5.910138	-0.769087	7.992139	-0.001020	-0.001885	-0.000398	-0.858643	0.336426	-0.628418	-5.535456	36.194059	-13.918274
59587		-5.879523	-0.792848	8.009806	-0.005851	-0.000886	-0.002159	-0.865967	0.338379	-0.625244	-5.537862	36.193384	-13.920624
59588		-5.871115	-0.824950	8.021132	-0.004304	-0.000193	-0.003497	-0.871338	0.339355	-0.629150	-5.540197	36.193145	-13.923974
59589		-5.857293	-0.785847	8.016027	-0.006378	0.000305	-0.000424	-0.859375	0.334961	-0.628418	-5.542229	36.193245	-13.925179
59590		-5.879548	-0.794501	8.009624	-0.004756	0.002538	-0.002672	-0.857666	0.337402	-0.624512	-5.544591	36.194603	-13.928306
59591		-5.869824	-0.814882	7.999260	-0.007206	0.007305	0.000316	-0.859619	0.347412	-0.624512	-5.547072	36.198736	-13.929468
59592		-5.870551	-0.815266	7.998687	-0.002149	0.010923	-0.000652	-0.863770	0.339600	-0.632324	-5.547428	36.205000	-13.928154
59593		-5.913615	-0.783804	8.011941	-0.002978	0.005958	0.004724	-0.857910	0.332275	-0.632080	-5.545591	36.208609	-13.926109
59594		-5.892210	-0.775744	8.017669	-0.002676	0.012114	0.001084	-0.863037	0.335693	-0.628906	-5.545564	36.215702	-13.928100
59595		-5.929072	-0.823854	8.015729	-0.007657	0.010034	0.001142	-0.861328	0.349854	-0.620850	-5.548070	36.221437	-13.928866
59596		-5.893945	-0.776417	8.016329	-0.002750	0.010574	0.001995	-0.866699	0.344238	-0.626953	-5.547661	36.227616	-13.925556
59597		-5.916918	-0.784533	8.009430	-0.001882	0.009380	0.004213	-0.856445	0.338867	-0.631836	-5.545548	36.233148	-13.924106
59598		-5.907571	-0.804342	7.998842	-0.002826	0.009034	0.002905	-0.867432	0.337402	-0.629883	-5.544724	36.238549	-13.920916
59599		-5.886184	-0.796155	8.004584	-0.002485	0.009031	0.006859	-0.861816	0.334717	-0.626221	-5.541836	36.244029	-13.917570
59600		-5.874950	-0.804337	7.972713	-0.004788	0.006803	0.001198	-0.861816	0.337158	-0.632813	-5.542782	36.248010	-13.919172
59601		-5.823168	-0.819581	7.996033	0.001103	0.013493	0.006321	-0.865234	0.334717	-0.632080	-5.538243	36.256005	-13.916512
59602		-5.870389	-0.847044	8.003997	0.001103	0.013492	0.006321	-0.862061	0.340332	-0.626709	-5.533926	36.264137	-13.914939
59603		-5.910232	-0.755517	8.021910	0.000577	0.014682	0.008058	-0.863770	0.336670	-0.627686	-5.529008	36.272905	-13.911130
59604		-5.903194	-0.786579	8.032347	-0.000893	0.015526	0.008485	-0.870117	0.339111	-0.636475	-5.525024	36.282259	-13.906606
59605		-5.900979	-0.798766	7.941054	0.000578	0.014680	0.008059	-0.856689	0.337158	-0.628662	-5.520102	36.291025	-13.902793
59606		-5.960122	-0.781946	8.027973	0.000579	0.014679	0.008060	-0.864746	0.332275	-0.625488	-5.515401	36.299923	-13.898666
59607		-5.957544	-0.758019	7.984546	-0.000595	0.009718	0.009479	-0.865967	0.338867	-0.622314	-5.510353	36.305937	-13.893507
59608		-5.927800	-0.781358	8.001691	-0.004785	0.006802	0.001197	-0.859619	0.342285	-0.629883	-5.511319	36.309842	-13.895675
59609		-5.936782	-0.749847	7.989844	-0.000934	0.009720	0.005525	-0.859863	0.336914	-0.627930	-5.508121	36.315640	-13.893314
59610		-5.928971	-0.781154	8.000843	0.000416	0.001535	0.003045	-0.861328	0.335693	-0.628418	-5.505079	36.316753	-13.891040
59611		-5.959509	-0.757737	7.983106	-0.006038	0.000303	0.003525	-0.862305	0.334717	-0.628418	-5.505263	36.317070	-13.889451
59612		-5.928991	-0.781542	8.000790	-0.006531	-0.002770	0.001389	-0.866943	0.337158	-0.628174	-5.506735	36.315607	-13.891109
59613		-5.937052	-0.750515	7.989581	-0.007475	-0.003115	0.000080	-0.863037	0.323975	-0.620605	-5.509048	36.313785	-13.891725
59614		-5.946689	-0.731284	7.999894	-0.006575	-0.008572	-0.001574	-0.857178	0.335938	-0.637939	-5.511580	36.308771	-13.898192
59615		-6.030686	-0.669306	8.027776	-0.015176	-0.008952	-0.008576	-0.865234	0.331787	-0.625732	-5.521697	36.303143	-13.904535
59616		-5.997327	-0.683524	8.024690	-0.026311	-0.016174	-0.018513	-0.863525	0.337646	-0.629639	-5.542269	36.292989	-13.920052
59617		-5.917563	-0.707166	7.965358	-0.034380	-0.017748	-0.027246	-0.864990	0.341064	-0.628906	-5.570842	36.281306	-13.938993
59618		-5.854053	-0.944827	7.954935	-0.030981	-0.022172	-0.028925	-0.862061	0.333984	-0.630615	-5.598188	36.267103	-13.957849
59619		-5.868610	-0.849087	7.981186	-0.019624	-0.022298	-0.017089	-0.865234	0.337402	-0.626221	-5.613853	36.253381	-13.969272
59620		-5.887089	-0.847674	7.954689	-0.014378	-0.021764	-0.012281	-0.866455	0.336182	-0.629150	-5.624739	36.240333	-13.978577
59621		-5.885368	-0.849336	7.955784	-0.011471	-0.019191	-0.009262	-0.858643	0.340576	-0.635010	-5.632580	36.228819	-13.984673
59622		-5.904048	-0.810883	7.976945	-0.005623	-0.018303	-0.007102	-0.865234	0.341309	-0.628662	-5.636401	36.218099	-13.988856
59623		-5.892167	-0.795601	8.015755	-0.008790	-0.021238	-0.003518	-0.857178	0.342773	-0.624023	-5.640218	36.205740	-13.990745
59624		-5.870213	-0.800151	8.044446	-0.005546	-0.016766	-0.008009	-0.861816	0.335205	-0.627441	-5.644443	36.195803	-13.992624
59625		-5.839320	-0.709709	8.014270	-0.004486	-0.021048	-0.000021	-0.864502	0.340576	-0.633789	-5.644342	36.183749	-13.992053
59626		-5.953069	-0.624445	8.025470	-0.014674	-0.015966	-0.013258	-0.866455	0.340088	-0.628174	-5.656004	36.174000	-14.000906
59627		-5.942183	-0.844872	7.990930	-0.023571	-0.022517	-0.016611	-0.870361	0.337402	-0.630859	-5.673689	36.160170	-14.011944
59628		-5.906158	-0.847512	7.967011	-0.021227	-0.024559	-0.014822	-0.867920	0.343506	-0.626953	-5.689402	36.145380	-14.020896
59629		-5.907625	-0.873357	8.010892	-0.016850	-0.022827	-0.012236	-0.864746	0.338867	-0.631348	-5.701389	36.131618	-14.028810
59630		-5.839502	-0.850901	8.030755	-0.015868	-0.016679	-0.007961	-0.862305	0.336426	-0.626709	-5.711486	36.121737	-14.031580
59631		-5.860499	-0.896312	7.977500	-0.009078	-0.015441	-0.004500	-0.871826	0.344727	-0.624512	-5.716103	36.112625	-14.034548
59632		-5.798252	-0.943772	8.013248	-0.002816	-0.013014	0.000697	-0.859131	0.338135	-0.624023	-5.715288	36.105281	-14.031725
59633		-5.592188	-0.949912	8.054587	-0.000491	0.006994	0.004704	-0.870117	0.339844	-0.629883	-5.712091	36.109484	-14.029782
59634		-5.752836	-0.879263	8.051777	0.001922	0.016566	0.012421	-0.864502	0.335938	-0.634033	-5.704915	36.119700	-14.021896
59635		-5.943019	-0.772703	8.009638	0.006334	0.024104	0.017972	-0.864990	0.334229	-0.628906	-5.692994	36.134413	-14.011791
59636		-5.900766	-0.755232	8.020806	0.002637	0.024260	0.011837	-0.862305	0.341553	-0.631104	-5.685957	36.149018	-14.007777
59637		-5.906503	-0.813833	8.014193	0.001169	0.025101	0.012268	-0.867920	0.338867	-0.628174	-5.679404	36.163973	-14.001761
59638		-5.908560	-0.813045	8.012757	0.001698	0.023910	0.010532	-0.860107	0.338867	-0.632568	-5.673428	36.178277	-13.995007
59639		-5.918730	-0.781035	8.000242	-0.001621	0.019799	0.004472	-0.865234	0.339355	-0.625977	-5.671499	36.189767	-13.994121
59640		-5.922155	-0.828150	7.972694	0.004943	0.016411	0.010660	-0.863281	0.338623	-0.623779	-5.663293	36.199810	-13.987602
59641		-5.960349	-0.724684	7.969558	0.001097	0.013489	0.006337	-0.871582	0.339355	-0.628418	-5.658766	36.207807	-13.984953
59642		-5.904086	-0.830860	7.998705	-0.003277	0.011756	0.003750	-0.866943	0.340088	-0.626709	-5.657985	36.214716	-13.983051
59643		-5.904873	-0.830562	7.998154	0.002869	0.006836	0.006893	-0.858154	0.344482	-0.629395	-5.651934	36.218951	-13.979542
59644		-5.893591	-0.837759	7.966389	0.006225	0.006683	0.009080	-0.868652	0.333740	-0.626953	-5.643247	36.223341	-13.971139
59645		-5.875507	-0.852037	8.015082	0.007018	0.003946	0.012204	-0.868408	0.340332	-0.628418	-5.632479	36.226226	-13.963672
59646		-5.902625	-0.767623	8.002598	0.008753	0.001554	0.016637	-0.858154	0.340576	-0.631348	-5.619006	36.228038	-13.953317
59647		-5.949008	-0.829887	7.963544	0.009808	-0.000823	0.013162	-0.863037	0.336182	-0.621338	-5.606042	36.228255	-13.944840
59648		-5.876742	-0.696999	8.014359	0.009842	-0.005085	0.009287	-0.861084	0.340820	-0.625977	-5.594722	36.225929	-13.938738
59649		-5.918262	-0.850785	7.981570	0.004039	-0.000170	0.010096	-0.862549	0.342041	-0.627197	-5.586372	36.226344	-13.932473
59650		-5.879937	-0.754391	8.009793	0.005239	-0.011437	0.009424	-0.868408	0.332275	-0.625244	-5.577369	36.220397	-13.923367
59651		-5.935515	-0.761371	8.029137	0.008298	-0.005783	0.010625	-0.864258	0.339600	-0.630615	-5.566130	36.217640	-13.916342
59652		-5.945410	-0.776417	7.991819	0.004941	-0.005629	0.008438	-0.866943	0.333496	-0.625977	-5.557962	36.214912	-13.912400
59653		-5.912487	-0.751424	8.036260	0.002978	-0.007858	0.006729	-0.862793	0.339844	-0.632324	-5.551314	36.210754	-13.907987
59654		-5.891817	-0.790488	8.016518	0.001585	-0.005474	0.006250	-0.863525	0.334229	-0.624512	-5.545977	36.208027	-13.905092
59655		-5.913192	-0.762116	8.058475	0.000414	-0.010440	0.007668	-0.865479	0.337158	-0.625488	-5.540304	36.202447	-13.899841
59656		-5.931265	-0.746423	8.009940	-0.001697	-0.003778	0.003155	-0.866455	0.336914	-0.627441	-5.538224	36.200462	-13.900156
59657		-5.904520	-0.642961	8.069593	-0.003362	-0.011817	0.002435	-0.863770	0.335205	-0.625977	-5.536844	36.193807	-13.898510
59658		-5.940861	-0.577016	8.019905	-0.014603	-0.004342	-0.007331	-0.854736	0.337646	-0.630371	-5.546496	36.190941	-13.905829
59659		-5.888891	-0.793368	8.018384	-0.031283	-0.006286	-0.023048	-0.867432	0.337891	-0.630615	-5.571968	36.186026	-13.922565
59660		-5.859868	-0.868237	8.009434	-0.028296	-0.002176	-0.020937	-0.864502	0.341309	-0.625244	-5.595184	36.183734	-13.938258
59661		-5.863344	-0.966467	7.956470	-0.018373	-0.005725	-0.012561	-0.864746	0.337891	-0.629395	-5.608902	36.179716	-13.947619
59662		-5.843437	-0.857149	7.935671	-0.010447	-0.007242	-0.002019	-0.866211	0.340332	-0.620117	-5.613822	36.175516	-13.948086
59663		-5.880395	-0.881113	8.003810	-0.000375	-0.007706	0.004539	-0.860596	0.335205	-0.624268	-5.610016	36.171325	-13.945228
59664		-5.908706	-0.845305	7.965356	0.005020	-0.004090	0.007525	-0.867432	0.336670	-0.632813	-5.602249	36.169396	-13.940595
59665		-5.872387	-0.796591	7.967079	0.003744	-0.006339	0.013725	-0.862061	0.342773	-0.636230	-5.592312	36.166497	-13.931345
59666		-5.897844	-0.826714	8.003738	0.013699	-0.002172	0.013604	-0.861328	0.341309	-0.623047	-5.577066	36.166165	-13.921149
59667		-5.871970	-0.757473	8.015345	0.009891	0.000711	0.012250	-0.857178	0.342041	-0.630371	-5.564509	36.167201	-13.913428
59668		-5.874085	-0.803608	7.988921	0.011362	-0.000133	0.011820	-0.857666	0.339111	-0.625977	-5.551440	36.167878	-13.902981
59669		-5.908007	-0.801957	8.014281	0.011137	-0.004758	0.014545	-0.860596	0.344971	-0.631592	-5.536991	36.165920	-13.893263
59670		-5.875614	-0.811998	8.010755	0.011288	-0.001677	0.012729	-0.868652	0.346680	-0.627197	-5.523515	36.165793	-13.881888
59671		-5.894032	-0.758794	8.009771	0.011109	-0.000499	0.018423	-0.865234	0.343750	-0.638184	-5.507637	36.166474	-13.869722
59672		-5.916049	-0.764957	8.003778	0.014678	-0.006097	0.011041	-0.860596	0.334961	-0.625488	-5.492748	36.163706	-13.855950
59673		-5.927487	-0.755471	8.035623	0.004347	-0.005988	0.011084	-0.868652	0.355713	-0.633545	-5.483584	36.160849	-13.848595
59674		-5.896783	-0.813943	8.005828	0.004797	-0.008718	0.010256	-0.863770	0.338867	-0.627686	-5.474585	36.156520	-13.835169
59675		-5.861956	-0.776906	8.028983	0.005218	-0.007187	0.013302	-0.868896	0.335938	-0.624756	-5.463953	36.153098	-13.826168
59676		-5.873583	-0.803467	8.013105	0.007633	-0.007690	0.014181	-0.859131	0.337402	-0.631348	-5.451770	36.149484	-13.817261
59677		-5.861243	-0.809785	7.982245	0.013408	-0.008351	0.017246	-0.865967	0.335693	-0.629883	-5.434758	36.145609	-13.805399
59678		-5.903084	-0.776103	7.996673	0.011417	-0.006319	0.019415	-0.864258	0.336182	-0.624512	-5.418258	36.143160	-13.793908
59679		-5.892800	-0.793928	7.986961	0.011569	-0.003238	0.017598	-0.860840	0.341309	-0.626221	-5.402358	36.142215	-13.782143
59680		-5.875780	-0.819090	8.057544	0.013040	-0.004085	0.017169	-0.870361	0.337402	-0.619873	-5.385973	36.140840	-13.771030
59681		-5.900509	-0.722363	8.024022	0.009580	-0.001206	0.019767	-0.857178	0.338379	-0.627441	-5.370389	36.141166	-13.757869
59682		-5.816393	-0.783824	7.996126	0.009436	0.007689	0.016957	-0.865479	0.339355	-0.625732	-5.356629	36.146448	-13.748459
59683		-5.895066	-0.761888	8.056207	0.009634	0.004594	0.022734	-0.858887	0.330811	-0.622803	-5.340002	36.150236	-13.733584
59684		-5.861804	-0.759862	8.030725	0.010810	0.009559	0.021314	-0.864014	0.342773	-0.625000	-5.323707	36.156827	-13.723869
59685		-5.909073	-0.785534	8.038921	0.010442	0.013828	0.021233	-0.868408	0.332275	-0.632080	-5.307595	36.165796	-13.710657
59686		-5.833795	-0.779284	8.046905	0.008975	0.014673	0.021664	-0.859131	0.335449	-0.626221	-5.292388	36.175334	-13.698162
59687		-5.888029	-0.761560	8.022099	0.011525	0.021508	0.024600	-0.870117	0.342041	-0.627686	-5.274537	36.188856	-13.683063
59688		-5.890330	-0.795057	7.973174	0.013421	0.022188	0.027221	-0.868896	0.335693	-0.631592	-5.254742	36.202951	-13.666415
59689		-5.876451	-0.741167	7.945649	0.014546	0.021347	0.022837	-0.866211	0.334961	-0.626465	-5.235875	36.216280	-13.652535
59690		-5.875749	-0.805166	8.019749	0.015400	0.024403	0.028935	-0.866943	0.336670	-0.626953	-5.214310	36.231701	-13.637642
59691		-5.886325	-0.770367	8.007003	0.020894	0.029536	0.031017	-0.861572	0.331787	-0.630615	-5.188679	36.250119	-13.618485
59692		-5.855009	-0.731301	8.027682	0.013353	0.041119	0.031259	-0.863525	0.337158	-0.631836	-5.167923	36.275202	-13.604199
59693		-5.846176	-0.815078	8.090550	0.012130	0.046579	0.028961	-0.863281	0.337646	-0.627197	-5.148790	36.303229	-13.587558
59694		-5.876736	-0.693599	8.122513	0.006305	0.061930	0.026043	-0.865967	0.346436	-0.626953	-5.135007	36.339912	-13.575768
59695		-5.906611	-0.525402	8.179601	-0.007033	0.084606	0.019484	-0.859131	0.330078	-0.632080	-5.132235	36.389147	-13.568233
59696		-5.894091	-0.493888	8.249180	-0.033965	0.109114	0.009846	-0.859619	0.332275	-0.626709	-5.150096	36.451902	-13.570395
59697		-5.946652	-0.465993	8.255167	-0.060185	0.141650	-0.010933	-0.863037	0.336914	-0.625732	-5.192799	36.532121	-13.588142
59698		-5.959743	-0.402599	8.340607	-0.110797	0.183459	-0.040618	-0.857422	0.344727	-0.635986	-5.279029	36.634561	-13.634108
59699		-5.860586	-0.455762	8.344533	-0.144202	0.245116	-0.062670	-0.853027	0.338379	-0.631348	-5.396239	36.771005	-13.695885
59700		-5.796824	-0.567643	8.423660	-0.174363	0.306049	-0.075781	-0.848633	0.343262	-0.628418	-5.539420	36.941426	-13.770578
59701		-5.799349	-0.785234	8.463265	-0.187269	0.386711	-0.081073	-0.858643	0.333740	-0.630127	-5.696194	37.157333	-13.856569
59702		-5.760871	-1.264790	8.467773	-0.197545	0.499186	-0.059665	-0.846680	0.338867	-0.637451	-5.855623	37.438256	-13.937803
59703		-5.696762	-1.759310	8.711908	-0.198147	0.637902	-0.027047	-0.834961	0.345947	-0.629883	-6.008357	37.800133	-14.005850
59704		-3.193062	-0.772594	11.486453	-0.437816	0.945273	0.110976	-0.833740	0.348389	-0.631836	-6.253454	38.345217	-13.998007
59705		-2.349401	-2.917136	10.847136	-0.266886	1.570589	0.191178	-0.821289	0.352539	-0.630127	-6.396787	39.251628	-13.986436
59706		-5.123632	-0.271531	11.405320	-0.264438	1.997968	0.240138	-0.805176	0.349854	-0.637207	-6.540453	40.403897	-13.974984
59707		-5.672420	-0.785752	12.325598	-0.395648	2.285486	0.221984	-0.785645	0.354492	-0.634521	-6.787774	41.719231	-14.009927
59708		-5.598264	-2.768412	11.823865	-0.341861	2.556069	0.289034	-0.766846	0.348145	-0.641846	-6.992482	43.192437	-14.026347
59709		-5.605315	-5.272285	11.726247	0.138463	2.687922	0.375750	-0.740723	0.359619	-0.648193	-6.884810	44.747164	-13.988901
59710		-4.384637	-4.493349	12.069812	0.701683	2.846866	0.383005	-0.718750	0.359863	-0.650879	-6.452435	46.391895	-13.949507
59711		-4.232325	-4.301318	16.637098	0.917345	2.590374	0.160283	-0.701172	0.341553	-0.654297	-6.000314	47.877211	-14.052972
59712		-6.353460	-2.949610	19.537005	0.549238	1.654548	-0.201327	-0.678955	0.340088	-0.659668	-5.924405	48.806790	-14.375403
59713		4.437041	-3.461851	17.665246	0.151449	0.781083	-0.302184	-0.675293	0.334229	-0.657471	-6.088249	49.233689	-14.710461
59714		8.067056	-2.353083	16.628082	-0.171268	0.406210	-0.123783	-0.670898	0.345947	-0.660889	-6.296978	49.455316	-14.859041
59715		7.245468	-1.457348	16.755929	-0.525295	0.039317	0.114450	-0.673584	0.338135	-0.658691	-6.523173	49.484961	-14.763728
59716		5.356532	-1.345841	17.229385	-0.877526	-0.565616	0.250613	-0.675781	0.349609	-0.654785	-6.815436	49.176600	-14.489001
59717		5.174162	-1.718481	16.351599	-1.052679	-1.202899	0.302407	-0.682617	0.359375	-0.647217	-7.124605	48.513440	-14.101660
59718		4.967512	-1.454901	15.032387	-1.063712	-1.675774	0.336351	-0.692139	0.362305	-0.653320	-7.385752	47.581214	-13.636190
59719		4.050611	-0.872768	13.881283	-1.047771	-2.004336	0.348992	-0.704102	0.383545	-0.644775	-7.610889	46.468648	-13.126576
59720		2.918415	-0.640657	13.066758	-1.047159	-2.234104	0.331278	-0.719727	0.388428	-0.640869	-7.839147	45.220840	-12.611424
59721		0.942889	-0.844404	12.983580	-1.024653	-2.389208	0.254832	-0.732910	0.390869	-0.634277	-8.095443	43.885291	-12.143248
59722		-1.558560	-0.950007	12.863316	-0.985415	-2.577367	0.111606	-0.749023	0.398193	-0.630127	-8.401199	42.427539	-11.767864
59723		-3.232109	-1.037962	12.580114	-0.917884	-2.768732	-0.073826	-0.764893	0.408691	-0.627197	-8.752273	40.852518	-11.508222
59724		-4.349953	-0.846863	11.883812	-0.856470	-2.891856	-0.244254	-0.780762	0.422119	-0.628662	-9.141730	39.188158	-11.353936
59725		-5.268533	-0.791616	10.879424	-0.782989	-2.914453	-0.358068	-0.793945	0.419434	-0.624023	-9.534406	37.507045	-11.267485
59726		-5.791426	-0.841098	9.941719	-0.664235	-2.831828	-0.411180	-0.819092	0.431152	-0.629883	-9.883008	35.862019	-11.217395
59727		-6.474050	-0.979822	9.281520	-0.492722	-2.674904	-0.416007	-0.835205	0.435059	-0.627930	-10.141207	34.311207	-11.179485
59728		-7.206957	-0.966322	8.691398	-0.303454	-2.491758	-0.420007	-0.861084	0.435303	-0.624023	-10.302819	32.857468	-11.161075
59729		-7.632826	-0.837713	8.036705	-0.126451	-2.266564	-0.436231	-0.868408	0.434326	-0.634521	-10.381408	31.534939	-11.176966
59730		-8.273707	-0.890851	7.195009	0.029652	-2.008539	-0.476939	-0.895752	0.438721	-0.631348	-10.399725	30.347833	-11.249696
59731		-10.085816	-1.449237	7.009023	0.240672	-1.757581	-0.532241	-0.915771	0.426025	-0.635742	-10.328014	29.302270	-11.387463
59732		-13.170770	-1.763819	7.405123	0.515436	-1.725052	-0.620639	-0.933350	0.424316	-0.631104	-10.127033	28.260862	-11.587780
59733		-15.622561	-1.183886	7.978220	0.702005	-1.998331	-0.774367	-0.955078	0.417480	-0.623291	-9.847774	27.056199	-11.857711
59734		-16.146113	-0.065733	7.076721	0.649888	-2.426768	-0.982380	-0.976563	0.407959	-0.616699	-9.631882	25.585558	-12.215379
59735		-13.339224	0.499499	4.502400	0.423590	-2.612535	-1.127660	-1.009766	0.396973	-0.616943	-9.566147	24.001796	-12.642934
59736		-10.936302	0.041933	1.628436	0.219872	-2.302321	-1.101970	-1.031738	0.391357	-0.610840	-9.611841	22.591558	-13.082565
59737		-10.886454	-0.463265	0.098984	0.203388	-1.705564	-0.984054	-1.049072	0.383057	-0.607910	-9.652287	21.533671	-13.506688
59738		-11.927592	-0.155392	-0.093548	0.288913	-1.157021	-0.915866	-1.060791	0.379883	-0.603760	-9.642126	20.788423	-13.943297
59739		-12.028540	0.541101	0.127199	0.376568	-0.737888	-0.938941	-1.078613	0.375732	-0.589111	-9.596518	20.281587	-14.435009
59740		-11.979676	1.366769	0.166680	0.412005	-0.364621	-0.935328	-1.076416	0.361084	-0.595947	-9.539489	19.983424	-14.961801
59741		-12.403036	1.254723	0.010520	0.428793	-0.067019	-0.769014	-1.083008	0.361084	-0.596924	-9.446991	19.872779	-15.418074
59742		-12.988911	1.347798	0.304445	0.420978	0.148455	-0.478851	-1.090820	0.362061	-0.595703	-9.306660	19.909618	-15.721537
59743		-10.375838	1.237714	1.431061	0.337718	0.299823	-0.133332	-1.086426	0.354736	-0.603760	-9.148533	20.066832	-15.831842
59744		-13.112410	2.973476	-6.498421	-0.101148	1.350814	0.525941	-1.073486	0.358154	-0.602539	-9.139162	20.877110	-15.646344
59745		-13.087641	1.188539	-9.817435	-0.160798	2.520551	1.231417	-1.062256	0.374756	-0.618652	-9.043309	22.414533	-15.143079
59746		-7.258913	-1.940865	3.621406	-0.092453	3.267285	1.549611	-1.033203	0.380859	-0.635742	-8.840375	24.400989	-14.505186
59747		-17.013960	-4.019654	16.292856	0.034856	2.719596	1.042800	-1.005859	0.378906	-0.646240	-8.651878	26.031849	-14.115141
59748		-5.579322	-8.506861	12.345710	0.081505	1.777007	0.382129	-0.990723	0.384033	-0.657471	-8.571169	27.070869	-14.044358
59749		-1.617716	-7.370094	7.224323	0.218542	2.489487	0.400325	-0.975830	0.390381	-0.661621	-8.435589	28.515387	-14.027149
59750		-12.682893	-3.803630	10.625594	0.338905	2.941461	0.206866	-0.950928	0.384033	-0.669189	-8.311954	30.199483	-14.175273
59751		-16.641789	-0.683963	11.305144	0.377344	2.115560	0.146796	-0.926025	0.384033	-0.678955	-8.147656	31.411080	-14.281191
59752		-9.234068	2.518348	8.900954	0.267373	1.571358	0.316614	-0.923828	0.392822	-0.690430	-7.959759	32.327823	-14.219338
59753		-6.139670	1.119933	8.631477	0.008800	1.645408	0.219591	-0.906494	0.377197	-0.685303	-7.956657	33.278830	-14.227225
59754		-7.661664	-3.491479	9.039946	0.025570	1.681963	0.102244	-0.894043	0.381836	-0.696533	-7.990965	34.241337	-14.319249
59755		-16.503380	-3.809378	11.543612	0.572378	1.127374	0.684955	-0.885010	0.384521	-0.699951	-7.452857	34.934071	-13.953157
59756		-10.002669	5.510955	9.515727	0.203515	0.158567	0.175517	-0.883301	0.386475	-0.698242	-7.273161	35.037303	-13.846759
59757		-6.884845	1.779532	9.085388	0.039228	0.121538	0.141413	-0.885498	0.381104	-0.705322	-7.198567	35.116517	-13.760129
59758		-6.337479	-2.585646	7.709785	-0.021344	0.012778	-0.045362	-0.886230	0.379639	-0.709473	-7.227796	35.120868	-13.793661
59759		-6.904479	-0.759589	8.562029	-0.088507	0.109118	-0.107359	-0.884766	0.376709	-0.706543	-7.325209	35.175020	-13.878838
59760		-6.468656	0.691141	8.469003	-0.184623	0.041351	-0.149047	-0.883301	0.385010	-0.702881	-7.491107	35.187887	-13.987102
59761		-5.818212	-2.068955	7.865078	-0.195742	0.086045	-0.162038	-0.883789	0.390625	-0.706543	-7.670950	35.224430	-14.108563
59762		-5.933838	-1.763158	7.933414	-0.180418	0.079082	-0.136718	-0.873535	0.392822	-0.710693	-7.831719	35.259155	-14.211978
59763		-5.894845	-1.093279	8.319405	-0.182004	0.087642	-0.121658	-0.877686	0.392578	-0.706055	-7.987904	35.299219	-14.305887
59764		-5.828343	-1.455714	8.109781	-0.175555	0.087264	-0.121236	-0.877930	0.385986	-0.704590	-8.140456	35.339369	-14.399686
59765		-5.973285	-1.018483	8.200633	-0.175666	0.096567	-0.107518	-0.878662	0.396484	-0.697998	-8.288156	35.385243	-14.485014
59766		-6.090085	-1.275901	8.126642	-0.172351	0.081617	-0.109703	-0.882813	0.394043	-0.700439	-8.434212	35.422755	-14.570569
59767		-5.819062	-1.306893	8.016718	-0.159238	0.078861	-0.093643	-0.879639	0.392334	-0.700928	-8.566142	35.459423	-14.644770
59768		-5.588302	-1.563661	8.050357	-0.138694	0.088307	-0.076383	-0.880127	0.391846	-0.708496	-8.680140	35.503271	-14.708145
59769		-6.132048	-1.032483	8.374090	-0.141557	0.091979	-0.086768	-0.878418	0.399902	-0.707275	-8.800218	35.547713	-14.779231
59770		-5.902593	-1.238046	7.892265	-0.147618	0.077922	-0.098059	-0.887207	0.400146	-0.700195	-8.927696	35.583545	-14.856857
59771		-5.835514	-1.288446	7.956289	-0.138835	0.080753	-0.082355	-0.870605	0.392822	-0.701660	-9.043961	35.621780	-14.923938
59772		-5.830857	-1.498001	7.972473	-0.114743	0.084293	-0.062118	-0.876953	0.402100	-0.704102	-9.138667	35.664222	-14.977501
59773		-5.688292	-1.603888	7.945631	-0.080121	0.089486	-0.039005	-0.872070	0.399170	-0.698975	-9.204464	35.711179	-15.015598
59774		-5.905498	-1.644004	7.961199	-0.051146	0.091119	-0.022832	-0.868408	0.400391	-0.703369	-9.247394	35.760983	-15.042759
59775		-5.771509	-1.246414	7.987323	-0.034868	0.089941	-0.005583	-0.866699	0.404541	-0.710938	-9.273802	35.811230	-15.057746
59776		-5.743731	-1.232459	7.935842	-0.006939	0.098969	0.027778	-0.871826	0.394043	-0.700684	-9.271355	35.870124	-15.050590
59777		-5.777846	-1.825697	7.754057	0.053156	0.094302	0.085473	-0.872314	0.401611	-0.709717	-9.210368	35.931220	-15.002503
59778		-5.751597	-1.731547	7.804230	0.115936	0.083893	0.134377	-0.863770	0.399170	-0.698730	-9.092681	35.991284	-14.919000
59779		-5.596930	-1.851556	7.871433	0.154410	0.091223	0.172521	-0.871338	0.392578	-0.715088	-8.937354	36.058298	-14.809291
59780		-5.766397	-1.645802	7.999145	0.190191	0.085980	0.200595	-0.869141	0.395264	-0.708740	-8.749494	36.125002	-14.679113
59781		-5.805572	-1.450777	7.897143	0.214275	0.080379	0.219701	-0.859619	0.402344	-0.706299	-8.539025	36.189362	-14.534429
59782		-5.926804	-0.983280	7.840173	0.232987	0.072292	0.214779	-0.867676	0.393311	-0.702881	-8.319226	36.248729	-14.392073
59783		-5.718832	-0.715164	8.002381	0.239676	0.081222	0.206180	-0.861572	0.394287	-0.706299	-8.099142	36.311571	-14.256156
59784		-5.955542	-1.160575	7.974514	0.242581	0.097150	0.200290	-0.862061	0.394043	-0.708984	-7.880601	36.383003	-14.125657
59785		-5.939508	-1.130947	7.887367	0.227064	0.094828	0.192740	-0.864258	0.391113	-0.708496	-7.673398	36.451699	-13.999708
59786		-5.908879	-1.179711	7.840823	0.221009	0.101088	0.185096	-0.867920	0.381592	-0.707520	-7.473042	36.523453	-13.879438
59787		-5.816459	-1.080915	7.861009	0.218102	0.104083	0.181355	-0.855225	0.385010	-0.707031	-7.275529	36.595856	-13.761560
59788		-5.657665	-1.142982	7.847777	0.236467	0.107847	0.195055	-0.855225	0.389404	-0.713135	-7.061715	36.671477	-13.633988
59789		-5.484598	-1.635235	7.750061	0.286236	0.113295	0.231950	-0.860840	0.380615	-0.718262	-6.803377	36.751887	-13.480082
59790		-5.603286	-1.796013	7.791582	0.329925	0.114064	0.275208	-0.856201	0.375244	-0.709961	-6.501284	36.835422	-13.294976
59791		-5.982768	-1.071577	7.868803	0.338808	0.114790	0.288360	-0.858887	0.377441	-0.717529	-6.187627	36.918985	-13.099675
59792		-5.892414	-0.716430	8.057481	0.310533	0.131848	0.280414	-0.861328	0.369873	-0.718262	-5.893898	37.011370	-12.910707
59793		-5.866207	-0.685463	8.106666	0.286737	0.158496	0.266584	-0.848389	0.368652	-0.715576	-5.619910	37.116990	-12.732567
59794		-5.783404	-0.534990	8.089606	0.256973	0.187566	0.244696	-0.854492	0.376465	-0.725586	-5.373087	37.237741	-12.571378
59795		-6.047804	-0.041331	8.284793	0.207505	0.249262	0.198595	-0.839844	0.367920	-0.714111	-5.176053	37.390365	-12.446319
59796		-6.003150	-0.463880	8.275387	0.169773	0.303723	0.159502	-0.849121	0.370361	-0.714844	-5.019253	37.572155	-12.352120
59797		-6.088403	-0.290054	8.194662	0.140204	0.334455	0.136452	-0.837402	0.373535	-0.715088	-4.889781	37.769775	-12.275527
59798		-6.341289	-0.220278	8.146522	0.102475	0.365428	0.099588	-0.839600	0.369873	-0.723877	-4.798994	37.983547	-12.226909
59799		-6.076691	-0.756497	8.021544	0.081230	0.399490	0.073841	-0.835205	0.366455	-0.714111	-4.732532	38.215119	-12.198405
59800		-5.946982	-1.217965	7.977544	0.124949	0.449169	0.110188	-0.833252	0.370605	-0.712402	-4.626167	38.477088	-12.145953
59801		-6.317553	-0.613124	8.119516	0.152894	0.500070	0.132866	-0.823975	0.362549	-0.722656	-4.494373	38.768712	-12.078894
59802		-6.395469	-0.682137	8.115746	0.158426	0.569812	0.138489	-0.820313	0.365479	-0.727295	-4.358468	39.100650	-12.010615
59803		-6.564323	-0.365284	8.140295	0.124673	0.626897	0.135211	-0.823242	0.362549	-0.724609	-4.244131	39.464597	-11.946536
59804		-6.339710	0.292117	8.781052	0.040800	0.732467	0.100968	-0.812988	0.362305	-0.732422	-4.196949	39.887693	-11.912744
59805		-5.031973	-0.748478	9.005500	-0.161319	1.040174	0.030033	-0.796875	0.367432	-0.725586	-4.310492	40.483267	-11.949080
59806		-7.149951	1.277644	8.925457	-0.232860	1.364257	-0.063785	-0.792236	0.365234	-0.720459	-4.525983	41.260014	-12.077937
59807		-5.786389	-0.539159	8.623815	-0.379739	1.599746	-0.178062	-0.775146	0.367920	-0.717285	-4.899625	42.165079	-12.315979
59808		-6.261567	0.224327	8.772411	-0.501546	1.942322	-0.264394	-0.758789	0.373535	-0.739258	-5.417052	43.259985	-12.658494
59809		-5.723295	-0.079956	8.583992	-0.475711	2.258911	-0.379409	-0.738037	0.378906	-0.737549	-6.020170	44.526097	-13.138589
59810		-4.899179	0.633008	8.737356	-0.443845	2.655194	-0.427830	-0.716553	0.385986	-0.741455	-6.688784	46.011007	-13.724987
59811		-3.829022	0.097798	8.542680	-0.387114	3.030029	-0.328348	-0.695313	0.387695	-0.732178	-7.334484	47.711085	-14.309020
59812		-4.472159	-0.417129	8.804219	-0.281927	3.522573	-0.249756	-0.664307	0.391846	-0.730713	-7.961660	49.692263	-14.931866
59813		-6.430666	0.309106	9.032270	-0.353716	3.897886	-0.395517	-0.636963	0.393311	-0.735107	-8.837381	51.868495	-15.803446
59814		-4.646267	-0.370221	8.748270	-0.338807	4.423481	-0.226530	-0.590576	0.394287	-0.731689	-9.745860	54.348487	-16.699414
59815		-5.486500	-0.705700	9.567378	-0.341645	5.044903	-0.197841	-0.555176	0.400146	-0.732910	-10.864147	57.172108	-17.817777
59816		-7.020929	-0.560470	10.889524	-0.467697	5.693813	-0.366743	-0.503174	0.400879	-0.716309	-12.561338	60.323538	-19.491710
59817		-7.391464	-1.200072	10.751569	-0.650773	6.326324	-0.560792	-0.454834	0.407227	-0.697266	-15.158111	63.766363	-22.010666
59818		-9.098218	-0.365789	11.564111	-0.781318	6.961251	-0.616800	-0.400146	0.415283	-0.688965	-18.931519	67.476895	-25.662385
59819		-12.139986	-2.767423	12.567264	-0.884376	7.363728	-0.459468	-0.345703	0.418945	-0.661621	-24.218249	71.306983	-30.768170
59820		-15.536932	-2.548003	11.075229	-0.874318	7.485005	-0.195411	-0.292725	0.425293	-0.631592	-31.701981	75.048479	-38.060858
59821		-19.858510	-5.697345	12.012436	-1.038561	7.439077	0.065568	-0.235596	0.431152	-0.606934	-43.208424	78.470475	-49.265504
59822		-20.832257	-7.605797	13.659227	-1.068592	6.815767	0.391831	-0.193115	0.446533	-0.561035	-60.093465	81.094899	-65.795049
59823		-19.168590	-4.926637	16.009616	-1.404889	6.076014	0.571411	-0.154297	0.445801	-0.528076	-83.298571	82.525998	-88.420460
59824		-14.332960	-1.277771	18.642825	-2.465063	5.423730	0.671370	-0.115479	0.451416	-0.499268	-108.826535	82.580855	-112.737505
59825		-6.712335	-2.898995	17.910946	-3.887566	4.836486	0.462805	-0.092773	0.469482	-0.455811	-129.316211	81.451075	-131.176500
59826		-0.829262	-12.430780	9.963918	-3.175136	4.165302	1.493519	-0.061279	0.482910	-0.422852	-145.131330	80.273288	-145.352387
59827		-31.077666	-16.451847	26.854547	-1.190615	0.735806	2.206804	-0.064209	0.481689	-0.410156	-153.527036	80.555928	-153.177112
59828		-4.061372	-6.493558	21.081126	0.330268	-1.998791	2.260842	-0.070068	0.457031	-0.431152	-157.983483	82.136673	-157.878909
59829		8.245710	-1.832254	15.002242	-0.097219	-2.224589	2.377358	-0.069580	0.444824	-0.436523	-165.246118	83.778870	-165.142079
59830		5.185447	-1.428736	12.466156	-0.770317	-1.823647	2.634911	-0.079346	0.427979	-0.447021	-179.551603	85.028583	-179.074017
59831		-0.592902	-4.398976	12.236548	-1.157870	-1.968922	2.532142	-0.087158	0.426025	-0.466797	159.176115	85.896458	160.252008
59832		-4.308175	-7.275541	12.371845	-1.000888	-2.585658	2.137275	-0.102295	0.421875	-0.469727	130.676601	86.427406	132.263383
59833		-6.143849	-7.904674	12.490966	-0.476780	-3.513308	1.564789	-0.122314	0.415283	-0.489746	94.798623	86.376786	96.590417
59834		-4.467627	-6.277375	11.260614	-0.025440	-4.315933	0.966397	-0.148438	0.421631	-0.515381	62.421790	85.304597	64.146221
59835		-2.375774	-3.648889	9.766324	0.060671	-4.700481	0.432728	-0.179443	0.414307	-0.545410	42.257457	83.434253	43.851523
59836		-1.933217	-1.643309	8.354692	-0.210651	-4.766119	0.017795	-0.226807	0.414307	-0.567139	30.159323	81.208517	31.766759
59837		-2.482956	-1.067462	7.457671	-0.622148	-4.693849	-0.341719	-0.268066	0.437500	-0.588379	22.052776	78.874547	23.897816
59838		-3.416647	-1.598363	7.110100	-0.915674	-4.587462	-0.669330	-0.314453	0.445801	-0.595703	15.920051	76.504751	18.157444
59839		-4.737145	-2.273540	7.472356	-0.990843	-4.540758	-0.991893	-0.357666	0.456543	-0.619873	10.938405	74.104539	13.593088
59840		-6.457488	-2.419639	8.012029	-0.923477	-4.594279	-1.310688	-0.403320	0.478516	-0.625244	6.681189	71.609501	9.691050
59841		-7.686186	-2.192654	8.620556	-0.796051	-4.744754	-1.625562	-0.455322	0.490479	-0.640137	2.993126	68.978123	6.256677
59842		-8.557176	-1.755999	9.110421	-0.676161	-4.902414	-1.896544	-0.511719	0.508301	-0.646973	-0.202522	66.187400	3.218208
59843		-9.346151	-1.427446	9.192486	-0.576398	-5.044217	-2.118804	-0.571045	0.522705	-0.652832	-2.935454	63.264381	0.559648
59844		-9.859038	-1.490393	9.301602	-0.460897	-5.128797	-2.289250	-0.646240	0.534180	-0.655518	-5.249065	60.230301	-1.767991
59845		-10.623931	-1.669534	9.585283	-0.308940	-5.152219	-2.416801	-0.710449	0.544189	-0.656006	-7.163884	57.145390	-3.803948
59846		-11.900712	-2.007433	9.891804	-0.151240	-5.170254	-2.546370	-0.794922	0.552490	-0.639404	-8.762532	53.999952	-5.638354
59847		-13.106049	-2.735993	9.966807	0.039845	-5.185562	-2.709917	-0.876465	0.558350	-0.621582	-10.095923	50.814200	-7.352209
59848		-14.171461	-3.476303	9.817063	0.313897	-5.158122	-2.916196	-0.963867	0.560547	-0.602539	-11.187418	47.591439	-9.033415
59849		-15.209014	-2.942626	9.839445	0.631372	-5.080856	-3.162331	-1.051025	0.545410	-0.559814	-12.054182	44.374596	-10.744399
59850		-16.250846	-0.399967	10.285802	0.761529	-4.927761	-3.417719	-1.129395	0.535889	-0.514404	-12.824508	41.186057	-12.523446
59851		-18.084279	1.611635	9.876196	0.423136	-4.776696	-3.525645	-1.206787	0.515381	-0.444336	-13.688863	38.058480	-14.262032
59852		-19.918081	0.728742	7.944470	0.025154	-4.656364	-3.441642	-1.264648	0.489258	-0.371338	-14.606284	34.980327	-15.831397
59853		-20.512970	-2.116334	5.586468	0.142267	-4.541529	-3.076970	-1.309326	0.465576	-0.291748	-15.207508	32.011969	-17.072323
59854		-21.423014	-3.557297	4.011052	0.740866	-4.414229	-2.427678	-1.341309	0.436035	-0.227539	-15.182841	29.198363	-17.862895
59855		-24.072338	-1.535497	3.225505	1.242453	-4.382774	-1.703478	-1.347900	0.403564	-0.156982	-14.626040	26.520501	-18.199921
59856		-25.007846	1.129062	1.306696	1.192124	-4.465569	-1.139388	-1.339355	0.386719	-0.093994	-13.941386	23.872786	-18.202633
59857		-22.731915	1.430294	-1.762228	0.750893	-4.337981	-0.687949	-1.319580	0.363770	-0.047119	-13.423644	21.364451	-17.981391
59858		-21.476121	0.899115	-3.994938	0.400305	-3.757477	-0.406684	-1.309570	0.346191	-0.010010	-13.093328	19.209644	-17.697875
59859		-20.581217	1.982734	-5.066055	0.210067	-2.969585	-0.413281	-1.294678	0.329102	0.018311	-12.920352	17.498408	-17.538236
59860		-22.986733	3.049508	-6.589601	-0.117854	-2.235138	-0.594577	-1.286621	0.310059	0.047119	-12.999152	16.169382	-17.586005
59861		-22.268418	2.208041	-8.096556	-0.331848	-1.648747	-0.705867	-1.266846	0.302734	0.064941	-13.237480	15.157431	-17.773125
59862		-20.985398	1.363476	-9.528845	-0.256023	-0.990157	-0.555810	-1.252441	0.286133	0.069824	-13.429247	14.528766	-17.959199
59863		-20.187844	1.952789	-9.873982	-0.056795	-0.343871	-0.151019	-1.253174	0.278809	0.073975	-13.469492	14.316867	-17.999497
59864		-13.146652	1.947438	-6.847747	0.117786	0.377879	0.500637	-1.258301	0.276611	0.087402	-13.340678	14.592108	-17.763958
59865		-20.631781	7.534921	-14.873123	-0.323559	2.444086	1.826123	-1.249756	0.300049	0.084229	-13.332551	16.195920	-17.043791
59866		-0.138624	1.199461	-2.755481	0.012263	3.598745	2.604333	-1.237305	0.314453	0.080566	-13.015593	18.543010	-16.014582
59867		-18.358210	-5.763880	16.587869	0.497884	3.403205	2.567272	-1.239502	0.333496	0.075684	-12.368614	20.768361	-14.946529
59868		-3.898209	-14.320308	14.258832	0.422862	1.796283	1.780101	-1.234863	0.345703	0.082520	-11.818012	21.988069	-14.107774
59869		1.476490	-17.429084	5.372483	0.736016	2.979067	1.448307	-1.241943	0.355713	0.072754	-11.194483	23.826052	-13.595432
59870		-12.574443	-11.009990	7.953412	1.100509	4.411744	0.588969	-1.244629	0.348145	0.059814	-10.631438	26.371410	-13.759100
59871		-22.855250	-1.883842	12.645363	1.206051	3.921031	-0.091800	-1.245850	0.342529	0.061768	-10.176230	28.571449	-14.275428
59872		-15.583098	10.545271	12.369639	0.838318	3.005106	0.525616	-1.253418	0.348877	0.058838	-9.695173	30.319485	-14.277308
59873		-12.106349	13.660219	13.136639	-0.016703	2.571362	0.610043	-1.249756	0.355469	0.045410	-9.644318	31.830438	-14.164771
59874		-14.586092	-2.101606	13.809447	0.177109	2.127339	0.756568	-1.250488	0.353516	0.039551	-9.397213	33.104743	-13.897822
59875		-11.976559	-5.231726	7.339919	0.347930	1.236798	0.658413	-1.233887	0.359375	0.037109	-9.024698	33.864525	-13.588197
59876		-9.998649	-0.232147	9.291949	0.140937	1.073508	0.300146	-1.252686	0.360107	0.033203	-8.891903	34.499714	-13.499511
59877		-10.466112	3.550326	9.721815	-0.123821	0.577299	0.096924	-1.253418	0.364990	0.031250	-8.958552	34.834995	-13.496064
59878		-6.832894	-2.395545	7.697331	-0.199574	0.306356	-0.055285	-1.246338	0.360352	0.027344	-9.112045	35.004409	-13.568563
59879		-7.245189	-3.665423	7.704376	-0.152452	0.277456	-0.067773	-1.247803	0.371094	0.028564	-9.242284	35.155051	-13.647253
59880		-6.527676	-0.321182	8.532196	-0.183983	0.208973	-0.080141	-1.258057	0.365479	0.025635	-9.391558	35.266873	-13.727252
59881		-5.313300	-1.070044	8.341223	-0.214551	0.233946	-0.141184	-1.250488	0.359131	0.022949	-9.584861	35.385641	-13.852994
59882		-5.746536	-3.214868	7.799957	-0.143610	0.317747	-0.127965	-1.247559	0.364014	0.029053	-9.738574	35.553905	-13.980046
59883		-6.118231	-2.180972	7.769047	-0.065568	0.281670	-0.076251	-1.249512	0.364258	0.030029	-9.824823	35.705414	-14.067619
59884		-6.356391	-1.163521	7.942779	-0.036919	0.248992	-0.046656	-1.249512	0.364746	0.028809	-9.880817	35.842495	-14.131030
59885		-6.201709	-1.117702	8.094393	-0.041716	0.210922	-0.044620	-1.251953	0.361084	0.022705	-9.936179	35.957033	-14.188663
59886		-5.989079	-1.308748	8.067033	-0.054814	0.197687	-0.048066	-1.251953	0.367920	0.031006	-9.999813	36.064941	-14.247284
59887		-6.068735	-1.011520	8.016210	-0.063755	0.186340	-0.032683	-1.249512	0.363037	0.019287	-10.061546	36.166701	-14.294004
59888		-6.269229	-0.896432	7.951191	-0.074832	0.173739	-0.013357	-1.247803	0.360596	0.025635	-10.120962	36.264486	-14.325803
59889		-5.838703	-1.849913	7.819565	-0.045427	0.150469	0.019000	-1.242188	0.360107	0.023193	-10.148447	36.351156	-14.332206
59890		-5.801024	-2.333249	7.668734	0.017396	0.126889	0.079760	-1.253662	0.361084	0.018066	-10.112999	36.431892	-14.293047
59891		-5.736572	-2.287002	7.723493	0.093260	0.113166	0.145885	-1.251221	0.364990	0.030762	-10.005290	36.510223	-14.205665
59892		-5.761482	-2.261172	7.751866	0.173808	0.113768	0.204077	-1.254883	0.367676	0.026367	-9.826955	36.595693	-14.077144
59893		-5.984967	-1.733957	7.882613	0.231252	0.087917	0.257328	-1.250000	0.365723	0.018311	-9.590907	36.670102	-13.907514
59894		-5.957427	-1.401848	7.787446	0.261425	0.085765	0.280893	-1.251465	0.363770	0.020996	-9.327145	36.746148	-13.720487
59895		-5.927994	-1.375992	7.841123	0.273103	0.083946	0.287185	-1.249756	0.365723	0.025146	-9.053167	36.819807	-13.528152
59896		-6.017076	-1.385562	7.799944	0.285693	0.083180	0.284270	-1.247314	0.364258	0.020996	-8.772758	36.893257	-13.337204
59897		-6.076998	-1.282491	7.805312	0.292976	0.078818	0.278279	-1.250977	0.379639	0.024414	-8.489713	36.961739	-13.149375
59898		-6.287061	-0.930392	7.778912	0.269202	0.056803	0.269625	-1.245850	0.372314	0.019531	-8.222274	37.017533	-12.964867
59899		-6.249032	-0.808456	7.721790	0.247358	0.037684	0.235806	-1.249512	0.367920	0.018555	-7.980114	37.057861	-12.802002
59900		-6.061051	-1.194117	7.711115	0.246984	0.024604	0.226569	-1.249512	0.382080	0.023193	-7.741240	37.090750	-12.644151
59901		-6.063594	-0.514667	7.975654	0.222184	0.037425	0.200675	-1.252930	0.371094	0.027588	-7.528083	37.127197	-12.505717
59902		-6.080382	-0.481086	8.005492	0.183662	0.054665	0.156295	-1.242432	0.377197	0.025146	-7.356973	37.171032	-12.400298
59903		-5.985316	-0.907178	7.965970	0.162053	0.076395	0.129882	-1.240967	0.376465	0.021484	-7.210517	37.223808	-12.315488
59904		-5.878870	-0.806777	8.027072	0.139133	0.089087	0.100651	-1.245361	0.378174	0.023682	-7.090409	37.282812	-12.252458
59905		-5.993404	-0.767475	7.994909	0.117113	0.108735	0.081620	-1.252197	0.377686	0.028809	-6.991960	37.350301	-12.204597
59906		-5.839292	-0.894731	7.950935	0.116022	0.126344	0.071285	-1.249268	0.375732	0.017822	-6.899465	37.428270	-12.165451
59907		-6.009012	-0.977042	7.865002	0.112909	0.139485	0.070635	-1.247803	0.381592	0.021973	-6.809496	37.512376	-12.127737
59908		-6.142181	-0.783801	7.808378	0.119946	0.143583	0.072512	-1.238281	0.362793	0.020020	-6.714775	37.600126	-12.088779
59909		-5.999043	-0.687670	7.899900	0.111150	0.164817	0.067090	-1.245361	0.382324	0.018555	-6.628315	37.698316	-12.055313
59910		-5.963595	-0.864737	7.838064	0.102984	0.193092	0.067935	-1.240479	0.375732	0.022705	-6.547457	37.813848	-12.023317
59911		-5.943087	-1.034494	7.806433	0.108317	0.222768	0.086515	-1.240479	0.378418	0.013672	-6.456546	37.946210	-11.980132
59912		-5.957414	-1.122019	7.875772	0.125544	0.249708	0.109564	-1.252686	0.376465	0.013184	-6.346581	38.096545	-11.922054
59913		-5.732984	-0.948683	8.020580	0.117633	0.281884	0.114498	-1.251709	0.375244	0.015381	-6.240054	38.264206	-11.862529
59914		-5.651955	-1.400167	7.965121	0.153727	0.334624	0.143835	-1.240723	0.380371	0.011230	-6.101718	38.464815	-11.785191
59915		-5.541028	-1.606643	8.059508	0.208443	0.379979	0.198683	-1.238770	0.377197	0.009766	-5.908383	38.693180	-11.670418
59916		-6.157492	-1.434651	8.033824	0.282910	0.448039	0.263153	-1.243164	0.382324	0.011230	-5.644691	38.964853	-11.511940
59917		-6.523140	-0.911179	8.043328	0.293880	0.501753	0.299648	-1.250977	0.378174	0.005371	-5.358004	39.267417	-11.328119
59918		-6.687556	-0.312313	8.092539	0.262030	0.544706	0.275183	-1.241211	0.378418	0.007080	-5.100533	39.593670	-11.162612
59919		-6.920452	0.639578	8.535497	0.160530	0.621310	0.180789	-1.241699	0.374756	-0.002441	-4.946868	39.957309	-11.069840
59920		-6.674202	0.873892	9.165513	-0.210832	0.773125	0.095174	-1.232422	0.379150	0.005859	-5.052709	40.404431	-11.050167
59921		-4.715552	-0.090524	9.336009	-0.088068	1.223672	-0.039624	-1.238770	0.386475	0.000977	-5.174789	41.100679	-11.163453
59922		-7.241646	0.360712	8.882097	-0.367179	1.538805	-0.183277	-1.227295	0.374756	-0.010254	-5.549012	41.969653	-11.414038
59923		-5.755620	0.010784	8.947801	-0.441156	1.874964	-0.291106	-1.220459	0.380371	-0.018311	-6.051610	43.021517	-11.787296
59924		-5.917272	-0.004828	8.806094	-0.603625	2.234070	-0.423986	-1.228760	0.374268	-0.040771	-6.762182	44.267338	-12.319103
59925		-4.916034	-0.747983	9.040605	-0.566332	2.669460	-0.483372	-1.210938	0.368652	-0.044434	-7.550572	45.750352	-12.978275
59926		-2.681529	-0.437722	9.310112	-0.435548	3.132834	-0.261977	-1.214600	0.368652	-0.068848	-8.216417	47.508510	-13.554124
59927		-2.843831	-1.704707	9.243509	-0.266070	3.835562	0.042058	-1.205078	0.367188	-0.079834	-8.707125	49.685671	-14.008096
59928		-5.571513	-0.583458	9.868192	-0.216989	4.473612	0.094171	-1.192871	0.370605	-0.094482	-9.257579	52.226236	-14.559674
59929		-3.284750	-2.162147	9.231113	-0.164683	5.219117	0.258128	-1.178223	0.360352	-0.124756	-9.827226	55.199640	-15.151986
59930		-4.472592	-2.302442	10.658638	0.085811	6.210399	0.347947	-1.160156	0.359863	-0.146973	-10.437703	58.737600	-15.941298
59931		-6.601742	-0.711967	12.006249	-0.070682	7.115130	0.153288	-1.146240	0.360107	-0.172852	-11.722578	62.755320	-17.369335
59932		-8.990373	-1.219232	13.061910	-0.291007	7.954612	0.175460	-1.111816	0.360352	-0.202393	-13.840306	67.222537	-19.523108
59933		-10.506447	-0.968654	13.120701	-0.303486	8.544721	0.185810	-1.080566	0.348877	-0.235596	-17.269984	71.969445	-22.996122
59934		-15.897707	-0.192573	11.826611	-0.473721	8.902704	0.288811	-1.042725	0.340332	-0.245361	-23.325199	76.816366	-28.997969
59935		-22.126717	-4.216430	12.121797	-0.774632	8.746777	0.468902	-0.990723	0.342529	-0.265137	-35.297927	81.340879	-40.731056
59936		-21.874867	-8.305611	13.261530	-0.666775	8.044006	0.912683	-0.935547	0.334229	-0.275635	-61.572553	84.879251	-66.795914
59937		-21.047679	-7.195339	16.068938	-0.774270	7.259791	1.189789	-0.880371	0.330566	-0.269531	-114.547685	85.795623	-119.478995
59938		-14.950461	-5.966915	18.901895	-1.448795	6.474846	1.451539	-0.827637	0.314941	-0.257080	-151.805533	83.762171	-156.045415
59939		-12.501608	-2.016119	22.080940	-2.897891	5.899448	1.107610	-0.776123	0.313477	-0.233643	-166.708235	80.805794	-169.405100
59940		6.701218	-6.351752	11.993401	-3.061605	4.167089	1.640712	-0.727295	0.306396	-0.220215	-175.586274	78.590670	-176.646590
59941		-46.428606	-8.292951	26.919211	-2.539471	1.917282	1.767380	-0.687500	0.291748	-0.186279	178.066082	77.513305	178.350490
59942		-14.104064	-11.619704	24.680848	-1.174572	-3.022053	1.686072	-0.647705	0.281006	-0.169434	172.012939	79.162281	172.854778
59943		5.305571	-5.337116	15.756248	-0.651908	-3.618733	1.593484	-0.619141	0.264648	-0.161865	164.072674	81.005752	165.172290
59944		8.695264	-3.417981	9.748893	-0.796412	-3.265299	1.932773	-0.585205	0.237305	-0.151855	151.783451	82.338044	153.212284
59945		3.248418	-2.165725	9.627705	-0.911376	-2.830160	2.013292	-0.562988	0.227295	-0.147949	136.596957	82.983891	138.426109
59946		-0.075297	-3.947756	9.332135	-0.958458	-2.741448	1.763626	-0.527344	0.219482	-0.156738	120.653374	83.183872	122.917941
59947		-4.569406	-5.055006	10.353467	-0.671804	-3.125757	1.276758	-0.517578	0.206787	-0.169434	104.026518	83.188687	106.559714
59948		-6.587570	-5.009533	11.035615	-0.307147	-3.860501	0.646715	-0.504883	0.199463	-0.176758	85.252921	82.999949	87.826673
59949		-5.803003	-4.049210	10.157260	-0.050255	-4.562920	0.030857	-0.481201	0.194580	-0.195557	65.528177	82.313898	67.969083
59950		-3.531512	-2.667869	8.858571	0.049875	-4.973195	-0.461628	-0.483643	0.191162	-0.213867	48.207860	80.960626	50.436166
59951		-2.200087	-1.061516	7.579395	-0.081163	-5.002064	-0.797931	-0.488525	0.195557	-0.233398	35.320874	79.116120	37.400129
59952		-2.535570	-0.289066	6.722959	-0.341088	-4.828709	-1.046709	-0.492432	0.199463	-0.253174	25.958560	77.028327	28.031991
59953		-3.755783	-0.702309	6.803098	-0.574734	-4.644640	-1.256182	-0.498047	0.208008	-0.268311	18.914872	74.839662	21.109473
59954		-5.875818	-1.483407	7.362689	-0.610350	-4.621199	-1.502519	-0.511963	0.220459	-0.288574	13.212815	72.522399	15.532620
59955		-7.356887	-2.099722	7.876943	-0.472061	-4.772244	-1.717662	-0.523682	0.229248	-0.297119	8.566339	70.021448	10.910919
59956		-8.068758	-2.154718	8.409380	-0.307951	-4.971151	-1.904509	-0.546631	0.231201	-0.315186	4.755283	67.307691	7.008841
59957		-9.043900	-1.803925	8.801897	-0.196886	-5.155757	-2.101881	-0.562012	0.247314	-0.323242	1.593173	64.423769	3.666159
59958		-9.575740	-1.783818	8.991694	-0.151633	-5.328990	-2.313516	-0.591553	0.251953	-0.328369	-1.116352	61.364376	0.719650
59959		-10.336896	-2.148113	9.242465	-0.110413	-5.436484	-2.480351	-0.615967	0.252197	-0.337646	-3.406206	58.195102	-1.858720
59960		-11.508256	-2.793040	9.554768	-0.014307	-5.522711	-2.614652	-0.639160	0.259033	-0.333496	-5.316153	54.914165	-4.138534
59961		-12.889077	-3.042516	10.029074	0.140687	-5.608749	-2.705705	-0.664063	0.258057	-0.330811	-6.842387	51.553964	-6.146370
59962		-14.918426	-2.838424	10.264923	0.240871	-5.669439	-2.774757	-0.678223	0.260986	-0.328857	-8.074757	48.114731	-7.940818
59963		-16.982442	-3.021693	9.772802	0.291905	-5.690099	-2.880591	-0.695801	0.254395	-0.321533	-9.107709	44.644173	-9.601214
59964		-18.448290	-2.424031	8.933265	0.407992	-5.603972	-3.029684	-0.709717	0.247803	-0.329590	-9.971492	41.178205	-11.214986
59965		-20.026775	-0.789450	8.215131	0.405843	-5.395877	-3.157102	-0.722900	0.237549	-0.319336	-10.745863	37.811355	-12.801191
59966		-21.597830	-0.481578	6.487862	0.235524	-5.178043	-3.189881	-0.732422	0.237793	-0.322998	-11.503305	34.536423	-14.315792
59967		-21.737521	-1.372066	4.494436	0.285696	-4.915129	-3.087254	-0.741455	0.223633	-0.328857	-12.087855	31.417831	-15.694284
59968		-22.100536	-1.657638	3.343029	0.507154	-4.584471	-2.815410	-0.758789	0.221191	-0.331543	-12.383797	28.498822	-16.872955
59969		-23.182263	-0.964986	3.091494	0.639553	-4.288247	-2.427750	-0.773193	0.203369	-0.348877	-12.441219	25.800071	-17.806835
59970		-24.659740	-1.029854	2.452380	0.562381	-4.139925	-2.002913	-0.780029	0.189209	-0.354004	-12.395745	23.228122	-18.479366
59971		-23.176407	-1.281760	0.851482	0.535490	-4.108248	-1.605885	-0.802490	0.187500	-0.365723	-12.246938	20.731991	-18.907788
59972		-20.247273	3.213339	-0.443712	0.386091	-3.699962	-1.480904	-0.811768	0.173828	-0.360352	-12.159622	18.473585	-19.313706
59973		-22.983680	4.281273	-3.550983	-0.307912	-3.299677	-1.267209	-0.828613	0.169922	-0.381592	-12.430534	16.471614	-19.636078
59974		-20.799541	3.241111	-6.773728	-0.866797	-2.815257	-0.709266	-0.835449	0.167969	-0.380615	-12.936818	14.803332	-19.681038
59975		-21.774765	3.170490	-8.729783	-1.095837	-2.220306	-0.094979	-0.843994	0.181885	-0.386475	-13.502442	13.552307	-19.436347
59976		-21.462372	3.736121	-10.341089	-1.153391	-1.668950	0.376997	-0.861816	0.175537	-0.397705	-14.059041	12.671386	-18.987971
59977		-20.289800	3.438461	-11.771300	-1.047395	-0.939092	0.722988	-0.858887	0.189209	-0.404053	-14.538903	12.252137	-18.441496
59978		-19.290704	2.266736	-11.732293	-0.694969	-0.051940	1.008312	-0.857422	0.195801	-0.401123	-14.811123	12.367811	-17.862529
59979		-8.057156	-0.876645	-7.356398	0.067187	0.953303	1.366718	-0.852295	0.196289	-0.418457	-14.630689	13.094907	-17.229082
59980		-8.383752	5.715988	-8.472682	0.035340	3.681899	2.331835	-0.829102	0.204590	-0.438965	-14.413623	15.471448	-16.441126
59981		-3.430810	-6.200995	8.222114	1.082304	4.750864	2.130117	-0.795898	0.197021	-0.445801	-13.631447	18.407946	-15.893589
59982		-11.245547	-14.891573	18.746532	1.193461	2.893810	1.882996	-0.772461	0.191162	-0.443115	-12.709380	20.267959	-15.181427
59983		-2.690998	-15.686485	7.985298	1.323851	3.012092	1.366740	-0.752686	0.190430	-0.457520	-11.794001	22.120485	-14.754230
59984		-9.379307	-8.801713	6.735733	1.404592	4.495308	0.676063	-0.717773	0.175049	-0.458740	-11.044526	24.721655	-14.897377
59985		-23.159691	-0.089107	13.270928	1.324667	4.785104	-0.178527	-0.693604	0.172363	-0.468018	-10.584144	27.395326	-15.582555
59986		-21.778679	9.517131	14.706251	1.023032	3.561334	0.543652	-0.660889	0.162842	-0.472168	-10.029019	29.459294	-15.650618
59987		-13.886788	14.481826	13.166798	0.202213	2.733018	1.193471	-0.639160	0.160889	-0.478027	-9.674182	31.119002	-15.181495
59988		-10.686299	3.242997	10.988936	-0.435321	2.473243	0.679901	-0.627686	0.167236	-0.480957	-9.832329	32.583066	-15.012862
59989		-14.579388	-12.346140	10.860196	0.675323	1.938014	1.165752	-0.612061	0.163818	-0.485107	-9.132267	33.788232	-14.445109
59990		-10.622430	-2.367174	7.642632	0.450685	1.294318	0.749758	-0.608154	0.163330	-0.477295	-8.662009	34.589202	-14.071562
59991		-12.677235	7.536608	10.794475	0.059876	0.743704	0.313008	-0.603760	0.165039	-0.478760	-8.546888	35.037252	-13.934097
59992		-7.667423	0.693831	7.930975	-0.135572	0.263202	-0.040124	-0.600342	0.157715	-0.477783	-8.654382	35.185174	-13.990068
59993		-8.373040	-6.359165	7.100739	-0.127307	0.338102	-0.145643	-0.601807	0.162842	-0.476807	-8.804633	35.363885	-14.127980
59994		-5.477044	-1.158314	8.499803	-0.077792	0.202165	-0.058556	-0.587646	0.159424	-0.478760	-8.883608	35.475601	-14.191229
59995		-5.775758	-0.886055	8.294646	-0.047684	0.257240	-0.044244	-0.596924	0.154297	-0.481934	-8.943313	35.617180	-14.250946
59996		-6.387452	-3.540713	7.397695	0.051908	0.215665	0.036411	-0.596191	0.157959	-0.486572	-8.910684	35.744883	-14.249885
59997		-5.787954	-1.628036	7.992089	0.157307	0.131010	0.176675	-0.588867	0.154053	-0.486084	-8.754927	35.834500	-14.141656
59998		-5.941069	-0.904917	8.101751	0.170443	0.133642	0.195990	-0.595703	0.156738	-0.481689	-8.583592	35.929546	-14.019675
59999		-6.208641	-0.475996	8.127846	0.117523	0.121613	0.157245	-0.588379	0.161865	-0.475586	-8.457264	36.011710	-13.923214
60000		-6.517359	-0.121053	8.280600	0.042844	0.106027	0.098873	-0.588623	0.160645	-0.485352	-8.396627	36.082547	-13.865666
60001		-6.218940	-0.272942	8.231913	-0.029577	0.115268	0.038497	-0.584229	0.155762	-0.477783	-8.402875	36.151011	-13.851475
60002		-6.006579	-0.737353	8.097352	-0.074214	0.124865	-0.000306	-0.588135	0.163818	-0.477051	-8.451304	36.224228	-13.865364
60003		-5.867772	-1.299322	7.952370	-0.078249	0.146563	-0.000774	-0.583252	0.151855	-0.479492	-8.503729	36.307124	-13.882142
60004		-5.812560	-1.720587	7.916296	-0.071507	0.168745	-0.003994	-0.592041	0.163818	-0.473877	-8.555018	36.404875	-13.903433
60005		-6.062881	-1.220061	7.943058	-0.067730	0.174003	0.005352	-0.583984	0.156006	-0.487793	-8.600759	36.503817	-13.919032
60006		-6.018529	-1.534648	7.825961	-0.032826	0.170958	0.014196	-0.590088	0.162354	-0.485107	-8.622611	36.604359	-13.927975
60007		-5.986038	-1.655753	7.800449	0.014643	0.166021	0.044897	-0.578613	0.158447	-0.476563	-8.604090	36.702165	-13.914914
60008		-6.025324	-1.597021	7.734219	0.072547	0.153833	0.097427	-0.584473	0.159180	-0.486328	-8.529285	36.800123	-13.863132
60009		-6.011417	-1.587588	7.813623	0.125157	0.149245	0.133055	-0.578125	0.156494	-0.476074	-8.408702	36.895834	-13.785528
60010		-6.205601	-1.286859	7.907729	0.157004	0.137387	0.162666	-0.578369	0.159668	-0.488037	-8.256196	36.989723	-13.685169
60011		-6.689481	-0.630963	7.874000	0.125750	0.101711	0.140852	-0.585938	0.157715	-0.488525	-8.128365	37.058813	-13.596409
60012		-6.252066	-0.768432	7.734829	0.102162	0.080414	0.109022	-0.579346	0.156982	-0.482910	-8.026164	37.115740	-13.527728
60013		-5.974902	-1.141980	7.750738	0.102650	0.077651	0.108153	-0.570557	0.151367	-0.475342	-7.923747	37.168310	-13.459377
60014		-5.965443	-1.432119	7.759596	0.129967	0.076303	0.127012	-0.584229	0.156250	-0.483398	-7.797278	37.224123	-13.377102
60015		-5.966442	-1.307774	7.794950	0.157834	0.073781	0.144135	-0.577148	0.158447	-0.476807	-7.647142	37.277024	-13.282324
60016		-5.979418	-1.207423	7.812151	0.177512	0.074110	0.152556	-0.580322	0.155518	-0.480469	-7.481870	37.333179	-13.181153
60017		-5.967333	-1.118769	7.766132	0.194645	0.077313	0.144732	-0.581787	0.150879	-0.475098	-7.310125	37.387701	-13.085759
60018		-5.781994	-0.884869	7.946534	0.189096	0.098910	0.131023	-0.575195	0.152100	-0.477539	-7.148456	37.455928	-13.001705
60019		-5.969686	-0.991000	7.955472	0.186258	0.123955	0.126155	-0.570313	0.148438	-0.474609	-6.991623	37.535229	-12.923208
60020		-6.079578	-0.906889	7.858922	0.201379	0.147089	0.131852	-0.569092	0.144287	-0.483398	-6.824513	37.630524	-12.842097
60021		-6.163938	-0.688313	7.874800	0.203720	0.159453	0.130384	-0.571045	0.150146	-0.476807	-6.656991	37.729948	-12.762807
60022		-6.317405	-0.538233	7.838392	0.191621	0.167715	0.121333	-0.568359	0.145020	-0.476318	-6.500367	37.835926	-12.690077
60023		-6.120176	-0.767649	7.761668	0.189373	0.182657	0.117211	-0.568359	0.136719	-0.475342	-6.347261	37.947368	-12.621253
60024		-6.088516	-1.051416	7.745504	0.192402	0.198833	0.127710	-0.572510	0.138428	-0.479248	-6.188035	38.071164	-12.545427
60025		-5.972609	-0.995313	7.629827	0.204631	0.197014	0.162460	-0.562988	0.135986	-0.473877	-6.005770	38.193228	-12.443907
60026		-5.711091	-1.646057	7.684261	0.238417	0.192812	0.214234	-0.575684	0.140625	-0.486084	-5.779989	38.318288	-12.303574
60027		-5.645185	-1.996441	7.632722	0.296880	0.193515	0.300073	-0.567871	0.134521	-0.476563	-5.481214	38.445439	-12.100091
60028		-6.007079	-1.339441	7.739019	0.324117	0.189724	0.364161	-0.560791	0.130615	-0.480225	-5.136451	38.575522	-11.848224
60029		-6.064203	-0.797797	8.014809	0.314481	0.208837	0.370915	-0.557129	0.132568	-0.481934	-4.793500	38.713070	-11.591320
60030		-6.517855	-0.243291	8.173112	0.272389	0.257049	0.347113	-0.557861	0.132813	-0.482910	-4.485930	38.878481	-11.353060
60031		-6.466975	-0.040572	8.260339	0.207352	0.318613	0.309491	-0.558838	0.117920	-0.477539	-4.233540	39.073942	-11.144392
60032		-6.255971	0.206779	8.514607	0.112638	0.414144	0.276109	-0.554443	0.128418	-0.480713	-4.052502	39.324563	-10.963655
60033		-6.253071	-0.158913	8.469628	-0.031018	0.535707	0.275050	-0.558105	0.128906	-0.476074	-3.956674	39.641718	-10.788668
60034		-5.618780	-0.193103	8.956185	-0.048568	0.744111	0.212377	-0.548340	0.128906	-0.481445	-3.905668	40.077879	-10.669296
60035		-6.471690	1.391218	8.954779	-0.151637	1.121841	0.068218	-0.538330	0.122559	-0.472168	-3.995327	40.721774	-10.677181
60036		-6.490070	-0.231830	8.425337	-0.331451	1.283894	-0.048483	-0.525879	0.125488	-0.482178	-4.253529	41.455858	-10.784757
60037		-6.149673	0.209301	8.800103	-0.397112	1.564616	-0.135567	-0.531738	0.125977	-0.475342	-4.611015	42.343590	-10.982836
60038		-6.177765	-0.618486	8.779706	-0.402962	1.846279	-0.220922	-0.510010	0.133789	-0.474854	-5.039535	43.389308	-11.276920
60039		-5.520292	-0.827378	8.828876	-0.407312	2.176760	-0.277667	-0.499512	0.140137	-0.472412	-5.535277	44.616483	-11.657918
60040		-4.921225	-0.764349	8.929650	-0.352245	2.621276	-0.306086	-0.477295	0.133301	-0.464844	-6.065512	46.095051	-12.122848
60041		-3.225822	0.117267	9.584704	-0.342681	3.083427	-0.191093	-0.458496	0.145996	-0.466309	-6.585376	47.838849	-12.568566
60042		-3.881087	-0.809782	9.023744	-0.208629	3.732204	-0.083899	-0.443359	0.150146	-0.464111	-7.048694	49.958154	-13.027922
60043		-5.628848	0.967039	9.446877	-0.181446	4.442484	-0.133354	-0.417725	0.136963	-0.451416	-7.650818	52.472776	-13.669811
60044		-5.926718	0.998625	10.003896	-0.337314	5.056427	-0.221818	-0.387695	0.144531	-0.437988	-8.575525	55.324372	-14.577814
60045		-4.042036	-0.724793	10.055447	-0.255256	5.829785	-0.154100	-0.353760	0.147705	-0.422363	-9.669346	58.608388	-15.710351
60046		-7.998329	-0.309891	12.551372	-0.238760	6.707281	-0.173403	-0.312012	0.149902	-0.397705	-11.207476	62.370933	-17.322521
60047		-8.482867	-1.419738	13.072627	-0.448765	7.392488	-0.139933	-0.274170	0.159180	-0.372803	-13.524446	66.491702	-19.606915
60048		-11.600808	-1.758628	13.271937	-0.524226	7.837959	-0.104750	-0.236328	0.158936	-0.346191	-16.997046	70.810274	-23.012880
60049		-15.884691	-2.321538	10.989304	-0.654858	7.929029	0.107746	-0.197021	0.154053	-0.326660	-22.153420	75.115126	-28.011942
60050		-20.280458	-5.637502	11.740245	-0.733804	7.736517	0.440810	-0.173340	0.161377	-0.292236	-30.161842	79.213885	-35.791224
60051		-19.853642	-7.787984	13.567787	-0.715368	7.150653	0.810932	-0.137939	0.156982	-0.257080	-43.835065	82.789474	-49.214044
60052		-18.701980	-6.577130	16.227378	-1.124060	6.591231	1.071724	-0.113281	0.158447	-0.234375	-72.619160	85.376878	-77.494176
60053		-14.957985	-3.840424	19.295589	-2.110778	5.964016	1.224028	-0.095215	0.161621	-0.214355	-119.735609	85.734082	-123.527065
60054		-8.425651	-0.572482	17.802706	-3.643571	5.226245	0.819765	-0.073242	0.166992	-0.188965	-149.278749	83.919389	-151.089531
60055		2.606892	-6.220023	9.250556	-3.444469	4.222279	1.556609	-0.067383	0.165527	-0.164307	-165.496054	82.014056	-165.440225
60056		-39.625989	-13.177486	28.561500	-2.582454	1.185775	1.740174	-0.053955	0.167236	-0.174316	-174.562395	81.520557	-173.108416
60057		-7.484619	-9.975941	21.093432	-0.914620	-2.321581	1.835023	-0.068359	0.159912	-0.201660	177.490350	82.880007	179.397455
60058		6.600915	-5.859192	14.309731	-0.563251	-2.622610	1.923401	-0.076660	0.152100	-0.229736	165.567011	84.218326	167.721357
60059		7.225124	-3.608175	11.082441	-0.586494	-2.267840	2.183925	-0.089111	0.142578	-0.245117	147.659849	84.922864	150.070300
60060		-0.460619	-3.289948	11.717207	-0.734679	-2.134902	2.043278	-0.098145	0.138916	-0.274170	127.856292	85.051701	130.612217
60061		-3.261940	-4.511612	11.166079	-0.808578	-2.593837	1.535537	-0.115723	0.133545	-0.288086	107.554899	84.963027	110.697759
60062		-5.177707	-5.339488	11.593735	-0.629953	-3.341161	0.893534	-0.135986	0.133789	-0.317627	85.361669	84.669268	88.775996
60063		-4.002386	-5.139473	10.449362	-0.401086	-4.051457	0.291884	-0.152588	0.139648	-0.344482	63.189716	83.865089	66.724465
60064		-2.240091	-4.142592	9.040228	-0.223182	-4.406321	-0.201349	-0.177490	0.143799	-0.374756	45.248023	82.463020	48.784824
60065		-2.590836	-2.595106	8.118657	-0.227929	-4.524217	-0.576813	-0.204346	0.138184	-0.394287	32.411862	80.639999	35.940303
60066		-3.656983	-1.735499	7.669852	-0.391247	-4.579376	-0.906141	-0.241699	0.147217	-0.413574	22.983158	78.543498	26.582664
60067		-4.677304	-1.441088	7.276223	-0.567693	-4.662947	-1.216479	-0.276855	0.165527	-0.430176	15.748357	76.250049	19.502045
60068		-5.011895	-1.523455	7.015351	-0.649752	-4.750662	-1.492022	-0.304688	0.175537	-0.441650	9.969938	73.773206	13.905947
60069		-5.480919	-1.641871	7.108694	-0.626442	-4.784825	-1.698302	-0.341797	0.176758	-0.459717	5.393867	71.184618	9.482592
60070		-6.485029	-1.447810	7.484312	-0.531183	-4.829606	-1.872833	-0.380371	0.175537	-0.464600	1.691588	68.475589	5.862689
60071		-7.610743	-1.081653	8.035899	-0.442262	-4.899574	-2.047712	-0.404297	0.189941	-0.471680	-1.355476	65.670873	2.827951
60072		-8.360404	-0.958883	8.250234	-0.368121	-4.991847	-2.209558	-0.440674	0.192139	-0.485352	-3.920491	62.741560	0.213063
60073		-8.565902	-1.255236	8.369998	-0.253473	-5.028530	-2.324998	-0.469971	0.195068	-0.489014	-6.028795	59.755183	-2.027861
60074		-9.723103	-1.361541	8.995657	-0.123939	-5.023919	-2.380193	-0.499756	0.193848	-0.493164	-7.735008	56.719666	-3.951851
60075		-11.550181	-1.297516	9.706196	-0.032991	-5.070300	-2.418574	-0.538086	0.195068	-0.508301	-9.112043	53.642560	-5.608374
60076		-13.602989	-1.726190	10.030924	-0.008603	-5.157409	-2.463278	-0.560059	0.171875	-0.512207	-10.266403	50.477593	-7.067089
60077		-15.491653	-3.157176	9.435744	0.111542	-5.264438	-2.536688	-0.595459	0.177246	-0.521240	-11.193075	47.243129	-8.384987
60078		-16.226902	-3.760722	8.492876	0.462883	-5.296377	-2.656161	-0.623535	0.168701	-0.522705	-11.833258	43.951323	-9.654074
60079		-16.755343	-1.224983	8.201286	0.746796	-5.138538	-2.845859	-0.670410	0.161377	-0.524658	-12.296081	40.731066	-10.979583
60080		-18.513101	1.149483	7.753158	0.553520	-4.905999	-2.989344	-0.701904	0.156250	-0.530273	-12.842424	37.600773	-12.349257
60081		-19.976946	0.538207	6.527525	0.266315	-4.710022	-3.035551	-0.724365	0.146729	-0.526855	-13.474852	34.576737	-13.685490
60082		-20.050199	-1.616089	5.122384	0.381441	-4.533474	-2.862469	-0.758301	0.135010	-0.519531	-13.893600	31.652166	-14.856007
60083		-20.252339	-2.135521	4.265076	0.755739	-4.338676	-2.489474	-0.795410	0.123779	-0.515381	-13.918159	28.896127	-15.768158
60084		-21.000743	-1.213254	3.502965	1.023323	-4.126563	-2.063105	-0.826904	0.105957	-0.506592	-13.635821	26.307099	-16.429666
60085		-22.334613	-0.853771	2.042712	0.988572	-3.937514	-1.660475	-0.853516	0.091309	-0.503418	-13.255058	23.891528	-16.872924
60086		-21.772667	-1.510183	-0.411692	0.892376	-3.730092	-1.311138	-0.882568	0.078857	-0.487549	-12.846249	21.630666	-17.144406
60087		-19.982529	0.169885	-1.798011	0.854567	-3.243158	-1.188117	-0.909668	0.064453	-0.483887	-12.451483	19.668359	-17.420128
60088		-22.369508	2.582785	-3.313741	0.496814	-2.682839	-1.269639	-0.920410	0.055664	-0.478516	-12.294789	18.003906	-17.823967
60089		-22.699507	2.514369	-5.641718	-0.038380	-2.291979	-1.238301	-0.926758	0.039795	-0.459717	-12.442806	16.569051	-18.255900
60090		-21.030980	1.936961	-7.993479	-0.345340	-1.759039	-1.037379	-0.945313	0.041260	-0.459717	-12.741735	15.451208	-18.631689
60091		-20.363708	1.795944	-9.325340	-0.325251	-1.140601	-0.734845	-0.954102	0.037598	-0.452637	-12.997353	14.720178	-18.906766
60092		-19.737824	1.940587	-9.784092	-0.130530	-0.520456	-0.327058	-0.962891	0.042236	-0.456543	-13.099676	14.385144	-19.026584
60093		-19.259285	2.267764	-9.248596	0.104555	0.121327	0.159390	-0.957275	0.034424	-0.446533	-13.018768	14.473343	-18.951666
60094		-11.354552	4.266423	-6.062246	0.176257	1.337143	0.930144	-0.941650	0.040527	-0.448730	-12.822743	15.339346	-18.592074
60095		-2.713521	4.377940	-7.658378	-0.487850	3.078026	1.897906	-0.943848	0.051514	-0.454590	-12.904698	17.300630	-17.897315
60096		-11.733712	-6.388131	11.383754	0.574182	4.278203	2.024510	-0.921631	0.041504	-0.471680	-12.372271	19.947363	-17.269444
60097		-9.854995	-9.779274	16.711400	0.671198	2.056165	1.938765	-0.915527	0.047607	-0.471191	-11.668775	21.330858	-16.371409
60098		-0.612712	-13.247439	8.598575	0.678452	2.157221	1.286183	-0.904297	0.042480	-0.471924	-11.084463	22.689572	-15.855817
60099		-4.449516	-11.359399	6.091353	0.800613	3.645928	0.800041	-0.884521	0.042480	-0.479736	-10.598447	24.827338	-15.793994
60100		-19.172869	-4.843020	11.640943	0.865970	4.239961	-0.140832	-0.860840	0.035400	-0.481445	-10.355878	27.202981	-16.375060
60101		-20.158263	4.611548	13.196443	0.810921	3.264856	0.055364	-0.847168	0.033447	-0.489014	-10.049701	29.049527	-16.716161
60102		-12.221577	12.923344	12.520288	0.156134	2.662857	0.642931	-0.828125	0.028320	-0.497803	-9.902917	30.618796	-16.603828
60103		-10.977062	7.210216	11.794904	-0.548983	2.421764	0.331963	-0.812256	0.034424	-0.500000	-10.249342	32.018121	-16.669616
60104		-14.904929	-10.018969	11.921997	0.366245	1.929609	0.866326	-0.806396	0.035645	-0.496338	-9.847854	33.196713	-16.318827
60105		-10.424074	-4.460658	6.964625	0.200490	1.251626	0.518558	-0.793457	0.033203	-0.506104	-9.617206	33.953635	-16.113708
60106		-9.245589	2.403498	9.358780	0.002290	0.974084	0.317006	-0.799316	0.034912	-0.507324	-9.555611	34.538112	-16.010266
60107		-8.739539	2.346280	8.986735	-0.136093	0.581040	0.065562	-0.794434	0.032959	-0.514160	-9.644542	34.872515	-16.033607
60108		-7.124137	-4.306054	7.134707	-0.110050	0.395348	-0.054371	-0.794922	0.036621	-0.506592	-9.753635	35.094746	-16.118138
60109		-5.981668	-3.807562	7.448047	-0.035534	0.403789	-0.008253	-0.779297	0.035400	-0.506104	-9.803174	35.321823	-16.172797
60110		-7.114483	-0.421967	8.746071	-0.055737	0.393403	-0.049253	-0.788574	0.035400	-0.503662	-9.880559	35.543378	-16.254905
60111		-7.548883	-0.116899	8.606958	-0.088232	0.230171	-0.084610	-0.776611	0.031250	-0.500977	-9.979760	35.664806	-16.342476
60112		-5.826598	-2.286784	7.702869	-0.080496	0.212691	-0.108496	-0.785400	0.031494	-0.507324	-10.083270	35.778378	-16.444630
60113		-6.373706	-1.325667	8.046264	-0.066271	0.191839	-0.075733	-0.777100	0.037598	-0.505371	-10.164205	35.878838	-16.522016
60114		-6.273532	-0.392867	8.102552	-0.089968	0.149323	-0.096156	-0.782471	0.038086	-0.512695	-10.264197	35.957693	-16.608352
60115		-6.317158	-0.680949	8.089317	-0.152790	0.131283	-0.136162	-0.781494	0.030273	-0.514160	-10.415458	36.017568	-16.720761
60116		-6.223251	-1.256804	7.988802	-0.168391	0.124082	-0.141215	-0.778320	0.045898	-0.507813	-10.577337	36.077194	-16.835765
60117		-6.004840	-1.592196	7.820028	-0.159740	0.114834	-0.121313	-0.775391	0.033203	-0.509277	-10.725729	36.128884	-16.936235
60118		-5.719360	-1.816316	7.902888	-0.148894	0.139004	-0.097697	-0.779785	0.037354	-0.511230	-10.860217	36.201117	-17.023414
60119		-5.813452	-1.905335	7.983577	-0.122188	0.145245	-0.070299	-0.775635	0.041260	-0.518799	-10.968943	36.275078	-17.092858
60120		-6.114990	-2.083455	7.810218	-0.076162	0.117366	-0.036951	-0.779785	0.029785	-0.509521	-11.035430	36.341503	-17.135209
60121		-5.928127	-1.914946	7.757840	-0.036594	0.100080	-0.007232	-0.769531	0.039063	-0.510742	-11.065671	36.396859	-17.154784
60122		-5.894104	-1.912481	7.786662	0.002832	0.095742	0.028037	-0.774414	0.045898	-0.510742	-11.058406	36.458241	-17.148950
60123		-6.153178	-2.228806	7.752478	0.061381	0.090339	0.082747	-0.767822	0.036621	-0.515137	-10.994327	36.517986	-17.104258
60124		-6.063997	-2.100693	7.657581	0.123194	0.057594	0.149498	-0.772461	0.033936	-0.510986	-10.864343	36.571097	-17.008084
60125		-5.907839	-2.084749	7.668061	0.179569	0.033137	0.205264	-0.777100	0.036621	-0.508789	-10.676503	36.611602	-16.869484
60126		-5.983055	-2.099096	7.519193	0.236575	0.004933	0.250600	-0.769287	0.036133	-0.504395	-10.434766	36.645166	-16.695002
60127		-5.774311	-1.955671	7.497494	0.279102	0.000164	0.280557	-0.774658	0.028809	-0.508545	-10.155342	36.673867	-16.498745
60128		-5.712068	-1.696363	7.622941	0.301731	0.017773	0.296802	-0.781250	0.036865	-0.513184	-9.857394	36.717940	-16.292886
60129		-5.660978	-1.585611	7.618354	0.323928	0.048402	0.310716	-0.770996	0.032715	-0.517090	-9.542458	36.775160	-16.080601
60130		-5.826437	-1.360737	7.807487	0.359513	0.070425	0.345464	-0.772949	0.030029	-0.512207	-9.193644	36.851681	-15.845666
60131		-5.955182	-1.449728	7.824859	0.372632	0.074406	0.360430	-0.784668	0.028809	-0.512695	-8.830274	36.926031	-15.599885
60132		-6.258544	-0.973137	7.832511	0.352600	0.060516	0.351631	-0.773438	0.033447	-0.503174	-8.480706	36.995117	-15.357939
60133		-6.285674	-0.390394	7.961990	0.298632	0.066882	0.293527	-0.768066	0.025146	-0.506104	-8.186480	37.057314	-15.157354
60134		-5.973950	-0.895216	7.914602	0.289895	0.077340	0.261081	-0.777100	0.024170	-0.516113	-7.911380	37.126656	-14.980172
60135		-5.972400	-1.348178	7.754464	0.320124	0.089014	0.275993	-0.776855	0.021484	-0.507324	-7.612620	37.198460	-14.793096
60136		-6.250868	-0.961834	7.704482	0.323680	0.069681	0.270051	-0.774658	0.014648	-0.506104	-7.312790	37.262663	-14.607632
60137		-6.015477	-1.020283	7.727997	0.307147	0.075836	0.254602	-0.773193	0.018799	-0.501221	-7.028914	37.323903	-14.433412
60138		-6.030482	-0.858540	7.943030	0.280729	0.088270	0.235578	-0.775391	0.017090	-0.513184	-6.768638	37.394867	-14.273158
60139		-6.048645	-0.606717	7.981991	0.262625	0.108993	0.211243	-0.775879	0.008789	-0.498291	-6.529887	37.470836	-14.131764
60140		-5.990060	-0.458804	8.053753	0.224973	0.130770	0.177494	-0.778320	0.015137	-0.508301	-6.328013	37.561212	-14.015591
60141		-6.006290	-0.675288	7.987070	0.210161	0.152427	0.164894	-0.773682	0.017334	-0.502686	-6.140769	37.658221	-13.909906
60142		-5.891562	-0.697104	7.966443	0.204748	0.174685	0.160686	-0.771484	0.011230	-0.507813	-5.958921	37.771967	-13.808124
60143		-5.915792	-0.523952	8.070649	0.186284	0.212213	0.148003	-0.772461	0.012451	-0.498047	-5.794559	37.901536	-13.717980
60144		-6.051290	-0.378866	8.113677	0.156888	0.272866	0.131673	-0.770508	0.005859	-0.501221	-5.656287	38.069101	-13.643119
60145		-5.996086	-0.470039	8.213847	0.122669	0.318958	0.103343	-0.771973	0.007813	-0.503662	-5.551945	38.256699	-13.591776
60146		-5.880989	-0.602314	8.156009	0.110899	0.389204	0.092049	-0.768311	0.009521	-0.499756	-5.461775	38.488164	-13.552666
60147		-6.120162	-1.152804	8.031459	0.140061	0.435886	0.103931	-0.762939	0.005859	-0.507080	-5.351205	38.742350	-13.507822
60148		-6.246383	-0.792552	8.073987	0.167800	0.511678	0.119998	-0.764404	0.005615	-0.506836	-5.219630	39.044990	-13.455126
60149		-6.584785	-0.431851	8.077208	0.149028	0.592133	0.112011	-0.756348	0.002686	-0.500732	-5.105242	39.388601	-13.412950
60150		-6.459631	-0.492075	8.076866	0.127081	0.658025	0.101418	-0.756104	0.002930	-0.501953	-5.010050	39.773638	-13.381530
60151		-6.501373	-0.244141	8.367728	0.065984	0.741556	0.065661	-0.748779	0.005615	-0.503906	-4.970071	40.200128	-13.381782
60152		-6.495023	-0.015883	9.285657	-0.223906	0.919194	0.030961	-0.741699	0.013672	-0.506836	-5.120749	40.730624	-13.419965
60153		-5.334127	-0.412194	8.775742	-0.100190	1.313910	-0.038165	-0.734863	0.005127	-0.514404	-5.254835	41.478323	-13.540149
60154		-6.975045	-0.718084	8.454516	-0.340580	1.488318	-0.142087	-0.722168	0.003418	-0.506836	-5.592924	42.323681	-13.757830
60155		-5.874933	-0.140448	8.715890	-0.417918	1.813293	-0.218178	-0.712646	0.010742	-0.514404	-6.043657	43.344537	-14.072007
60156		-6.280827	-0.189555	8.547419	-0.579350	2.145898	-0.366368	-0.701660	0.006348	-0.519043	-6.706214	44.547120	-14.551868
60157		-5.255689	-0.471977	8.680135	-0.512319	2.510366	-0.489061	-0.678955	0.020752	-0.514648	-7.457465	45.939874	-15.199653
60158		-3.972671	0.485798	8.898427	-0.412197	2.984204	-0.417627	-0.661621	0.021729	-0.516602	-8.191495	47.604938	-15.886156
60159		-1.950978	-0.063012	8.717958	-0.333243	3.541962	-0.102850	-0.635742	0.020752	-0.519287	-8.786944	49.603322	-16.428396
60160		-6.413953	0.401807	9.380397	-0.265546	4.277840	-0.093799	-0.608643	0.022705	-0.511963	-9.479348	52.017908	-17.128485
60161		-4.840834	0.359128	9.079417	-0.343282	4.840525	-0.186618	-0.584961	0.033203	-0.509521	-10.462520	54.730893	-18.111043
60162		-4.992495	-0.974120	10.310102	-0.243827	5.713432	-0.123947	-0.545654	0.017334	-0.502441	-11.647224	57.932907	-19.369189
60163		-6.490134	-0.190040	11.832734	-0.421518	6.497097	-0.318431	-0.507813	0.033447	-0.500244	-13.586526	61.526062	-21.336597
60164		-8.203634	-0.958556	12.072004	-0.644215	7.275255	-0.404090	-0.456055	0.031006	-0.482422	-16.579914	65.493656	-24.269518
60165		-9.772785	-0.636080	12.269642	-0.701951	7.941681	-0.519766	-0.413818	0.033203	-0.465820	-21.246581	69.704725	-28.880877
60166		-14.099986	-2.169040	11.392707	-0.784756	8.266712	-0.521445	-0.365967	0.042480	-0.446777	-28.593467	73.883354	-36.138278
60167		-17.430676	-2.788637	11.164685	-0.791693	8.334628	-0.260078	-0.321045	0.040527	-0.426514	-40.240941	77.757394	-47.677156
60168		-20.864459	-6.777498	11.785581	-1.091637	7.831182	0.070995	-0.287842	0.044922	-0.389404	-58.775175	80.739319	-65.896801
60169		-17.562849	-7.778180	11.372552	-0.992145	7.209693	0.512333	-0.242676	0.050537	-0.363281	-85.379860	82.330601	-92.209530
60170		-16.437842	-6.023965	14.064719	-1.148187	6.558590	0.807943	-0.218750	0.045654	-0.339111	-114.062455	82.146935	-120.485351
60171		-15.344305	-2.682696	19.222681	-2.228528	5.859106	0.885566	-0.195313	0.055908	-0.306885	-135.549832	80.622794	-140.921896
60172		-11.499883	-0.649741	19.609485	-4.182018	5.067635	0.426386	-0.181641	0.068604	-0.292725	-148.659631	78.474707	-151.815772
60173		3.117036	-7.301021	6.034627	-3.679591	3.842599	1.283107	-0.173584	0.066650	-0.285156	-158.266713	76.829590	-159.492960
60174		-42.304783	-13.321026	27.821978	-2.391753	0.576064	1.936942	-0.169922	0.067383	-0.285889	-164.576744	76.875070	-164.568583
60175		-7.002655	-8.793428	19.040682	-0.536969	-3.092469	2.066323	-0.194824	0.044434	-0.291016	-168.303333	78.875857	-168.067287
60176		7.032400	-1.786108	13.084380	-0.540624	-3.258362	2.186553	-0.214355	0.041748	-0.314453	-173.919159	80.924767	-173.459274
60177		5.375974	-1.816211	8.909700	-1.025797	-2.569534	2.514605	-0.236816	0.032471	-0.328125	175.808526	82.425963	176.752062
60178		-3.236657	-4.828857	9.485785	-1.002453	-2.483536	2.397682	-0.267822	0.024170	-0.325439	162.003151	83.576545	163.420433
60179		-6.366429	-7.368130	9.408484	-0.540310	-3.077911	2.010256	-0.289795	0.007568	-0.335938	143.923898	84.636910	145.556301
60180		-6.338273	-7.325585	9.779243	0.236866	-3.924571	1.481612	-0.332031	0.007324	-0.352051	117.600532	85.495716	119.000662
60181		-4.456830	-4.933981	9.197274	0.688800	-4.502925	0.950430	-0.358398	-0.014893	-0.349121	84.217069	85.447882	85.120420
60182		-2.445543	-2.464192	7.832708	0.701292	-4.708175	0.486565	-0.387207	-0.012207	-0.352295	56.984561	84.254360	57.378090
60183		-2.063260	-0.962651	7.021096	0.379708	-4.671210	0.071140	-0.417725	-0.019775	-0.349365	40.168547	82.433316	40.230383
60184		-3.048817	-0.765207	6.566167	-0.081251	-4.571667	-0.274552	-0.450684	-0.024658	-0.345703	29.311108	80.352331	29.297610
60185		-4.244966	-1.609431	6.438746	-0.409526	-4.539800	-0.570712	-0.459717	-0.021484	-0.340332	21.625221	78.140121	21.712627
60186		-5.459707	-2.655787	6.632391	-0.474997	-4.637327	-0.843239	-0.474121	-0.015625	-0.326660	15.669249	75.761668	15.878689
60187		-6.510006	-2.960996	6.962906	-0.355032	-4.818550	-1.070587	-0.499023	-0.022217	-0.330566	11.017437	73.215093	11.261083
60188		-6.944060	-2.354515	7.330461	-0.226167	-5.015716	-1.261396	-0.497803	-0.007813	-0.309082	7.292921	70.477073	7.478286
60189		-7.351542	-1.633254	7.690599	-0.208561	-5.154925	-1.445710	-0.495605	-0.026611	-0.312256	4.245026	67.620796	4.341179
60190		-7.849306	-1.273573	7.931633	-0.268259	-5.247411	-1.641600	-0.501221	-0.018066	-0.313721	1.606500	64.649617	1.624424
60191		-8.217615	-1.174523	8.155554	-0.347469	-5.290473	-1.822385	-0.500244	-0.020752	-0.325928	-0.701114	61.626159	-0.740808
60192		-8.690214	-1.019733	8.509834	-0.410896	-5.256370	-1.923231	-0.502441	-0.019531	-0.336182	-2.705024	58.565858	-2.780765
60193		-9.947269	-1.458682	8.883449	-0.499493	-5.188172	-1.970161	-0.501221	-0.012939	-0.347900	-4.442595	55.528326	-4.512465
60194		-12.248730	-2.267664	9.129194	-0.510817	-5.130629	-2.017985	-0.509033	-0.019531	-0.363525	-5.958977	52.478364	-6.025208
60195		-14.899360	-3.416918	8.858227	-0.401392	-5.117790	-2.141781	-0.507568	-0.022705	-0.382568	-7.274040	49.423950	-7.424819
60196		-16.294352	-4.765488	8.015074	-0.036986	-5.102993	-2.351078	-0.507324	-0.010986	-0.397217	-8.335391	46.326675	-8.827698
60197		-16.727411	-3.857805	7.408038	0.509479	-4.927837	-2.635753	-0.512207	-0.016602	-0.424072	-9.100060	43.306646	-10.329586
60198		-17.882357	0.420008	7.462744	0.686130	-4.627138	-2.987312	-0.511230	-0.010498	-0.447754	-9.830714	40.393027	-12.014644
60199		-20.641404	2.119020	7.350138	0.247368	-4.401979	-3.291469	-0.522705	-0.010498	-0.485352	-10.823088	37.573266	-13.820541
60200		-22.560177	0.242450	6.406320	-0.067271	-4.387043	-3.464413	-0.534180	0.012207	-0.510254	-11.920883	34.701815	-15.618741
60201		-23.152059	-1.773614	5.019489	0.110504	-4.485796	-3.377250	-0.561035	-0.000244	-0.537842	-12.735193	31.777399	-17.223524
60202		-23.343756	-1.392916	3.364890	0.549051	-4.547921	-3.052507	-0.581299	0.009033	-0.564453	-13.075650	28.833287	-18.525542
60203		-23.029220	0.667763	1.359426	0.742745	-4.433962	-2.620979	-0.613525	0.000977	-0.584473	-13.108523	26.018457	-19.525790
60204		-22.414058	0.309278	-1.271239	0.691601	-4.146282	-2.083972	-0.644043	-0.003174	-0.604736	-12.998847	23.423770	-20.216776
60205		-20.316746	0.792263	-2.729928	0.735031	-3.617886	-1.600585	-0.681152	-0.007568	-0.620117	-12.752935	21.198477	-20.684551
60206		-23.463956	3.164156	-4.129766	0.605621	-3.003126	-1.370461	-0.705566	-0.006348	-0.622559	-12.547579	19.339799	-21.100584
60207		-24.221955	2.977515	-7.256859	0.256224	-2.716830	-1.039034	-0.736816	-0.010498	-0.627441	-12.480348	17.691007	-21.358520
60208		-20.434120	2.638199	-10.429879	0.064718	-2.155207	-0.536316	-0.755127	-0.012695	-0.642090	-12.451070	16.414625	-21.394353
60209		-18.440735	3.160797	-11.703225	-0.037861	-1.257404	0.013676	-0.762207	-0.007568	-0.639160	-12.423748	15.712633	-21.225653
60210		-18.955112	3.484314	-11.506427	-0.280404	-0.292130	0.537708	-0.771240	-0.008301	-0.654541	-12.487390	15.614441	-20.876398
60211		-15.822988	1.517476	-10.553643	-0.141881	1.080331	1.052135	-0.765137	-0.002930	-0.655273	-12.436220	16.348783	-20.403779
60212		-9.983039	2.401376	-16.343231	-0.269457	2.817782	1.969268	-0.751465	0.008789	-0.658691	-12.353334	18.169466	-19.613277
60213		-3.023928	-2.769307	4.979261	0.309255	4.403140	2.059889	-0.709229	0.003418	-0.658691	-11.953158	20.884095	-18.953428
60214		-17.264369	-8.685761	17.966921	0.594487	3.284078	1.467986	-0.687256	0.007080	-0.672363	-11.432402	22.899887	-18.477326
60215		-3.142527	-15.015017	12.053227	0.636700	2.162458	0.793104	-0.673584	0.004150	-0.672363	-10.976193	24.203434	-18.254463
60216		-0.777474	-10.405204	5.075132	0.826337	3.591524	0.862500	-0.642334	-0.003662	-0.667725	-10.453115	26.320379	-18.141656
60217		-18.095729	-4.015013	10.086040	0.900465	4.740285	0.385433	-0.604004	-0.013916	-0.668701	-10.075002	29.032126	-18.443518
60218		-24.960206	2.817639	13.873476	0.888078	3.539085	0.420193	-0.577881	-0.025635	-0.666016	-9.629766	31.074949	-18.571950
60219		-14.487826	12.363201	12.420038	0.374958	2.458887	1.007765	-0.560547	-0.014404	-0.666260	-9.202599	32.559167	-18.173688
60220		-15.234156	3.131876	14.993405	0.358156	2.145539	1.118851	-0.537354	-0.016846	-0.661621	-8.706491	33.878675	-17.646309
60221		-13.335170	-4.645106	8.214586	0.428143	0.987234	0.670985	-0.537109	-0.024902	-0.669678	-8.257715	34.494741	-17.288362
60222		-6.285409	-2.043859	7.695172	0.270715	0.883817	0.462677	-0.538574	-0.037598	-0.654785	-7.968297	35.039670	-17.056560
60223		-12.679035	4.385761	9.581923	0.020264	0.501550	0.225866	-0.527588	-0.030518	-0.661377	-7.892426	35.342053	-16.949106
