// General information: 
//  MT Manager version: 2022.2.0 
//  XDA version: 2022.2.0 build 7381 rev 124627 built on 2023-07-19
// Device information: 
//  DeviceId: 00B4C3A0
//  ProductCode: MTW2-3A7G6
//  Firmware Version: 4.6.0
//  Hardware Version: 2.0.0
// Device settings: 
//  Filter Profile: human(46.1)
//  Option Flags: Orientation Smoother Disabled, Position/Velocity Smoother Disabled, Continuous Zero Rotation Update Disabled, AHS Disabled, ICC Disabled
// Coordinate system: ENU
PacketCounter	SampleTimeFine	Acc_X	Acc_Y	Acc_Z	Gyr_X	Gyr_Y	Gyr_Z	Mag_X	Mag_Y	Mag_Z	Roll	Pitch	Yaw
47521		9.679080	0.320455	0.005237	-0.001422	0.015430	0.002625	-0.419434	-0.145996	0.631104	83.394218	-88.544696	-177.607213
47522		9.679080	0.320452	0.006480	-0.002664	0.010116	-0.002573	-0.414551	-0.149170	0.644775	83.230270	-88.542195	-177.441837
47523		9.657673	0.316239	-0.003481	0.000694	0.010719	0.003440	-0.426025	-0.155273	0.642822	83.049269	-88.543232	-177.257558
47524		9.669623	0.339776	0.019499	-0.001469	0.010055	0.002062	-0.419678	-0.148438	0.640381	82.882542	-88.543322	-177.085594
47525		9.650739	0.301939	0.017030	0.003756	0.004046	0.000716	-0.425781	-0.149658	0.638916	82.859834	-88.543263	-177.057905
47526		9.684086	0.329793	0.050261	0.005895	0.002023	0.001813	-0.421875	-0.154053	0.634521	82.872631	-88.543824	-177.061324
47527		9.645717	0.368657	0.001678	0.001666	-0.001042	0.002867	-0.424072	-0.156738	0.642578	82.956580	-88.545347	-177.141522
47528		9.648239	0.334941	0.009737	-0.002587	0.005692	0.000952	-0.426270	-0.154785	0.637207	82.884382	-88.545087	-177.068339
47529		9.645732	0.368250	0.002480	-0.004628	0.005978	0.003663	-0.418945	-0.146973	0.634521	82.805266	-88.546564	-176.989027
47530		9.648251	0.334574	0.011039	-0.005795	0.008726	-0.000694	-0.429199	-0.151123	0.646240	82.666540	-88.545192	-176.849961
47531		9.662699	0.324782	0.041837	-0.005174	0.011383	0.001904	-0.417480	-0.153809	0.643555	82.471085	-88.545260	-176.654587
47532		9.633809	0.344177	-0.016666	-0.005769	0.011413	-0.000415	-0.428467	-0.146729	0.641846	82.276984	-88.543790	-176.457504
47533		9.686077	0.332945	-0.004517	-0.006838	0.012425	-0.000965	-0.425537	-0.147949	0.644531	82.066420	-88.542113	-176.247968
47534		9.700517	0.323115	0.026749	-0.007758	0.017073	0.002852	-0.420410	-0.145752	0.635010	81.730667	-88.542071	-175.908476
47535		9.698015	0.356365	0.020538	-0.004051	0.015744	0.003009	-0.430176	-0.152832	0.637939	81.435473	-88.542314	-175.612686
47536		9.716966	0.316913	-0.000135	-0.009970	0.011035	0.000911	-0.423584	-0.155518	0.638916	81.237612	-88.541587	-175.416041
47537		9.700527	0.322466	0.030632	-0.006763	0.008000	0.002559	-0.420654	-0.152100	0.638916	81.114667	-88.542202	-175.294110
47538		9.700525	0.322454	0.031304	-0.007979	0.005375	-0.002358	-0.419678	-0.156738	0.633057	81.060685	-88.540035	-175.241330
47539		9.648263	0.333759	0.020728	-0.009450	0.002943	0.002389	-0.412354	-0.145264	0.635742	81.049199	-88.540999	-175.232434
47540		9.638793	0.353225	0.032128	-0.008951	0.004649	0.000900	-0.420410	-0.153076	0.635986	81.002653	-88.540753	-175.188062
47541		9.638797	0.353037	0.032785	-0.009397	0.008316	0.002948	-0.426270	-0.149414	0.636719	80.869764	-88.541547	-175.057694
47542		9.641305	0.319150	0.041521	-0.010938	0.010307	0.004166	-0.417725	-0.153564	0.635010	80.678495	-88.542642	-174.869023
47543		9.650798	0.298869	0.031489	-0.008679	0.009232	0.009352	-0.420410	-0.150879	0.642334	80.501505	-88.546950	-174.694127
47544		9.665221	0.288471	0.062371	-0.005638	0.012360	0.003665	-0.421875	-0.150146	0.634033	80.274517	-88.547504	-174.466112
47545		9.672209	0.302031	0.044820	0.000728	0.013401	0.003716	-0.424561	-0.153076	0.647705	80.030207	-88.548188	-174.218484
47546		9.672221	0.301502	0.045859	-0.005569	0.007934	0.007191	-0.417725	-0.158203	0.636963	79.884658	-88.551147	-174.070746
47547		9.669740	0.334788	0.038517	0.003136	0.001390	-0.001877	-0.422852	-0.142090	0.634277	79.931111	-88.549855	-174.112594
47548		9.691125	0.338953	0.049829	-0.001514	0.004678	0.001497	-0.420654	-0.157227	0.635010	79.882624	-88.549935	-174.061112
47549		9.696092	0.271906	0.065965	-0.001608	0.006417	-0.002310	-0.414551	-0.141602	0.641113	79.816167	-88.547893	-173.992733
47550		9.679202	0.315456	0.029152	-0.002648	0.010115	-0.002582	-0.410645	-0.149902	0.634766	79.666916	-88.545110	-173.839710
47551		9.693576	0.306032	0.060098	-0.003215	0.012833	-0.004622	-0.423096	-0.152832	0.637451	79.467482	-88.541091	-173.639230
47552		9.731420	0.304812	0.042267	-0.001607	0.006416	-0.002311	-0.426514	-0.147461	0.641113	79.400470	-88.538803	-173.569678
47553		9.712445	0.344282	0.064590	-0.000594	0.000032	-0.002319	-0.419678	-0.146973	0.640869	79.476630	-88.537414	-173.643380
47554		9.721921	0.324818	0.053892	-0.005811	0.006038	-0.000985	-0.418701	-0.149658	0.629395	79.406547	-88.535975	-173.569152
47555		9.691045	0.340550	0.054263	-0.007526	0.001709	-0.004413	-0.419189	-0.150146	0.629639	79.450246	-88.533230	-173.614356
47556		9.684037	0.326898	0.073325	-0.005837	0.003352	-0.001265	-0.411377	-0.150635	0.640381	79.438019	-88.531878	-173.604389
47557		9.674539	0.346701	0.084996	-0.002647	0.010114	-0.002583	-0.421875	-0.152832	0.651611	79.292454	-88.529276	-173.457469
47558		9.677005	0.313508	0.094013	-0.000550	0.015202	-0.004732	-0.429443	-0.148926	0.644775	79.051100	-88.524653	-173.208936
47559		9.667585	0.256501	0.081266	-0.005226	0.015803	-0.001640	-0.416504	-0.155518	0.646240	78.777491	-88.521925	-172.935407
47560		9.651074	0.262248	0.112466	-0.004659	0.013084	0.000399	-0.421875	-0.158203	0.638428	78.553354	-88.520379	-172.706968
47561		9.695935	0.274829	0.076128	0.000493	0.011504	-0.004462	-0.426270	-0.144531	0.634277	78.390537	-88.516504	-172.540990
47562		9.646060	0.329687	0.099359	-0.003564	0.014758	0.001227	-0.418213	-0.147705	0.635010	78.121858	-88.515203	-172.271072
47563		9.631687	0.339490	0.070811	-0.001548	0.011788	-0.001758	-0.421875	-0.152344	0.635498	77.941005	-88.512778	-172.088221
47564		9.669557	0.338001	0.053420	-0.004629	0.015769	0.000673	-0.422852	-0.152588	0.638428	77.656925	-88.510991	-171.803264
47565		9.622171	0.358878	0.084856	-0.004481	0.019401	0.005037	-0.421387	-0.151367	0.636230	77.279326	-88.511373	-171.425282
47566		9.631673	0.338819	0.075733	-0.009276	0.019054	0.004038	-0.426270	-0.145020	0.639160	76.906101	-88.510932	-171.053787
47567		9.657699	0.313309	0.036909	-0.009363	0.020793	0.000227	-0.421387	-0.150146	0.630859	76.520454	-88.508319	-170.670552
47568		9.662524	0.322863	0.079807	-0.010812	0.021043	0.005248	-0.423096	-0.157959	0.634766	76.095556	-88.508197	-170.247208
47569		9.662523	0.322440	0.081627	-0.006664	0.016050	0.003370	-0.425293	-0.148682	0.635010	75.797654	-88.507858	-169.950200
47570		9.693387	0.306622	0.083143	0.000738	0.013394	0.003707	-0.424561	-0.147461	0.637451	75.551654	-88.507781	-169.701717
47571		9.695725	0.349670	0.117436	-0.000357	0.011720	0.002876	-0.419678	-0.153809	0.642334	75.352453	-88.507724	-169.499829
47572		9.705234	0.329704	0.107496	-0.000860	0.010013	0.004365	-0.418213	-0.156250	0.639160	75.178234	-88.508482	-169.320839
47573		9.674377	0.344638	0.108575	-0.003939	0.013993	0.006791	-0.423828	-0.150635	0.634521	74.906186	-88.510218	-169.048133
47574		9.662541	0.320234	0.087926	-0.007638	0.015321	0.006619	-0.418213	-0.150635	0.633301	74.601288	-88.511347	-168.744746
47575		9.665004	0.286102	0.097171	-0.009797	0.014659	0.005234	-0.423340	-0.150879	0.637695	74.319853	-88.512050	-168.466007
47576		9.643659	0.281272	0.087700	-0.017077	0.018259	0.008975	-0.425049	-0.151123	0.640869	73.931341	-88.513955	-168.083684
47577		9.648276	0.328006	0.063107	-0.015000	0.020661	0.006547	-0.434814	-0.152588	0.640869	73.510749	-88.514323	-167.668724
47578		9.660118	0.351112	0.087127	-0.015028	0.017975	0.006267	-0.426758	-0.142090	0.640625	73.140550	-88.514646	-167.302037
47579		9.657806	0.307232	0.055376	-0.009852	0.009287	0.004673	-0.414551	-0.152832	0.628662	72.975048	-88.515761	-167.139302
47580		9.683794	0.358313	0.040971	-0.010325	0.010264	0.006438	-0.429443	-0.149414	0.636230	72.773408	-88.517439	-166.938855
47581		9.676733	0.343848	0.060750	-0.010914	0.010298	0.004117	-0.422363	-0.149902	0.634521	72.589025	-88.518050	-166.757842
47582		9.683820	0.357349	0.043010	-0.012483	0.009602	0.005050	-0.423340	-0.147705	0.632080	72.405066	-88.519026	-166.577042
47583		9.698094	0.347072	0.073710	-0.017306	0.006573	0.003766	-0.426758	-0.152832	0.643311	72.297722	-88.520065	-166.476756
47584		9.662511	0.352200	0.033505	-0.022456	0.008148	0.008608	-0.429199	-0.146240	0.637451	72.116381	-88.523208	-166.303620
47585		9.693392	0.335782	0.034605	-0.026623	0.010452	0.010195	-0.421875	-0.156250	0.643555	71.876757	-88.527047	-166.076350
47586		9.641300	0.308748	0.091459	-0.024757	0.003860	0.002853	-0.424072	-0.147217	0.632324	71.824824	-88.527787	-166.033275
47587		9.674506	0.297101	0.032352	-0.027893	0.002467	0.004715	-0.417969	-0.147705	0.636230	71.790805	-88.530053	-166.012407
47588		9.653179	0.292609	0.021551	-0.023689	0.002846	0.003401	-0.426758	-0.150391	0.636230	71.757217	-88.531304	-165.987746
47589		9.674527	0.296369	0.032831	-0.020024	-0.001167	0.003298	-0.427002	-0.153320	0.636230	71.814744	-88.533448	-166.053944
47590		9.667444	0.282099	0.051765	-0.015757	0.004581	0.002543	-0.423828	-0.150391	0.632324	71.751479	-88.533881	-165.996120
47591		9.724315	0.317839	0.037048	-0.014104	0.003532	0.005417	-0.425781	-0.147217	0.639893	71.697569	-88.536336	-165.947451
47592		9.679284	0.305214	0.074928	-0.014269	0.007023	-0.002197	-0.430420	-0.151611	0.640869	71.618009	-88.533778	-165.871188
47593		9.669777	0.324651	0.086353	-0.020493	-0.000194	0.005055	-0.427490	-0.146729	0.634521	71.642050	-88.536707	-165.904158
47594		9.648447	0.320331	0.075226	-0.016407	-0.000751	-0.000340	-0.425293	-0.146729	0.634521	71.711056	-88.536555	-165.977312
47595		9.648451	0.320221	0.075222	-0.018448	-0.000473	0.002355	-0.427734	-0.156006	0.633545	71.761469	-88.538064	-166.035491
47596		9.655551	0.334057	0.056416	-0.014281	-0.002777	0.000767	-0.423340	-0.140625	0.640869	71.867817	-88.538848	-166.147040
47597		9.665068	0.314241	0.045217	-0.012596	-0.001144	0.003921	-0.418945	-0.147949	0.630371	71.925239	-88.541324	-166.208876
47598		9.707760	0.321905	0.067480	-0.013069	-0.000169	0.005685	-0.423828	-0.154541	0.638672	71.947001	-88.544387	-166.231489
47599		9.674605	0.293655	0.034139	-0.010438	-0.000485	0.005309	-0.424805	-0.152588	0.634033	71.982194	-88.547501	-166.269851
47600		9.665120	0.312629	0.045273	-0.004555	0.001529	0.007157	-0.425293	-0.150879	0.636475	71.961098	-88.550973	-166.248308
47601		9.674633	0.292724	0.034232	-0.003725	-0.001356	-0.000459	-0.425049	-0.150879	0.635986	72.059475	-88.551097	-166.346026
47602		9.681740	0.306432	0.015609	-0.005617	0.002542	0.006602	-0.425537	-0.149902	0.635498	72.018839	-88.554114	-166.304530
47603		9.615376	0.289410	0.041937	-0.004671	0.000593	0.003071	-0.422607	-0.147949	0.632568	72.050107	-88.555816	-166.335659
47604		9.665161	0.311281	0.045637	-0.003103	0.001290	0.002141	-0.428955	-0.153809	0.636719	72.068813	-88.556638	-166.352165
47605		9.669906	0.320627	0.086902	-0.004603	0.005961	0.003632	-0.422119	-0.152588	0.638184	71.980063	-88.557697	-166.263199
47606		9.703119	0.309119	0.028112	-0.004570	0.008645	0.003912	-0.427734	-0.147461	0.631592	71.827405	-88.558136	-166.109579
47607		9.693622	0.328470	0.039953	-0.006253	0.007013	0.000757	-0.417725	-0.151367	0.632813	71.735219	-88.557433	-166.018122
47608		9.703129	0.308653	0.029754	-0.010889	0.010289	0.004107	-0.424561	-0.147217	0.637207	71.541348	-88.557693	-165.827328
47609		9.698351	0.375392	0.015629	-0.009793	0.011960	0.004941	-0.421631	-0.148926	0.639648	71.310215	-88.558345	-165.598909
47610		9.695974	0.370703	0.075789	-0.001568	-0.000697	0.000929	-0.425781	-0.147705	0.629150	71.384674	-88.558888	-165.668200
47611		9.655704	0.366650	-0.006214	-0.001959	-0.001473	0.006498	-0.425049	-0.141113	0.633789	71.436618	-88.562837	-165.718457
47612		9.646227	0.347682	0.072079	-0.005142	0.001566	0.004834	-0.414551	-0.156006	0.636719	71.425805	-88.565108	-165.705822
47613		9.655743	0.327603	0.061327	-0.007737	0.004566	0.005488	-0.428955	-0.147949	0.637939	71.350930	-88.567405	-165.632532
47614		9.634421	0.323084	0.050537	-0.006203	0.002579	0.004278	-0.422119	-0.157959	0.633057	71.328890	-88.569119	-165.610058
47615		9.669987	0.316787	0.091904	-0.008325	0.004606	0.003168	-0.427246	-0.157227	0.639893	71.269582	-88.570146	-165.552676
47616		9.648656	0.312532	0.081038	-0.007887	0.000948	0.001122	-0.418457	-0.143555	0.632568	71.302993	-88.570389	-165.589331
47617		9.686607	0.310915	0.062744	-0.008913	0.004645	0.000847	-0.419434	-0.147949	0.637939	71.259546	-88.570150	-165.548153
47618		9.655775	0.326353	0.062915	-0.014239	-0.000091	0.001032	-0.433838	-0.145996	0.632568	71.315299	-88.570651	-165.606206
47619		9.677109	0.330357	0.074308	-0.011068	0.003987	-0.000545	-0.420898	-0.148193	0.631592	71.295158	-88.569777	-165.589577
47620		9.677103	0.330442	0.074651	-0.012163	0.002317	-0.001382	-0.426270	-0.152832	0.643066	71.308617	-88.568503	-165.606099
47621		9.691331	0.358679	0.037678	-0.014284	0.004343	-0.002493	-0.429688	-0.155762	0.637451	71.293255	-88.566507	-165.596094
47622		9.688919	0.354278	0.097833	-0.015227	0.006288	0.001036	-0.419434	-0.150146	0.636963	71.206131	-88.565752	-165.513521
47623		9.722162	0.343089	0.038810	-0.014201	0.002591	0.001308	-0.423828	-0.152588	0.637207	71.200889	-88.566140	-165.513591
47624		9.722161	0.343088	0.039094	-0.012160	0.002316	-0.001385	-0.428711	-0.150879	0.635010	71.223002	-88.564830	-165.538385
47625		9.705534	0.348728	0.068932	-0.011134	-0.001381	-0.001113	-0.429688	-0.148926	0.635010	71.323336	-88.564635	-165.642305
47626		9.677078	0.330732	0.076586	-0.011064	0.003986	-0.000549	-0.421631	-0.159912	0.632813	71.295767	-88.563479	-165.617073
47627		9.662865	0.340742	0.047077	-0.008943	0.001959	0.000561	-0.423828	-0.147217	0.632324	71.312711	-88.563578	-165.636321
47628		9.655746	0.326579	0.066052	-0.010475	0.003945	0.001770	-0.429199	-0.155273	0.641846	71.274440	-88.563650	-165.602374
47629		9.636797	0.288804	0.063007	-0.008872	0.007326	0.001125	-0.428711	-0.148682	0.638916	71.171186	-88.563066	-165.501347
47630		9.658122	0.292791	0.075067	-0.012052	0.010366	-0.000542	-0.422607	-0.156982	0.636230	71.009087	-88.560713	-165.340834
47631		9.641481	0.298292	0.105864	-0.007269	0.010707	0.000479	-0.420898	-0.153809	0.639648	70.839096	-88.559132	-165.172129
47632		9.643911	0.302682	0.047386	-0.007740	0.011679	0.002243	-0.429199	-0.145996	0.627686	70.636910	-88.557980	-164.971233
47633		9.672365	0.320665	0.041058	-0.005700	0.011405	-0.000449	-0.423828	-0.146973	0.643311	70.460655	-88.555737	-164.795363
47634		9.672364	0.320549	0.042145	-0.006679	0.010665	0.002797	-0.425781	-0.152832	0.638916	70.270653	-88.555127	-164.603258
47635		9.674673	0.363491	0.076344	-0.002556	0.005682	0.000935	-0.426270	-0.143066	0.632813	70.208629	-88.554715	-164.539853
47636		9.689014	0.314759	0.013782	-0.005182	0.005997	0.001305	-0.425049	-0.144775	0.640381	70.131989	-88.554176	-164.460797
47637		9.700830	0.338213	0.036545	-0.005218	0.003313	0.001023	-0.424805	-0.160889	0.642334	70.118387	-88.554270	-164.447355
47638		9.693695	0.324050	0.055414	-0.007880	0.000945	0.001110	-0.416260	-0.149414	0.633545	70.154398	-88.554567	-164.482430
47639		9.679519	0.333854	0.025405	-0.008932	-0.005162	0.003791	-0.421387	-0.154541	0.638672	70.298666	-88.557796	-164.629037
47640		9.684205	0.343130	0.066038	-0.007915	-0.001738	0.000827	-0.426514	-0.148193	0.638184	70.396888	-88.558458	-164.728017
47641		9.684214	0.342863	0.066083	-0.015172	0.001848	0.004539	-0.425293	-0.148193	0.643799	70.382124	-88.560733	-164.719117
47642		9.677085	0.328425	0.085140	-0.012000	0.005928	0.002970	-0.426758	-0.148193	0.637451	70.292803	-88.561112	-164.629416
47643		9.651090	0.314762	0.033179	-0.011635	-0.003093	0.000355	-0.426514	-0.146484	0.632324	70.418259	-88.562081	-164.758755
47644		9.655770	0.324133	0.074088	-0.013130	0.001574	0.001846	-0.433838	-0.149902	0.640625	70.426445	-88.562690	-164.769445
47645		9.667646	0.270814	0.070834	-0.011526	0.004956	0.001204	-0.432617	-0.154541	0.636963	70.372445	-88.562567	-164.719207
47646		9.707924	0.312389	0.086075	-0.013715	0.001617	-0.000476	-0.428467	-0.157715	0.635986	70.394265	-88.561866	-164.744363
47647		9.703253	0.302801	0.045293	-0.014695	0.000875	0.002769	-0.422363	-0.149902	0.633057	70.414258	-88.563373	-164.769958
47648		9.662919	0.337790	0.056452	-0.017434	0.000262	-0.000949	-0.428467	-0.151367	0.643555	70.471764	-88.562659	-164.835247
47649		9.658245	0.328358	0.015574	-0.021624	-0.000123	0.000342	-0.426270	-0.159668	0.638184	70.527860	-88.563045	-164.900928
47650		9.658248	0.328268	0.015531	-0.019506	-0.002151	0.001452	-0.417969	-0.156738	0.633057	70.619914	-88.564076	-164.999953
47651		9.684249	0.341608	0.067445	-0.017974	-0.004135	0.000242	-0.426270	-0.152344	0.640381	70.765572	-88.565162	-165.153131
47652		9.665239	0.380631	0.089593	-0.021619	-0.000124	0.000337	-0.429932	-0.156738	0.642334	70.823561	-88.565206	-165.220444
47653		9.686724	0.346016	0.007715	-0.021539	-0.001883	0.004135	-0.425049	-0.154297	0.635254	70.889563	-88.567965	-165.295984
47654		9.684270	0.341059	0.067228	-0.023182	-0.000824	0.001256	-0.426758	-0.156982	0.631592	70.951521	-88.568625	-165.367739
47655		9.677137	0.326653	0.085995	-0.027804	0.002441	0.004594	-0.427246	-0.152100	0.635986	70.917039	-88.570821	-165.346355
47656		9.677146	0.326315	0.086306	-0.025764	0.002171	0.001903	-0.430176	-0.147949	0.632568	70.905344	-88.571275	-165.347423
47657		9.634502	0.318193	0.064238	-0.026819	0.003184	0.001344	-0.431396	-0.156494	0.642090	70.879634	-88.571571	-165.334249
47658		9.689013	0.272851	0.083386	-0.021534	0.005239	0.000895	-0.419678	-0.155518	0.642822	70.809682	-88.570931	-165.272118
47659		9.686653	0.306400	0.076410	-0.021569	0.002556	0.000606	-0.427002	-0.148926	0.635742	70.806175	-88.570946	-165.278145
47660		9.667685	0.268837	0.073031	-0.019494	0.004970	-0.001795	-0.425293	-0.149658	0.632813	70.771539	-88.568908	-165.249141
47661		9.710320	0.276839	0.096150	-0.017305	0.008307	-0.000110	-0.423340	-0.158203	0.644775	70.651457	-88.567447	-165.136112
47662		9.677125	0.326084	0.089480	-0.015775	0.006325	-0.001321	-0.433838	-0.154785	0.634033	70.585488	-88.565389	-165.074489
47663		9.686624	0.306651	0.079036	-0.014680	0.007992	-0.000478	-0.422607	-0.150635	0.638184	70.476954	-88.563781	-164.971508
47664		9.691278	0.315893	0.120875	-0.007756	0.008987	0.001958	-0.426025	-0.144531	0.644287	70.328464	-88.562981	-164.823326
47665		9.672450	0.316668	0.050885	-0.011000	0.006665	-0.000288	-0.422363	-0.157227	0.645264	70.249545	-88.561721	-164.747859
47666		9.677101	0.325937	0.092577	-0.008849	0.007318	0.001112	-0.420654	-0.151367	0.637695	70.151419	-88.560812	-164.646227
47667		9.634467	0.317870	0.070831	-0.010413	0.006617	0.002032	-0.427490	-0.148926	0.632568	70.056101	-88.560805	-164.554020
47668		9.639112	0.327064	0.112551	-0.007283	0.008019	0.000191	-0.427979	-0.150391	0.637451	69.945919	-88.559244	-164.443191
47669		9.634462	0.317666	0.072388	-0.005132	0.008673	0.001591	-0.425293	-0.150146	0.631348	69.813239	-88.558585	-164.310583
47670		9.655777	0.321396	0.084460	-0.009318	0.008284	0.002874	-0.421875	-0.146729	0.631592	69.672888	-88.558395	-164.171168
47671		9.669926	0.310980	0.115167	-0.008809	0.010000	0.001397	-0.421387	-0.150391	0.630615	69.511565	-88.557350	-164.012015
47672		9.686599	0.305475	0.086227	-0.007789	0.006303	0.001665	-0.426758	-0.152100	0.641113	69.426737	-88.556908	-163.927865
47673		9.658123	0.287182	0.094130	-0.006733	0.005289	0.002221	-0.422607	-0.148438	0.635254	69.360538	-88.557242	-163.862676
47674		9.693765	0.319385	0.068691	-0.005789	0.003356	-0.001308	-0.416260	-0.150635	0.643311	69.364973	-88.555787	-163.864317
47675		9.655770	0.320698	0.087832	-0.002980	0.009325	0.002992	-0.421387	-0.152832	0.639404	69.208969	-88.555712	-163.707144
47676		9.693760	0.319188	0.070208	-0.005714	0.008720	-0.000733	-0.426270	-0.157715	0.637695	69.102498	-88.553466	-163.596900
47677		9.686580	0.305084	0.089755	-0.005676	0.011402	-0.000445	-0.417969	-0.153564	0.642578	68.929293	-88.551108	-163.424065
47678		9.715052	0.323118	0.083640	-0.008767	0.012680	0.001680	-0.424072	-0.152100	0.636475	68.715509	-88.549268	-163.210468
47679		9.693739	0.319041	0.073770	-0.013498	0.015022	0.000926	-0.422119	-0.145020	0.630859	68.451542	-88.546851	-162.951324
47680		9.717371	0.289457	0.093677	-0.011026	0.011110	-0.003812	-0.423584	-0.151367	0.640137	68.310885	-88.542436	-162.812220
47681		9.686529	0.305266	0.094488	-0.013139	0.006010	-0.001706	-0.423340	-0.159424	0.633057	68.259102	-88.540494	-162.765122
47682		9.648513	0.306869	0.113299	-0.007973	0.000021	-0.003004	-0.422363	-0.153320	0.635010	68.348298	-88.538787	-162.855614
47683		9.646167	0.340532	0.106150	-0.012009	0.003230	0.002650	-0.421631	-0.163086	0.635742	68.319093	-88.539753	-162.830454
47684		9.693698	0.319562	0.076757	-0.004731	0.002341	-0.000755	-0.425537	-0.148438	0.635986	68.344038	-88.538722	-162.856478
47685		9.669813	0.310560	0.125345	-0.007239	0.003570	0.003692	-0.429443	-0.146484	0.634033	68.301803	-88.540171	-162.815551
47686		9.651108	0.311144	0.054987	-0.006145	0.005237	0.004538	-0.418213	-0.158203	0.630615	68.214430	-88.541446	-162.725731
47687		9.651120	0.310685	0.055530	-0.008765	0.005549	0.004898	-0.425049	-0.149658	0.641602	68.119618	-88.543112	-162.633083
47688		9.662905	0.333713	0.078631	-0.005635	0.006953	0.003061	-0.424805	-0.152588	0.635498	68.015983	-88.543169	-162.528858
47689		9.672430	0.314007	0.068263	-0.008799	0.009997	0.001387	-0.428711	-0.153320	0.635742	67.857752	-88.542004	-162.372792
47690		9.672433	0.313774	0.068925	-0.004618	0.003257	0.003330	-0.421875	-0.149902	0.634521	67.824546	-88.542993	-162.338342
47691		9.677018	0.322880	0.110221	-0.004729	0.002342	-0.000757	-0.428955	-0.156982	0.630371	67.846592	-88.542338	-162.360277
47692		9.655720	0.318884	0.099139	-0.003091	0.001277	0.002124	-0.427734	-0.155518	0.640869	67.865466	-88.543103	-162.378649
47693		9.715033	0.321359	0.092127	-0.004729	0.002342	-0.000757	-0.426025	-0.156250	0.638672	67.887495	-88.542448	-162.400568
47694		9.696063	0.283786	0.088621	-0.003597	0.006690	0.000378	-0.427490	-0.147949	0.637451	67.811250	-88.541104	-162.321889
47695		9.703252	0.297908	0.070773	-0.006216	0.007002	0.000737	-0.427246	-0.153809	0.637939	67.722706	-88.540232	-162.234050
47696		9.686533	0.303035	0.101076	-0.005672	0.004271	0.002771	-0.421387	-0.148682	0.631348	67.672996	-88.540725	-162.181889
47697		9.729129	0.310616	0.123970	0.000622	0.002631	0.002611	-0.422607	-0.156006	0.637451	67.663341	-88.541793	-162.169046
47698		9.672440	0.312913	0.071815	-0.003674	0.001327	-0.000199	-0.422363	-0.159424	0.638672	67.704793	-88.541336	-162.208947
47699		9.662917	0.332259	0.083245	-0.001998	0.002944	0.002970	-0.424805	-0.147217	0.633545	67.684081	-88.542527	-162.186546
47700		9.655730	0.317749	0.101828	0.000072	-0.001767	0.003798	-0.425537	-0.154053	0.646240	67.757780	-88.544850	-162.256268
47701		9.634448	0.313423	0.090459	0.001166	-0.000100	0.004644	-0.428955	-0.150391	0.631592	67.788192	-88.547589	-162.283193
47702		9.655761	0.316882	0.101542	0.002181	-0.003796	0.004914	-0.425049	-0.153076	0.638672	67.894536	-88.550949	-162.382786
47703		9.655774	0.316521	0.101482	0.000622	0.002631	0.002611	-0.416260	-0.150391	0.635742	67.884962	-88.552018	-162.370024
47704		9.651209	0.306918	0.060735	-0.001414	0.002894	0.005291	-0.426270	-0.153320	0.633545	67.850844	-88.554142	-162.331662
47705		9.682041	0.290842	0.061041	-0.007746	0.001853	0.005162	-0.427979	-0.146240	0.632080	67.830927	-88.556734	-162.313351
47706		9.677106	0.319141	0.113408	-0.004656	0.000575	0.003039	-0.421143	-0.155518	0.639160	67.854053	-88.558162	-162.335510
47707		9.693837	0.313508	0.083889	-0.007235	0.003569	0.003686	-0.436523	-0.159180	0.637451	67.810842	-88.559599	-162.293604
47708		9.672554	0.309149	0.072716	-0.006731	-0.001844	0.005430	-0.428467	-0.150391	0.637451	67.866374	-88.562744	-162.350188
47709		9.677147	0.317867	0.113497	-0.007825	-0.003510	0.004583	-0.424072	-0.144531	0.634277	67.965023	-88.566184	-162.450524
47710		9.679790	0.322482	0.053599	-0.007353	-0.004475	0.002819	-0.428955	-0.153564	0.638672	68.098412	-88.568607	-162.582054
47711		9.651305	0.303952	0.060284	-0.010993	-0.007596	0.006126	-0.416992	-0.150391	0.641357	68.270322	-88.573726	-162.757489
47712		9.677201	0.316726	0.112028	-0.007936	-0.004424	0.000496	-0.428711	-0.163818	0.635742	68.429606	-88.574845	-162.915316
47713		9.663117	0.326722	0.081917	-0.013060	-0.002885	0.005298	-0.423584	-0.151855	0.632080	68.507995	-88.578510	-162.998386
47714		9.677231	0.315960	0.111572	-0.015167	-0.000855	0.004181	-0.427734	-0.153809	0.634766	68.550172	-88.580749	-163.048788
47715		9.663149	0.325873	0.081560	-0.018918	-0.004890	0.003400	-0.421631	-0.147949	0.635986	68.685158	-88.583814	-163.191829
47716		9.672673	0.306021	0.070058	-0.021495	-0.001897	0.004046	-0.418213	-0.144775	0.633057	68.748875	-88.586277	-163.263468
47717		9.674973	0.348447	0.103595	-0.024150	-0.004266	0.004110	-0.431152	-0.151611	0.634033	68.862336	-88.589581	-163.387977
47718		9.674993	0.347998	0.103216	-0.023094	-0.005282	0.004665	-0.423584	-0.156982	0.636963	68.992614	-88.593091	-163.526682
47719		9.656018	0.309820	0.098859	-0.031413	-0.003382	0.007498	-0.427734	-0.150391	0.640869	69.055474	-88.598014	-163.604737
47720		9.641937	0.319606	0.068924	-0.028866	-0.001924	0.003342	-0.422607	-0.151855	0.638184	69.124417	-88.600068	-163.685351
47721		9.677360	0.312554	0.109959	-0.033982	-0.000391	0.008137	-0.420410	-0.149902	0.635254	69.115556	-88.604720	-163.693134
47722		9.646585	0.327232	0.109959	-0.037103	-0.001799	0.009959	-0.423828	-0.155273	0.639404	69.124223	-88.610323	-163.717695
47723		9.646616	0.326375	0.109762	-0.035105	-0.004740	0.006982	-0.425293	-0.153564	0.631836	69.220848	-88.615242	-163.831639
47724		9.646645	0.325564	0.109595	-0.035529	-0.001099	0.009034	-0.424561	-0.149902	0.637695	69.220037	-88.620162	-163.847866
47725		9.672870	0.300104	0.068476	-0.032440	-0.002374	0.006908	-0.420898	-0.158691	0.639160	69.267142	-88.624557	-163.910748
47726		9.663402	0.318757	0.079712	-0.035519	-0.001102	0.009022	-0.424561	-0.148926	0.643555	69.270347	-88.629483	-163.929393
47727		9.677522	0.307648	0.109600	-0.036640	0.001688	0.004668	-0.428467	-0.152832	0.637939	69.243437	-88.631853	-163.920646
47728		9.656231	0.303170	0.098666	-0.034958	0.003295	0.007836	-0.431396	-0.147461	0.640381	69.155024	-88.635291	-163.844638
47729		9.672953	0.297203	0.069405	-0.041232	0.004933	0.007980	-0.419189	-0.154053	0.637451	69.023683	-88.638769	-163.734061
47730		9.677574	0.305336	0.111459	-0.041101	0.012973	0.008860	-0.427002	-0.151123	0.639893	68.703973	-88.640747	-163.430815
47731		9.668044	0.247447	0.097144	-0.042696	0.009586	0.009465	-0.425781	-0.162109	0.631104	68.452239	-88.644020	-163.200651
47732		9.696585	0.264480	0.091153	-0.039452	0.011894	0.011723	-0.427734	-0.150635	0.639404	68.127907	-88.647606	-162.895987
47733		9.687116	0.282793	0.103775	-0.035272	0.012286	0.010455	-0.431152	-0.155518	0.637695	67.807961	-88.650766	-162.593338
47734		9.694356	0.296244	0.086603	-0.035381	0.011385	0.006362	-0.425293	-0.153076	0.631104	67.542383	-88.651591	-162.341808
47735		9.675395	0.334278	0.110570	-0.040015	0.011947	0.009378	-0.423340	-0.156250	0.635254	67.235256	-88.654185	-162.054700
47736		9.678066	0.338822	0.052737	-0.049386	0.019315	0.008134	-0.423096	-0.158691	0.635254	66.768384	-88.654081	-161.612961
47737		9.692137	0.327488	0.084813	-0.057699	0.025666	0.007442	-0.428467	-0.153564	0.634277	66.161613	-88.652409	-161.036261
47738		9.666282	0.314166	0.035557	-0.067011	0.035711	0.006482	-0.424561	-0.161377	0.633789	65.339500	-88.647347	-160.248769
47739		9.699373	0.340469	0.073602	-0.072698	0.041746	0.005424	-0.429932	-0.153320	0.641357	64.398705	-88.640339	-159.346545
47740		9.683044	0.308088	0.014151	-0.073207	0.044480	0.003369	-0.427979	-0.150879	0.631348	63.433134	-88.630876	-158.417686
47741		9.678044	0.336016	0.071463	-0.075808	0.049249	0.000194	-0.425781	-0.150879	0.633789	62.410933	-88.618521	-157.435807
47742		9.680235	0.302052	0.083758	-0.091320	0.056455	0.002808	-0.432129	-0.153320	0.636230	61.219041	-88.604798	-156.289867
47743		9.666213	0.312469	0.060611	-0.108876	0.072837	0.001090	-0.423828	-0.156738	0.628662	59.731201	-88.585234	-154.861150
47744		9.640493	0.299624	0.016191	-0.121483	0.088635	0.008294	-0.429932	-0.153564	0.631592	57.884290	-88.563182	-153.078396
47745		9.652196	0.322353	0.048403	-0.121528	0.096673	-0.002861	-0.428223	-0.158447	0.636719	56.082270	-88.532179	-151.342620
47746		9.669028	0.317577	0.029254	-0.131546	0.113938	0.000173	-0.431152	-0.161621	0.638916	54.007939	-88.495165	-149.336433
47747		9.692399	0.287400	0.059345	-0.139650	0.122924	-0.000395	-0.429688	-0.162354	0.632813	51.882565	-88.453203	-147.287517
47748		9.652077	0.246470	0.055701	-0.141544	0.132076	-0.004862	-0.428955	-0.159424	0.631592	49.791044	-88.403653	-145.270122
47749		9.664804	0.233735	-0.001675	-0.137556	0.141413	-0.003572	-0.425049	-0.160156	0.635498	47.665622	-88.349435	-143.219862
47750		9.705177	0.199321	0.000917	-0.111342	0.143673	-0.006329	-0.426758	-0.165283	0.625244	45.705863	-88.290938	-141.315384
47751		9.727541	0.244163	-0.038745	-0.081498	0.153586	-0.015742	-0.433350	-0.166748	0.630615	43.881146	-88.222999	-139.533709
47752		9.763678	0.278342	-0.047807	-0.075988	0.159156	-0.011811	-0.434082	-0.162109	0.628418	42.084013	-88.152302	-137.776109
47753		9.781602	0.201131	0.011494	-0.081922	0.175060	-0.018272	-0.443115	-0.166504	0.630859	40.315881	-88.070887	-136.051148
47754		9.779983	0.162105	0.094916	-0.104408	0.181196	-0.008959	-0.438965	-0.170410	0.625488	38.501127	-87.988114	-134.289023
47755		9.751126	0.144581	0.118951	-0.117256	0.179988	-0.007940	-0.430664	-0.164551	0.624268	36.815975	-87.904726	-132.667182
47756		9.738000	0.080195	0.077968	-0.113485	0.172320	-0.000588	-0.440430	-0.171387	0.622314	35.244512	-87.825521	-131.155993
47757		9.730211	0.065315	0.112485	-0.095718	0.166620	0.002398	-0.435303	-0.161621	0.624023	33.794925	-87.748746	-129.757376
47758		9.735679	0.039107	0.176448	-0.090398	0.165982	0.001649	-0.436279	-0.164063	0.619141	32.462845	-87.670549	-128.471282
47759		9.729789	0.064502	0.144810	-0.091820	0.163408	0.006152	-0.445557	-0.169189	0.619629	31.175195	-87.594014	-127.232353
47760		9.693975	0.029944	0.083713	-0.071532	0.161062	0.001372	-0.440918	-0.159912	0.630371	30.052038	-87.515957	-126.145262
47761		9.665108	0.011264	0.105293	-0.058823	0.163980	0.005953	-0.440674	-0.173584	0.621338	28.929900	-87.437066	-125.052938
47762		9.641929	0.041234	0.102962	-0.059716	0.166791	0.001438	-0.443115	-0.165527	0.627930	27.914137	-87.354597	-124.061273
47763		9.582224	0.038346	0.124055	-0.063820	0.163673	0.002149	-0.444092	-0.168457	0.616943	26.959187	-87.273185	-123.139047
47764		9.610756	0.056338	0.134244	-0.061043	0.166011	0.002031	-0.443115	-0.166016	0.607666	26.055558	-87.189789	-122.261180
47765		9.644066	0.081735	0.085514	-0.039671	0.167157	-0.005529	-0.446533	-0.162842	0.620361	25.281559	-87.103379	-121.506144
47766		9.682594	0.081717	0.084621	-0.010014	0.167324	-0.011531	-0.448242	-0.168457	0.612305	24.631319	-87.014858	-120.855610
47767		9.736062	0.036456	0.119710	0.003971	0.161137	-0.004801	-0.444824	-0.175049	0.616211	23.984332	-86.930895	-120.202607
47768		9.765755	-0.020458	0.100831	0.013365	0.159111	-0.002772	-0.454102	-0.173340	0.613037	23.371971	-86.847977	-119.578595
47769		9.814346	-0.039640	0.087727	0.024650	0.152537	-0.011793	-0.456299	-0.169922	0.609131	22.902376	-86.766285	-119.091288
47770		9.798168	-0.067994	0.138407	0.028058	0.159280	-0.013053	-0.454834	-0.165283	0.615967	22.446970	-86.680261	-118.617222
47771		9.736399	-0.034729	0.151010	0.038828	0.135884	-0.027824	-0.452148	-0.172363	0.609619	22.235472	-86.603533	-118.380240
47772		9.722882	-0.062296	0.097803	0.048021	0.111633	-0.029718	-0.450928	-0.164551	0.613037	22.145433	-86.539115	-118.257608
47773		9.708749	0.027700	0.106486	0.051583	0.090734	-0.033124	-0.456543	-0.164307	0.606689	22.160393	-86.485157	-118.240149
47774		9.735438	0.083245	0.103698	0.049532	0.090091	-0.034661	-0.452148	-0.176025	0.616455	22.191838	-86.431127	-118.237885
47775		9.672747	0.185827	-0.003214	0.087929	0.086821	-0.060765	-0.452148	-0.165771	0.610596	22.472013	-86.373228	-118.465296
47776		9.671064	0.115857	0.077467	0.075359	0.098685	-0.034516	-0.457031	-0.176514	0.602295	22.486493	-86.314782	-118.431731
47777		9.578106	0.123730	0.048475	0.054722	0.101886	-0.028468	-0.453857	-0.160645	0.609863	22.424373	-86.255944	-118.335223
47778		9.607168	0.186453	0.087579	0.045100	0.092240	-0.023897	-0.459229	-0.161377	0.608643	22.357404	-86.203078	-118.241012
47779		9.607024	0.189415	0.096560	0.034390	0.096271	-0.037004	-0.461670	-0.167725	0.599854	22.373757	-86.145345	-118.234816
47780		9.627747	0.238521	0.153758	0.023818	0.105510	-0.037604	-0.455566	-0.167236	0.610107	22.359822	-86.082383	-118.204838
47781		9.654440	0.186273	0.230789	0.024949	0.106296	-0.040871	-0.455566	-0.164795	0.604736	22.369000	-86.018494	-118.196871
47782		9.643897	0.209287	0.251908	0.026340	0.099867	-0.038493	-0.454346	-0.166748	0.601318	22.384535	-85.958548	-118.193206
47783		9.664055	0.174907	0.238730	0.027717	0.092589	-0.040191	-0.451904	-0.161133	0.605957	22.431858	-85.902069	-118.221888
47784		9.661590	0.128862	0.170912	0.023403	0.086831	-0.039649	-0.455322	-0.174561	0.600342	22.492656	-85.848825	-118.266146
47785		9.659309	0.124665	0.137506	0.024269	0.080489	-0.039593	-0.459229	-0.164307	0.607666	22.567673	-85.798877	-118.324581
47786		9.659141	0.128544	0.145509	0.017199	0.085749	-0.040117	-0.451416	-0.161621	0.606689	22.629154	-85.746010	-118.375047
47787		9.621962	0.099097	0.176827	0.010216	0.094522	-0.036307	-0.455811	-0.164551	0.604492	22.628997	-85.689357	-118.366181
47788		9.590886	0.118384	0.184540	0.010445	0.098125	-0.044018	-0.456299	-0.172607	0.614746	22.676119	-85.629300	-118.401704
47789		9.602907	0.111605	0.224625	0.015945	0.105514	-0.043792	-0.463867	-0.166748	0.604248	22.698579	-85.565184	-118.412227
47790		9.604475	0.124154	0.276383	0.021376	0.109386	-0.047914	-0.456055	-0.175049	0.597168	22.745023	-85.498232	-118.441208
47791		9.622775	0.124531	0.257988	0.019257	0.106070	-0.049724	-0.463867	-0.168945	0.596191	22.805791	-85.432504	-118.488258
47792		9.620297	0.162658	0.262146	0.004976	0.116478	-0.038814	-0.461670	-0.168457	0.595215	22.760597	-85.363613	-118.442691
47793		9.629933	0.189284	0.297378	0.004129	0.120133	-0.039257	-0.457520	-0.166016	0.603760	22.706123	-85.292775	-118.382821
47794		9.639462	0.215971	0.333125	0.014846	0.126943	-0.039526	-0.460938	-0.160156	0.604248	22.646339	-85.218354	-118.312070
47795		9.681917	0.193523	0.377726	0.009818	0.130162	-0.038895	-0.458740	-0.173340	0.601563	22.570325	-85.142280	-118.227299
47796		9.694922	0.194734	0.462471	0.011704	0.135326	-0.043439	-0.464600	-0.163818	0.601807	22.516500	-85.062685	-118.161627
47797		9.644390	0.218764	0.502540	0.013091	0.141420	-0.046265	-0.461670	-0.168701	0.602539	22.463345	-84.979022	-118.097900
47798		9.653351	0.246686	0.540304	0.009367	0.146369	-0.056828	-0.466797	-0.164063	0.597168	22.463680	-84.890616	-118.087432
47799		9.601634	0.314395	0.616536	0.013354	0.161161	-0.069499	-0.466553	-0.172607	0.599609	22.501352	-84.791411	-118.114731
47800		9.590981	0.349173	0.685358	0.040053	0.182362	-0.084150	-0.464844	-0.171875	0.592773	22.588776	-84.677846	-118.176229
47801		9.543209	0.409703	0.622235	0.050005	0.188448	-0.093342	-0.468018	-0.163086	0.597412	22.713138	-84.558944	-118.269520
47802		9.569159	0.480069	0.671036	0.071763	0.203023	-0.101879	-0.463867	-0.161133	0.592041	22.860698	-84.430536	-118.373594
47803		9.578533	0.579661	0.603119	0.091713	0.263176	-0.111140	-0.465820	-0.167480	0.598145	22.926028	-84.268187	-118.383593
47804		9.429369	0.622959	0.484500	0.093333	0.341326	-0.122555	-0.467041	-0.158691	0.604004	22.883028	-84.062320	-118.281375
47805		9.180842	0.680300	0.742988	0.096716	0.381702	-0.108726	-0.479980	-0.168213	0.590332	22.693166	-83.837899	-118.031877
47806		8.928840	0.710811	0.876362	0.143089	0.370232	-0.081486	-0.470703	-0.164307	0.593506	22.440412	-83.625696	-117.687089
47807		8.803150	0.736110	0.861524	0.197260	0.347289	-0.053211	-0.471436	-0.162109	0.585449	22.147998	-83.431367	-117.276203
47808		8.808148	0.738613	0.789736	0.234902	0.336760	-0.015508	-0.471191	-0.170654	0.591309	21.749439	-83.250747	-116.734494
47809		8.949072	0.676358	0.802257	0.238149	0.344215	0.010648	-0.472168	-0.165039	0.583008	21.246688	-83.070839	-116.087861
47810		9.264745	0.663475	0.678156	0.221792	0.393708	0.053146	-0.477051	-0.157715	0.580811	20.505972	-82.872638	-115.211939
47811		9.706215	0.597464	0.787393	0.267778	0.419737	0.071118	-0.483398	-0.159424	0.577148	19.716342	-82.662195	-114.258467
47812		10.036702	0.529429	0.844338	0.321630	0.440508	0.063131	-0.480957	-0.158936	0.580811	19.011485	-82.437636	-113.359761
47813		10.250495	0.403540	0.829501	0.354766	0.426169	0.049254	-0.484375	-0.157715	0.575928	18.443813	-82.216846	-112.579002
47814		10.130296	0.372731	0.612020	0.358174	0.344874	0.043760	-0.486084	-0.146973	0.573242	18.041850	-82.038744	-111.964610
47815		10.164927	0.457409	0.390027	0.347232	0.241189	0.040790	-0.480469	-0.142334	0.581787	17.790360	-81.915858	-111.506858
47816		10.015083	0.668766	-0.005138	0.323750	0.172677	0.046655	-0.494629	-0.154053	0.576416	17.598089	-81.831681	-111.119313
47817		10.128205	0.823549	-0.242368	0.264869	0.163177	0.061388	-0.499512	-0.153076	0.575195	17.331397	-81.754476	-110.693671
47818		10.229774	0.977233	-0.246813	0.183576	0.199624	0.064813	-0.494873	-0.138428	0.572021	16.973037	-81.657643	-110.224881
47819		10.512193	1.093842	-0.146623	0.106198	0.227645	0.062760	-0.500000	-0.142578	0.567383	16.554375	-81.544559	-109.737310
47820		10.633350	1.178471	0.148935	0.077865	0.238514	0.033588	-0.493652	-0.141846	0.566406	16.227763	-81.420474	-109.358881
47821		10.758053	1.227816	0.281099	0.074270	0.234990	-0.008975	-0.492920	-0.145264	0.571533	16.064735	-81.291158	-109.148073
47822		10.630871	1.191011	0.237701	0.108423	0.225433	-0.059682	-0.496094	-0.138916	0.564941	16.118830	-81.159403	-109.138067
47823		10.411728	1.157712	0.275752	0.152224	0.200523	-0.118032	-0.488525	-0.139404	0.565186	16.423015	-81.031605	-109.354814
47824		10.055827	1.013827	0.448861	0.178608	0.170549	-0.161974	-0.496582	-0.142090	0.568115	16.919300	-80.913253	-109.750894
47825		9.729761	0.928840	0.475092	0.182650	0.142156	-0.201335	-0.494873	-0.139404	0.567627	17.566624	-80.802695	-110.297679
47826		9.373043	0.860380	0.493557	0.158760	0.124052	-0.223416	-0.498779	-0.142090	0.570068	18.282351	-80.697543	-110.927388
47827		9.000940	0.900759	0.452802	0.129656	0.104980	-0.221938	-0.494141	-0.135986	0.564941	18.979904	-80.601325	-111.556176
47828		8.675234	0.971626	0.460895	0.072533	0.067038	-0.192093	-0.504150	-0.135742	0.561035	19.581539	-80.530572	-112.120130
47829		8.471215	0.947932	0.290606	0.014265	0.033668	-0.158654	-0.499268	-0.143555	0.573486	20.070243	-80.482981	-112.604461
47830		8.376961	0.984258	-0.008985	-0.022638	0.010550	-0.118000	-0.493164	-0.153320	0.561279	20.433592	-80.455638	-112.982258
47831		8.371907	0.994016	-0.212503	-0.040247	-0.001293	-0.078039	-0.498779	-0.139648	0.568359	20.669246	-80.442011	-113.241735
47832		8.368591	1.079025	-0.319468	-0.058412	-0.002537	-0.044876	-0.505859	-0.135498	0.575439	20.793490	-80.436037	-113.399227
47833		8.423437	1.153110	-0.333553	-0.085073	0.007643	-0.018033	-0.495117	-0.144043	0.563477	20.801197	-80.429646	-113.453600
47834		8.485576	1.295987	-0.421999	-0.117254	0.009456	0.004787	-0.494141	-0.142090	0.561523	20.718864	-80.427380	-113.434061
47835		8.512866	1.495706	-0.482194	-0.139473	0.006570	0.017967	-0.489990	-0.146484	0.568848	20.582301	-80.428862	-113.373738
47836		8.665691	1.650361	-0.611931	-0.167280	0.002336	0.018506	-0.502197	-0.141357	0.566406	20.436914	-80.433211	-113.320314
47837		8.732340	1.789124	-0.494395	-0.180163	0.001024	0.021476	-0.494873	-0.145508	0.567139	20.272316	-80.438320	-113.255204
47838		8.806645	1.951080	-0.353247	-0.194700	-0.014264	0.029585	-0.485107	-0.145020	0.559570	20.095032	-80.453718	-113.184978
47839		8.899299	1.975991	-0.483295	-0.229507	-0.019458	0.041564	-0.492920	-0.142090	0.563477	19.861251	-80.473717	-113.078388
47840		8.971424	1.918836	-0.725430	-0.293218	-0.034944	0.059373	-0.494629	-0.150635	0.564941	19.554908	-80.505985	-112.934734
47841		9.059925	1.727510	-0.864224	-0.331204	-0.057551	0.076881	-0.500732	-0.145752	0.564697	19.189818	-80.553099	-112.754115
47842		9.313120	1.601539	-0.998867	-0.355677	-0.080744	0.083020	-0.491699	-0.153564	0.564941	18.818409	-80.614291	-112.580804
47843		9.619484	1.556117	-1.108168	-0.385291	-0.088319	0.095614	-0.489014	-0.145264	0.577148	18.388597	-80.681133	-112.366060
47844		9.891883	1.495071	-1.041233	-0.421303	-0.057995	0.088569	-0.495117	-0.151123	0.555420	17.929026	-80.730616	-112.141437
47845		10.304848	1.436855	-0.995663	-0.446176	-0.035931	0.091728	-0.493164	-0.152588	0.566895	17.412400	-80.767606	-111.874141
47846		10.635187	1.411642	-0.931381	-0.477104	-0.037196	0.096224	-0.498535	-0.150391	0.568604	16.866135	-80.806333	-111.594319
47847		10.882973	1.419539	-0.847627	-0.518756	-0.015132	0.096714	-0.492432	-0.160645	0.566406	16.263544	-80.831879	-111.282121
47848		10.884796	1.363011	-0.743222	-0.563265	0.017944	0.090559	-0.497314	-0.157227	0.560791	15.627428	-80.838476	-110.961258
47849		10.880550	1.264222	-1.032688	-0.569167	-0.002536	0.066543	-0.494385	-0.157471	0.567627	15.083372	-80.851427	-110.737629
47850		10.973452	1.235594	-1.390750	-0.598508	-0.024754	0.032749	-0.486572	-0.169922	0.562500	14.663729	-80.872257	-110.656508
47851		10.932245	1.162603	-1.515863	-0.647650	-0.015708	0.011109	-0.499756	-0.165039	0.566650	14.275947	-80.884029	-110.636718
47852		10.882630	1.261365	-1.386531	-0.696084	-0.056852	0.011173	-0.502686	-0.173096	0.558105	13.901547	-80.919588	-110.658153
47853		11.079900	1.474343	-1.084727	-0.781804	-0.130966	-0.005227	-0.492432	-0.176025	0.566162	13.591512	-80.993242	-110.794926
47854		11.193143	1.513871	-0.633936	-0.800943	-0.191910	-0.045903	-0.486572	-0.182373	0.563477	13.472119	-81.096450	-111.135348
47855		11.310276	1.428283	-0.422573	-0.612724	-0.386752	-0.077033	-0.486084	-0.182373	0.566895	13.742610	-81.302920	-111.761441
47856		11.645879	1.045691	-0.212046	-0.322929	-0.506012	-0.130787	-0.487061	-0.185791	0.573975	14.525389	-81.568302	-112.736837
47857		11.841238	0.365929	0.127352	-0.007846	-0.432745	-0.194103	-0.485107	-0.188477	0.563232	15.704620	-81.780140	-113.930305
47858		11.918297	-0.498524	0.988408	0.151619	-0.260324	-0.286312	-0.479492	-0.192871	0.571777	17.198011	-81.879193	-115.347992
47859		11.759121	-1.341549	1.443679	0.164115	-0.233105	-0.366309	-0.478760	-0.187012	0.569580	18.996589	-81.942373	-117.066804
47860		11.714078	-1.786633	1.528538	0.124396	-0.323785	-0.431998	-0.478271	-0.187500	0.571533	21.189866	-82.033931	-119.206582
47861		11.213437	-1.193828	1.731292	0.064930	-0.311833	-0.459086	-0.473389	-0.192139	0.573730	23.470312	-82.100622	-121.468632
47862		10.461215	0.074921	2.063977	-0.019347	-0.204339	-0.433576	-0.470215	-0.182861	0.576416	25.457684	-82.106517	-123.483157
47863		10.169620	0.974542	2.354005	-0.223930	-0.163598	-0.333108	-0.466064	-0.200439	0.579590	26.873670	-82.107764	-125.039353
47864		10.211753	1.772863	2.238023	-0.331479	-0.220062	-0.207710	-0.473145	-0.203613	0.579834	27.888232	-82.167068	-126.252160
47865		10.349237	2.178300	2.823286	-0.352146	-0.180572	-0.116543	-0.472900	-0.200684	0.576660	28.483515	-82.227964	-127.053795
47866		10.036315	1.941097	3.326296	-0.310213	-0.180131	-0.063386	-0.465820	-0.200928	0.572998	28.925278	-82.302981	-127.675854
47867		9.226018	1.533173	3.080110	-0.258786	-0.166116	-0.087974	-0.460449	-0.205322	0.581543	29.459906	-82.362708	-128.362058
47868		8.716749	0.673915	2.873700	-0.202565	-0.054437	-0.144248	-0.470215	-0.213135	0.584717	30.014410	-82.350627	-129.035335
47869		8.292467	0.188636	2.750435	-0.140809	-0.011333	-0.182834	-0.463379	-0.208252	0.573486	30.640645	-82.304535	-129.745775
47870		8.344541	0.084681	2.880235	-0.093670	0.012905	-0.226213	-0.463135	-0.208008	0.580811	31.397425	-82.233124	-130.560367
47871		8.643567	0.104241	2.928889	-0.051033	0.086135	-0.262361	-0.466797	-0.218506	0.580566	32.120461	-82.113209	-131.316856
47872		8.926755	0.253582	2.882898	-0.046193	0.164510	-0.279492	-0.467773	-0.205078	0.571045	32.718473	-81.949413	-131.944072
47873		9.186335	0.403774	2.575172	-0.063638	0.245917	-0.303897	-0.464111	-0.215820	0.575439	33.178028	-81.737619	-132.442294
47874		9.234772	0.463620	2.552731	-0.020117	0.272366	-0.258806	-0.467041	-0.212402	0.573242	33.445099	-81.527315	-132.720467
47875		9.414295	0.425208	2.502063	-0.019115	0.244033	-0.199259	-0.463623	-0.219727	0.573242	33.564709	-81.348840	-132.849635
47876		9.230899	0.417011	2.226440	0.035820	0.249201	-0.131003	-0.474365	-0.212646	0.567871	33.497102	-81.189871	-132.757064
47877		9.632433	0.297099	2.102539	0.101717	0.211391	-0.072503	-0.473877	-0.215820	0.570557	33.360628	-81.067041	-132.557085
47878		9.658948	0.131603	2.000681	0.113029	0.156046	0.022171	-0.468018	-0.218018	0.571533	33.064865	-81.000695	-132.188681
47879		9.815124	0.070227	1.852200	0.107938	0.072278	0.129252	-0.469971	-0.214111	0.566162	32.602253	-81.007201	-131.654825
47880		9.918089	0.040365	1.675063	0.125392	0.000181	0.255679	-0.472900	-0.214600	0.576172	31.904409	-81.086839	-130.872293
47881		9.618461	0.217596	1.354847	0.164887	-0.017973	0.341556	-0.475342	-0.215576	0.571289	30.972218	-81.198880	-129.830372
47882		9.497772	0.414146	1.076176	0.184728	-0.028645	0.389938	-0.471436	-0.200439	0.572754	29.895516	-81.327828	-128.630649
47883		9.297704	0.407241	0.921752	0.177060	-0.031164	0.401392	-0.472412	-0.203369	0.572266	28.740262	-81.457237	-127.356767
47884		9.243662	0.342490	0.750099	0.149467	-0.034802	0.394606	-0.478271	-0.201660	0.571533	27.568658	-81.583234	-126.082240
47885		9.240896	0.262485	0.552944	0.117293	-0.046230	0.371000	-0.468994	-0.193604	0.573242	26.438497	-81.704622	-124.869165
47886		9.302219	0.128430	0.407115	0.118886	-0.056249	0.323795	-0.465332	-0.197510	0.570313	25.468645	-81.816612	-123.817092
47887		9.197351	-0.072329	0.468787	0.153953	-0.032136	0.253045	-0.473633	-0.188721	0.568604	24.703877	-81.896062	-122.952563
47888		9.042213	-0.268291	0.432664	0.204211	-0.014013	0.208893	-0.470947	-0.186523	0.568359	24.092458	-81.954712	-122.213657
47889		8.932345	-0.410126	0.361970	0.255124	-0.038102	0.200272	-0.477051	-0.192139	0.579102	23.565507	-82.022366	-121.531035
47890		8.885752	-0.344510	0.231264	0.325566	-0.065849	0.189621	-0.473877	-0.190674	0.574219	23.160352	-82.102048	-120.930494
47891		8.912444	-0.319841	0.134167	0.422856	-0.091103	0.182741	-0.470215	-0.179688	0.577637	22.861841	-82.192361	-120.381725
47892		8.681111	-0.447925	-0.029774	0.552548	-0.110603	0.168868	-0.475098	-0.173096	0.582031	22.720269	-82.290287	-119.916299
47893		8.576065	-0.537482	-0.128794	0.629628	-0.186353	0.153773	-0.468994	-0.178955	0.571777	22.793507	-82.424172	-119.623351
47894		8.638703	-0.739288	-0.139085	0.638346	-0.240684	0.153880	-0.470459	-0.169678	0.584717	22.965955	-82.587568	-119.425428
47895		8.703928	-0.843386	-0.095392	0.636220	-0.238857	0.152963	-0.463379	-0.159180	0.583984	23.130659	-82.749149	-119.221101
47896		8.590407	-0.967062	-0.089415	0.639255	-0.205501	0.147213	-0.467529	-0.162109	0.587402	23.266745	-82.892719	-118.986204
47897		8.387764	-0.970193	-0.160902	0.667446	-0.213704	0.130853	-0.460205	-0.154541	0.592285	23.496211	-83.036193	-118.829235
47898		8.249368	-1.044430	-0.261232	0.760588	-0.243042	0.118881	-0.469238	-0.150391	0.594971	23.896495	-83.193234	-118.790737
47899		8.072075	-1.020212	-0.469734	0.834349	-0.306964	0.106235	-0.452393	-0.141602	0.601807	24.527177	-83.379921	-118.941572
47900		8.020306	-1.073147	-0.580301	0.885347	-0.378426	0.085858	-0.450928	-0.130615	0.594238	25.465046	-83.599400	-119.372314
47901		8.054617	-1.132265	-0.823194	0.963624	-0.419230	0.068126	-0.465820	-0.133789	0.608154	26.669793	-83.833607	-120.026037
47902		8.127927	-1.080645	-1.124170	1.057476	-0.454958	0.034705	-0.450195	-0.118896	0.603027	28.264523	-84.076234	-121.017879
47903		8.394452	-0.930152	-1.357324	1.136412	-0.500106	0.000645	-0.445068	-0.111328	0.609375	30.306819	-84.327572	-122.413360
47904		8.766418	-0.748971	-1.361512	1.131047	-0.492690	-0.026226	-0.451660	-0.107666	0.607666	32.624667	-84.562651	-124.088634
47905		9.283587	-0.554564	-1.041762	1.012829	-0.430806	-0.034618	-0.439209	-0.105957	0.616943	34.864405	-84.758032	-125.752446
47906		9.652726	-0.355967	-0.954236	0.875813	-0.374930	-0.019468	-0.438232	-0.095215	0.610596	36.887218	-84.927607	-127.277354
47907		9.895468	-0.066764	-1.082986	0.764333	-0.359598	0.030038	-0.437744	-0.083496	0.620117	38.633325	-85.102087	-128.587651
47908		10.361359	0.217743	-1.153752	0.631508	-0.374707	0.075415	-0.437012	-0.091553	0.620850	40.251096	-85.297315	-129.845779
47909		10.771292	0.414228	-1.247496	0.508090	-0.350123	0.149988	-0.435791	-0.086914	0.625488	41.383606	-85.506283	-130.687047
47910		10.965348	0.613296	-1.427553	0.423490	-0.371489	0.242361	-0.437012	-0.070801	0.631836	42.159834	-85.759457	-131.220028
47911		10.975222	0.635274	-1.517918	0.455805	-0.339399	0.304537	-0.432373	-0.066162	0.624756	42.469245	-86.021655	-131.265565
47912		10.903998	0.512457	-1.452068	0.529014	-0.303513	0.320221	-0.431396	-0.070313	0.635498	42.546486	-86.275769	-131.037036
47913		10.655210	0.099900	-1.397603	0.561127	-0.334550	0.314923	-0.426270	-0.063232	0.629883	42.851141	-86.539933	-131.017317
47914		10.634340	-0.556716	-1.589983	0.563258	-0.433589	0.309879	-0.419189	-0.055908	0.635986	43.939275	-86.844394	-131.781921
47915		10.906783	-1.317135	-1.605713	0.566534	-0.479299	0.304304	-0.419189	-0.047119	0.633057	45.625257	-87.163032	-133.142323
47916		11.326310	-1.491612	-1.590790	0.497598	-0.426348	0.277762	-0.420410	-0.037354	0.639648	47.405701	-87.448534	-134.637330
47917		12.244518	-1.125036	-1.100772	0.300056	-0.137463	0.262981	-0.415283	-0.043701	0.637939	46.565849	-87.613264	-133.621783
47918		12.964549	-0.357969	0.017932	-0.108323	-0.004384	0.274921	-0.416992	-0.042236	0.635498	43.882634	-87.728913	-130.996613
47919		13.603785	0.774344	0.967755	-0.557607	-0.142580	0.322456	-0.417725	-0.037842	0.643311	41.487516	-87.915181	-128.916648
47920		14.652322	1.882932	0.867764	-0.726637	-0.163559	0.378410	-0.410156	-0.041504	0.641357	38.049808	-88.128221	-125.891634
47921		14.658722	2.516480	1.728002	-0.760675	0.016559	0.405886	-0.411133	-0.038818	0.640869	31.430533	-88.254243	-119.702287
47922		12.476934	2.016022	2.523822	-0.678162	0.117286	0.439004	-0.410400	-0.041748	0.634521	22.603066	-88.311411	-111.257646
47923		10.826854	0.853392	2.120632	-0.377033	0.026820	0.470497	-0.415283	-0.040283	0.641602	13.363831	-88.381666	-102.227859
47924		10.487798	0.115827	1.821686	0.083470	-0.003535	0.422541	-0.407471	-0.038818	0.640137	4.874712	-88.425120	-93.685560
47925		10.346792	-0.369659	2.305479	0.408354	0.029137	0.314682	-0.412354	-0.031982	0.638184	-1.429194	-88.415448	-87.142369
47926		9.911340	-0.634561	2.889540	0.505598	-0.008589	0.244996	-0.411865	-0.032715	0.638428	-6.203530	-88.414046	-82.074341
47927		9.465216	-0.788679	3.038626	0.513700	-0.085779	0.199345	-0.400879	-0.025146	0.631104	-10.286005	-88.447994	-77.693063
47928		9.015180	-0.510555	2.717147	0.397358	-0.067199	0.175468	-0.406494	-0.014404	0.633057	-14.016808	-88.467425	-73.731080
47929		8.576554	-0.047547	2.302647	0.288789	-0.016312	0.169046	-0.413818	-0.022217	0.630615	-17.412854	-88.451848	-70.165450
47930		8.491092	0.587229	2.109948	0.240969	0.042337	0.165977	-0.403320	-0.022461	0.633545	-20.284202	-88.400971	-67.152799
47931		8.713015	1.018852	2.109449	0.246472	0.157878	0.162199	-0.407471	-0.014160	0.631836	-22.015698	-88.284714	-65.276467
47932		8.925573	1.052525	2.180980	0.267878	0.293633	0.145603	-0.413574	-0.015869	0.625488	-22.318228	-88.100167	-64.818046
47933		9.104356	1.009261	1.934737	0.151070	0.390913	0.123264	-0.409912	-0.003174	0.628418	-21.710902	-87.867696	-65.336301
47934		9.350470	0.832326	1.674910	0.061815	0.374307	0.078811	-0.413086	-0.008057	0.610840	-20.777112	-87.654143	-66.233082
47935		9.746806	0.748992	1.626804	-0.063138	0.378437	0.051249	-0.412354	-0.004395	0.625000	-19.706439	-87.442194	-67.338107
47936		9.770107	0.886377	1.764622	-0.187455	0.426914	0.031078	-0.433350	-0.005371	0.624512	-18.468994	-87.207895	-68.682067
47937		9.608575	1.418337	1.784238	-0.236448	0.392470	0.010154	-0.412842	-0.003906	0.622559	-17.348108	-86.993785	-69.937199
47938		9.701206	2.142767	1.535154	-0.285979	0.243436	-0.087364	-0.415283	-0.008789	0.616699	-15.873823	-86.877108	-71.575233
47939		9.296723	2.504689	1.384972	-0.313925	0.221184	-0.171658	-0.433594	-0.020508	0.607910	-13.750144	-86.781384	-73.879470
47940		8.932825	2.572916	1.316873	-0.389341	0.214083	-0.239249	-0.420654	-0.012207	0.620850	-11.157986	-86.693829	-76.696662
47941		8.555051	2.303143	1.096519	-0.467655	0.263681	-0.292430	-0.415771	-0.015137	0.606934	-8.180846	-86.574658	-79.944513
47942		8.331152	2.031925	0.909865	-0.528345	0.221945	-0.312843	-0.419434	-0.019043	0.604736	-5.299066	-86.472023	-83.132110
47943		8.173040	1.669832	0.588783	-0.502693	0.065734	-0.300335	-0.417725	-0.024658	0.610596	-2.761955	-86.448189	-85.959802
47944		8.192488	1.133528	0.315497	-0.470003	0.048274	-0.304779	-0.426270	-0.027100	0.611328	-0.201936	-86.427648	-88.791702
47945		8.172260	0.988124	0.364546	-0.494866	0.085856	-0.317848	-0.416748	-0.025146	0.606201	2.405071	-86.376565	-91.685113
47946		8.267745	0.406198	0.086901	-0.460103	0.199646	-0.365248	-0.425537	-0.033691	0.607910	5.280985	-86.250883	-94.828202
47947		8.538294	-0.144730	-0.000561	-0.364632	0.221138	-0.374318	-0.424316	-0.044434	0.594238	8.050965	-86.101659	-97.810902
47948		8.551733	-0.636015	-0.109576	-0.376772	0.211795	-0.352521	-0.425781	-0.048096	0.606689	10.444398	-85.951820	-100.423539
47949		8.399644	-0.662228	-0.014408	-0.402394	0.166181	-0.293836	-0.427246	-0.054199	0.599854	12.262450	-85.826823	-102.474587
47950		8.293703	-0.362302	-0.022940	-0.382331	0.070623	-0.214884	-0.426025	-0.041992	0.593018	13.573087	-85.762221	-104.005506
47951		8.357783	0.057192	0.066477	-0.331953	-0.028544	-0.154201	-0.429932	-0.052002	0.598389	14.605779	-85.758057	-105.228907
47952		8.325647	0.665697	-0.234059	-0.360674	-0.081369	-0.100708	-0.423340	-0.055420	0.591309	15.338302	-85.790520	-106.167758
47953		8.258361	1.097854	-0.511179	-0.406480	-0.059678	-0.070681	-0.429932	-0.067383	0.590820	15.775786	-85.814060	-106.837100
47954		8.325931	1.380762	-0.761887	-0.439135	-0.015154	-0.055843	-0.430420	-0.048828	0.598389	16.000087	-85.815973	-107.311373
47955		8.335402	1.413950	-0.733046	-0.423303	0.027646	-0.081773	-0.421875	-0.057861	0.587891	16.324735	-85.789170	-107.877241
47956		8.394590	1.560218	-0.627879	-0.455825	0.093715	-0.136197	-0.424805	-0.060303	0.591309	16.887669	-85.717731	-108.700663
47957		8.440908	1.632157	-0.609340	-0.558937	0.192720	-0.184207	-0.423828	-0.072754	0.591553	17.478199	-85.582493	-109.611229
47958		8.454081	1.662655	-0.465186	-0.719623	0.295693	-0.195587	-0.427490	-0.074707	0.579590	17.792174	-85.389384	-110.336770
47959		8.471297	1.676853	-0.227183	-0.836961	0.216507	-0.154857	-0.425781	-0.077148	0.581299	17.893160	-85.245541	-110.916400
47960		8.671654	1.944271	-0.134557	-0.932533	0.083851	-0.085336	-0.431152	-0.087891	0.575928	17.762632	-85.187129	-111.318513
47961		8.806900	2.159071	-0.479433	-0.998220	0.015826	-0.006748	-0.424316	-0.092285	0.576416	17.215153	-85.178752	-111.340215
47962		8.610859	2.313648	-1.208533	-1.022766	-0.127016	0.082981	-0.427246	-0.093262	0.573242	16.359821	-85.264474	-111.066799
47963		8.537271	2.302567	-2.235629	-1.037425	-0.354423	0.175147	-0.425537	-0.094971	0.575439	15.268745	-85.488665	-110.565661
47964		8.473016	2.047251	-2.874168	-0.948679	-0.534783	0.249415	-0.425293	-0.103027	0.577393	13.947962	-85.823627	-109.783002
47965		9.078034	1.537823	-2.181807	-0.676654	-0.579868	0.278927	-0.423096	-0.104492	0.575684	12.431551	-86.185079	-108.648701
47966		9.920471	0.779278	-1.595228	-0.442725	-0.569788	0.214700	-0.418213	-0.108154	0.574219	11.374225	-86.532459	-107.840228
47967		10.663665	-0.029884	-1.089152	-0.347855	-0.671493	0.073963	-0.405518	-0.114258	0.579834	11.816264	-86.919383	-108.479780
47968		11.820166	-0.637877	-1.385726	-0.357274	-0.799882	-0.098800	-0.399658	-0.107422	0.578857	14.867083	-87.354979	-111.736205
47969		13.175331	-1.255386	-2.203483	-0.422279	-0.934215	-0.225882	-0.406494	-0.111328	0.584229	21.548476	-87.825286	-118.662766
47970		12.537859	-1.021453	-3.500248	-0.599636	-0.723656	-0.278033	-0.396484	-0.120850	0.583496	30.491316	-88.131164	-127.951882
47971		11.937229	-0.438524	-4.150812	-0.616411	-0.188214	-0.254794	-0.396973	-0.124023	0.583984	35.751102	-88.142876	-133.564973
47972		11.104733	0.210876	-3.780899	-0.541733	0.224111	-0.205560	-0.399414	-0.136230	0.575928	36.113419	-87.971610	-134.235191
47973		10.452268	0.908528	-2.856930	-0.453430	0.362840	-0.175638	-0.394287	-0.136963	0.569336	34.854470	-87.745003	-133.232507
47974		10.398613	1.361685	-1.298900	-0.412166	0.349757	-0.172347	-0.398926	-0.137695	0.571777	33.919821	-87.525816	-132.530603
47975		10.237303	1.552529	1.330053	-0.290939	-0.154314	-0.178057	-0.401123	-0.145996	0.573242	36.904421	-87.539865	-135.681985
47976		11.391656	1.716230	1.037674	-0.130103	-0.643822	-0.211574	-0.395996	-0.148193	0.570068	45.001451	-87.741132	-143.857587
47977		12.355368	1.208798	0.762493	0.113503	-0.466271	-0.309504	-0.389404	-0.138428	0.571045	53.252567	-87.782737	-152.047062
47978		12.963341	0.309487	1.580656	0.238438	-0.131377	-0.434002	-0.388672	-0.156006	0.578125	58.502662	-87.619702	-157.161709
47979		13.453379	-0.829414	3.566731	0.156859	0.065158	-0.565254	-0.383545	-0.152588	0.565674	61.561700	-87.320862	-160.130921
47980		13.502292	-1.253359	4.727640	0.088853	0.061518	-0.646684	-0.386963	-0.155762	0.566650	64.428174	-86.974969	-162.946987
47981		12.447401	-0.819611	4.600253	0.042023	-0.069430	-0.654626	-0.382080	-0.156982	0.568359	67.861320	-86.648183	-166.358486
47982		11.386383	-0.512317	3.804841	-0.088784	-0.128561	-0.564472	-0.389160	-0.164307	0.567871	70.864448	-86.371357	-169.415129
47983		10.609809	-0.028921	3.236515	0.006134	-0.225236	-0.459968	-0.388428	-0.164063	0.571533	74.000156	-86.159098	-172.551140
47984		9.782454	0.648946	3.080329	0.122915	-0.304324	-0.400318	-0.384766	-0.167969	0.567139	77.401367	-85.979461	-175.886713
47985		9.479872	0.913510	2.619912	0.117519	-0.251338	-0.344739	-0.385010	-0.165771	0.557861	80.002931	-85.813875	-178.424610
47986		9.407692	1.195655	2.041969	0.111326	-0.146436	-0.260468	-0.372559	-0.176270	0.560791	81.543856	-85.679365	-179.902697
47987		9.624355	1.509914	1.796846	0.089528	-0.060665	-0.173083	-0.381348	-0.166504	0.562500	82.253389	-85.585925	179.439992
47988		10.110876	1.596078	1.912871	0.050389	0.095296	-0.082476	-0.371338	-0.173584	0.568359	81.710359	-85.530786	-179.983181
47989		10.340926	1.436368	2.074757	0.008767	0.240433	0.018944	-0.379883	-0.171631	0.551758	79.979604	-85.519456	-178.239253
47990		10.399537	1.063966	2.065371	0.015422	0.319182	0.109073	-0.374512	-0.176758	0.552979	77.575810	-85.544571	-175.815989
47991		10.214156	0.526972	1.891156	0.070122	0.350190	0.190858	-0.377441	-0.167480	0.550537	74.785711	-85.602862	-172.974408
47992		9.974016	0.159516	1.755804	0.123555	0.390536	0.229596	-0.388184	-0.177734	0.553223	71.592320	-85.663764	-169.697406
47993		9.612590	-0.059040	1.782533	0.178427	0.436172	0.232682	-0.384766	-0.177979	0.549805	68.001792	-85.702790	-165.991306
47994		9.300029	-0.454360	1.732516	0.197023	0.438189	0.191037	-0.390869	-0.178711	0.550537	64.509271	-85.701898	-162.372416
47995		9.199734	-0.877636	1.425627	0.209178	0.377819	0.169439	-0.390625	-0.177246	0.544189	61.504595	-85.690537	-159.236217
47996		8.978116	-1.197282	1.190739	0.214444	0.281468	0.184000	-0.383057	-0.177002	0.543945	59.110357	-85.702555	-156.708708
47997		9.019964	-1.233152	1.288148	0.137683	0.250169	0.222224	-0.392822	-0.174561	0.546631	56.687354	-85.734785	-154.196977
47998		8.877767	-1.265583	0.966986	0.075825	0.289970	0.251251	-0.388184	-0.170166	0.533936	53.829475	-85.758994	-151.284427
47999		8.697917	-0.972994	0.752847	0.098085	0.247420	0.293832	-0.400146	-0.169922	0.540527	50.992821	-85.806624	-148.380882
48000		8.459837	-0.769675	0.569279	0.205860	0.284788	0.296648	-0.396973	-0.169434	0.533936	47.940032	-85.830646	-145.198541
48001		8.251792	-0.469375	0.310727	0.325319	0.259303	0.300343	-0.398193	-0.163818	0.535889	45.036743	-85.854004	-142.097867
48002		8.041502	-0.099607	0.037274	0.425293	0.249224	0.254688	-0.405029	-0.164551	0.535400	42.499479	-85.852975	-139.306543
48003		7.913772	0.168600	-0.056745	0.496283	0.220280	0.218656	-0.405273	-0.167480	0.520752	40.361243	-85.842208	-136.874742
48004		8.138688	0.208027	-0.233073	0.497001	0.216582	0.167616	-0.405518	-0.156494	0.524902	38.583207	-85.808808	-134.803399
48005		8.402002	0.096663	-0.282553	0.524894	0.239603	0.150469	-0.398193	-0.157715	0.518311	36.841309	-85.753982	-132.752369
48006		8.830182	-0.051408	-0.114883	0.553726	0.228669	0.128632	-0.410645	-0.145996	0.521973	35.361767	-85.693047	-130.947518
48007		9.076620	-0.239625	0.171887	0.566696	0.208148	0.076516	-0.401123	-0.159668	0.514893	34.334660	-85.621335	-129.588984
48008		9.091784	-0.463966	0.045726	0.573131	0.160553	0.028015	-0.410889	-0.143311	0.523438	33.852548	-85.555763	-128.773089
48009		8.873071	-0.659632	-0.137365	0.572388	0.062904	-0.026825	-0.403076	-0.146729	0.520508	34.104395	-85.518419	-128.693907
48010		8.543175	-0.803196	-0.302736	0.571443	-0.004604	-0.079307	-0.400635	-0.151611	0.515625	34.956869	-85.496469	-129.217650
48011		8.233491	-0.805161	-0.315483	0.538844	-0.066197	-0.104148	-0.400391	-0.150146	0.522949	36.180618	-85.493709	-130.132657
48012		8.115937	-0.828177	-0.493978	0.541242	-0.091512	-0.090125	-0.402100	-0.148438	0.522217	37.445306	-85.506344	-131.087327
48013		7.884547	-0.720149	-0.581100	0.545202	-0.044712	-0.045965	-0.404053	-0.137939	0.528320	38.242079	-85.511465	-131.570371
48014		7.734057	-0.537102	-0.731623	0.579088	-0.018778	0.004712	-0.410156	-0.149170	0.525635	38.662783	-85.523158	-131.656771
48015		7.665279	-0.341827	-0.831846	0.645058	0.005506	0.047715	-0.406738	-0.139648	0.518799	38.753983	-85.538821	-131.374687
48016		7.714809	-0.196766	-1.014276	0.716802	0.009225	0.059838	-0.412354	-0.139160	0.520020	38.809632	-85.557805	-131.015843
48017		7.929235	-0.203654	-1.270577	0.765550	-0.001723	0.059048	-0.407227	-0.138428	0.532959	38.936308	-85.580831	-130.700114
48018		8.317703	-0.368772	-1.276335	0.824707	-0.016218	0.031608	-0.405029	-0.133545	0.523682	39.333917	-85.601144	-130.622316
48019		8.730162	-0.676962	-1.022005	0.876872	0.000940	0.000067	-0.399170	-0.130371	0.520996	39.851761	-85.601761	-130.634952
48020		8.885241	-0.942592	-0.685107	0.931576	0.044259	-0.003551	-0.399170	-0.130127	0.521240	40.225580	-85.582747	-130.471953
48021		9.035911	-1.113808	-0.659906	0.991261	0.046728	-0.010832	-0.406738	-0.121338	0.519531	40.650662	-85.559333	-130.325815
48022		9.108952	-1.326664	-0.630326	1.011724	0.029249	0.000266	-0.395996	-0.122559	0.520996	41.118986	-85.548509	-130.211630
48023		9.153584	-1.194533	-0.410676	0.900723	-0.004773	0.027204	-0.391602	-0.112061	0.526367	41.528192	-85.561822	-130.101594
48024		9.318948	-0.976216	-0.587026	0.743353	-0.049028	0.078710	-0.399902	-0.119873	0.518311	41.790690	-85.614571	-129.935300
48025		9.623948	-0.584956	-1.090677	0.625936	-0.101775	0.132526	-0.395264	-0.109863	0.530029	41.937921	-85.709627	-129.720447
48026		10.165553	-0.106209	-1.411177	0.559753	-0.135109	0.202630	-0.400635	-0.105957	0.526123	41.820138	-85.846607	-129.278444
48027		10.595365	0.005832	-1.586944	0.427049	-0.203167	0.243552	-0.395752	-0.099365	0.527344	41.713401	-86.027339	-128.923300
48028		10.872655	-0.219473	-1.864014	0.262723	-0.358022	0.273985	-0.385986	-0.103760	0.522705	42.203485	-86.286736	-129.261366
48029		11.341743	-0.366739	-2.544126	0.227786	-0.531965	0.313607	-0.395508	-0.106689	0.525635	43.585053	-86.633282	-130.511967
48030		11.784782	-0.635006	-2.634948	0.386605	-0.357684	0.366413	-0.387451	-0.111328	0.533691	43.661950	-86.928383	-130.364956
48031		11.703085	-0.722387	-1.962037	0.414426	-0.245571	0.386646	-0.378662	-0.099854	0.524170	42.658832	-87.183492	-129.119915
48032		12.622231	-0.671708	-0.927030	0.145431	-0.310872	0.410148	-0.383545	-0.101807	0.531006	41.619626	-87.475302	-127.994094
48033		13.614765	0.143107	0.768844	-0.152948	-0.202772	0.447512	-0.387207	-0.102051	0.535400	38.674275	-87.730502	-125.131044
48034		15.074340	1.687489	1.775583	-0.480266	-0.236670	0.505658	-0.381592	-0.099609	0.526123	34.360530	-88.014341	-121.087676
48035		15.837381	3.059152	2.240706	-0.770933	-0.251268	0.584821	-0.386719	-0.113770	0.530273	27.283055	-88.311358	-114.445696
48036		14.987055	3.762587	3.458868	-0.793608	0.133637	0.645655	-0.382568	-0.111328	0.538574	13.957732	-88.373042	-101.567599
48037		12.379545	3.019873	4.403716	-0.654194	0.139435	0.649666	-0.388428	-0.112061	0.534668	0.351813	-88.341497	-88.328280
48038		11.014943	1.448098	4.551809	-0.384940	0.053465	0.619738	-0.391602	-0.111084	0.535645	-11.752412	-88.278327	-76.437137
48039		9.815783	0.520479	3.665534	-0.088480	0.052044	0.505611	-0.392334	-0.110840	0.532227	-20.520819	-88.170535	-67.712422
48040		8.993892	-0.185380	2.933794	0.250831	0.065108	0.367812	-0.397461	-0.111328	0.529541	-25.830527	-88.055922	-62.253606
48041		8.593120	-0.879234	2.719099	0.446551	0.065231	0.265613	-0.392578	-0.102295	0.520264	-28.969167	-87.954292	-58.854219
48042		8.472039	-1.413926	2.509873	0.484506	0.059354	0.212148	-0.388916	-0.102295	0.528809	-31.131150	-87.866544	-56.410554
48043		8.632123	-1.658238	2.512009	0.433148	0.088931	0.204932	-0.394287	-0.103760	0.522217	-32.797728	-87.762736	-54.491572
48044		8.983222	-1.443348	2.211424	0.347393	0.148505	0.238337	-0.391113	-0.104004	0.532471	-34.279548	-87.618782	-52.806923
48045		9.444115	-0.911945	2.065220	0.288870	0.246520	0.260048	-0.395508	-0.108154	0.531494	-35.097579	-87.419406	-51.819624
48046		9.825665	-0.257412	1.874903	0.231450	0.336411	0.251422	-0.396240	-0.101318	0.528320	-35.133999	-87.181207	-51.648004
48047		10.462634	0.278362	1.886783	0.124506	0.358662	0.242383	-0.402100	-0.095459	0.521973	-34.986815	-86.934785	-51.721114
48048		10.945614	0.540719	2.069857	-0.085177	0.363176	0.190268	-0.394287	-0.100830	0.521240	-34.529436	-86.703983	-52.225639
48049		11.164312	1.049588	1.788004	-0.272173	0.279874	0.090636	-0.400391	-0.103271	0.510742	-33.892301	-86.543744	-53.017256
48050		11.133559	1.632050	1.572090	-0.423877	0.133864	-0.023348	-0.399414	-0.099121	0.520020	-33.268612	-86.489556	-53.882895
48051		10.578004	2.142156	1.295552	-0.439341	-0.015785	-0.126657	-0.399170	-0.106201	0.516602	-32.607658	-86.538191	-54.794426
48052		10.081837	2.412648	1.131203	-0.420021	-0.141269	-0.217009	-0.404053	-0.110107	0.520752	-31.813323	-86.675307	-55.828588
48053		9.266455	2.548450	0.913067	-0.432039	-0.195330	-0.272980	-0.402100	-0.118652	0.519043	-30.729952	-86.853766	-57.158783
48054		8.517396	2.564426	0.714240	-0.398765	-0.202548	-0.294219	-0.401123	-0.120850	0.516602	-29.320330	-87.041022	-58.796412
48055		7.871021	2.380641	0.347697	-0.372399	-0.235568	-0.279171	-0.402588	-0.123291	0.522949	-28.027153	-87.237830	-60.301997
48056		7.788276	2.535407	0.482265	-0.423249	-0.201268	-0.281325	-0.396729	-0.129150	0.513184	-26.333877	-87.416538	-62.236953
48057		7.683652	2.214817	0.314542	-0.408919	-0.060277	-0.304247	-0.399170	-0.135010	0.524170	-23.320445	-87.522769	-65.485008
48058		7.753299	1.651318	0.225380	-0.361864	-0.028031	-0.328218	-0.398926	-0.134033	0.520020	-19.547808	-87.609018	-69.465512
48059		7.971810	0.883705	0.094920	-0.337661	-0.013758	-0.350161	-0.392578	-0.147217	0.524170	-15.143370	-87.678091	-74.064465
48060		8.158753	0.201537	-0.001603	-0.330970	0.020276	-0.345236	-0.402588	-0.145020	0.523193	-10.464563	-87.713161	-78.933715
48061		8.234237	-0.379688	-0.179830	-0.342873	0.036129	-0.322493	-0.401611	-0.136475	0.512695	-5.991670	-87.720799	-83.603928
48062		8.541819	-0.740443	0.011322	-0.397044	0.000383	-0.279528	-0.394287	-0.153809	0.516846	-2.172649	-87.734456	-87.650501
48063		8.368250	-0.707757	-0.188832	-0.428223	-0.037195	-0.219163	-0.397461	-0.151367	0.508057	0.779199	-87.758943	-90.847339
48064		8.547149	-0.490949	-0.076383	-0.429490	-0.095751	-0.151206	-0.395996	-0.157959	0.518311	2.844001	-87.813441	-93.156866
48065		8.538631	0.063591	-0.254362	-0.378876	-0.171178	-0.050426	-0.393066	-0.160889	0.517822	3.562384	-87.911366	-94.090144
48066		8.759349	0.432183	-0.329803	-0.339244	-0.221505	0.036835	-0.384033	-0.163330	0.510254	3.007220	-88.041658	-93.726068
48067		8.903012	0.772952	-0.611517	-0.387545	-0.185823	0.093346	-0.393311	-0.156738	0.515625	1.314160	-88.151697	-92.251407
48068		8.860991	1.063104	-0.844296	-0.421496	-0.140026	0.135472	-0.396484	-0.163086	0.524414	-1.359610	-88.234360	-89.814860
48069		8.802577	1.216933	-1.048825	-0.507302	-0.128738	0.126599	-0.392578	-0.161865	0.517578	-4.153930	-88.306217	-87.307226
48070		8.615083	1.479376	-1.454490	-0.543699	-0.105411	0.115015	-0.400391	-0.168945	0.515625	-6.896659	-88.362548	-84.871890
48071		8.538755	1.511314	-1.526363	-0.588028	-0.032746	0.098895	-0.390137	-0.169434	0.518555	-9.287804	-88.374824	-82.813992
48072		8.399042	1.516276	-1.415129	-0.698933	0.087991	0.057234	-0.400391	-0.184570	0.520508	-10.488816	-88.322164	-82.009973
48073		8.379650	1.463094	-1.189672	-0.762634	0.145244	0.028679	-0.385498	-0.179932	0.518066	-10.942599	-88.239023	-81.990303
48074		8.535440	1.512367	-1.000805	-0.795588	0.122274	-0.005414	-0.391357	-0.187012	0.510986	-10.859693	-88.173507	-82.526136
48075		8.529830	1.566765	-1.172659	-0.863676	0.181214	0.000601	-0.391113	-0.197021	0.511475	-10.765175	-88.073139	-83.112984
48076		8.599898	1.655810	-1.281207	-0.925191	0.164882	0.018403	-0.394775	-0.194824	0.505859	-11.058094	-87.981110	-83.347077
48077		8.642200	1.681747	-1.621652	-0.950776	0.087048	0.066034	-0.392334	-0.193848	0.496094	-12.352224	-87.926278	-82.594387
48078		8.799863	1.672692	-1.909344	-1.031897	0.060465	0.089514	-0.397217	-0.203369	0.502441	-14.075603	-87.883625	-81.458220
48079		9.139954	1.297584	-1.842169	-1.156276	0.105097	0.089566	-0.395264	-0.208984	0.495117	-15.645655	-87.813943	-80.547188
48080		9.480931	0.852376	-1.771150	-1.135504	0.064377	0.112669	-0.404785	-0.211670	0.502930	-17.612116	-87.763009	-79.227054
48081		10.413550	0.300954	-1.683958	-1.077306	0.069199	0.051249	-0.401855	-0.223877	0.484863	-18.624765	-87.717875	-78.828513
48082		10.889140	-0.177990	-1.423113	-0.943458	0.111337	-0.049984	-0.391846	-0.222412	0.490234	-17.982164	-87.669249	-80.009363
48083		11.145656	-0.441894	-1.127668	-0.731122	0.015322	-0.161385	-0.403320	-0.235596	0.487061	-16.155758	-87.689684	-82.253676
48084		11.294071	-0.609654	-1.065890	-0.487200	-0.129661	-0.229697	-0.406738	-0.232666	0.488770	-13.676707	-87.798337	-85.010784
48085		11.261328	-0.668284	-1.264028	-0.325734	-0.298650	-0.268086	-0.402588	-0.234619	0.483398	-10.753671	-87.999835	-88.119702
48086		10.789027	-0.535833	-2.122732	-0.318709	-0.448314	-0.248451	-0.394043	-0.247559	0.490723	-7.864081	-88.279378	-91.190345
48087		10.277221	-0.198336	-2.239371	-0.336934	-0.487214	-0.194087	-0.388672	-0.241699	0.498291	-5.181146	-88.571120	-94.064570
48088		10.252400	0.294979	-1.995418	-0.451944	-0.406958	-0.168643	-0.392090	-0.245850	0.493896	-1.787779	-88.812760	-97.714739
48089		10.157880	0.450736	-1.424853	-0.406883	-0.585633	-0.135087	-0.391357	-0.250244	0.500000	2.470726	-89.149730	-102.204226
48090		11.223886	0.730089	-0.700688	-0.042735	-0.741143	-0.144098	-0.386475	-0.251465	0.504883	15.899992	-89.561232	-115.655684
48091		11.950362	0.448432	-0.124827	0.263093	-0.618468	-0.225852	-0.381348	-0.244629	0.501221	75.357106	-89.740932	-174.960074
48092		12.541315	0.004611	0.319738	0.152300	-0.074234	-0.354622	-0.381836	-0.250000	0.496338	87.546140	-89.544435	172.940997
48093		12.873120	-0.833626	1.126624	-0.065126	0.334545	-0.480411	-0.388428	-0.256592	0.500488	73.973549	-89.239722	-173.520184
48094		13.947228	-1.305261	3.436103	-0.139716	0.268609	-0.570136	-0.382324	-0.252197	0.498047	71.109035	-88.881520	-170.732294
48095		14.108797	-1.206641	4.334687	0.082044	0.206782	-0.663761	-0.381836	-0.268799	0.493896	71.632610	-88.483438	-171.206148
48096		12.849722	-1.216263	4.620370	0.057994	0.068733	-0.684489	-0.377686	-0.270996	0.491699	74.349991	-88.096464	-173.888376
48097		11.617414	-1.082812	3.958854	0.019770	0.025849	-0.621631	-0.383057	-0.273438	0.493164	76.487229	-87.748010	-176.012838
48098		10.169234	-0.416897	3.589295	0.172935	-0.063455	-0.536011	-0.383057	-0.276611	0.499023	79.057608	-87.454952	-178.483145
48099		8.991542	0.635073	3.217530	0.211743	-0.253438	-0.461407	-0.377930	-0.273438	0.495605	83.178499	-87.215893	177.515805
48100		8.542903	1.291290	2.324678	0.140752	-0.241641	-0.365542	-0.377686	-0.270752	0.500488	86.429403	-87.018898	174.344746
48101		8.492301	1.778206	1.918204	0.076491	-0.045526	-0.266682	-0.388184	-0.277832	0.491943	87.154940	-86.867494	173.664903
48102		8.614221	1.990990	2.299010	-0.041629	0.130243	-0.174255	-0.379639	-0.275146	0.496338	85.948716	-86.762347	174.852403
48103		9.143502	2.010984	2.263105	-0.180394	0.244883	-0.114460	-0.384766	-0.271973	0.498047	83.541793	-86.683933	177.162578
48104		9.701253	1.657892	2.039882	-0.184123	0.353178	-0.070487	-0.383789	-0.281494	0.497314	80.158607	-86.614403	-179.550709
48105		10.205497	1.336154	2.015117	-0.146902	0.443310	-0.050891	-0.393066	-0.274658	0.486328	76.053431	-86.533423	-175.519669
48106		10.292212	0.750440	1.708294	-0.032857	0.444712	-0.009745	-0.387695	-0.277832	0.492676	72.102777	-86.457581	-171.576988
48107		10.216283	0.376526	1.432659	0.111392	0.446163	0.045739	-0.396240	-0.281494	0.488281	68.202692	-86.395588	-167.602525
48108		10.096943	0.132606	1.442694	0.233305	0.425813	0.057265	-0.387451	-0.278320	0.490234	64.656074	-86.327874	-163.911283
48109		10.152135	-0.106222	1.491553	0.295311	0.353301	0.045823	-0.392578	-0.275879	0.479980	61.879441	-86.260629	-160.956439
48110		10.318737	-0.506346	1.246149	0.319389	0.242352	0.038281	-0.397705	-0.278076	0.486572	60.096172	-86.212515	-158.982400
48111		10.332897	-0.873921	1.099566	0.307872	0.144650	0.031607	-0.395508	-0.274902	0.486084	59.085678	-86.186671	-157.790052
48112		9.872087	-1.118994	0.892934	0.252952	0.101911	0.050125	-0.400146	-0.281006	0.487549	58.299348	-86.181054	-156.853237
48113		9.302395	-1.192687	0.626051	0.256211	0.109989	0.085651	-0.399658	-0.283203	0.485596	57.280969	-86.189526	-155.682631
48114		8.746286	-1.039491	0.512499	0.292023	0.116583	0.124198	-0.400879	-0.278076	0.484619	56.058753	-86.212597	-154.286619
48115		8.274338	-0.709947	0.497818	0.313453	0.168458	0.133330	-0.406494	-0.266846	0.479736	54.407078	-86.220924	-152.448509
48116		8.170806	-0.411650	0.403061	0.335873	0.103749	0.158811	-0.399658	-0.267090	0.479004	53.090676	-86.259633	-150.933049
48117		8.209872	-0.259929	0.442085	0.368800	0.065007	0.203210	-0.409912	-0.271729	0.482666	51.776535	-86.329906	-149.401565
48118		8.388293	-0.024746	0.270470	0.365948	0.047024	0.242380	-0.406006	-0.263184	0.494385	50.317109	-86.421586	-147.725795
48119		8.505665	0.191816	-0.082208	0.383896	0.069307	0.266497	-0.411865	-0.256104	0.481934	48.466139	-86.512441	-145.648086
48120		8.648376	0.299318	-0.205156	0.453543	0.102304	0.287717	-0.405029	-0.264648	0.482666	46.196206	-86.594729	-143.110408
48121		8.794477	0.334133	-0.215720	0.516727	0.118807	0.279515	-0.406494	-0.254883	0.486328	43.780407	-86.660705	-140.391003
48122		8.838440	0.130736	-0.035419	0.551813	0.146254	0.231909	-0.406006	-0.249023	0.485352	41.478051	-86.690041	-137.764784
48123		8.701218	-0.234184	0.159602	0.562342	0.151699	0.162694	-0.414795	-0.251709	0.484863	39.626328	-86.685593	-135.584387
48124		8.474856	-0.619142	0.224568	0.558824	0.133692	0.085643	-0.420654	-0.242920	0.489746	38.501461	-86.658193	-134.133636
48125		8.267331	-0.967081	0.155839	0.575854	0.112221	0.014697	-0.416016	-0.249756	0.487305	38.066638	-86.613982	-133.364713
48126		8.101819	-1.078446	0.000673	0.656852	0.109807	-0.030866	-0.418213	-0.244141	0.484863	38.064856	-86.554772	-132.982702
48127		7.838529	-1.192177	-0.131620	0.771570	0.119164	-0.047534	-0.419189	-0.237793	0.493408	38.190663	-86.485295	-132.663007
48128		7.706345	-1.120762	-0.249596	0.870903	0.108486	-0.029726	-0.418213	-0.235596	0.494629	38.320935	-86.427209	-132.290444
48129		7.673582	-1.072573	-0.240753	0.911069	0.088382	-0.005670	-0.415283	-0.229004	0.497803	38.407003	-86.386528	-131.850808
48130		7.756706	-1.009374	-0.431996	0.881273	0.078946	0.028325	-0.420410	-0.224121	0.489502	38.303676	-86.362448	-131.238262
48131		7.931912	-0.935115	-0.735566	0.891765	0.059610	0.038514	-0.422119	-0.224609	0.488281	38.234051	-86.350344	-130.653677
48132		8.112782	-0.838367	-0.627125	0.940537	0.049944	0.027846	-0.429688	-0.222900	0.491699	38.334350	-86.339148	-130.211198
48133		8.263478	-0.826852	-0.438544	1.016156	0.038494	-0.004740	-0.423340	-0.222656	0.494385	38.759016	-86.321243	-130.050485
48134		8.290289	-0.822411	-0.475495	1.104635	-0.004996	-0.036240	-0.420166	-0.212646	0.500488	39.704655	-86.311733	-130.360932
48135		8.291474	-0.742804	-0.696288	1.178402	-0.057388	-0.053122	-0.424561	-0.205078	0.502930	41.094642	-86.318041	-131.074385
48136		8.586713	-0.731664	-0.903549	1.184774	-0.072115	-0.077886	-0.425781	-0.206787	0.507080	42.754276	-86.320335	-132.054353
48137		8.907649	-0.627374	-1.100475	1.077722	-0.111045	-0.074327	-0.417236	-0.196777	0.497314	44.561603	-86.337881	-133.243796
48138		9.457938	-0.527002	-1.301412	0.993697	-0.136607	-0.073953	-0.418457	-0.190674	0.511963	46.509274	-86.363768	-134.622118
48139		10.072358	-0.269828	-1.191296	0.904596	-0.120946	-0.047545	-0.414551	-0.190430	0.502686	48.150237	-86.391529	-135.744192
48140		10.575845	0.064394	-0.778352	0.760597	-0.123233	-0.029993	-0.416504	-0.193115	0.511963	49.652794	-86.426230	-136.810311
48141		10.893450	0.283958	-0.802408	0.576700	-0.222220	-0.008902	-0.416016	-0.185791	0.511475	51.656981	-86.503749	-138.484423
48142		11.074515	0.556207	-1.132598	0.452472	-0.278177	0.009724	-0.410156	-0.182373	0.512451	54.012150	-86.605608	-140.581420
48143		11.133860	0.556191	-1.743359	0.373987	-0.320535	0.030012	-0.415283	-0.183350	0.512451	56.681434	-86.724815	-143.037747
48144		10.912048	0.275035	-2.238556	0.320599	-0.292578	0.076440	-0.419434	-0.179688	0.519287	59.026712	-86.852054	-145.200036
48145		10.595542	-0.156370	-2.487581	0.307129	-0.231811	0.120509	-0.418945	-0.173828	0.517822	60.724415	-86.978926	-146.721134
48146		10.442915	-0.455000	-2.725944	0.424861	-0.119593	0.175363	-0.415527	-0.178223	0.516357	61.237060	-87.100886	-146.988063
48147		10.794595	-0.638813	-2.205372	0.599787	-0.027943	0.188539	-0.418213	-0.174316	0.517334	60.846473	-87.203607	-146.250076
48148		11.236747	-0.657962	-1.613386	0.471976	-0.093196	0.176325	-0.420166	-0.173340	0.521973	61.126889	-87.318788	-146.257508
48149		12.143691	-0.510775	-0.493220	0.166509	-0.154799	0.195529	-0.411621	-0.175049	0.522705	61.795969	-87.460017	-146.828942
48150		13.124673	-0.096786	0.094741	-0.022538	-0.052278	0.237374	-0.418457	-0.174561	0.509277	60.947415	-87.594717	-145.990013
48151		13.410648	0.916958	0.631919	-0.244385	0.113771	0.281332	-0.414307	-0.176025	0.519287	57.477541	-87.700371	-142.654519
48152		14.160964	1.962966	1.639684	-0.517059	0.224525	0.336630	-0.421387	-0.168701	0.516113	51.752749	-87.784487	-137.219267
48153		14.643388	3.218240	1.594791	-0.726333	0.160257	0.445743	-0.421143	-0.175781	0.516602	45.030023	-87.915463	-130.905434
48154		14.023380	3.599940	2.735161	-0.689610	0.068261	0.523070	-0.421387	-0.170654	0.515381	37.504459	-88.085799	-123.768061
48155		11.963501	2.327492	2.808449	-0.594800	0.041960	0.521845	-0.425293	-0.177246	0.508789	29.011475	-88.231193	-115.608845
48156		10.642282	0.807946	2.490668	-0.365611	0.059485	0.449730	-0.424561	-0.174316	0.511963	20.631597	-88.310805	-107.432004
48157		9.687762	-0.238691	2.680646	-0.193066	0.101669	0.350442	-0.426025	-0.174072	0.502686	13.450358	-88.315417	-100.355490
48158		8.997284	-0.621966	2.582198	0.024428	0.088615	0.255912	-0.427734	-0.170654	0.510498	8.311052	-88.295653	-95.197172
48159		8.709690	-0.723299	2.418658	0.243804	0.067076	0.178403	-0.428711	-0.169922	0.509277	4.936935	-88.270845	-91.678953
48160		8.442278	-0.783273	2.618123	0.356292	0.110389	0.147719	-0.425293	-0.169678	0.508545	2.284133	-88.215523	-88.817909
48161		8.324428	-0.613934	2.716783	0.371501	0.161428	0.139707	-0.430420	-0.174072	0.511475	-0.049473	-88.126224	-86.267315
48162		8.516719	-0.304741	2.459229	0.304909	0.210474	0.144155	-0.434082	-0.173828	0.506104	-2.231798	-88.006453	-83.906194
48163		8.954852	0.058376	2.406979	0.235983	0.314371	0.145153	-0.430664	-0.171143	0.514404	-4.093481	-87.823654	-81.905145
48164		9.543153	0.480144	2.375877	0.138709	0.402635	0.145477	-0.433105	-0.156738	0.512451	-5.590030	-87.589154	-80.325086
48165		10.120700	0.484661	2.383673	0.015850	0.469870	0.164047	-0.437988	-0.167236	0.506592	-7.008420	-87.312908	-78.893368
48166		10.374249	0.598073	2.170713	-0.111404	0.447993	0.178806	-0.440186	-0.169189	0.501953	-8.425645	-87.047159	-77.535515
48167		10.704009	0.603314	2.018608	-0.236567	0.376329	0.160458	-0.446289	-0.161133	0.494629	-9.619826	-86.821466	-76.472522
48168		10.789921	0.910883	1.679750	-0.328174	0.256157	0.101800	-0.444336	-0.165039	0.506348	-10.364046	-86.669149	-75.912567
48169		10.481319	1.199062	1.527917	-0.402927	0.124602	0.041193	-0.447998	-0.169922	0.490723	-10.762459	-86.596330	-75.741883
48170		10.249318	1.603230	1.246434	-0.357611	-0.044712	-0.043308	-0.444092	-0.170166	0.500732	-10.629493	-86.628430	-76.077405
48171		9.848350	1.743558	1.389571	-0.292036	-0.034525	-0.134615	-0.441650	-0.180176	0.493896	-9.555734	-86.663113	-77.317778
48172		9.100649	2.025313	1.241825	-0.288160	-0.016456	-0.201357	-0.448730	-0.188965	0.497314	-7.771726	-86.692113	-79.267155
48173		8.489530	2.057159	1.095137	-0.291481	-0.083957	-0.232558	-0.447754	-0.187500	0.487061	-5.718734	-86.757227	-81.487945
48174		8.042265	1.971111	0.856545	-0.306708	-0.091306	-0.242414	-0.451172	-0.189209	0.495117	-3.487465	-86.822781	-83.895611
48175		7.615114	1.850101	0.792004	-0.297529	-0.069803	-0.232410	-0.440918	-0.190430	0.490479	-1.264286	-86.869932	-86.290051
48176		7.656256	1.677582	0.540618	-0.329467	-0.033960	-0.266091	-0.450439	-0.195801	0.494873	1.363037	-86.891443	-89.107120
48177		7.649832	1.277301	0.309497	-0.303668	0.041489	-0.275631	-0.451904	-0.196289	0.494385	4.071127	-86.861827	-91.990646
48178		7.509462	0.820896	0.134607	-0.273831	0.054480	-0.290409	-0.443115	-0.206055	0.501221	6.882356	-86.816940	-94.960024
48179		7.841959	0.133198	0.270314	-0.226479	0.049367	-0.298555	-0.449951	-0.203857	0.502197	9.713631	-86.765817	-97.922868
48180		7.866202	-0.285326	0.246438	-0.228028	0.018231	-0.298653	-0.438965	-0.203613	0.499512	12.525755	-86.724519	-100.867115
48181		8.051432	-0.626016	0.214712	-0.223138	-0.037514	-0.310881	-0.443604	-0.213623	0.491455	15.515556	-86.703711	-103.987056
48182		8.373464	-0.583574	0.051499	-0.246769	-0.120579	-0.277580	-0.444824	-0.216309	0.494873	18.403862	-86.725241	-107.018482
48183		8.725565	0.065362	-0.200974	-0.290825	-0.178487	-0.217091	-0.446289	-0.217529	0.491455	20.928080	-86.781113	-109.710815
48184		9.032365	0.780217	-0.454226	-0.270996	-0.109132	-0.137538	-0.435303	-0.221191	0.498291	22.525825	-86.811751	-111.463344
48185		9.229444	1.423425	-0.538198	-0.286753	-0.003771	-0.050821	-0.449951	-0.211914	0.500488	22.878928	-86.803871	-111.978708
48186		9.158838	1.734414	-0.571307	-0.372573	0.107563	0.032681	-0.444580	-0.218018	0.500488	21.972312	-86.755758	-111.281214
48187		8.891926	1.875356	-0.637244	-0.489538	0.171123	0.073360	-0.448242	-0.227783	0.505127	20.409888	-86.680921	-109.994329
48188		8.572758	1.803439	-0.679254	-0.608884	0.161604	0.085871	-0.449707	-0.232666	0.495605	18.770894	-86.611980	-108.698684
48189		8.454415	1.755226	-0.869567	-0.737215	0.145184	0.071096	-0.452393	-0.224854	0.478760	17.287381	-86.546927	-107.632831
48190		8.455895	1.546751	-0.959188	-0.832477	0.225027	0.043955	-0.450195	-0.236572	0.485596	15.846539	-86.432419	-106.663800
48191		8.393169	1.344727	-0.749651	-0.942020	0.313758	0.013926	-0.454834	-0.242188	0.477051	14.465468	-86.262469	-105.817915
48192		8.262487	1.136082	-0.478968	-1.001979	0.273603	0.012274	-0.458008	-0.238281	0.475586	13.251665	-86.113934	-105.173398
48193		8.184436	1.056582	-0.485190	-1.011090	0.155933	0.034680	-0.455566	-0.252686	0.469971	12.117887	-86.032652	-104.614786
48194		8.119049	0.857331	-0.954400	-0.999970	0.025814	0.057920	-0.460205	-0.256592	0.471436	11.058617	-86.026879	-104.123877
48195		8.078966	0.826933	-1.429710	-1.013635	-0.080763	0.094822	-0.466064	-0.261475	0.468018	9.837578	-86.083786	-103.479245
48196		8.222300	0.917882	-1.727736	-0.988772	-0.153158	0.126978	-0.456055	-0.261719	0.473633	8.439114	-86.184126	-102.642003
48197		8.858878	0.969838	-1.509103	-0.962700	-0.167847	0.153028	-0.458008	-0.267578	0.472412	6.771418	-86.292638	-101.520643
48198		9.535791	1.187287	-1.019145	-0.956468	-0.048696	0.155639	-0.459473	-0.266602	0.464600	4.915628	-86.331748	-100.206759
48199		10.313399	1.203839	-0.628048	-0.961286	0.076486	0.100171	-0.456543	-0.266357	0.462891	3.437931	-86.293833	-99.275075
48200		11.313821	1.031657	-0.447405	-0.976758	0.142386	0.015826	-0.458740	-0.278076	0.457031	2.696544	-86.215217	-99.089527
48201		11.984268	0.857332	-0.482164	-0.903923	0.071532	-0.062553	-0.464355	-0.284180	0.454834	2.697883	-86.174217	-99.607081
48202		11.789020	0.519583	-0.323603	-0.798427	0.035813	-0.097794	-0.465820	-0.288330	0.451172	3.082800	-86.153283	-100.447930
48203		11.513185	0.137832	-0.226943	-0.648943	-0.066451	-0.114659	-0.467285	-0.291260	0.451416	3.734937	-86.189004	-101.471332
48204		10.920329	-0.251385	-0.784964	-0.567688	-0.121492	-0.134350	-0.466553	-0.303223	0.449951	4.674276	-86.255157	-102.735273
48205		10.505501	-0.402906	-1.222449	-0.521076	-0.253861	-0.142071	-0.460205	-0.299561	0.453369	5.856823	-86.394140	-104.216584
48206		10.082800	-0.263209	-1.582805	-0.496693	-0.431631	-0.111439	-0.468506	-0.308594	0.454346	7.100065	-86.635037	-105.743877
48207		9.984571	0.125013	-2.158747	-0.481207	-0.612487	-0.071639	-0.459961	-0.303711	0.450195	8.416522	-86.978824	-107.335674
48208		10.195226	0.673336	-2.025516	-0.372080	-0.669794	-0.017486	-0.461914	-0.307617	0.454590	9.658540	-87.358625	-108.789355
48209		10.345788	1.092149	-1.390280	-0.342945	-0.601795	0.011724	-0.453369	-0.311523	0.462646	10.742967	-87.700740	-110.068623
48210		10.760162	1.118333	-1.397993	-0.222779	-0.637155	-0.006771	-0.446045	-0.319336	0.465576	12.779891	-88.059728	-112.231392
48211		11.308769	1.049947	-0.893379	-0.040551	-0.474013	-0.097696	-0.455811	-0.314453	0.460938	16.672236	-88.309805	-116.146089
48212		11.556498	0.608200	-0.613549	0.005538	-0.360934	-0.213243	-0.450928	-0.321777	0.474121	23.349345	-88.464638	-122.819392
48213		12.430452	-0.082155	1.090174	-0.181483	-0.245889	-0.326766	-0.440186	-0.325928	0.469238	32.038153	-88.503760	-131.612412
48214		12.954527	-0.414283	2.291739	-0.307186	-0.012110	-0.407928	-0.450195	-0.326660	0.466064	39.091979	-88.374612	-138.841646
48215		12.985312	-0.525830	3.493082	-0.270604	0.152637	-0.475831	-0.447266	-0.325684	0.464600	43.787197	-88.129367	-143.691316
48216		13.003443	-0.631871	4.380301	-0.313315	0.190090	-0.536214	-0.449707	-0.333740	0.461670	47.569810	-87.834168	-147.652588
48217		12.669167	-1.117506	4.540696	-0.243013	0.239514	-0.604310	-0.451416	-0.337891	0.470703	50.489044	-87.483413	-150.710760
48218		11.797168	-1.811900	4.117576	-0.145767	0.156982	-0.582986	-0.447266	-0.341797	0.459473	53.359606	-87.165409	-153.664706
48219		10.329464	-1.241978	3.658876	-0.036145	-0.035313	-0.533411	-0.454590	-0.351563	0.460693	57.073676	-86.926424	-157.401603
48220		9.114404	0.017563	2.891645	0.003723	-0.083784	-0.478117	-0.445801	-0.353271	0.466553	60.424895	-86.717228	-160.752492
48221		8.541833	0.934755	2.351210	-0.048558	0.000344	-0.392326	-0.448730	-0.356934	0.468750	62.249699	-86.520307	-162.605504
48222		8.455456	1.491374	2.129664	-0.120451	0.125178	-0.283696	-0.448730	-0.356201	0.467041	62.416307	-86.343028	-162.838189
48223		8.755882	1.767273	2.002975	-0.200683	0.243465	-0.190206	-0.442383	-0.353516	0.458740	61.234645	-86.181515	-161.766396
48224		9.114095	1.703067	2.011335	-0.189264	0.286835	-0.081549	-0.448486	-0.358643	0.462402	59.401919	-86.059542	-160.034681
48225		9.536258	1.725373	2.041953	-0.206660	0.338566	-0.009944	-0.452148	-0.359131	0.447998	56.990995	-85.952976	-157.733744
48226		9.709397	1.465533	1.748975	-0.155501	0.361037	0.068759	-0.457031	-0.363770	0.454346	54.240163	-85.868802	-155.061676
48227		9.659288	1.241473	1.578794	-0.087941	0.345625	0.142281	-0.458984	-0.367188	0.441406	51.366164	-85.814681	-152.227770
48228		9.755524	0.951462	1.559679	-0.040836	0.347788	0.178127	-0.461182	-0.365723	0.449951	48.415088	-85.764704	-149.288580
48229		10.006327	0.463746	1.521307	0.021821	0.358075	0.173880	-0.456055	-0.359619	0.452148	45.529687	-85.698352	-146.379776
48230		10.376909	-0.087698	1.397973	0.086471	0.318678	0.133384	-0.473389	-0.360352	0.439697	43.210916	-85.621827	-144.001035
48231		10.681988	-0.735839	1.395986	0.114385	0.232959	0.105435	-0.461426	-0.358398	0.440430	41.550936	-85.564892	-142.267559
48232		10.494751	-1.251759	1.355657	0.132429	0.153177	0.097825	-0.469238	-0.361816	0.452881	40.375850	-85.536077	-141.009219
48233		9.726093	-1.463321	1.149608	0.133267	0.067911	0.119521	-0.460205	-0.358887	0.441162	39.478299	-85.551197	-140.029514
48234		8.869067	-1.381341	1.012987	0.140582	0.014190	0.154757	-0.472900	-0.360352	0.453125	38.634009	-85.601569	-139.098376
48235		8.336867	-1.262347	0.813132	0.150356	-0.006281	0.181901	-0.464355	-0.354248	0.446045	37.695918	-85.669851	-138.068314
48236		7.826492	-0.861120	0.658209	0.135931	0.048106	0.220407	-0.471436	-0.361816	0.441406	36.243560	-85.724702	-136.530273
48237		7.936237	-0.727539	0.501903	0.151839	0.020875	0.230779	-0.475342	-0.350830	0.442871	34.805815	-85.792914	-134.998500
48238		7.965183	-0.368832	0.429325	0.206658	0.116947	0.260135	-0.473389	-0.353760	0.441162	32.756764	-85.821157	-132.821795
48239		8.161903	-0.145121	0.309355	0.224348	0.133102	0.287071	-0.485107	-0.358154	0.444824	30.433533	-85.843572	-130.360679
48240		8.583756	0.176066	0.186121	0.271255	0.159953	0.306876	-0.476807	-0.348389	0.447998	27.888545	-85.850452	-127.649762
48241		8.979890	0.248851	0.249524	0.322520	0.254259	0.306802	-0.486084	-0.342285	0.448975	25.045598	-85.799666	-124.611129
48242		9.211663	0.032299	0.313429	0.387479	0.289272	0.285323	-0.488770	-0.343506	0.440674	22.378362	-85.715059	-121.710555
48243		9.355286	-0.346918	0.500162	0.462900	0.249251	0.224844	-0.491211	-0.337402	0.447754	20.385766	-85.630420	-119.443439
48244		9.344232	-0.800019	0.486168	0.517583	0.156359	0.123068	-0.494873	-0.333008	0.448730	19.448618	-85.571771	-118.202720
48245		9.217827	-1.169969	0.405827	0.540164	0.057095	0.019012	-0.494873	-0.338135	0.454102	19.500257	-85.545983	-117.941246
48246		8.924306	-1.327554	0.358840	0.600422	0.001315	-0.062593	-0.477783	-0.331299	0.452881	20.297409	-85.534659	-118.392435
48247		8.615434	-1.403689	0.230686	0.683800	-0.018086	-0.124294	-0.491211	-0.333008	0.462158	21.602020	-85.520271	-119.305201
48248		8.294059	-1.325753	-0.044898	0.772646	-0.015412	-0.134607	-0.485840	-0.333008	0.462646	23.020282	-85.500718	-120.280514
48249		8.052462	-1.218984	0.000511	0.841744	-0.007637	-0.128029	-0.489746	-0.337402	0.457275	24.392040	-85.476581	-121.169908
48250		7.894717	-0.935806	0.142730	0.814917	-0.018168	-0.104847	-0.490234	-0.327393	0.464844	25.625871	-85.462143	-121.936038
48251		7.938285	-0.747344	-0.054864	0.767965	-0.049451	-0.083125	-0.478760	-0.324707	0.462646	26.778947	-85.467839	-122.648496
48252		7.952835	-0.417623	-0.526209	0.789805	-0.099629	-0.071406	-0.482910	-0.323486	0.464600	28.048990	-85.501168	-123.465418
48253		8.081056	-0.263132	-1.093688	0.864879	-0.125264	-0.069030	-0.496582	-0.316162	0.477295	29.445897	-85.546326	-124.366698
48254		8.248326	-0.238251	-1.097869	0.939498	-0.122211	-0.080595	-0.496094	-0.317139	0.471191	30.979290	-85.585064	-125.361689
48255		8.474775	-0.396904	-0.448646	0.944477	-0.104378	-0.092556	-0.486816	-0.306152	0.477295	32.533430	-85.609197	-126.374838
48256		8.598884	-0.565873	-0.133039	0.855009	-0.086784	-0.096774	-0.489014	-0.311279	0.483154	34.011095	-85.621773	-127.362464
48257		8.781373	-0.718885	-0.281188	0.804999	-0.105588	-0.109031	-0.495850	-0.303955	0.477539	35.614767	-85.636904	-128.505393
48258		8.891409	-0.717614	-0.505170	0.826017	-0.130530	-0.117268	-0.480957	-0.305664	0.481934	37.410614	-85.658398	-129.828785
48259		9.210026	-0.593211	-0.406775	0.865253	-0.160258	-0.130187	-0.491455	-0.307129	0.486084	39.453059	-85.685006	-131.377055
48260		9.464944	-0.445660	-0.361191	0.907269	-0.215215	-0.135223	-0.488525	-0.300537	0.488770	41.856005	-85.729359	-133.262516
48261		9.643387	-0.208414	-0.517697	0.923563	-0.254730	-0.128849	-0.475830	-0.293213	0.492432	44.479317	-85.786240	-135.359573
48262		9.774303	-0.002270	-0.979487	0.863838	-0.276537	-0.104255	-0.486084	-0.295166	0.491943	47.130756	-85.855014	-137.518902
48263		10.019650	0.176277	-1.345397	0.798670	-0.288152	-0.059167	-0.481445	-0.286621	0.504883	49.647154	-85.940115	-139.580138
48264		10.078993	0.240761	-1.263799	0.743907	-0.228614	-0.017412	-0.487549	-0.292236	0.514648	51.638624	-86.016482	-141.146364
48265		10.158678	0.206793	-1.272022	0.609097	-0.250523	0.034688	-0.489502	-0.286133	0.510742	53.495760	-86.120204	-142.655228
48266		10.411111	0.008601	-1.512049	0.485087	-0.327632	0.089058	-0.473389	-0.281006	0.516846	55.667722	-86.271501	-144.550587
48267		10.397086	-0.195075	-1.802137	0.448195	-0.370247	0.150962	-0.478271	-0.279785	0.512939	58.003776	-86.460550	-146.631187
48268		10.405745	-0.487697	-1.951656	0.444979	-0.381230	0.182194	-0.486328	-0.282959	0.512695	60.539614	-86.662698	-148.913378
48269		10.479494	-0.680427	-1.596344	0.539659	-0.258579	0.156890	-0.483643	-0.270020	0.524414	62.411184	-86.812875	-150.475439
48270		10.612245	-0.678940	-1.517447	0.542940	-0.240928	0.108613	-0.480957	-0.270996	0.533936	64.522633	-86.930884	-152.275752
48271		11.098030	-0.547769	-0.786173	0.402055	-0.144132	0.062477	-0.483398	-0.262939	0.516602	65.918319	-86.998327	-153.439874
48272		11.667855	-0.091470	0.589939	0.189183	0.018320	0.085850	-0.483154	-0.269287	0.525635	65.506735	-87.039456	-152.916507
48273		12.395154	0.864831	1.412933	-0.041256	0.044065	0.183129	-0.483398	-0.277588	0.531006	64.195557	-87.124049	-151.624456
48274		14.482016	2.372036	1.558692	-0.211553	0.098527	0.311980	-0.486328	-0.272461	0.530762	61.440403	-87.258039	-148.984665
48275		15.550731	4.090960	2.599989	-0.533897	0.351706	0.498276	-0.491699	-0.275146	0.522461	54.262759	-87.393310	-142.102614
48276		15.638454	5.551737	3.765921	-0.607709	0.358387	0.717384	-0.487061	-0.271240	0.520508	44.318434	-87.572777	-132.494488
48277		13.835491	5.694107	3.527419	-0.471305	0.206370	0.764120	-0.495605	-0.275879	0.517090	33.907196	-87.758982	-122.342087
48278		11.456335	2.866251	2.765069	-0.449815	0.195696	0.670673	-0.500000	-0.266113	0.517822	23.496497	-87.847270	-112.178704
48279		9.733731	0.301669	2.479607	-0.336683	0.288181	0.567642	-0.505127	-0.268311	0.510986	13.829424	-87.796174	-102.694880
48280		9.052851	-0.729531	2.674888	-0.075511	0.194695	0.395047	-0.516846	-0.270264	0.516602	7.592005	-87.730675	-96.492962
48281		8.686337	-0.992779	2.649828	0.182616	0.092723	0.207291	-0.513672	-0.258057	0.507080	4.617212	-87.692066	-93.408242
48282		8.961838	-1.154887	2.774503	0.298924	0.052907	0.072758	-0.510498	-0.265137	0.518066	3.733930	-87.667060	-92.349783
48283		9.043283	-0.924661	2.562647	0.275059	0.061785	-0.012236	-0.516602	-0.264893	0.510742	4.019010	-87.632888	-92.474535
48284		9.490982	-0.875129	2.426849	0.201245	0.096321	-0.050401	-0.505859	-0.268066	0.523193	4.746389	-87.577773	-93.084116
48285		9.807724	-0.670984	2.465245	0.107619	0.194446	-0.042830	-0.521973	-0.261475	0.514160	5.165991	-87.466271	-93.439553
48286		9.687237	-0.189223	2.469849	-0.011763	0.304297	-0.009788	-0.516113	-0.269043	0.515625	4.967191	-87.294153	-93.244270
48287		9.599217	0.343875	2.062542	-0.083405	0.319445	-0.010243	-0.519775	-0.256592	0.511963	4.736129	-87.112896	-93.057937
48288		9.791347	0.609891	1.766120	-0.112022	0.324124	-0.012559	-0.525879	-0.259766	0.513428	4.540828	-86.929206	-92.923600
48289		9.863254	0.748364	1.957761	-0.178052	0.300162	-0.010358	-0.523438	-0.260254	0.505371	4.317682	-86.758898	-92.799446
48290		10.183968	0.868724	2.313165	-0.265656	0.184224	-0.013969	-0.522949	-0.261719	0.508789	4.186287	-86.654996	-92.817214
48291		10.145823	1.080225	2.267284	-0.290193	0.081006	-0.043903	-0.524658	-0.272949	0.506592	4.398965	-86.608448	-93.193975
48292		10.021282	1.542334	1.895514	-0.312996	-0.002314	-0.086597	-0.526855	-0.278809	0.500977	5.074129	-86.607559	-94.046841
48293		9.813533	2.139226	1.468212	-0.285310	-0.132055	-0.138135	-0.526611	-0.283203	0.506592	6.394168	-86.676544	-95.530061
48294		9.234695	2.448490	1.356580	-0.217316	-0.201015	-0.188122	-0.525879	-0.267822	0.505615	8.420295	-86.778674	-97.681009
48295		8.828020	2.696125	1.311812	-0.209829	-0.223460	-0.241840	-0.523193	-0.280518	0.505127	11.174960	-86.882854	-100.557457
48296		8.282793	2.417135	1.001388	-0.192553	-0.172904	-0.262805	-0.526367	-0.286133	0.511963	14.221930	-86.948067	-103.716037
48297		7.991784	2.344495	1.018815	-0.227097	-0.165062	-0.269350	-0.523926	-0.285889	0.508057	17.406613	-86.998506	-107.032624
48298		7.936265	2.019740	0.879218	-0.221122	-0.052604	-0.271909	-0.522705	-0.288574	0.505127	20.299488	-86.978131	-110.052994
48299		8.115283	1.357326	0.326684	-0.188347	-0.015933	-0.245306	-0.516846	-0.288086	0.507080	22.735935	-86.936451	-112.598106
48300		8.315300	0.708060	0.077977	-0.165783	0.035845	-0.236306	-0.525635	-0.297363	0.509277	24.810278	-86.864353	-114.767189
48301		8.561051	0.066261	0.047646	-0.084042	0.106080	-0.227002	-0.522705	-0.298340	0.511963	26.416988	-86.754625	-116.421778
48302		9.092813	-0.775337	0.485685	-0.035885	0.131860	-0.238087	-0.532715	-0.297363	0.506104	27.931817	-86.626295	-117.956307
48303		9.334466	-0.957463	0.553720	-0.128066	0.082620	-0.268752	-0.521484	-0.288086	0.509766	29.749511	-86.511788	-119.847929
48304		9.170352	-0.800316	0.354531	-0.171066	0.047191	-0.253946	-0.518555	-0.312012	0.511719	31.486874	-86.415503	-121.683419
48305		9.236870	-0.282179	0.263676	-0.146744	0.016072	-0.203864	-0.521973	-0.300781	0.509521	32.910228	-86.346647	-123.191020
48306		9.100879	0.355416	0.077705	-0.112201	0.060633	-0.144457	-0.524902	-0.306885	0.507568	33.654411	-86.273218	-123.997815
48307		8.995981	0.744867	0.122297	-0.101579	0.138136	-0.093109	-0.519775	-0.315674	0.507324	33.626641	-86.178925	-124.025469
48308		8.652024	1.076125	0.152625	-0.118159	0.167285	-0.073001	-0.529053	-0.310059	0.513672	33.323397	-86.076939	-123.786030
48309		8.221971	1.219970	0.105574	-0.160284	0.173742	-0.084415	-0.523193	-0.314209	0.498779	33.050752	-85.968318	-123.601941
48310		7.762285	1.247296	-0.042574	-0.195800	0.142901	-0.094936	-0.522949	-0.307617	0.510254	32.981506	-85.871067	-123.641610
48311		7.639977	1.331410	-0.191708	-0.201748	0.104211	-0.102597	-0.527100	-0.315674	0.498535	33.115008	-85.790126	-123.888521
48312		7.813836	1.414912	-0.206069	-0.173309	0.116965	-0.100051	-0.536133	-0.322021	0.502930	33.196573	-85.703703	-124.066479
48313		8.252544	1.605351	-0.209923	-0.179061	0.159715	-0.086635	-0.536621	-0.313721	0.503418	33.002784	-85.601100	-123.972176
48314		8.698644	1.798369	-0.267356	-0.266579	0.185378	-0.059343	-0.537109	-0.317871	0.500488	32.506922	-85.494421	-123.624579
48315		9.161202	1.857646	-0.346390	-0.376418	0.162702	0.017714	-0.545166	-0.320801	0.492188	31.578514	-85.421972	-122.906751
48316		9.587523	2.015468	-0.495418	-0.451272	0.074685	0.113117	-0.543701	-0.322021	0.494873	30.378389	-85.419742	-121.958697
48317		9.773139	2.178979	-0.456117	-0.514375	0.017113	0.206473	-0.539551	-0.324219	0.489990	28.748731	-85.470823	-120.616680
48318		9.654131	2.220367	-0.224373	-0.488511	-0.011237	0.267225	-0.542969	-0.332031	0.492432	26.809645	-85.549091	-118.948872
48319		9.376199	1.966161	-0.067573	-0.497188	-0.021940	0.266745	-0.545654	-0.328857	0.491211	24.829221	-85.628292	-117.245434
48320		8.837875	1.512060	-0.367586	-0.554126	-0.059236	0.217978	-0.542969	-0.330322	0.488525	23.215948	-85.711462	-115.942390
48321		8.421718	0.842487	-0.761250	-0.597192	-0.144284	0.198186	-0.536865	-0.323242	0.490723	21.900720	-85.832743	-114.963829
48322		8.358672	0.448032	-0.972655	-0.602673	-0.112661	0.217065	-0.550537	-0.332764	0.485107	20.294471	-85.939172	-113.696069
48323		8.345329	0.426795	-0.585591	-0.579990	-0.045155	0.209141	-0.542236	-0.330566	0.481689	18.495081	-86.004798	-112.222513
48324		8.503159	0.527459	-0.310504	-0.527838	0.016298	0.179863	-0.551758	-0.328857	0.482910	16.770649	-86.028689	-110.793522
48325		8.904767	0.624336	-0.183232	-0.475099	0.025868	0.170987	-0.541016	-0.334961	0.479492	15.095325	-86.042811	-109.384202
48326		9.708773	0.677014	-0.263593	-0.428403	-0.012310	0.191749	-0.553711	-0.339844	0.478027	13.356786	-86.078340	-107.884043
48327		10.213162	0.752024	-0.337680	-0.452609	0.023677	0.183277	-0.550293	-0.333740	0.478516	11.570676	-86.089285	-106.350843
48328		10.616684	0.767188	-0.232770	-0.473952	0.099765	0.157076	-0.551758	-0.334473	0.485840	9.883982	-86.051684	-104.928828
48329		10.620053	0.556658	-0.038496	-0.480471	0.147591	0.117638	-0.552734	-0.340820	0.474121	8.471973	-85.980518	-103.786513
48330		10.540288	0.254438	0.029264	-0.423067	0.099093	0.086034	-0.558350	-0.339844	0.480469	7.453084	-85.933022	-103.004542
48331		10.554464	0.049675	0.010581	-0.300242	0.003702	0.072970	-0.552490	-0.345703	0.474365	6.704884	-85.937661	-102.424071
48332		10.520761	-0.035728	-0.150262	-0.230669	-0.070359	0.045744	-0.561035	-0.342773	0.476074	6.293415	-85.982644	-102.140540
48333		10.578622	0.121778	-0.371819	-0.329127	-0.083877	0.011685	-0.557129	-0.344727	0.477051	6.094944	-86.032743	-102.127778
48334		10.388519	0.330531	-1.036605	-0.511139	-0.130089	-0.009754	-0.554443	-0.352783	0.473145	6.022754	-86.108271	-102.345461
48335		10.473920	0.781980	-1.593483	-0.576843	-0.209955	0.006772	-0.550537	-0.345947	0.474854	5.831543	-86.229927	-102.482226
48336		10.306177	1.281366	-1.675052	-0.477396	-0.181438	0.004920	-0.560547	-0.355225	0.474609	5.702350	-86.335698	-102.623378
48337		9.754145	1.631754	-1.487425	-0.444966	-0.205566	-0.010976	-0.557129	-0.349609	0.462646	5.745023	-86.453870	-102.918745
48338		9.629206	2.022842	-1.749477	-0.476051	-0.276244	-0.049104	-0.554688	-0.355957	0.478027	6.236058	-86.610456	-103.680448
48339		9.633151	1.888178	-2.258152	-0.579298	-0.271011	-0.086464	-0.555420	-0.363525	0.474609	7.077743	-86.760548	-104.853170
48340		10.156537	1.582111	-2.412044	-0.610969	-0.244184	-0.125954	-0.551025	-0.363525	0.473389	8.391305	-86.891601	-106.515846
48341		10.738180	1.310306	-1.461798	-0.326513	-0.088818	-0.208567	-0.558105	-0.374512	0.479492	10.556550	-86.923698	-108.868757
48342		11.319390	1.078095	-0.005235	0.174003	-0.100822	-0.242385	-0.556152	-0.363281	0.477539	13.460599	-86.953359	-111.673615
48343		11.314191	0.491898	0.473797	0.201884	-0.016482	-0.363729	-0.556885	-0.368652	0.479492	17.389046	-86.908496	-115.489022
48344		11.766239	-0.290676	1.063220	0.105033	-0.012098	-0.465718	-0.546631	-0.371582	0.474365	22.125893	-86.826517	-120.169163
48345		13.529343	-1.228562	2.152047	0.216844	-0.031088	-0.495312	-0.556152	-0.368896	0.486572	26.987368	-86.726026	-124.911052
48346		14.083703	-2.474396	3.189648	0.258562	0.178115	-0.557813	-0.555908	-0.371338	0.475830	31.056226	-86.482971	-128.835143
48347		13.623293	-2.898906	3.115077	0.290195	0.246748	-0.582912	-0.552246	-0.371094	0.486816	34.435559	-86.184460	-132.051938
48348		12.006151	-2.066605	3.568300	0.244973	0.304604	-0.530554	-0.558594	-0.382813	0.478027	36.711633	-85.866700	-134.189341
48349		10.785988	-0.710119	3.052891	0.288149	0.304851	-0.452426	-0.555908	-0.378662	0.481934	38.226375	-85.571423	-135.539911
48350		9.887085	0.186299	2.984750	0.289784	0.287483	-0.328487	-0.557373	-0.381104	0.486328	38.982126	-85.326206	-136.128055
48351		9.368326	0.764502	3.203217	0.121732	0.202869	-0.172411	-0.557861	-0.376221	0.478027	39.113118	-85.174733	-136.186664
48352		8.938581	1.308890	2.874005	0.028122	0.217961	-0.079159	-0.561523	-0.387939	0.479980	38.655747	-85.049917	-135.707984
48353		8.525150	1.702744	2.424386	-0.038111	0.292144	0.025955	-0.560547	-0.378906	0.483398	37.343049	-84.928214	-134.409322
48354		8.421589	2.006315	2.341653	-0.058978	0.396657	0.072757	-0.566895	-0.389160	0.478271	35.468885	-84.770917	-132.557968
48355		8.486271	2.011147	2.176032	-0.004291	0.462792	0.081676	-0.566406	-0.388672	0.474609	33.458852	-84.579883	-130.538848
48356		8.846205	1.894968	2.221942	0.086921	0.392906	0.058775	-0.567139	-0.389648	0.468262	31.978392	-84.409639	-128.997903
48357		9.404665	1.522773	2.302336	0.119453	0.402799	0.010819	-0.573730	-0.381592	0.468506	30.801489	-84.217047	-127.743550
48358		10.158076	1.118573	2.635117	0.113928	0.413566	-0.053876	-0.576660	-0.380371	0.468018	29.987480	-83.998034	-126.855943
48359		10.370762	0.829030	2.902674	0.078879	0.381566	-0.107341	-0.577881	-0.382568	0.466309	29.531660	-83.778950	-126.349213
48360		10.337633	0.543901	2.569910	0.063684	0.333801	-0.148686	-0.579590	-0.388916	0.467285	29.410927	-83.571511	-126.187338
48361		10.189662	0.412623	2.492623	0.117723	0.250851	-0.143037	-0.582275	-0.386963	0.463867	29.497482	-83.407303	-126.203710
48362		10.020645	0.354885	2.678898	0.130647	0.141836	-0.137231	-0.589355	-0.387451	0.466064	29.834841	-83.298706	-126.464283
48363		10.104371	0.267046	2.419929	0.153914	0.065579	-0.104014	-0.579346	-0.381104	0.458008	30.213741	-83.237583	-126.754159
48364		10.352613	0.018757	2.309540	0.194599	0.038829	-0.059978	-0.585938	-0.385986	0.471680	30.500895	-83.201892	-126.927341
48365		10.021884	-0.105452	2.085235	0.202025	-0.019660	0.025189	-0.586426	-0.386230	0.464355	30.573167	-83.220145	-126.880698
48366		9.576535	-0.158879	1.867922	0.120326	-0.135203	0.115047	-0.585205	-0.382324	0.472168	30.515270	-83.321211	-126.749283
48367		9.331142	-0.200197	1.915415	0.134442	-0.125093	0.234809	-0.586670	-0.383057	0.472656	29.913719	-83.452078	-126.063301
48368		8.789409	-0.049322	1.820410	0.093886	-0.046948	0.312493	-0.592285	-0.373779	0.470947	28.732216	-83.564105	-124.816360
48369		8.630638	0.182923	1.544088	0.034601	-0.090785	0.375704	-0.590820	-0.369873	0.474854	27.279464	-83.712391	-123.331806
48370		8.698868	0.348044	1.433637	0.008703	-0.088884	0.400577	-0.587402	-0.371582	0.476807	25.626249	-83.861209	-121.660150
48371		8.710312	0.295651	1.201653	-0.020976	-0.059886	0.395247	-0.584229	-0.373535	0.481445	23.829187	-83.988453	-119.862174
48372		8.897307	0.137415	1.000255	-0.023904	-0.102249	0.362521	-0.593018	-0.364014	0.474121	22.220380	-84.124697	-118.254791
48373		9.255140	-0.065030	0.773747	0.005345	-0.129166	0.320332	-0.590576	-0.358643	0.475830	20.823945	-84.262276	-116.845226
48374		9.250450	-0.174989	0.789860	0.074329	-0.118172	0.259376	-0.586914	-0.373779	0.479492	19.721948	-84.378453	-115.691363
48375		9.137168	-0.289158	0.880402	0.140369	-0.120689	0.181341	-0.596191	-0.353027	0.485352	19.045250	-84.479595	-114.927795
48376		8.966493	-0.492463	0.816210	0.207400	-0.125892	0.095828	-0.593750	-0.365967	0.488770	18.888496	-84.566872	-114.647338
48377		8.720536	-0.735627	0.919399	0.261315	-0.110143	0.042492	-0.592285	-0.360107	0.485596	19.024122	-84.635898	-114.630329
48378		8.530439	-0.916730	0.929967	0.285745	-0.101279	0.003430	-0.598145	-0.363770	0.484375	19.394077	-84.692564	-114.833887
48379		8.288905	-1.097194	0.843203	0.348285	-0.109221	-0.002654	-0.586426	-0.352783	0.485596	19.849674	-84.752421	-115.088172
48380		8.079385	-1.094354	0.797868	0.438154	-0.111133	0.017167	-0.594238	-0.351074	0.487305	20.260568	-84.816818	-115.245156
48381		7.928990	-0.976171	0.502001	0.501557	-0.138305	0.027669	-0.593262	-0.353027	0.496338	20.704578	-84.898006	-115.399579
48382		7.962690	-0.947392	0.259741	0.540777	-0.169832	0.038055	-0.592773	-0.350342	0.496582	21.199916	-84.997884	-115.582312
48383		8.041326	-0.851245	0.374993	0.534344	-0.170039	0.033183	-0.595947	-0.345947	0.501953	21.727512	-85.096901	-115.801732
48384		8.054604	-0.896536	0.404532	0.556597	-0.137958	0.026071	-0.600098	-0.340820	0.501953	22.254382	-85.176997	-116.007007
48385		8.101091	-1.008477	0.090505	0.649781	-0.122181	0.017165	-0.592773	-0.340088	0.502686	22.853747	-85.246791	-116.232023
48386		8.281161	-1.042708	0.047342	0.801987	-0.144475	-0.010421	-0.596924	-0.339844	0.509766	23.800507	-85.321646	-116.717538
48387		8.500274	-1.139969	0.508352	0.893152	-0.150927	-0.055769	-0.592529	-0.332520	0.518311	25.126857	-85.388464	-117.531987
48388		8.750525	-1.407157	0.708015	0.901264	-0.145215	-0.094338	-0.593262	-0.327881	0.518311	26.727214	-85.440832	-118.616092
48389		8.962797	-1.622018	0.133146	0.924527	-0.176100	-0.120239	-0.596436	-0.322754	0.516602	28.635758	-85.499457	-119.996394
48390		9.261733	-1.629136	-0.236410	0.937173	-0.237900	-0.142696	-0.588379	-0.312744	0.528320	30.975675	-85.578201	-121.801542
48391		9.427316	-1.379496	-0.122133	0.923636	-0.287993	-0.172308	-0.597900	-0.319092	0.532471	33.767069	-85.665904	-124.067503
48392		9.459183	-1.043639	-0.020608	0.932939	-0.333813	-0.203020	-0.589355	-0.313965	0.539795	37.070539	-85.755371	-126.840992
48393		9.275745	-0.595166	-0.332646	0.974640	-0.377682	-0.213295	-0.588135	-0.316406	0.532959	40.798310	-85.847964	-130.016012
48394		9.209633	-0.178625	-0.651819	1.001814	-0.406294	-0.241653	-0.581787	-0.302734	0.547852	45.016146	-85.925048	-133.666080
48395		9.293216	0.093427	-0.692270	1.005765	-0.362572	-0.236793	-0.584229	-0.302002	0.549805	49.066973	-85.968171	-137.146508
48396		9.412956	0.342326	-0.637165	1.010597	-0.246781	-0.233577	-0.581299	-0.310547	0.565186	52.427844	-85.954582	-139.932124
48397		9.635341	0.461927	-0.496000	1.034856	-0.147836	-0.202667	-0.575195	-0.301270	0.559326	54.972915	-85.911786	-141.886347
48398		10.126564	0.521859	-0.433544	1.063066	-0.120791	-0.161106	-0.583496	-0.292725	0.566650	57.131488	-85.874282	-143.436683
48399		10.349172	0.467193	-0.154132	1.077421	-0.079031	-0.111903	-0.585449	-0.287354	0.559570	58.774174	-85.844493	-144.461889
48400		10.302031	0.289343	0.306778	1.063094	-0.060107	-0.069862	-0.585449	-0.275146	0.572754	60.102332	-85.827862	-145.179716
48401		10.102431	0.064960	0.106852	1.039729	-0.076344	-0.051165	-0.579590	-0.274902	0.578613	61.442649	-85.824087	-145.923447
48402		9.720325	-0.205611	-0.154425	1.043871	-0.065230	-0.044733	-0.585693	-0.269775	0.580811	62.689274	-85.819206	-146.570596
48403		9.319891	-0.463385	-0.645118	1.045716	-0.113188	-0.043542	-0.579346	-0.265381	0.581055	64.261084	-85.826218	-147.543000
48404		9.147777	-0.740511	-1.018157	1.056670	-0.116921	-0.045777	-0.582764	-0.264404	0.582764	65.883551	-85.830860	-148.559663
48405		8.946279	-0.999203	-1.087179	1.062861	-0.085206	-0.047256	-0.583008	-0.247559	0.581543	67.280160	-85.825698	-149.346544
48406		8.846500	-1.290768	-1.156092	1.026158	-0.079752	-0.047021	-0.582764	-0.254395	0.583740	68.619212	-85.818037	-150.096619
48407		8.815782	-1.382608	-1.467627	0.952975	-0.108564	-0.040620	-0.576904	-0.248779	0.591064	70.099591	-85.818383	-151.030632
48408		9.319859	-1.289676	-1.336769	0.939232	-0.093350	-0.026735	-0.587158	-0.236572	0.597412	71.431071	-85.821675	-151.823112
48409		9.860867	-0.771955	-1.324931	0.939414	0.003853	0.006816	-0.580811	-0.230469	0.593506	71.949958	-85.824819	-151.800858
48410		10.933796	0.066212	-0.725330	0.839344	0.206132	0.056639	-0.580811	-0.228516	0.598145	70.790790	-85.818033	-150.153486
48411		12.031072	1.025066	0.419361	0.581792	0.579614	0.132335	-0.588867	-0.225098	0.595215	66.568193	-85.768102	-145.582404
48412		13.239154	2.257618	1.947669	0.396317	0.781787	0.241677	-0.592285	-0.216553	0.588623	60.625520	-85.693347	-139.392606
48413		14.983010	3.756141	1.805212	0.374847	0.668161	0.358501	-0.601563	-0.215088	0.590088	55.126006	-85.664229	-133.659211
48414		16.810712	5.277542	2.356362	0.331818	0.753513	0.452187	-0.601563	-0.208984	0.580322	48.798452	-85.603033	-127.119633
48415		16.148879	6.002023	3.513910	0.112368	0.828251	0.559711	-0.618408	-0.198242	0.578613	41.648582	-85.497094	-119.880781
48416		14.868108	6.436540	4.016030	-0.015921	0.691408	0.625541	-0.608887	-0.201904	0.575195	35.036767	-85.409772	-113.254186
48417		12.497391	4.666109	4.211666	-0.101713	0.487001	0.615541	-0.619141	-0.194824	0.570557	29.453158	-85.363071	-107.708074
48418		11.108941	2.177284	2.704259	0.132593	0.479163	0.531915	-0.622559	-0.193848	0.569580	24.719372	-85.258678	-102.878936
48419		10.547529	-0.368098	2.457871	0.668641	0.659841	0.312168	-0.628418	-0.186035	0.570313	21.452953	-84.982249	-99.213309
48420		10.395855	-2.608638	3.803506	1.028118	0.700032	0.051152	-0.638428	-0.182861	0.567627	20.193829	-84.619216	-97.354218
48421		10.624968	-4.717600	3.871015	1.090462	0.514159	-0.176604	-0.642822	-0.176514	0.551270	20.746525	-84.309250	-97.278935
48422		10.222934	-5.599541	2.384240	1.136732	0.363190	-0.285861	-0.636963	-0.173584	0.565674	22.163628	-84.057101	-98.045534
48423		9.269975	-4.120708	1.351330	1.336392	0.385705	-0.320666	-0.639160	-0.158447	0.570557	23.721509	-83.783332	-98.839342
48424		7.873478	-1.633872	1.346457	1.638298	0.633172	-0.285123	-0.654297	-0.142578	0.559814	24.677188	-83.386888	-98.853431
48425		7.066389	0.433790	1.769945	1.809935	0.745384	-0.201667	-0.646484	-0.148193	0.552734	25.100500	-82.952178	-98.232481
48426		7.211275	1.630827	1.728164	1.895552	0.771687	-0.130829	-0.657715	-0.144287	0.557861	25.255768	-82.521538	-97.291154
48427		7.785000	2.210196	1.960794	1.953727	0.756602	-0.063929	-0.658203	-0.134521	0.550049	25.260219	-82.115161	-96.163245
48428		8.561451	2.441102	2.392383	1.919839	0.666455	0.020968	-0.656250	-0.116211	0.544434	25.146370	-81.776115	-94.934273
48429		9.377656	2.718257	2.432977	1.741240	0.615980	0.102114	-0.665283	-0.111084	0.547119	24.781407	-81.482160	-93.554114
48430		10.176763	2.962657	1.981510	1.591430	0.586302	0.171494	-0.671143	-0.096924	0.539307	24.201553	-81.218484	-92.042173
48431		10.418284	3.096177	1.753036	1.584448	0.505134	0.218105	-0.675781	-0.088379	0.534912	23.637989	-81.005921	-90.550034
48432		10.331735	3.223680	1.794224	1.570423	0.420591	0.206027	-0.675537	-0.076416	0.538330	23.271534	-80.833128	-89.264542
48433		9.506396	3.107584	1.555014	1.586443	0.357320	0.121814	-0.679688	-0.059326	0.536865	23.298754	-80.674020	-88.368315
48434		8.942750	2.726017	1.556122	1.638705	0.328259	-0.012343	-0.681396	-0.064697	0.537109	23.834828	-80.500074	-87.956722
48435		8.598779	2.398131	1.829035	1.691725	0.379096	-0.140050	-0.677002	-0.051270	0.534424	24.717833	-80.270427	-87.866331
48436		8.569062	2.068644	1.970425	1.717909	0.418732	-0.243226	-0.683105	-0.045166	0.536133	25.849260	-79.995182	-88.012355
48437		8.666008	1.809400	1.812131	1.731343	0.429474	-0.283135	-0.691895	-0.041748	0.527344	27.049348	-79.703915	-88.220880
48438		8.759119	1.547540	1.466467	1.749139	0.425242	-0.266504	-0.688965	-0.028320	0.520264	28.184616	-79.418372	-88.352840
48439		8.808314	1.290462	1.245592	1.762668	0.396325	-0.214241	-0.696777	-0.013672	0.531250	29.196450	-79.161502	-88.351884
48440		8.802081	1.017532	1.027967	1.785130	0.368622	-0.134919	-0.694092	-0.019287	0.510254	30.038743	-78.940767	-88.164637
48441		8.678995	0.771864	0.924926	1.817218	0.362808	-0.053951	-0.698486	-0.004395	0.515625	30.691228	-78.747005	-87.765552
48442		8.654442	0.665486	0.781162	1.849914	0.339753	0.011364	-0.703125	0.003174	0.517090	31.235195	-78.584500	-87.235937
48443		8.917203	0.880297	0.619251	1.894441	0.326471	0.081943	-0.709473	0.009277	0.497803	31.651907	-78.450604	-86.550660
48444		9.250016	1.509745	0.696714	1.916136	0.304747	0.165555	-0.705322	0.021240	0.505615	31.920267	-78.353237	-85.700461
48445		9.316323	2.286073	0.882318	1.921015	0.298082	0.241369	-0.698486	0.036621	0.507080	32.024927	-78.282771	-84.680495
48446		9.101857	2.873094	0.964047	1.885449	0.290484	0.280681	-0.710205	0.044189	0.493408	32.036465	-78.228077	-83.585459
48447		8.876380	3.308815	0.821853	1.802353	0.255723	0.284505	-0.703857	0.067627	0.494141	32.043478	-78.191539	-82.534796
48448		8.625041	3.608999	0.822209	1.696385	0.244654	0.249151	-0.715576	0.069580	0.494629	32.094444	-78.149662	-81.590316
48449		8.496432	3.884188	0.802677	1.569994	0.256525	0.202778	-0.705078	0.074951	0.483643	32.163477	-78.088165	-80.738726
48450		8.606991	4.045522	0.842214	1.456264	0.275184	0.164013	-0.713867	0.091797	0.486328	32.237652	-78.005928	-79.958083
48451		8.717746	4.165329	0.688984	1.370196	0.274328	0.152655	-0.707031	0.094482	0.474365	32.290967	-77.920889	-79.206982
48452		9.041115	4.350082	0.594705	1.277801	0.250234	0.157668	-0.716309	0.105713	0.476563	32.323107	-77.849083	-78.487361
48453		9.301648	4.419352	0.590262	1.133347	0.232740	0.177416	-0.715332	0.114258	0.475586	32.252840	-77.791831	-77.748261
48454		9.371561	4.439684	0.910891	0.936906	0.188828	0.204173	-0.712646	0.103760	0.462402	32.079732	-77.763615	-77.018084
48455		9.217943	4.415049	0.904998	0.730710	0.046262	0.226294	-0.715820	0.119385	0.467285	31.934021	-77.811046	-76.437736
48456		8.939815	4.367959	0.196537	0.640271	0.023403	0.237584	-0.708496	0.125977	0.476074	31.744976	-77.872549	-75.865197
48457		8.508784	4.375824	0.254061	0.607718	0.130389	0.206603	-0.716309	0.128906	0.469727	31.450326	-77.872134	-75.204773
48458		8.107833	4.329914	0.605718	0.547705	0.163773	0.178472	-0.718994	0.132813	0.461426	31.145647	-77.846174	-74.568137
48459		7.902285	4.219877	0.918386	0.502333	0.163078	0.160976	-0.715088	0.139404	0.462646	30.852142	-77.814790	-73.970549
48460		7.902242	3.947653	1.043373	0.447235	0.184811	0.153443	-0.721436	0.141113	0.459961	30.523823	-77.769699	-73.368367
48461		8.137288	3.484529	1.094045	0.363322	0.215342	0.174445	-0.712646	0.145752	0.448486	30.056647	-77.714795	-72.674363
48462		8.486166	3.111849	1.176577	0.249042	0.220415	0.219578	-0.723633	0.143311	0.457275	29.426468	-77.668671	-71.879140
48463		8.761958	2.758084	1.450068	0.157037	0.245438	0.258957	-0.724609	0.153076	0.442871	28.620894	-77.618936	-70.959451
48464		9.066197	2.515402	1.696891	0.082750	0.259296	0.291596	-0.724854	0.150391	0.451660	27.695007	-77.567966	-69.958656
48465		9.273246	2.377938	1.718525	0.030512	0.201924	0.317300	-0.721436	0.149170	0.453125	26.747763	-77.549528	-68.967825
48466		9.567200	2.313778	1.511565	-0.007791	0.128970	0.328265	-0.714600	0.150391	0.448730	25.845624	-77.567845	-68.044306
48467		9.783771	2.125548	1.305216	-0.057621	0.069036	0.329727	-0.723145	0.152832	0.447510	24.967659	-77.614489	-67.176239
48468		9.921159	1.998050	1.238454	-0.105834	0.049722	0.330712	-0.722656	0.148682	0.443604	24.081386	-77.668541	-66.326733
48469		9.899152	1.841757	1.078899	-0.180719	0.042777	0.327536	-0.718994	0.164063	0.444824	23.152114	-77.722619	-65.478688
48470		9.842199	1.882736	1.178254	-0.250871	0.031363	0.306085	-0.722656	0.154297	0.446777	22.246601	-77.775126	-64.694849
48471		9.596770	2.035706	1.254584	-0.307511	0.005158	0.280309	-0.727539	0.166260	0.448730	21.382908	-77.833448	-63.988569
48472		9.428962	2.289602	1.036851	-0.353303	-0.036345	0.257098	-0.720459	0.164063	0.451172	20.590660	-77.907137	-63.380942
48473		9.274922	2.650650	0.718830	-0.395684	-0.060231	0.239037	-0.711182	0.161133	0.450439	19.825150	-77.988242	-62.827096
48474		9.091482	2.846446	0.561315	-0.383011	-0.103727	0.224826	-0.715820	0.174561	0.446533	19.141779	-78.088791	-62.348497
48475		9.072396	2.995207	0.452328	-0.364367	-0.170536	0.201489	-0.716797	0.167236	0.454346	18.569959	-78.220000	-61.974644
