// General information: 
//  MT Manager version: 2022.2.0 
//  XDA version: 2022.2.0 build 7381 rev 124627 built on 2023-07-19
// Device information: 
//  DeviceId: 00B4BCF6
//  ProductCode: MTW2-3A7G6
//  Firmware Version: 4.6.0
//  Hardware Version: 2.0.0
// Device settings: 
//  Filter Profile: human(46.1)
//  Option Flags: Orientation Smoother Disabled, Position/Velocity Smoother Disabled, Continuous Zero Rotation Update Disabled, AHS Disabled, ICC Disabled
// Coordinate system: ENU
PacketCounter	SampleTimeFine	Acc_X	Acc_Y	Acc_Z	Gyr_X	Gyr_Y	Gyr_Z	Mag_X	Mag_Y	Mag_Z	Roll	Pitch	Yaw
40100		-5.003969	-3.047998	7.945899	0.000941	0.004846	-0.004119	-0.479492	-0.070801	-0.516846	-20.779488	30.186765	-143.186197
40101		-4.984965	-3.010645	7.946768	-0.002734	0.005263	-0.003387	-0.489258	-0.072998	-0.512207	-20.779998	30.185986	-143.186332
40102		-4.954738	-3.026500	7.942321	-0.001039	0.005406	-0.003091	-0.481689	-0.071777	-0.512451	-20.779677	30.185633	-143.189015
40103		-4.982264	-3.044898	7.953185	-0.002733	0.005263	-0.003387	-0.483398	-0.071045	-0.516357	-20.780187	30.184854	-143.189150
40104		-4.970249	-3.050672	7.921027	-0.003139	0.008057	-0.001438	-0.478760	-0.061523	-0.517578	-20.780886	30.186304	-143.191426
40105		-4.960586	-3.041567	7.960549	-0.003467	0.005282	-0.000041	-0.485352	-0.070313	-0.517334	-20.780777	30.186216	-143.189492
40106		-4.992811	-3.007664	7.885355	-0.006485	0.011249	-0.002104	-0.483154	-0.068848	-0.516357	-20.784059	30.189416	-143.189122
40107		-5.005994	-3.002749	7.916452	-0.002689	0.008742	-0.003461	-0.484863	-0.071045	-0.513672	-20.784978	30.190486	-143.190121
40108		-4.985228	-3.046996	7.950523	-0.006649	0.009861	-0.001405	-0.482910	-0.067871	-0.511719	-20.787895	30.192910	-143.191648
40109		-4.993826	-3.027859	7.962288	-0.001443	0.008201	-0.001142	-0.483154	-0.068848	-0.510498	-20.787314	30.194162	-143.191083
40110		-4.989950	-3.014060	7.942343	-0.004953	0.010005	-0.001109	-0.473389	-0.065186	-0.513428	-20.789167	30.196672	-143.191648
40111		-4.987348	-3.048215	7.948726	-0.006648	0.009862	-0.001406	-0.474121	-0.062744	-0.512207	-20.791846	30.198759	-143.191638
40112		-4.991257	-3.015203	7.941088	-0.006406	0.005680	-0.002656	-0.478271	-0.062744	-0.518799	-20.794636	30.198967	-143.189922
40113		-4.983854	-3.035256	7.928218	-0.005117	0.008618	-0.000410	-0.479492	-0.064941	-0.517822	-20.795981	30.200591	-143.189002
40114		-5.010331	-3.006045	7.912456	-0.002280	0.005949	-0.005409	-0.487793	-0.063232	-0.516113	-20.797305	30.200401	-143.188384
40115		-4.989371	-3.050162	7.946709	-0.003587	0.007373	0.000585	-0.482910	-0.075928	-0.506836	-20.797316	30.201561	-143.186555
40116		-4.962691	-3.032212	7.935174	0.000374	0.006254	-0.001469	-0.483398	-0.073975	-0.507568	-20.795750	30.201911	-143.187095
40117		-4.993815	-3.016914	7.938829	-0.005117	0.008618	-0.000411	-0.486816	-0.065918	-0.516357	-20.797095	30.203536	-143.186175
40118		-5.021648	-3.035464	7.949407	-0.004831	0.007915	-0.001735	-0.474365	-0.066162	-0.514404	-20.798794	30.204735	-143.187563
40119		-4.979024	-3.056789	7.913154	-0.003180	0.004580	-0.001365	-0.489258	-0.067627	-0.509766	-20.798848	30.204002	-143.186284
40120		-4.987370	-3.037583	7.925115	-0.003301	0.006671	-0.000739	-0.475098	-0.071289	-0.514648	-20.799271	30.204869	-143.185015
40121		-5.000356	-3.032400	7.956460	-0.001771	0.005426	0.000256	-0.478760	-0.068115	-0.511963	-20.798113	30.204920	-143.182930
40122		-4.996341	-3.018484	7.936643	-0.003421	0.008762	-0.000114	-0.473877	-0.056152	-0.516113	-20.798688	30.207133	-143.184264
40123		-4.993540	-3.052428	7.943220	-0.003015	0.005968	-0.002063	-0.483398	-0.066406	-0.518311	-20.799030	30.207002	-143.183745
40124		-4.997283	-3.019285	7.935745	-0.006403	0.005681	-0.002658	-0.481201	-0.064697	-0.520752	-20.801837	30.207249	-143.179573
40125		-4.959171	-3.054818	7.918885	-0.003014	0.005968	-0.002063	-0.481689	-0.053467	-0.507324	-20.802179	30.207119	-143.179054
40126		-5.020815	-3.024017	7.926633	-0.001440	0.008203	-0.001140	-0.483398	-0.069580	-0.511230	-20.801929	30.208909	-143.172973
40127		-4.950061	-3.045872	7.958079	-0.001485	0.004724	-0.001068	-0.482910	-0.064453	-0.516357	-20.800937	30.208314	-143.171543
40128		-4.995777	-3.054128	7.941159	-0.005280	0.007230	0.000287	-0.481934	-0.071289	-0.510010	-20.802237	30.209689	-143.169731
40129		-4.999524	-3.020952	7.933699	-0.004587	0.003734	-0.002987	-0.482422	-0.067871	-0.508301	-20.803504	30.208174	-143.169257
40130		-4.999953	-3.021496	7.933222	-0.006809	0.008475	-0.000708	-0.478271	-0.066650	-0.519287	-20.806077	30.209872	-143.170789
40131		-4.977893	-3.017715	7.941054	0.001618	0.005714	0.000852	-0.478027	-0.063965	-0.514404	-20.802825	30.210198	-143.168403
40132		-5.001045	-3.021848	7.932399	-0.004828	0.007916	-0.001735	-0.482422	-0.065186	-0.514160	-20.804669	30.211756	-143.167477
40133		-4.975524	-3.051853	7.947278	-0.001032	0.005410	-0.003089	-0.483643	-0.066406	-0.514893	-20.804129	30.211118	-143.167461
40134		-4.974565	-3.004389	7.920582	-0.002892	0.003878	-0.002689	-0.477783	-0.064453	-0.516113	-20.804608	30.210132	-143.165878
40135		-4.971492	-3.038324	7.927323	-0.001032	0.005410	-0.003089	-0.482422	-0.065186	-0.512695	-20.804068	30.209493	-143.165863
40136		-4.976508	-3.052720	7.946330	-0.003299	0.006671	-0.000739	-0.484375	-0.066895	-0.510254	-20.804537	30.210482	-143.163618
40137		-4.980321	-3.019404	7.938889	-0.003013	0.005969	-0.002063	-0.486084	-0.068604	-0.522949	-20.804878	30.210352	-143.163098
40138		-5.000057	-3.057271	7.937255	-0.001605	0.006815	-0.000441	-0.479980	-0.061035	-0.512451	-20.804247	30.211363	-143.161527
40139		-4.973493	-3.039380	7.925663	-0.003254	0.010151	-0.000811	-0.485840	-0.067871	-0.512939	-20.804832	30.213728	-143.161216
40140		-4.982022	-3.020343	7.937465	-0.006400	0.005682	-0.002660	-0.486572	-0.062012	-0.506836	-20.807518	30.213688	-143.159352
40141		-4.997202	-3.044399	7.916301	-0.004661	0.009305	-0.002433	-0.483398	-0.070801	-0.505859	-20.809314	30.215270	-143.159847
40142		-4.995682	-3.015967	7.968106	-0.002846	0.007358	-0.002761	-0.483643	-0.064209	-0.513916	-20.810093	30.215858	-143.160088
40143		-4.980316	-3.055316	7.942945	-0.003132	0.008060	-0.001437	-0.476563	-0.069580	-0.513916	-20.810555	30.216976	-143.159673
40144		-5.006931	-3.025962	7.927116	-0.003419	0.008763	-0.000113	-0.484619	-0.063477	-0.509033	-20.811120	30.219162	-143.159172
40145		-4.989572	-3.036369	7.954262	-0.000985	0.008890	-0.003160	-0.479980	-0.067383	-0.508789	-20.810988	30.220373	-143.160020
40146		-5.004774	-3.060199	7.933153	-0.004992	0.006528	-0.001038	-0.483398	-0.062744	-0.507813	-20.812418	30.221014	-143.158614
40147		-4.981354	-3.008832	7.914626	-0.003011	0.005970	-0.002063	-0.479004	-0.066895	-0.515137	-20.812758	30.220885	-143.158094
40148		-5.001208	-3.046776	7.912856	-0.003252	0.010152	-0.000810	-0.483887	-0.070557	-0.511963	-20.813592	30.223617	-143.156970
40149		-4.999735	-3.018216	7.964711	-0.003463	0.005284	-0.000042	-0.483887	-0.071289	-0.516357	-20.813479	30.223532	-143.155035
40150		-5.002345	-3.047447	7.911879	-0.004659	0.009306	-0.002433	-0.479736	-0.065674	-0.510010	-20.815470	30.225383	-143.158060
40151		-4.988368	-3.024420	7.931925	-0.005111	0.008620	-0.000412	-0.478760	-0.067627	-0.510742	-20.816813	30.227009	-143.157141
40152		-4.993662	-3.038945	7.950711	-0.002964	0.009450	-0.002134	-0.476074	-0.066406	-0.507813	-20.817801	30.229081	-143.158383
40153		-4.981722	-3.044590	7.918492	-0.000983	0.008891	-0.003159	-0.478271	-0.072021	-0.512939	-20.817667	30.230293	-143.159231
40154		-5.002749	-3.020015	7.962136	-0.003176	0.004581	-0.001366	-0.485352	-0.059570	-0.514648	-20.817954	30.229918	-143.160969
40155		-4.998670	-3.006289	7.942281	-0.004491	0.010695	-0.003130	-0.485596	-0.072510	-0.513184	-20.820036	30.232102	-143.162225
40156		-5.006116	-3.049525	7.908692	0.000137	0.010440	-0.000211	-0.480713	-0.066406	-0.512695	-20.818746	30.235049	-143.160662
40157		-4.992206	-3.026095	7.928871	-0.001890	0.007519	0.000884	-0.477783	-0.063721	-0.517822	-20.817707	30.236349	-143.158680
40158		-4.984886	-3.045782	7.916042	-0.003416	0.008764	-0.000113	-0.484131	-0.060059	-0.515869	-20.818302	30.238620	-143.156864
40159		-5.001540	-3.007024	7.940196	-0.001269	0.009594	-0.001834	-0.482178	-0.065674	-0.515869	-20.818003	30.240478	-143.157057
40160		-4.971652	-3.022800	7.935634	-0.002962	0.009451	-0.002134	-0.481689	-0.070313	-0.514160	-20.819038	30.242661	-143.154432
40161		-4.999611	-3.041317	7.946063	-0.002341	0.011526	-0.004852	-0.482422	-0.059082	-0.506836	-20.820525	30.244940	-143.156950
40162		-5.008326	-3.022176	7.957809	-0.003416	0.008764	-0.000113	-0.474121	-0.065430	-0.515625	-20.821044	30.247015	-143.154915
40163		-4.996447	-3.027811	7.925544	-0.003249	0.010153	-0.000810	-0.485840	-0.065674	-0.520264	-20.821626	30.249381	-143.154604
40164		-5.019649	-3.032076	7.916730	-0.000859	0.006801	-0.003785	-0.480713	-0.065430	-0.514160	-20.821680	30.249890	-143.154684
40165		-4.974969	-3.024314	7.932978	-0.001434	0.008206	-0.001137	-0.482178	-0.067627	-0.514404	-20.821093	30.251147	-143.154117
40166		-4.998137	-3.028494	7.924217	-0.001146	0.007504	-0.002461	-0.477539	-0.063232	-0.507568	-20.820919	30.252147	-143.154304
40167		-4.998654	-3.028741	7.923796	-0.000691	0.008191	-0.004482	-0.485840	-0.062988	-0.517334	-20.820949	30.252715	-143.155807
40168		-5.003847	-3.043189	7.942680	-0.003127	0.008062	-0.001437	-0.481689	-0.070801	-0.510986	-20.821666	30.254228	-143.153221
40169		-4.969178	-3.044776	7.918888	-0.001601	0.006817	-0.000440	-0.474854	-0.064209	-0.512451	-20.820792	30.254883	-143.151895
40170		-5.000282	-3.029530	7.922467	-0.002839	0.007360	-0.002761	-0.482178	-0.062012	-0.519287	-20.821658	30.255733	-143.154051
40171		-5.005365	-3.044140	7.941358	-0.004244	0.006515	-0.004386	-0.469482	-0.069580	-0.509521	-20.823495	30.255423	-143.155099
40172		-4.978642	-3.026255	7.929934	-0.000195	0.007663	0.001184	-0.485352	-0.067871	-0.517822	-20.821716	30.257400	-143.153800
40173		-5.032271	-3.014864	7.925262	-0.000736	0.004711	-0.004412	-0.480957	-0.064453	-0.511963	-20.821337	30.256119	-143.154440
40174		-4.991978	-3.021238	7.961058	0.000957	0.004855	-0.004111	-0.481689	-0.067139	-0.511230	-20.820148	30.255341	-143.154332
40175		-5.010189	-3.011208	7.933155	0.000957	0.004855	-0.004111	-0.483887	-0.059570	-0.511719	-20.818722	30.254198	-143.154819
40176		-4.997792	-3.016749	7.901238	-0.000736	0.004711	-0.004412	-0.478271	-0.065674	-0.512695	-20.818572	30.253248	-143.153275
40177		-5.029859	-3.049391	7.931330	-0.002596	0.003178	-0.004016	-0.478027	-0.070068	-0.514160	-20.818953	30.251227	-143.153307
40178		-4.980304	-3.027271	7.928502	0.005749	0.005989	-0.001885	-0.477539	-0.061768	-0.514160	-20.814474	30.251565	-143.154637
40179		-5.003295	-3.031364	7.919863	-0.004243	0.006515	-0.004386	-0.480957	-0.064941	-0.507080	-20.816311	30.251255	-143.155686
40180		-4.981122	-3.027666	7.927837	0.000381	0.006259	-0.001463	-0.484619	-0.061523	-0.506104	-20.814810	30.251802	-143.153510
40181		-5.031203	-3.049986	7.930249	-0.000614	0.002620	-0.005039	-0.474609	-0.061035	-0.506836	-20.814309	30.249273	-143.154045
40182		-4.989637	-3.008554	7.939711	0.000837	0.006947	-0.003484	-0.485107	-0.062012	-0.515137	-20.813233	30.249690	-143.152276
40183		-4.982016	-3.028212	7.927066	-0.001023	0.005413	-0.003088	-0.493896	-0.066406	-0.504883	-20.812689	30.249055	-143.152259
40184		-4.985669	-2.994828	7.919779	-0.000735	0.004711	-0.004412	-0.474609	-0.069580	-0.512207	-20.812448	30.247888	-143.149737
40185		-4.992661	-3.037983	7.886412	0.000716	0.009038	-0.002857	-0.481201	-0.072510	-0.505371	-20.811265	30.249241	-143.150431
40186		-4.997621	-3.052213	7.905528	0.000456	0.000687	-0.002021	-0.474365	-0.058594	-0.518799	-20.809155	30.246540	-143.153807
40187		-4.983239	-3.029035	7.925983	-0.004242	0.006515	-0.004387	-0.480957	-0.059814	-0.504395	-20.810991	30.246230	-143.154856
40188		-4.996149	-3.023983	7.957399	0.002774	0.002909	-0.004436	-0.476074	-0.070313	-0.511475	-20.808719	30.244528	-143.151039
40189		-4.988483	-3.043586	7.944800	-0.000977	0.008894	-0.003158	-0.478760	-0.074951	-0.520996	-20.808583	30.245742	-143.151886
40190		-5.006796	-3.033681	7.916763	-0.000901	0.003322	-0.003715	-0.482666	-0.053467	-0.506348	-20.808160	30.244297	-143.156910
40191		-4.997233	-3.024509	7.956518	0.000549	0.007649	-0.002160	-0.478027	-0.065918	-0.509033	-20.806691	30.245048	-143.156845
40192		-4.989553	-3.044186	7.943898	-0.000444	0.004010	-0.005736	-0.476318	-0.065430	-0.515381	-20.806724	30.243485	-143.154158
40193		-4.985081	-3.030404	7.924302	-0.002426	0.004567	-0.004713	-0.477295	-0.072998	-0.514160	-20.807391	30.242065	-143.154949
40194		-4.985440	-3.030799	7.923924	-0.002837	0.007361	-0.002763	-0.488525	-0.060791	-0.508301	-20.808281	30.243011	-143.158149
40195		-4.971178	-3.007533	7.944356	0.000625	0.002077	-0.002717	-0.479248	-0.064209	-0.517334	-20.806281	30.240664	-143.157117
40196		-4.990743	-3.045266	7.942737	0.000717	0.009039	-0.002856	-0.484375	-0.064453	-0.509766	-20.805337	30.242380	-143.154580
40197		-5.004459	-3.021036	7.895378	0.000503	0.004169	-0.002090	-0.486328	-0.066406	-0.514893	-20.803459	30.241282	-143.153651
40198		-5.022061	-3.030009	7.946166	-0.001190	0.004024	-0.002392	-0.477051	-0.065918	-0.518311	-20.802821	30.240311	-143.151370
40199		-4.987175	-3.031536	7.922551	-0.001143	0.007505	-0.002461	-0.474609	-0.060791	-0.513184	-20.802398	30.240924	-143.151458
40200		-4.965024	-3.027750	7.930572	-0.001022	0.005414	-0.003088	-0.481445	-0.060791	-0.510986	-20.802189	30.240905	-143.150621
40201		-5.018531	-3.016676	7.925801	-0.004407	0.005125	-0.003692	-0.483887	-0.066162	-0.511230	-20.803738	30.239992	-143.150911
40202		-5.010810	-3.036541	7.913126	-0.001021	0.005414	-0.003088	-0.483887	-0.068848	-0.515381	-20.803415	30.239686	-143.149031
40203		-5.001228	-3.027391	7.952911	0.000961	0.004857	-0.004110	-0.486572	-0.069336	-0.513428	-20.801987	30.238545	-143.149517
40204		-4.976165	-3.038265	7.889285	-0.003004	0.005971	-0.002066	-0.479004	-0.065674	-0.512695	-20.802505	30.238682	-143.149575
40205		-5.001882	-3.028012	7.952264	-0.002424	0.004568	-0.004714	-0.482422	-0.063721	-0.517090	-20.803171	30.237263	-143.150367
40206		-4.966974	-3.029635	7.928631	-0.001143	0.007506	-0.002461	-0.484131	-0.069580	-0.517334	-20.803014	30.238330	-143.149417
40207		-5.012561	-3.037815	7.911528	0.000672	0.005559	-0.002786	-0.483154	-0.065430	-0.510986	-20.801422	30.237835	-143.149248
40208		-4.980457	-3.024703	7.959659	-0.002714	0.005270	-0.003390	-0.477051	-0.070557	-0.516602	-20.802131	30.237384	-143.149427
40209		-4.980798	-3.025248	7.959238	-0.005931	0.006370	-0.004691	-0.486084	-0.069336	-0.517578	-20.805013	30.236935	-143.150629
40210		-5.003646	-3.029629	7.950538	0.002945	0.004301	-0.005131	-0.481201	-0.068359	-0.519775	-20.802932	30.235691	-143.153328
40211		-4.991224	-3.035166	7.918610	-0.005154	0.005138	-0.000349	-0.478516	-0.066162	-0.512695	-20.803867	30.235466	-143.151549
40212		-4.977031	-3.011950	7.939016	0.000962	0.004858	-0.004109	-0.484619	-0.064453	-0.512451	-20.802700	30.234786	-143.152614
40213		-5.004578	-3.030240	7.949719	0.000672	0.005559	-0.002786	-0.476807	-0.067139	-0.506592	-20.801108	30.234291	-143.152445
40214		-4.974360	-3.045759	7.945507	0.000382	0.006261	-0.001462	-0.486328	-0.067139	-0.515381	-20.799554	30.234739	-143.151885
40215		-4.969991	-3.031776	7.925921	-0.000440	0.004011	-0.005735	-0.488525	-0.068115	-0.515137	-20.799336	30.232815	-143.153180
40216		-4.992790	-3.036149	7.917246	-0.002713	0.005270	-0.003391	-0.481201	-0.063232	-0.522217	-20.800020	30.232306	-143.152408
40217		-4.975169	-3.046592	7.944681	-0.001188	0.004025	-0.002392	-0.478760	-0.062256	-0.517822	-20.799189	30.231069	-143.151633
40218		-4.993292	-3.036502	7.916794	0.002029	0.002925	-0.001090	-0.481689	-0.068115	-0.510742	-20.796312	30.230129	-143.147061
40219		-5.006413	-3.031333	7.948146	-0.002666	0.008751	-0.003460	-0.481201	-0.064941	-0.510254	-20.797221	30.231207	-143.148061
40220		-4.994089	-3.037046	7.916083	-0.002422	0.004568	-0.004714	-0.479492	-0.066162	-0.509766	-20.798086	30.230082	-143.149393
40221		-4.971881	-3.033417	7.924108	-0.002834	0.007362	-0.002763	-0.491211	-0.058594	-0.506104	-20.798709	30.230557	-143.149634
40222		-5.012225	-3.046592	7.966337	-0.001188	0.004025	-0.002392	-0.485596	-0.065186	-0.508545	-20.798056	30.229535	-143.146175
40223		-4.967873	-3.019760	7.904170	-0.001019	0.005415	-0.003088	-0.480957	-0.071777	-0.511475	-20.797510	30.228901	-143.146159
40224		-5.000117	-3.052356	7.934115	-0.001019	0.005415	-0.003088	-0.485840	-0.067383	-0.514404	-20.797128	30.228485	-143.147477
40225		-5.003788	-3.019049	7.926812	-0.002421	0.004569	-0.004714	-0.480225	-0.068359	-0.517578	-20.797792	30.227067	-143.148270
40226		-4.978190	-3.049056	7.941844	-0.002834	0.007362	-0.002763	-0.486816	-0.069336	-0.504639	-20.798643	30.227923	-143.148644
40227		-4.973800	-3.035174	7.922230	0.001546	0.003456	-0.006756	-0.476318	-0.065186	-0.507813	-20.797540	30.225494	-143.150440
40228		-4.996698	-3.039437	7.913518	-0.003584	0.007374	0.000580	-0.484375	-0.071045	-0.507813	-20.797708	30.226842	-143.150121
40229		-4.979242	-3.049770	7.940909	0.000965	0.004859	-0.004108	-0.481689	-0.063965	-0.506592	-20.796278	30.225703	-143.150606
40230		-5.020058	-3.043979	7.904402	-0.004526	0.007217	-0.003067	-0.482422	-0.060547	-0.512451	-20.798102	30.226217	-143.152041
40231		-5.006023	-3.020866	7.924708	-0.000850	0.006806	-0.003784	-0.476563	-0.071045	-0.516846	-20.797841	30.226187	-143.152783
40232		-4.983659	-3.017103	7.932900	-0.000773	0.001232	-0.004343	-0.477783	-0.067871	-0.516602	-20.797318	30.223522	-143.152459
40233		-4.965925	-3.027531	7.960437	-0.000559	0.006104	-0.005108	-0.479248	-0.066895	-0.509766	-20.797220	30.222846	-143.153857
40234		-5.003462	-3.055457	7.930812	-0.004648	0.009308	-0.002440	-0.481934	-0.062012	-0.510742	-20.799261	30.224854	-143.155586
40235		-4.989543	-3.032225	7.951102	0.000383	0.006262	-0.001461	-0.483643	-0.073730	-0.503418	-20.797504	30.225005	-143.154761
40236		-4.977199	-3.037815	7.919083	-0.004234	0.006515	-0.004391	-0.479980	-0.072998	-0.509033	-20.799488	30.224873	-143.156982
40237		-4.963123	-3.014765	7.939410	-0.003001	0.005972	-0.002068	-0.481445	-0.064697	-0.515869	-20.799826	30.224745	-143.156465
40238		-5.013243	-3.037317	7.941554	-0.000726	0.004715	-0.004411	-0.476318	-0.071289	-0.512695	-20.799652	30.223804	-143.158715
40239		-4.986386	-3.019353	7.930329	-0.001140	0.007508	-0.002460	-0.475098	-0.064453	-0.513184	-20.799228	30.224419	-143.158803
40240		-4.983362	-3.053237	7.936992	-0.000726	0.004715	-0.004411	-0.483154	-0.069580	-0.517578	-20.799109	30.223614	-143.161257
40241		-4.987097	-3.019897	7.929675	-0.000388	0.007496	-0.005803	-0.481934	-0.070557	-0.513184	-20.799295	30.223542	-143.163414
40242		-4.974781	-3.025524	7.897618	-0.002832	0.007362	-0.002764	-0.478271	-0.060791	-0.515625	-20.800128	30.224365	-143.165400
40243		-5.002479	-3.044047	7.908092	-0.000848	0.006807	-0.003784	-0.486084	-0.069824	-0.512207	-20.799866	30.224335	-143.166143
40244		-5.020444	-3.053305	7.958589	-0.004816	0.007918	-0.001744	-0.478760	-0.078857	-0.503906	-20.801614	30.225709	-143.164830
40245		-4.966377	-3.017244	7.936433	-0.000725	0.004715	-0.004411	-0.469971	-0.064209	-0.511230	-20.801229	30.224431	-143.165469
40246		-5.039001	-3.043831	7.930143	-0.000556	0.006106	-0.005107	-0.487305	-0.062012	-0.517578	-20.801325	30.224072	-143.171212
40247		-4.989501	-3.021828	7.927427	-0.001185	0.004026	-0.002392	-0.482178	-0.072021	-0.508301	-20.800492	30.222836	-143.170438
40248		-4.986426	-3.055701	7.934119	-0.000847	0.006807	-0.003783	-0.479492	-0.067871	-0.520020	-20.800427	30.223096	-143.170910
40249		-4.982161	-3.041777	7.914441	-0.000847	0.006807	-0.003783	-0.479248	-0.075684	-0.511719	-20.800165	30.223067	-143.171653
40250		-4.987230	-3.056202	7.933420	-0.001016	0.005417	-0.003088	-0.486084	-0.066162	-0.513428	-20.799846	30.222837	-143.174783
40251		-4.995625	-3.036968	7.945471	-0.001185	0.004026	-0.002392	-0.483643	-0.067627	-0.517090	-20.799013	30.221601	-143.174010
40252		-4.991270	-3.023022	7.925858	-0.000847	0.006807	-0.003783	-0.479492	-0.069824	-0.510498	-20.798970	30.221915	-143.174396
40253		-5.018854	-3.041408	7.936442	0.000507	0.004172	-0.002087	-0.477539	-0.062744	-0.518555	-20.797091	30.220819	-143.173468
40254		-4.969288	-3.019254	7.933846	0.001260	0.004160	-0.005430	-0.484131	-0.062988	-0.510254	-20.796090	30.219512	-143.174344
40255		-5.001828	-3.032825	7.885083	-0.001016	0.005417	-0.003088	-0.479492	-0.067627	-0.514893	-20.795542	30.218879	-143.174330
40256		-4.989003	-3.057375	7.931854	-0.001016	0.005417	-0.003088	-0.489746	-0.066650	-0.510254	-20.795227	30.218619	-143.173189
40257		-4.992629	-3.023897	7.924668	0.000630	0.002080	-0.002715	-0.476074	-0.062988	-0.519775	-20.793225	30.216275	-143.172158
40258		-5.005747	-3.018698	7.956070	0.000553	0.007654	-0.002155	-0.486572	-0.065918	-0.511719	-20.792003	30.217443	-143.170535
40259		-4.975481	-3.034307	7.951885	-0.000261	0.005406	-0.006430	-0.479736	-0.065430	-0.516357	-20.792065	30.216125	-143.172590
40260		-5.008003	-3.047916	7.903104	0.000969	0.004862	-0.004107	-0.476318	-0.064453	-0.513916	-20.790863	30.215358	-143.172019
40261		-4.971415	-3.020604	7.931999	-0.002830	0.007363	-0.002765	-0.478027	-0.067383	-0.517578	-20.791485	30.215834	-143.172262
40262		-4.994285	-3.024932	7.923229	-0.001353	0.002636	-0.001696	-0.475830	-0.065918	-0.513184	-20.790660	30.214529	-143.170484
40263		-4.991089	-3.058932	7.929941	-0.004399	0.005125	-0.003697	-0.479004	-0.062744	-0.506104	-20.792207	30.213616	-143.170779
40264		-4.986774	-3.045302	7.910179	-0.004060	0.007907	-0.005089	-0.480225	-0.061523	-0.516846	-20.794572	30.214319	-143.171642
40265		-4.985655	-3.017042	7.962083	-0.004984	0.006527	-0.001050	-0.482910	-0.072998	-0.510986	-20.795794	30.214696	-143.170626
40266		-4.987749	-3.046175	7.909228	-0.000676	0.008199	-0.004479	-0.475098	-0.070068	-0.515625	-20.796043	30.215643	-143.172241
40267		-5.009250	-3.021790	7.952691	-0.002660	0.008754	-0.003460	-0.477051	-0.068359	-0.512451	-20.796949	30.216723	-143.173243
40268		-5.001543	-3.041540	7.939997	-0.001184	0.004027	-0.002392	-0.483154	-0.061523	-0.508545	-20.796372	30.215949	-143.174507
40269		-4.997311	-3.027597	7.920303	-0.003415	0.008765	-0.000118	-0.478271	-0.063721	-0.520264	-20.796670	30.217714	-143.173440
40270		-5.005942	-3.008477	7.932176	-0.002706	0.005272	-0.003393	-0.482910	-0.068604	-0.512451	-20.797444	30.217411	-143.170942
40271		-5.002938	-3.042382	7.938795	-0.001600	0.006819	-0.000440	-0.484131	-0.059082	-0.508545	-20.796572	30.218069	-143.169616
40272		-5.006841	-3.008947	7.931430	-0.000844	0.006809	-0.003783	-0.483154	-0.069824	-0.513916	-20.796514	30.218338	-143.168331
40273		-4.976611	-3.024521	7.927247	0.000848	0.006955	-0.003477	-0.481934	-0.066162	-0.516113	-20.795203	30.218451	-143.168920
40274		-4.999514	-3.028897	7.918415	-0.004397	0.005126	-0.003698	-0.479004	-0.062744	-0.508789	-20.796967	30.217901	-143.169535
40275		-4.999860	-3.029398	7.918005	-0.002072	0.007353	-0.006107	-0.479736	-0.067139	-0.507080	-20.798197	30.217692	-143.171848
40276		-4.977924	-3.025680	7.925979	-0.001091	0.010993	-0.002527	-0.488525	-0.067627	-0.514893	-20.798385	30.220471	-143.172299
40277		-5.001102	-3.030027	7.916980	-0.002828	0.007364	-0.002765	-0.477539	-0.060059	-0.508789	-20.799006	30.220948	-143.172542
40278		-4.991875	-3.021098	7.956645	-0.002534	0.006663	-0.004088	-0.476563	-0.063965	-0.514404	-20.800010	30.221120	-143.171412
40279		-5.014766	-3.025553	7.947782	-0.002704	0.005272	-0.003393	-0.477783	-0.059082	-0.512695	-20.800508	30.220349	-143.171552
40280		-5.002234	-3.031146	7.915837	-0.000549	0.006109	-0.005106	-0.486084	-0.065186	-0.510986	-20.800708	30.220217	-143.170557
40281		-4.988129	-3.007971	7.936337	-0.002874	0.003881	-0.002698	-0.481689	-0.072266	-0.515137	-20.800922	30.218842	-143.169938
40282		-4.993206	-3.022528	7.955267	-0.002827	0.007364	-0.002765	-0.478271	-0.060791	-0.510498	-20.801722	30.219593	-143.170759
40283		-5.007945	-3.046429	7.934085	-0.002410	0.004572	-0.004716	-0.479492	-0.068604	-0.513428	-20.802381	30.218177	-143.171554
40284		-4.981028	-3.028511	7.922948	-0.000842	0.006810	-0.003782	-0.482178	-0.073975	-0.514404	-20.802362	30.218567	-143.171672
40285		-5.012119	-3.013463	7.926380	-0.002533	0.006664	-0.004088	-0.482910	-0.072021	-0.511475	-20.803145	30.218400	-143.172570
40286		-4.986528	-3.043357	7.941500	-0.001012	0.005419	-0.003087	-0.479736	-0.076904	-0.504639	-20.802747	30.218004	-143.175955
40287		-5.017532	-3.028291	7.944993	-0.002703	0.005272	-0.003393	-0.480713	-0.066650	-0.507080	-20.803245	30.217233	-143.176095
40288		-4.987176	-3.044007	7.940844	-0.000548	0.006110	-0.005106	-0.478027	-0.065186	-0.513184	-20.803261	30.216700	-143.181137
40289		-4.995714	-3.024812	7.952824	-0.001305	0.006119	-0.001764	-0.483398	-0.064209	-0.517334	-20.802550	30.216715	-143.180466
40290		-5.005746	-3.034334	7.912395	-0.001011	0.005419	-0.003087	-0.477539	-0.062988	-0.511475	-20.802262	30.216547	-143.179009
40291		-4.975437	-3.050013	7.908231	0.000087	0.008192	-0.007819	-0.479980	-0.064209	-0.510254	-20.802888	30.216439	-143.182580
40292		-5.014609	-3.015504	7.924029	-0.001181	0.004028	-0.002392	-0.478271	-0.065186	-0.508301	-20.802301	30.215621	-143.180247
40293		-4.984207	-3.031170	7.919931	-0.002702	0.005272	-0.003393	-0.481689	-0.063477	-0.512695	-20.802799	30.214851	-143.180387
40294		-4.984533	-3.031479	7.919608	-0.001011	0.005419	-0.003087	-0.483154	-0.066406	-0.510986	-20.802476	30.214590	-143.179158
40295		-4.993023	-3.012350	7.931597	-0.002702	0.005272	-0.003394	-0.488281	-0.066162	-0.502686	-20.802973	30.213819	-143.179298
40296		-5.007656	-3.036157	7.910486	-0.001181	0.004028	-0.002392	-0.476563	-0.067871	-0.517822	-20.802267	30.212713	-143.177772
40297		-4.985467	-3.032362	7.918682	-0.002996	0.005973	-0.002070	-0.480469	-0.071289	-0.519043	-20.802603	30.212587	-143.177257
40298		-4.968134	-3.042800	7.946073	-0.000670	0.008202	-0.004477	-0.470703	-0.062256	-0.508301	-20.802889	30.213680	-143.180426
40299		-4.994390	-3.013458	7.930316	-0.001521	0.001245	-0.001002	-0.488770	-0.067139	-0.516357	-20.801487	30.211239	-143.178136
40300		-4.991196	-3.047267	7.937067	0.001316	0.007649	-0.005493	-0.478516	-0.060547	-0.512451	-20.800861	30.211729	-143.179050
40301		-4.986757	-3.033351	7.917491	-0.002577	0.003181	-0.004022	-0.484131	-0.074951	-0.514404	-20.801235	30.209710	-143.179087
40302		-5.009515	-3.037671	7.908728	0.000681	0.005566	-0.002780	-0.481934	-0.062500	-0.521973	-20.799851	30.209580	-143.179329
40303		-4.964832	-3.029678	7.925482	-0.001010	0.005420	-0.003087	-0.482666	-0.067627	-0.515625	-20.799301	30.208951	-143.179314
40304		-4.992452	-3.048204	7.935918	-0.000840	0.006811	-0.003782	-0.479004	-0.071777	-0.512451	-20.799312	30.209435	-143.178246
40305		-5.000977	-3.028930	7.947948	0.000511	0.004175	-0.002085	-0.479492	-0.063965	-0.519287	-20.797431	30.208343	-143.177317
40306		-4.988292	-3.034244	7.916182	0.000806	0.003475	-0.003408	-0.487549	-0.061523	-0.510010	-20.795961	30.207066	-143.177726
40307		-4.993316	-3.048629	7.935210	-0.000839	0.006811	-0.003782	-0.479736	-0.059814	-0.513428	-20.795695	30.207041	-143.178469
40308		-4.979344	-3.025201	7.955784	0.002202	0.004322	-0.001778	-0.483643	-0.057617	-0.522461	-20.793005	30.206465	-143.173161
40309		-4.997386	-3.015215	7.927760	-0.002871	0.003881	-0.002699	-0.486328	-0.067871	-0.505859	-20.793218	30.205091	-143.172543
40310		-4.989494	-3.034870	7.915184	0.000682	0.005567	-0.002780	-0.478271	-0.063721	-0.510254	-20.791850	30.204975	-143.168856
40311		-5.002809	-3.029739	7.946486	0.000852	0.006959	-0.003475	-0.476563	-0.070313	-0.518799	-20.790537	30.205092	-143.169443
40312		-5.003246	-3.029920	7.946142	-0.000839	0.006812	-0.003782	-0.480957	-0.073486	-0.515137	-20.790532	30.205546	-143.171133
40313		-5.021358	-3.020064	7.918016	-0.000714	0.004720	-0.004410	-0.482910	-0.064697	-0.511719	-20.790142	30.204273	-143.171773
40314		-4.981279	-3.026295	7.954157	0.000807	0.003475	-0.003408	-0.479248	-0.070801	-0.518066	-20.788613	30.202858	-143.172566
40315		-5.000531	-3.064239	7.952391	-0.000248	0.005411	-0.006429	-0.475586	-0.068359	-0.511963	-20.788668	30.201545	-143.174620
40316		-5.004410	-3.030901	7.945034	-0.003585	0.007373	0.000575	-0.476318	-0.062012	-0.513672	-20.788925	30.203159	-143.175048
40317		-4.982382	-3.027018	7.953191	0.001148	0.006259	-0.004798	-0.479980	-0.072266	-0.511230	-20.787772	30.202632	-143.176291
40318		-4.992256	-3.036539	7.912802	-0.000713	0.004720	-0.004410	-0.480225	-0.073486	-0.515381	-20.787615	30.201768	-143.177717
40319		-4.987703	-3.041693	7.971927	-0.001009	0.005420	-0.003087	-0.484375	-0.069092	-0.514160	-20.787064	30.201140	-143.177702
40320		-5.001087	-3.017525	7.924547	0.000682	0.005567	-0.002779	-0.479248	-0.063965	-0.510254	-20.785648	30.200961	-143.179655
40321		-5.001389	-3.017674	7.924299	-0.001179	0.004028	-0.002392	-0.482666	-0.062744	-0.512451	-20.784814	30.199729	-143.178883
40322		-5.006334	-3.032042	7.943387	0.000807	0.003476	-0.003408	-0.486816	-0.074951	-0.515869	-20.783324	30.198376	-143.176455
40323		-5.001802	-3.018058	7.923892	-0.000246	0.005412	-0.006429	-0.481689	-0.064453	-0.516602	-20.783378	30.197064	-143.178509
40324		-5.029363	-3.036699	7.934296	-0.002995	0.005973	-0.002072	-0.485596	-0.061768	-0.512939	-20.783907	30.197267	-143.178595
40325		-5.002462	-3.018633	7.923257	0.000978	0.004868	-0.004103	-0.476074	-0.063477	-0.510986	-20.782469	30.196137	-143.179080
40326		-4.997981	-3.023755	7.982362	-0.000371	0.007504	-0.005800	-0.487793	-0.067871	-0.516357	-20.782890	30.196488	-143.178642
40327		-4.985415	-3.029280	7.950428	-0.000541	0.006112	-0.005105	-0.483887	-0.060547	-0.505859	-20.782784	30.195820	-143.180041
40328		-5.008303	-3.033578	7.941559	0.000854	0.006960	-0.003474	-0.478027	-0.066406	-0.510254	-20.781647	30.196196	-143.178009
40329		-4.981500	-3.015484	7.930475	-0.000370	0.007504	-0.005800	-0.479980	-0.069580	-0.515381	-20.781824	30.196132	-143.180166
40330		-4.973467	-3.035312	7.917909	-0.001981	0.001781	-0.006670	-0.480225	-0.057861	-0.517578	-20.782737	30.193218	-143.182617
40331		-4.986602	-3.030471	7.949230	-0.000837	0.006813	-0.003782	-0.480957	-0.063477	-0.515869	-20.782470	30.193194	-143.183361
40332		-4.987056	-3.030513	7.948929	0.001611	0.005724	0.000870	-0.490234	-0.063232	-0.503418	-20.779529	30.194101	-143.176802
40333		-4.987579	-3.030725	7.948520	-0.003876	0.009301	-0.005788	-0.480469	-0.071289	-0.516602	-20.781923	30.195003	-143.179374
40334		-4.975195	-3.036426	7.916396	-0.002652	0.008757	-0.003462	-0.484863	-0.058350	-0.511475	-20.782968	30.196277	-143.179744
40335		-5.014729	-3.001990	7.931938	-0.000961	0.008905	-0.003154	-0.481445	-0.062744	-0.513428	-20.782824	30.197503	-143.180590
40336		-4.980962	-3.051201	7.934813	-0.000710	0.004721	-0.004410	-0.487061	-0.072266	-0.511719	-20.782677	30.196638	-143.176929
40337		-4.984840	-3.017693	7.927536	0.002717	0.008501	-0.003860	-0.482910	-0.067871	-0.510742	-20.780598	30.197503	-143.178117
40338		-4.990033	-3.032011	7.946489	-0.001006	0.005421	-0.003087	-0.481689	-0.064209	-0.507324	-20.780178	30.197062	-143.178968
40339		-4.985689	-3.017893	7.926925	0.002546	0.007109	-0.003165	-0.486816	-0.070313	-0.516357	-20.777815	30.197322	-143.179398
40340		-4.995535	-3.046467	7.965197	-0.000242	0.005413	-0.006428	-0.480225	-0.070068	-0.515381	-20.778036	30.196276	-143.180817
40341		-4.981532	-3.004135	7.907107	-0.000709	0.004721	-0.004411	-0.482910	-0.063965	-0.512207	-20.777645	30.195005	-143.181458
40342		-4.983083	-3.052237	7.933082	-0.001006	0.005421	-0.003088	-0.475830	-0.065430	-0.509277	-20.777308	30.194755	-143.181175
40343		-4.969154	-3.029018	7.953623	-0.002696	0.005273	-0.003396	-0.476807	-0.067627	-0.513916	-20.777804	30.193985	-143.181317
40344		-4.951841	-3.020305	7.902408	-0.001131	0.007513	-0.002459	-0.489014	-0.062500	-0.511475	-20.777623	30.195051	-143.182912
40345		-4.979457	-3.038873	7.912777	-0.000709	0.004721	-0.004411	-0.485352	-0.068359	-0.514648	-20.777231	30.193779	-143.183552
40346		-5.015218	-3.038035	7.935489	-0.001006	0.005421	-0.003088	-0.479004	-0.060303	-0.520508	-20.776851	30.193411	-143.180735
40347		-4.996580	-3.000685	7.936708	-0.004215	0.006517	-0.004400	-0.486816	-0.067139	-0.515137	-20.778678	30.193104	-143.181791
40348		-4.980527	-3.039775	7.911757	0.002547	0.007110	-0.003164	-0.475586	-0.066650	-0.509277	-20.776584	30.193866	-143.178897
40349		-4.994014	-3.034658	7.942977	-0.001131	0.007514	-0.002459	-0.477051	-0.067871	-0.512939	-20.776156	30.194487	-143.178985
40350		-5.002721	-3.015550	7.954859	-0.002524	0.006666	-0.004091	-0.477783	-0.067871	-0.507080	-20.777170	30.194741	-143.182219
40351		-4.981851	-3.040485	7.910651	-0.001005	0.005421	-0.003088	-0.478027	-0.076172	-0.508789	-20.776618	30.194114	-143.182204
40352		-4.995268	-3.035584	7.941835	-0.002821	0.007366	-0.002768	-0.475342	-0.064941	-0.507324	-20.777383	30.194821	-143.187349
40353		-4.995710	-3.036043	7.941381	-0.004214	0.006518	-0.004401	-0.480225	-0.064697	-0.511475	-20.779209	30.194514	-143.188406
40354		-4.960667	-3.037580	7.917955	-0.002821	0.007366	-0.002768	-0.481201	-0.065674	-0.506348	-20.780054	30.195379	-143.188677
40355		-4.991791	-3.022419	7.921359	0.002205	0.004326	-0.001774	-0.474854	-0.068359	-0.512939	-20.777125	30.194432	-143.187591
40356		-4.997070	-3.036852	7.940216	-0.004465	0.010702	-0.003144	-0.485107	-0.067139	-0.514404	-20.779404	30.196972	-143.190068
40357		-4.970319	-3.018983	7.929057	-0.002397	0.004574	-0.004720	-0.483643	-0.070313	-0.505615	-20.780058	30.195559	-143.190866
40358		-4.975358	-3.033533	7.948022	-0.001004	0.005422	-0.003087	-0.485107	-0.071533	-0.513916	-20.779642	30.195121	-143.191292
40359		-4.970979	-3.019555	7.928425	-0.000832	0.006815	-0.003782	-0.481445	-0.068115	-0.514648	-20.779373	30.195099	-143.192035
40360		-4.980872	-3.048318	7.966599	-0.002694	0.005274	-0.003397	-0.479736	-0.071045	-0.510010	-20.780045	30.194634	-143.193043
40361		-4.998903	-3.038598	7.938394	-0.002694	0.005274	-0.003397	-0.479248	-0.072510	-0.509521	-20.780540	30.193865	-143.193185
40362		-5.025284	-3.009457	7.922423	-0.002820	0.007366	-0.002768	-0.473145	-0.065918	-0.512939	-20.781310	30.194591	-143.196921
40363		-4.985493	-3.015579	7.958583	0.002205	0.004327	-0.001773	-0.484131	-0.066650	-0.509766	-20.778380	30.193644	-143.195835
40364		-4.995197	-3.025055	7.918205	-0.002396	0.004574	-0.004720	-0.484131	-0.072021	-0.508789	-20.779257	30.192628	-143.196601
40365		-4.977906	-3.035455	7.945692	-0.001427	0.008214	-0.001136	-0.477539	-0.069092	-0.509521	-20.778670	30.193894	-143.196034
40366		-4.987897	-3.045101	7.905063	-0.004509	0.007218	-0.003079	-0.478271	-0.065918	-0.518066	-20.780479	30.194453	-143.198775
40367		-4.996603	-3.026150	7.916899	-0.002521	0.006667	-0.004092	-0.475098	-0.064941	-0.513428	-20.781256	30.194289	-143.199676
40368		-4.974481	-3.022495	7.925108	-0.004383	0.005125	-0.003708	-0.478760	-0.063232	-0.515869	-20.783090	30.193946	-143.199324
40369		-4.997253	-3.027108	7.916123	-0.002223	0.005967	-0.005414	-0.487549	-0.068115	-0.514404	-20.784026	30.193138	-143.200881
40370		-4.975132	-3.023111	7.924464	0.001437	0.004333	0.001568	-0.477539	-0.076660	-0.505127	-20.780720	30.193272	-143.196106
40371		-4.972120	-3.056840	7.931089	-0.002647	0.008759	-0.003463	-0.487549	-0.070313	-0.517334	-20.781621	30.194357	-143.197110
40372		-4.993915	-3.032769	7.974428	-0.006370	0.005676	-0.002695	-0.474854	-0.064209	-0.514404	-20.784171	30.194128	-143.200580
40373		-4.998922	-3.028277	7.914622	-0.001002	0.005423	-0.003087	-0.482422	-0.070801	-0.516602	-20.783618	30.193502	-143.200566
40374		-4.976919	-3.024428	7.922839	-0.003116	0.008066	-0.001446	-0.480957	-0.067139	-0.514648	-20.784330	30.195109	-143.200450
40375		-5.012926	-3.023817	7.945291	-0.004209	0.006519	-0.004402	-0.481689	-0.062988	-0.514648	-20.786154	30.194802	-143.201509
40376		-4.977919	-3.025150	7.921935	0.000264	0.008364	-0.000824	-0.478271	-0.072266	-0.517334	-20.784759	30.196648	-143.199141
40377		-4.991395	-3.020245	7.953112	-0.004553	0.003733	-0.003014	-0.480469	-0.067627	-0.515137	-20.786018	30.195131	-143.198685
40378		-4.983407	-3.039871	7.940554	0.002378	0.005721	-0.002465	-0.472412	-0.074707	-0.508545	-20.783597	30.195231	-143.200063
40379		-4.988514	-3.035135	7.880759	-0.004806	0.007918	-0.001756	-0.483398	-0.069580	-0.514893	-20.785103	30.196212	-143.199811
40380		-4.984309	-3.040307	7.939821	0.000046	0.003485	-0.000065	-0.482910	-0.071777	-0.510986	-20.782954	30.195483	-143.201036
40381		-4.992841	-3.021118	7.951873	-0.002392	0.004575	-0.004721	-0.481445	-0.073486	-0.508545	-20.783606	30.194072	-143.201836
40382		-4.984965	-3.040891	7.939185	-0.003115	0.008067	-0.001446	-0.479248	-0.068359	-0.502686	-20.784179	30.195357	-143.204683
40383		-4.985418	-3.041274	7.938754	-0.002219	0.005969	-0.005414	-0.475586	-0.069092	-0.517578	-20.785113	30.194551	-143.206241
40384		-5.008239	-3.045797	7.929746	-0.002989	0.005974	-0.002075	-0.487793	-0.064209	-0.517578	-20.785646	30.194779	-143.206774
40385		-4.986200	-3.041934	7.938011	-0.001299	0.006123	-0.001764	-0.476318	-0.062012	-0.507568	-20.784933	30.194798	-143.206106
40386		-4.989901	-3.008575	7.930824	-0.002908	0.000396	-0.002639	-0.482422	-0.060059	-0.521729	-20.784973	30.191969	-143.201560
40387		-4.964134	-3.038282	7.946214	0.000391	0.006272	-0.001452	-0.484863	-0.068115	-0.520996	-20.783213	30.192131	-143.200733
40388		-4.995291	-3.023418	7.949459	-0.005425	0.007065	-0.006731	-0.478271	-0.066406	-0.507080	-20.786821	30.192214	-143.200673
40389		-4.982599	-3.029131	7.917471	-0.002988	0.005974	-0.002075	-0.484131	-0.072510	-0.509277	-20.787156	30.192090	-143.200162
40390		-4.979460	-3.063053	7.924083	-0.001000	0.005424	-0.003086	-0.482910	-0.070313	-0.513428	-20.786737	30.191658	-143.201584
40391		-4.983356	-3.029629	7.916804	-0.001299	0.006123	-0.001763	-0.479980	-0.061035	-0.515381	-20.786024	30.191678	-143.200916
40392		-5.001573	-3.038840	7.967314	0.000517	0.004180	-0.002081	-0.476074	-0.068359	-0.513672	-20.784373	30.191006	-143.198689
40393		-4.997026	-3.024887	7.947810	-0.004551	0.003733	-0.003016	-0.477539	-0.064453	-0.513672	-20.785631	30.189490	-143.198234
40394		-4.979507	-3.016237	7.896645	-0.002815	0.007368	-0.002768	-0.485107	-0.065186	-0.507813	-20.786507	30.190467	-143.198342
40395		-4.997961	-3.025441	7.947011	0.001954	0.008514	-0.000511	-0.485596	-0.069336	-0.513184	-20.783824	30.192021	-143.197459
40396		-4.976913	-3.050178	7.902903	-0.001791	0.003178	-0.007367	-0.486084	-0.063232	-0.505615	-20.784932	30.189513	-143.198898
40397		-4.998572	-3.026068	7.946388	-0.002815	0.007368	-0.002769	-0.477051	-0.073486	-0.512695	-20.785549	30.189994	-143.199145
40398		-4.990768	-3.045822	7.933647	-0.002815	0.007368	-0.002769	-0.478760	-0.064209	-0.520508	-20.786318	30.190706	-143.200032
40399		-4.991141	-3.046109	7.933302	-0.001171	0.004031	-0.002393	-0.479980	-0.072510	-0.508057	-20.785481	30.189477	-143.199261
40400		-5.008097	-3.007527	7.957585	-0.001298	0.006124	-0.001763	-0.485596	-0.067627	-0.509277	-20.784993	30.189915	-143.199332
40401		-4.987084	-3.032204	7.913469	0.000691	0.005574	-0.002774	-0.478760	-0.063721	-0.509033	-20.783391	30.189435	-143.199160
40402		-5.000430	-3.027301	7.944749	-0.002561	0.003183	-0.004028	-0.484619	-0.064453	-0.514404	-20.783933	30.187681	-143.197947
40403		-4.995909	-3.013429	7.925197	-0.002987	0.005975	-0.002075	-0.478516	-0.066406	-0.516357	-20.784267	30.187557	-143.197436
40404		-4.997601	-3.061608	7.951011	-0.000825	0.006819	-0.003780	-0.476563	-0.065674	-0.515625	-20.784238	30.187986	-143.196638
40405		-4.978954	-3.024131	7.952426	-0.003033	0.002489	-0.002011	-0.478271	-0.062500	-0.516602	-20.784166	30.186008	-143.195268
40406		-4.971017	-3.043775	7.939806	-0.001425	0.008217	-0.001134	-0.478271	-0.071777	-0.513184	-20.783878	30.187864	-143.192932
40407		-4.979848	-3.024641	7.951672	-0.002987	0.005975	-0.002075	-0.483643	-0.069824	-0.512695	-20.784213	30.187741	-143.192421
40408		-5.002752	-3.029132	7.942589	-0.002814	0.007369	-0.002769	-0.476318	-0.067383	-0.507324	-20.784999	30.188521	-143.194869
40409		-4.972388	-3.044796	7.938556	-0.004849	0.004432	-0.001694	-0.482178	-0.070801	-0.512207	-20.786099	30.187649	-143.193759
40410		-4.972913	-3.044976	7.938158	0.002127	0.009909	-0.001202	-0.490234	-0.057861	-0.522461	-20.783866	30.190096	-143.195145
40411		-4.999542	-3.015660	7.922057	-0.004802	0.007918	-0.001758	-0.477295	-0.071289	-0.508057	-20.785372	30.191078	-143.194896
40412		-5.004753	-3.030250	7.940902	-0.001170	0.004032	-0.002392	-0.480957	-0.074951	-0.510742	-20.784763	30.190247	-143.191718
40413		-5.005128	-3.030537	7.940556	-0.002813	0.007369	-0.002769	-0.478271	-0.068604	-0.515137	-20.785379	30.190729	-143.191965
40414		-4.970011	-3.031913	7.917279	-0.002513	0.006670	-0.004092	-0.488525	-0.058594	-0.517578	-20.786323	30.190882	-143.195946
40415		-4.996733	-3.021953	7.979906	-0.001123	0.007518	-0.002456	-0.489746	-0.064941	-0.513184	-20.785891	30.191508	-143.196035
40416		-4.998137	-3.050911	7.927050	-0.002685	0.005277	-0.003398	-0.483887	-0.070801	-0.508789	-20.786589	30.191057	-143.191203
40417		-4.993705	-3.036945	7.907474	-0.001296	0.006125	-0.001763	-0.482666	-0.063477	-0.512451	-20.785876	30.191078	-143.190534
40418		-4.984948	-3.028011	7.947193	-0.004628	0.009313	-0.002452	-0.486816	-0.066895	-0.513672	-20.787823	30.192909	-143.190626
40419		-4.993758	-3.008829	7.959101	0.002209	0.004331	-0.001767	-0.479736	-0.063232	-0.516357	-20.784890	30.191968	-143.189538
40420		-4.985777	-3.028339	7.946548	-0.002985	0.005976	-0.002076	-0.483643	-0.060303	-0.521484	-20.785447	30.192241	-143.186966
40421		-4.986248	-3.028584	7.946159	-0.001596	0.006824	-0.000440	-0.483398	-0.071045	-0.502197	-20.784576	30.192905	-143.185641
40422		-4.991573	-3.043094	7.964966	-0.002811	0.007370	-0.002769	-0.482178	-0.068115	-0.508057	-20.785374	30.193682	-143.184419
40423		-4.974073	-3.034316	7.913807	-0.002985	0.005976	-0.002076	-0.477051	-0.067871	-0.509033	-20.785707	30.193559	-143.183909
40424		-5.005259	-3.019388	7.917025	-0.003458	0.005280	-0.000060	-0.480713	-0.068115	-0.513428	-20.785765	30.193736	-143.183228
40425		-4.957324	-3.045024	7.940945	-0.003285	0.006674	-0.000753	-0.478516	-0.072998	-0.508301	-20.785941	30.194256	-143.182062
40426		-4.980277	-3.049391	7.931844	-0.001596	0.006824	-0.000440	-0.479736	-0.065918	-0.516846	-20.785230	30.195201	-143.183339
40427		-4.998365	-3.039522	7.903539	-0.002984	0.005976	-0.002076	-0.482910	-0.068604	-0.514404	-20.785564	30.195078	-143.182829
40428		-5.016734	-3.049106	7.953849	-0.004198	0.006522	-0.004405	-0.482178	-0.068359	-0.510742	-20.787610	30.195197	-143.183635
40429		-4.994720	-3.045259	7.962165	0.000394	0.006275	-0.001449	-0.489014	-0.062256	-0.512451	-20.785848	30.195362	-143.182806
40430		-4.998646	-3.011727	7.954936	-0.001469	0.004731	-0.001069	-0.484619	-0.062012	-0.515869	-20.785018	30.195020	-143.179339
40431		-4.990770	-3.031381	7.942253	-0.002636	0.008764	-0.003462	-0.488525	-0.073975	-0.517578	-20.785914	30.196110	-143.180343
40432		-5.013644	-3.035985	7.933099	-0.004371	0.005128	-0.003712	-0.481689	-0.059082	-0.512695	-20.787632	30.195511	-143.179671
40433		-4.991621	-3.032211	7.941401	-0.001121	0.007520	-0.002455	-0.484131	-0.058838	-0.514648	-20.787199	30.196139	-143.179759
40434		-4.977971	-3.008909	7.962033	-0.000993	0.005427	-0.003085	-0.483398	-0.072266	-0.516846	-20.786915	30.195991	-143.174067
40435		-4.965101	-3.014202	7.930273	0.000996	0.004878	-0.004094	-0.486816	-0.066162	-0.514404	-20.785467	30.194871	-143.174549
40436		-4.992607	-3.032781	7.940563	-0.001167	0.004033	-0.002392	-0.481934	-0.064697	-0.510254	-20.784796	30.193939	-143.173674
40437		-4.993027	-3.033078	7.940186	-0.002635	0.008765	-0.003462	-0.483643	-0.065186	-0.511963	-20.785692	30.195028	-143.174679
40438		-5.015918	-3.037535	7.931068	-0.000993	0.005427	-0.003085	-0.476563	-0.067871	-0.519043	-20.785322	30.194713	-143.173133
40439		-4.988983	-3.019504	7.920214	-0.004370	0.005128	-0.003713	-0.490723	-0.073486	-0.516357	-20.786860	30.193803	-143.173438
40440		-5.021366	-3.052609	7.949581	-0.003157	0.004582	-0.001383	-0.487061	-0.069580	-0.510498	-20.787099	30.193439	-143.173051
40441		-4.967149	-3.016044	7.928291	-0.001167	0.004033	-0.002392	-0.480225	-0.072510	-0.511963	-20.786261	30.192212	-143.172279
40442		-4.981589	-3.039854	7.906951	-0.002808	0.007371	-0.002769	-0.479492	-0.062500	-0.508057	-20.786994	30.192881	-143.174534
40443		-4.990506	-3.020746	7.918781	-0.001421	0.008219	-0.001132	-0.479248	-0.070801	-0.514648	-20.786404	30.194152	-143.173967
40444		-4.964960	-3.050572	7.934041	-0.004543	0.003734	-0.003021	-0.486572	-0.068115	-0.511230	-20.787867	30.193006	-143.173851
40445		-4.987760	-3.054979	7.924989	0.000093	0.006974	-0.000125	-0.483154	-0.062500	-0.510742	-20.785947	30.193815	-143.172367
40446		-4.988191	-3.055169	7.924644	-0.002680	0.005278	-0.003399	-0.479004	-0.069092	-0.510498	-20.786602	30.193299	-143.170674
40447		-4.996977	-3.036064	7.936559	-0.001595	0.006825	-0.000439	-0.479004	-0.070801	-0.513184	-20.785730	30.193964	-143.169348
40448		-4.975036	-3.032081	7.944915	-0.001293	0.006126	-0.001762	-0.479004	-0.070557	-0.512695	-20.785199	30.194322	-143.171184
40449		-4.970800	-3.018131	7.925207	-0.004925	0.010013	-0.001130	-0.477295	-0.069092	-0.511719	-20.786827	30.196554	-143.171038
40450		-4.990152	-3.056198	7.923013	0.000824	0.003485	-0.003400	-0.484375	-0.066650	-0.509033	-20.785293	30.195195	-143.173239
40451		-5.007278	-3.017639	7.947263	-0.003585	0.007373	0.000569	-0.485840	-0.068115	-0.516602	-20.785312	30.196359	-143.171419
40452		-5.004237	-3.051684	7.953725	-0.004193	0.006524	-0.004406	-0.484619	-0.064697	-0.509033	-20.787291	30.196312	-143.171773
40453		-4.994799	-3.023460	7.915038	0.000650	0.002091	-0.002708	-0.480957	-0.067627	-0.508301	-20.785279	30.193980	-143.170740
40454		-4.954962	-3.029601	7.951538	-0.000689	0.004730	-0.004407	-0.477783	-0.063721	-0.511230	-20.785031	30.192940	-143.170747
40455		-4.977707	-3.034063	7.942484	-0.002981	0.005977	-0.002077	-0.484131	-0.072021	-0.509766	-20.785363	30.192818	-143.170238
40456		-4.973292	-3.020056	7.922911	-0.001293	0.006127	-0.001762	-0.476807	-0.062744	-0.517822	-20.784821	30.193131	-143.170269
40457		-4.983449	-3.048771	7.960959	-0.001594	0.006825	-0.000439	-0.484619	-0.072021	-0.516602	-20.783949	30.193796	-143.168944
40458		-4.978940	-3.034774	7.941440	-0.002551	0.003186	-0.004030	-0.486816	-0.064697	-0.508301	-20.784562	30.192267	-143.168849
40459		-4.987500	-3.015759	7.953473	-0.003329	0.003188	-0.000692	-0.479248	-0.072266	-0.506836	-20.784333	30.190933	-143.166825
40460		-4.979443	-3.035444	7.940868	-0.002980	0.005977	-0.002077	-0.488281	-0.067139	-0.515869	-20.784781	30.190958	-143.167194
40461		-5.015487	-3.034883	7.963216	-0.002504	0.006674	-0.004092	-0.479248	-0.062500	-0.510742	-20.785551	30.190800	-143.168097
40462		-5.015895	-3.035288	7.962805	-0.002503	0.006674	-0.004092	-0.485596	-0.069824	-0.511719	-20.786526	30.190992	-143.166918
40463		-4.980629	-3.036535	7.939707	-0.000990	0.005429	-0.003084	-0.484375	-0.064209	-0.514160	-20.785966	30.190372	-143.166904
40464		-4.976298	-3.022544	7.920074	-0.002933	0.009465	-0.002138	-0.481201	-0.072510	-0.512207	-20.786871	30.192378	-143.166312
40465		-4.981642	-3.037182	7.938824	-0.002677	0.005279	-0.003400	-0.489502	-0.063477	-0.514160	-20.787359	30.191613	-143.166458
40466		-4.986992	-3.051790	7.957583	-0.003410	0.008768	-0.000123	-0.474609	-0.064453	-0.509033	-20.787815	30.193636	-143.164952
40467		-4.977865	-3.023435	7.918749	-0.001769	0.005431	0.000254	-0.478027	-0.063721	-0.512939	-20.786662	30.193695	-143.162870
40468		-5.005532	-3.042212	7.928810	-0.004190	0.006525	-0.004407	-0.480469	-0.067871	-0.512451	-20.788739	30.193878	-143.163372
40469		-4.983566	-3.038510	7.937109	-0.002804	0.007373	-0.002769	-0.472656	-0.068359	-0.515381	-20.789351	30.194363	-143.163620
40470		-5.028064	-3.018582	7.971694	-0.002979	0.005978	-0.002077	-0.477783	-0.066406	-0.513184	-20.789929	30.194728	-143.164816
40471		-4.984434	-3.039200	7.936300	-0.002979	0.005978	-0.002077	-0.481201	-0.062988	-0.512207	-20.790260	30.194607	-143.164307
40472		-4.984797	-3.039561	7.935933	-0.002676	0.005280	-0.003400	-0.482666	-0.063477	-0.517090	-20.790987	30.194280	-143.163305
40473		-4.971206	-3.016338	7.956596	-0.001116	0.007523	-0.002453	-0.487793	-0.064941	-0.507324	-20.790551	30.194910	-143.163393
40474		-4.980690	-3.025881	7.916038	-0.002548	0.003187	-0.004030	-0.479980	-0.065918	-0.518311	-20.791097	30.193183	-143.160709
40475		-4.994405	-3.021114	7.947105	-0.001069	0.011011	-0.002514	-0.477539	-0.070068	-0.514404	-20.791066	30.195669	-143.161655
40476		-4.986685	-3.040854	7.934252	-0.006959	0.007074	-0.000063	-0.485596	-0.067627	-0.516846	-20.793429	30.197042	-143.161045
40477		-4.995553	-3.021773	7.946133	0.002866	0.006428	-0.004466	-0.481689	-0.068848	-0.515869	-20.791209	30.196676	-143.162123
40478		-4.995899	-3.021962	7.945844	-0.002675	0.005280	-0.003400	-0.481445	-0.073242	-0.515381	-20.791893	30.196279	-143.162069
40479		-4.991462	-3.007973	7.926274	-0.001115	0.007523	-0.002453	-0.484375	-0.065918	-0.515381	-20.791457	30.196909	-143.162157
40480		-4.965989	-3.037681	7.941570	-0.000812	0.006826	-0.003776	-0.474365	-0.072754	-0.509766	-20.791356	30.197231	-143.163851
40481		-5.006264	-3.031987	7.904525	-0.000684	0.004733	-0.004407	-0.482910	-0.071533	-0.513672	-20.790951	30.195969	-143.164492
40482		-4.997421	-3.023008	7.944488	-0.000987	0.005431	-0.003084	-0.479004	-0.068359	-0.503174	-20.790546	30.195645	-143.168533
40483		-4.997722	-3.023187	7.944231	0.001004	0.004883	-0.004090	-0.482910	-0.063965	-0.508545	-20.789094	30.194529	-143.169015
40484		-4.997979	-3.023355	7.944006	-0.001162	0.004035	-0.002392	-0.482666	-0.069580	-0.518066	-20.788387	30.193484	-143.168084
40485		-5.015772	-3.013404	7.915814	0.001004	0.004883	-0.004090	-0.478760	-0.061279	-0.512207	-20.786934	30.192368	-143.168565
40486		-4.998451	-3.023669	7.943589	0.001308	0.004186	-0.005413	-0.481201	-0.062012	-0.512207	-20.785881	30.191073	-143.168434
40487		-4.990202	-3.043219	7.931133	0.001786	0.004883	-0.007428	-0.487549	-0.067383	-0.512451	-20.785020	30.189278	-143.170984
40488		-4.976343	-3.019882	7.952040	0.001133	0.002790	-0.004721	-0.483154	-0.062988	-0.509766	-20.783629	30.187217	-143.169013
40489		-4.985491	-3.029286	7.911712	0.001436	0.002093	-0.006044	-0.480957	-0.060059	-0.512695	-20.782207	30.184209	-143.170048
40490		-4.981500	-3.034459	7.970935	0.000573	0.007674	-0.002137	-0.487793	-0.073975	-0.517822	-20.780955	30.185379	-143.166126
40491		-4.990922	-3.043833	7.930444	0.001612	0.003488	-0.006736	-0.482910	-0.067139	-0.522461	-20.779814	30.182978	-143.167918
40492		-4.977879	-3.049170	7.898723	-0.002978	0.005978	-0.002078	-0.483887	-0.066162	-0.512207	-20.780342	30.183255	-143.167542
40493		-4.977486	-3.020801	7.950976	0.000830	0.003488	-0.003398	-0.477295	-0.059570	-0.518311	-20.778609	30.181532	-143.167267
40494		-4.986858	-3.030134	7.910525	0.000701	0.005581	-0.002767	-0.477051	-0.069092	-0.509277	-20.777277	30.181582	-143.164103
40495		-5.013829	-3.020178	7.973138	-0.000811	0.006826	-0.003776	-0.480713	-0.066162	-0.513428	-20.776996	30.181571	-143.164847
40496		-4.921023	-3.046711	7.883745	-0.002066	0.003885	-0.006046	-0.484375	-0.061035	-0.517334	-20.777994	30.179889	-143.167548
40497		-4.978702	-3.021779	7.949842	-0.000811	0.006826	-0.003776	-0.483398	-0.072510	-0.513672	-20.777713	30.179878	-143.168291
40498		-4.979086	-3.022021	7.949510	-0.000986	0.005431	-0.003084	-0.476318	-0.065918	-0.513184	-20.777354	30.179631	-143.166841
40499		-4.970934	-3.041696	7.936938	-0.002369	0.004583	-0.004724	-0.475830	-0.072266	-0.513672	-20.777997	30.178225	-143.167644
40500		-5.002183	-3.026784	7.940053	0.000748	0.009070	-0.002828	-0.481934	-0.066895	-0.516846	-20.777028	30.180081	-143.171077
40501		-4.983872	-2.989311	7.941479	-0.003705	0.007223	-0.006425	-0.480957	-0.065186	-0.510010	-20.779278	30.179744	-143.173555
40502		-4.960227	-3.095628	7.930405	0.000702	0.005582	-0.002767	-0.472656	-0.068359	-0.508545	-20.777880	30.179657	-143.172396
40503		-5.003407	-3.027639	7.938955	-0.000985	0.005431	-0.003084	-0.479736	-0.064941	-0.515625	-20.777319	30.179040	-143.172383
40504		-4.981408	-3.023665	7.947430	-0.001290	0.006129	-0.001762	-0.479004	-0.069336	-0.508057	-20.776848	30.179538	-143.172813
40505		-4.973342	-3.043297	7.934816	-0.002672	0.005280	-0.003401	-0.476807	-0.067627	-0.522217	-20.777335	30.178776	-143.172961
40506		-5.004672	-3.028467	7.937842	-0.003410	0.008769	-0.000125	-0.485596	-0.067871	-0.512207	-20.777876	30.181028	-143.173307
40507		-4.982758	-3.024525	7.946256	-0.001160	0.004036	-0.002392	-0.484131	-0.062256	-0.519775	-20.777035	30.179804	-143.172537
40508		-4.974720	-3.044271	7.933578	-0.003832	0.009317	-0.005794	-0.479004	-0.068359	-0.519043	-20.779622	30.181099	-143.172279
40509		-4.983675	-3.025244	7.945407	0.000398	0.006280	-0.001444	-0.486328	-0.062256	-0.506836	-20.777858	30.181271	-143.171449
40510		-4.987691	-2.991752	7.938161	-0.000809	0.006827	-0.003776	-0.481689	-0.066162	-0.504150	-20.777776	30.181606	-143.170420
40511		-5.029377	-3.034160	7.926992	-0.004312	0.008619	-0.003780	-0.477051	-0.065674	-0.508789	-20.779715	30.182555	-143.171587
40512		-4.937382	-3.080010	7.916156	-0.000808	0.006828	-0.003776	-0.477295	-0.061768	-0.513672	-20.779587	30.182776	-143.172867
40513		-4.989249	-2.992831	7.936775	-0.002929	0.009467	-0.002140	-0.480957	-0.058594	-0.517090	-20.780323	30.184513	-143.173217
40514		-4.994537	-3.007500	7.955557	-0.002542	0.003188	-0.004033	-0.484863	-0.070068	-0.507080	-20.781005	30.183111	-143.168742
40515		-4.969429	-3.065998	7.918408	-0.004182	0.006526	-0.004411	-0.472656	-0.071289	-0.509277	-20.782819	30.182811	-143.169808
40516		-5.000179	-3.022639	7.973938	-0.001417	0.008223	-0.001130	-0.478027	-0.063721	-0.517334	-20.782352	30.184288	-143.173203
40517		-4.982512	-3.013719	7.922841	-0.004486	0.007223	-0.003089	-0.483398	-0.064209	-0.507080	-20.784011	30.184630	-143.173614
40518		-4.984304	-3.062093	7.948451	-0.002799	0.007374	-0.002771	-0.478516	-0.064941	-0.509766	-20.784845	30.185516	-143.171856
40519		-4.996904	-3.009381	7.953358	-0.001417	0.008223	-0.001130	-0.481445	-0.064453	-0.509277	-20.784253	30.186792	-143.171288
40520		-4.975517	-3.034050	7.909271	-0.002365	0.004584	-0.004724	-0.481201	-0.073975	-0.513428	-20.785086	30.185709	-143.171273
40521		-4.980681	-3.048648	7.928155	-0.001464	0.004734	-0.001070	-0.485352	-0.068848	-0.519043	-20.784090	30.185129	-143.169847
40522		-4.993148	-2.995937	7.933151	-0.002798	0.007375	-0.002771	-0.476807	-0.063721	-0.514160	-20.784856	30.185922	-143.171768
40523		-4.964093	-3.059222	7.955414	0.000399	0.006281	-0.001443	-0.478516	-0.063721	-0.516602	-20.783092	30.186094	-143.170937
40524		-5.021236	-3.014761	7.942847	-0.001158	0.004037	-0.002392	-0.480713	-0.063965	-0.519775	-20.782544	30.185450	-143.168515
40525		-4.951513	-3.064644	7.923342	-0.003103	0.008072	-0.001448	-0.477539	-0.066650	-0.511475	-20.783000	30.186581	-143.168109
40526		-4.994903	-2.996889	7.931687	-0.002492	0.006678	-0.004093	-0.480225	-0.072998	-0.510986	-20.784027	30.186939	-143.167997
40527		-4.988207	-3.064442	7.945096	-0.001593	0.006827	-0.000438	-0.481934	-0.072021	-0.509766	-20.783155	30.187609	-143.166672
40528		-4.987369	-3.016742	7.918633	-0.002974	0.005979	-0.002079	-0.483398	-0.062744	-0.503906	-20.783584	30.187649	-143.170221
40529		-4.997562	-3.045693	7.956584	-0.002974	0.005979	-0.002079	-0.480957	-0.065674	-0.512207	-20.783915	30.187530	-143.169714
40530		-4.962203	-3.046810	7.933643	-0.000981	0.005433	-0.003083	-0.484131	-0.072021	-0.511963	-20.783508	30.187136	-143.167909
40531		-4.974623	-2.994229	7.938633	-0.004178	0.006527	-0.004412	-0.476563	-0.069092	-0.504150	-20.785320	30.186837	-143.168976
40532		-4.998733	-3.046563	7.955515	0.001605	0.005734	0.000891	-0.483643	-0.060791	-0.518555	-20.782175	30.187340	-143.169773
40533		-4.999180	-3.046647	7.955202	-0.002973	0.005979	-0.002080	-0.482910	-0.062500	-0.514404	-20.782506	30.187221	-143.169266
40534		-4.967426	-3.014248	7.925303	-0.004660	0.005828	-0.002399	-0.474365	-0.068359	-0.511230	-20.784155	30.187456	-143.164062
40535		-4.994958	-3.033125	7.935311	-0.000851	0.003340	-0.003715	-0.480713	-0.067871	-0.514404	-20.783467	30.185591	-143.163947
40536		-4.981309	-3.009914	7.956157	-0.002667	0.005282	-0.003402	-0.488525	-0.074219	-0.510010	-20.784166	30.185249	-143.165930
40537		-4.973262	-3.029434	7.943546	0.000095	0.006979	-0.000119	-0.484619	-0.068604	-0.521240	-20.782247	30.186065	-143.164443
40538		-4.973684	-3.029699	7.943181	-0.004353	0.005131	-0.003721	-0.484375	-0.065186	-0.511475	-20.783889	30.185346	-143.165733
40539		-5.013309	-2.995461	7.958593	0.002216	0.004340	-0.001754	-0.482178	-0.069824	-0.511475	-20.780951	30.184416	-143.164639
40540		-4.996574	-3.034436	7.933792	-0.005734	0.004283	-0.005363	-0.480469	-0.064941	-0.512695	-20.783828	30.182953	-143.165544
40541		-4.974517	-3.031033	7.942150	-0.007373	0.007621	-0.005742	-0.471191	-0.062256	-0.510742	-20.788015	30.182970	-143.167692
40542		-4.997300	-3.036149	7.932680	-0.009542	0.006770	-0.004048	-0.475098	-0.068604	-0.513672	-20.793088	30.183399	-143.167737
40543		-5.001275	-3.003660	7.925107	-0.015083	0.005616	-0.002992	-0.484375	-0.070068	-0.519531	-20.800599	30.182901	-143.167710
40544		-4.946333	-3.097761	7.962537	-0.022876	0.009194	0.000330	-0.476563	-0.068115	-0.511475	-20.812179	30.185444	-143.167973
40545		-5.016082	-3.002400	7.954229	-0.034216	0.011074	0.003704	-0.488037	-0.068359	-0.510986	-20.829212	30.189232	-143.165083
40546		-4.992512	-3.083503	7.993909	-0.062235	0.012840	0.003191	-0.476318	-0.075684	-0.506592	-20.862804	30.194086	-143.163744
40547		-4.992774	-3.040588	7.964984	-0.072086	0.022551	0.008094	-0.478760	-0.064941	-0.513184	-20.901533	30.204918	-143.160851
40548		-5.003823	-3.055186	7.921251	-0.078222	0.022796	0.011794	-0.478271	-0.063965	-0.518066	-20.942796	30.216894	-143.159843
40549		-4.992245	-3.037207	7.938912	-0.074480	0.025899	0.011057	-0.480957	-0.067139	-0.512207	-20.982380	30.230128	-143.155927
40550		-4.977479	-3.080707	7.910951	-0.061142	0.023481	0.006682	-0.482422	-0.063721	-0.504395	-21.015617	30.241596	-143.154359
40551		-5.013740	-3.036030	7.904871	-0.050156	0.018809	0.004687	-0.474121	-0.063232	-0.510986	-21.042409	30.249733	-143.152716
40552		-5.011626	-3.073445	7.909245	-0.047240	0.016186	-0.000288	-0.477051	-0.059326	-0.511963	-21.068924	30.255691	-143.153537
40553		-5.012928	-3.077311	7.906916	-0.048256	0.018142	-0.003307	-0.479248	-0.064209	-0.516357	-21.097044	30.261825	-143.156691
40554		-5.027619	-3.076783	7.935885	-0.054677	0.016856	-0.005916	-0.479736	-0.062744	-0.504150	-21.129747	30.267198	-143.159863
40555		-5.010042	-3.071888	7.883040	-0.056145	0.009036	-0.007466	-0.484131	-0.059814	-0.510742	-21.162590	30.267604	-143.163420
40556		-4.974629	-3.076774	7.858648	-0.042415	0.006046	-0.006171	-0.481201	-0.065674	-0.510986	-21.186923	30.266821	-143.163849
40557		-4.961056	-3.056933	7.878435	-0.041390	0.004092	-0.003153	-0.479004	-0.062012	-0.515625	-21.209370	30.265476	-143.163552
40558		-4.966037	-3.074251	7.896342	-0.027538	-0.000993	-0.002498	-0.478516	-0.066650	-0.508789	-21.223234	30.261868	-143.162173
40559		-5.005620	-3.069994	7.858762	-0.021468	-0.002504	0.001484	-0.476318	-0.062500	-0.514648	-21.232023	30.257962	-143.157424
40560		-4.979237	-3.073057	7.926555	-0.021773	-0.001812	0.002810	-0.475342	-0.054199	-0.510742	-21.240830	30.255028	-143.154071
40561		-4.996468	-3.064097	7.898151	-0.016289	-0.004149	0.001809	-0.477051	-0.059570	-0.508545	-21.246352	30.250313	-143.148725
40562		-4.987757	-3.084314	7.885476	-0.013714	-0.003869	0.005788	-0.482178	-0.072510	-0.512939	-21.249444	30.247027	-143.137929
40563		-4.956823	-3.100221	7.881736	-0.013536	-0.002469	0.005103	-0.479736	-0.068359	-0.518066	-21.252566	30.243894	-143.130950
40564		-4.995942	-3.066202	7.897666	-0.004508	-0.009978	0.011140	-0.483154	-0.057861	-0.515137	-21.247832	30.238226	-143.123883
40565		-4.999227	-3.032383	7.891284	-0.005962	-0.005235	0.010091	-0.483154	-0.065918	-0.515869	-21.244729	30.234650	-143.113158
40566		-4.990605	-3.051337	7.879040	-0.001092	-0.006191	0.011740	-0.483887	-0.063232	-0.510742	-21.238391	30.231244	-143.100230
40567		-5.004338	-3.074059	7.857990	0.000107	-0.006751	0.014071	-0.483887	-0.054688	-0.513184	-21.230390	30.227683	-143.086682
40568		-4.959569	-3.064963	7.876252	0.002989	-0.007163	0.016724	-0.480957	-0.053955	-0.506104	-21.220034	30.224722	-143.068444
40569		-4.959515	-3.063591	7.876819	0.009542	-0.007972	0.018694	-0.473877	-0.059326	-0.510010	-21.205044	30.221463	-143.051747
40570		-4.954633	-3.046897	7.858612	0.021017	-0.006247	0.022269	-0.479736	-0.059326	-0.506104	-21.182800	30.220254	-143.030514
40571		-4.954886	-3.044004	7.859574	0.024563	-0.004552	0.022227	-0.482178	-0.058838	-0.505127	-21.158519	30.219542	-143.012455
40572		-4.977147	-3.044114	7.852250	0.043592	-0.018159	0.030279	-0.477051	-0.063477	-0.516602	-21.119322	30.213384	-142.984796
40573		-4.915154	-3.068717	7.847715	0.059646	-0.016696	0.036825	-0.481445	-0.060303	-0.504395	-21.068942	30.209170	-142.954812
40574		-4.878881	-3.062348	7.828268	0.072491	-0.026689	0.041542	-0.486084	-0.055908	-0.507813	-21.008720	30.200894	-142.920185
40575		-4.887921	-3.082905	7.870183	0.083284	-0.030549	0.047856	-0.492432	-0.060547	-0.511963	-20.939724	30.191477	-142.880101
40576		-4.830703	-3.118573	7.886254	0.085036	-0.024679	0.055757	-0.481689	-0.066406	-0.510742	-20.868091	30.186901	-142.831776
40577		-4.702980	-3.313582	7.862695	0.080891	-0.020519	0.073712	-0.482666	-0.062256	-0.508545	-20.793621	30.188037	-142.778068
40578		-4.563429	-3.355091	7.801435	0.073063	-0.004643	0.100509	-0.479492	-0.062012	-0.514160	-20.717287	30.203286	-142.712995
40579		-4.449207	-3.492972	7.972159	0.055545	0.032431	0.147364	-0.493164	-0.063721	-0.507813	-20.640536	30.247584	-142.625969
40580		-4.504868	-3.314852	8.209242	0.020935	0.093788	0.186283	-0.481689	-0.052979	-0.512939	-20.578652	30.332710	-142.528355
40581		-4.762776	-2.972681	8.388490	-0.015173	0.195981	0.212235	-0.476807	-0.072266	-0.512695	-20.540938	30.477643	-142.438869
40582		-4.889241	-2.547976	8.568319	-0.090785	0.337762	0.208115	-0.469727	-0.057861	-0.512695	-20.564581	30.698138	-142.386940
40583		-4.806858	-2.773462	8.596768	-0.146357	0.516438	0.213996	-0.468506	-0.060303	-0.511719	-20.639308	31.015349	-142.371319
40584		-5.116526	-3.151872	8.741159	-0.172951	0.714934	0.207609	-0.459229	-0.064453	-0.515625	-20.756148	31.438094	-142.410993
40585		-5.284787	-3.817627	8.606492	-0.171765	0.862811	0.195761	-0.456787	-0.062256	-0.508789	-20.895517	31.937132	-142.491085
40586		-3.445530	-3.141538	10.042015	-0.143676	1.083373	0.239044	-0.446777	-0.057373	-0.521484	-21.034505	32.563039	-142.609243
40587		-1.762001	-4.234931	10.165863	-0.287935	1.599074	0.415266	-0.430664	-0.051514	-0.521973	-21.267224	33.500491	-142.735560
40588		-3.511839	-3.717614	10.315203	-0.289482	2.095506	0.567940	-0.412598	-0.055176	-0.520020	-21.521764	34.734540	-142.899129
40589		-3.138371	-4.443012	10.320200	-0.253110	2.576723	0.727878	-0.389648	-0.043213	-0.530762	-21.775665	36.257756	-143.088537
40590		-3.049373	-4.644239	10.427474	-0.181720	3.123756	0.956283	-0.369141	-0.043701	-0.526367	-21.997183	38.119893	-143.284631
40591		-3.352016	-4.548490	10.217391	-0.048274	3.700913	1.232376	-0.336670	-0.042725	-0.538086	-22.137610	40.347468	-143.464654
40592		-3.155044	-4.564912	10.002322	0.052118	4.291824	1.530143	-0.303467	-0.045410	-0.542480	-22.207652	42.952464	-143.616794
40593		-3.992337	-4.350692	9.749585	0.157300	4.896399	1.827325	-0.255371	-0.044678	-0.541016	-22.202797	45.942686	-143.740150
40594		-5.885210	-3.531706	9.617992	0.165210	5.402213	2.037713	-0.200439	-0.043213	-0.541748	-22.201242	49.246362	-143.868129
40595		-9.967835	-2.934563	10.220249	0.037930	5.708061	2.090380	-0.158447	-0.044922	-0.537842	-22.336603	52.723966	-144.071667
40596		-14.832037	-2.099049	11.640458	-0.393875	5.578124	1.886650	-0.109619	-0.055420	-0.524902	-22.879930	56.086627	-144.463983
40597		-16.754399	-2.825312	11.695541	-1.023167	4.948042	1.528470	-0.070801	-0.033936	-0.518066	-23.969658	59.033398	-145.061547
40598		-14.686633	-4.045899	11.918222	-1.661966	4.130321	1.168497	-0.026855	-0.026855	-0.506104	-25.587635	61.459377	-145.829932
40599		-14.359411	-5.162627	10.307394	-2.165375	3.227279	1.034448	-0.015137	-0.020020	-0.488037	-27.384656	63.376107	-146.458662
40600		-8.606485	-5.641538	6.442764	-2.101500	2.594986	1.183216	0.018311	-0.009033	-0.478271	-28.792082	65.003749	-146.686444
40601		-5.577497	-5.300229	4.715174	-1.758006	2.076923	1.375352	0.035889	0.007813	-0.461670	-29.551856	66.424429	-146.416116
40602		-0.429180	-2.896198	9.196117	-1.632764	1.383446	1.388908	0.055908	0.011475	-0.457520	-29.775368	67.503767	-145.644581
40603		0.773064	-3.214887	13.871394	-1.971035	0.271090	1.199278	0.056152	0.029053	-0.443359	-29.625580	67.976728	-144.263687
40604		-8.065600	-5.358598	13.557022	-2.038378	-0.480436	1.099777	0.060059	0.033936	-0.442871	-29.090432	68.042021	-142.429560
40605		-2.279912	-7.333020	12.392577	-1.916632	-1.344854	0.826090	0.061279	0.045410	-0.441895	-28.254580	67.590505	-140.342188
40606		1.253493	-8.012710	9.607429	-1.514315	-1.944199	0.588731	0.046387	0.053467	-0.445557	-27.173658	66.756841	-138.231083
40607		1.397910	-7.162265	8.542087	-1.025798	-2.349416	0.353233	0.031738	0.068115	-0.441895	-25.977542	65.640741	-136.282725
40608		1.423612	-5.864328	8.371253	-0.713453	-2.582297	0.031359	0.028320	0.067139	-0.448975	-24.981465	64.307916	-134.735785
40609		1.316392	-4.898939	7.859900	-0.600109	-2.705378	-0.368936	-0.000488	0.069824	-0.449707	-24.402340	62.808514	-133.706306
40610		1.171050	-4.657143	7.279024	-0.536854	-2.781466	-0.777323	-0.012695	0.082275	-0.455566	-24.233633	61.167629	-133.170525
40611		0.592474	-4.464899	7.229182	-0.430877	-2.838752	-1.120856	-0.035645	0.082764	-0.467285	-24.328018	59.418216	-132.996247
40612		-0.454910	-4.001404	7.355518	-0.329793	-2.918859	-1.416322	-0.065674	0.092285	-0.481934	-24.587635	57.554429	-133.083071
40613		-1.366678	-3.435331	7.571489	-0.249206	-3.022605	-1.649370	-0.086426	0.102783	-0.477051	-24.926210	55.583322	-133.318965
40614		-2.047402	-2.859793	7.694885	-0.193404	-3.131538	-1.821574	-0.105957	0.098145	-0.481934	-25.290724	53.510032	-133.634569
40615		-2.706707	-2.337511	7.919561	-0.185542	-3.221326	-1.941675	-0.140625	0.108398	-0.483887	-25.665574	51.362611	-133.974683
40616		-3.335638	-2.065724	8.033311	-0.204058	-3.281423	-2.016873	-0.175537	0.116211	-0.500000	-26.043213	49.160861	-134.318103
40617		-3.862525	-2.141360	7.990616	-0.206573	-3.304938	-2.025966	-0.212646	0.112305	-0.491943	-26.385179	46.946642	-134.620169
40618		-4.371711	-2.471435	8.049276	-0.175617	-3.283144	-1.990822	-0.247314	0.119629	-0.501953	-26.668004	44.748139	-134.878713
40619		-4.990167	-2.895419	8.185118	-0.115713	-3.215229	-1.926967	-0.281982	0.127197	-0.501953	-26.879115	42.603498	-135.089981
40620		-5.947177	-3.586811	8.302729	-0.043022	-3.138210	-1.882210	-0.303955	0.130127	-0.499023	-27.029992	40.505862	-135.285099
40621		-7.122730	-4.522254	8.234846	0.061625	-3.051744	-1.874248	-0.343994	0.130859	-0.506104	-27.123085	38.457595	-135.488773
40622		-8.137154	-5.370029	8.083213	0.231111	-2.952252	-1.907439	-0.370605	0.125488	-0.492920	-27.141671	36.447720	-135.742097
40623		-9.266353	-6.056758	8.112255	0.426906	-2.834394	-1.972990	-0.403809	0.123047	-0.494629	-27.083334	34.484416	-136.065039
40624		-10.857254	-6.066312	8.537031	0.590593	-2.736467	-2.088861	-0.441406	0.119629	-0.494629	-26.976259	32.537838	-136.489119
40625		-12.585657	-5.319269	9.267157	0.657425	-2.672994	-2.287728	-0.467285	0.107422	-0.484131	-26.888263	30.576130	-137.042850
40626		-14.413985	-5.121016	9.437794	0.626956	-2.710366	-2.501511	-0.503906	0.109619	-0.488770	-26.853477	28.537167	-137.705705
40627		-15.585619	-5.458303	8.480741	0.668331	-2.824312	-2.599992	-0.533936	0.087646	-0.473145	-26.779591	26.418316	-138.377891
40628		-16.276615	-5.105546	6.901882	0.834590	-2.918204	-2.570452	-0.574707	0.073486	-0.472900	-26.566810	24.257539	-139.003299
40629		-16.768811	-4.669649	4.954993	1.021468	-2.951596	-2.443813	-0.603516	0.060547	-0.464355	-26.194526	22.117728	-139.547120
40630		-16.663667	-4.100518	2.708478	1.240683	-2.874718	-2.227379	-0.639404	0.046875	-0.455322	-25.646620	20.073361	-140.005129
40631		-16.061492	-3.244112	0.638706	1.396120	-2.657993	-1.922320	-0.656006	0.034668	-0.448730	-24.964194	18.223122	-140.366899
40632		-15.305317	-2.109203	-1.124407	1.438600	-2.311237	-1.560497	-0.682617	0.017090	-0.434814	-24.220403	16.642317	-140.640502
40633		-14.631102	-0.683908	-1.954127	1.283278	-1.852042	-1.204111	-0.696777	-0.005371	-0.434326	-23.540926	15.389980	-140.846845
40634		-10.532046	1.265217	-1.559334	0.866592	-1.248453	-0.856319	-0.710449	-0.010986	-0.430664	-23.087642	14.534817	-141.018845
40635		-14.292826	2.093973	-4.809520	0.145743	0.125866	-0.415239	-0.710693	-0.018066	-0.429199	-23.066280	14.505116	-141.271168
40636		-13.077536	-0.498381	-9.127261	-0.040254	1.017220	-0.071192	-0.703613	-0.003906	-0.428467	-23.157998	15.021587	-141.544666
40637		-14.859227	-3.381763	-10.688914	0.445917	2.083933	0.191399	-0.690674	-0.010498	-0.454346	-23.003038	16.160221	-141.922890
40638		-3.098412	-1.919200	-0.063510	0.790744	2.841162	0.331071	-0.675049	-0.013184	-0.465088	-22.687859	17.731097	-142.398503
40639		-10.047454	-1.907851	14.965000	0.305623	2.907144	-0.140279	-0.651123	-0.012939	-0.476074	-22.750488	19.233698	-143.151926
40640		-6.229204	-2.422431	17.041519	-0.234002	2.443577	-0.904815	-0.644043	-0.019775	-0.481445	-23.251252	20.317127	-144.237814
40641		-2.821822	-0.995680	9.093674	-0.462403	2.390365	-0.758771	-0.631592	-0.025146	-0.494141	-23.874415	21.395984	-145.247017
40642		-3.265494	4.432607	9.118404	-0.447091	2.613841	-0.013318	-0.614746	-0.015869	-0.497559	-24.379808	22.756916	-145.912333
40643		-7.130623	5.127378	13.505383	-0.694509	2.637505	0.672173	-0.593750	-0.009521	-0.503662	-24.897211	24.288356	-146.214406
40644		-8.932636	-0.222571	13.017059	-0.884370	2.274285	1.017020	-0.571533	0.005859	-0.509277	-25.413774	25.712894	-146.240261
40645		-8.700793	-8.316898	9.729151	-0.763630	2.039958	1.149868	-0.554199	0.019531	-0.510010	-25.804616	27.048984	-146.137670
40646		-12.731697	-14.590114	7.588712	-0.103573	1.739925	1.184476	-0.537109	0.019287	-0.516357	-25.768294	28.239354	-145.933798
40647		-17.571552	-17.047946	6.706876	1.153459	0.833873	1.232713	-0.527344	0.015625	-0.525146	-24.867901	28.970602	-145.435911
40648		-6.466860	1.774134	10.234876	1.091916	0.467566	0.836273	-0.516602	0.013184	-0.526855	-24.058302	29.410600	-145.060022
40649		-7.780000	0.423245	11.701617	0.730108	0.293487	0.758647	-0.526855	0.005371	-0.530273	-23.449877	29.736845	-144.677112
40650		-6.332291	-5.230556	7.477780	0.536156	0.121649	0.480902	-0.516357	-0.001465	-0.530762	-23.010732	29.907311	-144.413292
40651		-5.790100	-2.492698	8.919258	0.493667	0.172409	0.389036	-0.516846	-0.004150	-0.541016	-22.628629	30.082007	-144.216992
40652		-6.488299	-2.535886	8.920714	0.343961	0.089758	0.257668	-0.508789	0.002441	-0.543945	-22.361244	30.183739	-144.078385
40653		-5.625805	-3.455687	8.238898	0.247919	0.049710	0.163390	-0.511963	-0.004639	-0.537109	-22.172260	30.242738	-143.987335
40654		-5.478263	-3.068685	8.283082	0.187623	0.027831	0.115948	-0.513672	-0.011230	-0.534424	-22.029766	30.280248	-143.919339
40655		-5.316811	-3.252446	8.045972	0.147098	0.015484	0.080758	-0.506592	-0.002441	-0.543701	-21.919590	30.302944	-143.870217
40656		-5.186979	-3.316084	8.024150	0.114513	0.006799	0.063190	-0.501221	-0.004150	-0.536865	-21.832600	30.317788	-143.829296
40657		-5.066632	-3.440835	7.796366	0.097440	-0.006702	0.053657	-0.506836	-0.012939	-0.536133	-21.756478	30.322783	-143.791313
40658		-4.953926	-3.340244	7.742518	0.095075	-0.012461	0.056044	-0.507568	-0.009033	-0.542480	-21.680435	30.325767	-143.750024
40659		-5.013142	-3.202493	7.892600	0.088400	-0.016468	0.061748	-0.507813	-0.014160	-0.534180	-21.605752	30.327184	-143.704641
40660		-5.065030	-3.029661	7.945392	0.084626	-0.026560	0.062520	-0.506104	-0.005859	-0.543213	-21.531941	30.323928	-143.655913
40661		-5.095585	-3.004933	7.952646	0.084748	-0.032133	0.061915	-0.507080	-0.005127	-0.538086	-21.457379	30.316927	-143.606616
40662		-5.097797	-2.857808	8.030375	0.074785	-0.035234	0.052299	-0.515381	-0.004395	-0.534668	-21.391345	30.306804	-143.562110
40663		-5.106175	-2.907439	8.018956	0.053822	-0.030309	0.037606	-0.505127	-0.011230	-0.540283	-21.342333	30.295607	-143.528304
40664		-5.069384	-3.006728	7.919589	0.042008	-0.028095	0.021273	-0.503662	-0.006348	-0.541504	-21.305639	30.282767	-143.504715
40665		-5.001838	-3.066813	7.922263	0.026463	-0.028998	0.005649	-0.506592	-0.006836	-0.546387	-21.282447	30.265583	-143.491005
40666		-4.973408	-3.122159	7.887431	0.021741	-0.030147	0.003338	-0.513184	-0.003906	-0.547119	-21.262721	30.247904	-143.478026
40667		-4.871218	-3.364974	7.760363	0.013853	-0.033585	0.006721	-0.510498	-0.011475	-0.529541	-21.245882	30.228486	-143.462570
40668		-4.947339	-3.191005	7.873692	0.012506	-0.037811	0.012104	-0.514893	-0.015137	-0.538086	-21.227818	30.208525	-143.442361
40669		-5.020255	-3.183354	7.860829	0.003479	-0.037195	0.013112	-0.506836	-0.014160	-0.543213	-21.214520	30.188496	-143.422108
40670		-4.961212	-3.198328	7.928080	0.009444	-0.033107	0.017712	-0.517822	-0.009766	-0.540527	-21.197063	30.172201	-143.399589
40671		-5.023788	-3.057132	7.956918	0.004451	-0.030071	0.016685	-0.505615	-0.012939	-0.542480	-21.182976	30.156709	-143.378854
40672		-4.963630	-3.080388	7.892481	-0.001216	-0.029148	0.018352	-0.505859	-0.016113	-0.534668	-21.171924	30.142653	-143.356906
40673		-4.927683	-3.128807	7.896714	-0.013984	-0.015684	0.013551	-0.506104	-0.012939	-0.540771	-21.171114	30.134193	-143.341561
40674		-4.861807	-3.192720	7.896794	-0.017942	-0.005417	0.023091	-0.511719	-0.009521	-0.533936	-21.171034	30.133794	-143.322370
40675		-4.916896	-3.286849	7.810309	-0.025642	0.005124	0.026311	-0.514893	-0.010986	-0.551025	-21.175447	30.139093	-143.304122
40676		-4.900006	-3.221226	7.864446	-0.022964	0.009014	0.037247	-0.515381	-0.017822	-0.543701	-21.175592	30.149333	-143.279650
40677		-4.932263	-3.129923	7.893412	-0.023885	0.023660	0.041734	-0.509766	-0.008545	-0.544922	-21.176431	30.167727	-143.256304
40678		-4.862111	-3.156805	7.984266	-0.033334	0.039643	0.045228	-0.517578	-0.016846	-0.542480	-21.183712	30.195984	-143.234234
40679		-4.992768	-3.145344	8.019423	-0.032950	0.060722	0.051972	-0.512939	-0.009277	-0.540527	-21.191004	30.236302	-143.213431
40680		-5.115371	-2.974640	7.958038	-0.040172	0.068499	0.053228	-0.503418	-0.000244	-0.541992	-21.203171	30.281632	-143.193334
40681		-5.019024	-3.121214	7.963247	-0.038415	0.072155	0.053517	-0.507568	-0.008789	-0.545166	-21.214469	30.328384	-143.174319
40682		-5.065084	-3.010739	8.001303	-0.033669	0.078998	0.063426	-0.506348	-0.017090	-0.538818	-21.220963	30.381445	-143.150428
40683		-4.989561	-3.064171	7.945852	-0.035772	0.090730	0.065630	-0.506104	-0.010986	-0.543701	-21.229177	30.440635	-143.128374
40684		-5.040346	-3.105287	7.928123	-0.029775	0.103897	0.070815	-0.507813	-0.011475	-0.540527	-21.234106	30.508532	-143.105883
40685		-5.001783	-3.080960	7.921248	-0.027248	0.115475	0.083015	-0.505127	-0.005615	-0.548096	-21.234932	30.584549	-143.078991
40686		-5.089299	-3.071406	7.899131	-0.018422	0.124734	0.090919	-0.512451	-0.001465	-0.535889	-21.229491	30.667745	-143.049015
40687		-5.024263	-3.080558	7.966942	-0.010328	0.137471	0.102123	-0.501465	-0.003906	-0.551025	-21.217171	30.759468	-143.015496
40688		-5.057894	-3.141331	7.903538	-0.003683	0.160563	0.112889	-0.500488	-0.008789	-0.542725	-21.200583	30.866346	-142.980408
40689		-5.000626	-3.114274	7.963506	0.009965	0.185755	0.131322	-0.497559	-0.000488	-0.545898	-21.173098	30.989892	-142.940216
40690		-5.002334	-3.254375	7.908205	0.017544	0.220307	0.153978	-0.493652	-0.002197	-0.541992	-21.138329	31.137159	-142.893721
40691		-5.059639	-3.223472	7.840401	0.020400	0.250276	0.174336	-0.494629	-0.003906	-0.546143	-21.098676	31.304028	-142.841925
40692		-5.142454	-3.139472	7.867504	0.023661	0.268279	0.185167	-0.490479	-0.006592	-0.545654	-21.055833	31.483309	-142.787094
40693		-5.099271	-3.074356	7.916327	0.017353	0.297267	0.186156	-0.489014	-0.001465	-0.544678	-21.019454	31.677677	-142.738748
40694		-5.083044	-3.171414	7.958500	0.013688	0.337887	0.199361	-0.484619	-0.005615	-0.541992	-20.985897	31.897041	-142.691306
40695		-4.960008	-3.172830	8.074235	0.019220	0.405899	0.214698	-0.479004	0.000000	-0.541260	-20.952241	32.155331	-142.650713
40696		-4.858313	-3.306229	8.144328	0.024013	0.508510	0.245328	-0.472656	-0.006104	-0.546875	-20.918632	32.475351	-142.614942
40697		-4.465531	-2.898500	8.596811	-0.004926	0.655841	0.284649	-0.473633	-0.003418	-0.550781	-20.906872	32.881685	-142.590003
40698		-4.337837	-2.922850	8.665857	-0.062701	0.873093	0.332976	-0.465088	0.003174	-0.555664	-20.940372	33.414710	-142.586933
40699		-4.453404	-2.871440	8.934681	-0.109201	1.108794	0.381617	-0.453613	0.001709	-0.553711	-21.015524	34.083280	-142.611596
40700		-4.039218	-2.790538	9.098395	-0.199112	1.386779	0.430308	-0.439697	-0.001709	-0.560547	-21.165174	34.910917	-142.675778
40701		-4.308798	-2.789971	8.985250	-0.273198	1.702179	0.486794	-0.431396	0.007080	-0.554199	-21.385430	35.918052	-142.787662
40702		-4.377631	-2.770752	8.993143	-0.333004	2.014439	0.540397	-0.412842	0.005615	-0.559326	-21.673539	37.102847	-142.952617
40703		-4.609470	-2.889184	8.852125	-0.366012	2.334773	0.596423	-0.395264	0.013916	-0.563232	-22.019993	38.468817	-143.177588
40704		-4.623010	-3.054889	8.766480	-0.387193	2.665935	0.667657	-0.365967	0.018066	-0.562012	-22.421161	40.024967	-143.462406
40705		-4.471413	-3.569437	8.652699	-0.365583	3.037269	0.776140	-0.331543	0.019287	-0.564453	-22.851815	41.799486	-143.801791
40706		-4.397773	-4.282838	8.273116	-0.296266	3.428078	0.950870	-0.313232	0.026611	-0.568359	-23.266227	43.817475	-144.163177
40707		-4.505061	-4.983878	7.760069	-0.172257	3.809593	1.206852	-0.274170	0.032471	-0.565674	-23.594053	46.092422	-144.488970
40708		-4.443349	-5.098643	7.394730	-0.017258	4.182575	1.518990	-0.236816	0.027588	-0.568848	-23.779925	48.633883	-144.729566
40709		-4.147464	-5.451508	7.170345	0.151432	4.627968	1.916962	-0.197998	0.033936	-0.562500	-23.764694	51.500524	-144.824305
40710		-3.706051	-6.415247	7.157420	0.347403	5.194481	2.437965	-0.145020	0.024658	-0.568848	-23.443203	54.784146	-144.672892
40711		-3.213281	-6.788641	7.366489	0.593907	5.936206	3.084265	-0.083740	0.016602	-0.553955	-22.648664	58.602925	-144.131150
40712		-4.088508	-5.108716	7.810353	0.797213	6.883293	3.770413	-0.018555	0.000000	-0.545898	-21.235951	63.065250	-143.039160
40713		-7.648577	-3.898267	7.980039	0.875206	7.850079	4.256907	0.053223	-0.014160	-0.529297	-19.097352	68.125770	-141.244757
40714		-15.613771	-2.388842	8.929291	0.703593	8.484575	4.354905	0.121582	-0.040039	-0.491943	-16.068459	73.511568	-138.469965
40715		-27.346738	0.085234	9.924764	0.102948	8.199543	3.959000	0.196777	-0.054443	-0.473877	-11.655439	78.616806	-133.989659
40716		-28.184844	-0.608536	11.499427	-0.998001	7.343102	3.141110	0.248291	-0.057617	-0.429199	-4.935773	83.044725	-126.611232
40717		-25.184563	-2.232135	13.820373	-2.170270	6.495200	2.323578	0.301758	-0.064697	-0.378418	10.943851	86.728712	-109.430117
40718		-18.107709	-4.240620	14.204534	-2.522577	5.709432	2.298532	0.336914	-0.050537	-0.341309	90.677554	88.102145	-28.199397
40719		-11.596357	-7.200666	14.544365	-2.201240	4.975844	2.527170	0.377441	-0.058594	-0.311035	129.748426	85.604867	12.179064
40720		-6.182589	-4.309909	13.954354	-2.038550	4.663273	2.675767	0.405518	-0.068848	-0.269775	137.156573	82.649341	20.794724
40721		-3.840777	-0.008089	15.037913	-2.727377	4.631343	2.783425	0.439697	-0.072510	-0.234131	139.281238	79.608221	24.524614
40722		-3.603957	3.148781	10.215426	-3.422164	4.319708	3.253391	0.458008	-0.080322	-0.193604	138.372534	76.522334	25.596547
40723		-27.407871	1.505666	19.101502	-4.569985	3.285788	2.888529	0.480225	-0.081299	-0.169189	135.990515	74.018409	25.840187
40724		-21.825829	-9.084766	20.011022	-5.499826	0.155149	1.862189	0.487793	-0.067383	-0.159180	130.558624	73.185083	23.459247
40725		-16.860869	-13.502428	13.687741	-5.093946	-2.187519	1.044719	0.476563	-0.062012	-0.157959	123.080802	73.458209	18.699039
40726		-9.092868	-14.120699	7.469795	-3.819731	-3.548535	0.385099	0.455322	-0.047363	-0.173584	114.343607	74.247165	11.877941
40727		-4.366039	-12.248658	4.342255	-2.466594	-4.109836	-0.096171	0.444824	-0.035156	-0.199463	104.885538	75.091481	3.536600
40728		-1.751413	-9.552511	3.113469	-1.421935	-4.192451	-0.523624	0.420654	-0.022217	-0.225342	95.120090	75.809590	-5.714138
40729		-0.127277	-7.388011	2.107550	-0.700226	-4.000081	-0.991235	0.394775	-0.002197	-0.250488	85.444331	76.389245	-15.268200
40730		1.045869	-6.145485	1.586659	-0.183752	-3.659436	-1.411239	0.368164	0.006592	-0.272217	76.047780	76.852752	-24.822575
40731		1.339313	-5.042279	1.907528	0.147229	-3.273422	-1.753182	0.354736	0.019775	-0.292480	67.002922	77.209682	-34.190809
40732		0.357713	-3.653257	3.184331	0.254665	-2.942239	-2.083871	0.322021	0.029785	-0.317627	57.984196	77.489686	-43.587712
40733		-0.962494	-2.782786	4.522870	0.160090	-2.751323	-2.473708	0.290771	0.059814	-0.325684	48.465900	77.678440	-53.427894
40734		-2.194173	-2.511303	5.568224	-0.022669	-2.703840	-2.859213	0.257568	0.066406	-0.335938	38.085515	77.669490	-64.043917
40735		-2.962243	-2.628990	6.235302	-0.174271	-2.768285	-3.214436	0.229736	0.095459	-0.354980	27.117095	77.320021	-75.176036
40736		-3.631601	-2.749922	6.792708	-0.243575	-2.897715	-3.511550	0.190430	0.119385	-0.355957	16.253047	76.510320	-86.189950
40737		-4.419221	-2.858004	7.198089	-0.213902	-3.077081	-3.729287	0.154053	0.147461	-0.369629	6.434737	75.193169	-96.187966
40738		-5.099371	-2.698039	7.470083	-0.108365	-3.311788	-3.872485	0.103760	0.169922	-0.377686	-1.798221	73.373570	-104.679804
40739		-5.440155	-2.362805	7.759777	0.016052	-3.560184	-3.935160	0.068359	0.201172	-0.385254	-8.247649	71.136816	-111.460210
40740		-5.627801	-1.868241	8.149376	0.132251	-3.802785	-3.921137	0.000732	0.223389	-0.391846	-13.095398	68.567649	-116.709016
40741		-6.039602	-1.270305	8.798634	0.196719	-4.029689	-3.842993	-0.045166	0.241455	-0.407227	-16.625618	65.766563	-120.661505
40742		-6.710113	-0.772067	9.473967	0.168622	-4.248203	-3.735745	-0.105957	0.273926	-0.397461	-19.202403	62.781375	-123.634249
40743		-7.483380	-0.556427	10.093750	0.054099	-4.451736	-3.606954	-0.169434	0.281250	-0.400635	-21.098826	59.671441	-125.833585
40744		-8.343512	-0.814172	10.619180	-0.082568	-4.669517	-3.463887	-0.232666	0.288086	-0.381592	-22.506165	56.439853	-127.442134
40745		-9.123843	-1.269256	11.090089	-0.205856	-4.860524	-3.304030	-0.287598	0.301514	-0.367920	-23.544435	53.133449	-128.569432
40746		-9.869779	-2.029587	11.638726	-0.287784	-5.030994	-3.142292	-0.351807	0.315674	-0.337891	-24.305242	49.758073	-129.337688
40747		-10.955453	-2.758085	12.210876	-0.335792	-5.179491	-3.014569	-0.398926	0.321777	-0.312744	-24.867102	46.338120	-129.835679
40748		-12.280103	-4.087224	12.925689	-0.349944	-5.288232	-2.937811	-0.447754	0.333252	-0.291260	-25.301961	42.869905	-130.175902
40749		-14.413177	-6.024404	13.391591	-0.269597	-5.389768	-2.937730	-0.495850	0.330811	-0.253906	-25.620487	39.355434	-130.426914
40750		-17.455202	-7.830690	13.756683	-0.018860	-5.516822	-3.085720	-0.534912	0.327637	-0.235840	-25.799621	35.730034	-130.709733
40751		-20.455528	-8.289503	13.776328	0.415112	-5.613391	-3.380555	-0.601074	0.311768	-0.212891	-25.789702	31.988745	-131.120755
40752		-24.791941	-8.446272	13.523320	0.839603	-5.696090	-3.719071	-0.677734	0.277832	-0.186768	-25.599124	28.113759	-131.707391
40753		-30.311976	-8.210981	11.701467	1.269472	-5.833976	-3.894947	-0.741699	0.228760	-0.135254	-25.155277	24.134550	-132.354082
40754		-33.780801	-6.399935	8.234807	1.578025	-5.996417	-3.832715	-0.791504	0.160889	-0.089600	-24.473542	20.085090	-132.951669
40755		-33.749300	-3.354371	3.637862	1.576322	-5.996141	-3.589286	-0.813232	0.097656	-0.034668	-23.723058	16.106558	-133.447714
40756		-30.717832	0.167560	-1.181730	1.242805	-5.622715	-3.263171	-0.836426	0.048584	0.016113	-23.120414	12.399292	-133.898090
40757		-26.178603	3.211507	-6.434781	0.634844	-4.892319	-2.934933	-0.821533	-0.003662	0.049316	-22.841320	9.159312	-134.356994
40758		-22.233010	6.063233	-11.264127	-0.051209	-3.707975	-2.649975	-0.815430	-0.061768	0.083984	-22.949266	6.604955	-134.935000
40759		-21.054999	6.341889	-14.487756	-0.599354	-2.333879	-2.153169	-0.809570	-0.069092	0.104492	-23.352539	4.887585	-135.543754
40760		-22.294487	6.224796	-15.630478	-0.909135	-0.997137	-1.482827	-0.802734	-0.091064	0.116211	-23.915670	4.018344	-136.094104
40761		-25.055255	5.098853	-14.869200	-0.942629	0.112782	-0.833505	-0.783936	-0.100830	0.120361	-24.486334	3.878765	-136.554344
40762		-27.232502	4.286397	-12.317806	-0.795528	0.908277	-0.307824	-0.776123	-0.103760	0.130127	-24.968557	4.273822	-136.931543
40763		-7.593306	-8.607700	-9.783877	1.329793	2.960083	0.214030	-0.754883	-0.110840	0.123535	-24.257977	5.864075	-137.525774
40764		-3.845398	-6.726370	5.754073	2.435835	3.667217	1.460058	-0.752441	-0.115234	0.121094	-22.870851	8.121466	-137.597453
40765		5.341309	3.273850	20.450042	1.995362	3.107907	0.896885	-0.731201	-0.120361	0.108154	-21.757864	9.961058	-137.797807
40766		2.627663	3.629990	10.275751	0.239756	4.282104	-0.175056	-0.716797	-0.128418	0.097168	-21.816401	12.198917	-138.818609
40767		-8.286142	-0.232842	5.000804	-0.149029	4.947726	-0.012981	-0.703857	-0.135010	0.095703	-22.156727	14.822020	-139.914242
40768		-17.034188	1.260234	13.953735	-0.216889	4.746187	0.092820	-0.680420	-0.133789	0.087891	-22.564073	17.354108	-140.937452
40769		-14.430238	2.320370	18.018700	-0.345109	3.891491	0.206157	-0.667480	-0.136719	0.088867	-23.010890	19.452702	-141.729746
40770		-8.985351	6.230276	14.783555	-0.478312	3.403634	0.803779	-0.654297	-0.137207	0.078125	-23.411794	21.424047	-142.095166
40771		-8.799998	5.307150	13.471754	-1.005732	3.193826	1.268625	-0.647949	-0.132813	0.079590	-24.014815	23.389009	-142.168194
40772		-9.702428	-5.989627	10.914655	-1.177244	2.848399	1.402598	-0.632568	-0.128662	0.078125	-24.659637	25.205026	-142.098779
40773		-11.668361	-14.357894	7.651609	-0.598093	2.422205	1.534880	-0.618408	-0.135986	0.081787	-24.893922	26.830928	-141.854186
40774		-12.852626	-15.431258	6.073713	0.149748	2.036834	1.313280	-0.608643	-0.123535	0.082764	-24.704577	28.204075	-141.631933
40775		-23.291111	-12.175439	11.209176	1.599709	1.006726	1.544262	-0.604004	-0.123291	0.082031	-23.472621	29.089031	-140.976465
40776		-5.422246	4.885348	12.074125	1.031766	0.392978	0.775127	-0.602295	-0.127686	0.075439	-22.699703	29.468920	-140.605441
40777		-9.094858	-2.901852	11.025903	0.673285	0.477122	0.660890	-0.594727	-0.123779	0.079590	-22.171262	29.863276	-140.319437
40778		-7.290767	-2.422839	8.947483	0.326187	0.206593	0.204296	-0.579102	-0.118164	0.084473	-21.944913	30.015593	-140.241352
40779		-5.809412	-2.156586	9.214956	0.204289	0.166008	0.138393	-0.591797	-0.120850	0.082275	-21.803025	30.130538	-140.194015
40780		-5.513575	-4.121079	7.743759	0.159950	0.090388	0.084452	-0.591553	-0.118652	0.073730	-21.693738	30.195278	-140.159927
40781		-5.381375	-3.580293	8.021151	0.154425	0.053893	0.080542	-0.595215	-0.123779	0.075439	-21.584157	30.238122	-140.120218
40782		-5.261267	-3.556678	7.906615	0.144303	0.016411	0.081348	-0.592529	-0.132568	0.077637	-21.475574	30.262699	-140.069761
40783		-5.227681	-3.256483	7.927147	0.136822	0.000666	0.073640	-0.594238	-0.119629	0.077148	-21.371590	30.275579	-140.021209
40784		-5.100417	-3.183748	7.921095	0.117181	-0.010949	0.066388	-0.583984	-0.121826	0.079102	-21.279820	30.282304	-139.973299
40785		-4.831083	-3.201329	7.853398	0.102477	-0.006951	0.062856	-0.596436	-0.118896	0.084229	-21.197914	30.288743	-139.929530
40786		-4.939557	-2.982928	7.991524	0.087057	0.001204	0.071009	-0.589844	-0.122314	0.077637	-21.123413	30.302810	-139.881657
40787		-5.047212	-2.682417	8.098787	0.071574	0.014194	0.064518	-0.592773	-0.129150	0.084717	-21.061209	30.320799	-139.841878
40788		-4.927097	-2.630890	8.107038	0.047425	0.036392	0.051456	-0.591064	-0.129639	0.078857	-21.019696	30.349584	-139.814445
40789		-4.975119	-2.665447	8.093098	0.023275	0.058589	0.038383	-0.586670	-0.122314	0.082275	-20.998640	30.385900	-139.801384
40790		-5.027555	-2.929012	8.088170	-0.012747	0.082897	0.032054	-0.591553	-0.124756	0.080811	-21.003217	30.435569	-139.796993
40791		-5.009773	-3.201848	7.904810	-0.043609	0.091585	0.046949	-0.588135	-0.123291	0.078613	-21.021751	30.491294	-139.786471
40792		-5.044578	-3.197569	7.830712	-0.041121	0.086909	0.058582	-0.584229	-0.128174	0.079346	-21.034713	30.548570	-139.766596
40793		-5.107547	-3.149288	7.814886	-0.026435	0.075975	0.069121	-0.583252	-0.128174	0.083496	-21.034494	30.600511	-139.738587
40794		-5.139551	-3.116289	7.796012	-0.022395	0.061607	0.072038	-0.594238	-0.121338	0.082764	-21.029359	30.647037	-139.704297
40795		-5.110796	-3.055148	7.818403	-0.014159	0.049581	0.079944	-0.598633	-0.120361	0.071289	-21.015398	30.687081	-139.663211
40796		-5.047605	-3.078328	7.848361	-0.019502	0.044409	0.079614	-0.593994	-0.120117	0.072998	-21.004039	30.725970	-139.620054
40797		-4.962103	-3.099278	7.887328	-0.022821	0.051892	0.080332	-0.586182	-0.118408	0.078857	-20.995124	30.767316	-139.579227
40798		-5.039147	-2.950697	7.947194	-0.027588	0.068351	0.081434	-0.586182	-0.127197	0.084961	-20.990668	30.819382	-139.540615
40799		-5.126271	-2.986939	7.951996	-0.035677	0.078330	0.072851	-0.586914	-0.124023	0.082520	-20.994664	30.873331	-139.510721
40800		-5.127261	-3.005002	7.933850	-0.030477	0.082116	0.073856	-0.591553	-0.122070	0.078125	-20.995892	30.931214	-139.480084
40801		-5.161071	-3.058150	7.812294	-0.025210	0.072686	0.079792	-0.585938	-0.113281	0.089111	-20.990902	30.983569	-139.444476
40802		-5.123320	-3.170592	7.730085	-0.015979	0.056516	0.090013	-0.586914	-0.118896	0.081543	-20.975399	31.031079	-139.397581
40803		-5.235305	-3.077709	7.764841	0.005169	0.042386	0.101887	-0.577393	-0.123535	0.073730	-20.942059	31.071732	-139.340853
40804		-5.155901	-3.110611	7.823941	0.010934	0.035033	0.098169	-0.579102	-0.125977	0.090820	-20.905755	31.109390	-139.283638
40805		-5.214124	-3.030177	7.865453	0.017271	0.033971	0.093154	-0.586914	-0.129395	0.080078	-20.867148	31.143693	-139.230258
40806		-5.310994	-2.940214	7.869870	0.011331	0.037108	0.081517	-0.579346	-0.122070	0.079346	-20.836158	31.179018	-139.183867
40807		-5.174117	-2.999977	7.862338	0.009163	0.043226	0.069222	-0.579834	-0.124023	0.081299	-20.811001	31.213353	-139.147591
40808		-5.162476	-2.921817	7.989669	0.007333	0.062631	0.065997	-0.585449	-0.121338	0.084961	-20.790401	31.259172	-139.116920
40809		-5.210505	-2.874292	7.943480	-0.001233	0.083777	0.062122	-0.574951	-0.125488	0.077393	-20.778440	31.313764	-139.094679
40810		-5.131810	-2.979088	8.010332	-0.014370	0.107474	0.055927	-0.584961	-0.120117	0.074707	-20.779025	31.381558	-139.080937
40811		-5.050463	-3.070399	8.056442	-0.032816	0.161630	0.064566	-0.582031	-0.117676	0.084229	-20.793970	31.478351	-139.075683
40812		-5.005918	-3.111204	8.097561	-0.039269	0.226232	0.084608	-0.586426	-0.115479	0.078857	-20.814192	31.615590	-139.072290
40813		-5.099572	-3.049007	8.044019	-0.046288	0.292231	0.100342	-0.580566	-0.120605	0.084717	-20.841469	31.789614	-139.075856
40814		-5.159965	-2.935943	8.072785	-0.043322	0.345541	0.116049	-0.585693	-0.114746	0.077393	-20.868741	31.997139	-139.081447
40815		-5.054459	-2.930351	8.037569	-0.040283	0.408659	0.126852	-0.572510	-0.124756	0.074463	-20.898735	32.238901	-139.096551
40816		-4.970281	-3.019269	8.177996	-0.051260	0.503323	0.146485	-0.579834	-0.114014	0.076172	-20.940903	32.537081	-139.121395
40817		-4.545411	-2.945439	8.508130	-0.098423	0.637037	0.190438	-0.576660	-0.118164	0.073730	-21.012894	32.914042	-139.152314
40818		-4.188584	-3.194988	8.589684	-0.153676	0.872887	0.261452	-0.573486	-0.112793	0.071289	-21.124235	33.433386	-139.195835
40819		-4.582408	-3.287765	8.451012	-0.181702	1.095356	0.331936	-0.574219	-0.114502	0.070313	-21.258479	34.084394	-139.252075
40820		-4.596116	-2.886260	8.728085	-0.249601	1.311361	0.385723	-0.565186	-0.109131	0.066895	-21.445037	34.863362	-139.329957
40821		-4.594883	-2.797198	8.690043	-0.310706	1.555518	0.430811	-0.555908	-0.115723	0.066162	-21.689448	35.780069	-139.446707
40822		-4.620414	-2.730191	8.759355	-0.381396	1.814987	0.462696	-0.544678	-0.114014	0.052002	-22.008413	36.842586	-139.617273
40823		-4.636909	-2.808057	8.817486	-0.440182	2.108767	0.497035	-0.540771	-0.110107	0.044434	-22.405192	38.065990	-139.856816
40824		-4.527121	-3.156008	8.712101	-0.477495	2.434421	0.561295	-0.529785	-0.103271	0.037354	-22.868159	39.475696	-140.160180
40825		-4.603697	-3.556346	8.572385	-0.484512	2.775337	0.665673	-0.519775	-0.113525	0.038574	-23.374150	41.085094	-140.515094
40826		-4.542495	-3.805598	8.361924	-0.455193	3.133936	0.805252	-0.510986	-0.110107	0.013184	-23.898890	42.913492	-140.910428
40827		-4.695672	-4.100813	8.196994	-0.393275	3.506221	0.988230	-0.489746	-0.106934	0.017334	-24.414774	44.975465	-141.330622
40828		-4.564175	-4.536490	7.871823	-0.279369	3.925029	1.223422	-0.476563	-0.101074	0.007568	-24.883820	47.310057	-141.759951
40829		-4.384618	-5.169265	7.257675	-0.127425	4.364742	1.542699	-0.459473	-0.102295	0.004883	-25.246247	49.947138	-142.146983
40830		-4.362653	-5.533906	6.590352	0.063152	4.817420	1.955367	-0.434326	-0.099121	-0.006836	-25.416554	52.919323	-142.411933
40831		-4.255400	-5.405129	6.224013	0.236310	5.319051	2.452051	-0.416748	-0.092773	-0.017090	-25.327101	56.272276	-142.469692
40832		-3.852161	-5.762627	6.145919	0.390968	5.982015	3.034757	-0.383057	-0.103760	-0.027832	-24.904727	60.111443	-142.237461
40833		-5.067570	-6.304240	7.166749	0.566127	6.814901	3.694821	-0.353027	-0.100342	-0.037109	-23.978954	64.539440	-141.560319
40834		-7.626123	-5.022935	8.224753	0.735009	7.697622	4.258143	-0.313477	-0.094971	-0.035156	-22.350461	69.551574	-140.251808
40835		-16.345480	-4.710971	8.943146	0.737576	8.266745	4.546946	-0.273193	-0.104980	-0.042236	-19.619058	74.905143	-137.831489
40836		-28.195667	-2.396325	10.077935	0.422666	7.999944	4.406887	-0.225586	-0.108643	-0.051514	-14.565438	80.029733	-132.909213
40837		-29.150857	-2.362365	11.746689	-0.345742	7.186572	3.843926	-0.188965	-0.120117	-0.042725	-3.496956	84.460223	-121.548777
40838		-27.649135	-3.820476	15.072892	-1.317642	6.358996	3.015911	-0.153076	-0.117920	-0.035156	35.212453	87.677906	-82.014289
40839		-20.171904	-4.493209	16.616099	-1.877695	5.485665	2.704168	-0.111572	-0.125732	-0.030273	112.616749	86.876675	-3.472888
40840		-10.616273	-6.220268	15.963091	-1.999180	4.877069	2.727723	-0.084717	-0.128662	-0.025635	131.022451	84.036526	16.130805
40841		-2.434462	-3.344892	13.365753	-2.152160	4.885680	2.999701	-0.036377	-0.139404	-0.017090	136.127188	80.858396	22.520747
40842		2.223047	-0.248399	12.313172	-2.685936	5.238947	3.620614	0.004639	-0.143066	0.000977	137.387693	77.254393	25.368268
40843		-9.943517	4.585196	8.208362	-3.082486	5.567589	4.542527	0.038330	-0.157227	0.011230	136.635276	73.147952	26.415720
40844		-33.771123	-2.080248	23.409533	-4.474713	3.693442	3.773611	0.066895	-0.171387	0.024658	133.915462	70.128466	26.249187
40845		-24.597505	-11.022825	19.988793	-5.506783	0.307235	2.437733	0.091797	-0.179932	0.037598	128.635393	68.963850	23.980420
40846		-17.676269	-15.509659	13.350137	-4.948848	-2.206190	1.307081	0.109375	-0.186768	0.025635	121.962928	69.089846	19.868094
40847		-8.242316	-15.558925	7.018245	-3.623854	-3.528134	0.576465	0.121826	-0.181885	0.010498	114.717462	69.759853	14.346414
40848		-3.933172	-12.399191	4.074471	-2.288864	-4.001277	0.141620	0.133545	-0.193115	0.000000	107.377656	70.515522	7.933724
40849		-2.299862	-9.493889	2.726558	-1.364844	-4.099329	-0.271653	0.140869	-0.190918	-0.014893	100.109932	71.225326	1.068870
40850		-1.112946	-8.052779	1.990872	-0.728517	-4.045101	-0.635831	0.132568	-0.189453	-0.033691	92.884234	71.856517	-6.111773
40851		-0.490756	-6.539428	1.678367	-0.315744	-3.914659	-0.975571	0.139404	-0.192383	-0.061768	85.713643	72.387456	-13.456219
40852		-0.282234	-5.528576	1.923991	-0.120830	-3.704528	-1.335416	0.139160	-0.188232	-0.080078	78.550520	72.859602	-20.892390
40853		-0.639695	-4.750701	2.606930	-0.093213	-3.499157	-1.717524	0.128662	-0.194336	-0.095703	71.279942	73.286439	-28.436578
40854		-1.545519	-4.108345	3.686187	-0.211381	-3.343307	-2.136544	0.124268	-0.189209	-0.110840	63.561257	73.683334	-36.363924
40855		-2.743973	-3.909161	4.703037	-0.413621	-3.286536	-2.622495	0.118408	-0.179443	-0.129639	55.069767	74.012278	-44.957500
40856		-3.641680	-4.087128	5.343109	-0.585241	-3.321398	-3.130735	0.099854	-0.172363	-0.142578	45.520935	74.174815	-54.540001
40857		-3.958713	-4.225547	5.585006	-0.631251	-3.401244	-3.593000	0.090088	-0.144775	-0.158447	35.206443	74.018755	-64.887874
40858		-3.951920	-4.155325	5.827378	-0.536459	-3.469598	-3.948494	0.074707	-0.133789	-0.171875	24.734280	73.417662	-75.478793
40859		-4.195057	-3.722102	6.253635	-0.349607	-3.530533	-4.195243	0.069580	-0.127441	-0.180420	14.958176	72.322931	-85.497531
40860		-4.730949	-2.923307	6.981974	-0.159110	-3.595510	-4.350353	0.040771	-0.113281	-0.195068	6.353781	70.744179	-94.474383
40861		-5.547972	-2.007243	8.102566	-0.046717	-3.719290	-4.430655	0.018311	-0.101807	-0.200195	-0.821725	68.730117	-102.093381
40862		-6.443821	-1.101832	9.345037	-0.036327	-3.900832	-4.453880	0.001221	-0.094971	-0.207764	-6.664146	66.316862	-108.395628
40863		-7.422556	-0.336988	10.619397	-0.131679	-4.153937	-4.440227	-0.023438	-0.088623	-0.225830	-11.315251	63.562601	-113.445954
40864		-8.420878	0.109228	11.668309	-0.298644	-4.471573	-4.391347	-0.045654	-0.083496	-0.232910	-15.009040	60.478773	-117.437604
40865		-9.286613	0.010317	12.269715	-0.484314	-4.815837	-4.286551	-0.072021	-0.077637	-0.247803	-17.882619	57.132883	-120.472195
40866		-9.976132	-0.421006	12.642403	-0.618154	-5.153493	-4.110499	-0.106934	-0.078613	-0.269531	-20.073393	53.558832	-122.708327
40867		-10.767427	-1.187794	12.970885	-0.676287	-5.459813	-3.877743	-0.117188	-0.067383	-0.282227	-21.674139	49.841052	-124.254716
40868		-11.308398	-2.023367	13.425827	-0.647679	-5.708199	-3.600717	-0.152100	-0.062988	-0.291748	-22.791368	46.017164	-125.263944
40869		-12.221535	-2.748368	14.304294	-0.609138	-5.870423	-3.351254	-0.186768	-0.061523	-0.304688	-23.564312	42.166554	-125.874277
40870		-13.978157	-4.743516	15.311147	-0.603498	-5.973539	-3.205503	-0.221680	-0.066895	-0.318359	-24.160157	38.277566	-126.265765
40871		-16.557842	-7.112230	16.256797	-0.513063	-6.051374	-3.225669	-0.254883	-0.064941	-0.338135	-24.635470	34.353829	-126.573490
40872		-20.409466	-9.233322	16.501081	-0.295609	-6.112083	-3.496583	-0.304688	-0.067627	-0.346436	-25.025281	30.318417	-126.989339
40873		-24.741846	-9.210440	16.248897	0.083150	-6.121456	-3.906501	-0.342285	-0.070801	-0.355713	-25.263030	26.189650	-127.594226
40874		-29.852944	-8.255780	15.467189	0.320227	-6.148481	-4.259328	-0.400146	-0.075195	-0.354736	-25.392128	21.946333	-128.363243
40875		-34.370732	-5.919016	12.756838	0.474192	-6.187708	-4.373034	-0.445801	-0.089355	-0.368652	-25.386001	17.666396	-129.150112
40876		-35.371004	-2.055637	8.057846	0.377586	-6.139287	-4.252346	-0.496826	-0.100830	-0.351807	-25.363224	13.431043	-129.872886
40877		-32.697212	1.565863	1.739691	0.046531	-5.799624	-3.958156	-0.543701	-0.110107	-0.354736	-25.460872	9.453684	-130.504807
40878		-27.313986	4.568749	-5.788222	-0.412871	-5.009581	-3.657426	-0.588379	-0.124023	-0.328857	-25.785672	5.949258	-131.159812
40879		-23.784529	5.890002	-11.785870	-0.681892	-3.659686	-3.300420	-0.623291	-0.136475	-0.313232	-26.237723	3.232805	-131.939093
40880		-22.871896	5.874691	-15.621495	-0.706829	-2.207684	-2.686967	-0.641113	-0.136963	-0.299072	-26.676273	1.406707	-132.754172
40881		-24.661444	6.782325	-16.665794	-0.622193	-0.810024	-2.017998	-0.657959	-0.139404	-0.306152	-27.045052	0.467627	-133.573001
40882		-28.079287	6.695140	-15.735038	-0.523154	0.276182	-1.458551	-0.664795	-0.147705	-0.306396	-27.350379	0.220911	-134.387318
40883		-29.617943	6.324486	-13.314441	-0.471615	1.078224	-1.122358	-0.658936	-0.153564	-0.312744	-27.624619	0.469556	-135.239857
40884		-27.532992	4.556372	-10.509337	-0.382593	1.808018	-0.966720	-0.646973	-0.147461	-0.315430	-27.858087	1.125813	-136.209890
40885		7.937871	-5.398878	1.589031	0.641642	2.785317	-0.960562	-0.631348	-0.158691	-0.339600	-27.525763	2.280593	-137.436268
40886		-8.216183	-13.265999	19.503607	1.802433	4.778722	0.049501	-0.608643	-0.157471	-0.357666	-26.568430	4.730150	-138.655524
40887		9.810874	-3.967292	12.288054	1.674731	3.238650	-0.290489	-0.596924	-0.168701	-0.377197	-25.700911	6.320092	-139.623745
40888		8.265417	8.698915	5.923002	0.335994	4.209572	-0.405551	-0.571045	-0.171631	-0.384277	-25.671130	8.390709	-140.886512
40889		-6.401218	6.917791	4.656878	-0.040827	5.512753	0.217316	-0.532227	-0.164307	-0.404785	-25.911834	11.286258	-142.164345
40890		-17.788738	3.767677	17.248204	-0.540609	5.276277	0.308551	-0.498535	-0.157959	-0.425537	-26.485898	14.074454	-143.367048
40891		-14.002363	5.869683	18.225566	-0.760681	4.129212	0.598434	-0.478760	-0.149414	-0.433838	-27.126707	16.338112	-144.152358
40892		-5.082620	7.125988	14.505550	-1.239620	3.847234	1.566564	-0.446777	-0.137939	-0.442139	-27.905352	18.706528	-144.381730
40893		-13.986287	-5.327417	13.450392	-1.319415	3.667253	2.220881	-0.419678	-0.122803	-0.446533	-28.613500	21.157184	-144.244425
40894		-17.902747	-16.495858	11.932262	-0.630191	2.870832	2.264775	-0.396973	-0.111572	-0.453613	-28.829834	23.222636	-143.864565
40895		-17.669393	-19.869613	6.381519	0.351513	2.328430	1.756153	-0.380127	-0.117188	-0.456055	-28.517600	24.873400	-143.595394
40896		-15.279185	-14.654807	7.746692	1.488515	1.781739	1.409446	-0.364990	-0.113525	-0.466797	-27.551524	26.154364	-143.332905
40897		-8.745140	2.165980	11.550168	1.517483	1.161756	1.281962	-0.351807	-0.127197	-0.465820	-26.503091	27.078464	-142.935967
40898		-7.338560	-2.848324	9.183475	1.197191	0.945680	1.211624	-0.348633	-0.124512	-0.476074	-25.614631	27.871030	-142.496878
40899		-10.208489	-4.070503	9.647123	1.126965	0.683824	0.937795	-0.342285	-0.133789	-0.472412	-24.795275	28.451641	-142.131324
40900		-6.885129	-0.498901	10.598823	0.841800	0.420541	0.646169	-0.329102	-0.148438	-0.474365	-24.181331	28.825493	-141.856613
40901		-6.750789	-3.334322	9.168413	0.615606	0.324503	0.482013	-0.334473	-0.142334	-0.476563	-23.727967	29.104764	-141.651092
40902		-6.171054	-2.979675	8.856626	0.451884	0.221508	0.300711	-0.322266	-0.152588	-0.485107	-23.406672	29.291197	-141.523489
40903		-5.880739	-2.775670	8.880537	0.321468	0.140402	0.221864	-0.328857	-0.155273	-0.477783	-23.171968	29.412542	-141.422711
40904		-5.190430	-3.721872	8.015476	0.238445	0.106892	0.158546	-0.318359	-0.163574	-0.478271	-22.999099	29.505788	-141.349414
40905		-4.911447	-3.219781	8.113468	0.222623	0.091923	0.158741	-0.329590	-0.152832	-0.480225	-22.832942	29.586891	-141.273396
40906		-5.303585	-3.442282	7.961053	0.178136	0.071660	0.139365	-0.320557	-0.148682	-0.478271	-22.695424	29.656944	-141.202085
40907		-4.931677	-2.958306	8.170572	0.161041	0.064337	0.130360	-0.326172	-0.157471	-0.486084	-22.569196	29.716873	-141.135775
40908		-5.037986	-2.825048	8.174321	0.133525	0.070213	0.122914	-0.325928	-0.162842	-0.478516	-22.461661	29.782321	-141.073693
40909		-5.129096	-2.671222	8.199961	0.128635	0.053210	0.119723	-0.328613	-0.163574	-0.483887	-22.355540	29.833807	-141.010727
40910		-5.076497	-2.930497	7.955607	0.136528	0.039877	0.114201	-0.322754	-0.158936	-0.480469	-22.244803	29.881113	-140.945986
40911		-5.082631	-2.744780	8.033324	0.151488	0.009560	0.113464	-0.318604	-0.167236	-0.483154	-22.121844	29.907873	-140.875670
40912		-4.898048	-2.806224	7.994708	0.158389	0.003825	0.105718	-0.313232	-0.161377	-0.485352	-21.996464	29.934015	-140.806890
40913		-4.826746	-2.991705	7.885261	0.172344	0.007547	0.114038	-0.324463	-0.167725	-0.481934	-21.860988	29.959557	-140.735551
40914		-4.989439	-2.871081	7.925153	0.240166	-0.036066	0.139050	-0.320801	-0.162109	-0.479736	-21.673467	29.971274	-140.636336
40915		-4.866568	-3.589132	7.815271	0.262766	-0.041479	0.146930	-0.322754	-0.164307	-0.490967	-21.469989	29.977237	-140.532641
40916		-5.032658	-3.623558	7.726949	0.270117	-0.026971	0.148346	-0.311523	-0.167725	-0.486084	-21.263465	29.995173	-140.429820
40917		-4.984360	-3.436915	7.946061	0.233334	-0.002808	0.138310	-0.318848	-0.167480	-0.493164	-21.084040	30.019389	-140.340605
40918		-5.065925	-3.260992	7.956127	0.174419	0.042884	0.121090	-0.317139	-0.168945	-0.481934	-20.948957	30.068571	-140.271090
40919		-5.142258	-3.192451	7.978710	0.109173	0.059619	0.111737	-0.323975	-0.174072	-0.484863	-20.856087	30.120404	-140.212854
40920		-5.222320	-3.033860	8.041345	0.068688	0.059835	0.105884	-0.326416	-0.168945	-0.490723	-20.788099	30.175394	-140.156514
40921		-5.173767	-3.075593	7.919719	0.039308	0.052382	0.095966	-0.318359	-0.171143	-0.490479	-20.739126	30.220023	-140.106147
40922		-5.215992	-3.153684	7.839264	0.029918	0.035048	0.088625	-0.316650	-0.170410	-0.478516	-20.695653	30.258180	-140.054538
40923		-5.081345	-3.256776	7.857469	0.040559	0.021849	0.101232	-0.322998	-0.165771	-0.490234	-20.640591	30.287434	-139.993627
40924		-5.148733	-3.065318	7.824293	0.036477	0.000702	0.100538	-0.322754	-0.170410	-0.488037	-20.585502	30.309530	-139.926509
40925		-5.091243	-3.089700	7.818191	0.038840	-0.006087	0.104521	-0.318359	-0.170410	-0.489990	-20.527019	30.324357	-139.856951
40926		-5.071491	-3.078262	7.829016	0.038694	-0.010914	0.112181	-0.321777	-0.175293	-0.487305	-20.465577	30.342472	-139.779835
40927		-5.042481	-2.856103	7.946037	0.024328	-0.009711	0.106558	-0.323975	-0.172363	-0.489502	-20.414282	30.355638	-139.708111
40928		-4.980805	-3.097686	7.801679	0.015344	0.000930	0.109597	-0.310059	-0.166992	-0.488281	-20.368340	30.379504	-139.635289
40929		-4.927672	-2.969049	7.884234	0.004691	0.011476	0.112306	-0.322998	-0.172119	-0.491699	-20.328886	30.405099	-139.564824
40930		-4.912966	-2.982865	7.970133	-0.004370	0.035326	0.110360	-0.319336	-0.166992	-0.486572	-20.297920	30.447528	-139.499399
40931		-5.010940	-2.751458	7.990376	-0.019672	0.065827	0.114102	-0.315918	-0.180664	-0.485352	-20.278076	30.502624	-139.440251
40932		-5.036874	-2.736202	7.957834	-0.032772	0.094255	0.100172	-0.312744	-0.171875	-0.492920	-20.273335	30.574676	-139.394664
40933		-4.984988	-2.922553	7.854218	-0.046012	0.114429	0.100895	-0.313477	-0.170898	-0.481689	-20.278320	30.653261	-139.354878
40934		-4.971466	-2.899345	7.968568	-0.047186	0.142283	0.103950	-0.316162	-0.174561	-0.492188	-20.286136	30.751894	-139.317953
40935		-4.922467	-3.033100	7.968946	-0.048734	0.184795	0.111710	-0.315918	-0.170654	-0.486328	-20.297406	30.870452	-139.287624
40936		-4.795554	-3.136370	8.017762	-0.041606	0.225773	0.127485	-0.310791	-0.167725	-0.481689	-20.304234	31.018636	-139.255264
40937		-4.858181	-3.096494	8.020576	-0.027749	0.288799	0.149352	-0.308350	-0.165039	-0.488525	-20.303584	31.200571	-139.225395
40938		-4.938572	-3.083809	8.057547	-0.012845	0.347715	0.166587	-0.310059	-0.165527	-0.480469	-20.295677	31.422028	-139.196720
40939		-5.035074	-3.106666	8.187394	-0.013377	0.412801	0.177145	-0.311035	-0.174072	-0.480957	-20.292464	31.676120	-139.178065
40940		-4.892675	-3.308578	8.221784	-0.001041	0.502465	0.199229	-0.299316	-0.172363	-0.490479	-20.285684	31.987197	-139.164759
40941		-4.853692	-3.633309	8.249601	0.062277	0.645216	0.227369	-0.296875	-0.170166	-0.494873	-20.250850	32.376169	-139.168449
40942		-4.817326	-3.490854	8.613426	0.125863	0.792658	0.281439	-0.290771	-0.168945	-0.485840	-20.179454	32.859469	-139.170377
40943		-3.603920	-2.758638	9.565038	-0.014255	1.033283	0.393334	-0.285889	-0.169189	-0.481934	-20.179947	33.489946	-139.158393
40944		-4.044671	-3.198263	9.360455	-0.041843	1.386377	0.515583	-0.266602	-0.160645	-0.485107	-20.198836	34.338622	-139.149919
40945		-4.377478	-3.393172	9.183992	-0.072085	1.694316	0.637942	-0.257568	-0.166260	-0.483887	-20.231862	35.372947	-139.137392
40946		-4.240414	-2.874511	9.546823	-0.106754	2.023150	0.740293	-0.239746	-0.172363	-0.489990	-20.292435	36.608231	-139.137027
40947		-4.207545	-3.376370	9.346577	-0.104559	2.384284	0.870548	-0.223389	-0.164063	-0.485352	-20.354277	38.059576	-139.142052
40948		-3.872620	-3.239291	9.632710	-0.090357	2.797241	1.043314	-0.206299	-0.161621	-0.480713	-20.400750	39.770762	-139.134294
40949		-3.721644	-3.998886	8.906976	-0.032860	3.289017	1.251757	-0.175293	-0.163818	-0.488037	-20.402913	41.784097	-139.110491
40950		-3.325788	-4.484728	8.722630	0.100119	3.776757	1.571535	-0.148682	-0.170898	-0.485596	-20.255583	44.126256	-138.979169
40951		-3.134492	-4.250074	8.139289	0.261714	4.380737	1.975413	-0.121826	-0.167480	-0.477295	-19.896684	46.869292	-138.687896
40952		-2.686155	-5.461322	8.350680	0.459657	5.090388	2.487133	-0.077881	-0.184326	-0.467285	-19.214977	50.094280	-138.130092
40953		-1.852061	-6.681025	8.867319	0.732607	5.928244	3.115411	-0.028320	-0.191650	-0.463379	-18.013127	53.880083	-137.139589
40954		-2.477626	-6.243889	8.626627	1.069675	6.907234	3.815361	0.021484	-0.205811	-0.444092	-16.007381	58.303135	-135.463553
40955		-5.734856	-4.399260	8.585169	1.277816	7.937072	4.385128	0.071045	-0.219238	-0.429688	-12.947251	63.332464	-132.801651
40956		-12.106239	-2.685632	9.535847	1.189881	8.717055	4.633470	0.129395	-0.254883	-0.389160	-8.476915	68.734407	-128.661860
40957		-24.282883	0.291166	11.641985	0.789136	8.864804	4.449279	0.178711	-0.278809	-0.363525	-1.827604	74.026707	-122.131666
40958		-28.827224	-1.070142	12.957669	0.071163	8.178348	3.757374	0.233887	-0.293457	-0.318359	8.121040	78.601991	-111.944869
40959		-26.736130	-2.120871	14.915940	-0.602520	7.314444	2.950533	0.269043	-0.299316	-0.291504	24.362305	82.186943	-95.134947
40960		-19.698049	-2.637738	14.887069	-1.117397	6.371282	2.594229	0.297363	-0.313721	-0.247314	52.779826	84.174712	-65.884287
40961		-14.128851	-5.483415	16.766206	-1.220510	5.627436	2.478672	0.321777	-0.325439	-0.225586	86.407054	83.955331	-31.384685
40962		-7.165969	-3.443266	16.015756	-1.511465	5.171084	2.461266	0.341553	-0.330078	-0.196533	108.273683	82.142992	-8.492514
40963		-4.270104	-0.508077	16.478204	-2.424548	4.787423	2.621139	0.355713	-0.338867	-0.173584	118.835523	79.656554	3.606099
40964		-4.270594	3.699015	10.373886	-3.030535	4.389727	3.349266	0.367920	-0.346680	-0.146484	122.710415	76.721949	9.335001
40965		-24.905416	-0.298578	19.057983	-3.939972	3.321515	3.036890	0.377930	-0.360352	-0.129883	122.968525	74.228234	11.932200
40966		-18.207110	-5.938228	19.361268	-4.668012	0.578089	2.344040	0.376709	-0.348145	-0.139648	118.889734	72.912068	10.466454
40967		-14.945096	-9.409766	14.560717	-4.660412	-1.509091	1.703048	0.360107	-0.346680	-0.148926	112.358897	72.406147	6.421150
40968		-7.313175	-10.266961	8.730955	-4.028947	-2.788294	1.055643	0.346191	-0.345215	-0.171143	104.641891	72.346472	0.744796
40969		-3.200554	-9.756271	4.971886	-3.144749	-3.276754	0.527523	0.321045	-0.324707	-0.195068	96.843212	72.398719	-5.547942
40970		-0.409267	-8.677592	2.602356	-2.317529	-3.342013	0.022866	0.305908	-0.329346	-0.218018	89.424914	72.496482	-11.936963
40971		0.427316	-8.060250	1.696940	-1.607104	-3.193563	-0.466993	0.290283	-0.320557	-0.231445	82.618999	72.634861	-18.105997
40972		0.078455	-7.611165	1.464080	-0.954481	-3.015802	-0.947099	0.270752	-0.317139	-0.254639	76.234064	72.855647	-24.220310
40973		-0.686114	-7.012084	1.904169	-0.413474	-2.863375	-1.431478	0.250732	-0.302002	-0.264404	70.068149	73.162975	-30.420529
40974		-1.425422	-6.084554	2.702732	-0.028437	-2.783606	-1.921457	0.229004	-0.289307	-0.284424	63.642869	73.550816	-37.110679
40975		-2.065998	-4.904386	3.616602	0.174109	-2.769353	-2.437486	0.213867	-0.287354	-0.302002	56.618374	73.969316	-44.531325
40976		-2.529763	-4.012125	4.342484	0.218564	-2.796647	-2.947779	0.189697	-0.276367	-0.312744	48.579832	74.336922	-53.018025
40977		-3.017692	-3.184015	4.926583	0.183959	-2.854550	-3.418103	0.173584	-0.257324	-0.320313	39.538055	74.520345	-62.513326
40978		-3.643751	-2.635150	5.509236	0.119646	-2.935309	-3.820811	0.150635	-0.259521	-0.333984	29.631004	74.370667	-72.867874
40979		-4.305982	-2.401586	6.005113	0.076593	-3.049848	-4.138206	0.123291	-0.239502	-0.342773	19.561096	73.762131	-83.384561
40980		-5.057737	-2.342693	6.442461	0.093332	-3.199225	-4.331266	0.101074	-0.227295	-0.353760	10.068895	72.607710	-93.356037
40981		-5.858727	-2.299979	6.959415	0.185742	-3.404410	-4.390592	0.062500	-0.218750	-0.371826	1.956863	70.922875	-102.007686
40982		-6.534245	-1.910018	7.564526	0.300925	-3.651406	-4.341582	0.042236	-0.209961	-0.380615	-4.545476	68.754564	-109.118212
40983		-7.093395	-1.319359	8.252277	0.385501	-3.911306	-4.200640	0.004150	-0.200928	-0.394287	-9.429115	66.231121	-114.642895
40984		-7.722772	-0.564662	8.928376	0.374470	-4.183547	-4.004775	-0.029785	-0.196533	-0.416016	-13.023583	63.412761	-118.852990
40985		-8.422544	-0.119901	9.450411	0.256068	-4.450365	-3.800997	-0.060303	-0.187500	-0.414063	-15.642438	60.398863	-121.987994
40986		-9.092318	-0.087279	9.967162	0.082099	-4.687352	-3.600596	-0.106445	-0.182373	-0.423584	-17.597989	57.214829	-124.331109
40987		-9.810407	-0.466543	10.383428	-0.098449	-4.895102	-3.434541	-0.146729	-0.172607	-0.431885	-19.087329	53.929983	-126.068909
40988		-10.571473	-1.242241	10.809454	-0.231019	-5.075322	-3.283477	-0.196289	-0.177490	-0.424316	-20.245803	50.537798	-127.369609
40989		-11.451499	-2.144127	11.307196	-0.297639	-5.210914	-3.180010	-0.247070	-0.164795	-0.431641	-21.154219	47.097828	-128.350989
40990		-12.536828	-3.110664	11.975366	-0.294289	-5.315090	-3.120239	-0.284912	-0.169189	-0.421875	-21.876678	43.588165	-129.132617
40991		-13.608403	-4.023580	12.792396	-0.252481	-5.376949	-3.115462	-0.336914	-0.161377	-0.415527	-22.456983	40.058693	-129.787208
40992		-15.223500	-5.057411	13.850618	-0.165477	-5.399911	-3.168561	-0.375977	-0.161621	-0.393311	-22.931624	36.483099	-130.403561
40993		-18.253581	-6.559556	14.781549	0.015811	-5.441407	-3.265371	-0.425049	-0.169922	-0.375977	-23.264058	32.878506	-131.005389
40994		-21.752730	-7.741435	15.332141	0.326108	-5.560768	-3.383091	-0.471436	-0.180176	-0.360596	-23.388768	29.165114	-131.612970
40995		-25.171390	-8.272878	14.906520	0.722197	-5.738211	-3.444476	-0.508057	-0.184570	-0.328125	-23.235817	25.361921	-132.184839
40996		-27.982096	-7.158852	13.468608	1.079186	-5.897630	-3.386056	-0.542969	-0.204590	-0.312988	-22.818146	21.474752	-132.692234
40997		-28.739630	-4.873821	10.591795	1.194044	-5.976926	-3.194302	-0.576172	-0.221191	-0.291504	-22.265670	17.607398	-133.089758
40998		-27.161981	-3.098974	6.462407	1.006738	-5.869395	-2.854615	-0.589844	-0.249268	-0.266846	-21.761014	13.861279	-133.356691
40999		-23.688921	-0.057169	1.492331	0.525493	-5.446775	-2.498005	-0.627197	-0.263184	-0.243408	-21.496906	10.429797	-133.538101
41000		-21.191252	3.101101	-2.739852	-0.228715	-4.592385	-2.285795	-0.636719	-0.266113	-0.225830	-21.667878	7.489436	-133.791198
41001		-19.471058	5.468205	-5.913283	-1.116100	-3.545730	-2.100409	-0.652100	-0.277100	-0.209717	-22.345291	5.152084	-134.145016
41002		-19.209714	6.530835	-8.420826	-1.929574	-2.457294	-1.946142	-0.656982	-0.279785	-0.194824	-23.487049	3.412451	-134.624108
41003		-21.543745	6.397416	-9.857198	-2.431230	-1.473498	-1.707733	-0.654053	-0.272705	-0.188477	-24.905809	2.238589	-135.168286
41004		-24.340471	5.014730	-10.813581	-2.562706	-0.808839	-1.405031	-0.648438	-0.272949	-0.186523	-26.391101	1.467037	-135.691514
41005		-23.535071	3.394257	-11.462334	-2.330156	-0.295266	-0.994103	-0.657227	-0.264404	-0.185547	-27.734478	1.054638	-136.118790
41006		-20.283406	1.747565	-11.024175	-1.800192	0.308031	-0.457161	-0.656250	-0.284180	-0.181641	-28.771949	1.084600	-136.429905
41007		-17.266396	0.454132	-8.581899	-1.197095	1.077595	0.143450	-0.647461	-0.270752	-0.171631	-29.462127	1.661480	-136.655441
41008		-15.850977	-1.012265	-5.302586	-0.618454	1.867857	0.671299	-0.633789	-0.258301	-0.176025	-29.824759	2.783331	-136.846715
41009		13.998866	-13.780834	5.331056	1.302327	3.162776	0.836611	-0.630859	-0.273193	-0.177979	-29.107759	4.594368	-137.318573
41010		-5.350718	-16.168057	15.429415	2.791377	4.104390	1.803812	-0.610107	-0.284180	-0.193604	-27.530902	7.156239	-137.521861
41011		8.932920	-8.581689	21.045698	2.975587	3.090295	1.200348	-0.594971	-0.295898	-0.187988	-25.850049	9.044396	-137.701431
41012		0.206128	6.799280	10.860737	1.606168	3.402898	0.060942	-0.568604	-0.310059	-0.195557	-25.072815	10.820360	-138.517401
41013		-2.346713	4.799305	3.550208	0.565512	4.411113	-0.431632	-0.551758	-0.318848	-0.202881	-25.020015	13.002756	-139.836789
41014		-12.250938	1.959000	9.605589	0.035177	4.626833	-0.455627	-0.532959	-0.318359	-0.211670	-25.344257	15.291358	-141.240464
41015		-12.931571	3.131330	17.124407	-0.058797	3.891270	-0.163016	-0.520752	-0.326416	-0.204346	-25.680978	17.260627	-142.325484
41016		-6.508347	8.170430	15.922920	-0.311716	3.285516	0.523381	-0.507080	-0.333984	-0.207031	-26.039689	19.087370	-142.901752
41017		-6.754468	9.466885	14.530873	-0.920906	3.230746	1.481622	-0.492188	-0.324951	-0.208008	-26.586976	21.120290	-142.961992
41018		-11.754400	-3.592718	12.884362	-1.126784	2.988822	1.820755	-0.474854	-0.314941	-0.207520	-27.165471	23.121903	-142.788027
41019		-14.290812	-15.778821	9.822769	-0.586303	2.514457	1.811205	-0.459229	-0.306641	-0.206299	-27.382202	24.875354	-142.497674
41020		-14.797950	-17.824274	6.375484	0.307379	2.036659	1.490133	-0.462158	-0.311035	-0.198975	-27.095004	26.307190	-142.242881
41021		-15.457363	-14.751017	7.352778	1.513622	1.355440	1.432545	-0.458252	-0.306885	-0.201660	-26.029337	27.366215	-141.805909
41022		-8.878395	3.037740	12.082730	1.421943	0.864042	1.166393	-0.446533	-0.322021	-0.193604	-25.008185	28.105573	-141.360923
41023		-8.680758	-0.746862	11.255323	0.998158	0.531061	0.943328	-0.441406	-0.324463	-0.200684	-24.236814	28.604629	-140.943303
41024		-7.117745	-4.893122	8.340390	0.758195	0.402487	0.609883	-0.444824	-0.324951	-0.195068	-23.675711	28.962364	-140.680529
41025		-7.245832	-1.388157	10.130673	0.574202	0.292294	0.417636	-0.443604	-0.321777	-0.196533	-23.258992	29.208475	-140.502366
41026		-6.430428	-2.583005	9.104980	0.327612	0.136760	0.229347	-0.439697	-0.327393	-0.200684	-23.017891	29.337492	-140.393748
41027		-5.409652	-3.409568	8.269954	0.259384	0.091359	0.151118	-0.439209	-0.329102	-0.198242	-22.833130	29.416603	-140.322345
41028		-5.471384	-2.953313	8.398315	0.187614	0.040964	0.102140	-0.441162	-0.326904	-0.193604	-22.697238	29.466308	-140.265341
41029		-5.141944	-3.441655	7.934802	0.154661	0.028823	0.078082	-0.438477	-0.329346	-0.195313	-22.586146	29.495931	-140.221937
41030		-5.097061	-3.179315	8.066189	0.135304	0.024345	0.063769	-0.443848	-0.325195	-0.194580	-22.489429	29.528273	-140.183822
41031		-4.962689	-3.183164	7.997610	0.116001	0.012717	0.063315	-0.428955	-0.333008	-0.195801	-22.402815	29.546008	-140.145215
41032		-4.900717	-3.211743	7.919568	0.115523	0.010501	0.072944	-0.445557	-0.330078	-0.194580	-22.312847	29.572933	-140.097929
41033		-4.887495	-3.068341	7.972715	0.120271	0.006445	0.089848	-0.445557	-0.328857	-0.196045	-22.214961	29.592995	-140.041498
41034		-5.003803	-3.008924	7.979990	0.121325	-0.004710	0.098987	-0.441162	-0.333252	-0.200684	-22.111831	29.617347	-139.974436
41035		-4.981619	-3.026566	7.997448	0.104710	-0.002122	0.088781	-0.438721	-0.329834	-0.201172	-22.022047	29.632462	-139.916432
41036		-4.943758	-3.024811	7.905708	0.094140	-0.003380	0.081816	-0.444336	-0.334961	-0.207520	-21.939709	29.653673	-139.860093
41037		-4.932715	-2.813231	7.949479	0.129693	-0.024965	0.089984	-0.451172	-0.333984	-0.197998	-21.832406	29.656742	-139.795667
