// General information: 
//  MT Manager version: 2022.2.0 
//  XDA version: 2022.2.0 build 7381 rev 124627 built on 2023-07-19
// Device information: 
//  DeviceId: 00B4C223
//  ProductCode: MTW2-3A7G6
//  Firmware Version: 4.6.0
//  Hardware Version: 2.0.0
// Device settings: 
//  Filter Profile: human(46.1)
//  Option Flags: Orientation Smoother Disabled, Position/Velocity Smoother Disabled, Continuous Zero Rotation Update Disabled, AHS Disabled, ICC Disabled
// Coordinate system: ENU
PacketCounter	SampleTimeFine	Acc_X	Acc_Y	Acc_Z	Gyr_X	Gyr_Y	Gyr_Z	Mag_X	Mag_Y	Mag_Z	Roll	Pitch	Yaw
07737		-4.747492	0.915260	8.721151	-0.001833	-0.000655	0.003780	-0.980713	0.082764	-0.606689	6.266689	28.495134	54.558189
07738		-4.732838	0.945910	8.746415	-0.002450	-0.002071	0.001287	-0.972168	0.080078	-0.599121	6.265370	28.494476	54.555521
07739		-4.732596	0.945552	8.746584	-0.008453	-0.002912	0.003747	-0.973145	0.078857	-0.607422	6.262418	28.493370	54.555246
07740		-4.724134	0.915660	8.730541	-0.005152	-0.003579	-0.001867	-0.969971	0.078369	-0.598633	6.258527	28.492041	54.550531
07741		-4.724711	0.891521	8.736446	-0.004940	-0.001910	0.002718	-0.960205	0.079590	-0.605957	6.257304	28.491569	54.549660
07742		-4.731963	0.944279	8.747064	-0.004981	0.000321	0.002862	-0.969238	0.075684	-0.604004	6.255115	28.492180	54.548604
07743		-4.769843	0.888128	8.718800	-0.005963	-0.003072	0.002317	-0.971680	0.075195	-0.600586	6.253143	28.491072	54.547391
07744		-4.723363	0.914171	8.731115	-0.005963	-0.003072	0.002317	-0.967773	0.071045	-0.600586	6.250109	28.489776	54.545323
07745		-4.745806	0.912417	8.722366	-0.004535	-0.002163	0.000628	-0.963379	0.077637	-0.602783	6.248463	28.489290	54.543080
07746		-4.736631	0.906454	8.700511	-0.008241	-0.001243	0.008334	-0.975098	0.070313	-0.595947	6.246053	28.488670	54.545231
07747		-4.736299	0.906193	8.700719	-0.003837	-0.005210	0.002833	-0.972656	0.074707	-0.599121	6.245387	28.486311	54.544202
07748		-4.740180	0.924175	8.775856	-0.003472	-0.003232	0.000886	-0.968506	0.074219	-0.604248	6.243331	28.484996	54.540805
07749		-4.753640	0.916807	8.745115	-0.007026	-0.002002	0.002060	-0.971680	0.078613	-0.595947	6.240707	28.484513	54.539502
07750		-4.730810	0.917812	8.754148	-0.003918	-0.000748	0.003122	-0.959961	0.077393	-0.601563	6.239182	28.484487	54.538259
07751		-4.730715	0.917617	8.754219	-0.003918	-0.000748	0.003122	-0.972900	0.077148	-0.608154	6.238709	28.484652	54.537733
07752		-4.745104	0.886675	8.729125	-0.004941	-0.001910	0.002720	-0.966553	0.073975	-0.606445	6.236449	28.484007	54.536549
07753		-4.753063	0.915535	8.745562	-0.006217	-0.002508	-0.002123	-0.969971	0.077393	-0.605225	6.232978	28.483495	54.532500
07754		-4.721205	0.911010	8.732612	-0.004069	-0.001059	0.009656	-0.956299	0.079102	-0.605713	6.233391	28.482902	54.535711
07755		-4.775419	0.913875	8.736858	-0.000618	-0.001414	-0.002494	-0.973389	0.078857	-0.598389	6.233051	28.483036	54.531498
07756		-4.752441	0.914968	8.745959	-0.006327	-0.005049	0.004267	-0.973877	0.081543	-0.610596	6.230369	28.480498	54.531055
07757		-4.752984	0.891006	8.751850	-0.004323	-0.000495	0.005215	-0.973633	0.083252	-0.607178	6.230320	28.480676	54.531904
07758		-4.734010	0.903420	8.702253	-0.001387	-0.003139	0.001546	-0.965820	0.079590	-0.607178	6.229695	28.479393	54.529873
07759		-4.738016	0.921563	8.777299	-0.003259	-0.001564	0.005473	-0.969238	0.086670	-0.599121	6.230297	28.478946	54.530813
07760		-4.728850	0.915788	8.755419	-0.004941	-0.001909	0.002722	-0.971680	0.081299	-0.608887	6.228042	28.478284	54.529602
07761		-4.752274	0.890307	8.752307	-0.007067	0.000230	0.002207	-0.964111	0.083496	-0.604980	6.225515	28.479063	54.528553
07762		-4.727827	0.938907	8.749879	-0.000769	-0.001725	0.004040	-0.968750	0.073730	-0.600342	6.226071	28.478433	54.528290
07763		-4.737300	0.920676	8.777779	-0.006328	-0.005048	0.004268	-0.969971	0.078857	-0.595215	6.224426	28.476077	54.528203
07764		-4.741848	0.907815	8.724999	-0.003553	0.001230	0.001176	-0.962402	0.076416	-0.603516	6.222596	28.477280	54.525500
07765		-4.728038	0.914464	8.755996	-0.006368	-0.002817	0.004413	-0.968506	0.073730	-0.609375	6.221048	28.476186	54.525664
07766		-4.741516	0.907222	8.725241	-0.005345	-0.001656	0.004815	-0.969727	0.071289	-0.612793	6.219237	28.475552	54.525675
07767		-4.741328	0.907059	8.725360	-0.002855	-0.001817	0.003382	-0.968506	0.080078	-0.605957	6.219417	28.475092	54.525242
07768		-4.737328	0.895718	8.784045	-0.005385	0.000575	0.004961	-0.967041	0.080566	-0.607666	6.217706	28.475718	54.525516
07769		-4.772855	0.910979	8.738562	-0.004322	-0.000495	0.005218	-0.966309	0.075195	-0.603271	6.217657	28.475896	54.526365
07770		-4.718364	0.908049	8.734456	-0.000769	-0.001726	0.004041	-0.966797	0.071045	-0.602539	6.218227	28.475259	54.525867
07771		-4.727099	0.913646	8.756588	-0.004283	-0.002725	0.005073	-0.978760	0.077637	-0.600830	6.218081	28.474176	54.526465
07772		-4.749600	0.912221	8.747790	-0.001428	-0.000908	0.001691	-0.967041	0.073486	-0.602783	6.217570	28.474126	54.523940
07773		-4.726719	0.913390	8.756820	-0.006773	-0.002564	0.006508	-0.962646	0.068604	-0.614502	6.216445	28.473046	54.525480
07774		-4.731284	0.900617	8.704026	-0.003918	-0.000747	0.003126	-0.964355	0.078369	-0.605713	6.214978	28.473038	54.524429
07775		-4.726291	0.913006	8.757091	-0.002815	-0.004047	0.003238	-0.962158	0.082031	-0.604492	6.215061	28.471316	54.523745
07776		-4.748650	0.911668	8.748363	-0.002197	-0.002634	0.005733	-0.966309	0.074219	-0.601318	6.215315	28.470053	54.524563
07777		-4.716708	0.907477	8.735409	-0.002197	-0.002634	0.005733	-0.970459	0.083496	-0.605469	6.216571	28.468981	54.525595
07778		-4.701900	0.938231	8.760747	-0.000769	-0.001726	0.004042	-0.973389	0.072266	-0.604492	6.217149	28.468323	54.524979
07779		-4.737985	0.929864	8.721119	-0.006329	-0.005046	0.004272	-0.969971	0.081055	-0.604248	6.215505	28.465968	54.524894
07780		-4.738642	0.905836	8.726946	-0.003553	0.001232	0.001179	-0.970947	0.071777	-0.603760	6.213708	28.467168	54.522459
07781		-4.748412	0.887600	8.754678	-0.003664	-0.001311	0.007570	-0.969238	0.072998	-0.604980	6.214736	28.466736	54.524775
07782		-4.723736	0.936380	8.752358	-0.003220	-0.003794	0.005332	-0.962158	0.079346	-0.606934	6.214249	28.464822	54.524549
07783		-4.737987	0.905760	8.727310	-0.002197	-0.002634	0.005734	-0.960449	0.081543	-0.597656	6.215506	28.463751	54.525582
07784		-4.746666	0.911437	8.749464	-0.002197	-0.002634	0.005734	-0.964844	0.072266	-0.606934	6.215775	28.462480	54.526458
07785		-4.722883	0.936509	8.752805	-0.003259	-0.001564	0.005478	-0.970459	0.082764	-0.601563	6.216379	28.462034	54.527401
07786		-4.723550	0.912830	8.758588	-0.000769	-0.001726	0.004042	-0.975342	0.079346	-0.602051	6.216978	28.461377	54.526830
07787		-4.736289	0.929535	8.722076	-0.006408	-0.000584	0.004564	-0.963379	0.076172	-0.608398	6.215529	28.461545	54.527249
07788		-4.759746	0.904300	8.718929	-0.001428	-0.000908	0.001692	-0.970947	0.078125	-0.601563	6.215056	28.461498	54.525202
07789		-4.744914	0.934795	8.744303	-0.005307	-0.003884	0.004676	-0.975586	0.077393	-0.600586	6.214162	28.459779	54.525461
07790		-4.745485	0.910901	8.750160	-0.002855	-0.001816	0.003385	-0.966309	0.066650	-0.605713	6.213357	28.459087	54.524052
07791		-4.735577	0.928872	8.722533	-0.005384	0.000577	0.004966	-0.970459	0.075928	-0.602539	6.212658	28.459891	54.524814
07792		-4.712837	0.930073	8.731471	-0.001832	-0.000656	0.003787	-0.968018	0.073242	-0.601318	6.212622	28.459865	54.523819
07793		-4.736206	0.904979	8.728357	-0.004283	-0.002724	0.005078	-0.975098	0.084229	-0.603516	6.212477	28.458783	54.524421
07794		-4.713466	0.906071	8.737305	-0.005019	0.002556	0.003018	-0.971436	0.077881	-0.605713	6.210479	28.460610	54.523327
07795		-4.745076	0.910283	8.750446	-0.002601	-0.002381	0.007830	-0.966797	0.067871	-0.599121	6.212159	28.459552	54.525736
07796		-4.744985	0.910152	8.750509	-0.006043	0.001396	0.002617	-0.967529	0.076416	-0.599609	6.209422	28.460756	54.524126
07797		-4.753798	0.915603	8.772614	-0.000731	-0.003956	0.003898	-0.968018	0.077881	-0.603271	6.210906	28.459044	54.523876
07798		-4.690261	0.907014	8.746518	-0.004322	-0.000493	0.005224	-0.975830	0.076416	-0.606934	6.209897	28.459006	54.524148
07799		-4.744518	0.909908	8.750788	-0.004726	-0.000240	0.007319	-0.967773	0.076904	-0.606445	6.210273	28.459200	54.526376
07800		-4.758124	0.903048	8.719944	-0.000770	-0.001726	0.004044	-0.957275	0.078857	-0.605957	6.210902	28.458539	54.525743
07801		-4.730449	0.916874	8.781871	-0.003260	-0.001563	0.005481	-0.965332	0.085693	-0.608643	6.211507	28.458093	54.526688
07802		-4.735052	0.904231	8.729061	-0.004942	-0.001905	0.002729	-0.972900	0.075684	-0.603027	6.209346	28.457439	54.526313
07803		-4.730118	0.916597	8.782078	-0.002236	-0.000403	0.005883	-0.973877	0.070068	-0.605713	6.210700	28.457629	54.527600
07804		-4.742804	0.933492	8.745587	-0.001794	-0.002886	0.003642	-0.964600	0.072998	-0.596436	6.210580	28.456317	54.526159
07805		-4.720791	0.910996	8.760266	-0.004322	-0.000492	0.005226	-0.969727	0.078857	-0.603760	6.210534	28.456496	54.527014
07806		-4.734401	0.904037	8.729434	-0.003260	-0.001563	0.005482	-0.958984	0.073975	-0.605957	6.210188	28.455822	54.527204
07807		-4.743113	0.909515	8.751590	-0.003880	-0.002975	0.002985	-0.968750	0.079346	-0.608887	6.209620	28.454726	54.526433
07808		-4.729124	0.916173	8.782657	-0.005346	-0.001652	0.004825	-0.976807	0.078369	-0.603027	6.207894	28.454081	54.526886
07809		-4.742686	0.909133	8.751861	-0.002856	-0.001815	0.003387	-0.967041	0.073730	-0.610840	6.208075	28.453621	54.526456
07810		-4.701120	0.922671	8.711141	-0.007066	0.000238	0.002219	-0.965820	0.079590	-0.600830	6.204614	28.454184	54.524765
07811		-4.765145	0.907160	8.743165	-0.003476	-0.003227	0.000891	-0.975586	0.076172	-0.610107	6.203622	28.453075	54.522619
07812		-4.754156	0.948979	8.709980	-0.002601	-0.002382	0.007834	-0.969238	0.081543	-0.600098	6.204366	28.451793	54.524489
07813		-4.764577	0.907077	8.743483	-0.003880	-0.002974	0.002986	-0.961182	0.083984	-0.593262	6.203798	28.450698	54.523718
07814		-4.709996	0.903833	8.739408	-0.005346	-0.001651	0.004826	-0.963623	0.077881	-0.601563	6.202059	28.449998	54.523807
07815		-4.723562	0.896666	8.708627	-0.004539	-0.002155	0.000636	-0.966553	0.072754	-0.605713	6.200416	28.449514	54.521571
07816		-4.741208	0.907553	8.752826	-0.003880	-0.002974	0.002987	-0.969727	0.073486	-0.604980	6.198925	28.448212	54.520283
07817		-4.740968	0.907303	8.752982	-0.004942	-0.001903	0.002731	-0.972168	0.078613	-0.602051	6.197706	28.447742	54.519423
07818		-4.730856	0.925255	8.725479	-0.002818	-0.004045	0.003242	-0.963379	0.072998	-0.602783	6.196862	28.445793	54.517951
07819		-4.730525	0.925206	8.725663	-0.005091	-0.002218	0.009274	-0.970947	0.079102	-0.607666	6.197566	28.444739	54.521307
07820		-4.725612	0.937512	8.778664	-0.003552	0.001235	0.001184	-0.969238	0.078857	-0.606445	6.195857	28.445944	54.519210
07821		-4.749103	0.912173	8.775514	-0.005967	-0.003062	0.002331	-0.977539	0.079102	-0.605225	6.193888	28.444839	54.518009
07822		-4.738990	0.930053	8.748021	-0.004284	-0.002722	0.005083	-0.977539	0.074463	-0.604248	6.192826	28.443527	54.518027
07823		-4.698077	0.919942	8.713071	-0.004905	-0.004133	0.002586	-0.965332	0.079102	-0.604980	6.191509	28.441795	54.516916
07824		-4.738367	0.929560	8.748411	-0.005346	-0.001651	0.004829	-0.972412	0.074463	-0.597412	6.189803	28.441112	54.516743
07825		-4.738970	0.905584	8.754242	-0.005309	-0.003881	0.004683	-0.971924	0.086426	-0.606201	6.188910	28.439395	54.517008
07826		-4.728667	0.923529	8.726848	-0.005675	-0.005859	0.006633	-0.968994	0.081543	-0.607910	6.187427	28.436185	54.517757
07827		-4.715456	0.906446	8.763611	-0.003918	-0.000743	0.003135	-0.970947	0.083008	-0.605713	6.186958	28.436350	54.517240
07828		-4.738066	0.904989	8.754793	-0.003918	-0.000743	0.003135	-0.967529	0.079590	-0.602539	6.185590	28.436298	54.516656
07829		-4.728051	0.923059	8.727232	-0.001794	-0.002886	0.003645	-0.969971	0.069092	-0.603516	6.186424	28.435212	54.516319
07830		-4.727766	0.923000	8.727392	-0.004284	-0.002722	0.005085	-0.965576	0.071777	-0.602295	6.185384	28.433906	54.516104
07831		-4.713707	0.929668	8.758479	-0.003881	-0.002973	0.002989	-0.966797	0.076660	-0.603027	6.184817	28.432811	54.515335
07832		-4.749946	0.921434	8.718822	-0.002856	-0.001814	0.003390	-0.970459	0.077637	-0.612549	6.184111	28.432132	54.514247
07833		-4.736830	0.904418	8.755520	-0.004284	-0.002721	0.005086	-0.971191	0.078125	-0.604492	6.183968	28.431050	54.514854
07834		-4.726862	0.922332	8.727952	-0.004576	0.000077	0.000785	-0.959961	0.079834	-0.605469	6.181542	28.431617	54.512563
07835		-4.735744	0.927627	8.750036	-0.003918	-0.000743	0.003136	-0.964355	0.077393	-0.609863	6.181074	28.431783	54.512047
07836		-4.749427	0.920534	8.719200	-0.006407	-0.000578	0.004577	-0.967773	0.077881	-0.598389	6.178761	28.431767	54.512724
07837		-4.704678	0.899082	8.742762	-0.002820	-0.004044	0.003244	-0.965332	0.073486	-0.596924	6.178845	28.430046	54.512046
07838		-4.749852	0.896544	8.725124	-0.001831	-0.000656	0.003792	-0.962646	0.078369	-0.606201	6.178888	28.429971	54.510900
07839		-4.695421	0.893385	8.720922	-0.003918	-0.000743	0.003137	-0.963379	0.078125	-0.604004	6.178420	28.430137	54.510384
07840		-4.734938	0.926873	8.750552	-0.002856	-0.001814	0.003391	-0.962646	0.072998	-0.608887	6.177734	28.429474	54.509940
07841		-4.758360	0.901971	8.747397	-0.001575	-0.001224	0.008241	-0.967041	0.072754	-0.608643	6.180165	28.429051	54.512696
07842		-4.748441	0.920010	8.719793	-0.007066	0.000243	0.002227	-0.967041	0.084229	-0.604004	6.176789	28.429649	54.511308
07843		-4.716765	0.915546	8.706685	0.000256	-0.000569	0.004448	-0.965576	0.074951	-0.597412	6.179122	28.429833	54.511653
07844		-4.735424	0.902902	8.756437	-0.003112	-0.001245	-0.001057	-0.968994	0.075928	-0.603516	6.176928	28.429730	54.507884
07845		-4.749064	0.895917	8.725617	-0.003259	-0.001562	0.005489	-0.971924	0.078369	-0.604980	6.177535	28.429284	54.508834
07846		-4.735094	0.902671	8.756640	-0.002856	-0.001814	0.003392	-0.971436	0.078125	-0.601563	6.176847	28.428590	54.507744
07847		-4.724215	0.944437	8.723435	-0.003918	-0.000742	0.003138	-0.969238	0.083008	-0.608398	6.176379	28.428756	54.507229
07848		-4.725890	0.896851	8.734786	-0.003259	-0.001562	0.005489	-0.973145	0.076904	-0.606934	6.176120	28.428076	54.507888
07849		-4.757280	0.900930	8.748091	-0.005565	-0.003310	0.000239	-0.959717	0.081299	-0.603760	6.173728	28.426958	54.505315
07850		-4.733428	0.925720	8.751491	-0.004065	-0.001060	0.009684	-0.964600	0.077393	-0.604248	6.174327	28.426326	54.508861
07851		-4.725086	0.896365	8.735270	-0.003846	-0.005202	0.002845	-0.965332	0.077881	-0.600586	6.173661	28.423970	54.507843
07852		-4.746693	0.918569	8.720896	-0.006040	0.001402	0.002631	-0.965820	0.069580	-0.603516	6.171036	28.425166	54.506666
07853		-4.723843	0.919661	8.729869	-0.000734	-0.003958	0.003901	-0.975586	0.079102	-0.610596	6.172520	28.423453	54.506420
07854		-4.723510	0.919654	8.730050	-0.004285	-0.002720	0.005090	-0.970215	0.076172	-0.606445	6.171530	28.422156	54.506307
07855		-4.745982	0.918313	8.721310	-0.002856	-0.001814	0.003393	-0.969727	0.081543	-0.603516	6.171713	28.421696	54.505882
07856		-4.724045	0.895736	8.735898	-0.001428	-0.000907	0.001697	-0.970703	0.069824	-0.602539	6.171371	28.421628	54.504004
07857		-4.701198	0.897067	8.744840	-0.001575	-0.001225	0.008244	-0.970215	0.079102	-0.606201	6.173804	28.421204	54.506762
07858		-4.763541	0.929459	8.765529	-0.005014	0.002561	0.003033	-0.964355	0.069580	-0.605713	6.171938	28.423026	54.505463
07859		-4.714955	0.890115	8.713961	-0.001795	-0.002885	0.003647	-0.964355	0.083008	-0.612793	6.172771	28.421940	54.505128
07860		-4.722861	0.919513	8.730415	0.000623	0.001409	0.002499	-0.960693	0.075928	-0.602539	6.173956	28.423196	54.504467
07861		-4.722866	0.919534	8.730411	-0.004320	-0.000490	0.005238	-0.972168	0.074951	-0.605713	6.173913	28.423376	54.505330
07862		-4.755272	0.900057	8.749273	-0.003259	-0.001562	0.005492	-0.967529	0.073486	-0.597656	6.173685	28.422711	54.505661
07863		-4.731501	0.924910	8.752618	-0.003918	-0.000741	0.003140	-0.961670	0.074951	-0.596436	6.173218	28.422878	54.505147
07864		-4.699687	0.920371	8.739583	-0.003882	-0.002971	0.002993	-0.973877	0.077393	-0.610352	6.171804	28.421528	54.503120
07865		-4.731948	0.901020	8.758510	-0.000111	-0.002549	0.006401	-0.965820	0.072021	-0.604248	6.174463	28.420464	54.504591
07866		-4.744684	0.918085	8.722040	-0.002892	0.000417	0.003542	-0.969727	0.070068	-0.604248	6.173920	28.421051	54.503779
07867		-4.713943	0.889998	8.714521	-0.002234	-0.000404	0.005894	-0.962891	0.079590	-0.605957	6.175278	28.421240	54.505072
07868		-4.721840	0.919171	8.731004	-0.006407	-0.000574	0.004584	-0.967529	0.073730	-0.599609	6.173012	28.421201	54.505003
07869		-4.721650	0.918976	8.731127	-0.001393	-0.003136	0.001550	-0.962891	0.086426	-0.605469	6.173421	28.420101	54.503291
07870		-4.731249	0.900726	8.758918	-0.002857	-0.001813	0.003395	-0.971191	0.078369	-0.603760	6.172776	28.419410	54.502812
07871		-4.730180	0.924433	8.753383	-0.001831	-0.000655	0.003796	-0.975830	0.082275	-0.605713	6.173709	28.419585	54.502729
07872		-4.722058	0.895096	8.737037	-0.002857	-0.001813	0.003395	-0.968018	0.073730	-0.606201	6.173059	28.418868	54.501762
07873		-4.752562	0.923131	8.744695	-0.003259	-0.001561	0.005494	-0.968506	0.078125	-0.602051	6.173667	28.418422	54.502715
07874		-4.720754	0.918755	8.731635	-0.003259	-0.001561	0.005494	-0.970215	0.073242	-0.598877	6.173457	28.417747	54.503018
07875		-4.752041	0.922920	8.745001	-0.006337	-0.005034	0.004291	-0.966797	0.074463	-0.601807	6.171815	28.415397	54.502949
07876		-4.697426	0.919563	8.740884	-0.004722	-0.000238	0.007340	-0.969727	0.077148	-0.600098	6.171374	28.415340	54.503970
07877		-4.728858	0.923998	8.754143	0.000291	-0.002800	0.004304	-0.964600	0.072754	-0.600098	6.173608	28.414261	54.504065
07878		-4.729654	0.900359	8.759817	-0.003294	0.000669	0.005642	-0.958496	0.078857	-0.605225	6.173499	28.414828	54.504343
07879		-4.734419	0.887965	8.706942	-0.004286	-0.002718	0.005094	-0.969482	0.073486	-0.601563	6.173357	28.413747	54.504956
07880		-4.728391	0.923966	8.754399	-0.001831	-0.000655	0.003797	-0.968506	0.078369	-0.608887	6.173489	28.413712	54.504720
07881		-4.719395	0.918353	8.732412	-0.004320	-0.000488	0.005242	-0.964600	0.068604	-0.605225	6.173447	28.413893	54.505585
07882		-4.720196	0.894533	8.738101	-0.003259	-0.001561	0.005496	-0.978760	0.078857	-0.601807	6.173265	28.413252	54.506080
07883		-4.719118	0.918305	8.732567	-0.002233	-0.000404	0.005897	-0.968994	0.083496	-0.605469	6.174624	28.413440	54.507375
07884		-4.751585	0.898870	8.751398	-0.003918	-0.000739	0.003143	-0.972412	0.073730	-0.609619	6.173339	28.413337	54.506264
07885		-4.728730	0.899921	8.760361	-0.002857	-0.001812	0.003397	-0.973389	0.078857	-0.604248	6.173523	28.412877	54.505841
07886		-4.719641	0.894307	8.738424	-0.003259	-0.001561	0.005496	-0.973633	0.076660	-0.598877	6.173331	28.412198	54.506002
07887		-4.726562	0.947295	8.749317	-0.002891	0.000418	0.003545	-0.972656	0.076660	-0.602051	6.173616	28.413000	54.505832
07888		-4.718562	0.917962	8.732903	-0.001831	-0.000655	0.003798	-0.965332	0.069824	-0.606445	6.173734	28.412891	54.504431
07889		-4.751128	0.898608	8.751673	-0.001865	0.001575	0.003946	-0.971436	0.081787	-0.604004	6.174768	28.414327	54.504601
07890		-4.728274	0.899760	8.760624	-0.002823	-0.004042	0.003249	-0.973877	0.073975	-0.601563	6.174063	28.412388	54.503452
07891		-4.727940	0.899646	8.760816	-0.004286	-0.002717	0.005096	-0.968018	0.076904	-0.601807	6.173922	28.411308	54.504066
07892		-4.741472	0.892774	8.730067	-0.004286	-0.002717	0.005096	-0.964600	0.078857	-0.598633	6.172978	28.409968	54.503583
07893		-4.727419	0.899399	8.761122	-0.002857	-0.001812	0.003398	-0.973389	0.066895	-0.604248	6.173162	28.409508	54.503161
07894		-4.717335	0.917585	8.733605	-0.002199	-0.002634	0.005751	-0.968262	0.076904	-0.609619	6.173626	28.408190	54.503060
07895		-4.748712	0.921986	8.746907	-0.003260	-0.001560	0.005498	-0.972168	0.079834	-0.602295	6.174235	28.407744	54.504015
07896		-4.703140	0.924233	8.764732	-0.003918	-0.000738	0.003145	-0.964600	0.081299	-0.603760	6.172985	28.407686	54.503197
07897		-4.738485	0.939852	8.719504	-0.005313	-0.003874	0.004697	-0.961914	0.073975	-0.602051	6.172094	28.405972	54.503472
07898		-4.748049	0.921527	8.747315	-0.003259	-0.001560	0.005498	-0.978760	0.077148	-0.609375	6.171929	28.405318	54.504789
07899		-4.708461	0.887990	8.717688	-0.000179	0.001909	0.006701	-0.965332	0.073486	-0.605957	6.174789	28.406775	54.506767
07900		-4.726161	0.899178	8.761824	-0.004286	-0.002717	0.005098	-0.969971	0.083984	-0.608643	6.173875	28.405475	54.506630
07901		-4.737782	0.939886	8.719882	-0.001797	-0.002884	0.003652	-0.975098	0.079102	-0.608398	6.174709	28.404389	54.506297
07902		-4.724630	0.922772	8.756555	-0.003884	-0.002967	0.002998	-0.968994	0.085205	-0.596191	6.173370	28.403071	54.505570
07903		-4.747061	0.921437	8.747861	-0.004286	-0.002716	0.005099	-0.975098	0.077881	-0.606201	6.173229	28.401992	54.506185
07904		-4.725116	0.898695	8.762437	-0.003918	-0.000738	0.003147	-0.962402	0.071777	-0.607910	6.171973	28.401880	54.505193
07905		-4.724014	0.922438	8.756922	-0.001172	-0.001477	0.006153	-0.969971	0.068115	-0.605225	6.173983	28.401441	54.506579
07906		-4.746544	0.921215	8.748165	-0.004945	-0.001894	0.002746	-0.971191	0.078613	-0.600342	6.172019	28.400790	54.504908
07907		-4.715565	0.892831	8.740775	-0.003852	-0.005197	0.002851	-0.964844	0.083984	-0.601318	6.171352	28.398436	54.503894
07908		-4.714413	0.916339	8.735314	-0.006842	0.001912	0.006843	-0.970459	0.077393	-0.602295	6.169660	28.399626	54.505928
07909		-4.746025	0.920599	8.748511	-0.001831	-0.000655	0.003801	-0.967041	0.075439	-0.604004	6.170595	28.399801	54.505848
07910		-4.732005	0.927250	8.779535	-0.004287	-0.002716	0.005100	-0.962158	0.081787	-0.604248	6.169691	28.398484	54.505876
07911		-4.723851	0.897875	8.763203	-0.003260	-0.001560	0.005501	-0.967529	0.078857	-0.598633	6.170300	28.398039	54.506834
07912		-4.723760	0.897819	8.763257	-0.002891	0.000419	0.003549	-0.968262	0.074219	-0.603516	6.169824	28.398607	54.506876
07913		-4.736532	0.914776	8.726818	-0.002858	-0.001811	0.003400	-0.968750	0.070313	-0.603760	6.170009	28.398147	54.506456
07914		-4.722604	0.921177	8.757816	-0.007065	0.000255	0.002243	-0.973389	0.079590	-0.603760	6.166742	28.398709	54.504342
07915		-4.722558	0.920824	8.757878	-0.003918	-0.000737	0.003148	-0.974365	0.075195	-0.605957	6.166277	28.398877	54.503834
07916		-4.715527	0.867727	8.747038	-0.002232	-0.000404	0.005902	-0.976318	0.070801	-0.602051	6.166877	28.398808	54.504256
07917		-4.735092	0.937741	8.721574	-0.005314	-0.003872	0.004700	-0.966553	0.073730	-0.604980	6.165986	28.397095	54.504533
07918		-4.713938	0.891120	8.741827	-0.004913	-0.004122	0.002600	-0.966797	0.073730	-0.612061	6.163917	28.395123	54.502050
07919		-4.730343	0.925648	8.780600	-0.004913	-0.004122	0.002600	-0.968262	0.078125	-0.594727	6.162601	28.393396	54.500949
07920		-4.713269	0.890615	8.742240	-0.002858	-0.001810	0.003401	-0.967285	0.083984	-0.602051	6.162039	28.392709	54.500154
07921		-4.711130	0.938087	8.731193	-0.003661	-0.001309	0.007604	-0.967041	0.076416	-0.600098	6.163075	28.392277	54.502491
07922		-4.743423	0.918495	8.750144	-0.007000	-0.004204	0.001948	-0.973145	0.072266	-0.603027	6.159606	28.390291	54.501010
07923		-4.712560	0.890066	8.742678	-0.001429	-0.000905	0.001701	-0.962402	0.074463	-0.602295	6.160116	28.390452	54.499552
07924		-4.711393	0.913726	8.737217	-0.004287	-0.002715	0.005103	-0.972656	0.077637	-0.609131	6.159236	28.389141	54.499323
07925		-4.733927	0.912347	8.728485	-0.006406	-0.000567	0.004599	-0.975586	0.076172	-0.609619	6.157798	28.389316	54.499765
07926		-4.719894	0.918681	8.759539	-0.006374	-0.002797	0.004451	-0.974365	0.084229	-0.594238	6.155525	28.388011	54.499347
07927		-4.710779	0.912817	8.737643	-0.004945	-0.001892	0.002750	-0.974854	0.073486	-0.597412	6.154311	28.387546	54.498500
07928		-4.733312	0.911485	8.728909	-0.002858	-0.001810	0.003402	-0.960205	0.077148	-0.595703	6.153722	28.386744	54.496579
07929		-4.733121	0.911151	8.729047	-0.006631	-0.002223	-0.000004	-0.966797	0.080811	-0.601807	6.150683	28.386259	54.493925
07930		-4.719084	0.917584	8.760090	-0.004062	-0.001059	0.009708	-0.962402	0.073242	-0.598877	6.151406	28.385600	54.498017
07931		-4.719835	0.893891	8.765774	-0.001798	-0.002884	0.003654	-0.967529	0.077637	-0.609619	6.152241	28.384513	54.497687
07932		-4.717868	0.941383	8.754646	-0.001493	0.003554	0.001999	-0.969727	0.072998	-0.605713	6.152236	28.386996	54.496704
07933		-4.732755	0.910796	8.729283	-0.004946	-0.001891	0.002751	-0.968262	0.077881	-0.604492	6.151022	28.386531	54.495857
07934		-4.728573	0.898940	8.787957	-0.004946	-0.001891	0.002751	-0.969482	0.082520	-0.602051	6.149088	28.385845	54.494524
07935		-4.765054	0.890848	8.748265	-0.004977	0.000339	0.002900	-0.969482	0.076660	-0.604004	6.147976	28.386641	54.493929
07936		-4.710688	0.887187	8.743979	-0.005604	-0.001067	0.000398	-0.970703	0.075684	-0.605713	6.144957	28.386542	54.491462
07937		-4.723456	0.903916	8.707592	-0.003516	-0.000986	0.001050	-0.973877	0.074463	-0.609863	6.144068	28.386697	54.489577
07938		-4.741058	0.914912	8.751801	-0.000771	-0.001729	0.004055	-0.970459	0.075439	-0.607666	6.144938	28.386027	54.488913
07939		-4.695469	0.917128	8.769590	-0.003918	-0.000736	0.003152	-0.970215	0.075684	-0.610107	6.144474	28.386195	54.488407
07940		-4.731762	0.909214	8.729985	-0.004657	-0.004694	0.007059	-0.975830	0.073975	-0.605469	6.143953	28.383671	54.489865
07941		-4.731574	0.909051	8.730104	-0.003548	0.001244	0.001199	-0.963623	0.076660	-0.610596	6.143166	28.385086	54.488232
07942		-4.741439	0.890637	8.757740	-0.004319	-0.000485	0.005255	-0.968262	0.073486	-0.588867	6.142424	28.385067	54.488783
07943		-4.718575	0.891541	8.766691	-0.004946	-0.001890	0.002752	-0.965576	0.074951	-0.601807	6.141210	28.384601	54.487938
07944		-4.730255	0.932098	8.724803	-0.004946	-0.001890	0.002752	-0.964355	0.077637	-0.609131	6.139259	28.383841	54.485803
07945		-4.740024	0.913711	8.752486	-0.003291	0.000670	0.005656	-0.960938	0.081299	-0.597900	6.139972	28.384656	54.487016
07946		-4.738938	0.937303	8.747003	-0.004946	-0.001890	0.002753	-0.971680	0.081543	-0.604248	6.138056	28.383991	54.486927
07947		-4.731919	0.884021	8.736138	-0.003918	-0.000735	0.003153	-0.964355	0.085693	-0.604492	6.137593	28.384159	54.486422
07948		-4.739697	0.913183	8.752718	-0.001429	-0.000905	0.001702	-0.965088	0.074463	-0.603027	6.137391	28.384087	54.485641
07949		-4.717827	0.890400	8.767210	-0.005347	-0.001640	0.004856	-0.968750	0.082520	-0.607666	6.136604	28.383635	54.486175
07950		-4.738418	0.936613	8.747358	-0.004319	-0.000485	0.005257	-0.968994	0.074951	-0.606689	6.135866	28.383606	54.487144
07951		-4.730460	0.907279	8.730893	-0.001830	-0.000655	0.003805	-0.965576	0.078369	-0.599365	6.136802	28.383780	54.487067
07952		-4.729368	0.930980	8.725403	-0.004319	-0.000485	0.005257	-0.971924	0.069824	-0.601807	6.136062	28.383730	54.487469
07953		-4.738141	0.936343	8.747537	-0.003918	-0.000735	0.003154	-0.971436	0.077393	-0.605225	6.135599	28.383898	54.486964
07954		-4.715273	0.937203	8.756493	-0.004946	-0.001890	0.002754	-0.968506	0.079590	-0.607178	6.133684	28.383183	54.484940
07955		-4.739765	0.888441	8.758869	-0.001799	-0.002884	0.003656	-0.973389	0.074463	-0.601807	6.134519	28.382096	54.484611
07956		-4.738668	0.912078	8.753391	-0.003548	0.001245	0.001201	-0.973389	0.074463	-0.607422	6.133035	28.383270	54.482446
07957		-4.714941	0.936714	8.756723	-0.003918	-0.000735	0.003155	-0.969727	0.076172	-0.605713	6.132572	28.383439	54.481942
07958		-4.739582	0.887905	8.759023	-0.003918	-0.000735	0.003155	-0.964600	0.072021	-0.607666	6.131423	28.383382	54.480810
07959		-4.771176	0.892131	8.772257	-0.003949	0.001495	0.003305	-0.965332	0.076660	-0.598633	6.131063	28.384812	54.480558
07960		-4.706089	0.930757	8.734696	-0.002262	0.001824	0.006059	-0.967529	0.077148	-0.605713	6.131844	28.386049	54.481649
07961		-4.707147	0.906863	8.740220	-0.004576	0.000091	0.000801	-0.964111	0.075195	-0.604736	6.130307	28.386832	54.479678
07962		-4.738643	0.911164	8.753500	-0.000771	-0.001730	0.004057	-0.958252	0.076416	-0.612305	6.131215	28.386176	54.479602
07963		-4.729644	0.905814	8.731487	-0.003034	0.000094	0.010117	-0.971191	0.070068	-0.607910	6.133430	28.386390	54.483664
07964		-4.729652	0.905794	8.731485	-0.003548	0.001246	0.001202	-0.970703	0.080322	-0.610840	6.131989	28.387660	54.482077
07965		-4.729654	0.905572	8.731506	-0.003918	-0.000734	0.003156	-0.965332	0.078125	-0.593994	6.131527	28.387829	54.481573
07966		-4.705726	0.930227	8.734947	-0.003888	-0.002964	0.003006	-0.971191	0.074951	-0.602783	6.130273	28.386485	54.480644
07967		-4.730337	0.881478	8.737252	-0.002890	0.000420	0.003556	-0.975830	0.079346	-0.609375	6.130561	28.387287	54.480480
07968		-4.751042	0.927711	8.717355	-0.004977	0.000341	0.002906	-0.972900	0.082275	-0.606201	6.128766	28.387834	54.479326
07969		-4.720376	0.899368	8.709733	-0.003260	-0.001560	0.005510	-0.959473	0.078613	-0.605225	6.129379	28.387388	54.480290
07970		-4.738002	0.910143	8.753953	-0.003774	-0.000408	-0.003405	-0.968262	0.080811	-0.610840	6.126319	28.387938	54.476077
07971		-4.738146	0.909804	8.753910	-0.003979	0.003725	0.003457	-0.966064	0.074463	-0.604004	6.126062	28.390629	54.476078
07972		-4.729388	0.904027	8.731811	-0.006407	-0.000563	0.004609	-0.967285	0.078613	-0.607178	6.123965	28.390612	54.476689
07973		-4.720388	0.898299	8.709837	-0.002859	-0.001809	0.003407	-0.966309	0.080811	-0.603271	6.124151	28.390153	54.476273
07974		-4.724100	0.915889	8.784983	-0.001831	-0.000655	0.003807	-0.965576	0.079346	-0.608887	6.124419	28.390111	54.476419
07975		-4.729015	0.903692	8.732047	-0.003918	-0.000734	0.003157	-0.975342	0.072998	-0.602539	6.123957	28.390280	54.475916
07976		-4.727953	0.927312	8.726561	-0.002890	0.000420	0.003557	-0.969971	0.077393	-0.602295	6.123577	28.390849	54.475251
07977		-4.719096	0.921578	8.704511	-0.004576	0.000092	0.000803	-0.967285	0.080322	-0.611572	6.122040	28.391633	54.473281
07978		-4.724065	0.915320	8.785061	-0.000832	0.002728	0.004359	-0.970215	0.076660	-0.601318	6.123172	28.393490	54.473971
07979		-4.742995	0.896595	8.701114	-0.003918	-0.000734	0.003157	-0.966797	0.075439	-0.601074	6.122710	28.393659	54.473468
07980		-4.715167	0.909509	8.763041	-0.006407	-0.000563	0.004611	-0.969482	0.079346	-0.594482	6.120603	28.393571	54.472915
07981		-4.728992	0.902707	8.732161	-0.002890	0.000420	0.003558	-0.969482	0.071533	-0.599121	6.120892	28.394373	54.472752
07982		-4.715128	0.909209	8.763093	-0.002890	0.000420	0.003558	-0.967529	0.074951	-0.603760	6.120497	28.394860	54.470932
07983		-4.737810	0.908067	8.754272	-0.001430	-0.000905	0.001704	-0.970703	0.077637	-0.605225	6.121007	28.395020	54.469476
07984		-4.728907	0.902494	8.732230	-0.002890	0.000420	0.003558	-0.968262	0.079834	-0.614258	6.120639	28.395589	54.468777
07985		-4.715090	0.908834	8.763152	-0.006036	0.001418	0.002658	-0.975586	0.079346	-0.603271	6.118881	28.397014	54.468100
07986		-4.727889	0.925874	8.726748	-0.000772	-0.001731	0.004058	-0.969238	0.077148	-0.602051	6.119816	28.396345	54.468312
07987		-4.760457	0.906409	8.745524	-0.006036	0.001418	0.002659	-0.971191	0.069580	-0.603516	6.118058	28.397770	54.467636
07988		-4.706149	0.902674	8.741191	-0.006407	-0.000562	0.004612	-0.970703	0.078125	-0.606689	6.115967	28.397693	54.466764
07989		-4.728735	0.901463	8.732429	-0.000371	-0.001980	0.001954	-0.969727	0.075684	-0.605469	6.117125	28.397225	54.465395
07990		-4.737452	0.906934	8.754583	-0.004320	-0.000484	0.005263	-0.967529	0.083740	-0.604492	6.116443	28.397182	54.465901
07991		-4.759058	0.929466	8.740286	-0.003919	-0.000733	0.003158	-0.963135	0.072754	-0.604980	6.115981	28.397351	54.465399
07992		-4.759949	0.905597	8.745885	-0.003261	-0.001560	0.005513	-0.970459	0.075684	-0.600342	6.115955	28.396702	54.466578
07993		-4.714306	0.907704	8.763691	-0.003261	-0.001560	0.005513	-0.968750	0.083984	-0.608643	6.116568	28.396257	54.467543
07994		-4.727991	0.900972	8.732883	-0.004948	-0.001886	0.002758	-0.967773	0.076904	-0.615723	6.114707	28.395552	54.466715
07995		-4.735670	0.929990	8.749553	-0.003919	-0.000733	0.003159	-0.972656	0.069824	-0.603271	6.114245	28.395721	54.466213
07996		-4.728888	0.876740	8.738513	-0.003547	0.001247	0.001206	-0.974121	0.083496	-0.606445	6.112837	28.396958	54.464009
07997		-4.726870	0.924129	8.727485	-0.003290	0.000670	0.005665	-0.971191	0.074707	-0.605225	6.113553	28.397773	54.465228
07998		-4.736716	0.905622	8.755118	-0.005605	-0.001059	0.000404	-0.962402	0.074219	-0.608643	6.110621	28.397674	54.462684
07999		-4.727768	0.899896	8.733115	-0.001831	-0.000655	0.003810	-0.968750	0.072021	-0.605713	6.111558	28.397848	54.462609
08000		-4.759209	0.904198	8.746432	-0.004948	-0.001886	0.002759	-0.966064	0.081055	-0.601807	6.109729	28.397216	54.461290
08001		-4.727438	0.899454	8.733339	-0.004948	-0.001886	0.002759	-0.968506	0.078857	-0.603760	6.108516	28.396753	54.460449
08002		-4.718493	0.893762	8.711330	-0.002889	0.000421	0.003561	-0.965088	0.083740	-0.603516	6.108165	28.397311	54.460367
08003		-4.757843	0.927330	8.741174	-0.003919	-0.000733	0.003160	-0.971191	0.083008	-0.591064	6.107703	28.397480	54.459866
08004		-4.727113	0.899034	8.733558	-0.001802	-0.002885	0.003658	-0.967041	0.079346	-0.601318	6.107875	28.396074	54.459469
08005		-4.740804	0.892322	8.702748	-0.006407	-0.000561	0.004616	-0.971191	0.078125	-0.604492	6.106442	28.396252	54.459923
08006		-4.734643	0.927897	8.750331	-0.004319	-0.000483	0.005266	-0.970459	0.078125	-0.603760	6.105770	28.396186	54.460483
08007		-4.726648	0.898473	8.733867	-0.003890	-0.002962	0.003009	-0.970215	0.078369	-0.608643	6.105205	28.395095	54.459730
08008		-4.734312	0.927485	8.750553	-0.004977	0.000344	0.002912	-0.967285	0.076416	-0.603271	6.103472	28.395675	54.459041
08009		-4.735312	0.903582	8.756087	-0.001831	-0.000655	0.003811	-0.969482	0.077881	-0.595947	6.104409	28.395848	54.458967
08010		-4.726419	0.897843	8.734056	-0.007067	0.000269	0.002274	-0.970215	0.077881	-0.610352	6.101265	28.396362	54.456965
08011		-4.750007	0.872764	8.730830	-0.003231	-0.003790	0.005358	-0.968506	0.080078	-0.607178	6.101774	28.394655	54.457677
08012		-4.733844	0.926584	8.750902	-0.007349	0.000444	0.003755	-0.968018	0.071777	-0.606201	6.098960	28.395283	54.458086
08013		-4.747587	0.919947	8.720059	0.000104	-0.002696	0.005261	-0.977783	0.077881	-0.606445	6.101386	28.394205	54.458810
08014		-4.725717	0.897241	8.734498	-0.003736	-0.000845	0.002202	-0.962891	0.077637	-0.602295	6.100112	28.394139	54.456730
08015		-4.747306	0.919777	8.720230	-0.004137	-0.000597	0.004308	-0.968262	0.080811	-0.602051	6.099884	28.394316	54.456982
08016		-4.733281	0.926105	8.751257	-0.005290	-0.001673	0.004556	-0.966797	0.080078	-0.604248	6.098417	28.393641	54.457352
08017		-4.726445	0.872893	8.740220	-0.002583	0.000231	0.001953	-0.966064	0.081787	-0.604004	6.098381	28.394432	54.456137
08018		-4.725350	0.896414	8.734781	-0.006319	-0.000614	0.004155	-0.972412	0.076172	-0.608398	6.096242	28.394400	54.456805
08019		-4.724159	0.920011	8.729388	-0.003508	-0.001407	0.006813	-0.966797	0.070313	-0.604004	6.097118	28.393962	54.458623
08020		-4.725025	0.895997	8.735000	-0.007071	-0.001939	0.002297	-0.970947	0.072266	-0.600586	6.093944	28.393300	54.456451
08021		-4.732624	0.925039	8.751725	-0.000524	-0.001886	0.002754	-0.965576	0.079346	-0.605957	6.095264	28.392836	54.455608
08022		-4.733540	0.901268	8.757284	-0.004537	-0.000348	0.006412	-0.966309	0.071045	-0.600586	6.094853	28.392799	54.456450
08023		-4.754979	0.923813	8.743104	-0.005013	-0.004056	0.003098	-0.971680	0.070068	-0.604980	6.093636	28.391078	54.455679
08024		-4.745803	0.918080	8.721227	-0.003860	-0.002980	0.002850	-0.964355	0.077148	-0.600098	6.092435	28.389755	54.452843
08025		-4.732589	0.900698	8.757857	-0.004784	-0.004618	0.007708	-0.973877	0.072266	-0.611572	6.092751	28.387434	54.455018
08026		-4.732303	0.900495	8.758032	-0.002935	-0.001341	-0.002009	-0.963867	0.080078	-0.605225	6.090647	28.387375	54.450401
08027		-4.708464	0.925010	8.761451	-0.005565	0.000711	0.006011	-0.971436	0.076904	-0.602051	6.090167	28.388193	54.451846
08028		-4.732069	0.899970	8.758212	-0.005013	-0.004056	0.003097	-0.961426	0.073730	-0.599609	6.088350	28.386253	54.451087
08029		-4.731831	0.899712	8.758368	-0.003736	-0.000845	0.002200	-0.978760	0.078125	-0.601318	6.087694	28.386416	54.449957
08030		-4.721695	0.917872	8.730946	-0.003231	-0.003790	0.005354	-0.969238	0.087402	-0.607910	6.087587	28.384428	54.449434
08031		-4.735357	0.911277	8.700153	-0.004135	-0.000597	0.004305	-0.967529	0.075195	-0.603516	6.087358	28.384605	54.449684
08032		-4.732233	0.875542	8.764239	-0.003860	-0.002979	0.002848	-0.966064	0.073975	-0.604492	6.086170	28.383314	54.449592
08033		-4.720937	0.917482	8.731397	-0.003230	-0.003790	0.005353	-0.962891	0.078369	-0.604736	6.086677	28.381607	54.450299
08034		-4.730602	0.899132	8.759091	-0.004535	-0.000348	0.006410	-0.964111	0.083008	-0.600830	6.086298	28.381631	54.451963
08035		-4.730464	0.898961	8.759183	-0.005288	-0.001672	0.004552	-0.967773	0.083496	-0.605713	6.085449	28.381180	54.452299
08036		-4.729207	0.922617	8.753828	-0.000124	-0.002135	0.000648	-0.967773	0.071777	-0.607910	6.085748	28.380489	54.451252
08037		-4.744082	0.892101	8.728445	-0.006946	0.000198	0.001647	-0.967773	0.081055	-0.600830	6.083117	28.381280	54.449836
08038		-4.752774	0.897246	8.750646	-0.004259	-0.002731	0.004952	-0.971191	0.085693	-0.604248	6.082363	28.379999	54.449917
08039		-4.733856	0.910045	8.701099	-0.002352	-0.000332	0.006561	-0.962646	0.080811	-0.605713	6.083859	28.380190	54.451647
08040		-4.733764	0.909889	8.701165	-0.005917	-0.000861	0.002047	-0.964111	0.079346	-0.598877	6.081321	28.380158	54.451675
08041		-4.706885	0.898853	8.768591	-0.003106	-0.001656	0.004704	-0.973389	0.080811	-0.604004	6.081770	28.379707	54.452110
08042		-4.719485	0.916177	8.732319	-0.002476	-0.002467	0.007208	-0.972168	0.072754	-0.604004	6.082726	28.378381	54.453908
08043		-4.720323	0.892412	8.737909	-0.002706	-0.001903	0.002599	-0.973389	0.070557	-0.595947	6.082748	28.377917	54.452963
08044		-4.705151	0.922548	8.763491	-0.002706	-0.001903	0.002599	-0.974854	0.075928	-0.601318	6.082170	28.377146	54.449354
08045		-4.720972	0.868302	8.743635	-0.006441	-0.002748	0.004797	-0.970215	0.072266	-0.601807	6.080701	28.376067	54.449775
08046		-4.737315	0.902697	8.782523	-0.004888	-0.001920	0.002446	-0.967285	0.074219	-0.605225	6.078831	28.375319	54.446861
08047		-4.719376	0.891479	8.738515	-0.005412	-0.003807	0.005197	-0.976318	0.075928	-0.603271	6.078039	28.373612	54.447467
08048		-4.736792	0.902199	8.782856	-0.003735	-0.000844	0.002198	-0.972656	0.079834	-0.604248	6.076803	28.373540	54.445097
08049		-4.749436	0.919288	8.746594	-0.003859	-0.002979	0.002845	-0.971191	0.073730	-0.598389	6.076205	28.372448	54.444237
08050		-4.726221	0.920265	8.755688	-0.002725	-0.006738	0.008499	-0.967041	0.077637	-0.605713	6.077280	28.368588	54.445557
08051		-4.734614	0.925761	8.778014	-0.002706	-0.001903	0.002598	-0.969482	0.081543	-0.606934	6.077302	28.368123	54.444611
08052		-4.738340	0.937263	8.719724	-0.006795	-0.004318	0.000834	-0.963623	0.077393	-0.599365	6.073799	28.366220	54.442959
08053		-4.740215	0.889417	8.730819	-0.003105	-0.001656	0.004702	-0.971191	0.069824	-0.602783	6.074248	28.365769	54.443393
08054		-4.724930	0.919481	8.756467	-0.005012	-0.004054	0.003091	-0.966797	0.078125	-0.608398	6.072461	28.363820	54.441358
08055		-4.748465	0.894415	8.753275	-0.004888	-0.001919	0.002444	-0.968994	0.073975	-0.607910	6.071185	28.363356	54.440312
08056		-4.716719	0.889689	8.740132	-0.005685	-0.001424	0.006652	-0.971680	0.073486	-0.594238	6.070223	28.362793	54.442104
08057		-4.734122	0.900363	8.784484	-0.006440	-0.002747	0.004794	-0.962646	0.075928	-0.603760	6.068754	28.361714	54.442522
08058		-4.746771	0.917404	8.748238	-0.003734	-0.000844	0.002197	-0.964600	0.079102	-0.595459	6.067522	28.361616	54.440213
08059		-4.723889	0.918352	8.757147	-0.000922	-0.001641	0.004853	-0.966309	0.079590	-0.596680	6.069268	28.361164	54.440746
08060		-4.746442	0.917319	8.748426	-0.005286	-0.001672	0.004547	-0.963867	0.079590	-0.613281	6.067832	28.360417	54.441080
08061		-4.701906	0.895274	8.771628	-0.003734	-0.000844	0.002197	-0.965332	0.076660	-0.608643	6.067177	28.360580	54.439948
08062		-4.747200	0.893130	8.754092	-0.004258	-0.002731	0.004946	-0.969727	0.075684	-0.609863	6.066493	28.359459	54.441948
08063		-4.738150	0.887573	8.732127	-0.003104	-0.001656	0.004700	-0.970947	0.073486	-0.604492	6.066942	28.359008	54.442380
08064		-4.745685	0.916698	8.748901	-0.002307	-0.002150	0.000492	-0.962891	0.071777	-0.612061	6.065996	28.358367	54.439311
08065		-4.721710	0.941250	8.752384	-0.003734	-0.000843	0.002197	-0.974365	0.076904	-0.607422	6.065340	28.358531	54.438179
08066		-4.723506	0.893275	8.763519	-0.008074	-0.007526	0.001722	-0.965576	0.077881	-0.608887	6.061314	28.354815	54.436061
08067		-4.726015	0.928623	8.699870	-0.003502	-0.001409	0.006803	-0.972656	0.077393	-0.600830	6.062189	28.354377	54.437872
08068		-4.714176	0.887481	8.741728	-0.002979	0.000479	0.004054	-0.968750	0.083008	-0.605713	6.062035	28.354988	54.437944
08069		-4.714133	0.887236	8.741777	-0.005915	-0.000858	0.002043	-0.966309	0.073242	-0.607178	6.060082	28.355152	54.436712
08070		-4.726831	0.904313	8.705514	-0.002705	-0.001903	0.002595	-0.966797	0.068848	-0.613281	6.059570	28.354537	54.436230
08071		-4.723659	0.868624	8.769551	-0.002075	-0.002717	0.005098	-0.967041	0.077148	-0.605957	6.060696	28.353458	54.436847
08072		-4.743978	0.915112	8.749993	-0.005285	-0.001671	0.004545	-0.971436	0.081055	-0.609619	6.059336	28.352929	54.436866
08073		-4.721998	0.892220	8.764439	-0.002200	-0.004852	0.005742	-0.955566	0.076172	-0.597412	6.060519	28.350594	54.437753
08074		-4.713004	0.886910	8.742418	0.000357	0.001569	0.003961	-0.969238	0.078125	-0.601318	6.062294	28.351869	54.438639
08075		-4.742412	0.938832	8.744819	-0.007342	0.000449	0.003747	-0.969238	0.083496	-0.602051	6.060091	28.352675	54.438599
08076		-4.711772	0.910513	8.737075	0.001135	-0.003762	0.005649	-0.977539	0.075684	-0.605713	6.062632	28.350707	54.439726
08077		-4.721487	0.892179	8.764718	-0.004364	-0.000029	-0.000306	-0.970215	0.073975	-0.600830	6.060873	28.351486	54.437029
08078		-4.734232	0.909312	8.728431	-0.003103	-0.001656	0.004698	-0.960693	0.080566	-0.598389	6.060766	28.350761	54.435892
08079		-4.720154	0.915628	8.759446	-0.004131	-0.000596	0.004299	-0.966309	0.079590	-0.609619	6.060537	28.350939	54.436137
08080		-4.720061	0.915436	8.759516	-0.003733	-0.000843	0.002195	-0.971680	0.072266	-0.604980	6.059356	28.350955	54.436147
08081		-4.733811	0.908808	8.728712	-0.003859	-0.002978	0.002839	-0.967529	0.077881	-0.599609	6.058757	28.349864	54.435284
08082		-4.720880	0.891123	8.765153	-0.005790	0.001278	0.001398	-0.971924	0.079102	-0.605469	6.056206	28.351044	54.432581
08083		-4.712222	0.885438	8.742989	0.000125	0.002135	-0.000644	-0.968506	0.079102	-0.602539	6.056986	28.353076	54.429814
08084		-4.720023	0.914558	8.759628	-0.005557	0.000711	0.006002	-0.972168	0.076904	-0.602539	6.055966	28.353669	54.431301
08085		-4.756664	0.906849	8.719937	-0.005517	-0.001104	-0.000062	-0.971924	0.078125	-0.598389	6.053586	28.353821	54.428689
08086		-4.689491	0.885692	8.751874	-0.003376	0.000725	0.006155	-0.962891	0.077637	-0.600098	6.053849	28.354334	54.429131
08087		-4.718785	0.937731	8.754340	-0.001552	-0.000828	0.002348	-0.967529	0.077148	-0.602783	6.054490	28.354497	54.428098
08088		-4.733690	0.907478	8.728916	-0.002705	-0.001903	0.002593	-0.964844	0.080566	-0.600342	6.053983	28.353826	54.427031
08089		-4.742449	0.912784	8.751065	-0.004005	0.001539	0.003653	-0.962158	0.078613	-0.605713	6.053698	28.355259	54.427006
08090		-4.710811	0.908258	8.737828	-0.002473	-0.002471	0.007197	-0.967529	0.082275	-0.604980	6.054733	28.354032	54.429884
08091		-4.734525	0.883294	8.734527	-0.006545	-0.000043	-0.000461	-0.973633	0.077881	-0.608398	6.051675	28.354813	54.427085
08092		-4.720489	0.889470	8.765531	-0.000921	-0.001643	0.004849	-0.976563	0.080078	-0.606201	6.052901	28.354178	54.428314
08093		-4.710438	0.907794	8.738077	-0.004131	-0.000596	0.004297	-0.970947	0.076172	-0.612061	6.052672	28.354356	54.428559
08094		-4.741845	0.912193	8.751454	-0.003103	-0.001657	0.004695	-0.970703	0.080078	-0.597412	6.052606	28.353731	54.429328
08095		-4.710159	0.907586	8.738249	-0.004131	-0.000596	0.004296	-0.976563	0.075195	-0.598633	6.052377	28.353909	54.429572
08096		-4.750366	0.917435	8.773738	-0.003103	-0.001657	0.004695	-0.961426	0.077393	-0.606445	6.052265	28.353087	54.428408
08097		-4.711091	0.883456	8.743799	-0.005789	0.001279	0.001396	-0.970459	0.074463	-0.601807	6.050255	28.354508	54.426903
08098		-4.741333	0.911363	8.751818	-0.006564	-0.004881	0.005428	-0.971436	0.082520	-0.602051	6.048335	28.352015	54.427266
08099		-4.709455	0.906641	8.738727	-0.002705	-0.001903	0.002592	-0.972168	0.083008	-0.603271	6.048356	28.351551	54.426317
08100		-4.733224	0.881897	8.735373	-0.000398	0.000246	0.002102	-0.968750	0.067627	-0.603271	6.049083	28.352069	54.425884
08101		-4.755881	0.881000	8.726600	-0.003500	-0.001411	0.006796	-0.965088	0.072510	-0.600586	6.049957	28.351631	54.427691
08102		-4.717881	0.912083	8.761041	-0.003102	-0.001657	0.004694	-0.973633	0.077881	-0.597168	6.049898	28.350984	54.425705
08103		-4.708943	0.906501	8.739017	-0.003733	-0.000842	0.002193	-0.968994	0.075195	-0.597412	6.049242	28.351148	54.424570
08104		-4.750311	0.892484	8.779906	-0.004130	-0.000596	0.004295	-0.969727	0.077637	-0.602295	6.048465	28.350975	54.423093
08105		-4.740208	0.910606	8.752506	-0.006835	-0.002499	0.006886	-0.973389	0.066406	-0.603271	6.047420	28.349912	54.424883
08106		-4.732542	0.881246	8.735809	-0.001696	0.003688	0.003163	-0.973145	0.075195	-0.604248	6.047863	28.352361	54.422490
08107		-4.718644	0.887496	8.766724	-0.005284	-0.001670	0.004539	-0.971191	0.083008	-0.604736	6.047013	28.351911	54.422817
08108		-4.717429	0.911118	8.761384	-0.002976	0.000478	0.004050	-0.966064	0.082275	-0.607178	6.046887	28.352487	54.422722
08109		-4.761800	0.932911	8.738357	-0.002181	-0.000013	-0.000154	-0.968994	0.081787	-0.611084	6.046425	28.353264	54.420124
08110		-4.740132	0.909846	8.752626	-0.003733	-0.000842	0.002192	-0.969482	0.080322	-0.605225	6.045288	28.353341	54.420909
08111		-4.718371	0.886754	8.766947	-0.005284	-0.001670	0.004538	-0.966797	0.070801	-0.603027	6.044437	28.352891	54.421236
08112		-4.717103	0.910400	8.761634	-0.001551	-0.000829	0.002346	-0.968506	0.073242	-0.601807	6.044581	28.352876	54.419622
08113		-4.725900	0.915705	8.783763	-0.003606	0.001294	0.001549	-0.970215	0.078125	-0.605957	6.043869	28.354295	54.418217
08114		-4.725805	0.915250	8.783861	-0.007824	-0.003249	0.000423	-0.971191	0.079346	-0.602783	6.039747	28.352994	54.415027
08115		-4.730920	0.903173	8.730864	-0.000668	0.002627	0.003562	-0.966064	0.079102	-0.603760	6.041380	28.355052	54.415016
08116		-4.716971	0.909463	8.761803	-0.005283	-0.001670	0.004537	-0.966309	0.077393	-0.606689	6.040027	28.354392	54.415624
08117		-4.731867	0.879043	8.736396	-0.004886	-0.001916	0.002435	-0.967773	0.082764	-0.595459	6.038749	28.353930	54.414573
08118		-4.717771	0.885130	8.767434	-0.003732	-0.000842	0.002191	-0.969727	0.075684	-0.606689	6.037584	28.353860	54.413875
08119		-4.707660	0.903297	8.740040	-0.004256	-0.002732	0.004935	-0.959229	0.080078	-0.600586	6.037410	28.352782	54.414386
08120		-4.729040	0.925938	8.725981	-0.004886	-0.001916	0.002434	-0.973877	0.075928	-0.606201	6.035649	28.352174	54.413823
08121		-4.738821	0.907321	8.753598	-0.003732	-0.000842	0.002191	-0.969727	0.072510	-0.601563	6.034993	28.352338	54.412687
08122		-4.730032	0.901623	8.731505	-0.003209	0.001048	-0.000553	-0.967285	0.082275	-0.603760	6.033358	28.353516	54.408433
08123		-4.698546	0.896851	8.718200	-0.005554	0.000710	0.005996	-0.970215	0.078125	-0.603516	6.032878	28.354335	54.409866
08124		-4.738784	0.906445	8.753709	-0.007067	-0.001929	0.002279	-0.972412	0.069092	-0.604980	6.029808	28.353669	54.409314
08125		-4.739777	0.882393	8.759202	-0.001551	-0.000829	0.002345	-0.966553	0.080078	-0.604736	6.030449	28.353831	54.408279
08126		-4.729808	0.900569	8.731736	-0.004759	0.000220	0.001792	-0.970703	0.075439	-0.601563	6.028634	28.354446	54.406016
08127		-4.747389	0.911097	8.776009	-0.004759	0.000220	0.001792	-0.972900	0.074707	-0.608154	6.027301	28.355239	54.404694
08128		-4.699461	0.871680	8.723847	-0.004002	0.001539	0.003650	-0.964844	0.080078	-0.604248	6.026528	28.356461	54.403545
08129		-4.738753	0.905203	8.753854	-0.003605	0.001294	0.001548	-0.971436	0.069336	-0.601563	6.025816	28.357880	54.402139
08130		-4.761503	0.904130	8.745054	-0.001154	-0.001074	0.000243	-0.965820	0.072998	-0.596680	6.025546	28.357829	54.398763
08131		-4.684424	0.901278	8.749421	-0.005553	0.000710	0.005994	-0.964111	0.071045	-0.605225	6.025066	28.358648	54.400196
08132		-4.729831	0.899438	8.731840	-0.000920	-0.001646	0.004844	-0.971680	0.077881	-0.604492	6.026332	28.358004	54.399290
08133		-4.729690	0.899270	8.731934	-0.005516	-0.001099	-0.000067	-0.977051	0.074219	-0.595947	6.023950	28.358157	54.396674
08134		-4.729548	0.898872	8.732052	-0.004886	-0.001916	0.002432	-0.967529	0.079590	-0.601074	6.022156	28.357350	54.393645
08135		-4.738195	0.904062	8.754274	-0.004129	-0.000597	0.004290	-0.964844	0.080566	-0.600098	6.021926	28.357527	54.393885
08136		-4.743279	0.892154	8.701279	-0.004129	-0.000597	0.004290	-0.964844	0.084717	-0.596680	6.021205	28.357477	54.395068
08137		-4.728034	0.921901	8.726953	-0.006670	-0.002173	0.000175	-0.962158	0.071045	-0.607422	6.018202	28.357003	54.392536
08138		-4.738868	0.879392	8.759995	-0.004255	-0.002732	0.004931	-0.970459	0.077881	-0.595703	6.017558	28.355772	54.393922
08139		-4.728605	0.897609	8.732692	-0.002435	-0.004284	0.001126	-0.960938	0.070557	-0.602783	6.017206	28.354039	54.391862
08140		-4.714355	0.903855	8.763791	-0.003498	-0.001414	0.006789	-0.963379	0.082764	-0.596924	6.017596	28.353367	54.392567
08141		-4.749884	0.920217	8.718711	-0.005786	0.001282	0.001393	-0.965820	0.072754	-0.594238	6.015586	28.354789	54.391059
08142		-4.728187	0.897036	8.732977	-0.004255	-0.002732	0.004930	-0.971924	0.085693	-0.601563	6.014910	28.353411	54.391380
08143		-4.722767	0.908542	8.786191	-0.004885	-0.001915	0.002431	-0.970703	0.081055	-0.605713	6.013632	28.352948	54.390326
08144		-4.705014	0.897555	8.742056	-0.003497	-0.001414	0.006788	-0.972656	0.077881	-0.609131	6.014018	28.352273	54.393365
08145		-4.749132	0.919467	8.719200	-0.003858	-0.002977	0.002828	-0.965332	0.082520	-0.604248	6.013416	28.351181	54.392495
08146		-4.744903	0.906992	8.777779	-0.008093	-0.000865	0.001877	-0.968262	0.077881	-0.601563	6.009708	28.351221	54.392268
08147		-4.748708	0.918669	8.719515	-0.005805	-0.003562	0.007272	-0.967041	0.083496	-0.603271	6.009338	28.349530	54.394236
08148		-4.759411	0.876411	8.752590	-0.003227	-0.003795	0.005326	-0.966553	0.077148	-0.601318	6.009369	28.347622	54.395747
08149		-4.726206	0.895507	8.734207	-0.006689	-0.007016	0.006052	-0.964600	0.072998	-0.597656	6.008005	28.344035	54.396690
08150		-4.734459	0.900757	8.756636	-0.003227	-0.003795	0.005325	-0.963623	0.081055	-0.606201	6.008037	28.342111	54.396194
08151		-4.725208	0.895223	8.734776	-0.005535	-0.005942	0.005809	-0.964355	0.076172	-0.603760	6.007295	28.339151	54.397053
08152		-4.724540	0.895023	8.735157	-0.005662	-0.008078	0.006448	-0.964111	0.072021	-0.606689	6.006168	28.334855	54.399227
08153		-4.696498	0.902466	8.663722	-0.003227	-0.003795	0.005324	-0.977783	0.072998	-0.598877	6.006669	28.333148	54.399918
08154		-4.708303	0.924926	8.761343	-0.004508	-0.007004	0.006205	-0.968994	0.082520	-0.612305	6.006142	28.329348	54.398910
08155		-4.700262	0.895614	8.744811	-0.002704	-0.001903	0.002584	-0.972168	0.077637	-0.603271	6.006162	28.328883	54.397957
08156		-4.698915	0.919223	8.739573	-0.005280	-0.001670	0.004529	-0.966064	0.072021	-0.601318	6.004869	28.328320	54.399325
08157		-4.740275	0.905223	8.780462	-0.002972	0.000477	0.004045	-0.970703	0.079346	-0.594971	6.005260	28.329124	54.399480
08158		-4.713928	0.888845	8.714099	-0.003730	-0.000841	0.002187	-0.971436	0.078857	-0.606934	6.004130	28.329005	54.396842
08159		-4.708615	0.900345	8.767237	-0.004126	-0.000596	0.004287	-0.971436	0.074219	-0.598633	6.003900	28.329183	54.397080
08160		-4.731232	0.899371	8.758522	-0.003099	-0.001659	0.004684	-0.967041	0.079102	-0.597900	6.003886	28.328505	54.396619
08161		-4.698406	0.918484	8.739925	-0.003730	-0.000840	0.002186	-0.970459	0.076904	-0.601807	6.003229	28.328669	54.395480
08162		-4.731000	0.898944	8.758691	-0.006307	-0.000607	0.004131	-0.968262	0.077881	-0.603516	6.001236	28.328596	54.395166
08163		-4.721028	0.917049	8.731257	-0.005548	0.000710	0.005989	-0.970459	0.082031	-0.600830	6.000757	28.329415	54.396594
08164		-4.730869	0.898637	8.758794	-0.000918	-0.001648	0.004839	-0.976318	0.076660	-0.600830	6.002045	28.328746	54.397497
08165		-4.711983	0.911403	8.709297	-0.006670	-0.002168	0.000171	-0.967773	0.072021	-0.604736	5.999042	28.328274	54.394963
08166		-4.730537	0.897925	8.759046	-0.005911	-0.000851	0.002030	-0.975830	0.077881	-0.607178	5.996638	28.328215	54.392061
08167		-4.721730	0.892176	8.736968	-0.005152	0.000466	0.003889	-0.961914	0.085205	-0.604736	5.995732	28.329021	54.392113
08168		-4.729282	0.921160	8.753804	-0.004126	-0.000597	0.004285	-0.961914	0.073730	-0.607422	5.995069	28.329073	54.393816
08169		-4.744448	0.890874	8.728235	-0.003207	0.001052	-0.000553	-0.967041	0.084473	-0.598145	5.993932	28.330479	54.391032
08170		-4.707508	0.897678	8.768105	-0.006561	-0.004879	0.005405	-0.972168	0.081055	-0.604492	5.992083	28.328024	54.392558
08171		-4.721173	0.891268	8.737362	-0.003494	-0.001416	0.006782	-0.970459	0.076660	-0.610596	5.992955	28.327585	54.394355
08172		-4.720986	0.891218	8.737468	-0.002703	-0.001903	0.002582	-0.963867	0.080078	-0.593506	5.992549	28.327001	54.394024
08173		-4.720893	0.890995	8.737540	-0.004757	0.000223	0.001788	-0.970703	0.079346	-0.599854	5.991217	28.327794	54.392700
08174		-4.728388	0.919768	8.754434	-0.007065	-0.001924	0.002269	-0.973877	0.072754	-0.609619	5.988174	28.327030	54.391124
08175		-4.743419	0.889291	8.728955	-0.006306	-0.000607	0.004128	-0.972900	0.078857	-0.599365	5.986646	28.327210	54.391258
08176		-4.729283	0.895336	8.759988	-0.003098	-0.001660	0.004681	-0.972412	0.088867	-0.604736	5.986653	28.326551	54.390665
08177		-4.711579	0.884425	8.715819	-0.005674	-0.001426	0.006624	-0.976074	0.076904	-0.601074	5.986227	28.326115	54.392360
08178		-4.719117	0.913241	8.732688	-0.004993	0.000799	-0.002809	-0.965820	0.076416	-0.603760	5.982909	28.327240	54.388918
08179		-4.720346	0.889061	8.738033	-0.005546	0.000709	0.005986	-0.968506	0.070801	-0.608643	5.982429	28.328060	54.390344
08180		-4.751774	0.893386	8.751448	-0.005279	-0.001670	0.004524	-0.967041	0.073975	-0.598877	5.981174	28.327543	54.389859
08181		-4.697312	0.889530	8.747017	-0.003098	-0.001660	0.004680	-0.968750	0.076172	-0.601807	5.981619	28.327091	54.390279
08182		-4.751399	0.893057	8.751685	-0.004884	-0.001913	0.002424	-0.972656	0.076416	-0.609863	5.979905	28.326412	54.387887
08183		-4.728453	0.893618	8.760612	-0.005279	-0.001670	0.004523	-0.970703	0.081055	-0.604980	5.979052	28.325963	54.388205
08184		-4.728361	0.893328	8.760691	-0.004756	0.000223	0.001787	-0.967773	0.075928	-0.606201	5.977304	28.326638	54.387328
08185		-4.719560	0.887659	8.738600	-0.003730	-0.000840	0.002183	-0.973145	0.080322	-0.607910	5.976647	28.326802	54.386187
08186		-4.736788	0.898168	8.783068	-0.006561	-0.004879	0.005399	-0.967041	0.073242	-0.607422	5.974814	28.324364	54.387243
08187		-4.717760	0.911036	8.733652	-0.000128	-0.002136	0.000637	-0.968994	0.072998	-0.601563	5.975704	28.323881	54.385013
08188		-4.718755	0.887058	8.739096	-0.007853	-0.001437	0.006465	-0.964111	0.079102	-0.606689	5.973573	28.323331	54.385284
08189		-4.726089	0.915918	8.756079	-0.003463	-0.003219	0.000720	-0.979248	0.073975	-0.603516	5.972543	28.322226	54.383035
08190		-4.718185	0.886451	8.739465	-0.005011	-0.004049	0.003059	-0.967041	0.074219	-0.609863	5.970899	28.320341	54.381676
08191		-4.726557	0.891576	8.761842	-0.005406	-0.003806	0.005158	-0.967773	0.083008	-0.608398	5.970100	28.318638	54.382260
08192		-4.733741	0.920629	8.778888	-0.003225	-0.003796	0.005314	-0.973877	0.073730	-0.601563	5.970212	28.316917	54.384184
08193		-4.707017	0.904384	8.712714	-0.005928	-0.005700	0.007892	-0.965088	0.077393	-0.607910	5.969892	28.313971	54.386410
08194		-4.724183	0.915102	8.757193	-0.001943	-0.000587	0.004438	-0.968994	0.083984	-0.601807	5.970552	28.314005	54.386094
08195		-4.725137	0.891109	8.762656	-0.007586	-0.003815	0.005000	-0.959717	0.083008	-0.614014	5.968455	28.312306	54.386575
08196		-4.730216	0.879073	8.709717	-0.003966	-0.000261	-0.002412	-0.964600	0.069824	-0.603760	5.965885	28.313067	54.385473
08197		-4.723615	0.914194	8.757594	-0.004646	-0.002491	0.007016	-0.968506	0.079834	-0.611328	5.966134	28.312003	54.387349
08198		-4.701712	0.891031	8.771892	-0.005011	-0.004049	0.003057	-0.969238	0.079590	-0.611572	5.964528	28.310256	54.386338
08199		-4.732692	0.895360	8.785562	-0.004113	-0.007248	0.004088	-0.970215	0.069092	-0.608398	5.964031	28.306655	54.385998
08200		-4.690771	0.908964	8.745019	-0.006431	-0.002742	0.004759	-0.974854	0.081787	-0.606445	5.962179	28.305559	54.386263
08201		-4.722040	0.913398	8.758526	-0.000522	-0.001894	0.002734	-0.965820	0.078125	-0.604004	5.963496	28.305090	54.385408
08202		-4.744566	0.912290	8.749901	-0.007823	-0.003236	0.000404	-0.960938	0.082031	-0.609375	5.959463	28.303836	54.383765
08203		-4.744329	0.911965	8.750063	-0.003490	-0.001418	0.006775	-0.967285	0.084229	-0.606201	5.960334	28.303398	54.385557
08204		-4.713930	0.883575	8.742052	-0.002968	0.000476	0.004041	-0.975830	0.078125	-0.603760	5.960349	28.304191	54.388328
08205		-4.721429	0.912574	8.758942	-0.003335	-0.001082	0.000082	-0.965576	0.086182	-0.604980	5.959266	28.304343	54.385811
08206		-4.735409	0.906107	8.728058	-0.005148	0.000467	0.003884	-0.969971	0.077881	-0.601807	5.957949	28.304960	54.387256
08207		-4.722442	0.888292	8.764394	-0.004251	-0.002733	0.004914	-0.973633	0.082520	-0.591797	5.957771	28.303883	54.387756
08208		-4.730993	0.893485	8.786668	-0.003728	-0.000839	0.002181	-0.970703	0.078125	-0.605469	5.956670	28.303671	54.385725
08209		-4.743585	0.910908	8.750577	-0.005798	-0.003564	0.007251	-0.964111	0.077393	-0.602539	5.956296	28.301981	54.387681
08210		-4.721879	0.887547	8.764773	-0.004993	0.000804	-0.002808	-0.973877	0.074951	-0.602783	5.953045	28.303247	54.383249
08211		-4.721833	0.887335	8.764820	-0.000916	-0.001652	0.004832	-0.969238	0.076904	-0.605713	5.954787	28.302791	54.383768
08212		-4.721646	0.887285	8.764926	-0.005276	-0.001670	0.004518	-0.969238	0.080811	-0.598877	5.953535	28.302158	54.383412
08213		-4.679923	0.901038	8.724261	-0.003618	-0.003555	0.007407	-0.975586	0.081543	-0.603271	5.954458	28.300465	54.385470
08214		-4.741487	0.933982	8.745840	-0.001548	-0.000830	0.002337	-0.968994	0.076660	-0.605469	5.954678	28.300343	54.384799
08215		-4.698124	0.887822	8.774140	-0.005011	-0.004048	0.003053	-0.973145	0.081543	-0.591797	5.953451	28.298627	54.384005
08216		-4.719401	0.910550	8.760245	-0.005276	-0.001669	0.004517	-0.967529	0.067383	-0.603027	5.952176	28.297870	54.383515
08217		-4.711591	0.881237	8.743549	-0.003224	-0.003797	0.005308	-0.968994	0.074707	-0.610352	5.952673	28.296163	54.384198
08218		-4.726405	0.939455	8.777418	-0.003728	-0.000839	0.002180	-0.971191	0.076904	-0.596680	5.951652	28.296267	54.381290
08219		-4.742618	0.885555	8.757209	-0.003224	-0.003797	0.005307	-0.973633	0.077393	-0.597900	5.952149	28.294560	54.381973
08220		-4.719567	0.886210	8.766154	-0.005275	-0.001669	0.004516	-0.972656	0.076904	-0.602295	5.950871	28.293760	54.380672
08221		-4.709394	0.904581	8.738836	-0.002463	-0.002483	0.007166	-0.972656	0.080322	-0.595947	5.952416	28.292692	54.382646
08222		-4.717888	0.909986	8.761118	-0.003095	-0.001661	0.004673	-0.964111	0.081055	-0.601807	5.952444	28.291928	54.382244
08223		-4.687369	0.881640	8.753147	-0.002463	-0.002483	0.007166	-0.972412	0.077148	-0.598389	5.953989	28.290860	54.384218
08224		-4.718680	0.886200	8.766632	-0.004121	-0.000597	0.004277	-0.979248	0.081299	-0.605713	5.953362	28.290816	54.384263
08225		-4.709911	0.880849	8.744493	-0.001179	0.000725	0.006294	-0.973633	0.081055	-0.600586	5.955477	28.291628	54.385889
08226		-4.717477	0.910028	8.761335	-0.003992	0.001540	0.003643	-0.971924	0.083496	-0.608154	5.954786	28.292785	54.386195
08227		-4.718650	0.886078	8.766661	-0.002702	-0.001903	0.002574	-0.972900	0.082764	-0.606689	5.954804	28.292320	54.385236
08228		-4.749955	0.890414	8.780173	-0.004489	-0.002152	0.000319	-0.972412	0.085449	-0.613037	5.952721	28.291726	54.384744
08229		-4.708376	0.904131	8.739432	-0.002334	-0.000347	0.006531	-0.974609	0.079834	-0.601318	5.954214	28.291912	54.386452
08230		-4.708285	0.904071	8.739487	-0.003728	-0.000838	0.002178	-0.973145	0.083252	-0.600342	5.953178	28.291935	54.387162
08231		-4.708193	0.903880	8.739556	-0.004120	-0.000597	0.004276	-0.967529	0.078369	-0.608887	5.952947	28.292114	54.387393
08232		-4.709275	0.879971	8.744924	-0.003095	-0.001661	0.004671	-0.967041	0.076172	-0.604492	5.953014	28.291511	54.388706
08233		-4.717909	0.885177	8.767150	-0.005146	0.000468	0.003880	-0.972656	0.077637	-0.603760	5.952108	28.292319	54.388753
08234		-4.717768	0.884908	8.767253	-0.003464	-0.003216	0.000713	-0.976318	0.077637	-0.597168	5.950705	28.291070	54.386024
08235		-4.716310	0.908386	8.762134	-0.007847	-0.001435	0.006453	-0.967773	0.075928	-0.599609	5.948980	28.290641	54.387608
08236		-4.707497	0.902798	8.740043	-0.002966	0.000475	0.004038	-0.968506	0.068115	-0.608887	5.948969	28.291133	54.386132
08237		-4.717305	0.884118	8.767582	-0.006036	-0.002982	0.002653	-0.973877	0.080811	-0.605225	5.947066	28.290048	54.385152
08238		-4.728666	0.925238	8.726258	-0.004882	-0.001910	0.002415	-0.967773	0.068604	-0.603027	5.945431	28.289497	54.383379
08239		-4.715750	0.907142	8.762564	-0.006932	0.000219	0.001625	-0.965332	0.075195	-0.601074	5.942802	28.290298	54.381949
08240		-4.739703	0.882089	8.759136	-0.005907	-0.000845	0.002020	-0.969727	0.075439	-0.601563	5.940488	28.290335	54.378394
08241		-4.692844	0.907012	8.771504	-0.005907	-0.000845	0.002019	-0.962402	0.083496	-0.599609	5.938534	28.290505	54.377148
08242		-4.729571	0.899466	8.731909	-0.009874	-0.001101	-0.000394	-0.973877	0.073242	-0.597656	5.933185	28.290496	54.374417
08243		-4.746871	0.909478	8.776389	-0.007061	-0.001917	0.002256	-0.964111	0.081787	-0.604736	5.930607	28.290041	54.373251
08244		-4.707701	0.875351	8.746235	-0.005274	-0.001669	0.004511	-0.966064	0.081299	-0.598877	5.929380	28.289394	54.372942
08245		-4.674842	0.893975	8.727711	-0.009481	-0.001342	-0.002492	-0.977051	0.082520	-0.598877	5.923978	28.289548	54.368742
08246		-4.713682	0.926859	8.758178	-0.008848	-0.002165	-0.000000	-0.973633	0.080078	-0.593750	5.919280	28.288784	54.366366
08247		-4.716091	0.878601	8.768790	-0.005385	0.001050	-0.000711	-0.960449	0.070313	-0.601318	5.916848	28.290195	54.363480
08248		-4.723731	0.907228	8.785673	-0.006802	0.002356	0.000991	-0.972412	0.079102	-0.601074	5.913789	28.292003	54.359998
08249		-4.715063	0.901364	8.763530	-0.005514	-0.001086	-0.000080	-0.963867	0.075439	-0.608154	5.911408	28.292159	54.357376
08250		-4.729214	0.894687	8.732594	-0.007827	0.003421	0.000596	-0.976318	0.083740	-0.602051	5.907704	28.294740	54.355459
08251		-4.705460	0.918526	8.736056	-0.008589	0.002108	-0.001265	-0.973633	0.074463	-0.606201	5.903298	28.296786	54.352284
08252		-4.706884	0.893905	8.741287	-0.008589	0.002108	-0.001266	-0.977783	0.077637	-0.603027	5.898522	28.298609	54.348988
08253		-4.715948	0.898532	8.763345	-0.008090	0.005798	0.002061	-0.967529	0.071533	-0.599365	5.895539	28.302561	54.348213
08254		-4.721614	0.886357	8.710122	-0.008196	0.001868	-0.003364	-0.971191	0.087402	-0.606689	5.890337	28.304345	54.341915
08255		-4.739303	0.896162	8.754418	-0.010006	0.003414	0.000435	-0.970459	0.083984	-0.608887	5.885682	28.307035	54.339927
08256		-4.710464	0.843085	8.751494	-0.009743	0.001037	-0.001032	-0.966064	0.071289	-0.601563	5.880306	28.308364	54.339540
08257		-4.753694	0.888241	8.723470	-0.010768	0.002102	-0.001427	-0.974121	0.081055	-0.604492	5.874601	28.310415	54.336258
08258		-4.716934	0.894070	8.763271	-0.012444	-0.000868	0.001536	-0.968018	0.081299	-0.609619	5.868397	28.310427	54.333872
08259		-4.732162	0.862909	8.737709	-0.014470	-0.000529	-0.005311	-0.971436	0.073242	-0.603760	5.859295	28.311205	54.327900
08260		-4.753606	0.884627	8.723886	-0.009847	-0.002891	-0.006459	-0.966553	0.083008	-0.603027	5.852078	28.310619	54.321104
08261		-4.735873	0.872868	8.679808	-0.013727	-0.004078	0.002400	-0.966309	0.081543	-0.603271	5.845658	28.308922	54.319889
08262		-4.730075	0.883117	8.733305	-0.013070	-0.006693	-0.001165	-0.969482	0.075684	-0.605225	5.838089	28.305818	54.317571
08263		-4.705459	0.906610	8.737301	-0.012830	-0.007280	0.003423	-0.967041	0.079590	-0.603516	5.832396	28.302237	54.316807
08264		-4.728741	0.881135	8.734228	-0.011805	-0.008345	0.003817	-0.968262	0.079346	-0.601807	5.827040	28.297914	54.316146
08265		-4.668910	0.971709	8.709173	-0.011283	-0.006447	0.001089	-0.967529	0.076172	-0.604492	5.821544	28.294943	54.313927
08266		-4.692288	0.945904	8.706088	-0.016010	-0.008010	-0.003192	-0.972168	0.080811	-0.613770	5.811640	28.291198	54.308612
08267		-4.670216	0.921454	8.720498	-0.012940	-0.004555	-0.001800	-0.973877	0.078369	-0.605469	5.804369	28.289473	54.304649
08268		-4.637220	0.939929	8.702111	-0.004487	-0.002151	0.000309	-0.971924	0.085205	-0.600342	5.802344	28.288937	54.303353
08269		-4.702790	0.901027	8.739316	-0.006302	0.006042	0.004319	-0.974121	0.078369	-0.605469	5.801083	28.292897	54.304048
08270		-4.703229	0.900899	8.739093	-0.000526	0.004752	0.002936	-0.975098	0.076660	-0.612061	5.802320	28.295979	54.304608
08271		-4.699812	0.800376	8.737518	-0.003490	0.005222	0.006970	-0.969482	0.068604	-0.605469	5.803458	28.299318	54.306966
08272		-4.716492	0.746856	8.716872	-0.003508	0.000358	0.012817	-0.965576	0.088379	-0.601807	5.805922	28.299487	54.311746
08273		-4.670682	0.921161	8.720279	0.004036	-0.005551	0.019538	-0.975830	0.075928	-0.603027	5.814893	28.295956	54.321530
08274		-4.657360	0.816589	8.697055	0.000031	-0.008878	0.029019	-0.968262	0.080322	-0.606445	5.824028	28.289770	54.338089
08275		-4.667595	0.776145	8.729991	0.012082	-0.007776	0.029581	-0.968262	0.077393	-0.605225	5.840618	28.284383	54.354225
08276		-4.694418	0.854886	8.728018	0.012305	-0.006576	0.040215	-0.961182	0.079834	-0.606934	5.860309	28.278976	54.377625
08277		-4.725311	0.862438	8.741462	0.014244	0.000669	0.035991	-0.977783	0.082764	-0.606201	5.880364	28.278017	54.398466
08278		-4.728825	0.794252	8.756953	0.018847	0.000092	0.040887	-0.973877	0.086182	-0.605225	5.904213	28.276351	54.423495
08279		-4.742588	0.792038	8.725833	0.022817	0.000342	0.043290	-0.974365	0.082275	-0.600098	5.931406	28.274759	54.449036
08280		-4.709139	0.903373	8.766508	0.023084	0.004617	0.042020	-0.969971	0.080078	-0.608643	5.958133	28.275414	54.475234
08281		-4.750715	0.977159	8.732936	0.019769	0.001752	0.036039	-0.965820	0.077393	-0.603271	5.981400	28.275038	54.496177
08282		-4.751970	0.955902	8.737915	0.008537	0.003252	0.019402	-0.964355	0.078613	-0.611084	5.992860	28.276435	54.506202
08283		-4.765816	0.951127	8.706966	0.001618	-0.004960	0.014766	-0.966797	0.080811	-0.602539	5.998992	28.273499	54.512925
08284		-4.791484	0.879096	8.714479	-0.012739	-0.016627	0.008427	-0.971191	0.080566	-0.601807	5.994271	28.264276	54.514840
08285		-4.780557	0.872989	8.693608	-0.014041	-0.033135	0.008872	-0.969482	0.083008	-0.596191	5.988718	28.245638	54.515836
08286		-4.764181	0.854375	8.731821	-0.015598	-0.047265	0.010774	-0.970459	0.084229	-0.601807	5.982045	28.218568	54.516504
08287		-4.739467	0.806743	8.753563	-0.012788	-0.054739	0.013193	-0.970947	0.080811	-0.601074	5.977839	28.187361	54.518833
08288		-4.715066	0.907707	8.766308	-0.008556	-0.056869	0.014118	-0.974365	0.074463	-0.603516	5.975927	28.154705	54.521810
08289		-4.612161	0.945648	8.851643	-0.003161	-0.051280	0.015022	-0.973145	0.076660	-0.609375	5.977903	28.125361	54.525556
08290		-4.602414	0.893418	8.841768	0.004946	-0.030493	0.013803	-0.975098	0.083496	-0.600342	5.984501	28.107877	54.528955
08291		-4.646122	0.893234	8.825248	0.009853	-0.010433	0.005999	-0.975830	0.083008	-0.608398	5.992486	28.102347	54.529632
08292		-4.643203	0.858490	8.888662	0.015772	0.012141	0.010679	-0.971436	0.078613	-0.599365	6.005675	28.109262	54.536044
08293		-4.663571	0.867131	8.798176	0.022469	0.034234	0.011164	-0.967285	0.082520	-0.606934	6.023893	28.128873	54.543096
08294		-4.671617	0.946376	8.802608	0.023132	0.044917	0.008022	-0.971191	0.082764	-0.606445	6.041562	28.154676	54.548832
08295		-4.640301	1.015245	8.770983	0.020974	0.049775	0.002022	-0.977539	0.076660	-0.599854	6.056649	28.183690	54.551057
08296		-4.676337	1.021248	8.781858	0.013832	0.053661	-0.012823	-0.969727	0.076904	-0.595215	6.062905	28.215622	54.543718
08297		-4.714355	1.002451	8.797720	0.011177	0.061479	-0.021947	-0.969482	0.075928	-0.601074	6.065434	28.252756	54.531256
08298		-4.597747	1.000438	8.816147	0.014920	0.068962	-0.023937	-0.967773	0.078369	-0.602051	6.069393	28.293997	54.515611
08299		-4.650726	0.999199	8.794693	0.014985	0.093775	-0.029206	-0.971436	0.074951	-0.598389	6.072910	28.349972	54.500669
08300		-4.676073	1.033827	8.828862	0.020690	0.108498	-0.035457	-0.969727	0.076904	-0.605225	6.077904	28.414434	54.480890
08301		-4.689535	1.069884	8.759465	0.019111	0.128555	-0.043879	-0.967529	0.075684	-0.601563	6.080363	28.491116	54.458829
08302		-4.728541	0.996807	8.759909	0.012808	0.140400	-0.056804	-0.968018	0.080811	-0.606934	6.075242	28.575065	54.427845
08303		-4.713151	0.943101	8.750057	0.018149	0.155376	-0.061058	-0.967529	0.087891	-0.609375	6.072619	28.668067	54.396444
08304		-4.698117	0.830056	8.808366	0.024984	0.174779	-0.055593	-0.965088	0.083252	-0.599854	6.075879	28.771541	54.371903
08305		-4.688658	0.730514	8.807270	0.036814	0.200030	-0.047179	-0.959473	0.072510	-0.603516	6.089673	28.889146	54.352577
08306		-4.773158	0.777955	8.759278	0.052561	0.227345	-0.030365	-0.958496	0.075439	-0.611572	6.118324	29.020850	54.345034
08307		-4.805490	0.910926	8.765219	0.053966	0.243886	-0.031229	-0.954346	0.073975	-0.607910	6.148451	29.162477	54.339248
08308		-4.916534	0.934864	8.711046	0.053529	0.248673	-0.028660	-0.965576	0.070557	-0.601563	6.179002	29.306382	54.334718
08309		-4.927906	0.956065	8.671094	0.048591	0.245564	-0.037218	-0.960205	0.072754	-0.614746	6.204235	29.449340	54.325286
08310		-4.925442	0.982622	8.662578	0.040101	0.241038	-0.039012	-0.954102	0.071533	-0.608887	6.223480	29.589222	54.311707
08311		-5.000860	0.987408	8.653808	0.033269	0.235532	-0.049162	-0.948242	0.072998	-0.612305	6.235707	29.727213	54.293810
08312		-4.886570	0.880342	8.643932	0.029149	0.237676	-0.050477	-0.946289	0.075439	-0.612549	6.244816	29.866018	54.274104
08313		-4.979715	0.918633	8.673347	0.025791	0.247798	-0.049864	-0.951660	0.073730	-0.615234	6.252894	30.011045	54.256632
08314		-4.996518	1.013040	8.639360	0.021769	0.250847	-0.062530	-0.945068	0.072021	-0.617188	6.254182	30.158114	54.231076
08315		-5.012436	0.957960	8.615243	0.010089	0.259448	-0.075471	-0.943604	0.069824	-0.617676	6.245083	30.311372	54.197515
08316		-5.021735	0.984458	8.627967	-0.001687	0.269858	-0.082443	-0.939697	0.076904	-0.627930	6.226817	30.470609	54.159534
08317		-5.013066	0.999222	8.596610	0.001507	0.281506	-0.097362	-0.940918	0.074463	-0.612061	6.205978	30.637772	54.112869
08318		-4.868989	0.930613	8.563642	0.004048	0.305167	-0.114105	-0.937256	0.073242	-0.613281	6.181269	30.819146	54.056935
08319		-4.913404	0.971308	8.639011	0.004527	0.348822	-0.131080	-0.931396	0.078369	-0.621582	6.152700	31.026697	53.992363
08320		-4.900371	0.818983	8.650359	0.008290	0.402073	-0.142304	-0.927002	0.061768	-0.617676	6.123737	31.265020	53.923647
08321		-4.768642	0.678291	8.740376	0.010960	0.468853	-0.142949	-0.930176	0.068848	-0.615967	6.098437	31.541621	53.859166
08322		-4.636887	0.681571	8.796108	0.027788	0.561992	-0.147022	-0.912109	0.069580	-0.622314	6.084074	31.871282	53.798032
08323		-4.715363	0.836426	8.799682	0.045894	0.677476	-0.161513	-0.917236	0.068359	-0.626221	6.079124	32.267842	53.735380
08324		-4.738910	0.811620	8.790138	0.060448	0.803451	-0.174492	-0.906738	0.071533	-0.628418	6.081784	32.736687	53.672440
08325		-4.746361	0.676569	8.843812	0.075940	0.925512	-0.176397	-0.902588	0.062256	-0.626221	6.097149	33.275472	53.617063
08326		-4.728477	0.646795	8.913189	0.101379	1.072109	-0.162994	-0.889160	0.070557	-0.627930	6.137266	33.896656	53.581234
08327		-4.742752	0.702063	8.890579	0.127308	1.242073	-0.155792	-0.883057	0.063721	-0.624512	6.202385	34.614561	53.563746
08328		-4.824263	0.697957	9.018815	0.144174	1.418109	-0.151777	-0.874756	0.064941	-0.645264	6.286468	35.432117	53.563083
08329		-4.769604	0.656575	9.005940	0.147133	1.613498	-0.144730	-0.859131	0.073975	-0.641357	6.385393	36.360873	53.584576
08330		-4.861580	1.058834	8.912873	0.162165	1.815131	-0.143874	-0.846680	0.055420	-0.645752	6.504426	37.403880	53.624979
08331		-4.866402	0.940843	8.980442	0.140075	2.031949	-0.161856	-0.832031	0.061768	-0.647949	6.616929	38.571865	53.674081
08332		-4.948541	0.930681	9.066478	0.118760	2.261815	-0.164029	-0.807861	0.056641	-0.649170	6.731556	39.870180	53.744742
08333		-5.108858	1.551876	9.054422	0.047254	2.498479	-0.197176	-0.787354	0.055420	-0.646484	6.807232	41.305842	53.816331
08334		-5.305104	1.892137	8.942788	-0.068796	2.745099	-0.277904	-0.766357	0.060303	-0.656250	6.792862	42.886596	53.850793
08335		-5.598070	2.019229	8.815256	-0.229754	2.991792	-0.391385	-0.742188	0.053955	-0.659424	6.639857	44.616029	53.816994
08336		-5.596437	1.933906	8.366285	-0.396928	3.232121	-0.531537	-0.720947	0.058838	-0.665039	6.316348	46.490437	53.679606
08337		-5.819715	2.261384	8.096272	-0.551031	3.490273	-0.698148	-0.685303	0.069580	-0.666260	5.796310	48.522035	53.399856
08338		-6.161335	2.420828	7.792267	-0.710093	3.780022	-0.889488	-0.648926	0.073730	-0.669434	5.032199	50.726103	52.928258
08339		-6.694166	2.321533	7.734642	-0.852164	4.097171	-1.082299	-0.623047	0.073730	-0.666748	3.989619	53.115855	52.221734
08340		-7.497591	1.866485	7.814192	-0.992366	4.450469	-1.276431	-0.584473	0.091553	-0.666016	2.604338	55.703343	51.215057
08341		-9.282497	0.952372	8.197447	-1.070635	4.795854	-1.368539	-0.550049	0.096924	-0.665039	0.908238	58.474658	49.923557
08342		-11.427088	0.189623	8.661895	-1.016849	5.015383	-1.312537	-0.494385	0.107178	-0.659912	-0.977448	61.347422	48.415480
08343		-15.752644	-0.732262	9.692807	-0.726898	4.991179	-1.141680	-0.463135	0.115479	-0.647705	-2.852711	64.184426	46.773179
08344		-15.178779	-0.658510	9.347560	-0.401389	4.765540	-1.023120	-0.419922	0.116455	-0.640625	-4.769621	66.869378	44.917671
08345		-13.396699	-0.648077	9.045127	0.008176	4.667333	-0.820282	-0.373047	0.124023	-0.637939	-6.598432	69.484548	42.941002
08346		-13.916417	0.735619	10.001945	0.307833	4.530908	-0.724352	-0.345703	0.114014	-0.607910	-8.585819	72.002335	40.646926
08347		-12.103591	1.469106	10.283383	0.124667	4.401589	-0.914063	-0.319580	0.119141	-0.597168	-11.699081	74.393735	37.318897
08348		-10.229389	1.917435	10.735211	-0.132978	4.364668	-1.103912	-0.280762	0.121826	-0.583252	-16.521448	76.665253	32.415648
08349		-8.598037	1.014792	9.969791	-0.209072	4.356151	-1.206852	-0.253418	0.125977	-0.571533	-23.570469	78.776628	25.323751
08350		-6.835600	0.149930	8.627199	0.007295	4.497266	-1.200796	-0.224121	0.136475	-0.549316	-33.752515	80.713098	14.971599
08351		-7.760450	-0.229538	9.075815	0.495170	4.552166	-1.071782	-0.189697	0.134033	-0.531738	-48.062432	82.294079	0.217099
08352		-7.495252	0.224985	8.696039	0.866280	4.297243	-1.109467	-0.161865	0.132568	-0.505371	-66.489795	83.098665	-18.861292
08353		-4.473111	0.750579	9.228813	1.017496	3.594752	-1.304942	-0.129883	0.125244	-0.490479	-83.762059	82.900263	-36.850545
08354		-14.060825	-1.497753	13.564633	1.588068	2.351079	-1.215559	-0.123535	0.124023	-0.469971	-93.304444	82.233910	-47.394131
08355		-16.457902	3.120232	18.887750	2.263117	0.429674	-0.825611	-0.111328	0.118896	-0.470459	-93.553761	81.744663	-48.957386
08356		-11.885951	6.076835	15.718037	2.126916	-1.038454	-0.626230	-0.123779	0.111328	-0.481201	-88.256485	81.393726	-44.838085
08357		-7.424058	6.718622	12.200195	1.645851	-2.077604	-0.521245	-0.126709	0.088135	-0.478271	-79.877517	80.970533	-37.315566
08358		-4.345692	5.920920	9.449943	1.127392	-2.730634	-0.402507	-0.142090	0.094727	-0.495605	-70.366379	80.342144	-28.336119
08359		-2.736502	4.538948	7.777322	0.732271	-3.062177	-0.242168	-0.167725	0.084229	-0.511475	-61.262605	79.492432	-19.518543
08360		-1.490469	3.174972	6.589448	0.524802	-3.155086	-0.021381	-0.173584	0.083008	-0.521240	-53.153478	78.497830	-11.569275
08361		-0.632997	2.207503	5.813627	0.480047	-3.103094	0.241448	-0.192627	0.079834	-0.543701	-46.102237	77.448298	-4.643748
08362		-0.615168	1.859189	5.752904	0.519621	-3.011625	0.471693	-0.208008	0.073975	-0.549805	-39.876291	76.365070	1.437169
08363		-1.500471	1.542902	6.277684	0.585807	-3.000522	0.653299	-0.231934	0.070313	-0.576416	-34.272189	75.216874	6.869266
08364		-2.366936	1.134948	6.901404	0.673527	-3.101668	0.811116	-0.247559	0.059570	-0.579346	-29.055850	73.942510	11.874315
08365		-2.962344	0.752948	7.293830	0.796997	-3.270905	0.976737	-0.267090	0.047363	-0.603760	-24.157636	72.515854	16.510465
08366		-3.365132	0.736670	7.525363	0.902430	-3.468834	1.106058	-0.287354	0.038818	-0.618164	-19.610043	70.901526	20.749371
08367		-3.618149	0.840383	7.463808	0.946493	-3.654786	1.199367	-0.316650	0.027832	-0.633789	-15.532958	69.111561	24.508017
08368		-3.825776	0.838119	7.366044	0.939417	-3.797511	1.288142	-0.351563	0.018066	-0.657227	-11.913604	67.166480	27.821469
08369		-4.134862	0.913227	7.569321	0.904209	-3.907433	1.367415	-0.379395	0.003418	-0.667236	-8.748331	65.103990	30.713296
08370		-4.725094	0.920414	7.849796	0.841610	-3.989116	1.454823	-0.420898	-0.003418	-0.680908	-5.963493	62.937340	33.268182
08371		-5.534343	0.960799	8.270052	0.777034	-4.095136	1.541015	-0.462891	-0.025879	-0.697754	-3.517027	60.671932	35.535995
08372		-6.146264	0.881099	8.483768	0.732877	-4.207524	1.645726	-0.501221	-0.036865	-0.707031	-1.321720	58.296407	37.590038
08373		-6.579076	0.775278	8.555251	0.732699	-4.306820	1.760163	-0.546387	-0.032959	-0.717529	0.675324	55.834739	39.466303
08374		-7.033966	0.715069	8.736798	0.775404	-4.368249	1.888931	-0.598633	-0.047852	-0.721436	2.544751	53.295616	41.208375
08375		-7.727049	0.755209	8.957823	0.850147	-4.418384	2.013409	-0.642090	-0.063721	-0.724365	4.311431	50.700068	42.829093
08376		-8.551883	1.100376	9.256424	0.915528	-4.443482	2.144381	-0.695313	-0.057617	-0.707764	5.998769	48.047095	44.353819
08377		-9.876175	1.743114	9.537513	0.922733	-4.463720	2.278056	-0.742676	-0.066650	-0.713135	7.581984	45.353813	45.799423
08378		-11.511586	2.281327	9.567271	0.816611	-4.489759	2.461857	-0.798584	-0.066650	-0.705566	9.040487	42.597564	47.218521
08379		-13.021690	2.998726	9.472085	0.609470	-4.493482	2.708466	-0.839600	-0.061523	-0.683838	10.349653	39.799152	48.672287
08380		-15.110279	3.831145	9.359371	0.220754	-4.470364	2.950755	-0.886475	-0.063232	-0.673584	11.410582	36.957972	50.169555
08381		-17.826495	4.094661	8.938634	-0.341093	-4.430781	3.130175	-0.931152	-0.041748	-0.666260	12.100422	34.107966	51.688887
08382		-19.883676	3.151317	7.850834	-0.924922	-4.340230	3.214751	-0.971436	-0.026367	-0.649414	12.389438	31.280800	53.197127
08383		-21.289474	1.571533	6.166370	-1.358142	-4.161984	3.161058	-1.011475	-0.002441	-0.630615	12.336466	28.564547	54.646737
08384		-21.674116	-0.118744	4.212219	-1.560145	-3.892101	2.984478	-1.055176	0.023682	-0.618896	12.063637	26.018081	55.993343
08385		-20.738288	-1.027847	2.333772	-1.575236	-3.552726	2.720899	-1.081299	0.041992	-0.600586	11.675013	23.706311	57.210954
08386		-19.466493	-1.304612	0.996809	-1.485379	-3.147632	2.350883	-1.112793	0.071289	-0.593994	11.227839	21.666954	58.250126
08387		-18.390354	-1.322431	0.388818	-1.329359	-2.721134	1.873887	-1.134033	0.081787	-0.583740	10.754786	19.932693	59.057282
08388		-17.933569	-1.491537	0.243174	-1.105392	-2.344365	1.320250	-1.157227	0.104004	-0.564941	10.296630	18.470561	59.581651
08389		-16.712053	-2.046007	0.104645	-0.772525	-1.985724	0.714976	-1.170166	0.102051	-0.555908	9.920987	17.279511	59.793327
08390		-14.101527	-3.676665	-0.994064	-0.245721	-1.637873	0.230978	-1.187012	0.106201	-0.547607	9.772710	16.329921	59.758812
08391		-12.539907	-5.079594	-3.354568	0.063078	-0.167265	-0.166119	-1.186035	0.105957	-0.541504	9.778078	16.252547	59.641908
08392		-13.115016	-2.210129	-6.580835	0.360141	0.572550	-0.500911	-1.192139	0.110107	-0.544189	9.918931	16.623327	59.402658
08393		-15.984841	-1.217602	-6.907563	0.077445	1.424991	-0.770366	-1.170898	0.097900	-0.559082	9.874272	17.504416	59.092369
08394		-17.556659	-1.634500	-8.660659	-0.243887	2.297710	-0.835517	-1.156738	0.111328	-0.566406	9.654137	18.882469	58.828100
08395		-7.541875	-3.459104	-5.759752	-0.547761	3.124330	-0.793674	-1.134277	0.106445	-0.590820	9.286052	20.723899	58.662133
08396		-5.186209	0.529016	10.775828	-0.461204	3.617082	-0.583432	-1.113525	0.114502	-0.606934	9.022698	22.823412	58.659263
08397		-13.428219	0.992629	21.513227	-0.488943	3.605638	-0.694338	-1.090820	0.102783	-0.627686	8.710545	24.926796	58.575276
08398		-21.248560	-2.559825	21.686300	-0.586078	2.938363	-0.977512	-1.063477	0.115479	-0.632080	8.227512	26.674885	58.232734
08399		-31.184822	6.755760	21.114283	-1.045397	1.355228	-0.800046	-1.065186	0.117920	-0.640381	7.451324	27.507477	57.839192
08400		-5.579834	4.039115	9.135006	-0.338552	0.016805	-0.188242	-1.060791	0.123535	-0.644775	7.202836	27.531986	57.717446
08401		-1.338191	-0.786396	8.986006	-0.702715	0.657271	-0.275761	-1.045654	0.131104	-0.645264	6.742674	27.925773	57.589449
08402		-7.906639	-1.577394	11.068206	-0.258614	0.453081	-0.109959	-1.042969	0.126709	-0.654297	6.577774	28.192029	57.550119
08403		-3.443042	2.362074	7.542992	-0.156511	0.347306	-0.066653	-1.047607	0.129883	-0.649170	6.480698	28.394860	57.530240
08404		-6.328562	1.204064	8.900054	-0.158521	0.286604	0.003400	-1.045410	0.125488	-0.650635	6.401427	28.558949	57.550831
08405		-5.769025	0.139476	9.205690	-0.128267	0.119896	-0.006331	-1.042236	0.140625	-0.653076	6.330949	28.628404	57.552904
08406		-5.284050	2.507645	8.746679	-0.177467	0.035794	-0.065248	-1.041260	0.140625	-0.655273	6.210675	28.654059	57.510543
08407		-5.114007	0.164943	8.989776	-0.185368	0.015806	-0.079554	-1.044189	0.131836	-0.648193	6.081046	28.668716	57.457499
08408		-5.324551	-0.361038	9.214442	-0.114441	-0.019655	-0.046591	-1.033447	0.134521	-0.654541	6.000817	28.661518	57.423337
08409		-4.717393	0.843385	8.847832	-0.070450	-0.021391	-0.016860	-1.050049	0.128174	-0.655518	5.955325	28.651100	57.408430
08410		-4.862582	0.897657	8.697195	-0.081047	-0.035282	-0.015956	-1.044189	0.142090	-0.650635	5.903234	28.633129	57.393106
08411		-4.811685	0.619735	8.887910	-0.090211	-0.035477	-0.031655	-1.040771	0.133057	-0.649902	5.841387	28.615527	57.367678
08412		-4.910679	0.771573	8.893603	-0.086898	-0.027186	-0.035910	-1.036865	0.140625	-0.649170	5.780017	28.603301	57.339977
08413		-4.910117	0.701525	8.828705	-0.058566	-0.027267	-0.016449	-1.035889	0.130859	-0.653320	5.741316	28.589461	57.325005
08414		-4.881243	0.821082	8.839227	-0.031194	-0.024546	0.008566	-1.038818	0.140381	-0.653076	5.725772	28.576163	57.326371
08415		-4.873686	1.043636	8.845038	-0.031803	-0.023669	0.006124	-1.043213	0.137207	-0.657959	5.709538	28.563076	57.326303
08416		-4.838182	1.096132	8.766454	-0.051874	-0.020771	-0.015612	-1.046143	0.139404	-0.663086	5.674769	28.553306	57.312233
08417		-4.880769	1.014483	8.741217	-0.067363	-0.023141	-0.033355	-1.043457	0.142334	-0.655518	5.625939	28.542747	57.286590
08418		-4.816305	0.779654	8.765241	-0.070136	-0.022205	-0.036019	-1.049072	0.141113	-0.654785	5.574363	28.533283	57.259213
08419		-4.751989	0.722315	8.802357	-0.059916	-0.012586	-0.035741	-1.047119	0.137939	-0.652832	5.529397	28.528837	57.232713
08420		-4.717476	0.696452	8.847605	-0.035815	0.001371	-0.020530	-1.042969	0.144531	-0.646484	5.502998	28.531928	57.216883
08421		-4.750100	0.737197	8.798384	-0.024584	0.016095	-0.013026	-1.040771	0.142578	-0.646240	5.486176	28.542570	57.206923
08422		-4.742237	0.830601	8.779922	-0.011227	0.029066	-0.011247	-1.044922	0.137939	-0.659912	5.477554	28.560935	57.198835
08423		-4.715314	0.900602	8.774145	-0.000417	0.042310	-0.007630	-1.041748	0.147705	-0.654297	5.477026	28.586230	57.194005
08424		-4.781445	0.873670	8.726925	0.006021	0.053964	-0.010354	-1.040283	0.136963	-0.652344	5.479301	28.618741	57.188043
08425		-4.766140	0.849368	8.737621	0.013094	0.055729	-0.012387	-1.038818	0.139404	-0.657471	5.485429	28.651951	57.180959
08426		-4.846707	0.780788	8.720763	0.019822	0.059412	-0.006449	-1.051025	0.137695	-0.657715	5.496991	28.687354	57.177881
08427		-4.803976	0.804989	8.731503	0.024588	0.056283	-0.003035	-1.043213	0.142822	-0.653076	5.512639	28.720368	57.176922
08428		-4.786347	0.806522	8.737594	0.028733	0.058540	-0.001192	-1.037109	0.137939	-0.656494	5.530928	28.754987	57.177226
08429		-4.828063	0.805366	8.694142	0.030299	0.059368	-0.003445	-1.035889	0.145508	-0.661865	5.549823	28.789783	57.176218
08430		-4.804275	0.778468	8.682304	0.032697	0.058657	0.001218	-1.035645	0.142578	-0.654541	5.571153	28.824333	57.178123
08431		-4.804365	0.791568	8.732652	0.046147	0.061527	0.012243	-1.036621	0.137695	-0.653564	5.604137	28.859486	57.187498
08432		-4.836149	0.850318	8.733474	0.058584	0.063793	0.016933	-1.036865	0.134277	-0.658691	5.645421	28.896079	57.200007
08433		-4.821255	0.832070	8.743530	0.063954	0.059792	0.022779	-1.035889	0.132813	-0.649414	5.691911	28.929635	57.216195
08434		-4.861488	0.758586	8.690727	0.069868	0.060512	0.020916	-1.035156	0.127197	-0.656494	5.740861	28.964111	57.231160
08435		-4.839065	0.812903	8.687390	0.069703	0.064592	0.028239	-1.032959	0.141113	-0.662598	5.792577	29.000065	57.251298
08436		-4.822976	0.896315	8.701671	0.069914	0.062231	0.026752	-1.036621	0.133545	-0.649658	5.843503	29.035158	57.270257
08437		-4.808532	0.878607	8.711533	0.061798	0.071670	0.019014	-1.032227	0.134521	-0.661621	5.888063	29.075655	57.284940
08438		-4.857598	0.909816	8.684453	0.057445	0.079083	0.014318	-1.037354	0.140137	-0.651367	5.928517	29.121056	57.297003
08439		-4.830749	0.895182	8.725151	0.055660	0.081707	0.006948	-1.043701	0.137207	-0.665527	5.966115	29.167972	57.304575
08440		-4.858132	0.924515	8.706801	0.050522	0.087848	0.000400	-1.032715	0.135010	-0.661133	5.998520	29.219182	57.308229
08441		-4.879574	0.924040	8.670620	0.043624	0.091028	-0.003315	-1.036133	0.131592	-0.656738	6.026306	29.272016	57.309808
08442		-4.896794	0.932335	8.687745	0.038289	0.097811	-0.014357	-1.029297	0.137939	-0.648682	6.047356	29.329787	57.304569
08443		-4.880634	0.958047	8.687181	0.038291	0.105113	-0.018676	-1.031250	0.127930	-0.658691	6.067670	29.391575	57.297132
08444		-4.887867	0.983779	8.676905	0.031786	0.115360	-0.028727	-1.032471	0.135254	-0.661621	6.080987	29.460216	57.283751
08445		-4.950088	1.014982	8.669565	0.031014	0.122450	-0.045920	-1.030762	0.123535	-0.660889	6.088943	29.533539	57.259715
08446		-4.940128	0.976731	8.734808	0.033395	0.139140	-0.054977	-1.026123	0.133057	-0.652588	6.095493	29.617326	57.230807
08447		-4.935204	0.966128	8.683209	0.032256	0.150969	-0.069385	-1.033691	0.126465	-0.656006	6.097463	29.708329	57.193361
08448		-4.973601	0.979771	8.607652	0.028557	0.160295	-0.076903	-1.023682	0.129883	-0.656982	6.094737	29.805500	57.151502
08449		-4.944267	0.876459	8.614603	0.026449	0.163143	-0.082381	-1.023193	0.124023	-0.662109	6.089406	29.904226	57.106293
08450		-4.955051	0.884647	8.659794	0.026471	0.164889	-0.076627	-1.020996	0.135498	-0.660400	6.085562	30.003990	57.064837
08451		-4.905968	0.857808	8.684211	0.028061	0.183781	-0.075853	-1.019287	0.129883	-0.670654	6.083839	30.114073	57.025265
08452		-4.923714	0.857025	8.674240	0.036716	0.210698	-0.070429	-1.020020	0.133301	-0.661377	6.089346	30.239552	56.991013
08453		-4.950696	0.885948	8.680162	0.039483	0.239683	-0.068413	-1.014404	0.132813	-0.661621	6.098442	30.381036	56.960208
08454		-4.948607	0.909475	8.672257	0.044892	0.271186	-0.073448	-1.016113	0.123779	-0.665771	6.109610	30.541158	56.928174
08455		-4.894750	0.912977	8.718381	0.046018	0.314608	-0.082672	-1.012451	0.129883	-0.663086	6.120176	30.726207	56.893202
08456		-4.839451	0.801056	8.683615	0.057595	0.367097	-0.087396	-1.012939	0.124756	-0.665283	6.137178	30.941818	56.858696
08457		-4.869134	0.735572	8.709536	0.069590	0.421131	-0.088531	-1.006348	0.123535	-0.662598	6.162940	31.187927	56.827435
08458		-4.864786	0.737080	8.706914	0.078394	0.487126	-0.083291	-1.009277	0.116943	-0.670898	6.197544	31.471660	56.804365
08459		-4.785214	0.780718	8.700656	0.082509	0.561424	-0.085936	-1.000488	0.121094	-0.672852	6.236794	31.797549	56.785214
08460		-4.934113	0.713489	8.643668	0.082762	0.641914	-0.085120	-0.984619	0.120850	-0.674316	6.279203	32.169551	56.772583
08461		-4.875448	0.786955	8.647828	0.093112	0.714347	-0.085645	-0.987305	0.118408	-0.681396	6.330758	32.582534	56.765457
08462		-4.935447	0.848157	8.654157	0.086632	0.806316	-0.097411	-0.979248	0.121338	-0.676758	6.377763	33.048917	56.757507
08463		-4.974063	0.879797	8.649421	0.101438	0.896774	-0.109429	-0.972900	0.117676	-0.683350	6.433189	33.567301	56.748921
08464		-4.918064	0.863503	8.703771	0.112788	1.009287	-0.117505	-0.969238	0.111572	-0.686768	6.496711	34.150506	56.743929
08465		-4.815852	0.900514	8.799296	0.120084	1.156888	-0.126824	-0.956299	0.111084	-0.686768	6.568241	34.818105	56.745175
08466		-4.769078	0.896104	8.908863	0.129943	1.338113	-0.141436	-0.944824	0.116943	-0.695313	6.648157	35.589987	56.751721
08467		-4.806771	0.848245	8.873614	0.150435	1.548374	-0.153313	-0.932373	0.114990	-0.702881	6.746582	36.482124	56.769076
08468		-4.848749	0.854642	8.852354	0.166431	1.766556	-0.158160	-0.920410	0.111328	-0.708740	6.864395	37.498780	56.803562
08469		-4.838019	0.542723	8.890478	0.183543	1.994228	-0.143511	-0.905029	0.111572	-0.711182	7.014068	38.643756	56.872458
08470		-4.744517	0.608403	8.978042	0.213745	2.252430	-0.114385	-0.885742	0.108154	-0.709961	7.213797	39.933280	56.991752
08471		-4.676653	1.074445	9.046136	0.212048	2.561205	-0.104160	-0.861572	0.109619	-0.716064	7.445436	41.397184	57.157653
08472		-4.731546	1.532150	9.016327	0.166879	2.896177	-0.142240	-0.834229	0.104492	-0.729248	7.665217	43.053548	57.339793
08473		-4.839440	1.695951	9.041380	0.075252	3.265013	-0.214848	-0.808838	0.100342	-0.736816	7.834035	44.924612	57.517845
08474		-4.913866	2.256311	9.025870	-0.062203	3.658187	-0.311981	-0.774170	0.105469	-0.734375	7.911430	47.025826	57.672501
08475		-5.040348	2.923862	8.592674	-0.254807	4.084744	-0.490993	-0.745605	0.107910	-0.737793	7.811367	49.383532	57.731413
08476		-5.219973	2.849458	8.161845	-0.435828	4.570401	-0.704247	-0.699951	0.102539	-0.746582	7.498018	52.032860	57.646751
08477		-5.675744	2.411305	8.335924	-0.613368	5.108648	-0.902325	-0.658447	0.114014	-0.744385	6.949686	55.002492	57.399533
08478		-6.984373	1.671027	8.609228	-0.752629	5.683852	-1.040637	-0.611816	0.124268	-0.738770	6.182318	58.305929	56.994953
08479		-10.065678	0.701896	8.987458	-0.770270	6.183327	-1.026431	-0.554443	0.124512	-0.746338	5.339810	61.890631	56.530236
08480		-15.216710	-0.412562	9.972921	-0.506067	6.347409	-0.844755	-0.496338	0.131592	-0.733887	4.715803	65.555598	56.155547
08481		-20.814775	-1.212656	10.614608	-0.032629	6.031309	-0.622463	-0.458008	0.138916	-0.724609	4.508272	69.029490	55.948755
08482		-18.876947	-0.254889	10.810966	0.436730	5.557090	-0.421286	-0.406250	0.126953	-0.707275	4.804328	72.222141	55.994894
08483		-16.550607	0.128603	11.639043	0.799191	5.146064	-0.361565	-0.361572	0.120117	-0.693604	5.452550	75.178063	56.190907
08484		-13.126115	1.499239	12.016269	0.796861	4.977694	-0.526386	-0.328857	0.109863	-0.677979	5.815845	78.045175	56.092562
08485		-10.936215	2.034495	12.839977	0.697934	4.865091	-0.704055	-0.295410	0.107910	-0.656494	5.529811	80.859691	55.392927
08486		-7.783089	2.044877	11.400027	0.647345	4.767347	-0.839277	-0.256592	0.111328	-0.633545	4.039718	83.620714	53.512627
08487		-5.049257	2.453354	9.833426	0.678921	4.827586	-0.899374	-0.229004	0.112305	-0.611816	-0.528544	86.404421	48.535914
08488		-4.812509	2.136618	8.553363	0.652176	4.660754	-1.005903	-0.190430	0.099365	-0.594727	-32.684887	88.895723	15.984391
08489		-3.182742	0.551543	9.228567	0.677101	3.884274	-1.265447	-0.172119	0.099365	-0.577637	-134.233264	88.150875	-85.971447
08490		-12.184029	-3.922482	12.457606	1.295356	2.712166	-1.522814	-0.154297	0.100586	-0.575439	-141.688011	86.408857	-94.179739
08491		-16.337114	-0.307311	18.301291	2.142006	0.822508	-1.163258	-0.154297	0.088867	-0.570557	-137.536562	85.615929	-91.250593
08492		-10.938228	3.535550	15.113395	2.401583	-0.785611	-1.028852	-0.166260	0.066650	-0.569092	-126.725468	85.481483	-81.790582
08493		-6.859052	4.914413	11.875579	2.057885	-1.929782	-1.079298	-0.177979	0.057373	-0.578613	-109.504013	85.454586	-65.700626
08494		-4.288676	4.554540	9.199818	1.631335	-2.662314	-1.094154	-0.213379	0.043457	-0.594482	-89.016778	85.075196	-46.086494
08495		-3.331621	3.931695	7.720198	1.270294	-3.100192	-1.049089	-0.239014	0.040039	-0.604248	-70.786495	84.159120	-28.510365
08496		-2.721833	3.297635	6.701274	1.016753	-3.360526	-0.955486	-0.264160	0.029297	-0.618652	-57.094001	82.809329	-15.321230
08497		-2.109684	2.638052	5.769738	0.884955	-3.498876	-0.792343	-0.311523	0.034912	-0.630859	-47.283432	81.214883	-5.929957
08498		-1.625162	2.377859	5.177457	0.867901	-3.548335	-0.575597	-0.346924	0.017090	-0.655029	-39.909435	79.507322	1.039458
08499		-1.556476	2.241452	5.023126	0.884291	-3.548094	-0.332032	-0.394287	0.009766	-0.661865	-34.078045	77.766303	6.467750
08500		-2.109679	2.041173	5.209084	0.909201	-3.532506	-0.080291	-0.438721	-0.005859	-0.677979	-29.153180	76.011850	10.983772
08501		-2.990807	2.030673	5.619421	0.944284	-3.552378	0.174519	-0.482910	-0.017090	-0.689941	-24.805111	74.241788	14.920057
08502		-3.727896	2.299306	6.009394	0.941040	-3.613621	0.408605	-0.538330	-0.023438	-0.698486	-20.851212	72.417518	18.478574
08503		-4.472415	2.386678	6.566971	0.892298	-3.708026	0.607010	-0.588379	-0.035645	-0.703125	-17.292285	70.522282	21.690173
08504		-5.236158	2.289462	7.011339	0.822198	-3.841206	0.797940	-0.654053	-0.043701	-0.698486	-14.042271	68.519587	24.650224
08505		-5.848387	2.125043	7.277591	0.757905	-4.012346	0.988168	-0.711670	-0.051025	-0.702637	-11.075156	66.398251	27.389794
08506		-6.133344	1.970533	7.504382	0.690936	-4.179469	1.145313	-0.787354	-0.064697	-0.695313	-8.389164	64.141598	29.904402
08507		-6.448420	1.696659	7.678678	0.657531	-4.310054	1.273851	-0.861084	-0.059570	-0.679932	-5.989999	61.782697	32.172108
08508		-6.744798	1.446684	7.834301	0.657975	-4.398539	1.377511	-0.937500	-0.063232	-0.656982	-3.831997	59.331740	34.210176
08509		-7.148545	1.024081	8.265126	0.710324	-4.466717	1.460397	-1.023926	-0.054932	-0.618408	-1.880294	56.817509	36.027243
08510		-7.672978	0.431816	8.791155	0.841121	-4.537365	1.538932	-1.099609	-0.045654	-0.573486	-0.046207	54.225217	37.660126
08511		-8.361156	-0.176321	9.393373	1.043967	-4.609066	1.612943	-1.171387	-0.031494	-0.501709	1.722027	51.571569	39.124089
08512		-9.226936	-0.613971	9.829953	1.307763	-4.673962	1.673085	-1.226563	-0.015381	-0.428711	3.479190	48.844979	40.427995
08513		-9.992156	-0.562050	10.148903	1.570361	-4.729926	1.730687	-1.281006	0.009766	-0.347656	5.232029	46.068059	41.582521
08514		-10.581514	0.053946	10.553489	1.755885	-4.750048	1.770653	-1.303467	0.033691	-0.273926	6.952962	43.246342	42.591495
08515		-11.172775	1.055391	11.011159	1.791410	-4.733917	1.818819	-1.308838	0.040771	-0.193115	8.576038	40.418884	43.482475
08516		-11.981148	2.164854	11.741752	1.636867	-4.707946	1.874444	-1.299316	0.061768	-0.118164	10.022329	37.575627	44.281921
08517		-12.849079	2.689238	12.267704	1.305701	-4.694973	1.978471	-1.293701	0.077881	-0.052002	11.222842	34.723651	45.044893
08518		-14.114603	3.009671	12.487641	0.890353	-4.721680	2.099153	-1.272705	0.089111	-0.006592	12.149302	31.823282	45.794644
08519		-15.455099	2.883686	12.127645	0.445585	-4.755538	2.203736	-1.260010	0.102539	0.054688	12.783143	28.891201	46.539283
08520		-16.634690	2.076522	11.280627	0.055243	-4.737822	2.285840	-1.229736	0.102539	0.108154	13.163579	25.944815	47.286864
08521		-17.591062	1.019388	9.946243	-0.207964	-4.655866	2.349497	-1.188477	0.106445	0.153076	13.363631	23.040495	48.051756
08522		-18.258854	0.643178	8.177965	-0.360150	-4.496635	2.370813	-1.146484	0.107178	0.176025	13.447024	20.213067	48.827018
08523		-18.635557	1.439187	6.273140	-0.566537	-4.251547	2.265749	-1.110596	0.108398	0.195068	13.362429	17.543524	49.562527
08524		-18.523219	1.993226	4.146824	-0.843718	-3.950602	2.024507	-1.057861	0.096436	0.197021	13.060584	15.069562	50.196649
08525		-17.432707	1.422855	2.045004	-1.026972	-3.552431	1.712712	-1.035400	0.098877	0.187256	12.599192	12.868090	50.714684
08526		-16.343799	-0.373824	0.132549	-0.904293	-3.058680	1.477216	-1.002441	0.092773	0.177246	12.178876	10.970761	51.172094
08527		-16.076006	-1.918371	-1.363369	-0.457989	-2.524465	1.370422	-0.989258	0.087158	0.159180	12.001581	9.392955	51.642203
08528		-15.555547	-2.414251	-2.623877	0.092946	-1.975816	1.327259	-0.971191	0.083252	0.161865	12.135621	8.124025	52.152190
08529		-14.838118	-2.274418	-3.412851	0.541931	-1.392622	1.287012	-0.972168	0.083740	0.140137	12.521813	7.188056	52.705040
08530		-14.244345	-1.808563	-3.555985	0.743893	-0.790866	1.203227	-0.960449	0.069092	0.141113	13.019737	6.592026	53.278688
08531		-14.151481	-1.328583	-2.896478	0.715326	-0.225363	1.080098	-0.950439	0.076904	0.125977	13.496216	6.325451	53.852993
08532		-11.933350	1.499088	-3.134867	0.012789	0.696979	0.856194	-0.947266	0.082520	0.120361	13.570620	6.598302	54.424611
08533		-12.516126	2.212856	-7.168833	-1.056495	2.177362	0.437975	-0.933105	0.089111	0.112061	13.033925	7.755667	54.957948
08534		-4.212855	-0.858367	-4.971246	-1.830426	2.873028	-0.013083	-0.925049	0.094482	0.091064	12.040389	9.364456	55.309727
08535		1.990137	-1.724541	7.227228	-1.750168	3.389146	-0.113724	-0.914795	0.097168	0.082275	11.098468	11.280861	55.638528
08536		1.874745	-1.129545	12.161772	-0.707993	3.857947	0.211546	-0.909180	0.099365	0.065918	10.813208	13.428293	56.188211
08537		-6.675035	-3.573180	8.945969	-0.109656	4.146876	0.421463	-0.894043	0.106201	0.059326	10.930019	15.717064	56.894027
08538		-6.732339	-4.456782	9.533289	-0.246258	4.317177	0.208452	-0.876465	0.114990	0.049316	10.969352	18.123221	57.505406
08539		-9.130654	-8.760905	14.643870	-0.218712	4.601067	-0.362203	-0.856201	0.117188	0.046387	10.950279	20.751766	57.818563
08540		-17.074065	-5.442690	18.684283	-0.092531	4.187490	-0.767011	-0.839600	0.114502	0.036133	10.907581	23.191435	57.841304
08541		-19.310135	4.100661	19.171307	-0.307636	3.184268	-1.084543	-0.828613	0.112305	0.029053	10.611379	25.100763	57.543240
08542		-23.666329	17.815941	17.193643	-1.370804	1.871457	-0.967275	-0.829346	0.116455	0.033203	9.654677	26.255114	57.144668
08543		-10.738506	3.505594	9.642033	-1.406343	1.020156	-0.427422	-0.827393	0.114746	0.026855	8.775779	26.872174	56.976655
08544		-4.548379	-7.939730	11.787869	-1.105076	0.991390	-0.469978	-0.819580	0.121826	0.019043	8.049486	27.475419	56.768488
08545		-7.727337	0.937681	10.041081	-0.647774	0.665699	-0.388205	-0.826904	0.122070	0.022217	7.590852	27.884384	56.575807
08546		-5.419011	2.726656	8.405715	-0.577091	0.532347	-0.208528	-0.823730	0.127930	0.021973	7.218489	28.204203	56.483717
08547		-6.567789	-1.068586	10.423944	-0.430436	0.307758	-0.121358	-0.816895	0.130859	0.016602	6.947271	28.388567	56.427566
08548		-5.522271	1.564733	8.995897	-0.337733	0.122816	-0.112680	-0.813232	0.124756	0.019775	6.723999	28.468115	56.361789
08549		-5.421799	0.926500	9.160541	-0.320156	0.053720	-0.104561	-0.818604	0.123535	0.010986	6.511027	28.506379	56.295627
08550		-5.033835	0.075916	9.137216	-0.263075	0.006564	-0.097585	-0.819336	0.131348	0.011719	6.330749	28.518384	56.230470
08551		-5.178646	0.398055	9.051214	-0.184610	-0.004538	-0.058379	-0.817627	0.122314	0.016113	6.207583	28.520224	56.189811
08552		-4.666065	0.826365	8.771131	-0.139479	-0.017707	-0.036067	-0.815674	0.125732	0.016113	6.116246	28.514372	56.162748
08553		-4.754799	0.878323	8.802975	-0.112595	-0.010646	-0.025295	-0.817383	0.124756	0.013184	6.044383	28.510606	56.143114
08554		-4.761846	0.394735	8.805390	-0.084900	-0.006823	-0.013473	-0.812256	0.125488	0.022705	5.991669	28.509533	56.131462
08555		-5.152817	0.590671	9.007915	-0.045384	-0.010240	0.016479	-0.822266	0.123779	0.013916	5.971262	28.503475	56.138952
08556		-4.915918	0.616430	8.879950	-0.020651	-0.024372	0.035436	-0.810791	0.127930	0.018555	5.969887	28.489486	56.157809
08557		-4.835941	0.910917	8.762136	-0.009473	-0.015785	0.036008	-0.812012	0.128174	0.014893	5.975912	28.479105	56.177584
08558		-4.894469	0.946332	8.785003	-0.017154	-0.022956	0.028849	-0.808594	0.124512	0.017090	5.974528	28.466320	56.192255
08559		-4.859863	1.040762	8.776808	-0.022043	-0.037274	0.017523	-0.810791	0.120850	0.011475	5.966936	28.444796	56.198587
08560		-4.847669	1.033691	8.756758	-0.032960	-0.040535	0.004681	-0.810303	0.127197	0.013428	5.948471	28.423440	56.196412
08561		-4.813034	0.924437	8.742360	-0.036569	-0.042641	-0.005758	-0.825439	0.121338	0.019775	5.925209	28.400241	56.187309
08562		-4.801938	0.854490	8.789981	-0.030222	-0.044906	-0.004614	-0.818848	0.124268	0.014160	5.905328	28.376946	56.178843
08563		-4.742484	0.769222	8.779508	-0.021835	-0.035420	-0.006663	-0.814209	0.127930	0.018555	5.890475	28.357909	56.169659
08564		-4.697185	0.743390	8.803237	-0.006522	-0.012076	0.009368	-0.812988	0.128418	0.016113	5.889518	28.352500	56.172451
08565		-4.741849	0.844855	8.789187	0.000207	0.003872	0.005353	-0.809570	0.128662	0.016846	5.892241	28.355150	56.173679
08566		-4.755288	0.901941	8.690249	-0.000652	0.011612	0.005221	-0.815430	0.125000	0.019287	5.894113	28.363481	56.175362
08567		-4.746381	0.959618	8.733723	-0.001891	0.013340	0.000332	-0.818115	0.123047	0.021729	5.894390	28.371822	56.173971
08568		-4.796941	1.012543	8.728342	-0.011579	0.008360	-0.007614	-0.811035	0.127197	0.014893	5.885950	28.379055	56.167123
08569		-4.803194	0.899808	8.671374	-0.022266	-0.001768	-0.022763	-0.807129	0.122070	0.020752	5.866961	28.380141	56.149761
08570		-4.737325	0.771146	8.699648	-0.024336	-0.009011	-0.018719	-0.813721	0.123047	0.008057	5.847247	28.378123	56.134563
08571		-4.752140	0.802755	8.739830	-0.014163	0.000661	-0.018514	-0.817627	0.123779	0.024170	5.834285	28.380336	56.120114
08572		-4.729690	0.901604	8.752181	-0.002720	0.010334	-0.007464	-0.806396	0.127441	0.021240	5.831020	28.388684	56.113483
08573		-4.740565	0.943665	8.711122	-0.005405	0.016160	-0.015789	-0.813477	0.121338	0.016602	5.824399	28.399569	56.101821
08574		-4.782240	0.952883	8.745943	-0.009195	0.018157	-0.018817	-0.809814	0.123291	0.023926	5.814168	28.413033	56.088347
08575		-4.781894	0.874343	8.736953	-0.009777	0.014514	-0.022125	-0.809570	0.123291	0.020752	5.803028	28.423345	56.072464
08576		-4.826666	0.796450	8.710258	-0.011502	0.011550	-0.019274	-0.814209	0.121094	0.020752	5.791122	28.433065	56.058250
08577		-4.811160	0.823102	8.736540	-0.011428	0.002534	-0.020993	-0.805176	0.124756	0.019775	5.779003	28.436476	56.042307
08578		-4.771182	0.810605	8.701127	-0.011706	-0.004528	-0.014704	-0.813965	0.125732	0.022949	5.767876	28.436768	56.029993
08579		-4.761522	0.866155	8.745377	-0.015599	0.004757	-0.021973	-0.806396	0.115479	0.025146	5.753133	28.441496	56.013557
08580		-4.724027	0.930108	8.718106	-0.008492	0.002045	-0.024919	-0.811768	0.123291	0.017090	5.740891	28.446116	55.995047
08581		-4.819587	0.982088	8.695384	-0.013861	0.001489	-0.031652	-0.812744	0.133545	0.014404	5.724048	28.449528	55.972119
08582		-4.729104	0.877085	8.727544	-0.015848	-0.002563	-0.039264	-0.815430	0.122314	0.019287	5.703022	28.452331	55.944007
08583		-4.796448	0.837479	8.763587	-0.008134	0.000097	-0.032947	-0.816650	0.124512	0.024414	5.689014	28.455010	55.920145
08584		-4.740861	0.752862	8.750662	-0.006424	0.009298	-0.028985	-0.805664	0.121338	0.018066	5.676920	28.463977	55.899459
08585		-4.767305	0.828319	8.749402	0.001732	0.021166	-0.029555	-0.815430	0.117676	0.014893	5.670252	28.478469	55.879150
08586		-4.761152	0.822185	8.725879	0.004610	0.031419	-0.025799	-0.805420	0.122803	0.020264	5.666125	28.499860	55.861942
08587		-4.773320	0.826528	8.746291	0.009188	0.042917	-0.030866	-0.806641	0.123535	0.022949	5.663973	28.526826	55.842171
08588		-4.755903	0.863701	8.690265	0.012896	0.049941	-0.026128	-0.811035	0.123291	0.019043	5.665036	28.558794	55.825929
08589		-4.812873	0.893139	8.687200	0.015136	0.059337	-0.030802	-0.817383	0.125000	0.017334	5.666793	28.595118	55.807246
08590		-4.760272	0.934814	8.670513	0.014807	0.067270	-0.039587	-0.817139	0.125000	0.023682	5.665277	28.637729	55.783367
08591		-4.786061	0.920312	8.716281	0.015573	0.065098	-0.049694	-0.810059	0.125977	0.018555	5.661544	28.678405	55.752764
08592		-4.794948	0.895087	8.717341	0.011648	0.078888	-0.056183	-0.809570	0.125732	0.012451	5.653357	28.728573	55.718818
08593		-4.769174	0.911793	8.695431	0.012117	0.088100	-0.063156	-0.807861	0.120361	0.013184	5.644078	28.783117	55.680899
08594		-4.774911	0.895503	8.748991	0.005301	0.097866	-0.066616	-0.813965	0.130127	0.014160	5.629488	28.844679	55.641325
08595		-4.780606	0.940405	8.734618	0.005902	0.113732	-0.073386	-0.813721	0.118896	0.019531	5.614117	28.914396	55.598313
08596		-4.751138	0.889525	8.756000	0.016877	0.136951	-0.081429	-0.817627	0.124023	0.022705	5.602570	28.999050	55.551497
08597		-4.786226	0.973647	8.800936	0.015811	0.177738	-0.093536	-0.817871	0.119385	0.017090	5.588313	29.106374	55.499322
08598		-4.838349	0.989919	8.746342	0.024377	0.207888	-0.099643	-0.805908	0.124756	0.012695	5.577257	29.232464	55.444997
08599		-4.802414	0.967772	8.789611	0.028559	0.243676	-0.116539	-0.803467	0.126221	0.012207	5.564711	29.378649	55.381804
08600		-4.791746	0.844996	8.818389	0.030727	0.285109	-0.122466	-0.818115	0.126953	0.022461	5.552019	29.550010	55.317232
08601		-4.808413	0.823177	8.839441	0.037638	0.328012	-0.124248	-0.808838	0.125732	0.014893	5.544364	29.744694	55.254076
08602		-4.827627	0.862993	8.790682	0.035780	0.382851	-0.130635	-0.811035	0.127930	0.008789	5.534445	29.972208	55.190036
08603		-4.836904	0.806992	8.767345	0.039333	0.436586	-0.136496	-0.815918	0.126221	0.007568	5.526575	30.229471	55.125379
08604		-4.736424	0.775020	8.785165	0.041624	0.487154	-0.141864	-0.804688	0.126953	0.003418	5.518910	30.517049	55.060159
08605		-4.770454	0.900995	8.790290	0.037120	0.559310	-0.154943	-0.806396	0.127686	0.010742	5.506730	30.845301	54.990647
08606		-4.296961	0.840719	8.953891	0.035124	0.666740	-0.181579	-0.802002	0.124023	0.009766	5.486667	31.237417	54.909872
08607		-4.394246	0.822427	9.102827	0.021082	0.834632	-0.207991	-0.805420	0.113525	0.010010	5.454693	31.725552	54.821646
08608		-4.233733	0.578033	9.230991	0.018323	1.020140	-0.227900	-0.802002	0.127441	0.003662	5.418577	32.321590	54.730964
08609		-4.167072	0.525570	9.275612	0.047674	1.247870	-0.227951	-0.801270	0.115234	-0.001221	5.406345	33.046439	54.653988
08610		-4.264102	0.365759	9.324752	0.083301	1.491949	-0.219171	-0.793213	0.121826	0.001465	5.424674	33.910965	54.598045
08611		-4.328937	0.482024	9.243734	0.125484	1.736237	-0.199306	-0.806885	0.117432	-0.002197	5.483987	34.912848	54.572198
08612		-4.531468	0.548373	9.214771	0.141383	1.986830	-0.193421	-0.794922	0.120361	-0.004883	5.564226	36.058120	54.568377
08613		-4.707206	0.597970	9.231067	0.143504	2.224287	-0.185304	-0.788086	0.115967	-0.015869	5.660977	37.337565	54.589300
08614		-4.648980	0.691297	9.319651	0.134392	2.475917	-0.174401	-0.785645	0.111328	-0.014160	5.770274	38.760431	54.639331
08615		-4.625344	1.203896	9.386738	0.082428	2.772320	-0.182330	-0.774902	0.113281	-0.029297	5.864856	40.352018	54.710504
08616		-4.761600	1.802229	9.491686	-0.030879	3.092324	-0.253114	-0.763916	0.108643	-0.030518	5.878898	42.130498	54.756365
08617		-4.664892	2.147096	9.539557	-0.206326	3.452906	-0.381809	-0.765137	0.110596	-0.041260	5.744417	44.121606	54.729638
08618		-4.653433	2.409155	9.516866	-0.400459	3.883300	-0.548137	-0.750977	0.116943	-0.047852	5.416988	46.367449	54.589431
08619		-4.684324	2.682281	9.135373	-0.618742	4.380647	-0.777548	-0.736572	0.102051	-0.053955	4.820969	48.907847	54.260010
08620		-5.269734	2.376899	9.012282	-0.815622	4.965769	-1.029416	-0.730713	0.100098	-0.063721	3.903774	51.790158	53.673670
08621		-6.401002	1.597245	9.589441	-0.967093	5.565568	-1.216672	-0.707520	0.102295	-0.076660	2.656875	55.014384	52.808759
08622		-9.937134	0.359510	10.227950	-0.976266	6.058175	-1.209488	-0.698730	0.102539	-0.083008	1.217502	58.507057	51.754933
08623		-15.574898	-1.500417	11.107197	-0.605829	6.178797	-0.960158	-0.675049	0.098389	-0.081543	-0.031433	62.053433	50.714829
08624		-19.629652	-1.692018	11.073971	0.040297	5.804440	-0.625694	-0.672119	0.099365	-0.098145	-0.785534	65.376280	49.846107
08625		-17.390592	-0.949664	12.240935	0.659735	5.376985	-0.369457	-0.636719	0.097168	-0.111572	-1.021464	68.453883	49.176684
08626		-14.886574	0.540161	12.056217	0.999172	5.000606	-0.378021	-0.627686	0.089600	-0.116943	-1.196848	71.313743	48.378145
08627		-11.540767	1.603531	12.123743	0.853404	4.940535	-0.640401	-0.619629	0.072510	-0.116455	-2.159192	74.133198	46.856509
08628		-9.354250	1.366019	12.720267	0.776479	4.772465	-0.811284	-0.596680	0.064453	-0.119629	-4.090737	76.837454	44.399978
08629		-6.479997	2.057241	10.613793	0.737340	4.630301	-0.929642	-0.576416	0.054199	-0.129150	-7.471631	79.425035	40.512440
08630		-6.510644	2.937937	7.697558	0.507576	4.422759	-1.077539	-0.549072	0.051025	-0.139160	-13.680018	81.804124	33.923997
08631		-2.313670	0.667576	8.771246	0.397626	3.706481	-1.423726	-0.534668	0.052490	-0.134033	-24.941956	83.547141	22.339616
08632		-6.230875	-5.409074	11.172509	1.205104	2.675779	-1.865365	-0.512939	0.036133	-0.144043	-40.488027	84.263177	6.009396
08633		-16.210160	-2.956478	17.557664	2.065574	1.190634	-1.894497	-0.498535	0.033447	-0.153076	-51.410112	83.954360	-6.162007
08634		-9.473496	1.350361	14.261889	2.642026	-0.199035	-1.786645	-0.484863	0.024414	-0.155518	-54.498472	83.063717	-10.796988
08635		-3.884962	3.955483	10.809475	2.513003	-1.068390	-1.931984	-0.473145	0.018311	-0.153076	-54.183658	81.805908	-11.933925
08636		-1.336548	4.234077	8.162512	2.171059	-1.612910	-2.049382	-0.468018	0.009521	-0.163818	-52.648247	80.307911	-11.642839
08637		-0.959574	3.858970	7.052018	1.880803	-1.839277	-2.064066	-0.458740	0.000977	-0.178467	-51.047932	78.725477	-11.113447
08638		-1.305043	3.702677	6.774370	1.680361	-1.959023	-1.950588	-0.457031	-0.001465	-0.175293	-49.375067	77.143896	-10.391958
08639		-2.037150	3.900994	6.771674	1.562041	-2.101712	-1.719301	-0.439941	-0.010986	-0.195801	-47.466621	75.606455	-9.351381
08640		-2.638741	4.308401	6.779095	1.471023	-2.323802	-1.391675	-0.452393	-0.013184	-0.194336	-45.085541	74.105121	-7.763152
08641		-2.743375	4.649247	6.857417	1.356390	-2.582323	-1.009170	-0.451904	-0.017578	-0.208740	-42.291040	72.634435	-5.660093
08642		-2.630040	4.730188	6.847522	1.227114	-2.805699	-0.610372	-0.447754	-0.019531	-0.223633	-39.170141	71.182656	-3.122678
08643		-2.443030	4.521667	6.637958	1.117680	-2.948503	-0.170415	-0.454590	-0.026123	-0.233643	-35.849779	69.781748	-0.281784
08644		-2.407369	4.206829	6.596847	1.043997	-3.029009	0.284976	-0.467041	-0.029297	-0.245605	-32.332187	68.429875	2.836242
08645		-2.898036	4.019598	6.921627	0.980498	-3.073320	0.712087	-0.476563	-0.029297	-0.258057	-28.724062	67.119127	6.124507
08646		-3.759090	3.781867	7.454617	0.910955	-3.152777	1.089230	-0.492676	-0.033936	-0.263672	-25.035273	65.783019	9.571490
08647		-4.780332	3.446195	8.080429	0.834665	-3.290851	1.408444	-0.504883	-0.035645	-0.277100	-21.364719	64.366844	13.088939
08648		-5.547936	3.131382	8.608416	0.762543	-3.480070	1.676384	-0.527588	-0.047363	-0.280273	-17.748086	62.801376	16.631113
08649		-6.077309	2.672921	9.029930	0.686290	-3.679529	1.889087	-0.539307	-0.040771	-0.292236	-14.313000	61.073197	20.075279
08650		-6.543427	2.056101	9.240220	0.633019	-3.849876	2.060970	-0.566162	-0.044434	-0.291260	-11.088865	59.171938	23.366425
08651		-7.032314	1.448175	9.452800	0.633962	-4.001336	2.176760	-0.596924	-0.040527	-0.302734	-8.131549	57.119212	26.417328
08652		-7.474431	0.825133	9.855817	0.687182	-4.119483	2.258832	-0.609131	-0.037109	-0.296875	-5.408258	54.918194	29.217302
08653		-8.242994	0.227861	10.327524	0.786656	-4.213087	2.323504	-0.629395	-0.031006	-0.295654	-2.907573	52.607018	31.755594
08654		-8.896369	-0.065709	10.787979	0.941262	-4.312605	2.354348	-0.649902	-0.018066	-0.290283	-0.577736	50.168008	34.037349
08655		-9.603815	-0.143738	11.270438	1.094635	-4.395479	2.380531	-0.666260	-0.029541	-0.291016	1.587540	47.637879	36.074910
08656		-10.337655	-0.064551	11.745242	1.222487	-4.455808	2.390420	-0.681641	-0.025391	-0.284424	3.606570	45.014948	37.887928
08657		-10.999943	0.333638	11.990162	1.303819	-4.490627	2.396369	-0.697266	-0.021240	-0.275146	5.466580	42.341975	39.495858
08658		-11.539673	0.920928	12.163655	1.320227	-4.464821	2.384741	-0.699463	-0.029297	-0.263916	7.164201	39.638486	40.920390
08659		-12.608444	1.721677	12.374382	1.258179	-4.398026	2.397481	-0.719727	-0.033203	-0.268311	8.685705	36.953991	42.208390
08660		-13.959758	2.502193	12.883922	1.129487	-4.339326	2.467964	-0.712646	-0.039551	-0.257324	10.047052	34.260352	43.424240
08661		-15.759877	2.899887	13.190592	0.924787	-4.350244	2.602356	-0.733643	-0.036133	-0.253906	11.228135	31.536271	44.618910
08662		-17.545314	2.900545	13.048982	0.664920	-4.442778	2.756308	-0.736328	-0.044922	-0.263428	12.210719	28.713079	45.806004
08663		-19.009279	2.629455	12.041284	0.369333	-4.553826	2.860380	-0.746826	-0.053955	-0.265381	12.954780	25.810464	46.963485
08664		-19.544026	2.266046	10.255874	0.043034	-4.614493	2.860840	-0.757568	-0.068359	-0.274414	13.432128	22.853236	48.049519
08665		-19.105946	1.647413	7.732048	-0.252027	-4.549207	2.732082	-0.779785	-0.060303	-0.286621	13.646321	19.953663	49.026369
08666		-17.727126	0.717332	5.051575	-0.442481	-4.273459	2.520440	-0.793213	-0.068115	-0.290039	13.673891	17.225817	49.893641
08667		-16.509929	-0.402767	2.894444	-0.460944	-3.830351	2.334486	-0.812012	-0.071289	-0.289795	13.635382	14.778462	50.704603
08668		-16.295193	-1.281707	1.285632	-0.338233	-3.328685	2.203942	-0.825684	-0.080811	-0.297852	13.634576	12.621304	51.501894
08669		-16.124818	-1.283080	-0.009520	-0.211561	-2.852860	2.086885	-0.858398	-0.079346	-0.306152	13.675472	10.751676	52.292184
08670		-16.054124	-1.200521	-1.322482	-0.177504	-2.394071	1.944403	-0.862793	-0.080811	-0.309570	13.709949	9.150802	53.058553
08671		-15.717465	-1.832698	-2.598521	-0.192346	-1.928382	1.775095	-0.878662	-0.090088	-0.316406	13.709911	7.837380	53.790706
08672		-14.878677	-3.032638	-3.685191	-0.150797	-1.425033	1.624955	-0.894287	-0.089600	-0.312744	13.718054	6.820642	54.504806
08673		-14.920809	-4.166387	-4.096290	-0.038274	-0.895055	1.485157	-0.891113	-0.085449	-0.322266	13.777839	6.121319	55.211911
08674		-14.947557	-3.856648	-3.857475	0.017261	-0.400299	1.269367	-0.905518	-0.086670	-0.331299	13.858129	5.723673	55.864438
08675		-11.132280	-2.595294	-5.504415	-0.474381	0.677132	0.825919	-0.901123	-0.079590	-0.336914	13.644742	5.989081	56.417124
08676		-12.029840	-1.992236	-9.051884	-0.915703	2.297189	0.238556	-0.883057	-0.076416	-0.339844	13.173422	7.237862	56.856031
08677		-2.499327	-2.745196	-4.028379	-1.368994	2.994243	-0.277673	-0.878906	-0.079102	-0.365479	12.422689	8.947060	57.081054
08678		1.128116	-0.740752	8.990009	-1.222219	3.550828	-0.426929	-0.844971	-0.069824	-0.375488	11.757536	10.988588	57.268778
08679		-0.131024	0.242817	12.693754	-0.533836	3.917001	-0.377750	-0.825928	-0.077637	-0.383301	11.504805	13.231386	57.512556
08680		-8.008467	-3.381944	10.171109	0.030644	4.148780	-0.231510	-0.800049	-0.077637	-0.398926	11.613282	15.587501	57.867988
08681		-7.063976	-3.926618	11.192598	0.110036	4.273926	-0.288498	-0.772949	-0.081055	-0.414063	11.778768	18.019924	58.215230
08682		-9.888978	-4.254958	15.837222	0.326137	4.587458	-0.535217	-0.741211	-0.081055	-0.416992	12.051915	20.656196	58.470090
08683		-18.158267	-0.843375	18.644686	0.290695	4.058937	-0.683326	-0.720703	-0.088867	-0.426025	12.262561	23.013080	58.583112
08684		-19.817535	6.659644	18.195696	-0.164850	2.953539	-1.006464	-0.691406	-0.087158	-0.435547	12.076551	24.790827	58.354285
08685		-20.319027	18.247022	14.356362	-1.238468	1.684532	-0.840636	-0.681641	-0.072754	-0.440918	11.237088	25.834370	58.045864
08686		-6.039379	3.139498	7.857217	-1.472556	1.193035	-0.375556	-0.675049	-0.074463	-0.440918	10.353454	26.549162	57.951015
08687		-7.902630	-8.805327	12.569047	-1.108438	1.094873	-0.518810	-0.665039	-0.065674	-0.447754	9.626046	27.219439	57.742404
08688		-8.117598	1.923775	9.544843	-0.717714	0.604665	-0.483517	-0.664795	-0.061279	-0.446289	9.102726	27.609534	57.495760
08689		-5.864247	2.194366	9.041506	-0.665800	0.496066	-0.296791	-0.649170	-0.057861	-0.452393	8.656787	27.917468	57.353037
08690		-6.432718	-1.117024	10.344008	-0.533016	0.327438	-0.239139	-0.644287	-0.053711	-0.449707	8.294436	28.126566	57.228634
08691		-6.363694	0.306917	9.795799	-0.349835	0.148355	-0.158445	-0.649170	-0.057129	-0.447754	8.053196	28.224451	57.137947
08692		-5.204771	0.117556	9.474481	-0.212952	0.074338	-0.053243	-0.650635	-0.059570	-0.457031	7.918331	28.274297	57.108062
08693		-5.093735	0.743697	9.022530	-0.098498	0.046001	0.003217	-0.649902	-0.052734	-0.457520	7.865680	28.300981	57.111780
08694		-4.689906	1.057724	8.743683	-0.044905	0.043457	0.035287	-0.647949	-0.045410	-0.444580	7.852666	28.326322	57.136042
08695		-5.141560	1.394490	8.910124	-0.061669	-0.003234	0.009592	-0.640869	-0.050293	-0.450684	7.820982	28.324565	57.139474
08696		-4.799322	1.218688	8.765446	-0.035667	-0.008807	0.017264	-0.648438	-0.049316	-0.453369	7.805552	28.321668	57.147471
08697		-4.662991	1.284951	8.692723	-0.033789	0.006193	0.004402	-0.644531	-0.051514	-0.457275	7.788649	28.325668	57.148390
08698		-4.774310	1.272455	8.706292	-0.037067	0.008271	-0.007111	-0.650635	-0.045898	-0.451172	7.765681	28.334355	57.142176
08699		-4.754825	1.126674	8.643674	-0.046378	0.013875	-0.009417	-0.649658	-0.049805	-0.445557	7.737653	28.343784	57.134852
08700		-4.781579	1.098931	8.639727	-0.049981	0.013490	-0.013829	-0.637207	-0.048096	-0.450684	7.705440	28.355947	57.124752
08701		-4.797313	1.015553	8.735331	-0.058416	0.022179	-0.008463	-0.646973	-0.047852	-0.450439	7.671142	28.370012	57.118753
08702		-4.793062	0.980343	8.718130	-0.061431	0.011917	-0.012057	-0.648193	-0.052734	-0.450439	7.632822	28.381139	57.109637
08703		-4.796680	0.987483	8.659967	-0.060585	0.005964	-0.005990	-0.656250	-0.049072	-0.447754	7.597362	28.385800	57.103813
08704		-4.740764	1.151702	8.665105	-0.072128	-0.006437	-0.011692	-0.641602	-0.060059	-0.444092	7.552245	28.386467	57.093332
08705		-4.782728	1.168889	8.643465	-0.092600	-0.013480	-0.021755	-0.656006	-0.052246	-0.448730	7.492811	28.381259	57.075663
08706		-4.736296	1.234321	8.670583	-0.111469	-0.026979	-0.029836	-0.649902	-0.048096	-0.459961	7.418765	28.371585	57.051735
08707		-4.677864	1.276257	8.600707	-0.120576	-0.023749	-0.033635	-0.647461	-0.044922	-0.457031	7.339263	28.361377	57.025554
08708		-4.727318	1.258102	8.665876	-0.119621	-0.026619	-0.039201	-0.644043	-0.044678	-0.452637	7.257731	28.352528	56.995654
08709		-4.812756	1.158249	8.683923	-0.127319	-0.031984	-0.040404	-0.650879	-0.044434	-0.455566	7.171996	28.338059	56.964466
08710		-4.834709	1.048400	8.809628	-0.122307	-0.049237	-0.035104	-0.642578	-0.050049	-0.453613	7.089361	28.315982	56.935435
08711		-4.796705	1.090928	8.732139	-0.116705	-0.055572	-0.030808	-0.649414	-0.039795	-0.455811	7.011802	28.287347	56.908621
08712		-4.825188	0.985113	8.746862	-0.113095	-0.064228	-0.028120	-0.645508	-0.034912	-0.457764	6.936085	28.256190	56.883004
08713		-4.802708	1.002660	8.777459	-0.109665	-0.070508	-0.024005	-0.648193	-0.044678	-0.450439	6.864160	28.218530	56.859517
