// General information: 
//  MT Manager version: 2022.2.0 
//  XDA version: 2022.2.0 build 7381 rev 124627 built on 2023-07-19
// Device information: 
//  DeviceId: 00B4C223
//  ProductCode: MTW2-3A7G6
//  Firmware Version: 4.6.0
//  Hardware Version: 2.0.0
// Device settings: 
//  Filter Profile: human(46.1)
//  Option Flags: Orientation Smoother Disabled, Position/Velocity Smoother Disabled, Continuous Zero Rotation Update Disabled, AHS Disabled, ICC Disabled
// Coordinate system: ENU
PacketCounter	SampleTimeFine	Acc_X	Acc_Y	Acc_Z	Gyr_X	Gyr_Y	Gyr_Z	Mag_X	Mag_Y	Mag_Z	Roll	Pitch	Yaw
56801		-4.513985	-5.238794	7.169368	0.002688	0.003731	0.023779	-0.804443	0.876465	-0.971680	-36.198272	26.306627	116.428271
56802		-4.496518	-5.260173	7.221534	0.001508	-0.000236	0.020039	-0.798340	0.874268	-0.988525	-36.192375	26.309595	116.436055
56803		-4.506090	-5.255810	7.180371	0.005264	0.001673	0.020587	-0.798096	0.870850	-0.984619	-36.183927	26.316184	116.443677
56804		-4.457303	-5.263535	7.227257	0.000601	0.001321	0.021233	-0.807861	0.868408	-0.981934	-36.178526	26.320328	116.451496
56805		-4.498244	-5.272814	7.191368	0.006020	0.002727	0.019775	-0.804443	0.873291	-0.982422	-36.170004	26.327129	116.458305
56806		-4.495031	-5.237297	7.193305	0.006022	0.002727	0.019777	-0.804199	0.872070	-0.982666	-36.162055	26.331474	116.464847
56807		-4.529392	-5.233542	7.229249	0.005198	0.004661	0.018470	-0.808105	0.868896	-0.973877	-36.154625	26.338726	116.470256
56808		-4.487250	-5.254147	7.204387	0.006107	0.003104	0.017281	-0.797119	0.875244	-0.982422	-36.147245	26.342456	116.475377
56809		-4.505065	-5.251476	7.222537	0.009783	0.004633	0.020328	-0.800537	0.863770	-0.981934	-36.136754	26.350322	116.481758
56810		-4.514859	-5.246937	7.181352	0.002869	0.004487	0.018796	-0.796143	0.869141	-0.981934	-36.131101	26.355250	116.487148
56811		-4.511564	-5.211807	7.183025	0.002282	0.004187	0.014613	-0.795654	0.865234	-0.987305	-36.126141	26.360977	116.490749
56812		-4.518792	-5.229172	7.211692	0.000941	0.002833	0.011245	-0.798096	0.869141	-0.978516	-36.123037	26.362645	116.492868
56813		-4.518030	-5.244663	7.181019	0.000551	0.007679	0.014497	-0.795898	0.873047	-0.983398	-36.119679	26.369950	116.495093
56814		-4.510708	-5.247358	7.222008	-0.001462	0.005648	0.009443	-0.798584	0.876221	-0.988037	-36.118825	26.372367	116.495227
56815		-4.521662	-5.227780	7.210902	-0.002734	0.001305	0.008199	-0.796631	0.862549	-0.981445	-36.117728	26.374594	116.496601
56816		-4.480671	-5.233346	7.216207	-0.001979	0.002360	0.007383	-0.797852	0.869385	-0.979980	-36.117078	26.374845	116.496916
56817		-4.516462	-5.209489	7.181628	-0.005890	0.003067	0.007212	-0.796143	0.876221	-0.980957	-36.118311	26.377554	116.497117
56818		-4.527651	-5.261622	7.208484	0.000659	-0.002690	0.006310	-0.802002	0.866943	-0.983643	-36.115535	26.375154	116.498788
56819		-4.490236	-5.229927	7.174335	-0.006408	-0.000221	0.005151	-0.805664	0.867432	-0.982910	-36.116987	26.375645	116.499164
56820		-4.496978	-5.248078	7.202744	-0.003557	0.003240	0.006891	-0.800537	0.871338	-0.984131	-36.117481	26.376236	116.498902
56821		-4.507566	-5.228891	7.191577	-0.007080	-0.000898	0.003466	-0.797607	0.870361	-0.980469	-36.119591	26.375845	116.498663
56822		-4.491284	-5.230382	7.173347	-0.004982	0.001509	0.006022	-0.805420	0.868408	-0.986572	-36.120802	26.375390	116.498609
56823		-4.522955	-5.244173	7.178276	-0.007232	0.001714	0.003843	-0.799316	0.871582	-0.977539	-36.123350	26.376335	116.497579
56824		-4.516562	-5.231633	7.249677	-0.007079	-0.000898	0.003467	-0.801758	0.874512	-0.977539	-36.125940	26.373953	116.497116
56825		-4.498317	-5.249295	7.201021	-0.004747	-0.000724	0.003145	-0.802734	0.871338	-0.978516	-36.126815	26.373534	116.496645
56826		-4.513122	-5.264210	7.188349	-0.002344	-0.003541	0.004947	-0.801758	0.871338	-0.982178	-36.125896	26.370474	116.497951
56827		-4.500134	-5.233334	7.231387	-0.004594	-0.003336	0.002769	-0.797852	0.865234	-0.977295	-36.126333	26.368719	116.498270
56828		-4.481647	-5.250786	7.183032	-0.001438	-0.005099	0.003756	-0.806885	0.862793	-0.987549	-36.124898	26.364581	116.499551
56829		-4.483467	-5.234537	7.213606	-0.000164	-0.000757	0.005002	-0.802002	0.873047	-0.981689	-36.122716	26.364774	116.500051
56830		-4.498288	-5.249287	7.201045	-0.001508	-0.002109	0.001631	-0.798828	0.871338	-0.988525	-36.122301	26.361344	116.499112
56831		-4.479855	-5.266636	7.152733	0.000070	-0.002990	0.002125	-0.800537	0.870605	-0.973877	-36.120271	26.359531	116.498968
56832		-4.498208	-5.249304	7.201083	-0.004746	-0.000724	0.003146	-0.795166	0.871338	-0.989502	-36.121595	26.357296	116.498290
56833		-4.491910	-5.231423	7.172196	-0.003840	-0.002282	0.001954	-0.793457	0.866211	-0.988037	-36.121963	26.355754	116.497791
56834		-4.486151	-5.285142	7.181163	-0.003840	-0.002282	0.001954	-0.799072	0.867188	-0.982910	-36.122774	26.352440	116.497087
56835		-4.514750	-5.248765	7.218459	-0.009409	-0.001070	0.003792	-0.795410	0.875000	-0.979736	-36.126115	26.352079	116.497080
56836		-4.508577	-5.231021	7.189393	-0.003238	0.001384	0.001515	-0.805420	0.873779	-0.982422	-36.127293	26.350356	116.494770
56837		-4.512910	-5.265593	7.187470	-0.008117	-0.007472	-0.000655	-0.808838	0.872314	-0.983398	-36.129841	26.345531	116.494880
56838		-4.482980	-5.236333	7.212605	-0.003687	-0.004893	0.001578	-0.795898	0.868652	-0.984619	-36.130207	26.340971	116.494972
56839		-4.497465	-5.251359	7.200048	-0.003687	-0.004893	0.001578	-0.810791	0.875244	-0.984619	-36.130137	26.338093	116.495263
56840		-4.488827	-5.254850	7.241310	-0.003004	-0.000848	-0.001362	-0.798096	0.875977	-0.979248	-36.131451	26.334453	116.492316
56841		-4.505589	-5.248581	7.158588	-0.004593	-0.003336	0.002771	-0.818115	0.875000	-0.988037	-36.131887	26.332699	116.492637
56842		-4.492470	-5.217837	7.201626	-0.002179	-0.002784	-0.000054	-0.793701	0.870850	-0.982666	-36.132099	26.328647	116.491098
56843		-4.496640	-5.252055	7.200056	0.000375	-0.008214	0.001371	-0.796387	0.866211	-0.986328	-36.129194	26.324162	116.492534
56844		-4.481499	-5.237117	7.212957	0.001730	-0.003493	0.000116	-0.807129	0.865479	-0.994385	-36.126997	26.319883	116.491356
56845		-4.479360	-5.253503	7.182472	-0.008187	-0.004481	-0.002777	-0.792969	0.866455	-0.991943	-36.130571	26.315724	116.489244
56846		-4.479006	-5.253871	7.182424	-0.000601	-0.003666	0.000439	-0.798096	0.871582	-0.983887	-36.129600	26.311512	116.488301
56847		-4.480670	-5.237944	7.212871	-0.004663	-0.000346	0.000647	-0.809082	0.870605	-0.981689	-36.131062	26.310424	116.486398
56848		-4.495387	-5.253132	7.200053	-0.004582	0.000033	-0.001854	-0.804688	0.872559	-0.973633	-36.133507	26.307187	116.482881
56849		-4.520331	-5.248888	7.176482	-0.002331	-0.000173	0.000324	-0.796631	0.866211	-0.981934	-36.133735	26.306070	116.480747
56850		-4.474318	-5.220937	7.183386	-0.010150	0.001244	-0.000013	-0.796387	0.874268	-0.980225	-36.139147	26.304061	116.477726
56851		-4.493501	-5.270518	7.168670	-0.004429	-0.002578	-0.002231	-0.813721	0.875244	-0.980469	-36.140760	26.300967	116.475180
56852		-4.490525	-5.220942	7.200590	-0.010741	0.000948	-0.004199	-0.799316	0.873535	-0.988281	-36.147414	26.297448	116.470113
56853		-4.511594	-5.254620	7.216172	-0.006311	0.003526	-0.001968	-0.803467	0.881348	-0.982422	-36.151064	26.297266	116.465401
56854		-4.480533	-5.241600	7.210299	-0.007217	0.005083	-0.000774	-0.802490	0.866455	-0.981445	-36.155594	26.296859	116.460548
56855		-4.480859	-5.242155	7.209693	-0.007216	0.005083	-0.000774	-0.807129	0.872070	-0.975098	-36.159750	26.297801	116.455866
56856		-4.491468	-5.223375	7.198237	-0.009628	0.004530	0.002051	-0.797852	0.862061	-0.991211	-36.164912	26.298129	116.452685
56857		-4.502781	-5.276327	7.224377	-0.010452	0.006467	0.000744	-0.803467	0.869385	-0.981201	-36.170806	26.300223	116.448264
56858		-4.496861	-5.258784	7.195005	-0.005638	0.004201	-0.000281	-0.808838	0.868164	-0.982422	-36.174150	26.299649	116.444007
56859		-4.486290	-5.207068	7.167507	-0.011053	0.002800	0.001182	-0.807617	0.872070	-0.983887	-36.179675	26.300195	116.441195
56860		-4.497367	-5.260227	7.193633	-0.012548	0.004062	-0.001810	-0.806641	0.871582	-0.985596	-36.187295	26.299080	116.436208
56861		-4.512400	-5.275880	7.180242	-0.008792	0.005965	-0.001263	-0.807129	0.874512	-0.979980	-36.192613	26.300262	116.430939
56862		-4.491654	-5.243646	7.163425	-0.010298	0.003855	0.000368	-0.807129	0.872314	-0.978760	-36.198410	26.299829	116.427155
56863		-4.525063	-5.241880	7.198522	-0.009544	0.004910	-0.000447	-0.802002	0.872070	-0.987061	-36.203796	26.300798	116.422706
56864		-4.498685	-5.263054	7.190741	-0.006542	0.005757	0.000915	-0.795898	0.869385	-0.979736	-36.207626	26.301473	116.418488
56865		-4.499060	-5.263477	7.190197	-0.005636	0.004201	-0.000279	-0.803223	0.870117	-0.980225	-36.210617	26.302171	116.414393
56866		-4.499347	-5.263895	7.189711	-0.005636	0.004201	-0.000279	-0.798340	0.875732	-0.986572	-36.213937	26.301761	116.410149
56867		-4.484835	-5.249632	7.201777	-0.007884	0.004409	-0.002455	-0.803223	0.868164	-0.979980	-36.218747	26.301817	116.404853
56868		-4.468570	-5.251284	7.183389	-0.003387	0.003994	0.001898	-0.800293	0.866699	-0.981689	-36.220239	26.302084	116.401814
56869		-4.502035	-5.249251	7.218656	-0.009542	0.004910	-0.000445	-0.794678	0.874268	-0.985352	-36.225624	26.303052	116.397366
56870		-4.500695	-5.265797	7.187474	-0.005869	0.006431	0.002603	-0.797607	0.867188	-0.981934	-36.228774	26.304717	116.393774
56871		-4.476293	-5.270686	7.210289	-0.007376	0.004320	0.004233	-0.806885	0.871094	-0.979492	-36.231751	26.306997	116.391959
56872		-4.495490	-5.248297	7.157610	-0.005868	0.006431	0.002604	-0.797852	0.873779	-0.976807	-36.234895	26.308695	116.388370
56873		-4.512525	-5.247383	7.174979	-0.006470	0.002765	0.003038	-0.801514	0.876221	-0.978760	-36.237366	26.309851	116.386527
56874		-4.471320	-5.253300	7.180203	-0.000987	0.001174	0.003696	-0.799316	0.864502	-0.989014	-36.236579	26.309531	116.385489
56875		-4.483613	-5.218064	7.199657	-0.006388	0.003146	0.000538	-0.804443	0.872070	-0.984375	-36.239638	26.310016	116.382213
56876		-4.504919	-5.251314	7.215356	-0.003235	0.001382	0.001519	-0.802979	0.867676	-0.978760	-36.240659	26.309087	116.379980
56877		-4.470053	-5.270153	7.148733	-0.006154	0.000917	-0.002343	-0.802979	0.870361	-0.984863	-36.243868	26.307566	116.376061
56878		-4.488396	-5.253249	7.196919	-0.002330	-0.000173	0.000324	-0.805420	0.860840	-0.987305	-36.244378	26.305547	116.373802
56879		-4.503148	-5.268202	7.184175	-0.002330	-0.000173	0.000324	-0.801758	0.866943	-0.989502	-36.244604	26.304426	116.371670
56880		-4.486663	-5.269518	7.166164	-0.001659	0.000500	0.002010	-0.802246	0.869629	-0.980957	-36.244451	26.303323	116.370029
56881		-4.488688	-5.253614	7.196471	-0.005647	0.000827	0.004345	-0.801758	0.872803	-0.975098	-36.245827	26.304026	116.369592
56882		-4.482556	-5.235503	7.167631	0.000671	0.000674	0.001686	-0.808838	0.862305	-0.985107	-36.244437	26.302927	116.367720
56883		-4.518590	-5.283151	7.170998	-0.001741	0.000118	0.004511	-0.806641	0.876465	-0.986572	-36.243419	26.303359	116.367636
56884		-4.505759	-5.252378	7.214057	-0.003083	-0.001229	0.001139	-0.802979	0.869629	-0.979980	-36.243984	26.301232	116.366204
56885		-4.518912	-5.283239	7.170730	-0.001892	0.002729	0.004892	-0.807617	0.863281	-0.977539	-36.243402	26.303000	116.365330
56886		-4.499924	-5.234315	7.184996	-0.003988	0.000327	0.002335	-0.812012	0.872803	-0.982910	-36.244469	26.302034	116.363928
56887		-4.489859	-5.253878	7.195547	-0.003988	0.000327	0.002335	-0.797363	0.867432	-0.980713	-36.245269	26.301825	116.362643
56888		-4.473554	-5.255436	7.177248	-0.008798	0.002591	0.003365	-0.810303	0.868408	-0.986816	-36.249226	26.302288	116.360921
56889		-4.505173	-5.269357	7.182057	-0.006400	-0.000229	0.005160	-0.800781	0.871338	-0.986084	-36.250670	26.302780	116.361303
56890		-4.505445	-5.269576	7.181727	-0.005646	0.000827	0.004346	-0.802246	0.869873	-0.977539	-36.252297	26.302792	116.360755
56891		-4.491069	-5.255002	7.193971	-0.006550	0.002382	0.005542	-0.800537	0.868408	-0.983398	-36.254177	26.304619	116.360347
56892		-4.481363	-5.274748	7.204166	-0.009701	0.004147	0.004562	-0.793457	0.870361	-0.981934	-36.258629	26.306271	116.358658
56893		-4.518885	-5.234975	7.200017	-0.004302	0.002173	0.007720	-0.797119	0.872803	-0.979248	-36.258689	26.308739	116.359451
56894		-4.497201	-5.289922	7.190563	-0.008125	0.003265	0.005053	-0.807373	0.866699	-0.976563	-36.261968	26.310181	116.358354
56895		-4.493203	-5.256052	7.191872	-0.008207	0.002882	0.007555	-0.806885	0.862305	-0.987305	-36.264422	26.312921	116.358793
56896		-4.477347	-5.257445	7.173410	-0.006027	0.005666	0.007613	-0.800537	0.871338	-0.980225	-36.266313	26.316369	116.358108
56897		-4.525950	-5.269940	7.195982	-0.007452	0.003937	0.006741	-0.808594	0.874756	-0.978516	-36.268697	26.319321	116.357729
56898		-4.488934	-5.238425	7.161502	-0.005944	0.006049	0.005113	-0.806152	0.870361	-0.978271	-36.271171	26.322131	116.355614
56899		-4.480959	-5.242178	7.202295	-0.009399	-0.001074	0.003800	-0.802734	0.868652	-0.971924	-36.274503	26.321770	116.355614
56900		-4.496178	-5.257173	7.189192	-0.003696	0.005838	0.007290	-0.798828	0.876709	-0.979492	-36.275147	26.325249	116.354704
56901		-4.526395	-5.286807	7.163376	-0.008204	0.002882	0.007557	-0.802734	0.867432	-0.985352	-36.277599	26.327990	116.355144
56902		-4.480781	-5.258785	7.170283	-0.007218	0.001710	0.003859	-0.802246	0.865479	-0.988037	-36.280351	26.328432	116.354028
56903		-4.499530	-5.241792	7.218331	-0.004972	0.001499	0.006036	-0.802734	0.873779	-0.985107	-36.281066	26.330018	116.354207
56904		-4.498182	-5.257925	7.187388	-0.005792	0.003438	0.004732	-0.801270	0.872559	-0.977295	-36.283081	26.331581	116.352892
56905		-4.513400	-5.272757	7.174393	-0.002642	0.001671	0.005711	-0.802246	0.863770	-0.980713	-36.282566	26.333136	116.352839
56906		-4.528755	-5.287462	7.161401	-0.004448	0.004781	0.008107	-0.797119	0.871826	-0.973389	-36.283260	26.336495	116.352757
56907		-4.499781	-5.258010	7.186325	-0.004889	0.001882	0.003535	-0.794434	0.866699	-0.977783	-36.284565	26.337410	116.351502
56908		-4.478820	-5.225276	7.170070	-0.006248	-0.002839	0.004780	-0.800049	0.868408	-0.975830	-36.285771	26.336153	116.352590
56909		-4.500043	-5.258363	7.185902	-0.002411	-0.000556	0.002827	-0.796631	0.872559	-0.983887	-36.285408	26.335702	116.351893
56910		-4.489970	-5.277820	7.196553	-0.002411	-0.000556	0.002827	-0.805176	0.873047	-0.982666	-36.285236	26.334864	116.351113
56911		-4.529788	-5.288046	7.160316	-0.004739	-0.000728	0.003152	-0.799805	0.867676	-0.987793	-36.286105	26.334443	116.350649
56912		-4.485786	-5.243909	7.198028	-0.004216	0.002554	0.005223	-0.808838	0.875977	-0.983643	-36.286942	26.335884	116.349928
56913		-4.507341	-5.276798	7.213797	-0.001821	-0.000269	0.007016	-0.803711	0.870361	-0.981201	-36.285331	26.336986	116.351281
56914		-4.469936	-5.244934	7.179834	-0.000985	0.001171	0.003700	-0.803223	0.869873	-0.980957	-36.284423	26.337295	116.350304
56915		-4.484759	-5.259863	7.167004	-0.006083	-0.002071	-0.000223	-0.805176	0.873047	-0.982178	-36.286608	26.335110	116.348608
56916		-4.499742	-5.274810	7.154059	-0.003543	0.003225	0.006912	-0.801514	0.866943	-0.984619	-36.286770	26.337480	116.348510
56917		-4.477127	-5.263431	7.207754	-0.001887	0.002726	0.004899	-0.800537	0.870117	-0.973633	-36.286185	26.339248	116.347639
56918		-4.502507	-5.258766	7.184064	-0.004969	0.001498	0.006039	-0.799316	0.877197	-0.988037	-36.287071	26.340547	116.347747
56919		-4.488144	-5.243959	7.196522	-0.001066	0.000786	0.006203	-0.800537	0.874023	-0.976074	-36.285391	26.341861	116.348282
56920		-4.503244	-5.258634	7.183698	-0.003312	0.000999	0.004026	-0.799316	0.882324	-0.983887	-36.285696	26.342272	116.347546
56921		-4.486856	-5.259917	7.165652	-0.003164	-0.001612	0.003642	-0.794678	0.878906	-0.983398	-36.285401	26.341610	116.347668
56922		-4.503672	-5.258692	7.183388	-0.002640	0.001670	0.005714	-0.797607	0.875488	-0.984375	-36.285043	26.342929	116.347550
56923		-4.520507	-5.257534	7.201063	-0.004738	-0.000728	0.003153	-0.804688	0.875000	-0.986816	-36.285911	26.342509	116.347086
56924		-4.487622	-5.260055	7.165071	-0.003394	0.000614	0.006529	-0.800537	0.866943	-0.982178	-36.285613	26.343644	116.347789
56925		-4.496174	-5.262360	7.223993	-0.004886	0.001883	0.003538	-0.799805	0.875732	-0.985596	-36.286916	26.344560	116.346536
56926		-4.488347	-5.260188	7.164520	-0.002639	0.001670	0.005715	-0.809814	0.878906	-0.980957	-36.286542	26.345928	116.346424
56927		-4.495170	-5.278320	7.192939	-0.002639	0.001670	0.005715	-0.799316	0.872314	-0.983887	-36.286024	26.347485	116.346373
56928		-4.474415	-5.245315	7.176765	-0.002639	0.001670	0.005715	-0.802734	0.868652	-0.976563	-36.285648	26.348875	116.346263
56929		-4.495964	-5.278316	7.192446	-0.004885	0.001883	0.003538	-0.802002	0.872070	-0.978027	-36.286950	26.349791	116.345010
56930		-4.491828	-5.244109	7.194114	-0.002802	0.000900	0.010721	-0.795654	0.878174	-0.985352	-36.285388	26.352543	116.347773
56931		-4.513382	-5.277006	7.209867	-0.004738	-0.000727	0.003153	-0.803223	0.870117	-0.984375	-36.286255	26.352124	116.347309
56932		-4.492481	-5.244126	7.193693	-0.001884	0.002725	0.004902	-0.797363	0.865234	-0.979248	-36.285797	26.353768	116.346386
56933		-4.482798	-5.263615	7.204094	-0.005786	0.003439	0.004738	-0.801025	0.866211	-0.984131	-36.287602	26.355810	116.345162
56934		-4.524712	-5.257965	7.198107	-0.007212	0.001712	0.003864	-0.804688	0.869385	-0.975342	-36.290254	26.356653	116.344089
56935		-4.481773	-5.279994	7.172738	-0.003392	0.000614	0.006531	-0.793213	0.866211	-0.985352	-36.289803	26.357998	116.344858
56936		-4.508730	-5.259342	7.179738	-0.003164	-0.001612	0.003643	-0.801514	0.878174	-0.987061	-36.289625	26.357253	116.344935
56937		-4.483801	-5.264021	7.203173	0.000819	-0.001940	0.001303	-0.795898	0.878662	-0.978760	-36.287528	26.355646	116.343977
56938		-4.508908	-5.259222	7.179715	-0.002637	0.001669	0.005717	-0.795898	0.877441	-0.978516	-36.287119	26.357140	116.343887
56939		-4.499089	-5.278583	7.190296	-0.001737	0.000114	0.004517	-0.796875	0.870605	-0.980225	-36.286096	26.357572	116.343807
56940		-4.502932	-5.240985	7.150833	-0.003082	-0.001226	0.001140	-0.800049	0.867920	-0.976318	-36.286500	26.356198	116.342450
56941		-4.509374	-5.259310	7.179357	-0.003164	-0.001612	0.003643	-0.804932	0.870850	-0.976807	-36.286205	26.355537	116.342572
56942		-4.515884	-5.277574	7.207883	-0.002409	-0.000556	0.002829	-0.800049	0.873779	-0.982666	-36.285945	26.355069	116.341829
56943		-4.483014	-5.280093	7.171890	-0.004965	0.001498	0.006043	-0.801758	0.880371	-0.984375	-36.286654	26.356657	116.342012
56944		-4.501745	-5.263057	7.220014	-0.004883	0.001884	0.003540	-0.803223	0.870850	-0.970215	-36.288058	26.357579	116.340722
56945		-4.510343	-5.259828	7.178369	-0.006310	0.000158	0.002666	-0.795654	0.869629	-0.983398	-36.290086	26.357404	116.339672
56946		-4.512345	-5.244002	7.208720	-0.000982	0.001169	0.003703	-0.799561	0.864746	-0.980713	-36.289090	26.358070	116.338735
56947		-4.485792	-5.264737	7.201410	-0.006245	-0.002838	0.004784	-0.804199	0.874512	-0.977051	-36.290093	26.357229	116.339909
56948		-4.479586	-5.246615	7.172588	-0.003390	0.000613	0.006533	-0.798584	0.875000	-0.975098	-36.289726	26.358617	116.340642
56949		-4.471459	-5.250303	7.213609	-0.005474	0.001600	-0.000651	-0.796387	0.875488	-0.978760	-36.292276	26.357982	116.337337
56950		-4.511164	-5.260527	7.177340	-0.002263	-0.003167	0.002443	-0.801514	0.869141	-0.975342	-36.291556	26.356253	116.337420
56951		-4.496299	-5.245933	7.189989	-0.003836	-0.002282	0.001955	-0.800049	0.869629	-0.985840	-36.291920	26.354709	116.336927
56952		-4.502711	-5.264211	7.218571	-0.001590	-0.002497	0.004132	-0.802002	0.872070	-0.975342	-36.290531	26.353881	116.337580
56953		-4.525879	-5.275381	7.164596	-0.000000	0.000000	0.000000	-0.797363	0.864990	-0.980957	-36.289527	26.352728	116.335216
56954		-4.494490	-5.261732	7.159533	0.000803	-0.005323	0.005923	-0.801758	0.868896	-0.984619	-36.285881	26.351224	116.337894
56955		-4.469542	-5.266268	7.183099	-0.001589	-0.002497	0.004132	-0.808838	0.872803	-0.978027	-36.284424	26.350320	116.338604
56956		-4.494480	-5.261582	7.159649	-0.003082	-0.001226	0.001141	-0.796875	0.867920	-0.976074	-36.284785	26.349102	116.337266
56957		-4.511068	-5.260396	7.177498	-0.000835	-0.001442	0.003318	-0.806641	0.865723	-0.982910	-36.283258	26.348408	116.337156
56958		-4.486137	-5.265106	7.200926	-0.001508	-0.002111	0.001629	-0.802979	0.868408	-0.981201	-36.282455	26.346970	116.336401
56959		-4.494510	-5.261644	7.159585	-0.003162	-0.001612	0.003644	-0.797607	0.879150	-0.981689	-36.282159	26.346308	116.336524
56960		-4.479811	-5.246990	7.172173	-0.002408	-0.000556	0.002830	-0.799316	0.874756	-0.982422	-36.281857	26.346013	116.335821
56961		-4.471551	-5.250550	7.213372	-0.002408	-0.000556	0.002830	-0.799072	0.867188	-0.980713	-36.281492	26.345563	116.335126
56962		-4.517905	-5.279018	7.205559	-0.010289	0.000488	0.005011	-0.798096	0.864746	-0.976563	-36.285373	26.346502	116.335132
56963		-4.501613	-5.280462	7.187336	-0.001734	0.000113	0.004519	-0.801758	0.871094	-0.987061	-36.284348	26.346934	116.335054
56964		-4.507245	-5.227037	7.178361	-0.006227	0.000545	0.000165	-0.796631	0.872314	-0.989746	-36.287017	26.346272	116.332530
56965		-4.528595	-5.260155	7.194064	-0.002488	-0.000943	0.005334	-0.801025	0.875977	-0.980225	-36.286060	26.346493	116.333271
56966		-4.487346	-5.266128	7.199425	-0.003307	0.000998	0.004032	-0.797852	0.874268	-0.979248	-36.286241	26.347378	116.332607
56967		-4.497750	-5.246740	7.188493	-0.004061	-0.000057	0.004846	-0.801270	0.876221	-0.981201	-36.286446	26.347842	116.332761
56968		-4.498019	-5.246882	7.188221	-0.005634	0.000828	0.004359	-0.801758	0.865479	-0.984619	-36.287852	26.348772	116.332349
56969		-4.455022	-5.268854	7.162936	-0.001734	0.000113	0.004520	-0.804443	0.870850	-0.982422	-36.286827	26.349204	116.332272
56970		-4.496790	-5.263086	7.157092	-0.010287	0.000489	0.005013	-0.800049	0.876221	-0.988281	-36.290685	26.350210	116.332246
56971		-4.513594	-5.262198	7.174587	-0.003226	0.001385	0.001528	-0.797119	0.873535	-0.980469	-36.291413	26.350215	116.330145
56972		-4.503401	-5.281843	7.185201	-0.004444	-0.005947	0.002384	-0.798340	0.872803	-0.984131	-36.291447	26.347383	116.331273
56973		-4.505188	-5.265862	7.215820	0.000513	-0.000105	0.006697	-0.800781	0.862061	-0.990234	-36.288599	26.348453	116.332400
56974		-4.488787	-5.267156	7.197774	-0.007734	-0.001565	0.001796	-0.797363	0.869141	-0.982422	-36.291382	26.347457	116.331501
56975		-4.515599	-5.246746	7.204685	-0.004060	-0.000058	0.004848	-0.804443	0.871094	-0.986328	-36.291586	26.347921	116.331657
56976		-4.472608	-5.268721	7.179391	-0.003306	0.000998	0.004033	-0.795654	0.866211	-0.979248	-36.291746	26.348883	116.331004
56977		-4.505984	-5.266270	7.215025	-0.002487	-0.000944	0.005335	-0.799805	0.871826	-0.983398	-36.290788	26.349104	116.331746
56978		-4.499866	-5.247968	7.186272	-0.002632	0.001667	0.005723	-0.802734	0.868652	-0.980713	-36.290284	26.350961	116.331715
56979		-4.483640	-5.249272	7.168109	-0.006386	-0.000227	0.005175	-0.805664	0.872314	-0.974609	-36.291717	26.351458	116.332104
56980		-4.505236	-5.282267	7.183739	-0.001877	0.002722	0.004909	-0.801270	0.873779	-0.978760	-36.291140	26.353536	116.331277
56981		-4.500808	-5.248190	7.185520	-0.006241	-0.002838	0.004788	-0.802246	0.872803	-0.981689	-36.292140	26.352696	116.332454
56982		-4.505638	-5.282493	7.183320	-0.004059	-0.000058	0.004849	-0.801758	0.866699	-0.981934	-36.292356	26.353494	116.332635
56983		-4.501207	-5.248417	7.185104	-0.004059	-0.000058	0.004849	-0.805664	0.875977	-0.983643	-36.292559	26.353959	116.332792
56984		-4.489595	-5.283856	7.164998	-0.003305	0.000998	0.004034	-0.803711	0.875732	-0.985107	-36.292701	26.354981	116.332096
56985		-4.501741	-5.248546	7.184675	-0.004059	-0.000058	0.004849	-0.796143	0.878418	-0.985840	-36.292904	26.355446	116.332252
56986		-4.506731	-5.282818	7.182396	-0.004123	0.002940	0.002733	-0.798340	0.872803	-0.978027	-36.294140	26.356943	116.330206
56987		-4.517081	-5.263276	7.171602	-0.000096	-0.003773	0.007125	-0.801758	0.878662	-0.972656	-36.290927	26.356464	116.332942
56988		-4.492432	-5.267871	7.194977	-0.001876	0.002722	0.004910	-0.797119	0.873291	-0.987793	-36.290344	26.358608	116.332132
56989		-4.509126	-5.266834	7.212650	-0.006835	-0.003118	0.000595	-0.803223	0.877930	-0.986816	-36.292597	26.356217	116.331254
56990		-4.492488	-5.268333	7.194603	-0.003914	-0.002668	0.004462	-0.800781	0.877441	-0.979004	-36.292368	26.355738	116.332159
56991		-4.502837	-5.248866	7.183755	-0.002629	0.001666	0.005725	-0.808838	0.877686	-0.983643	-36.291841	26.357296	116.332114
56992		-4.507852	-5.283023	7.181541	-0.004812	-0.001114	0.005665	-0.807373	0.868652	-0.974854	-36.292111	26.357952	116.333116
56993		-4.486896	-5.250123	7.165449	-0.003383	0.000610	0.006540	-0.797852	0.875977	-0.982178	-36.291652	26.359299	116.333892
56994		-4.508491	-5.282968	7.181180	-0.000977	0.001167	0.003708	-0.807617	0.876221	-0.982910	-36.290555	26.360359	116.332997
56995		-4.503982	-5.248720	7.183144	-0.000080	-0.000388	0.002505	-0.804688	0.877441	-0.986328	-36.288959	26.359876	116.332070
56996		-4.508722	-5.282897	7.181088	-0.003080	-0.001225	0.001143	-0.800049	0.865967	-0.979248	-36.289250	26.358978	116.330764
56997		-4.493931	-5.268346	7.193692	-0.003160	-0.001612	0.003647	-0.799316	0.872070	-0.974854	-36.288951	26.358318	116.330890
56998		-4.494024	-5.268400	7.193594	-0.002406	-0.000557	0.002833	-0.799805	0.868164	-0.980469	-36.288581	26.358312	116.330199
56999		-4.477659	-5.269679	7.175539	-0.003303	0.000998	0.004036	-0.807617	0.870361	-0.980713	-36.288714	26.358989	116.329537
57000		-4.492757	-5.284324	7.162671	-0.000977	0.001167	0.003708	-0.802246	0.872559	-0.970215	-36.287612	26.360085	116.328626
57001		-4.463318	-5.254970	7.187981	-0.002405	-0.000557	0.002833	-0.803711	0.878418	-0.981689	-36.287245	26.359636	116.327932
57002		-4.509572	-5.283065	7.180430	-0.002342	-0.003555	0.004949	-0.801270	0.866455	-0.978027	-36.285852	26.358982	116.329543
57003		-4.494846	-5.268456	7.193039	-0.003223	0.001386	0.001531	-0.801758	0.879150	-0.985107	-36.286578	26.358989	116.327443
57004		-4.521729	-5.247787	7.200080	-0.001731	0.000111	0.004523	-0.804688	0.870117	-0.979248	-36.285543	26.359898	116.327337
57005		-4.473808	-5.235623	7.176953	-0.002183	-0.002779	-0.000061	-0.803223	0.874512	-0.973633	-36.285337	26.357441	116.325993
57006		-4.495120	-5.268570	7.192785	-0.000976	0.001166	0.003709	-0.798584	0.863525	-0.980713	-36.284230	26.358569	116.325131
57007		-4.490586	-5.234486	7.194647	-0.005485	-0.001781	0.003976	-0.809082	0.862061	-0.977783	-36.285160	26.357942	116.325490
57008		-4.501919	-5.286955	7.221062	-0.001730	0.000111	0.004524	-0.805908	0.872559	-0.982910	-36.284110	26.358869	116.325327
57009		-4.489189	-5.250501	7.163735	-0.004731	-0.000725	0.003162	-0.807617	0.867432	-0.978760	-36.284971	26.358453	116.324866
57010		-4.510668	-5.283618	7.179335	-0.005627	0.000829	0.004365	-0.808350	0.870850	-0.985840	-36.286313	26.359672	116.324473
57011		-4.497824	-5.253417	7.222254	-0.007874	0.001049	0.002189	-0.799316	0.864014	-0.982910	-36.289496	26.359746	116.322839
57012		-4.489776	-5.251116	7.162916	-0.000095	-0.003776	0.007127	-0.799561	0.873291	-0.988281	-36.286256	26.359786	116.325567
57013		-4.511115	-5.284025	7.178754	-0.004651	-0.000337	0.000657	-0.809082	0.869385	-0.982910	-36.287711	26.358701	116.323668
57014		-4.498050	-5.253609	7.221974	-0.001587	-0.002500	0.004135	-0.801270	0.868164	-0.978760	-36.286227	26.358328	116.324413
57015		-4.501028	-5.303689	7.189301	-0.003834	-0.002280	0.001958	-0.802734	0.868408	-0.974121	-36.286589	26.356787	116.323920
57016		-4.496241	-5.269658	7.191288	-0.001508	-0.002111	0.001630	-0.799316	0.867676	-0.983643	-36.285699	26.355748	116.323263
57017		-4.481329	-5.254976	7.204076	0.000064	-0.002999	0.002116	-0.803467	0.878174	-0.981201	-36.283670	26.353928	116.323124
57018		-4.489617	-5.251406	7.162803	-0.003833	-0.002280	0.001959	-0.805664	0.877197	-0.977539	-36.284003	26.352939	116.322677
57019		-4.520887	-5.264888	7.168019	-0.001444	-0.005111	0.003746	-0.810303	0.873047	-0.979004	-36.282111	26.350696	116.324177
57020		-4.506025	-5.250153	7.180814	-0.000079	-0.000389	0.002505	-0.802246	0.871338	-0.986328	-36.280487	26.350771	116.323345
57021		-4.495771	-5.269676	7.191568	-0.002040	-0.005389	-0.000449	-0.804199	0.871338	-0.979736	-36.279850	26.346977	116.322787
57022		-4.487225	-5.273332	7.232937	-0.000832	-0.001445	0.003321	-0.800781	0.868652	-0.982422	-36.278286	26.346859	116.322634
57023		-4.512112	-5.268665	7.209445	-0.006080	-0.002059	-0.000217	-0.800293	0.869629	-0.976074	-36.280469	26.344682	116.320936
57024		-4.480545	-5.255550	7.204145	-0.002183	-0.002778	-0.000060	-0.808594	0.871582	-0.986328	-36.280224	26.342806	116.319605
57025		-4.510092	-5.285007	7.178674	-0.003079	-0.001224	0.001144	-0.802246	0.874023	-0.976318	-36.280517	26.341476	116.318293
57026		-4.488692	-5.252257	7.162758	-0.002183	-0.002778	-0.000060	-0.805176	0.872314	-0.982666	-36.280273	26.339609	116.317000
57027		-4.480236	-5.256181	7.203877	-0.006222	0.000551	0.000172	-0.803955	0.871094	-0.982178	-36.282886	26.338769	116.314516
57028		-4.478624	-5.272097	7.173160	0.001415	-0.001666	0.005497	-0.798340	0.872559	-0.975830	-36.279491	26.339310	116.315611
57029		-4.505217	-5.251562	7.180291	-0.009080	-0.002894	-0.001578	-0.793701	0.870605	-0.977539	-36.283564	26.336286	116.313528
57030		-4.480209	-5.256792	7.203447	-0.001650	0.000499	0.002020	-0.796875	0.870605	-0.979004	-36.283087	26.336663	116.312198
57031		-4.490386	-5.237461	7.192607	-0.004650	-0.000336	0.000659	-0.801025	0.864258	-0.976318	-36.284540	26.335578	116.310300
57032		-4.495074	-5.271780	7.190462	-0.002261	-0.003168	0.002446	-0.797119	0.872314	-0.981201	-36.283687	26.334403	116.310330
57033		-4.505027	-5.252464	7.179751	-0.004508	-0.002947	0.000269	-0.805176	0.868652	-0.981689	-36.284709	26.331981	116.309219
57034		-4.481569	-5.241559	7.233827	0.000960	-0.004554	0.000912	-0.802002	0.868408	-0.980713	-36.282126	26.329663	116.308996
57035		-4.489658	-5.237926	7.192723	0.000221	-0.002221	-0.002895	-0.803955	0.870117	-0.979248	-36.281284	26.326504	116.305980
57036		-4.510454	-5.270947	7.208814	0.002013	-0.005330	-0.005304	-0.806641	0.867676	-0.987305	-36.279379	26.321717	116.302850
57037		-4.466725	-5.292858	7.184020	0.003364	-0.003996	-0.001923	-0.798340	0.871826	-0.983887	-36.276216	26.318066	116.301007
57038		-4.504618	-5.236695	7.211629	0.002078	-0.008329	-0.003187	-0.802490	0.866211	-0.977539	-36.273278	26.312637	116.299871
57039		-4.502241	-5.252475	7.181490	0.004260	-0.005551	-0.003128	-0.802979	0.872559	-0.979736	-36.269615	26.307861	116.297994
57040		-4.519846	-5.235214	7.230549	0.005157	-0.007105	-0.004332	-0.806641	0.877197	-0.981201	-36.265390	26.302599	116.296242
57041		-4.461024	-5.242536	7.218569	0.000585	-0.007053	-0.006177	-0.803711	0.864258	-0.977539	-36.264278	26.296096	116.293361
57042		-4.506405	-5.270767	7.211478	0.002910	-0.006885	-0.006507	-0.800537	0.869873	-0.982666	-36.261863	26.290206	116.290451
57043		-4.472639	-5.273311	7.176001	0.000364	-0.004832	-0.003283	-0.804688	0.873779	-0.985596	-36.260588	26.285710	116.288222
57044		-4.503459	-5.286726	7.181572	0.003508	-0.006607	-0.002311	-0.811035	0.864746	-0.980225	-36.256909	26.281410	116.287177
57045		-4.456596	-5.258552	7.189532	0.003586	-0.006218	-0.004816	-0.802002	0.874512	-0.980957	-36.253906	26.275754	116.284681
57046		-4.470716	-5.273169	7.177303	0.002834	-0.007274	-0.004000	-0.804443	0.868652	-0.983154	-36.250895	26.270547	116.283057
57047		-4.463567	-5.254950	7.149135	0.000509	-0.007442	-0.003670	-0.805420	0.870605	-0.983154	-36.249189	26.264713	116.281614
57048		-4.475724	-5.291488	7.206730	0.002757	-0.007663	-0.001494	-0.803223	0.872314	-0.981201	-36.245582	26.260201	116.281302
57049		-4.443724	-5.278077	7.201877	-0.001893	-0.008000	-0.000834	-0.802734	0.876465	-0.977051	-36.244513	26.255071	116.281531
57050		-4.482895	-5.287762	7.166312	0.007407	-0.007325	-0.002155	-0.808350	0.871094	-0.976563	-36.238469	26.250499	116.281441
57051		-4.467438	-5.272816	7.179604	0.003510	-0.006607	-0.002310	-0.803467	0.865234	-0.981934	-36.234872	26.245512	116.280382
57052		-4.483368	-5.271191	7.198198	0.008151	-0.009657	0.001653	-0.809326	0.869385	-0.984131	-36.227137	26.241133	116.282493
57053		-4.480987	-5.286583	7.168374	0.006733	-0.007993	-0.003843	-0.802734	0.865234	-0.990723	-36.221813	26.234987	116.281166
57054		-4.450605	-5.256631	7.194646	0.012803	-0.009320	0.000993	-0.805420	0.874512	-0.983643	-36.211606	26.230573	116.282280
57055		-4.471244	-5.288497	7.211705	0.015882	-0.008096	-0.000152	-0.802002	0.866211	-0.979492	-36.200183	26.225629	116.282892
57056		-4.441489	-5.252027	7.137720	0.015662	-0.005873	0.002741	-0.810547	0.866211	-0.983154	-36.188538	26.223400	116.284408
57057		-4.495450	-5.281105	7.190720	0.018057	-0.008704	0.004531	-0.802734	0.861816	-0.986572	-36.174702	26.219759	116.287661
57058		-4.448735	-5.251362	7.199649	0.022854	-0.010978	0.003486	-0.807861	0.869385	-0.983154	-36.157907	26.215412	116.290784
57059		-4.456772	-5.245844	7.160054	0.026467	-0.006475	0.004416	-0.806885	0.863525	-0.978516	-36.139650	26.212762	116.293137
57060		-4.466096	-5.230282	7.251537	0.023612	-0.009923	0.002675	-0.809082	0.868164	-0.981689	-36.122801	26.208628	116.296029
57061		-4.468585	-5.278180	7.220906	0.031339	-0.011748	0.005498	-0.806641	0.870117	-0.975342	-36.100632	26.203901	116.300922
57062		-4.469622	-5.259950	7.253550	0.026013	-0.012753	0.004473	-0.799072	0.863281	-0.981689	-36.081534	26.199068	116.306177
57063		-4.480663	-5.222401	7.275440	0.026085	-0.015751	0.006599	-0.803955	0.863037	-0.979492	-36.061462	26.192855	116.313139
57064		-4.461581	-5.237366	7.229113	0.027808	-0.019250	0.006708	-0.810059	0.862061	-0.983887	-36.039725	26.185781	116.321402
57065		-4.475213	-5.249737	7.218921	0.028854	-0.023418	0.005129	-0.816162	0.875977	-0.971436	-36.017135	26.175516	116.330477
57066		-4.463609	-5.266912	7.232202	0.026602	-0.026582	0.007589	-0.804932	0.869385	-0.984375	-35.994697	26.165315	116.342508
57067		-4.457116	-5.230363	7.236934	0.030801	-0.032526	0.006991	-0.807129	0.862793	-0.989990	-35.969071	26.151447	116.355950
57068		-4.426858	-5.264580	7.202197	0.029304	-0.034635	0.008636	-0.806152	0.861328	-0.986572	-35.943504	26.137896	116.370846
57069		-4.451399	-5.241117	7.212700	0.034792	-0.036244	0.009292	-0.809326	0.861328	-0.981689	-35.914466	26.123065	116.386853
57070		-4.442832	-5.220057	7.187511	0.034947	-0.038857	0.008924	-0.809326	0.866943	-0.978760	-35.884931	26.107620	116.403491
57071		-4.454686	-5.237249	7.279120	0.038111	-0.040633	0.009914	-0.799561	0.862061	-0.978760	-35.853146	26.090945	116.421437
57072		-4.457720	-5.180368	7.274033	0.039554	-0.038910	0.010793	-0.810059	0.867432	-0.983643	-35.820566	26.076096	116.439502
57073		-4.424056	-5.245720	7.179202	0.044445	-0.044186	0.011899	-0.816162	0.867188	-0.982910	-35.784139	26.058417	116.459775
57074		-4.386543	-5.265953	7.217485	0.048755	-0.039014	0.014512	-0.811768	0.865234	-0.982422	-35.745444	26.044748	116.479665
57075		-4.370198	-5.329095	7.140968	0.052108	-0.036037	0.025472	-0.805664	0.863281	-0.985840	-35.702896	26.035375	116.503899
57076		-4.400742	-5.254664	7.244067	0.058937	-0.025945	0.037715	-0.809814	0.867188	-0.980957	-35.655261	26.035517	116.530746
57077		-4.412838	-5.213208	7.267815	0.056121	-0.018653	0.041696	-0.810059	0.855957	-0.985840	-35.609566	26.039620	116.556913
57078		-4.403984	-5.226969	7.281864	0.045418	-0.010291	0.047861	-0.804688	0.859619	-0.981445	-35.569918	26.050389	116.583147
57079		-4.385045	-5.189008	7.267921	0.036900	0.000852	0.054061	-0.811768	0.854980	-0.987549	-35.535581	26.067671	116.608508
57080		-4.383657	-5.237155	7.278542	0.038660	0.018463	0.068080	-0.811279	0.864258	-0.988281	-35.499845	26.098541	116.634343
57081		-4.346347	-5.254635	7.253431	0.008205	0.032712	0.076312	-0.807617	0.862793	-0.987305	-35.482017	26.138063	116.659496
57082		-4.402069	-5.262814	7.274799	-0.014697	0.057739	0.098478	-0.811523	0.865234	-0.985596	-35.476265	26.197349	116.686925
57083		-4.341091	-5.335961	7.176420	-0.052156	0.091887	0.126671	-0.811035	0.864014	-0.987061	-35.491080	26.281225	116.716362
57084		-4.407511	-5.402883	7.258813	-0.112336	0.134101	0.153531	-0.808350	0.865479	-0.985596	-35.541103	26.394425	116.744097
57085		-4.343717	-5.440822	7.324107	-0.205784	0.179300	0.203952	-0.791260	0.866211	-0.988770	-35.640471	26.544848	116.781079
57086		-4.348945	-5.531963	7.462054	-0.308772	0.253648	0.259517	-0.795898	0.868164	-0.985840	-35.798432	26.749181	116.818585
57087		-4.013481	-5.842196	7.600074	-0.453330	0.362084	0.360559	-0.785645	0.879395	-0.978027	-36.034063	27.037240	116.867344
57088		-4.096098	-5.827143	7.631939	-0.475343	0.632305	0.493705	-0.783447	0.879150	-0.982178	-36.298030	27.496020	116.881173
57089		-2.510223	-5.561352	8.397971	-0.553859	0.871705	0.659664	-0.757568	0.883057	-0.985107	-36.610614	28.121160	116.886967
57090		-1.148673	-6.342745	8.025059	-0.507566	1.376707	1.109496	-0.742920	0.888428	-0.969482	-36.880073	29.132505	116.926576
57091		-3.107615	-5.885147	8.187803	-0.403024	1.833842	1.448343	-0.711426	0.895996	-0.970703	-37.092554	30.469866	116.959556
57092		-3.878791	-6.042753	8.433154	-0.353850	2.219911	1.690362	-0.667969	0.895996	-0.967041	-37.292980	32.066923	116.960161
57093		-5.464969	-5.972945	9.033364	-0.651057	2.140631	1.757204	-0.630615	0.905518	-0.964600	-37.630991	33.651634	117.020953
57094		-6.470833	-5.639722	8.580936	-0.884890	2.212798	1.778470	-0.597900	0.915771	-0.959229	-38.119523	35.276025	117.049921
57095		-6.919130	-5.266900	8.161864	-1.366570	2.242631	1.644043	-0.553955	0.928711	-0.945313	-38.948379	36.866729	116.968624
57096		-7.258462	-6.460381	8.091019	-1.813211	2.054716	1.515297	-0.520020	0.944824	-0.933838	-40.047270	38.325284	116.866672
57097		-9.126682	-7.810299	9.991507	-1.833272	1.757092	1.401740	-0.492188	0.966309	-0.910400	-41.133807	39.611015	116.805999
57098		-5.334896	-10.270585	9.651411	-1.547946	1.037818	1.209132	-0.470459	0.978760	-0.895752	-41.915290	40.513173	116.966220
57099		-5.516974	-10.065331	9.788220	-1.202353	0.497003	0.936363	-0.458008	0.979736	-0.891113	-42.425663	41.083029	117.236308
57100		-2.234570	-9.029124	8.290357	-0.648261	0.099608	0.810579	-0.455566	0.982910	-0.885742	-42.530001	41.435441	117.638075
57101		-1.106892	-7.852460	7.371260	-0.464183	-0.140418	0.716367	-0.448730	0.985840	-0.882080	-42.479371	41.652074	118.112346
57102		-4.829373	-7.931729	8.066350	-0.453482	-0.161115	0.530046	-0.445313	0.984375	-0.874756	-42.483865	41.784534	118.493071
57103		-3.244799	-8.269443	8.889705	-0.169322	-0.584694	0.297866	-0.437988	0.993164	-0.879639	-42.266899	41.650704	118.961808
57104		-1.529816	-6.798804	6.938598	-0.156071	-0.862752	0.036900	-0.461182	0.983154	-0.879150	-42.049292	41.292987	119.422548
57105		-0.468547	-6.081693	5.903324	-0.046714	-0.982435	-0.042511	-0.464600	0.980713	-0.878906	-41.763855	40.856435	119.894580
57106		-0.310306	-5.562891	5.233190	-0.046583	-1.015176	-0.085518	-0.475586	0.974854	-0.873047	-41.490803	40.382669	120.352252
57107		-0.588268	-5.653644	5.379014	-0.030581	-1.056840	-0.152669	-0.493652	0.973877	-0.875000	-41.226067	39.869030	120.787031
57108		-0.613092	-5.614600	5.266769	0.010307	-1.108927	-0.251171	-0.499512	0.964355	-0.883789	-40.965038	39.288337	121.184914
57109		-0.651847	-5.649967	5.183008	-0.009228	-1.137705	-0.379008	-0.512451	0.968506	-0.885498	-40.757779	38.651951	121.519601
57110		-0.717629	-5.775811	4.964303	-0.020314	-1.146787	-0.528174	-0.539551	0.959473	-0.889404	-40.613039	37.948382	121.769606
57111		-0.671010	-5.917715	4.649650	-0.013881	-1.116572	-0.682335	-0.543701	0.967773	-0.893799	-40.528837	37.206851	121.917351
57112		-0.749711	-5.970831	4.367055	-0.010879	-1.028533	-0.831790	-0.571045	0.966797	-0.896729	-40.520532	36.440492	121.939628
57113		-1.160131	-6.244739	4.297684	-0.000890	-0.900615	-0.974854	-0.585693	0.964844	-0.898193	-40.585206	35.683972	121.827143
57114		-1.877146	-6.533422	4.370891	0.056906	-0.780129	-1.098495	-0.597900	0.953369	-0.899658	-40.685899	34.925526	121.594937
57115		-2.702355	-6.824694	4.650595	0.128354	-0.672030	-1.232247	-0.616211	0.951660	-0.896484	-40.806942	34.171666	121.248202
57116		-3.720727	-7.067399	5.076517	0.225458	-0.604469	-1.375469	-0.634521	0.955811	-0.895752	-40.926279	33.384315	120.800109
57117		-4.570627	-7.259361	5.390634	0.368576	-0.596725	-1.513581	-0.654541	0.938477	-0.906250	-40.993785	32.556308	120.284247
57118		-5.055885	-6.955267	5.489159	0.525656	-0.607072	-1.643821	-0.671387	0.926025	-0.913330	-40.997099	31.665950	119.710682
57119		-5.266000	-6.132648	5.572366	0.637760	-0.606827	-1.743795	-0.689209	0.923340	-0.921875	-40.949719	30.746979	119.092913
57120		-5.467054	-5.086744	5.709783	0.659372	-0.580873	-1.813509	-0.717041	0.910156	-0.918213	-40.904444	29.804901	118.432759
57121		-5.993928	-4.608948	5.875708	0.599295	-0.547818	-1.833988	-0.727295	0.907471	-0.924561	-40.891124	28.878348	117.755025
57122		-6.446848	-4.345522	6.028765	0.597553	-0.509923	-1.807107	-0.750000	0.894775	-0.931885	-40.870045	27.970167	117.079003
57123		-7.041591	-4.163995	6.294807	0.574703	-0.472486	-1.745924	-0.780518	0.893555	-0.936035	-40.841958	27.109699	116.423149
57124		-7.636847	-4.458074	6.102831	0.668387	-0.430270	-1.619182	-0.791748	0.878662	-0.940430	-40.731960	26.307931	115.814085
57125		-8.231983	-4.578649	6.123851	0.713926	-0.397346	-1.489106	-0.810059	0.866455	-0.953369	-40.564620	25.578099	115.256878
57126		-8.644662	-4.198789	5.605548	0.840128	-0.357764	-1.317792	-0.824707	0.851318	-0.954102	-40.291845	24.924157	114.765551
57127		-9.020998	-3.730793	5.139334	0.827055	-0.288844	-1.157185	-0.833008	0.843994	-0.959717	-40.000433	24.368883	114.323097
57128		-9.305082	-3.556159	4.495127	0.788954	-0.206074	-0.975733	-0.854980	0.832520	-0.963867	-39.706762	23.912812	113.933004
57129		-10.231347	-2.588477	2.276238	0.608666	0.701829	-0.090960	-0.843506	0.814697	-0.973145	-39.489191	24.188167	113.606111
57130		-7.975087	3.571161	-1.312516	1.408694	0.839077	1.121204	-0.827637	0.803955	-0.988525	-38.592314	24.960474	113.819073
57131		-16.004570	5.812721	-4.795382	-0.459905	2.118012	0.805009	-0.800293	0.810547	-0.988037	-39.046881	26.193860	113.371820
57132		-73.102266	-18.233043	29.330969	0.898414	0.331008	0.841428	-0.794434	0.799561	-0.989502	-38.403878	26.640268	113.656710
57133		7.149784	11.038835	-0.983293	0.985153	-0.965684	-0.128946	-0.808838	0.797363	-0.994873	-37.697999	26.157813	113.970165
57134		2.053664	-2.336469	9.981216	-0.413847	-0.004860	-0.760104	-0.810059	0.795410	-0.996094	-38.100400	25.889498	113.587597
57135		-7.366669	-10.119632	6.918297	0.924978	-0.512680	-0.080498	-0.807617	0.785645	-1.005127	-37.500090	25.627919	113.744717
57136		-0.033409	-11.327433	6.822085	0.258623	-0.070278	0.014711	-0.818359	0.782471	-1.001465	-37.335240	25.602036	113.777232
57137		-5.667032	-5.304225	7.573213	-0.072009	0.161123	0.220249	-0.815430	0.774902	-1.004883	-37.354144	25.750786	113.824085
57138		-4.582701	-5.156789	6.894811	0.105768	0.080640	0.188880	-0.818848	0.778320	-1.007568	-37.264222	25.853685	113.886362
57139		-4.236173	-6.570760	6.319595	0.085704	0.090961	0.194347	-0.815430	0.783203	-1.009521	-37.186330	25.961359	113.947550
57140		-4.191045	-5.473375	6.745897	0.160797	0.105885	0.251424	-0.813477	0.780273	-1.012451	-37.054888	26.097235	114.032351
57141		-5.054693	-4.454567	7.348111	0.145697	0.083238	0.217963	-0.808350	0.778320	-1.008789	-36.935504	26.209294	114.109154
57142		-4.688192	-4.561765	7.587288	0.148271	0.050740	0.139281	-0.801514	0.775146	-1.010254	-36.826534	26.281063	114.158602
57143		-4.922606	-5.526859	6.951384	0.133592	0.044496	0.091888	-0.802490	0.771240	-1.010254	-36.735681	26.331834	114.186259
57144		-4.899855	-5.350760	7.382179	0.103664	-0.028258	0.058777	-0.800781	0.770752	-1.009277	-36.656921	26.339655	114.224937
57145		-4.514933	-5.475176	7.122521	0.101959	-0.085099	0.032433	-0.804199	0.772217	-1.010010	-36.575725	26.310438	114.271668
57146		-4.589120	-5.421919	7.121455	0.106841	-0.089106	0.019501	-0.801025	0.772705	-1.010498	-36.493850	26.276768	114.313332
57147		-4.496726	-5.135245	7.265668	0.099360	-0.101099	0.013045	-0.811035	0.769531	-1.013184	-36.415968	26.233458	114.356054
57148		-4.379484	-5.225526	7.217378	0.081586	-0.071393	-0.002071	-0.804443	0.771240	-1.004639	-36.356527	26.200530	114.379788
57149		-4.392288	-5.290821	7.279280	0.063888	-0.045872	-0.001029	-0.812988	0.766113	-1.009521	-36.311484	26.177853	114.394252
57150		-4.394920	-5.182794	7.306513	0.051172	-0.014069	0.001845	-0.809082	0.771729	-1.018066	-36.278171	26.172664	114.398271
57151		-4.425845	-5.193762	7.313665	0.032412	0.007855	-0.003406	-0.811035	0.762939	-1.018311	-36.260670	26.173985	114.391190
57152		-4.527676	-5.231248	7.287526	0.020884	0.019969	-0.017759	-0.809326	0.761719	-1.007080	-36.254809	26.177856	114.372268
57153		-4.493040	-5.299476	7.190066	0.020789	0.014813	-0.025181	-0.802979	0.760742	-1.012207	-36.250072	26.175016	114.351349
57154		-4.500094	-5.367762	7.187391	0.019534	-0.000660	-0.029677	-0.806885	0.763916	-1.019775	-36.244250	26.165316	114.334081
57155		-4.504394	-5.313675	7.179812	0.030096	-0.019354	-0.019452	-0.807617	0.760498	-1.008545	-36.227190	26.148632	114.329006
57156		-4.480920	-5.279231	7.166475	0.030425	-0.024575	-0.020214	-0.804932	0.768555	-1.008301	-36.209017	26.131084	114.325620
57157		-4.454078	-5.143895	7.217528	0.034091	-0.027804	-0.027038	-0.806885	0.764404	-1.014893	-36.189987	26.107930	114.319814
57158		-4.444495	-5.196313	7.229605	0.030805	-0.017124	-0.034333	-0.809326	0.762939	-1.020508	-36.176027	26.089049	114.306341
57159		-4.395011	-5.233387	7.177150	0.026800	-0.010484	-0.038730	-0.804443	0.762939	-1.013184	-36.166689	26.069954	114.287982
57160		-4.478022	-5.206705	7.196954	0.028820	-0.005075	-0.038254	-0.805908	0.768066	-1.010742	-36.156736	26.055315	114.267953
57161		-4.424771	-5.164247	7.278080	0.019813	-0.004726	-0.044506	-0.810303	0.756592	-1.016846	-36.153649	26.036936	114.244452
57162		-4.458500	-5.264002	7.250347	0.012982	-0.001578	-0.050672	-0.808594	0.770508	-1.014404	-36.156127	26.019714	114.216722
57163		-4.479302	-5.327864	7.165056	0.018204	-0.000879	-0.047090	-0.816406	0.766357	-1.009766	-36.155164	26.002241	114.190452
57164		-4.441569	-5.351158	7.201416	0.029138	-0.007307	-0.041080	-0.814941	0.760010	-1.012695	-36.145270	25.985607	114.169815
57165		-4.434809	-5.316730	7.204927	0.023921	-0.014341	-0.037958	-0.813232	0.761475	-1.012207	-36.136740	25.964998	114.153308
57166		-4.430802	-5.266038	7.238669	0.024122	-0.008803	-0.033029	-0.813477	0.759033	-1.016602	-36.127665	25.950388	114.137371
57167		-4.428668	-5.265631	7.240270	0.025252	-0.004816	-0.029280	-0.815186	0.760742	-1.015625	-36.117977	25.937122	114.121751
57168		-4.426692	-5.336346	7.280110	0.025024	-0.005555	-0.024314	-0.820068	0.760498	-1.019043	-36.106951	25.926954	114.109076
57169		-4.470451	-5.293864	7.235536	0.017410	-0.009804	-0.023002	-0.821777	0.761719	-1.017090	-36.099521	25.913503	114.098557
57170		-4.447551	-5.331704	7.259224	0.013536	-0.018439	-0.014420	-0.814209	0.761963	-1.017578	-36.090743	25.900704	114.095805
57171		-4.393641	-5.283871	7.239843	0.015934	-0.021223	-0.012610	-0.803467	0.758789	-1.018799	-36.079949	25.885476	114.094916
57172		-4.426629	-5.331778	7.244806	0.009154	-0.019242	-0.004703	-0.814941	0.756592	-1.015137	-36.071374	25.875571	114.097460
57173		-4.418871	-5.313205	7.217309	0.011039	-0.014195	-0.001764	-0.810303	0.758789	-1.012207	-36.062100	25.867257	114.099514
57174		-4.400894	-5.313655	7.200814	0.007174	-0.016504	0.000133	-0.823730	0.760010	-1.015137	-36.054035	25.860241	114.103512
57175		-4.398782	-5.262515	7.233626	0.005021	-0.011156	0.005343	-0.811035	0.756104	-1.019043	-36.047111	25.855730	114.108083
57176		-4.429402	-5.275940	7.239438	0.007249	-0.011329	0.007527	-0.815430	0.762451	-1.013428	-36.038199	25.853593	114.113943
57177		-4.406911	-5.262572	7.294384	0.005439	-0.011201	0.011985	-0.817627	0.755371	-1.018311	-36.029538	25.851299	114.121949
57178		-4.431302	-5.257713	7.271554	0.010410	-0.013056	0.008537	-0.823975	0.758545	-1.011230	-36.018306	25.848689	114.128975
57179		-4.430680	-5.256747	7.272631	0.005136	-0.017112	0.009557	-0.812988	0.755615	-1.014893	-36.009400	25.842835	114.137941
57180		-4.374340	-5.245361	7.292474	0.010946	-0.012734	0.012700	-0.818848	0.757568	-1.019531	-35.996978	25.841768	114.146989
57181		-4.434037	-5.217105	7.235066	0.013994	-0.014829	0.016191	-0.815918	0.749756	-1.018066	-35.981883	25.839203	114.158515
57182		-4.372989	-5.237691	7.194541	0.016282	-0.011658	0.013790	-0.811279	0.769531	-1.018555	-35.966329	25.838987	114.167722
57183		-4.393678	-5.269040	7.212005	0.015999	-0.009414	0.016648	-0.819336	0.756592	-1.011475	-35.950866	25.839081	114.177458
57184		-4.370651	-5.250299	7.166835	0.017696	-0.009912	0.014673	-0.816650	0.762451	-1.013672	-35.934594	25.839958	114.186465
57185		-4.410612	-5.264074	7.232416	0.020154	-0.009353	0.011897	-0.807861	0.757568	-1.013428	-35.917828	25.838479	114.193729
57186		-4.406856	-5.227683	7.235387	0.022215	-0.006916	0.014458	-0.809326	0.760742	-1.020752	-35.899511	25.840660	114.201503
57187		-4.365543	-5.230655	7.242752	0.016826	-0.005014	0.011265	-0.816650	0.749756	-1.020752	-35.885499	25.840978	114.206821
57188		-4.403230	-5.260704	7.277916	0.021458	-0.007973	0.015265	-0.810791	0.756104	-1.020020	-35.867263	25.842925	114.215405
57189		-4.397413	-5.240630	7.250328	0.018608	-0.000332	0.016682	-0.813477	0.760986	-1.012939	-35.851772	25.847233	114.221773
57190		-4.417428	-5.220956	7.299417	0.021123	-0.002751	0.016016	-0.817139	0.756836	-1.020264	-35.834408	25.851842	114.228798
57191		-4.424423	-5.236606	7.329473	0.021126	-0.002752	0.016019	-0.816162	0.757324	-1.017578	-35.817228	25.854800	114.235728
57192		-4.408321	-5.235632	7.312894	0.018727	0.000033	0.014206	-0.818359	0.754639	-1.020508	-35.802088	25.860083	114.240786
57193		-4.431373	-5.246175	7.259834	0.017093	-0.002443	0.018297	-0.822510	0.757080	-1.011963	-35.786754	25.863944	114.248780
57194		-4.431718	-5.244005	7.261190	0.024095	-0.010032	0.012134	-0.814453	0.762451	-1.015625	-35.767369	25.863843	114.256517
57195		-4.404530	-5.261669	7.256499	0.029326	-0.009324	0.015709	-0.819580	0.752441	-1.021484	-35.744491	25.863634	114.265737
57196		-4.397862	-5.240859	7.229966	0.033169	-0.021499	0.015247	-0.806396	0.748535	-1.021240	-35.717351	25.859226	114.279343
57197		-4.404752	-5.306255	7.230010	0.036621	-0.025478	0.013416	-0.819336	0.751709	-1.013672	-35.688195	25.850727	114.293379
57198		-4.442168	-5.196600	7.290347	0.035866	-0.026533	0.014228	-0.813721	0.747314	-1.023438	-35.658945	25.843614	114.308314
57199		-4.426464	-5.178325	7.305895	0.031462	-0.029163	0.011976	-0.810547	0.763672	-1.019531	-35.632481	25.832905	114.322961
57200		-4.429354	-5.142849	7.369392	0.027505	-0.036654	0.006505	-0.817139	0.749512	-1.014404	-35.608132	25.818485	114.337642
57201		-4.469857	-5.186536	7.334741	0.022447	-0.039976	0.002575	-0.812012	0.741699	-1.011963	-35.587221	25.799592	114.351416
57202		-4.389208	-5.208602	7.278325	0.023847	-0.052705	0.004919	-0.818848	0.752441	-1.012695	-35.562742	25.777149	114.371205
57203		-4.411968	-5.253496	7.226710	0.026267	-0.055490	0.006755	-0.814941	0.754395	-1.015381	-35.536227	25.752406	114.392858
57204		-4.383693	-5.183928	7.215503	0.031016	-0.051780	0.001568	-0.819092	0.744141	-1.019043	-35.508579	25.729255	114.410535
57205		-4.363947	-5.115664	7.263437	0.029614	-0.053529	0.000710	-0.815186	0.749268	-1.019775	-35.481850	25.703398	114.428299
57206		-4.338633	-5.218625	7.227918	0.035669	-0.048433	-0.001124	-0.818848	0.753662	-1.018799	-35.452703	25.680894	114.443314
57207		-4.381420	-5.177914	7.286442	0.038512	-0.044939	0.000631	-0.816895	0.742676	-1.017822	-35.422293	25.659004	114.457835
57208		-4.344901	-5.177433	7.254922	0.043806	-0.040897	-0.000401	-0.828613	0.746582	-1.025391	-35.389554	25.640236	114.470413
57209		-4.362478	-5.207240	7.275551	0.043128	-0.044923	0.002548	-0.821777	0.750732	-1.018799	-35.356096	25.618974	114.485890
57210		-4.392689	-5.201285	7.315431	0.047077	-0.045601	0.002774	-0.822021	0.750000	-1.020264	-35.320051	25.599038	114.501808
57211		-4.341947	-5.185153	7.296491	0.042810	-0.039700	0.003294	-0.827393	0.743408	-1.021484	-35.287460	25.580449	114.515720
57212		-4.293408	-5.219927	7.245797	0.043964	-0.035696	0.007017	-0.824707	0.744629	-1.015869	-35.253845	25.566525	114.530173
57213		-4.358409	-5.210926	7.320679	0.050052	-0.022424	0.010396	-0.825684	0.746094	-1.020752	-35.218264	25.558354	114.541411
57214		-4.314491	-5.160998	7.361067	0.046091	-0.010598	0.013292	-0.821533	0.744141	-1.023682	-35.186014	25.558225	114.549904
57215		-4.347862	-5.151386	7.298465	0.038664	0.000358	0.008155	-0.822998	0.743408	-1.014160	-35.161061	25.559973	114.551634
57216		-4.317574	-5.134599	7.294546	0.028683	0.010417	0.008286	-0.834717	0.744385	-1.020020	-35.143222	25.568019	114.549841
57217		-4.296215	-5.119457	7.349054	0.021395	0.015437	0.007406	-0.821777	0.741455	-1.022949	-35.130711	25.576584	114.545671
57218		-4.273288	-5.189435	7.310644	0.001053	0.037464	0.012980	-0.824463	0.740479	-1.026123	-35.131918	25.598838	114.536432
57219		-4.252156	-5.399146	7.247503	-0.022756	0.074631	0.023472	-0.826660	0.749023	-1.024658	-35.150459	25.640436	114.518957
57220		-4.304619	-5.563949	7.112464	-0.034342	0.088634	0.052055	-0.821289	0.745117	-1.023193	-35.171311	25.699522	114.511265
57221		-4.327782	-5.528009	7.125289	-0.040414	0.097765	0.086018	-0.822754	0.747803	-1.021484	-35.189585	25.772590	114.517779
57222		-4.411936	-5.418028	7.210144	-0.069363	0.103844	0.112676	-0.814697	0.749023	-1.019287	-35.219327	25.858794	114.535947
57223		-4.340781	-5.331215	7.375708	-0.112034	0.121036	0.136821	-0.817139	0.750977	-1.026855	-35.270843	25.959555	114.560254
57224		-4.300746	-5.227409	7.543833	-0.172854	0.174962	0.158282	-0.811279	0.749756	-1.016357	-35.361011	26.094126	114.575773
57225		-4.360003	-5.351452	7.465662	-0.254865	0.235459	0.181297	-0.807373	0.749023	-1.018799	-35.502876	26.263148	114.580555
57226		-4.424354	-5.499970	7.450192	-0.313437	0.311905	0.196189	-0.803223	0.759766	-1.018066	-35.687690	26.474187	114.564134
57227		-4.066013	-5.728992	7.542073	-0.385194	0.420964	0.251834	-0.791992	0.759277	-1.012695	-35.919467	26.753078	114.534823
57228		-3.978868	-6.144232	7.428846	-0.413892	0.583973	0.394289	-0.791260	0.764648	-1.015625	-36.162861	27.156745	114.516543
57229		-3.761201	-5.432949	8.057867	-0.414950	0.759965	0.476433	-0.778320	0.763428	-1.013916	-36.419210	27.668126	114.471688
57230		-1.786194	-5.816128	8.132737	-0.556423	0.954240	0.718954	-0.768555	0.777100	-1.019287	-36.734457	28.352665	114.474973
57231		-3.843233	-5.730442	7.835398	-0.316483	1.450706	0.967645	-0.734619	0.782715	-1.008789	-36.945011	29.349127	114.410167
57232		-4.385829	-5.853227	7.809814	-0.318758	1.480014	1.104019	-0.715576	0.788086	-1.008545	-37.130164	30.406653	114.401019
57233		-3.440102	-5.729197	7.331089	-0.100859	1.734397	1.341459	-0.688232	0.788330	-1.016846	-37.179711	31.661694	114.413025
57234		-4.787955	-5.141860	8.062756	-0.097876	1.967814	1.601241	-0.653564	0.792969	-1.009277	-37.203802	33.113808	114.468936
57235		-5.013215	-5.160543	7.452169	-0.402467	1.759543	1.697227	-0.624023	0.788574	-1.013916	-37.324267	34.503756	114.663179
57236		-5.520887	-5.613999	6.851559	-0.453350	2.009790	1.904395	-0.580322	0.801025	-1.001709	-37.464744	36.080458	114.865953
57237		-6.979951	-5.721437	7.459386	-0.708107	2.093200	1.903632	-0.554199	0.800293	-1.003418	-37.771014	37.694987	115.028234
57238		-7.261411	-6.059265	6.997030	-0.974627	2.123879	1.886415	-0.517334	0.806152	-0.991211	-38.247630	39.318469	115.156289
57239		-8.495205	-6.288233	7.711228	-1.258045	2.195574	1.780773	-0.484619	0.816650	-0.974854	-38.957645	40.936902	115.169921
57240		-9.370243	-7.633475	9.468753	-1.446321	1.949741	1.584728	-0.451172	0.834717	-0.965576	-39.792173	42.375517	115.158081
57241		-7.564446	-6.608391	6.842729	-1.440553	1.737660	1.531864	-0.421875	0.843750	-0.948242	-40.591335	43.701161	115.193534
57242		-9.354508	-7.492609	8.055530	-1.458083	1.586840	1.595163	-0.396973	0.860840	-0.933350	-41.334746	44.985723	115.322301
57243		-7.575792	-7.300431	8.277742	-1.281564	1.138659	1.504430	-0.375488	0.863281	-0.917969	-41.853650	46.044507	115.621329
57244		-6.213944	-7.206368	7.982507	-1.145766	0.811376	1.348571	-0.362305	0.869873	-0.919434	-42.233890	46.905725	115.999525
57245		-4.520715	-7.503725	7.715772	-0.948541	0.578113	1.239720	-0.339600	0.870605	-0.905273	-42.450673	47.627617	116.441501
57246		-3.015154	-7.581733	7.545340	-0.777496	0.395272	1.140276	-0.337891	0.876465	-0.901855	-42.532161	48.233779	116.929121
57247		-1.531355	-7.358631	7.604952	-0.567691	0.189683	1.058786	-0.324707	0.874268	-0.885498	-42.435229	48.722270	117.490278
57248		-3.781444	-7.076562	7.512720	-0.497864	0.119167	0.917553	-0.322998	0.869873	-0.877930	-42.328251	49.123935	118.007993
57249		-3.545874	-7.995430	8.596333	-0.318690	-0.198427	0.838651	-0.325439	0.867920	-0.884033	-42.009335	49.360887	118.667360
57250		-1.992536	-6.876151	7.299070	-0.205935	-0.501019	0.625912	-0.324707	0.863037	-0.880127	-41.593369	49.381904	119.368365
57251		-1.151269	-6.257106	6.359206	-0.117263	-0.662776	0.520184	-0.337646	0.870605	-0.876709	-41.108317	49.292410	120.093667
57252		-0.522511	-5.655628	5.719573	-0.099200	-0.746677	0.470092	-0.340088	0.863281	-0.889893	-40.605477	49.140110	120.830372
57253		-0.478240	-5.510513	5.435573	-0.086091	-0.773782	0.425983	-0.347656	0.854248	-0.883545	-40.109923	48.959020	121.549081
57254		-0.482080	-5.768505	5.138617	-0.067550	-0.776910	0.353149	-0.351807	0.852539	-0.889893	-39.645517	48.741436	122.214916
57255		-0.541472	-6.290090	5.037274	-0.014431	-0.758602	0.256674	-0.368896	0.847412	-0.888184	-39.211787	48.497840	122.801242
57256		-0.707599	-6.634062	4.987361	0.115882	-0.715312	0.152651	-0.379883	0.847412	-0.895264	-38.780436	48.227887	123.287509
57257		-0.814186	-6.872013	4.992745	0.267402	-0.669953	0.046528	-0.396240	0.838379	-0.887695	-38.337727	47.943105	123.673783
57258		-1.132369	-6.865806	5.220244	0.387491	-0.616535	-0.067188	-0.410889	0.832275	-0.897461	-37.910840	47.634232	123.948686
57259		-1.905661	-7.103444	5.799093	0.423390	-0.591969	-0.220928	-0.415039	0.824219	-0.899170	-37.551381	47.287314	124.104518
57260		-3.060420	-7.345670	6.808125	0.360898	-0.631984	-0.462780	-0.426758	0.820801	-0.905762	-37.336850	46.830674	124.113728
57261		-4.308821	-7.514076	7.697230	0.230555	-0.766669	-0.820990	-0.448242	0.807129	-0.902344	-37.318439	46.194951	123.954203
57262		-4.782284	-7.559270	7.883689	0.076013	-0.974464	-1.246133	-0.481445	0.808105	-0.901367	-37.511497	45.309053	123.622694
57263		-4.477755	-7.424873	7.448152	-0.048645	-1.136294	-1.632008	-0.504639	0.810791	-0.900146	-37.878420	44.220923	123.138331
57264		-4.132838	-7.026577	6.837985	-0.071987	-1.209784	-1.904388	-0.529541	0.798340	-0.890381	-38.332548	42.992861	122.538595
57265		-3.984769	-6.511741	6.364433	-0.017414	-1.192852	-2.041322	-0.556152	0.788574	-0.896240	-38.787869	41.728129	121.874643
57266		-4.254130	-6.069683	6.371283	0.069982	-1.133546	-2.099874	-0.591309	0.790283	-0.892822	-39.208974	40.456450	121.171859
57267		-4.786009	-5.694703	6.685636	0.128836	-1.084732	-2.129743	-0.613770	0.784668	-0.894287	-39.592228	39.200368	120.455067
57268		-5.251821	-5.453374	6.972540	0.154821	-1.066231	-2.147182	-0.645996	0.771973	-0.880859	-39.947592	37.933703	119.741475
57269		-5.678959	-5.417387	7.201080	0.175224	-1.068306	-2.146865	-0.662109	0.773682	-0.884521	-40.263089	36.671826	119.051864
57270		-5.862960	-5.388890	7.124253	0.221703	-1.067662	-2.122495	-0.688721	0.757080	-0.874756	-40.522661	35.407610	118.393064
57271		-5.906512	-5.336740	6.890457	0.320505	-1.047213	-2.050482	-0.715820	0.734863	-0.875732	-40.686864	34.186121	117.779963
57272		-5.981472	-5.285215	6.720779	0.446667	-1.001569	-1.917007	-0.735352	0.738281	-0.873779	-40.736071	33.024500	117.226468
57273		-6.218785	-5.383746	6.630026	0.583797	-0.957094	-1.749667	-0.746582	0.720947	-0.875244	-40.657118	31.953745	116.746908
57274		-6.853516	-5.621440	6.615191	0.696869	-0.915622	-1.567661	-0.761719	0.704346	-0.871582	-40.466811	30.961057	116.343850
57275		-7.752463	-5.980381	6.780588	0.802079	-0.908063	-1.418914	-0.770020	0.690186	-0.871338	-40.173200	30.037030	116.012822
57276		-8.674953	-6.248053	6.664331	0.881351	-0.937963	-1.317181	-0.792725	0.673828	-0.876709	-39.800431	29.130603	115.742113
57277		-9.413620	-6.038628	6.466260	0.921052	-0.989576	-1.256593	-0.803223	0.654785	-0.880371	-39.377630	28.233569	115.519204
57278		-9.892145	-5.504834	6.127255	0.865146	-1.025648	-1.222649	-0.820801	0.647461	-0.878662	-38.972379	27.326446	115.322131
57279		-9.962203	-4.636326	5.479056	0.735940	-1.016414	-1.177302	-0.831299	0.634766	-0.878174	-38.631218	26.448667	115.139571
57280		-10.075296	-3.683696	4.837362	0.505612	-0.962034	-1.121715	-0.842285	0.624023	-0.879150	-38.419225	25.608979	114.959328
57281		-10.153001	-2.778756	4.210088	0.217381	-0.856772	-1.054145	-0.852295	0.622559	-0.871094	-38.372977	24.847887	114.770803
57282		-10.095546	-2.152182	3.621838	-0.057860	-0.710197	-0.953315	-0.869141	0.616455	-0.877197	-38.485571	24.182549	114.575844
57283		-10.250677	-1.677503	3.209090	-0.299790	-0.529278	-0.801046	-0.875732	0.619385	-0.867920	-38.731353	23.657946	114.388241
57284		-10.296195	-1.243553	2.829764	-0.466869	-0.340991	-0.589353	-0.880371	0.621338	-0.856934	-39.059152	23.287976	114.232928
57285		-10.533917	-1.191209	2.629026	-0.577584	-0.144284	-0.340679	-0.883789	0.631104	-0.868164	-39.431274	23.099204	114.123129
57286		-10.542069	-1.229029	2.323946	-0.603986	0.033992	-0.058665	-0.881348	0.622559	-0.861084	-39.792946	23.088163	114.079045
57287		-10.734502	-2.233929	1.766553	-0.275234	0.615120	0.618321	-0.869385	0.632568	-0.858643	-39.929605	23.584474	114.126973
57288		-9.430743	-0.030552	-0.444677	-0.042393	0.763603	1.026577	-0.858887	0.644043	-0.862793	-39.877493	24.294123	114.311150
57289		-11.191170	0.797211	0.603914	0.245148	1.141281	1.398087	-0.841797	0.641846	-0.863037	-39.644635	25.307852	114.526513
57290		-11.648342	1.092488	2.192637	-0.225986	1.674180	1.465103	-0.815918	0.649170	-0.864502	-39.757367	26.580226	114.560904
57291		-60.107798	-20.696258	27.966404	0.867129	0.417162	1.132541	-0.810059	0.641357	-0.876953	-39.082372	27.175651	114.950437
57292		6.106036	6.718654	1.230151	0.303592	-1.618950	0.396191	-0.821777	0.640869	-0.875732	-38.523047	26.596705	115.798220
57293		-3.242096	-1.589959	4.399507	-0.573209	0.019094	-0.973773	-0.832764	0.635742	-0.866699	-39.069953	26.254409	115.302685
57294		-7.191638	-7.499486	9.546045	0.798221	-0.317558	-0.343092	-0.834473	0.636475	-0.868652	-38.630109	25.990841	115.257252
57295		-2.607342	-6.318028	8.486394	0.231592	-0.459064	-0.325934	-0.840088	0.628174	-0.869385	-38.487692	25.667525	115.274858
57296		-1.899023	-6.978378	6.093470	0.197298	0.016032	0.098289	-0.845459	0.632568	-0.877930	-38.354521	25.711060	115.315447
57297		-5.430424	-6.739882	6.632617	0.160703	0.044053	0.085328	-0.842285	0.630371	-0.874512	-38.250440	25.759942	115.338365
57298		-4.435642	-5.371483	6.631687	0.152913	0.040468	0.077717	-0.827637	0.628418	-0.872803	-38.151443	25.806919	115.359173
57299		-4.570563	-5.404661	7.153550	0.194063	-0.018015	0.060909	-0.827881	0.616455	-0.884033	-38.022842	25.819102	115.394446
57300		-3.728505	-5.608585	6.824202	0.242773	-0.036072	0.092730	-0.832520	0.621582	-0.879639	-37.855906	25.836705	115.452981
57301		-4.492831	-5.363227	6.859704	0.258467	0.000123	0.121634	-0.830322	0.610352	-0.877441	-37.680095	25.878235	115.511832
57302		-5.221721	-5.002398	7.319229	0.199363	-0.037513	0.061134	-0.841797	0.622314	-0.885010	-37.544663	25.883790	115.555103
57303		-4.531308	-5.386783	7.219533	0.172446	-0.092539	0.018119	-0.850830	0.608643	-0.887451	-37.425183	25.846837	115.597788
57304		-4.385471	-5.545381	7.170484	0.157533	-0.093746	0.031586	-0.838867	0.610596	-0.880371	-37.310749	25.816389	115.647851
57305		-4.576032	-5.624998	7.140323	0.133894	-0.095821	0.053124	-0.841797	0.616943	-0.884521	-37.205212	25.789930	115.709347
57306		-4.397390	-5.561417	7.078269	0.132139	-0.096604	0.062788	-0.837402	0.610596	-0.880127	-37.098094	25.768788	115.776166
57307		-4.505601	-5.421243	7.213004	0.123322	-0.088425	0.064721	-0.831787	0.613281	-0.878906	-36.997387	25.749511	115.840585
57308		-4.404558	-5.247555	7.205412	0.115377	-0.074922	0.056206	-0.840820	0.604492	-0.882324	-36.905024	25.735806	115.895652
57309		-4.394132	-5.234303	7.154979	0.103276	-0.062313	0.035419	-0.846680	0.605713	-0.881104	-36.826669	25.718242	115.935111
57310		-4.491907	-5.365475	7.342850	0.082330	-0.061639	0.019380	-0.832275	0.607910	-0.879395	-36.763609	25.697847	115.966308
57311		-4.401108	-5.410732	7.167095	0.064783	-0.071393	0.008062	-0.839844	0.612061	-0.880371	-36.711906	25.666659	115.995224
57312		-4.432711	-5.285446	7.265752	0.057037	-0.063104	-0.001365	-0.845947	0.600830	-0.883545	-36.667725	25.638424	116.016344
57313		-4.408245	-5.233091	7.286633	0.051680	-0.061086	-0.004433	-0.845947	0.607910	-0.885498	-36.628031	25.607660	116.034912
57314		-4.375549	-5.098313	7.342248	0.030101	-0.053409	-0.014285	-0.843018	0.606934	-0.884521	-36.603742	25.579432	116.045720
57315		-4.390992	-5.145752	7.330408	0.022775	-0.038846	-0.023761	-0.845459	0.606689	-0.887207	-36.588531	25.552281	116.045971
57316		-4.356029	-5.213039	7.232576	0.007515	-0.034336	-0.034253	-0.850342	0.602783	-0.886230	-36.584667	25.525992	116.039370
57317		-4.396398	-5.345489	7.201314	0.000211	-0.026614	-0.034504	-0.844971	0.603027	-0.882080	-36.586739	25.500800	116.029510
57318		-4.312419	-5.504607	7.053651	0.008303	-0.022588	-0.029274	-0.844238	0.605957	-0.884277	-36.583234	25.481603	116.021004
57319		-4.351087	-5.498649	7.050226	0.016329	-0.018966	-0.021542	-0.841309	0.594727	-0.880371	-36.574468	25.464357	116.014858
57320		-4.323565	-5.503057	7.075341	0.028449	-0.018266	-0.016596	-0.849609	0.605225	-0.877441	-36.557381	25.451463	116.011161
57321		-4.352116	-5.434528	7.177960	0.030768	-0.018096	-0.016942	-0.849365	0.596191	-0.885498	-36.539477	25.436189	116.007022
57322		-4.330314	-5.384577	7.195347	0.028226	-0.012646	-0.018300	-0.847412	0.600098	-0.883789	-36.523833	25.425287	116.000314
57323		-4.371090	-5.449662	7.228476	0.022265	-0.003612	-0.015191	-0.854004	0.609375	-0.881836	-36.512767	25.417282	115.991592
57324		-4.348811	-5.415664	7.214142	0.019296	-0.007858	-0.011906	-0.847656	0.603516	-0.884766	-36.501630	25.410749	115.986327
57325		-4.389948	-5.480859	7.246993	0.019171	-0.008665	-0.006892	-0.849609	0.596436	-0.881348	-36.489702	25.403248	115.983740
57326		-4.364409	-5.396806	7.266051	0.021596	-0.014921	-0.000512	-0.845703	0.603516	-0.878418	-36.473629	25.397329	115.986939
57327		-4.363212	-5.395227	7.267942	0.020201	-0.020056	0.003245	-0.841309	0.600098	-0.877686	-36.457054	25.388033	115.993813
57328		-4.343661	-5.329267	7.315818	0.021650	-0.021751	0.008731	-0.844727	0.603271	-0.881104	-36.437835	25.382094	116.004293
57329		-4.362937	-5.288290	7.297070	0.017829	-0.020631	0.006109	-0.854004	0.599609	-0.884033	-36.421904	25.373503	116.012837
57330		-4.319063	-5.308548	7.272848	0.010615	-0.019338	0.012571	-0.855469	0.597412	-0.885010	-36.408555	25.369962	116.024364
57331		-4.343823	-5.302139	7.251024	0.009425	-0.012569	0.014571	-0.850342	0.602295	-0.892578	-36.396892	25.367963	116.034188
57332		-4.314088	-5.352900	7.182743	0.003736	-0.019448	0.011124	-0.851807	0.593018	-0.885742	-36.387781	25.363859	116.045016
57333		-4.316244	-5.320796	7.245358	0.008748	-0.013229	0.012890	-0.850586	0.588623	-0.880615	-36.376769	25.360980	116.054228
57334		-4.352980	-5.279457	7.243543	0.005305	-0.006229	0.012733	-0.851807	0.600830	-0.879395	-36.368544	25.363502	116.060901
57335		-4.339391	-5.248306	7.287735	0.008601	-0.010620	0.013284	-0.850342	0.596680	-0.888916	-36.357951	25.361958	116.069333
57336		-4.354374	-5.261735	7.275852	0.006198	-0.007778	0.011521	-0.845459	0.597656	-0.882080	-36.349223	25.363339	116.075972
57337		-4.316436	-5.316732	7.248226	0.002993	-0.006398	0.013088	-0.844238	0.605469	-0.889648	-36.342565	25.363674	116.082717
57338		-4.358364	-5.309535	7.243829	0.005129	-0.007433	0.020259	-0.839844	0.604492	-0.885010	-36.332588	25.368165	116.093691
57339		-4.339091	-5.259558	7.259464	0.005902	-0.009786	0.024063	-0.852051	0.596191	-0.881104	-36.321316	25.370660	116.107316
57340		-4.314357	-5.263084	7.283352	0.007567	-0.013689	0.026655	-0.850342	0.602295	-0.880859	-36.307530	25.374416	116.123909
57341		-4.339612	-5.343702	7.267282	0.015079	-0.013327	0.032303	-0.844971	0.597656	-0.882324	-36.288623	25.378065	116.143077
57342		-4.333150	-5.338122	7.209394	0.019417	-0.007771	0.032383	-0.842285	0.595703	-0.887451	-36.267738	25.386471	116.160382
57343		-4.334432	-5.335154	7.210820	0.024647	-0.003767	0.031250	-0.837158	0.594727	-0.883545	-36.245110	25.394167	116.175430
57344		-4.315953	-5.283434	7.227193	0.028420	0.001930	0.024626	-0.849854	0.602051	-0.880127	-36.222329	25.404404	116.185134
57345		-4.369938	-5.326501	7.250070	0.033056	0.002263	0.023927	-0.855225	0.600342	-0.890869	-36.197453	25.412398	116.194184
57346		-4.376522	-5.269281	7.243720	0.034040	-0.002299	0.024842	-0.840576	0.600586	-0.881348	-36.170722	25.420732	116.205591
57347		-4.367315	-5.285492	7.256011	0.030449	-0.006795	0.023951	-0.851318	0.594727	-0.879883	-36.145873	25.424536	116.218053
57348		-4.312542	-5.258030	7.306577	0.035441	-0.018503	0.031746	-0.854980	0.606934	-0.881592	-36.114213	25.427684	116.239065
57349		-4.354611	-5.247682	7.304278	0.038218	-0.012059	0.031354	-0.846191	0.597900	-0.889404	-36.082434	25.431539	116.257295
57350		-4.327760	-5.279721	7.268500	0.039722	-0.017158	0.041499	-0.856445	0.604004	-0.889893	-36.046377	25.438562	116.282812
57351		-4.333495	-5.309438	7.269021	0.045179	-0.004360	0.018533	-0.847656	0.591553	-0.886230	-36.014665	25.441644	116.291596
57352		-4.341688	-5.220590	7.324624	0.036862	-0.006173	0.016222	-0.847900	0.592529	-0.891357	-35.987578	25.445205	116.300048
57353		-4.360651	-5.281774	7.281288	0.031002	-0.010433	0.013173	-0.849609	0.603271	-0.879883	-35.964195	25.443659	116.308348
57354		-4.349321	-5.226589	7.256955	0.028888	-0.012812	0.010631	-0.850586	0.595947	-0.885498	-35.941844	25.442239	116.316403
57355		-4.339923	-5.227643	7.300419	0.034450	-0.017444	0.013366	-0.845703	0.604248	-0.879395	-35.915324	25.437500	116.327411
57356		-4.342940	-5.274685	7.270031	0.026957	-0.021207	0.012355	-0.847412	0.599609	-0.885986	-35.892357	25.432745	116.339472
57357		-4.367574	-5.266546	7.249585	0.042758	-0.012233	0.011054	-0.845459	0.593750	-0.886719	-35.862423	25.429639	116.347348
57358		-4.320379	-5.235183	7.259589	0.041803	-0.025188	0.013703	-0.843750	0.590820	-0.888916	-35.830028	25.423466	116.361571
57359		-4.349342	-5.260596	7.237848	0.040471	-0.029914	0.014988	-0.855225	0.593994	-0.891846	-35.797722	25.413456	116.378029
57360		-4.322504	-5.262021	7.264452	0.043089	-0.034977	0.013888	-0.848389	0.582764	-0.888916	-35.763005	25.402768	116.395964
57361		-4.341887	-5.203249	7.278148	0.044967	-0.041097	0.013621	-0.846924	0.590088	-0.891357	-35.726662	25.387083	116.415844
57362		-4.287430	-5.240659	7.266876	0.058775	-0.023402	0.012973	-0.852051	0.591064	-0.886230	-35.685014	25.381440	116.429001
57363		-4.375081	-5.154295	7.283397	0.043425	-0.036417	0.006011	-0.853027	0.591064	-0.889160	-35.651993	25.365367	116.443204
57364		-4.278603	-5.199130	7.276475	0.041620	-0.029908	0.003782	-0.849609	0.584717	-0.881348	-35.621184	25.353602	116.454015
57365		-4.344289	-5.256543	7.289349	0.039453	-0.032683	0.003767	-0.856201	0.600342	-0.889160	-35.591540	25.338506	116.465661
57366		-4.284753	-5.261186	7.279202	0.038882	-0.022233	0.005276	-0.847656	0.590820	-0.887207	-35.563197	25.330791	116.474392
57367		-4.329117	-5.302296	7.244289	0.026109	-0.012469	0.001817	-0.851318	0.586914	-0.889160	-35.544827	25.324458	116.477565
57368		-4.293359	-5.324806	7.279457	0.023948	-0.004906	0.010008	-0.850830	0.581299	-0.887207	-35.526745	25.326378	116.482339
57369		-4.309762	-5.409020	7.305721	0.022272	-0.004791	0.014562	-0.847412	0.587891	-0.890869	-35.508973	25.327866	116.489255
57370		-4.255711	-5.470934	7.360569	0.003638	0.021388	0.024470	-0.852783	0.588135	-0.887939	-35.503498	25.346841	116.491805
57371		-4.302840	-5.560658	7.229665	-0.004299	0.056095	0.051742	-0.847900	0.589600	-0.887939	-35.502327	25.389098	116.495495
57372		-4.346030	-5.631834	7.068916	-0.015204	0.048400	0.069554	-0.841553	0.589355	-0.888916	-35.501963	25.435646	116.511365
57373		-4.337141	-5.533571	7.171845	-0.031321	0.047058	0.096753	-0.847656	0.590332	-0.887695	-35.504838	25.488666	116.541642
57374		-4.220837	-5.382640	7.268272	-0.072463	0.071556	0.116966	-0.845703	0.589355	-0.884277	-35.530435	25.561783	116.573453
57375		-4.207318	-5.308882	7.375413	-0.139169	0.125429	0.118870	-0.837891	0.588867	-0.893555	-35.602622	25.658730	116.586170
57376		-4.161643	-5.490326	7.428760	-0.248636	0.238706	0.094174	-0.841064	0.598145	-0.884033	-35.761178	25.802067	116.544020
57377		-3.927811	-6.003209	7.411324	-0.358025	0.361877	0.183725	-0.842773	0.602295	-0.889893	-35.982881	26.030627	116.501412
57378		-3.804496	-6.526333	7.396258	-0.513337	0.531602	0.366948	-0.834473	0.601074	-0.883057	-36.280666	26.401277	116.488236
57379		-3.436314	-7.280667	7.700478	-0.616143	0.774260	0.581048	-0.822021	0.612549	-0.888672	-36.630606	26.954746	116.490537
57380		-1.961340	-5.514380	8.869070	-0.579350	1.244127	0.819470	-0.809814	0.617920	-0.884521	-36.988116	27.807245	116.430563
57381		-1.582188	-7.240960	8.978446	-0.534375	1.576720	1.345169	-0.774658	0.621582	-0.879883	-37.255898	28.991527	116.506985
57382		-3.762409	-5.331145	7.959183	0.039442	2.391440	1.826986	-0.750732	0.628662	-0.887695	-37.230076	30.715791	116.509317
57383		-5.709382	-4.608524	9.155445	-0.618821	2.136828	2.024109	-0.709473	0.636719	-0.887207	-37.473907	32.391452	116.717014
57384		-3.656600	-6.889739	7.213389	-0.922171	1.963464	2.291152	-0.688477	0.647705	-0.878906	-37.770047	34.083683	117.136692
57385		-5.348555	-6.798493	7.381333	-0.541800	2.733366	2.615261	-0.636230	0.656494	-0.876709	-37.923276	36.238522	117.406116
57386		-7.595044	-6.752674	9.003110	-0.957998	2.560039	2.480348	-0.601074	0.660156	-0.874512	-38.309888	38.269295	117.670768
57387		-7.902711	-6.953316	8.169305	-0.917139	2.593920	2.595068	-0.568604	0.666504	-0.866211	-38.639033	40.356666	117.977465
57388		-9.347722	-8.229756	9.679130	-1.007434	2.383936	2.452004	-0.535400	0.667725	-0.853027	-39.006437	42.300990	118.292037
57389		-7.913482	-6.955481	7.333906	-0.968680	2.239715	2.384700	-0.491699	0.681396	-0.846191	-39.327440	44.157607	118.630726
57390		-8.755227	-6.405580	7.507608	-1.163853	2.172652	2.387398	-0.465820	0.689453	-0.835693	-39.730893	45.987597	118.999876
57391		-8.833711	-6.130165	7.869351	-1.319312	1.839160	2.260619	-0.428223	0.691406	-0.834229	-40.149759	47.625774	119.459390
57392		-7.761437	-5.894076	6.763037	-1.423438	1.540631	2.126618	-0.397461	0.709229	-0.828369	-40.564178	49.086509	119.993451
57393		-7.012875	-5.085522	5.807359	-1.460827	1.331843	2.051603	-0.378174	0.711182	-0.810303	-40.937907	50.430603	120.597669
57394		-5.708151	-5.532089	6.219585	-1.378005	1.195870	2.025233	-0.361328	0.727539	-0.797607	-41.202149	51.708375	121.270284
57395		-4.552436	-6.919747	7.523511	-1.308134	0.880589	1.898815	-0.342041	0.726807	-0.782715	-41.325649	52.803838	122.059337
57396		-1.628898	-8.609775	9.021529	-1.108578	0.369913	1.638065	-0.342529	0.734131	-0.774658	-41.205510	53.580511	123.000118
57397		-5.511414	-7.964732	8.473237	-0.980457	0.096822	1.316297	-0.330566	0.737549	-0.774414	-41.040275	54.116994	123.897915
57398		-4.869172	-9.103524	9.329070	-0.770106	-0.277772	1.098382	-0.326172	0.737061	-0.770508	-40.676288	54.405723	124.887443
57399		-1.843231	-7.874868	7.437151	-0.582005	-0.563288	0.813531	-0.326904	0.741943	-0.763428	-40.221637	54.461225	125.853779
57400		-0.935530	-7.063256	6.353094	-0.330610	-0.768844	0.604201	-0.329346	0.739502	-0.770020	-39.646555	54.342133	126.791599
57401		-0.111960	-6.094148	5.780143	-0.218069	-0.863521	0.474349	-0.332031	0.745361	-0.770264	-39.044972	54.130557	127.684424
57402		0.031786	-5.454007	5.506583	-0.173481	-0.905854	0.351965	-0.341797	0.741455	-0.769287	-38.482605	53.847804	128.500259
57403		-0.065564	-5.493842	5.449893	-0.211773	-0.948787	0.178906	-0.354980	0.737305	-0.777344	-38.037595	53.483197	129.200743
57404		-0.367116	-6.059298	5.544716	-0.212901	-1.004299	-0.032007	-0.367432	0.745850	-0.773438	-37.707857	53.012696	129.762368
57405		-0.523008	-6.507301	5.640644	-0.134150	-1.063821	-0.248676	-0.378174	0.748047	-0.773438	-37.445381	52.441533	130.186215
57406		-0.548909	-6.569097	5.682921	-0.043745	-1.127277	-0.482127	-0.395752	0.752441	-0.773438	-37.251421	51.754761	130.461789
57407		-0.641333	-6.427824	5.619872	0.031143	-1.178071	-0.705146	-0.417969	0.751709	-0.773438	-37.126397	50.971643	130.596370
57408		-0.725666	-6.298824	5.604386	0.074882	-1.204078	-0.906062	-0.432617	0.748047	-0.782715	-37.083241	50.101798	130.594857
57409		-0.950927	-6.276870	5.726379	0.096887	-1.207752	-1.087037	-0.456543	0.751465	-0.781982	-37.121455	49.172997	130.469158
57410		-1.566041	-6.454316	6.181106	0.072917	-1.234671	-1.266600	-0.482422	0.760742	-0.778564	-37.253262	48.163649	130.236274
57411		-2.308531	-6.733192	6.721191	0.010744	-1.290119	-1.489441	-0.508301	0.750732	-0.772705	-37.498722	47.057003	129.892833
57412		-2.965486	-7.193849	7.221576	-0.066783	-1.386813	-1.743140	-0.524414	0.760742	-0.772705	-37.859636	45.809852	129.445898
57413		-3.434330	-7.696747	7.402927	-0.111552	-1.499020	-2.005340	-0.562012	0.756836	-0.766113	-38.299844	44.423915	128.911967
57414		-3.677774	-8.192210	7.378523	-0.102920	-1.592442	-2.243335	-0.586182	0.762695	-0.767578	-38.777750	42.900974	128.303575
57415		-3.975928	-8.412679	7.125160	-0.043168	-1.634187	-2.453502	-0.622803	0.759766	-0.756104	-39.256501	41.287221	127.623301
57416		-4.308384	-8.504260	6.986874	0.034084	-1.628696	-2.635146	-0.651855	0.754395	-0.757080	-39.725970	39.597851	126.867941
57417		-4.833756	-8.554134	6.863069	0.131045	-1.580664	-2.789290	-0.683350	0.745361	-0.747559	-40.166906	37.876090	126.040104
57418		-5.327947	-8.811469	6.714175	0.245185	-1.521402	-2.907176	-0.725586	0.741943	-0.742188	-40.558830	36.123695	125.153928
57419		-6.156679	-9.118147	6.396953	0.397511	-1.445991	-2.992681	-0.747559	0.741699	-0.741211	-40.867099	34.375917	124.221696
57420		-6.900098	-8.885569	6.012764	0.605261	-1.317989	-3.068572	-0.778564	0.724121	-0.730713	-41.072613	32.643307	123.219797
57421		-7.635229	-8.296322	5.569441	0.772145	-1.147028	-3.128424	-0.809326	0.709961	-0.736084	-41.198512	30.967800	122.137659
57422		-8.665857	-7.706428	5.149673	0.913177	-0.920955	-3.140612	-0.816650	0.688965	-0.733887	-41.260785	29.375403	120.971215
57423		-10.080394	-6.919312	4.830845	1.027670	-0.675549	-3.088260	-0.842285	0.681641	-0.738770	-41.258182	27.916154	119.744152
57424		-11.609174	-5.876310	4.494608	1.086011	-0.421481	-2.977832	-0.851807	0.666016	-0.739014	-41.215607	26.600811	118.476826
57425		-13.300365	-4.350447	4.063786	1.066782	-0.171360	-2.803204	-0.860840	0.645508	-0.745605	-41.162134	25.467850	117.201402
57426		-15.092863	-2.745725	3.748154	0.957891	0.036801	-2.558912	-0.873291	0.633789	-0.743164	-41.134629	24.510934	115.965191
57427		-16.332679	-1.153866	3.165733	0.787028	0.198761	-2.255073	-0.877441	0.618164	-0.749268	-41.151926	23.745235	114.814738
57428		-17.189321	0.372298	2.644643	0.605859	0.310874	-1.888107	-0.875244	0.604004	-0.750244	-41.208763	23.160532	113.796743
57429		-17.590149	1.308711	2.280134	0.398961	0.352660	-1.467967	-0.886475	0.610107	-0.754883	-41.303276	22.756462	112.963159
57430		-17.274068	1.973334	1.757366	0.228442	0.340919	-0.995884	-0.883789	0.605957	-0.757568	-41.404238	22.521539	112.356835
57431		-16.491105	2.124652	1.453093	0.071487	0.326416	-0.480799	-0.890381	0.599365	-0.757813	-41.498863	22.478013	111.997170
57432		-15.138699	1.171106	0.532418	-0.055740	0.556889	0.244587	-0.867188	0.607666	-0.751465	-41.574316	22.807147	111.879318
57433		-13.473150	2.904173	-1.419817	0.610381	0.699191	1.161156	-0.867920	0.607666	-0.752441	-41.122879	23.546066	112.132524
57434		-12.783760	1.072044	-1.485379	0.420201	0.992363	1.683603	-0.854980	0.603760	-0.763672	-40.721762	24.606640	112.520691
57435		-10.635415	1.322530	-0.120044	0.893313	1.202428	2.302726	-0.823730	0.591064	-0.774902	-39.944212	25.984456	113.137645
57436		-33.040346	-27.554422	31.095443	0.576441	0.714158	1.539625	-0.814209	0.599365	-0.776855	-39.405295	26.863062	113.601861
57437		-19.962838	-1.740718	9.084678	1.324996	-0.972592	0.328388	-0.824463	0.591309	-0.774414	-38.395410	26.546289	114.155178
57438		16.819900	3.227255	1.631759	-0.135241	-1.540655	-1.186230	-0.836670	0.586426	-0.781250	-38.463689	25.434368	114.171096
57439		-7.616876	-3.610059	9.270739	0.539335	0.668455	0.222207	-0.831299	0.580322	-0.772705	-38.219675	25.812512	114.016036
57440		-7.124100	-12.588742	7.118470	0.545345	-0.493779	-0.021499	-0.840576	0.582764	-0.776611	-37.826292	25.583344	114.196642
57441		-2.761435	-5.539076	4.234353	0.501522	0.081675	0.516146	-0.830322	0.576904	-0.783936	-37.438968	25.799773	114.422506
57442		-5.515523	-5.692638	8.895254	0.208596	0.015435	0.010538	-0.835938	0.575439	-0.777344	-37.318488	25.811765	114.419671
57443		-4.082567	-5.000435	6.875997	0.226481	0.079636	0.072786	-0.832031	0.572510	-0.787109	-37.184987	25.872139	114.423534
57444		-4.755222	-5.128618	6.970271	0.267158	0.060237	0.052066	-0.827393	0.570068	-0.792480	-37.029175	25.918968	114.424649
57445		-4.900959	-5.209752	7.388483	0.193776	-0.019990	-0.002764	-0.831787	0.564453	-0.783203	-36.914386	25.907686	114.428560
57446		-4.457898	-5.309510	7.217090	0.189808	-0.027786	-0.005701	-0.835693	0.570801	-0.791504	-36.800944	25.894339	114.434089
57447		-4.537526	-5.511015	7.195012	0.162102	-0.040659	-0.007528	-0.834473	0.562256	-0.787842	-36.701950	25.871921	114.443396
57448		-4.496279	-5.467413	7.172620	0.155185	-0.051019	0.004791	-0.836914	0.557617	-0.780029	-36.602191	25.851455	114.463048
57449		-4.386196	-5.450276	7.148955	0.145017	-0.067700	0.010751	-0.841064	0.556396	-0.791748	-36.504490	25.822801	114.491865
57450		-4.398137	-5.234525	7.267597	0.154279	-0.056681	0.017857	-0.833008	0.558594	-0.783447	-36.401477	25.804098	114.520245
57451		-4.409112	-5.172859	7.327856	0.124650	-0.053667	0.005041	-0.832764	0.563965	-0.792236	-36.319094	25.779891	114.540723
57452		-4.390161	-5.237031	7.355257	0.111406	-0.033586	0.003195	-0.839355	0.552979	-0.793457	-36.247730	25.766793	114.552815
57453		-4.361740	-5.315989	7.291339	0.085192	-0.022116	0.006228	-0.849854	0.549316	-0.789551	-36.192885	25.757527	114.561971
57454		-4.440309	-5.336029	7.324070	0.073547	-0.012288	0.013607	-0.838379	0.547852	-0.781982	-36.144374	25.757757	114.571379
57455		-4.445972	-5.277316	7.319106	0.052590	-0.007510	0.009786	-0.837402	0.557373	-0.793945	-36.109804	25.756439	114.576868
57456		-4.429236	-5.274846	7.303940	0.037186	-0.003927	0.004116	-0.835449	0.551025	-0.796631	-36.085608	25.757312	114.578261
57457		-4.429020	-5.272493	7.305770	0.025825	-0.003656	-0.001780	-0.838867	0.550781	-0.789795	-36.069585	25.753872	114.576358
57458		-4.409971	-5.287761	7.258910	0.021038	-0.007776	0.005956	-0.838379	0.557373	-0.786865	-36.053601	25.753567	114.580138
57459		-4.432602	-5.303484	7.306620	0.012967	-0.011876	0.000646	-0.836182	0.553711	-0.789795	-36.043066	25.747139	114.582558
57460		-4.398253	-5.298690	7.171885	0.018769	-0.010947	0.008383	-0.840820	0.548828	-0.784912	-36.027328	25.746167	114.588771
57461		-4.439656	-5.296902	7.268221	0.019736	-0.015494	0.009294	-0.836670	0.550049	-0.797607	-36.010396	25.740975	114.596990
57462		-4.405140	-5.231397	7.297408	0.016894	-0.018953	0.007537	-0.838379	0.551025	-0.784912	-35.994631	25.735992	114.605756
57463		-4.408548	-5.264223	7.297064	0.012329	-0.018923	0.005678	-0.836670	0.543945	-0.788086	-35.982198	25.727988	114.613391
57464		-4.415395	-5.259971	7.257123	0.008855	-0.019677	-0.002373	-0.835938	0.556396	-0.789063	-35.973135	25.719316	114.617323
57465		-4.384417	-5.229777	7.284043	0.012186	-0.020671	-0.006384	-0.837158	0.548340	-0.786621	-35.963198	25.706441	114.619399
57466		-4.376230	-5.211188	7.256741	0.005048	-0.018590	-0.005039	-0.837158	0.557373	-0.800049	-35.957090	25.697361	114.621549
57467		-4.379210	-5.244940	7.256007	0.011797	-0.015834	-0.003108	-0.836426	0.555420	-0.782471	-35.947431	25.687830	114.623501
57468		-4.315522	-5.217565	7.246536	-0.002420	-0.004920	-0.009635	-0.847168	0.553467	-0.793457	-35.948839	25.683531	114.618180
57469		-4.334090	-5.267034	7.231854	-0.001391	0.001647	-0.005485	-0.842529	0.564209	-0.790283	-35.950094	25.681309	114.612383
57470		-4.348811	-5.282319	7.218738	-0.004839	0.008627	-0.005692	-0.835205	0.556885	-0.791260	-35.954202	25.684600	114.604035
57471		-4.395177	-5.311395	7.210395	-0.004989	0.011237	-0.005304	-0.838867	0.548584	-0.793213	-35.959030	25.686886	114.594752
57472		-4.387465	-5.315435	7.250977	-0.004897	0.011620	-0.007800	-0.845703	0.550537	-0.791504	-35.964137	25.690840	114.584196
57473		-4.402546	-5.330942	7.237468	-0.004139	0.012677	-0.008608	-0.831787	0.551514	-0.784668	-35.969450	25.692680	114.572674
57474		-4.415153	-5.295999	7.256692	-0.000967	0.004547	-0.000912	-0.840332	0.552002	-0.788574	-35.969635	25.695657	114.568299
57475		-4.396462	-5.247054	7.271097	0.002818	0.009831	-0.004956	-0.832764	0.550781	-0.788330	-35.969688	25.697406	114.559719
57476		-4.376365	-5.286078	7.292304	-0.003170	0.008130	-0.007695	-0.842529	0.540283	-0.788330	-35.973233	25.699749	114.550514
57477		-4.399222	-5.232017	7.300533	-0.005802	0.013173	-0.006600	-0.835205	0.547119	-0.797607	-35.979133	25.702494	114.539839
57478		-4.397845	-5.248646	7.269111	-0.005894	0.012789	-0.004103	-0.840820	0.552246	-0.781738	-35.984193	25.708189	114.530741
57479		-4.381852	-5.250439	7.250432	-0.005043	0.014229	-0.007407	-0.844971	0.555176	-0.792480	-35.990011	25.711150	114.519255
57480		-4.367855	-5.236239	7.262355	-0.003469	0.013350	-0.006915	-0.831543	0.557617	-0.785645	-35.994403	25.716145	114.508499
57481		-4.359987	-5.234653	7.202319	-0.005856	0.016166	-0.008703	-0.839111	0.555908	-0.797363	-36.001293	25.719565	114.495620
57482		-4.382162	-5.268161	7.217173	-0.003387	0.018091	0.003042	-0.837158	0.552734	-0.792969	-36.004188	25.730094	114.488212
57483		-4.373131	-5.287891	7.227003	-0.006798	0.014341	-0.002901	-0.839355	0.548096	-0.791016	-36.010030	25.734620	114.478998
57484		-4.374323	-5.288147	7.226095	-0.002665	0.015770	0.006839	-0.840820	0.551758	-0.789307	-36.011294	25.745338	114.474407
57485		-4.408882	-5.285544	7.261186	0.004777	0.008473	0.004721	-0.835205	0.553467	-0.789307	-36.007849	25.749712	114.471309
57486		-4.405281	-5.250675	7.263141	0.007164	0.005657	0.006511	-0.839844	0.547119	-0.792236	-36.001919	25.755619	114.470329
57487		-4.395645	-5.269309	7.274145	0.005893	0.001317	0.005240	-0.835205	0.551270	-0.788330	-35.996556	25.756851	114.470175
57488		-4.408292	-5.233319	7.294125	0.005893	0.001317	0.005241	-0.833008	0.548096	-0.788574	-35.990932	25.760306	114.470164
57489		-4.394167	-5.283824	7.244290	0.009187	-0.003052	0.005834	-0.839600	0.553955	-0.796143	-35.982839	25.759713	114.471949
57490		-4.402285	-5.279398	7.203681	0.010058	-0.007982	0.009240	-0.839355	0.548828	-0.792725	-35.972424	25.760188	114.477473
57491		-4.377048	-5.216398	7.291395	0.017106	-0.010444	0.010400	-0.839111	0.549805	-0.789795	-35.957572	25.757703	114.484370
57492		-4.350626	-5.301117	7.222730	0.019614	-0.005141	0.017546	-0.840576	0.551758	-0.781982	-35.940284	25.762275	114.493109
57493		-4.353163	-5.216699	7.317449	0.022406	0.001311	0.017202	-0.836670	0.552979	-0.791016	-35.922780	25.767527	114.499121
57494		-4.399831	-5.242897	7.310928	0.018102	-0.007255	0.019169	-0.835205	0.566406	-0.793945	-35.905650	25.771641	114.509486
57495		-4.390142	-5.260163	7.322969	0.016532	-0.006375	0.018679	-0.839355	0.554688	-0.795410	-35.889931	25.773818	114.519130
57496		-4.400819	-5.238777	7.313286	0.015776	-0.007431	0.019490	-0.832520	0.554199	-0.791992	-35.874029	25.777938	114.529730
57497		-4.394565	-5.218605	7.285939	0.015318	-0.013708	0.019526	-0.839844	0.551025	-0.792969	-35.857625	25.776990	114.542546
57498		-4.379976	-5.201771	7.300081	0.014470	-0.015146	0.022836	-0.839600	0.545410	-0.794189	-35.840465	25.778631	114.557749
57499		-4.365851	-5.251108	7.251297	0.015232	-0.014090	0.022031	-0.841064	0.550049	-0.789795	-35.823487	25.778339	114.571999
57500		-4.382656	-5.247733	7.270580	0.015200	-0.017465	0.026645	-0.842041	0.556885	-0.788574	-35.804676	25.780155	114.590031
57501		-4.387086	-5.279738	7.270315	0.016294	-0.018257	0.020456	-0.845459	0.553955	-0.791504	-35.786769	25.777391	114.605019
57502		-4.399035	-5.242133	7.291710	0.017780	-0.019520	0.023453	-0.845947	0.546387	-0.793945	-35.766869	25.777158	114.622166
57503		-4.406821	-5.236550	7.252208	0.016506	-0.023860	0.022193	-0.836182	0.551270	-0.784668	-35.747546	25.772362	114.640132
57504		-4.410002	-5.202389	7.315188	0.016839	-0.025709	0.016814	-0.838867	0.548096	-0.787109	-35.728679	25.767006	114.656147
57505		-4.375714	-5.202966	7.281513	0.015270	-0.024828	0.016325	-0.837891	0.542969	-0.794189	-35.711232	25.759786	114.671435
57506		-4.393327	-5.183957	7.331647	0.013789	-0.023566	0.013335	-0.834229	0.552979	-0.785645	-35.695242	25.754242	114.684852
57507		-4.373861	-5.199795	7.284891	0.011254	-0.018137	0.011923	-0.845459	0.547607	-0.794189	-35.682168	25.748657	114.695377
57508		-4.360989	-5.233969	7.266599	0.012948	-0.015268	0.005302	-0.832764	0.547607	-0.791992	-35.669801	25.744273	114.701560
57509		-4.376875	-5.231290	7.285896	0.016679	-0.016738	0.010481	-0.835693	0.553955	-0.791504	-35.654170	25.738852	114.710817
57510		-4.390700	-5.244611	7.274823	0.014673	-0.018761	0.005417	-0.849365	0.550781	-0.798096	-35.640232	25.732863	114.718350
57511		-4.362107	-5.191939	7.231893	0.023012	-0.016896	0.007844	-0.846436	0.551758	-0.796875	-35.621543	25.726485	114.726298
57512		-4.386452	-5.190376	7.310950	0.029777	-0.014148	0.009778	-0.846436	0.550049	-0.795410	-35.598722	25.724083	114.734369
57513		-4.358795	-5.208617	7.306201	0.026403	-0.020893	0.005960	-0.843750	0.550537	-0.791016	-35.577874	25.715209	114.742816
57514		-4.362153	-5.240731	7.306603	0.020141	-0.023723	0.010726	-0.845215	0.555176	-0.787109	-35.558827	25.708642	114.754915
57515		-4.359066	-5.254755	7.278333	0.024053	-0.024434	0.010908	-0.843262	0.554443	-0.791992	-35.537653	25.699760	114.767223
57516		-4.368025	-5.233272	7.269722	0.024082	-0.021067	0.006289	-0.841309	0.547607	-0.789063	-35.517780	25.692932	114.776035
57517		-4.351848	-5.216369	7.284711	0.025201	-0.028226	0.006844	-0.838135	0.550293	-0.793457	-35.496261	25.680920	114.787631
57518		-4.348231	-5.230498	7.256722	0.022958	-0.028020	0.004666	-0.837646	0.544434	-0.791992	-35.476295	25.670289	114.798157
57519		-4.333942	-5.197434	7.302149	0.027857	-0.019168	0.006857	-0.832275	0.545410	-0.788574	-35.454707	25.662502	114.806408
57520		-4.332853	-5.195388	7.304251	0.020945	-0.019304	0.005314	-0.843018	0.540039	-0.789795	-35.437153	25.656133	114.814044
57521		-4.348535	-5.192190	7.323986	0.021387	-0.016393	0.009885	-0.840820	0.541992	-0.796387	-35.419039	25.650642	114.822834
57522		-4.347893	-5.190587	7.325503	0.013587	-0.011606	0.004904	-0.845703	0.549072	-0.791016	-35.407024	25.647713	114.827416
57523		-4.331218	-5.190606	7.308620	0.012071	-0.002964	0.012232	-0.843994	0.543701	-0.785156	-35.395865	25.649269	114.832474
57524		-4.272988	-5.284792	7.303817	-0.007172	0.009484	0.011658	-0.844727	0.543457	-0.791016	-35.397592	25.658416	114.832788
57525		-4.227731	-5.432721	7.323806	-0.038017	0.039588	0.026204	-0.840088	0.542969	-0.790527	-35.418782	25.684482	114.829414
57526		-4.296612	-5.610727	7.173444	-0.063239	0.069498	0.056038	-0.849121	0.548096	-0.790771	-35.452277	25.736359	114.830584
57527		-4.351891	-5.635925	7.058290	-0.083447	0.074049	0.090202	-0.838379	0.546631	-0.791260	-35.490632	25.799781	114.847612
57528		-4.434654	-5.579205	7.112138	-0.108990	0.063467	0.122270	-0.837158	0.541748	-0.791504	-35.534498	25.870868	114.885239
57529		-4.348479	-5.271239	7.237872	-0.125507	0.081230	0.129011	-0.832520	0.552979	-0.791260	-35.589329	25.950593	114.919627
57530		-4.331737	-5.037284	7.571725	-0.136304	0.127375	0.097349	-0.836426	0.554688	-0.791016	-35.664885	26.043179	114.920498
57531		-4.143951	-5.154330	7.722702	-0.224247	0.188199	0.120021	-0.834229	0.546143	-0.793457	-35.795861	26.169739	114.910168
57532		-4.121470	-5.237071	7.583147	-0.285921	0.289235	0.203753	-0.839844	0.558350	-0.794189	-35.959740	26.373157	114.905090
57533		-4.244433	-5.464343	7.520633	-0.352335	0.374503	0.266338	-0.829346	0.559082	-0.786377	-36.162089	26.635301	114.899423
57534		-4.130501	-5.489901	7.536681	-0.410053	0.486486	0.354903	-0.819336	0.567139	-0.790527	-36.396362	26.980977	114.896036
57535		-4.123409	-5.585801	7.497694	-0.430014	0.647256	0.467722	-0.808350	0.568115	-0.790283	-36.644517	27.437328	114.887664
57536		-3.121694	-4.998950	8.154220	-0.467727	0.819573	0.580792	-0.796143	0.572998	-0.789063	-36.919064	28.013233	114.868851
57537		-2.752535	-5.192688	7.629328	-0.450761	1.160131	0.800179	-0.783691	0.578369	-0.783936	-37.195186	28.818789	114.827024
57538		-4.571400	-5.442432	7.514670	-0.478049	1.337549	0.879449	-0.766357	0.583740	-0.777832	-37.504024	29.734024	114.750977
57539		-4.360932	-5.345965	7.302612	-0.427737	1.456647	0.907845	-0.747559	0.590820	-0.786377	-37.805387	30.711342	114.635091
57540		-4.416943	-5.556588	7.272033	-0.471600	1.547445	0.974687	-0.738525	0.592773	-0.782959	-38.138349	31.754094	114.509700
57541		-4.754511	-5.555378	7.103162	-0.410232	1.685645	1.072393	-0.710938	0.598633	-0.791016	-38.446212	32.891638	114.369695
57542		-4.972960	-5.643899	6.969466	-0.405097	1.771990	1.156204	-0.683838	0.605469	-0.781982	-38.753890	34.098474	114.228667
57543		-5.426159	-5.533299	6.952468	-0.418628	1.841250	1.224173	-0.681885	0.614014	-0.782227	-39.074185	35.358664	114.083890
57544		-5.739408	-5.420903	6.981999	-0.504056	1.893325	1.268146	-0.651367	0.615479	-0.782959	-39.452244	36.658387	113.928266
57545		-5.842834	-5.394404	6.652040	-0.538848	1.966856	1.320704	-0.626221	0.617188	-0.786621	-39.864736	38.007627	113.753829
57546		-6.596290	-5.416543	6.716411	-0.686244	2.010561	1.333802	-0.600586	0.623535	-0.770752	-40.383775	39.380845	113.548960
57547		-7.367103	-5.047362	6.908518	-0.914800	1.993223	1.283176	-0.573975	0.637207	-0.769775	-41.065568	40.724690	113.300831
57548		-7.631889	-5.295799	7.043996	-1.319216	1.877493	1.168625	-0.550781	0.640625	-0.763428	-42.007449	41.973704	113.015868
57549		-8.353609	-5.274987	6.894274	-1.727545	1.754619	1.012581	-0.537842	0.665771	-0.745117	-43.229936	43.104948	112.668750
57550		-8.611835	-5.450989	5.993023	-2.065655	1.627257	0.918449	-0.511230	0.675293	-0.731201	-44.668430	44.141136	112.295897
57551		-10.051528	-5.710462	6.473691	-2.303769	1.354041	0.768789	-0.497803	0.688477	-0.717041	-46.228442	44.997812	111.950957
57552		-9.028579	-5.806257	6.002312	-2.536472	0.902507	0.570600	-0.483643	0.717529	-0.705566	-47.838192	45.589190	111.727552
57553		-7.923169	-7.050809	4.665923	-2.592114	0.476211	0.505063	-0.487549	0.733154	-0.688721	-49.336769	45.985109	111.705993
57554		-7.288721	-7.837795	4.852010	-2.283391	0.299932	0.505730	-0.470703	0.748779	-0.679688	-50.587294	46.317114	111.782907
57555		-6.845945	-8.186790	5.343889	-1.730795	-0.002342	0.582975	-0.467529	0.760742	-0.675537	-51.356445	46.574094	112.087119
57556		-5.795460	-8.139307	5.603145	-1.099513	-0.338435	0.637778	-0.473633	0.770996	-0.665771	-51.583978	46.738516	112.637457
57557		-4.602680	-7.117430	5.755477	-0.625112	-0.639482	0.620906	-0.467285	0.780029	-0.659912	-51.401450	46.787113	113.376810
57558		-5.966854	-6.260049	5.641169	-0.288004	-0.762634	0.685559	-0.467529	0.781250	-0.669922	-50.941156	46.818129	114.231547
57559		-6.591966	-7.355005	7.264286	-0.037650	-1.093739	0.729372	-0.477051	0.778076	-0.662598	-50.165040	46.741034	115.323350
57560		-4.839143	-6.259607	5.775203	0.175080	-1.402275	0.547938	-0.490967	0.780762	-0.662842	-49.201488	46.459309	116.508284
57561		-3.728647	-5.880007	4.874003	0.253202	-1.551209	0.469657	-0.495117	0.771973	-0.666016	-48.172803	46.073087	117.728299
57562		-2.976763	-5.439763	4.045288	0.270152	-1.565907	0.440868	-0.502197	0.767822	-0.672363	-47.158543	45.654063	118.922642
57563		-2.976803	-5.702033	4.017346	0.279685	-1.517608	0.403799	-0.512695	0.771484	-0.681396	-46.194585	45.224248	120.047736
57564		-2.944683	-5.923771	3.948594	0.331044	-1.465523	0.310947	-0.523438	0.762207	-0.683350	-45.278910	44.764004	121.071389
57565		-2.897095	-6.310563	3.931288	0.374533	-1.387432	0.177140	-0.533691	0.762939	-0.683105	-44.442032	44.270655	121.955992
57566		-2.815176	-6.369985	3.895955	0.441873	-1.299887	0.015242	-0.539307	0.761963	-0.684082	-43.682295	43.739523	122.682115
57567		-2.723710	-6.226804	3.943703	0.478660	-1.187470	-0.173819	-0.560547	0.756104	-0.691406	-43.033840	43.175057	123.223163
57568		-2.581982	-5.953725	3.823221	0.494491	-1.036989	-0.359829	-0.563232	0.758057	-0.693848	-42.516319	42.596651	123.564442
57569		-2.575209	-5.765626	3.816270	0.489819	-0.855916	-0.525686	-0.578369	0.744141	-0.690430	-42.137526	42.029906	123.707183
57570		-2.853216	-5.714693	3.985275	0.467746	-0.673108	-0.675663	-0.589600	0.748291	-0.707031	-41.896048	41.481738	123.664666
57571		-3.419500	-5.910167	4.570616	0.477406	-0.505263	-0.810627	-0.598145	0.741211	-0.705322	-41.756274	40.954931	123.458552
57572		-4.011134	-6.093697	5.079470	0.527417	-0.394746	-0.949695	-0.603271	0.742432	-0.702393	-41.674240	40.421270	123.118293
57573		-4.458817	-6.032107	5.592652	0.567657	-0.307559	-1.095674	-0.615723	0.738281	-0.712402	-41.645425	39.870982	122.655343
57574		-4.981563	-5.913401	6.115281	0.581750	-0.275266	-1.238172	-0.626221	0.735107	-0.712158	-41.663924	39.278680	122.100587
57575		-5.313606	-5.655294	6.381454	0.579577	-0.272416	-1.360957	-0.634277	0.735352	-0.709717	-41.718330	38.642136	121.482680
57576		-5.610627	-5.492999	6.621289	0.532527	-0.290315	-1.452776	-0.650146	0.732422	-0.708252	-41.816269	37.960511	120.829763
57577		-5.856477	-5.406336	6.738369	0.484357	-0.325374	-1.519519	-0.662354	0.731201	-0.715332	-41.941599	37.239154	120.166157
57578		-5.911003	-5.383142	6.742991	0.463279	-0.366006	-1.536695	-0.670410	0.723145	-0.714355	-42.061596	36.490961	119.520881
57579		-5.977424	-5.178357	6.608966	0.471213	-0.392672	-1.512302	-0.682617	0.726563	-0.714600	-42.149999	35.741695	118.909375
57580		-6.212548	-4.976186	6.518045	0.484032	-0.425343	-1.449584	-0.698730	0.725098	-0.712402	-42.193311	35.000266	118.352414
57581		-6.406815	-4.820991	6.560146	0.484253	-0.452652	-1.348899	-0.711670	0.716309	-0.712891	-42.190484	34.287678	117.865705
57582		-6.589958	-4.615690	6.512719	0.448739	-0.490508	-1.256041	-0.718750	0.724121	-0.714844	-42.164889	33.593055	117.447720
57583		-6.730340	-4.526521	6.418427	0.364320	-0.516766	-1.166887	-0.730713	0.711426	-0.713623	-42.150114	32.923471	117.090293
57584		-6.960589	-4.664987	6.528052	0.253909	-0.544328	-1.094743	-0.746826	0.721191	-0.713867	-42.167471	32.268272	116.784382
57585		-7.144532	-4.849556	6.508300	0.149193	-0.586510	-1.053031	-0.754883	0.710449	-0.715332	-42.219145	31.612711	116.521249
57586		-7.188309	-5.076552	6.421044	0.067150	-0.624717	-1.034699	-0.770020	0.714111	-0.713867	-42.300178	30.946294	116.287131
57587		-7.232582	-5.019953	6.151309	0.023884	-0.633575	-1.008836	-0.777344	0.708008	-0.706787	-42.393719	30.287264	116.072563
57588		-7.172028	-4.917248	5.889923	0.004701	-0.622229	-0.974842	-0.794678	0.707520	-0.702393	-42.489015	29.644636	115.872176
57589		-7.186248	-4.751837	5.560975	-0.013752	-0.569751	-0.918879	-0.803711	0.706787	-0.702637	-42.589964	29.046781	115.678082
57590		-7.321494	-4.603359	5.430790	-0.019183	-0.499922	-0.845991	-0.809814	0.702393	-0.692871	-42.689177	28.505390	115.490384
57591		-7.529099	-4.705505	5.368697	-0.019585	-0.433128	-0.775242	-0.817383	0.708984	-0.697754	-42.784259	28.020300	115.308948
57592		-7.627805	-4.880912	5.414338	0.014228	-0.373362	-0.707844	-0.814209	0.715088	-0.687988	-42.855173	27.585714	115.134816
57593		-7.547213	-4.962195	5.401405	0.069112	-0.324051	-0.641906	-0.832520	0.711182	-0.692383	-42.888755	27.198028	114.971289
57594		-7.424771	-4.950390	5.470414	0.130431	-0.284871	-0.560508	-0.841064	0.707520	-0.689453	-42.876240	26.858221	114.829627
57595		-7.281360	-4.861565	5.532841	0.154872	-0.245767	-0.494128	-0.846436	0.705566	-0.691406	-42.842671	26.561039	114.702323
57596		-7.141384	-4.827232	5.726023	0.141214	-0.227803	-0.446655	-0.838867	0.700928	-0.687988	-42.809733	26.290017	114.589655
57597		-6.852485	-5.121951	5.773618	0.099337	-0.229300	-0.420206	-0.840820	0.706055	-0.684326	-42.794651	26.028649	114.490106
57598		-6.556967	-5.362796	5.726233	0.085087	-0.229852	-0.400118	-0.851563	0.695557	-0.684326	-42.782897	25.775244	114.400401
57599		-5.978186	-5.397933	5.618457	0.080553	-0.227925	-0.385010	-0.856689	0.707275	-0.686035	-42.770804	25.528189	114.316977
57600		-5.407242	-5.392108	5.603602	0.056294	-0.210740	-0.362064	-0.864014	0.698975	-0.680176	-42.770681	25.297881	114.237038
57601		-5.074017	-5.636021	5.683381	0.016914	-0.187217	-0.343440	-0.864746	0.696533	-0.681396	-42.793527	25.084115	114.155768
57602		-4.790064	-6.033675	5.870274	-0.007645	-0.174209	-0.330897	-0.872070	0.702148	-0.676758	-42.829850	24.881382	114.075046
57603		-3.868579	-7.380970	4.917137	-0.022429	-0.134869	-0.257472	-0.861084	0.697998	-0.677490	-42.867254	24.723017	114.011618
57604		-6.913548	-3.895238	5.718301	0.752583	0.171395	0.461620	-0.868896	0.691650	-0.674561	-42.375606	24.973747	114.150645
57605		-6.265608	-2.494804	3.259387	0.281639	0.362062	0.566528	-0.858154	0.689697	-0.680176	-42.165839	25.344220	114.259658
57606		-8.394150	-3.265769	5.535854	0.727752	0.267121	0.992287	-0.857666	0.693604	-0.685547	-41.593907	25.837475	114.613553
57607		-7.668213	-4.942663	6.258715	0.760360	0.268930	1.304050	-0.844727	0.688965	-0.690186	-40.931406	26.444736	115.123745
57608		-18.421852	-12.675799	14.218709	2.107371	-0.468058	0.718065	-0.853027	0.671631	-0.699463	-39.480030	26.505736	115.665998
57609		-2.986602	-2.186497	5.054320	-0.153290	-0.338424	-0.014433	-0.847900	0.664795	-0.698486	-39.508704	26.349575	115.794295
57610		-2.352080	-4.209537	7.703968	0.810722	-0.275159	0.057166	-0.846680	0.665527	-0.704346	-38.981071	26.248876	115.931696
57611		-5.385977	-5.205060	7.593658	0.829600	-0.197853	0.093989	-0.851074	0.663086	-0.709961	-38.449095	26.192864	116.055263
57612		-4.353112	-4.857957	7.706639	0.681071	-0.183275	0.044982	-0.859619	0.651855	-0.705078	-38.015579	26.126975	116.148096
57613		-4.105981	-5.113516	7.608593	0.519587	-0.187491	0.112637	-0.853516	0.647949	-0.710693	-37.659585	26.080515	116.275911
57614		-4.927254	-6.240395	6.612570	0.441649	-0.210019	0.080857	-0.854980	0.649902	-0.712646	-37.351250	26.013895	116.396256
57615		-4.291886	-6.074217	6.910549	0.383017	-0.167355	0.043758	-0.859863	0.649170	-0.709961	-37.092769	25.951520	116.480654
57616		-4.259574	-5.701009	7.138105	0.300825	-0.205257	0.084652	-0.861816	0.635742	-0.709961	-36.865766	25.887397	116.600242
57617		-4.473304	-5.810732	7.103677	0.292673	-0.063221	0.078518	-0.859619	0.637939	-0.720703	-36.669037	25.884138	116.662055
57618		-4.329479	-5.517728	7.167906	0.233216	-0.079499	0.077135	-0.860596	0.637451	-0.717773	-36.503631	25.874548	116.729506
57619		-4.449656	-5.397712	7.264659	0.196892	-0.066925	0.079507	-0.862549	0.634766	-0.715820	-36.360974	25.869593	116.793197
57620		-4.494736	-5.216365	7.291432	0.177415	-0.031662	0.072839	-0.863281	0.636475	-0.710205	-36.236416	25.880315	116.840340
57621		-4.465637	-5.173635	7.326592	0.150325	-0.012902	0.056254	-0.864014	0.625732	-0.724609	-36.134520	25.892230	116.871749
57622		-4.453762	-5.117793	7.408177	0.105087	0.000766	0.034119	-0.857910	0.626709	-0.722900	-36.065371	25.904744	116.886845
57623		-4.349619	-5.122367	7.344526	0.077001	0.016807	0.028352	-0.861328	0.629395	-0.725098	-36.016602	25.920945	116.892788
57624		-4.413531	-5.187612	7.264796	0.054359	0.031581	0.020581	-0.854980	0.628662	-0.721191	-35.984577	25.943149	116.889398
57625		-4.424597	-5.305087	7.268114	0.043488	0.038400	0.014808	-0.847412	0.629883	-0.716797	-35.961589	25.964798	116.880298
57626		-4.419704	-5.424694	7.252658	0.034130	0.040030	0.019224	-0.857910	0.627197	-0.728760	-35.942841	25.990457	116.873064
57627		-4.432519	-5.416229	7.211972	0.042572	0.035261	0.028340	-0.861084	0.629395	-0.718262	-35.916802	26.015206	116.872138
57628		-4.467947	-5.305929	7.274928	0.039709	0.028431	0.031272	-0.853760	0.629395	-0.715088	-35.890240	26.039523	116.875476
57629		-4.454091	-5.318601	7.226861	0.034790	0.016658	0.031219	-0.855469	0.626953	-0.710938	-35.864943	26.056602	116.883015
57630		-4.424322	-5.317249	7.191953	0.042534	0.015103	0.031440	-0.855713	0.632568	-0.720947	-35.834533	26.074775	116.891440
57631		-4.380782	-5.270987	7.231789	0.039490	0.013909	0.032645	-0.859863	0.637939	-0.718018	-35.805754	26.091048	116.900764
57632		-4.451802	-5.222578	7.266932	0.033179	0.016745	0.035851	-0.856201	0.633545	-0.724609	-35.779966	26.111443	116.910877
57633		-4.434319	-5.155738	7.313838	0.022579	0.015327	0.031360	-0.851318	0.632080	-0.727051	-35.761388	26.127938	116.919026
57634		-4.475497	-5.184287	7.347630	0.007215	0.015834	0.030526	-0.854980	0.633301	-0.728516	-35.751524	26.146111	116.926738
57635		-4.377374	-5.259126	7.215560	0.044868	0.056886	0.033008	-0.856201	0.620850	-0.720947	-35.726621	26.182482	116.920258
57636		-4.489677	-5.227208	7.313194	0.002816	0.033102	0.027782	-0.849365	0.620605	-0.722168	-35.722736	26.207754	116.920122
57637		-4.487675	-5.191746	7.314418	0.005131	0.033237	0.027430	-0.853271	0.625732	-0.727051	-35.717983	26.231259	116.919578
57638		-4.490280	-5.206146	7.282140	-0.006831	0.027524	0.021639	-0.856445	0.621582	-0.725830	-35.720111	26.251873	116.918341
57639		-4.443296	-5.217964	7.326594	-0.011302	0.025055	0.019419	-0.857422	0.629395	-0.727783	-35.725262	26.268893	116.916692
57640		-4.475810	-5.261591	7.268374	-0.017940	0.020255	0.014611	-0.851563	0.629150	-0.717773	-35.734171	26.283765	116.914517
57641		-4.502948	-5.256068	7.243593	-0.016319	0.016315	0.017218	-0.856445	0.634277	-0.732422	-35.741261	26.295983	116.914983
57642		-4.490134	-5.227460	7.285664	-0.021359	0.011012	0.010340	-0.852295	0.630127	-0.724121	-35.751591	26.305117	116.914037
57643		-4.442785	-5.232888	7.229709	-0.020889	0.016457	0.015404	-0.855713	0.630615	-0.720947	-35.761741	26.316795	116.913505
57644		-4.471300	-5.197223	7.266454	-0.028335	0.013632	0.009292	-0.852295	0.624023	-0.718750	-35.776749	26.326786	116.911032
57645		-4.472827	-5.198915	7.264303	-0.028389	0.016654	0.007166	-0.853760	0.626953	-0.726563	-35.793127	26.335794	116.906148
57646		-4.473501	-5.216198	7.231074	-0.033000	0.016385	0.007889	-0.854492	0.628418	-0.722656	-35.811589	26.346584	116.901912
57647		-4.472309	-5.257128	7.266993	-0.040583	0.015757	0.004726	-0.850342	0.633301	-0.721680	-35.835372	26.354354	116.896090
57648		-4.514836	-5.252160	7.259335	-0.038115	0.010257	0.006091	-0.845215	0.630615	-0.718994	-35.856168	26.361682	116.893207
57649		-4.477122	-5.223794	7.223345	-0.040275	0.007928	0.003508	-0.852295	0.635742	-0.729736	-35.878756	26.365404	116.889681
57650		-4.459546	-5.251124	7.272490	-0.036210	0.001925	0.002801	-0.848633	0.629395	-0.718994	-35.897837	26.367750	116.888210
57651		-4.483670	-5.263120	7.216396	-0.044483	-0.002779	0.002595	-0.853516	0.629883	-0.719971	-35.921265	26.366194	116.888223
57652		-4.467716	-5.252330	7.227329	-0.040985	-0.011610	-0.002774	-0.850342	0.636719	-0.718018	-35.942113	26.360374	116.888943
57653		-4.478005	-5.204870	7.277349	-0.040144	-0.009722	-0.008672	-0.851807	0.633545	-0.721436	-35.964485	26.351808	116.885732
57654		-4.506576	-5.251221	7.219138	-0.039941	-0.014941	-0.009491	-0.851563	0.625244	-0.724854	-35.985719	26.342174	116.884233
57655		-4.468654	-5.177726	7.277316	-0.037956	-0.022431	-0.017870	-0.851563	0.637939	-0.717041	-36.006825	26.324617	116.881048
57656		-4.458183	-5.178093	7.217132	-0.039319	-0.023285	-0.023815	-0.848145	0.639893	-0.719238	-36.029590	26.306281	116.875289
57657		-4.430963	-5.172902	7.270291	-0.036016	-0.026893	-0.028361	-0.858643	0.628906	-0.714844	-36.051234	26.283118	116.868376
57658		-4.424950	-5.222569	7.176600	-0.037662	-0.023368	-0.028401	-0.853027	0.635742	-0.720215	-36.074066	26.263183	116.860301
57659		-4.401124	-5.296802	7.134061	-0.030985	-0.018162	-0.026118	-0.859375	0.634033	-0.726807	-36.093755	26.244816	116.851283
57660		-4.395249	-5.220597	7.228902	-0.032474	-0.020274	-0.024453	-0.852051	0.634033	-0.723633	-36.113222	26.227631	116.844098
57661		-4.418761	-5.202470	7.235961	-0.030511	-0.012733	-0.021029	-0.852539	0.630859	-0.717285	-36.132370	26.213489	116.835678
57662		-4.401737	-5.310119	7.190318	-0.034405	-0.012376	-0.018585	-0.857178	0.633545	-0.719727	-36.152909	26.201925	116.828560
57663		-4.428774	-5.246507	7.289771	-0.037009	-0.004691	-0.016966	-0.860107	0.634521	-0.723877	-36.176183	26.192872	116.819217
57664		-4.420020	-5.246387	7.228768	-0.036359	-0.001027	-0.017372	-0.855469	0.632080	-0.724854	-36.199449	26.186948	116.808458
57665		-4.409625	-5.269773	7.236942	-0.035751	0.002214	-0.015242	-0.851807	0.641846	-0.725098	-36.222754	26.181664	116.797408
57666		-4.434912	-5.251732	7.242920	-0.037300	0.003130	-0.015697	-0.855225	0.634277	-0.720947	-36.246866	26.178209	116.785949
57667		-4.412206	-5.340546	7.168171	-0.031739	-0.000750	-0.018088	-0.851563	0.633545	-0.723145	-36.268021	26.170583	116.774559
57668		-4.432413	-5.273356	7.208164	-0.036543	0.004185	-0.016512	-0.863037	0.635010	-0.715088	-36.292060	26.167321	116.762286
57669		-4.409885	-5.243829	7.190870	-0.032870	0.005166	-0.010927	-0.852051	0.629883	-0.709717	-36.313220	26.164848	116.752351
57670		-4.437639	-5.313306	7.201243	-0.035166	0.005025	-0.010554	-0.859619	0.635986	-0.714600	-36.335257	26.163978	116.742829
57671		-4.422156	-5.302450	7.212015	-0.034519	0.008689	-0.010957	-0.861572	0.632568	-0.717041	-36.357955	26.163113	116.731548
57672		-4.428064	-5.339020	7.207111	-0.029192	0.006144	-0.005335	-0.858887	0.641357	-0.718506	-36.375575	26.164517	116.724285
57673		-4.389813	-5.309965	7.171917	-0.031531	0.005576	-0.002430	-0.857178	0.639648	-0.726074	-36.394109	26.165108	116.718567
57674		-4.447842	-5.303445	7.183281	-0.027032	0.008465	-0.002742	-0.852783	0.631836	-0.721436	-36.410298	26.168448	116.711754
57675		-4.397529	-5.332947	7.196388	-0.024877	0.010787	-0.000153	-0.854980	0.630859	-0.717773	-36.425375	26.172213	116.705230
57676		-4.398329	-5.334623	7.194656	-0.023364	0.009442	0.002841	-0.855957	0.632813	-0.721924	-36.438367	26.177890	116.700912
57677		-4.419644	-5.280629	7.204023	-0.019100	0.013656	0.010549	-0.859619	0.641113	-0.723145	-36.448191	26.186618	116.698793
57678		-4.437396	-5.280278	7.220611	-0.015161	0.013735	0.005574	-0.854248	0.644287	-0.712158	-36.456586	26.195191	116.694247
57679		-4.469390	-5.308827	7.193265	-0.016608	0.012045	0.004696	-0.856201	0.634521	-0.719482	-36.466042	26.201183	116.689730
57680		-4.406917	-5.284568	7.181717	-0.014205	0.009580	0.003905	-0.853027	0.629150	-0.718262	-36.473573	26.207264	116.685901
57681		-4.430005	-5.317820	7.195863	-0.007352	0.009575	0.005333	-0.858154	0.641602	-0.721924	-36.477169	26.212334	116.682647
57682		-4.436673	-5.352107	7.192094	-0.010293	0.005768	0.006105	-0.848145	0.643555	-0.718750	-36.481323	26.217398	116.681393
57683		-4.424777	-5.299776	7.166193	-0.007950	0.006338	0.003204	-0.861816	0.632080	-0.714844	-36.485203	26.220251	116.678274
57684		-4.456075	-5.327568	7.139785	-0.003235	0.000550	0.006685	-0.850830	0.633789	-0.722656	-36.484310	26.223098	116.679298
57685		-4.442028	-5.298671	7.183639	-0.003235	0.000550	0.006685	-0.851563	0.635254	-0.716797	-36.483727	26.224471	116.680165
57686		-4.384742	-5.307203	7.170373	0.001362	0.000832	0.005948	-0.854004	0.636719	-0.720459	-36.480419	26.227190	116.680701
57687		-4.442928	-5.298044	7.183546	0.000470	0.001951	0.009732	-0.847900	0.637451	-0.720215	-36.477256	26.230245	116.682600
57688		-4.443548	-5.297624	7.183472	0.001260	0.003438	0.006373	-0.849854	0.629639	-0.722168	-36.474350	26.234300	116.682364
57689		-4.443975	-5.297207	7.183515	0.001422	-0.002204	0.008058	-0.857422	0.639893	-0.716553	-36.470324	26.234871	116.684982
57690		-4.453955	-5.276695	7.173547	0.000514	0.002380	0.007199	-0.858887	0.635010	-0.717529	-36.467481	26.238711	116.685572
57691		-4.451494	-5.315439	7.211637	-0.000043	-0.000429	0.002534	-0.851807	0.634277	-0.709473	-36.465847	26.238218	116.684678
57692		-4.428435	-5.297703	7.165467	-0.001536	-0.002546	0.004186	-0.863281	0.634521	-0.723389	-36.464038	26.238755	116.685590
57693		-4.419722	-5.302570	7.206763	0.002416	-0.005930	0.003850	-0.857422	0.636475	-0.717041	-36.459772	26.236176	116.687461
57694		-4.428999	-5.282185	7.197134	0.001713	-0.006560	0.002143	-0.856934	0.640625	-0.716064	-36.455893	26.234157	116.688846
57695		-4.450759	-5.314772	7.212581	-0.001289	-0.007331	0.000804	-0.852295	0.638916	-0.721924	-36.454208	26.229896	116.689684
57696		-4.468374	-5.289497	7.161914	0.004156	-0.008598	-0.001183	-0.855469	0.639648	-0.713135	-36.449342	26.225796	116.690132
57697		-4.433085	-5.315801	7.195458	0.001155	-0.009369	-0.002522	-0.854248	0.633301	-0.723633	-36.446670	26.219463	116.690034
57698		-4.424585	-5.311906	7.136810	0.004200	-0.008170	-0.003717	-0.853760	0.641113	-0.716064	-36.442430	26.214692	116.689016
57699		-4.414142	-5.331768	7.147541	0.005066	-0.013182	-0.000322	-0.855469	0.644043	-0.716553	-36.436380	26.207350	116.691493
57700		-4.429593	-5.330300	7.166363	0.003454	-0.009228	-0.002889	-0.855713	0.635986	-0.714600	-36.432208	26.202364	116.691299
57701		-4.392268	-5.268702	7.195737	0.000265	-0.008249	0.001264	-0.857910	0.635986	-0.718018	-36.429375	26.197836	116.692718
57702		-4.455203	-5.293879	7.206318	-0.001245	-0.006903	-0.001727	-0.861084	0.638672	-0.718750	-36.428024	26.194308	116.692238
57703		-4.428655	-5.315510	7.198400	-0.003501	-0.006615	-0.003891	-0.860596	0.634277	-0.720459	-36.428792	26.188778	116.690389
57704		-4.406634	-5.268155	7.214540	-0.000354	-0.008023	-0.005510	-0.857910	0.643555	-0.719482	-36.427602	26.183439	116.688389
57705		-4.452857	-5.294932	7.206993	-0.003355	-0.008794	-0.006847	-0.856934	0.637695	-0.720947	-36.428592	26.175900	116.685848
57706		-4.436353	-5.281496	7.220361	-0.000189	-0.013665	-0.003821	-0.861084	0.630615	-0.718506	-36.425980	26.168525	116.686854
57707		-4.410361	-5.288078	7.243728	-0.001160	-0.006046	-0.006793	-0.860596	0.637695	-0.712891	-36.426157	26.162271	116.683299
57708		-4.375958	-5.305815	7.176764	0.001946	-0.007882	-0.005879	-0.858154	0.631348	-0.717529	-36.423753	26.156854	116.681057
57709		-4.407874	-5.303502	7.213331	-0.001242	-0.006903	-0.001725	-0.856445	0.640381	-0.714355	-36.422687	26.151929	116.680430
57710		-4.391025	-5.304757	7.195519	0.001760	-0.006132	-0.000388	-0.854980	0.628174	-0.714600	-36.419441	26.149175	116.680343
57711		-4.438754	-5.316133	7.218974	-0.002195	-0.002748	-0.000052	-0.861328	0.635010	-0.723877	-36.419236	26.146735	116.679000
57712		-4.431696	-5.297360	7.190984	-0.000538	-0.006273	-0.000018	-0.854736	0.638184	-0.723389	-36.417201	26.144033	116.679156
57713		-4.396685	-5.323927	7.224069	-0.003644	-0.004437	-0.000931	-0.860596	0.634766	-0.716553	-36.417743	26.140515	116.678002
57714		-4.430834	-5.297906	7.191113	-0.005093	-0.006126	-0.001810	-0.852051	0.632324	-0.722168	-36.418749	26.137261	116.677180
57715		-4.396713	-5.309606	7.255152	-0.004430	-0.005925	0.002430	-0.860840	0.628906	-0.716309	-36.418732	26.134201	116.678316
57716		-4.414663	-5.284718	7.204078	-0.001367	-0.000832	-0.005946	-0.855469	0.633789	-0.721924	-36.419423	26.131972	116.673365
57717		-4.404638	-5.305364	7.213939	-0.008943	-0.005350	-0.001895	-0.855713	0.640869	-0.714111	-36.423067	26.127705	116.672062
57718		-4.412907	-5.300801	7.172751	-0.003643	-0.004437	-0.000930	-0.857666	0.646973	-0.713379	-36.423325	26.125511	116.671052
57719		-4.428909	-5.299933	7.190805	-0.003706	-0.001402	-0.003041	-0.859863	0.632568	-0.712891	-36.424886	26.122675	116.667665
57720		-4.418944	-5.320441	7.200725	-0.003602	-0.004009	-0.003464	-0.854248	0.635010	-0.715576	-36.425767	26.119809	116.665191
57721		-4.408909	-5.340909	7.210714	-0.004387	-0.005497	-0.000103	-0.856201	0.645020	-0.719971	-36.426371	26.116085	116.664864
57722		-4.371909	-5.279614	7.239639	0.000890	-0.001119	-0.003783	-0.856689	0.635010	-0.711670	-36.425236	26.114434	116.661130
57723		-4.418909	-5.306136	7.231846	-0.003043	-0.001200	0.001199	-0.857422	0.629150	-0.719727	-36.425492	26.113133	116.659844
57724		-4.402372	-5.307782	7.213543	-0.007452	-0.003232	-0.003548	-0.854248	0.639160	-0.716797	-36.428729	26.110577	116.657031
57725		-4.417579	-5.321827	7.200538	0.000023	-0.003465	0.004644	-0.863281	0.633301	-0.717773	-36.426072	26.109404	116.658372
57726		-4.395522	-5.289121	7.185348	-0.003891	0.000347	0.002449	-0.859619	0.636475	-0.721680	-36.426513	26.110530	116.657282
57727		-4.408254	-5.342217	7.210145	-0.006997	0.002183	0.001537	-0.853271	0.636719	-0.716064	-36.429521	26.110904	116.654888
57728		-4.380494	-5.275930	7.197617	-0.003891	0.000347	0.002449	-0.859375	0.637451	-0.720703	-36.429965	26.112020	116.653796
57729		-4.402001	-5.323768	7.181426	-0.006270	-0.000653	0.007888	-0.862549	0.631348	-0.719238	-36.430649	26.113248	116.655737
57730		-4.412858	-5.288785	7.202199	-0.003995	0.002954	0.002872	-0.852295	0.630127	-0.714355	-36.431492	26.115701	116.653874
57731		-4.435252	-5.321902	7.216875	-0.009253	0.002471	-0.000624	-0.855225	0.638672	-0.721924	-36.436330	26.115473	116.650261
57732		-4.412114	-5.304789	7.170290	-0.005940	-0.004578	-0.000559	-0.864502	0.634521	-0.727783	-36.437808	26.113279	116.649491
57733		-4.403197	-5.310473	7.211059	-0.009149	-0.000136	-0.001046	-0.859131	0.632813	-0.718750	-36.442246	26.111704	116.646649
57734		-4.386781	-5.312329	7.192520	-0.008340	-0.002113	0.000237	-0.856689	0.639404	-0.724854	-36.445333	26.110910	116.645352
57735		-4.450196	-5.338015	7.202493	-0.006891	-0.000424	0.001116	-0.859131	0.637451	-0.722656	-36.447942	26.109938	116.643730
57736		-4.396200	-5.293317	7.181843	-0.009044	-0.002743	-0.001469	-0.864990	0.643311	-0.718018	-36.451714	26.108265	116.641796
57737		-4.380561	-5.280031	7.194569	-0.003746	-0.001830	-0.000507	-0.855713	0.626465	-0.718994	-36.452652	26.106092	116.639874
57738		-4.396126	-5.294074	7.181329	-0.007076	0.001322	0.006607	-0.854492	0.640869	-0.713867	-36.454152	26.109033	116.640543
57739		-4.425235	-5.346005	7.224161	-0.006146	0.000635	0.000289	-0.855957	0.638428	-0.719727	-36.456697	26.108268	116.638095
57740		-4.412626	-5.293899	7.198583	-0.012148	-0.000906	-0.002378	-0.862305	0.638428	-0.719971	-36.462762	26.107114	116.634997
57741		-4.386705	-5.315863	7.189955	-0.006186	0.000205	0.002823	-0.860840	0.634033	-0.716553	-36.464686	26.107013	116.634013
57742		-4.412756	-5.295139	7.197592	-0.012291	0.001270	0.000580	-0.859863	0.641357	-0.718506	-36.470529	26.107861	116.631607
57743		-4.418650	-5.329541	7.194173	-0.002297	-0.000142	0.000372	-0.865479	0.635742	-0.711182	-36.470720	26.106766	116.629496
57744		-4.412820	-5.296210	7.196764	-0.012995	0.000641	-0.001125	-0.862061	0.635742	-0.713379	-36.477248	26.106735	116.626453
57745		-4.419368	-5.315949	7.224355	-0.005216	-0.000050	-0.006028	-0.865234	0.633301	-0.720459	-36.480571	26.103502	116.621025
57746		-4.397164	-5.283949	7.208766	-0.013075	-0.000221	0.003942	-0.857422	0.632568	-0.716553	-36.485858	26.104793	116.620909
57747		-4.377073	-5.339881	7.197050	-0.007552	-0.000623	-0.003121	-0.858643	0.638428	-0.718750	-36.489768	26.102286	116.617189
57748		-4.379826	-5.301666	7.158470	-0.013737	-0.000419	-0.000296	-0.857178	0.633545	-0.713135	-36.496358	26.102031	116.614974
57749		-4.379964	-5.302178	7.158006	-0.002441	0.002033	0.003331	-0.863525	0.641357	-0.710693	-36.496326	26.102946	116.613556
57750		-4.419701	-5.319121	7.221816	-0.011688	0.004505	0.002715	-0.856934	0.635498	-0.722412	-36.501888	26.105977	116.611016
57751		-4.403895	-5.320750	7.203052	-0.004840	0.004498	0.004130	-0.857910	0.639160	-0.725342	-36.503462	26.108299	116.609072
