// General information: 
//  MT Manager version: 2022.2.0 
//  XDA version: 2022.2.0 build 7381 rev 124627 built on 2023-07-19
// Device information: 
//  DeviceId: 00B4C223
//  ProductCode: MTW2-3A7G6
//  Firmware Version: 4.6.0
//  Hardware Version: 2.0.0
// Device settings: 
//  Filter Profile: human(46.1)
//  Option Flags: Orientation Smoother Disabled, Position/Velocity Smoother Disabled, Continuous Zero Rotation Update Disabled, AHS Disabled, ICC Disabled
// Coordinate system: ENU
PacketCounter	SampleTimeFine	Acc_X	Acc_Y	Acc_Z	Gyr_X	Gyr_Y	Gyr_Z	Mag_X	Mag_Y	Mag_Z	Roll	Pitch	Yaw
39378		9.480506	-0.416777	2.293358	-0.000689	0.000640	0.006369	-1.272461	0.299805	0.633057	-10.222294	-76.372370	93.672540
39379		9.471920	-0.403807	2.274813	-0.001234	0.001697	-0.001298	-1.268066	0.304932	0.621826	-10.216130	-76.371831	93.665679
39380		9.463045	-0.424134	2.264665	-0.004019	0.002595	0.001054	-1.272705	0.305664	0.628418	-10.215324	-76.370792	93.664453
39381		9.454448	-0.411058	2.246190	-0.003141	0.001449	0.000559	-1.273438	0.298096	0.627686	-10.215419	-76.370024	93.667387
39382		9.463232	-0.390990	2.256673	-0.001401	0.001742	0.002783	-1.277344	0.297852	0.628418	-10.217491	-76.369290	93.670666
39383		9.492855	-0.407437	2.263513	-0.004002	0.000009	-0.002159	-1.276123	0.295166	0.626709	-10.211264	-76.369694	93.662469
39384		9.458050	-0.421764	2.205719	-0.001418	0.004328	0.005996	-1.271973	0.304443	0.628418	-10.219733	-76.367176	93.672320
39385		9.463083	-0.391708	2.257172	-0.006787	0.000907	0.000192	-1.271240	0.302002	0.631348	-10.220481	-76.366832	93.670576
39386		9.471593	-0.405178	2.275931	-0.001401	0.001742	0.002782	-1.265381	0.298096	0.623291	-10.222552	-76.366098	93.673854
39387		9.462710	-0.425777	2.265754	-0.003663	0.002044	0.002846	-1.269043	0.303223	0.626709	-10.227513	-76.364939	93.678091
39388		9.462937	-0.392508	2.257645	-0.001757	0.002293	0.000989	-1.274658	0.307861	0.625244	-10.225388	-76.364077	93.676842
39389		9.471411	-0.405913	2.276557	-0.002635	0.003440	0.001484	-1.275879	0.299316	0.620117	-10.226426	-76.362114	93.680787
39390		9.475081	-0.416314	2.235873	-0.002785	0.000898	0.002351	-1.288086	0.288818	0.632080	-10.228642	-76.361900	93.683398
39391		9.450174	-0.403314	2.288922	-0.002130	0.005430	0.002409	-1.277100	0.302490	0.625488	-10.228744	-76.358638	93.682037
39392		9.453873	-0.413647	2.248132	-0.001534	-0.003386	0.000436	-1.271973	0.299316	0.625488	-10.227587	-76.361034	93.681916
39393		9.453900	-0.413770	2.247997	-0.006788	0.000907	0.000191	-1.269287	0.296143	0.618896	-10.228330	-76.360616	93.681257
39394		9.483792	-0.396744	2.246592	0.000506	0.001991	0.000926	-1.271484	0.308350	0.629150	-10.224887	-76.359931	93.679986
39395		9.450069	-0.403878	2.289253	-0.002635	0.003440	0.001484	-1.266357	0.303955	0.622070	-10.225502	-76.357968	93.682348
39396		9.444886	-0.434502	2.238336	-0.002635	0.003440	0.001484	-1.276123	0.298096	0.624023	-10.224549	-76.356408	93.681788
39397		9.462488	-0.394202	2.259235	-0.002786	0.000898	0.002351	-1.273438	0.302490	0.626709	-10.228083	-76.355757	93.686655
39398		9.432519	-0.411639	2.260877	-0.001401	0.001742	0.002782	-1.279053	0.301270	0.623291	-10.230151	-76.355023	93.689930
39399		9.479448	-0.421314	2.296902	-0.000896	0.003732	0.003708	-1.264160	0.300537	0.618896	-10.234479	-76.352620	93.696949
39400		9.474572	-0.418195	2.237677	-0.001945	0.002801	-0.004884	-1.272949	0.295898	0.621582	-10.218610	-76.352069	93.681446
39401		9.462254	-0.394740	2.260118	-0.001402	0.001742	0.002782	-1.280029	0.301025	0.631836	-10.221671	-76.350883	93.685370
39402		9.470711	-0.408456	2.279014	-0.005066	0.003786	0.005627	-1.270020	0.298828	0.629395	-10.231585	-76.348706	93.694560
39403		9.482911	-0.432125	2.257028	-0.001234	0.001698	-0.001298	-1.268311	0.301758	0.630127	-10.225379	-76.348219	93.688345
39404		9.474328	-0.418926	2.238572	-0.004020	0.002596	0.001052	-1.269531	0.301758	0.623535	-10.224571	-76.347180	93.687117
39405		9.461983	-0.395730	2.261078	-0.002636	0.003440	0.001483	-1.277588	0.298096	0.626465	-10.225264	-76.345383	93.688281
39406		9.461620	-0.429493	2.269604	-0.001402	0.001741	0.002782	-1.275146	0.299316	0.622803	-10.227329	-76.344649	93.691553
39407		9.470375	-0.409421	2.280235	-0.005254	0.004294	-0.000247	-1.271973	0.300293	0.619385	-10.224319	-76.342364	93.686947
39408		9.444102	-0.437095	2.241140	-0.001570	0.001785	0.006862	-1.275391	0.297852	0.628174	-10.235928	-76.341191	93.699941
39409		9.453167	-0.383640	2.243427	-0.002112	0.002845	-0.000804	-1.274170	0.300293	0.629883	-10.230582	-76.339801	93.694888
39410		9.478702	-0.423416	2.299593	0.000506	0.001990	0.000926	-1.277344	0.300293	0.628418	-10.227142	-76.339115	93.693619
39411		9.461548	-0.397119	2.262657	-0.004393	0.005733	0.002471	-1.273926	0.294434	0.627686	-10.229740	-76.335919	93.695054
39412		9.452647	-0.417660	2.252540	-0.001908	-0.000249	0.001856	-1.278564	0.294922	0.625000	-10.230777	-76.336401	93.696970
39413		9.461459	-0.397566	2.262950	-0.003141	0.001449	0.000557	-1.270020	0.293945	0.633789	-10.229210	-76.335752	93.692861
39414		9.469938	-0.410867	2.281790	-0.002112	0.002845	-0.000804	-1.262695	0.301025	0.631592	-10.222899	-76.334760	93.687095
39415		9.469890	-0.410915	2.281982	-0.003141	0.001449	0.000557	-1.281494	0.302979	0.624023	-10.222412	-76.334491	93.683337
39416		9.461306	-0.397905	2.263530	-0.002281	0.002888	0.003276	-1.268555	0.301270	0.624268	-10.225642	-76.333060	93.687290
39417		9.482373	-0.401399	2.251751	-0.001553	-0.000801	0.003648	-1.277344	0.300781	0.622314	-10.232124	-76.333246	93.696294
39418		9.452414	-0.418876	2.253293	-0.001402	0.001741	0.002781	-1.262207	0.301270	0.632324	-10.234183	-76.332512	93.699560
39419		9.469726	-0.412188	2.282432	-0.005049	0.001201	0.002412	-1.273193	0.302734	0.629883	-10.239199	-76.331915	93.703351
39420		9.440050	-0.396155	2.275792	-0.003665	0.002044	0.002844	-1.266602	0.306152	0.631104	-10.242573	-76.331004	93.706635
39421		9.482190	-0.402870	2.252259	-0.004189	0.002639	0.005130	-1.270508	0.300781	0.627686	-10.253296	-76.329406	93.717524
39422		9.443675	-0.407179	2.235266	-0.002787	0.000898	0.002349	-1.279297	0.291260	0.629395	-10.255501	-76.329192	93.720123
39423		9.469561	-0.413652	2.282852	-0.002414	-0.002239	0.000929	-1.270508	0.292969	0.622559	-10.256149	-76.330678	93.718795
39424		9.461049	-0.400796	2.264093	-0.004340	0.000097	0.005997	-1.277100	0.302246	0.615967	-10.268035	-76.330543	93.730441
39425		9.461038	-0.401319	2.264048	-0.001553	-0.000801	0.003648	-1.269775	0.294189	0.632813	-10.273761	-76.330607	93.737866
39426		9.452193	-0.421853	2.253663	-0.006789	0.000910	0.000187	-1.274414	0.302002	0.623779	-10.273239	-76.330607	93.735300
39427		9.469525	-0.414977	2.282760	-0.000879	0.001147	0.000494	-1.272217	0.297607	0.619629	-10.270958	-76.330258	93.732661
39428		9.443644	-0.408845	2.235096	-0.003293	-0.001092	0.001423	-1.270752	0.289063	0.626709	-10.272140	-76.331260	93.733909
39429		9.448737	-0.378712	2.286294	-0.004171	0.000054	0.001917	-1.280273	0.293945	0.633789	-10.274761	-76.331240	93.733722
39430		9.452149	-0.422631	2.253703	-0.002787	0.000898	0.002349	-1.279053	0.304199	0.631836	-10.276962	-76.331025	93.736317
39431		9.460967	-0.402546	2.264126	-0.002263	0.000303	0.000062	-1.267334	0.297607	0.625488	-10.274768	-76.331227	93.732388
39432		9.457204	-0.392684	2.305035	-0.002432	0.000345	0.004141	-1.263916	0.302979	0.620361	-10.281153	-76.331141	93.739498
39433		9.443551	-0.410104	2.235255	-0.004020	0.002597	0.001051	-1.270752	0.302002	0.625488	-10.281714	-76.329811	93.740407
39434		9.460554	-0.436763	2.272658	-0.002263	0.000303	0.000062	-1.276855	0.297363	0.630615	-10.278565	-76.330165	93.737804
39435		9.482007	-0.406461	2.252384	-0.003799	-0.003082	0.000496	-1.270264	0.291992	0.634277	-10.279823	-76.332151	93.737962
39436		9.452084	-0.423798	2.253757	-0.002787	0.000897	0.002349	-1.271973	0.302734	0.627686	-10.282025	-76.331937	93.740558
39437		9.464969	-0.380410	2.215021	-0.004172	0.000054	0.001917	-1.264404	0.299561	0.630615	-10.285439	-76.332172	93.740902
39438		9.460910	-0.404148	2.264079	-0.002938	-0.001645	0.003215	-1.279053	0.295410	0.627441	-10.290805	-76.333302	93.746664
39439		9.460921	-0.404443	2.263979	-0.001908	-0.000249	0.001854	-1.273438	0.294678	0.631836	-10.292800	-76.333628	93.747572
39440		9.452069	-0.424918	2.253609	-0.000524	0.000594	0.002287	-1.279297	0.296875	0.628418	-10.293689	-76.333592	93.750150
39441		9.469410	-0.418192	2.282649	-0.004172	0.000054	0.001916	-1.277100	0.300781	0.625732	-10.296613	-76.333713	93.749794
39442		9.460884	-0.405194	2.264000	-0.004172	0.000054	0.001916	-1.270996	0.299316	0.627441	-10.298959	-76.334018	93.751722
39443		9.490515	-0.421890	2.270665	-0.000675	-0.001948	0.003152	-1.267822	0.295410	0.624756	-10.304061	-76.335022	93.758488
39444		9.460896	-0.405788	2.263844	-0.002787	0.000898	0.002349	-1.271484	0.297119	0.624512	-10.306262	-76.334808	93.761082
39445		9.481954	-0.409044	2.252140	-0.002112	0.002846	-0.000804	-1.271729	0.297852	0.627686	-10.300673	-76.333541	93.755295
39446		9.452293	-0.392741	2.245533	-0.000524	0.000594	0.002287	-1.268311	0.297119	0.619873	-10.301560	-76.333505	93.757872
39447		9.460796	-0.406240	2.264180	-0.001909	-0.000249	0.001854	-1.271484	0.299805	0.625732	-10.303415	-76.333671	93.760626
39448		9.473387	-0.396142	2.233651	-0.004002	0.000013	-0.002163	-1.266357	0.303467	0.627197	-10.296223	-76.334417	93.752837
39449		9.481881	-0.409619	2.252342	-0.003311	0.001491	0.004635	-1.273926	0.303223	0.634277	-10.305230	-76.333407	93.762636
39450		9.443390	-0.413746	2.235265	-0.002263	0.000304	0.000062	-1.272705	0.299561	0.620361	-10.302079	-76.333762	93.760030
39451		9.469569	-0.386730	2.274731	-0.005051	0.001201	0.002410	-1.278809	0.300293	0.624512	-10.306822	-76.333106	93.764072
39452		9.460690	-0.407210	2.264452	-0.003142	0.001450	0.000556	-1.268311	0.299805	0.627441	-10.304836	-76.332765	93.762148
39453		9.490631	-0.390338	2.262949	-0.002939	-0.001645	0.003214	-1.273926	0.295898	0.619873	-10.311196	-76.333591	93.769041
39454		9.460665	-0.407738	2.264461	-0.004021	0.002597	0.001050	-1.262451	0.299561	0.626709	-10.310376	-76.332552	93.767799
39455		9.473196	-0.397744	2.234178	-0.001757	0.002293	0.000988	-1.273193	0.300293	0.625488	-10.309108	-76.331396	93.767380
39456		9.452053	-0.394798	2.246180	-0.000524	0.000594	0.002286	-1.271484	0.299316	0.625000	-10.309995	-76.331359	93.769957
39457		9.443194	-0.415185	2.235825	-0.002263	0.000304	0.000062	-1.267090	0.297119	0.623291	-10.307822	-76.331414	93.768534
39458		9.460548	-0.408551	2.264802	-0.003464	-0.001052	0.005500	-1.277100	0.306641	0.623535	-10.318535	-76.331976	93.779490
39459		9.460504	-0.408870	2.264928	-0.002990	0.003993	-0.000310	-1.277344	0.294434	0.621826	-10.314531	-76.329917	93.777024
39460		9.451578	-0.429284	2.254839	-0.000018	0.002583	0.003213	-1.265869	0.304688	0.628906	-10.316437	-76.328664	93.780947
39461		9.451517	-0.429583	2.255040	-0.001403	0.001740	0.002780	-1.265381	0.300537	0.623779	-10.319456	-76.327659	93.785100
39462		9.442965	-0.416506	2.236550	-0.003142	0.001451	0.000556	-1.279297	0.297852	0.628174	-10.317470	-76.327317	93.783176
39463		9.481377	-0.412915	2.253859	-0.003666	0.002044	0.002842	-1.267578	0.299316	0.630127	-10.321739	-76.326152	93.786969
39464		9.481352	-0.413143	2.253925	-0.005912	-0.000235	-0.000310	-1.274658	0.295654	0.615967	-10.320045	-76.326848	93.783713
39465		9.460220	-0.410054	2.265900	-0.002112	0.002847	-0.000804	-1.277588	0.295166	0.626953	-10.314379	-76.325536	93.778215
39466		9.481270	-0.413205	2.254258	0.000506	0.001989	0.000927	-1.273438	0.295898	0.630371	-10.310936	-76.324852	93.776943
39467		9.434252	-0.403955	2.218651	-0.003667	0.002044	0.002841	-1.270264	0.292480	0.632324	-10.314732	-76.323766	93.778235
39468		9.490019	-0.393498	2.264968	-0.002788	0.000897	0.002347	-1.274902	0.300049	0.629150	-10.316927	-76.323552	93.780823
39469		9.451177	-0.431169	2.256162	-0.003667	0.002044	0.002841	-1.279053	0.301025	0.623535	-10.321033	-76.322587	93.782059
39470		9.459979	-0.411248	2.266688	-0.002788	0.000897	0.002347	-1.275391	0.299805	0.617188	-10.323228	-76.322372	93.784646
39471		9.434090	-0.405106	2.219127	-0.003142	0.001451	0.000555	-1.272217	0.297119	0.622803	-10.321831	-76.321493	93.785294
39472		9.498340	-0.407825	2.284181	-0.004900	0.003744	0.001543	-1.280762	0.299805	0.622070	-10.322172	-76.319756	93.784727
39473		9.430197	-0.395446	2.260535	-0.004021	0.002597	0.001049	-1.275879	0.299316	0.630127	-10.321833	-76.318292	93.784373
39474		9.459750	-0.412000	2.267507	0.000506	0.001989	0.000927	-1.269775	0.304199	0.630127	-10.318390	-76.317608	93.783100
39475		9.459710	-0.412290	2.267623	-0.004698	0.000648	0.004200	-1.265869	0.304199	0.628906	-10.327446	-76.317245	93.791178
39476		9.489655	-0.395457	2.266152	-0.003648	-0.000538	-0.000372	-1.274658	0.298096	0.625244	-10.324440	-76.318119	93.787905
39477		9.451202	-0.399322	2.248961	-0.002264	0.000304	0.000061	-1.274658	0.297852	0.626221	-10.322571	-76.318309	93.786679
39478		9.447097	-0.423007	2.298049	-0.001556	-0.000803	0.003645	-1.273682	0.296631	0.619385	-10.327780	-76.318920	93.793095
39479		9.450836	-0.433432	2.257154	-0.005052	0.001201	0.002407	-1.274902	0.303467	0.623779	-10.331708	-76.318168	93.795793
39480		9.480755	-0.416558	2.255805	-0.003142	0.001451	0.000555	-1.274658	0.312256	0.629150	-10.329720	-76.317825	93.793866
39481		9.451127	-0.400222	2.249116	-0.002264	0.000304	0.000061	-1.276123	0.300049	0.630859	-10.328410	-76.317872	93.796187
39482		9.421138	-0.417343	2.250712	-0.002111	0.002847	-0.000804	-1.269287	0.300781	0.624268	-10.322098	-76.316881	93.790418
39483		9.442575	-0.387106	2.230678	-0.002941	-0.001646	0.003211	-1.272217	0.306152	0.628418	-10.328507	-76.317839	93.796984
39484		9.480689	-0.417156	2.255973	-0.004174	0.000055	0.001913	-1.274902	0.290039	0.629395	-10.330846	-76.318144	93.798902
39485		9.472143	-0.404092	2.237500	-0.002636	0.003440	0.001482	-1.271973	0.300537	0.628662	-10.330643	-76.316467	93.797628
39486		9.451001	-0.401089	2.249490	-0.003649	-0.000538	-0.000373	-1.277100	0.294189	0.628906	-10.327638	-76.317341	93.794356
39487		9.429900	-0.398095	2.261306	-0.001910	-0.000250	0.001852	-1.272949	0.301025	0.627930	-10.329285	-76.317691	93.795145
39488		9.489472	-0.397524	2.266554	-0.001385	-0.000842	-0.000434	-1.271484	0.301025	0.631836	-10.324970	-76.318743	93.791859
39489		9.468344	-0.394488	2.278492	-0.004021	0.002598	0.001048	-1.269043	0.295654	0.618896	-10.325379	-76.317624	93.791317
39490		9.438331	-0.411727	2.280152	0.000506	0.001989	0.000928	-1.272217	0.296143	0.632324	-10.321939	-76.316941	93.790046
39491		9.472007	-0.404963	2.237917	-0.004699	0.000647	0.004198	-1.279297	0.299561	0.628418	-10.330097	-76.316501	93.795943
39492		9.471980	-0.405329	2.237965	-0.000525	0.000593	0.002286	-1.275879	0.296143	0.624756	-10.330980	-76.316465	93.798514
39493		9.480451	-0.418892	2.256651	-0.002789	0.000897	0.002346	-1.275391	0.301514	0.625732	-10.333573	-76.315979	93.800519
39494		9.438562	-0.379388	2.272247	-0.002789	0.000897	0.002346	-1.281982	0.304932	0.628906	-10.335764	-76.315765	93.803101
39495		9.480419	-0.419396	2.256693	-0.001031	-0.001396	0.001358	-1.278320	0.302734	0.624268	-10.336684	-76.316644	93.806414
39496		9.471917	-0.406335	2.238049	-0.005053	0.001202	0.002406	-1.267334	0.307373	0.628662	-10.340183	-76.316252	93.809008
39497		9.489215	-0.399682	2.267250	-0.004021	0.002598	0.001048	-1.272705	0.293945	0.627930	-10.340902	-76.314971	93.811272
39498		9.450704	-0.403715	2.250269	-0.001404	0.001739	0.002780	-1.273193	0.302002	0.623047	-10.342948	-76.314238	93.814522
39499		9.429939	-0.367411	2.253937	-0.005206	-0.001341	0.003270	-1.273926	0.295166	0.627686	-10.350170	-76.314969	93.819961
39500		9.488759	-0.434133	2.275691	-0.004022	0.002598	0.001048	-1.269043	0.297119	0.623291	-10.349344	-76.313929	93.818712
39501		9.489060	-0.400758	2.267713	-0.001758	0.002293	0.000988	-1.274170	0.296387	0.633789	-10.347603	-76.312888	93.816150
39502		9.450560	-0.404672	2.250701	-0.003143	0.001451	0.000554	-1.268799	0.302002	0.623535	-10.345614	-76.312546	93.814222
39503		9.467895	-0.397846	2.279773	-0.003649	-0.000537	-0.000374	-1.275391	0.300049	0.625977	-10.343539	-76.313346	93.810795
39504		9.441689	-0.425336	2.240270	-0.004346	0.000093	0.005989	-1.271484	0.299805	0.631592	-10.355392	-76.313210	93.822404
39505		9.480126	-0.421915	2.257454	-0.002264	0.000305	0.000060	-1.270020	0.302246	0.627441	-10.353161	-76.313453	93.819946
39506		9.476720	-0.378400	2.290187	-0.002264	0.000305	0.000060	-1.277832	0.299805	0.626709	-10.350010	-76.313808	93.817339
39507		9.450127	-0.439243	2.259000	-0.001404	0.001739	0.002780	-1.273926	0.307129	0.627197	-10.353005	-76.312875	93.821681
39508		9.467429	-0.432547	2.288185	-0.003143	0.001451	0.000554	-1.271240	0.302002	0.623535	-10.351016	-76.312533	93.819753
39509		9.467757	-0.399242	2.280102	-0.005053	0.001202	0.002405	-1.265381	0.294434	0.619141	-10.355931	-76.311870	93.825844
39510		9.420426	-0.423548	2.252533	-0.004175	0.000055	0.001911	-1.271729	0.297852	0.629639	-10.358266	-76.312175	93.827757
39511		9.480331	-0.389558	2.249721	-0.003143	0.001451	0.000554	-1.270264	0.296143	0.628418	-10.356718	-76.311669	93.824687
39512		9.479930	-0.423221	2.258033	-0.003143	0.001451	0.000554	-1.267822	0.290527	0.627686	-10.354729	-76.311327	93.822759
39513		9.488736	-0.403159	2.268640	-0.004022	0.002598	0.001047	-1.269775	0.301270	0.624268	-10.354095	-76.310292	93.818116
39514		9.429139	-0.404038	2.263427	-0.004175	0.000055	0.001911	-1.263184	0.299316	0.628906	-10.356428	-76.310597	93.820027
39515		9.479814	-0.423896	2.258391	-0.001404	0.001739	0.002779	-1.273682	0.296387	0.627930	-10.359703	-76.309796	93.824446
39516		9.471272	-0.410896	2.239945	-0.003669	0.002043	0.002839	-1.272705	0.294434	0.628418	-10.363052	-76.308885	93.827702
39517		9.480097	-0.390883	2.250478	-0.002264	0.000305	0.000059	-1.269775	0.301758	0.628906	-10.360135	-76.309154	93.822699
39518		9.462725	-0.397951	2.221519	-0.001404	0.001739	0.002779	-1.269043	0.303467	0.621338	-10.362177	-76.308422	93.825944
39519		9.479679	-0.424771	2.258794	-0.003649	-0.000537	-0.000375	-1.275635	0.294678	0.624512	-10.360483	-76.309095	93.825419
39520		9.467422	-0.401676	2.281068	-0.002436	0.000342	0.004136	-1.275146	0.294922	0.631348	-10.366848	-76.309009	93.832505
39521		9.471149	-0.412172	2.240233	-0.003315	0.001489	0.004630	-1.269531	0.293945	0.631836	-10.374355	-76.308098	93.837403
39522		9.458495	-0.422657	2.270780	-0.002264	0.000305	0.000059	-1.265381	0.299561	0.623779	-10.371204	-76.308453	93.834796
39523		9.458861	-0.389281	2.262608	-0.004175	0.000055	0.001910	-1.267822	0.299805	0.622070	-10.374244	-76.308763	93.835479
39524		9.467330	-0.402861	2.281242	-0.000526	0.000592	0.002285	-1.272705	0.292969	0.626465	-10.375125	-76.308728	93.838047
39525		9.471069	-0.413130	2.240395	-0.002790	0.000897	0.002345	-1.275635	0.300293	0.627686	-10.377618	-76.308311	93.840099
39526		9.441444	-0.396877	2.233743	-0.003143	0.001452	0.000553	-1.272949	0.307617	0.621582	-10.375627	-76.307969	93.838166
39527		9.479906	-0.393224	2.250874	-0.000153	-0.002543	0.000863	-1.273682	0.302490	0.633545	-10.375518	-76.309520	93.842112
39528		9.454664	-0.413736	2.311761	-0.003143	0.001452	0.000553	-1.276611	0.299561	0.625244	-10.373526	-76.309179	93.840181
39529		9.449937	-0.410718	2.252223	0.001060	-0.001665	0.005374	-1.274414	0.299072	0.629150	-10.382525	-76.309990	93.851376
39530		9.471023	-0.414073	2.240416	-0.002111	0.002848	-0.000804	-1.267090	0.293701	0.631348	-10.376212	-76.309001	93.845604
39531		9.449841	-0.411140	2.252549	-0.004548	0.003190	0.003332	-1.269775	0.307129	0.617432	-10.381241	-76.307455	93.847084
39532		9.470920	-0.414552	2.240762	-0.001032	-0.001397	0.001357	-1.269043	0.300781	0.629150	-10.381107	-76.308636	93.848308
39533		9.470928	-0.414765	2.240687	-0.004176	0.000055	0.001910	-1.274170	0.301758	0.635498	-10.384818	-76.308651	93.854394
39534		9.467143	-0.405041	2.281631	-0.002790	0.000897	0.002344	-1.277344	0.302734	0.625000	-10.387004	-76.308438	93.856970
39535		9.428669	-0.408988	2.264496	-0.004529	0.000611	0.000118	-1.274170	0.298584	0.623291	-10.386227	-76.308530	93.855074
39536		9.467080	-0.405531	2.281804	0.000334	0.002024	0.005005	-1.273682	0.295898	0.625244	-10.392301	-76.307406	93.863493
39537		9.462309	-0.402578	2.222457	-0.001405	0.001738	0.002779	-1.272461	0.303955	0.631592	-10.394453	-76.306397	93.866102
39538		9.488095	-0.409164	2.270244	-0.004882	0.001166	-0.001673	-1.268066	0.302490	0.626953	-10.388430	-76.306447	93.858996
39539		9.458084	-0.426397	2.271793	-0.003669	0.002044	0.002838	-1.273926	0.304199	0.628174	-10.393267	-76.305517	93.864123
39540		9.487999	-0.409560	2.270574	-0.001758	0.002293	0.000988	-1.265137	0.298096	0.624023	-10.391132	-76.304656	93.862860
39541		9.479079	-0.430010	2.260321	-0.003669	0.002044	0.002838	-1.271240	0.300537	0.622314	-10.395522	-76.303614	93.867598
39542		9.440959	-0.400445	2.235158	-0.001758	0.002293	0.000987	-1.272461	0.301270	0.623535	-10.393387	-76.302754	93.866335
39543		9.440914	-0.400573	2.235325	-0.003143	0.001452	0.000552	-1.275879	0.304443	0.631836	-10.392091	-76.302092	93.866326
39544		9.470443	-0.417283	2.242268	-0.002284	0.002885	0.003272	-1.271240	0.303955	0.628906	-10.395289	-76.300662	93.870243
39545		9.466585	-0.407737	2.283464	-0.000546	0.003171	0.005499	-1.269043	0.300049	0.618652	-10.403989	-76.298808	93.881462
39546		9.440716	-0.401501	2.235992	-0.004882	0.001167	-0.001674	-1.276123	0.292969	0.623535	-10.397971	-76.298859	93.874360
39547		9.466506	-0.408180	2.283715	-0.002438	0.000341	0.004135	-1.270752	0.298828	0.615479	-10.404167	-76.298401	93.880639
39548		9.457990	-0.395046	2.265250	-0.002111	0.002849	-0.000804	-1.274658	0.300293	0.621338	-10.397858	-76.297413	93.874872
39549		9.466401	-0.408362	2.284118	-0.002111	0.002849	-0.000804	-1.266846	0.297119	0.622070	-10.391724	-76.295898	93.870863
39550		9.478602	-0.431823	2.261975	-0.002791	0.000897	0.002343	-1.272461	0.290771	0.619629	-10.393906	-76.295684	93.873435
39551		9.457848	-0.395270	2.265803	-0.003496	0.002008	-0.001239	-1.271484	0.304199	0.624023	-10.387361	-76.294933	93.864531
39552		9.440040	-0.435738	2.245214	0.002399	0.004817	0.002293	-1.271484	0.303711	0.632324	-10.384792	-76.292514	93.865273
39553		9.478783	-0.398693	2.254637	-0.008552	0.003210	0.001162	-1.275635	0.295166	0.630127	-10.388050	-76.291058	93.866661
39554		9.474946	-0.389170	2.295717	-0.000700	0.000626	0.006361	-1.272461	0.293945	0.623535	-10.398429	-76.290581	93.878903
39555		9.466057	-0.409710	2.285298	-0.002265	0.000306	0.000058	-1.283203	0.300293	0.628174	-10.395003	-76.290850	93.872801
39556		9.448681	-0.416773	2.256376	-0.002285	0.002885	0.003272	-1.277344	0.298096	0.631836	-10.398195	-76.289420	93.876711
39557		9.440133	-0.403704	2.238059	-0.002637	0.003440	0.001481	-1.277832	0.297119	0.628174	-10.397453	-76.287750	93.874495
39558		9.487002	-0.413540	2.274018	-0.001912	-0.000250	0.001849	-1.272949	0.302490	0.625732	-10.398473	-76.288233	93.876389
39559		9.444756	-0.407562	2.297754	-0.005056	0.001202	0.002401	-1.272949	0.291016	0.622314	-10.402443	-76.287685	93.878761
39560		9.470014	-0.387461	2.236933	-0.005056	0.001202	0.002400	-1.276611	0.299805	0.632080	-10.405922	-76.287293	93.881332
39561		9.469542	-0.421286	2.245323	-0.001252	0.004281	0.001916	-1.269775	0.293457	0.615479	-10.404613	-76.285130	93.878315
39562		9.469486	-0.421528	2.245517	-0.004177	0.000056	0.001907	-1.268311	0.287598	0.633301	-10.406933	-76.285435	93.880211
39563		9.457219	-0.398481	2.267862	-0.002791	0.000897	0.002342	-1.275146	0.298340	0.630371	-10.408358	-76.285173	93.877934
39564		9.469436	-0.422092	2.245620	-0.002791	0.000897	0.002342	-1.267822	0.303467	0.630615	-10.410532	-76.284959	93.880496
39565		9.469784	-0.388783	2.237676	-0.002637	0.003440	0.001480	-1.269775	0.302734	0.621338	-10.410701	-76.283502	93.879468
39566		9.430905	-0.426329	2.228670	-0.002946	-0.001647	0.003204	-1.268066	0.303223	0.625732	-10.416032	-76.284633	93.885189
39567		9.481974	-0.412758	2.215481	-0.002285	0.002884	0.003271	-1.272461	0.296387	0.625244	-10.420472	-76.282992	93.892740
39568		9.460825	-0.409859	2.227441	-0.005915	-0.000229	-0.000321	-1.265869	0.302490	0.635498	-10.418766	-76.283688	93.889467
39569		9.460804	-0.409948	2.227513	0.000507	0.001988	0.000929	-1.273682	0.302979	0.630371	-10.416334	-76.283169	93.887149
39570		9.465445	-0.413353	2.287176	-0.004882	0.001168	-0.001676	-1.271484	0.293945	0.624268	-10.410315	-76.283218	93.880045
39571		9.430755	-0.427229	2.229134	-0.001054	0.001181	0.004569	-1.269287	0.300049	0.627441	-10.416960	-76.282555	93.886810
39572		9.456891	-0.400608	2.268859	-0.002285	0.002884	0.003271	-1.275391	0.298340	0.631836	-10.420145	-76.281125	93.890711
39573		9.495293	-0.397195	2.286196	-0.001913	-0.000250	0.001848	-1.273193	0.298584	0.628906	-10.421868	-76.281665	93.891260
39574		9.490178	-0.427555	2.234904	-0.004023	0.002600	0.001044	-1.267334	0.300781	0.634277	-10.421029	-76.280626	93.889994
39575		9.435646	-0.398214	2.281118	-0.001406	0.001737	0.002778	-1.270752	0.297119	0.624756	-10.424079	-76.280086	93.891618
39576		9.477859	-0.404835	2.257424	-0.005211	-0.001341	0.003260	-1.275879	0.300049	0.623779	-10.430710	-76.281038	93.897340
39577		9.456717	-0.401742	2.269382	-0.002815	0.003963	-0.004386	-1.273926	0.297607	0.628906	-10.416273	-76.279559	93.882836
39578		9.456656	-0.401714	2.269643	-0.001406	0.001737	0.002778	-1.273682	0.304199	0.630371	-10.418301	-76.278828	93.886065
39579		9.456626	-0.401999	2.269716	-0.004178	0.000056	0.001905	-1.278564	0.304443	0.618896	-10.421491	-76.279140	93.887386
39580		9.460409	-0.412201	2.228772	-0.001913	-0.000250	0.001848	-1.272217	0.300049	0.624756	-10.422508	-76.279624	93.889276
39581		9.456591	-0.402530	2.269768	-0.003671	0.002043	0.002835	-1.271729	0.300537	0.627441	-10.426369	-76.278281	93.895697
39582		9.447673	-0.422957	2.259444	-0.003144	0.001453	0.000550	-1.268799	0.297119	0.631836	-10.424374	-76.277940	93.893760
39583		9.439176	-0.409799	2.240986	-0.001406	0.001737	0.002777	-1.273682	0.307129	0.628174	-10.427139	-76.277318	93.895628
39584		9.469141	-0.392939	2.239672	-0.005916	-0.000228	-0.000322	-1.271729	0.305908	0.627930	-10.425433	-76.278016	93.892352
39585		9.460296	-0.413248	2.229060	-0.002420	-0.002238	0.000918	-1.271973	0.298096	0.625000	-10.427191	-76.279620	93.896435
39586		9.473802	-0.396766	2.299134	-0.003165	0.004031	0.003764	-1.267090	0.304932	0.624512	-10.431531	-76.277494	93.901007
39587		9.468650	-0.427067	2.247993	-0.001231	0.001703	-0.001298	-1.277100	0.296875	0.622803	-10.424982	-76.277057	93.896616
39588		9.426806	-0.387346	2.263686	-0.002792	0.000896	0.002341	-1.279541	0.292480	0.626953	-10.427156	-76.276845	93.899177
39589		9.485888	-0.420669	2.277353	-0.002286	0.002884	0.003271	-1.266113	0.299805	0.624268	-10.429532	-76.275153	93.899875
39590		9.435160	-0.401356	2.282577	-0.004178	0.000056	0.001904	-1.281006	0.297852	0.631836	-10.431847	-76.275459	93.901765
39591		9.468492	-0.428167	2.248448	-0.001055	0.001180	0.004568	-1.277100	0.297852	0.627686	-10.438433	-76.274821	93.908288
39592		9.498462	-0.411392	2.247114	-0.005916	-0.000228	-0.000323	-1.277588	0.298340	0.631348	-10.436726	-76.275518	93.905012
39593		9.447355	-0.425505	2.260296	-0.004178	0.000056	0.001904	-1.275391	0.303711	0.626709	-10.439135	-76.275789	93.904256
39594		9.477740	-0.375069	2.250912	0.000507	0.001987	0.000930	-1.274902	0.301758	0.629883	-10.435697	-76.275108	93.902985
39595		9.447291	-0.426022	2.260465	-0.002089	-0.000217	0.005922	-1.276855	0.293457	0.632080	-10.447155	-76.275059	93.915356
39596		9.460374	-0.382631	2.221883	-0.001913	-0.000250	0.001847	-1.270264	0.302246	0.629639	-10.448171	-76.275543	93.917245
39597		9.477280	-0.409596	2.258998	-0.003299	-0.001091	0.001411	-1.275635	0.295654	0.634766	-10.449686	-76.276668	93.915503
39598		9.477264	-0.409847	2.259019	-0.001407	0.001737	0.002777	-1.271729	0.296875	0.631348	-10.451712	-76.275937	93.918729
39599		9.464988	-0.386796	2.281459	-0.000527	0.000590	0.002284	-1.268799	0.302979	0.634766	-10.452782	-76.276146	93.916321
39600		9.438785	-0.413999	2.241861	-0.003300	-0.001091	0.001411	-1.272705	0.304199	0.627441	-10.453942	-76.277150	93.917540
39601		9.456142	-0.407479	2.270756	-0.004334	-0.002488	0.002764	-1.271973	0.298340	0.626465	-10.460942	-76.278935	93.922892
39602		9.456139	-0.407807	2.270709	-0.001407	0.001737	0.002777	-1.266846	0.298584	0.616699	-10.462968	-76.278204	93.926118
39603		9.486093	-0.391050	2.269466	-0.002793	0.000897	0.002340	-1.269043	0.294678	0.625000	-10.465277	-76.277703	93.931087
39604		9.447619	-0.394920	2.252332	-0.003144	0.001454	0.000550	-1.272217	0.297852	0.624268	-10.463280	-76.277363	93.929146
39605		9.464493	-0.421852	2.289562	-0.001914	-0.000250	0.001847	-1.274170	0.302490	0.627197	-10.464153	-76.277719	93.930239
39606		9.456024	-0.408808	2.271008	-0.001055	0.001180	0.004567	-1.271240	0.293945	0.626221	-10.470345	-76.277115	93.937960
39607		9.477101	-0.412421	2.259236	-0.004707	0.000646	0.004187	-1.268066	0.302734	0.628174	-10.478153	-76.276766	93.944079
39608		9.455952	-0.409491	2.271182	-0.001231	0.001704	-0.001297	-1.272217	0.296387	0.625488	-10.470690	-76.276478	93.937640
39609		9.447515	-0.396131	2.252559	-0.002421	-0.002237	0.000917	-1.268799	0.293213	0.624268	-10.471280	-76.278147	93.938352
39610		9.477089	-0.412695	2.259236	-0.004882	0.001171	-0.001678	-1.272217	0.293213	0.630859	-10.465258	-76.278198	93.931243
39611		9.464817	-0.389618	2.281686	-0.003320	0.001486	0.004624	-1.274414	0.302734	0.627686	-10.472242	-76.277472	93.935049
39612		9.455893	-0.410112	2.271318	-0.003145	0.001454	0.000550	-1.277100	0.300781	0.627686	-10.470242	-76.277133	93.933105
39613		9.447407	-0.396935	2.252871	-0.001407	0.001736	0.002777	-1.277588	0.292725	0.620850	-10.472903	-76.276264	93.936518
39614		9.455820	-0.410606	2.271533	-0.004179	0.000057	0.001903	-1.270508	0.292236	0.622803	-10.475214	-76.276571	93.938402
39615		9.489601	-0.403649	2.229255	-0.002265	0.000307	0.000056	-1.267090	0.300293	0.628906	-10.470825	-76.276610	93.933857
39616		9.451977	-0.400954	2.312626	-0.000372	0.003134	0.001423	-1.271729	0.302979	0.629883	-10.468535	-76.275233	93.933250
39617		9.459513	-0.420945	2.230940	-0.006796	0.000921	0.000168	-1.278564	0.304199	0.628174	-10.469155	-76.275340	93.930942
39618		9.473041	-0.404573	2.300910	0.001054	-0.001672	0.005371	-1.272217	0.292969	0.625000	-10.477205	-76.276259	93.941819
39619		9.476810	-0.414826	2.260016	-0.004024	0.002601	0.001043	-1.267578	0.303467	0.625488	-10.476388	-76.275070	93.939507
39620		9.467905	-0.435197	2.249573	-0.003300	-0.001090	0.001409	-1.271240	0.297607	0.621338	-10.477545	-76.276074	93.940720
39621		9.447226	-0.398746	2.253310	-0.002793	0.000896	0.002340	-1.270020	0.297607	0.622803	-10.480314	-76.275660	93.946015
39622		9.476752	-0.415556	2.260123	-0.002793	0.000896	0.002340	-1.273193	0.304932	0.632813	-10.482479	-76.275448	93.948565
39623		9.476712	-0.415846	2.260239	-0.001407	0.001736	0.002777	-1.272461	0.301514	0.625000	-10.485335	-76.274697	93.952315
39624		9.456025	-0.379400	2.264022	-0.003301	-0.001090	0.001409	-1.271729	0.296387	0.632080	-10.486493	-76.275702	93.953529
39625		9.468295	-0.403039	2.241454	-0.001719	-0.003352	0.004496	-1.274170	0.287354	0.622314	-10.495244	-76.277690	93.961756
39626		9.468314	-0.403247	2.241337	-0.004882	0.001172	-0.001678	-1.262695	0.297119	0.622803	-10.489218	-76.277742	93.954643
39627		9.455628	-0.413674	2.271773	-0.001563	-0.000808	0.003636	-1.273682	0.302002	0.625000	-10.493478	-76.278210	93.959211
39628		9.459403	-0.423831	2.230859	-0.003145	0.001454	0.000549	-1.271240	0.292969	0.624268	-10.491474	-76.277870	93.957262
39629		9.447131	-0.400737	2.253351	-0.001407	0.001736	0.002777	-1.268066	0.306641	0.623291	-10.493378	-76.276964	93.960179
39630		9.468218	-0.404155	2.241578	-0.004180	0.000057	0.001902	-1.268555	0.297363	0.629150	-10.495684	-76.277270	93.962057
39631		9.455504	-0.414542	2.272133	-0.002110	0.002852	-0.000804	-1.270752	0.297363	0.624268	-10.490467	-76.276252	93.958589
39632		9.476578	-0.417776	2.260444	-0.000528	0.000589	0.002283	-1.276367	0.300537	0.619873	-10.491335	-76.276219	93.961139
39633		9.447003	-0.401442	2.253763	-0.006797	0.000922	0.000167	-1.274658	0.308350	0.628418	-10.490669	-76.275869	93.959956
39634		9.476525	-0.418369	2.260558	-0.000705	0.000620	0.006357	-1.267090	0.300049	0.620605	-10.501020	-76.275393	93.972164
39635		9.493837	-0.412019	2.289617	-0.003301	-0.001090	0.001408	-1.266113	0.302979	0.621094	-10.503375	-76.276197	93.977299
39636		9.455414	-0.415775	2.272282	-0.003652	-0.000532	-0.000382	-1.281006	0.293701	0.620850	-10.500364	-76.277073	93.974015
39637		9.476495	-0.419033	2.260560	-0.002637	0.003441	0.001480	-1.263916	0.301514	0.623779	-10.499064	-76.275121	93.974395
39638		9.468004	-0.405763	2.242189	-0.000879	0.001147	0.000493	-1.272217	0.295898	0.632080	-10.495764	-76.274959	93.972449
39639		9.464209	-0.396086	2.283095	-0.002950	-0.001648	0.003198	-1.269531	0.298096	0.623047	-10.501683	-76.276213	93.977507
39640		9.438446	-0.389796	2.235386	-0.005059	0.001204	0.002394	-1.265381	0.296875	0.621826	-10.505140	-76.275821	93.980050
39641		9.467954	-0.406543	2.242262	0.000507	0.001986	0.000931	-1.276611	0.297852	0.622803	-10.501760	-76.274985	93.979418
39642		9.485248	-0.399962	2.271444	-0.004180	0.000057	0.001901	-1.275635	0.305908	0.630127	-10.504065	-76.275291	93.981295
39643		9.464081	-0.397094	2.283451	-0.004903	0.003748	0.001535	-1.272705	0.292725	0.627441	-10.504847	-76.273372	93.981491
39644		9.446699	-0.404118	2.254562	-0.002794	0.000896	0.002339	-1.272461	0.300537	0.628662	-10.507007	-76.273159	93.984036
39645		9.476204	-0.420869	2.261438	-0.001758	0.002294	0.000986	-1.271484	0.291016	0.625244	-10.504729	-76.272349	93.980038
39646		9.455068	-0.417906	2.273329	-0.003301	-0.001090	0.001408	-1.267090	0.291992	0.625732	-10.505882	-76.273352	93.981247
39647		9.455052	-0.418157	2.273350	-0.001407	0.001736	0.002776	-1.268799	0.297852	0.624023	-10.506915	-76.272660	93.979833
39648		9.460125	-0.388313	2.324862	-0.005918	-0.000224	-0.000327	-1.272217	0.294922	0.627686	-10.505195	-76.273357	93.976540
39649		9.467701	-0.408331	2.243004	0.001209	0.000870	0.004511	-1.267334	0.301270	0.629639	-10.509948	-76.272908	93.982667
39650		9.488763	-0.411598	2.231370	-0.004726	0.003718	-0.002538	-1.270020	0.294434	0.624023	-10.500759	-76.271615	93.972389
39651		9.463797	-0.398658	2.284357	-0.002794	0.000896	0.002338	-1.266113	0.297119	0.620605	-10.503253	-76.271463	93.974188
39652		9.437569	-0.425813	2.244763	-0.001915	-0.000251	0.001845	-1.274170	0.305908	0.620605	-10.504259	-76.271948	93.976062
39653		9.497569	-0.391936	2.242161	-0.003145	0.001455	0.000548	-1.278809	0.294922	0.626465	-10.502768	-76.271248	93.978198
39654		9.442135	-0.429646	2.304493	-0.001758	0.002294	0.000986	-1.277832	0.301514	0.625244	-10.500617	-76.270389	93.976914
39655		9.484770	-0.402672	2.272961	-0.001936	0.002324	0.005059	-1.270508	0.299561	0.627441	-10.507576	-76.268865	93.983596
39656		9.425181	-0.403458	2.267632	-0.005919	-0.000224	-0.000328	-1.282471	0.300781	0.627441	-10.505853	-76.269562	93.980300
39657		9.467429	-0.409911	2.243862	0.002968	-0.001425	0.003525	-1.266602	0.300537	0.634277	-10.508665	-76.270427	93.985905
39658		9.497438	-0.393109	2.242510	-0.006798	0.000923	0.000165	-1.267090	0.294189	0.627686	-10.508092	-76.270426	93.983274
39659		9.476320	-0.390053	2.254341	-0.001387	-0.000839	-0.000438	-1.278809	0.294922	0.627441	-10.504407	-76.271839	93.977478
39660		9.496952	-0.426929	2.250596	-0.003674	0.002043	0.002831	-1.281006	0.304199	0.624023	-10.507713	-76.270929	93.980682
39661		9.463570	-0.400796	2.284923	-0.000528	0.000588	0.002283	-1.269775	0.298828	0.630371	-10.508312	-76.270612	93.982186
39662		9.467342	-0.410923	2.244044	-0.002794	0.000896	0.002338	-1.272949	0.302246	0.628174	-10.510467	-76.270400	93.984724
39663		9.484123	-0.438117	2.281414	-0.003166	0.004029	0.003762	-1.276855	0.295166	0.626221	-10.515552	-76.268392	93.988712
39664		9.455035	-0.388351	2.266639	-0.003459	-0.003635	0.002265	-1.274902	0.298340	0.625000	-10.519858	-76.270740	93.993074
39665		9.437722	-0.395214	2.237491	-0.002109	0.002853	-0.000804	-1.270264	0.303467	0.632080	-10.513018	-76.269594	93.985154
39666		9.471831	-0.415458	2.303948	-0.001408	0.001735	0.002776	-1.272705	0.298584	0.628662	-10.515028	-76.268863	93.988361
39667		9.463368	-0.402327	2.285491	-0.002795	0.000896	0.002337	-1.274414	0.300049	0.619385	-10.518105	-76.268825	93.990063
39668		9.470952	-0.422307	2.203624	-0.001915	-0.000251	0.001844	-1.273438	0.293701	0.624023	-10.519109	-76.269311	93.991935
39669		9.446476	-0.375937	2.248466	-0.004025	0.002602	0.001041	-1.264648	0.299805	0.622803	-10.517629	-76.267938	93.990843
39670		9.488179	-0.415942	2.233045	-0.001758	0.002294	0.000986	-1.278809	0.289551	0.628662	-10.515475	-76.267080	93.989555
39671		9.449693	-0.419827	2.215943	-0.001057	0.001176	0.004565	-1.269287	0.306885	0.626953	-10.521052	-76.266457	93.994474
39672		9.466971	-0.413282	2.245177	-0.001230	0.001706	-0.001297	-1.269775	0.296387	0.624512	-10.513584	-76.266168	93.988028
39673		9.424706	-0.407047	2.268967	-0.006798	0.000924	0.000164	-1.272461	0.303467	0.632813	-10.513903	-76.266132	93.987446
39674		9.475831	-0.393443	2.255806	-0.001565	-0.000810	0.003634	-1.271729	0.302979	0.624268	-10.519068	-76.266745	93.993808
39675		9.466921	-0.413924	2.245268	-0.002795	0.000896	0.002337	-1.278564	0.294678	0.630859	-10.522392	-76.266578	93.997634
39676		9.446239	-0.377421	2.249213	-0.001759	0.002294	0.000986	-1.275635	0.295898	0.629883	-10.520238	-76.265719	93.996347
39677		9.441924	-0.401344	2.298295	-0.004182	0.000057	0.001898	-1.268311	0.294678	0.629639	-10.521908	-76.266136	93.992733
39678		9.484146	-0.407868	2.274635	-0.000529	0.000588	0.002283	-1.269287	0.302490	0.626953	-10.522767	-76.266104	93.995273
39679		9.454608	-0.391521	2.267874	-0.003303	-0.001090	0.001405	-1.266113	0.304199	0.627441	-10.524415	-76.267266	93.995510
39680		9.454628	-0.391620	2.267774	-0.001387	-0.000839	-0.000439	-1.270020	0.296875	0.619873	-10.520104	-76.268322	93.992222
39681		9.466832	-0.415153	2.245418	-0.003324	0.001484	0.004619	-1.282471	0.303711	0.627930	-10.528181	-76.267423	94.002718
39682		9.454104	-0.426001	2.275834	-0.003481	-0.001061	0.005477	-1.276855	0.300537	0.628418	-10.538803	-76.267985	94.013566
39683		9.484097	-0.409250	2.274593	0.000157	0.002545	-0.000858	-1.277832	0.305176	0.623291	-10.531507	-76.267021	94.007060
39684		9.454531	-0.392667	2.267996	-0.002266	0.000308	0.000054	-1.266113	0.299072	0.625244	-10.528345	-76.267380	94.004436
39685		9.445637	-0.412944	2.257410	-0.003303	-0.001090	0.001405	-1.271240	0.301270	0.629883	-10.530124	-76.268195	94.008194
39686		9.487879	-0.419457	2.233664	-0.004182	0.000058	0.001898	-1.271240	0.298340	0.621338	-10.532418	-76.268502	94.010057
39687		9.454509	-0.393353	2.267968	-0.003674	0.002043	0.002830	-1.278076	0.294922	0.628906	-10.536037	-76.267526	94.013777
39688		9.466713	-0.416964	2.245583	-0.000686	-0.001957	0.003140	-1.272949	0.303223	0.629395	-10.540056	-76.268837	94.019477
39689		9.454022	-0.427447	2.275907	-0.002266	0.000308	0.000054	-1.279785	0.298828	0.623535	-10.536964	-76.269236	94.014576
39690		9.475078	-0.430664	2.264311	-0.003867	0.005148	0.000182	-1.275391	0.297607	0.624023	-10.532941	-76.266855	94.010121
39691		9.467105	-0.383887	2.237871	-0.002953	-0.001649	0.003194	-1.279541	0.303955	0.617920	-10.537651	-76.267674	94.015021
39692		9.471225	-0.421388	2.305363	-0.002795	0.000896	0.002336	-1.274902	0.297607	0.635254	-10.539801	-76.267462	94.017552
39693		9.466594	-0.418070	2.245878	-0.004182	0.000058	0.001897	-1.274170	0.294434	0.634521	-10.542208	-76.267606	94.019037
39694		9.475492	-0.398176	2.256400	-0.001916	-0.000251	0.001843	-1.273682	0.293701	0.628662	-10.543209	-76.268091	94.020905
39695		9.445454	-0.415429	2.257718	-0.002795	0.000896	0.002336	-1.275146	0.302979	0.629639	-10.544742	-76.268165	94.017088
39696		9.445422	-0.415632	2.257817	-0.003146	0.001456	0.000547	-1.274414	0.297607	0.622559	-10.542726	-76.267825	94.015124
39697		9.454282	-0.395811	2.268488	-0.003324	0.001484	0.004618	-1.269043	0.301758	0.625488	-10.550367	-76.266915	94.022869
39698		9.454252	-0.396204	2.268546	-0.004183	0.000058	0.001897	-1.268555	0.304932	0.629150	-10.552656	-76.267221	94.024727
39699		9.474872	-0.433059	2.264716	-0.000000	0.000000	0.000000	-1.268311	0.300781	0.625732	-10.549507	-76.267823	94.024619
39700		9.475348	-0.399540	2.256762	-0.003146	0.001456	0.000547	-1.275879	0.301514	0.622559	-10.547492	-76.267483	94.022656
39701		9.445327	-0.416700	2.258017	-0.004691	-0.001928	0.000965	-1.267822	0.296143	0.629150	-10.549165	-76.268822	94.025192
39702		9.462640	-0.410334	2.287081	-0.001058	0.001175	0.004564	-1.276855	0.305420	0.627197	-10.555335	-76.268219	94.032887
39703		9.474822	-0.433892	2.264764	-0.004533	0.000618	0.000108	-1.279541	0.297607	0.629150	-10.554014	-76.268450	94.030043
39704		9.466863	-0.387103	2.238341	-0.002288	0.002881	0.003268	-1.276123	0.301270	0.617432	-10.557167	-76.267022	94.033907
39705		9.454110	-0.397729	2.268870	-0.004183	0.000058	0.001897	-1.284424	0.297119	0.621582	-10.558989	-76.266970	94.035880
39706		9.463008	-0.377869	2.279410	-0.004183	0.000058	0.001896	-1.269287	0.301025	0.627930	-10.561279	-76.267276	94.037738
39707		9.436781	-0.404825	2.239740	0.000000	0.000000	-0.000000	-1.270020	0.305420	0.620117	-10.556458	-76.267577	94.034474
39708		9.474715	-0.434968	2.265005	-0.001916	-0.000251	0.001843	-1.275391	0.306396	0.630127	-10.557458	-76.268062	94.036339
39709		9.462971	-0.378320	2.279490	-0.004025	0.002603	0.001039	-1.270752	0.305908	0.627686	-10.557918	-76.266844	94.039464
39710		9.445121	-0.418708	2.258508	-0.002267	0.000309	0.000054	-1.275879	0.298096	0.629395	-10.554755	-76.267201	94.036838
39711		9.462927	-0.378747	2.279601	0.000171	-0.000533	0.005860	-1.271240	0.299316	0.622070	-10.564651	-76.267475	94.048694
39712		9.475087	-0.402420	2.257350	-0.004904	0.003750	0.001532	-1.268311	0.292725	0.628418	-10.564929	-76.265739	94.048055
39713		9.466128	-0.422816	2.246956	-0.004183	0.000058	0.001896	-1.276367	0.296631	0.625732	-10.566777	-76.266060	94.048049
39714		9.445027	-0.419885	2.258679	-0.002425	-0.002236	0.000910	-1.269287	0.303955	0.628174	-10.566773	-76.267761	94.048582
39715		9.475041	-0.403035	2.257432	-0.000371	0.003132	0.001425	-1.272949	0.302002	0.625488	-10.564760	-76.266374	94.047813
39716		9.475002	-0.403216	2.257564	-0.001917	-0.000251	0.001842	-1.269775	0.298340	0.630127	-10.565760	-76.266859	94.049680
39717		9.457655	-0.410095	2.228547	-0.004025	0.002603	0.001039	-1.279541	0.295654	0.634277	-10.565313	-76.265902	94.048046
39718		9.474940	-0.403704	2.257737	-0.001567	-0.000811	0.003631	-1.269775	0.293213	0.632568	-10.570477	-76.266515	94.054404
39719		9.436480	-0.407495	2.240523	-0.001759	0.002294	0.000986	-1.268799	0.303955	0.631836	-10.567703	-76.266050	94.046131
39720		9.483243	-0.417610	2.276631	-0.004905	0.003750	0.001532	-1.273682	0.285889	0.615234	-10.567978	-76.264315	94.045488
39721		9.474798	-0.404363	2.258215	0.000350	-0.000560	0.001789	-1.274902	0.298584	0.624756	-10.566794	-76.264862	94.045786
39722		9.444739	-0.421419	2.259598	-0.002108	0.002854	-0.000803	-1.281982	0.296387	0.626465	-10.560470	-76.263877	94.039999
39723		9.453589	-0.401561	2.270363	-0.005592	0.001792	0.004670	-1.275635	0.298340	0.630371	-10.568430	-76.262713	94.045283
39724		9.495783	-0.408184	2.246824	-0.003146	0.001456	0.000546	-1.269043	0.299072	0.625732	-10.566409	-76.262373	94.043314
39725		9.435698	-0.442249	2.249445	-0.002267	0.000309	0.000053	-1.275879	0.295410	0.631592	-10.563365	-76.262824	94.039153
39726		9.483548	-0.385146	2.269292	-0.001917	-0.000251	0.001842	-1.270020	0.298584	0.619873	-10.564360	-76.263310	94.041014
39727		9.444577	-0.422624	2.260049	-0.003326	0.001483	0.004617	-1.267334	0.303711	0.623779	-10.571395	-76.262482	94.047184
39728		9.474599	-0.406050	2.258745	-0.000688	-0.001959	0.003138	-1.274170	0.297119	0.619385	-10.575406	-76.263794	94.052874
39729		9.474611	-0.406235	2.258661	-0.002267	0.000309	0.000053	-1.261475	0.297363	0.622314	-10.572388	-76.263882	94.053449
39730		9.444549	-0.423394	2.260023	-0.001409	0.001734	0.002775	-1.273438	0.294189	0.625732	-10.574387	-76.263151	94.056642
39731		9.453419	-0.403588	2.270714	-0.005063	0.001205	0.002388	-1.266357	0.301025	0.627441	-10.577468	-76.262773	94.058590
39732		9.482903	-0.420504	2.277514	-0.002796	0.000896	0.002335	-1.276611	0.299072	0.628418	-10.579608	-76.262561	94.061110
39733		9.462270	-0.384062	2.281439	-0.002797	0.000896	0.002335	-1.272461	0.304932	0.627686	-10.582189	-76.262443	94.063197
39734		9.453326	-0.404469	2.270944	-0.002797	0.000896	0.002334	-1.275146	0.294678	0.628906	-10.584328	-76.262231	94.065717
39735		9.461692	-0.418219	2.289571	-0.002797	0.000896	0.002334	-1.282227	0.294678	0.622803	-10.586689	-76.262076	94.067012
39736		9.482781	-0.421454	2.277849	-0.001229	0.001708	-0.001296	-1.268799	0.291992	0.615967	-10.579217	-76.261788	94.060562
39737		9.457032	-0.414742	2.230330	-0.001409	0.001734	0.002774	-1.271484	0.300781	0.626709	-10.579474	-76.260626	94.062283
39738		9.456982	-0.415036	2.230488	-0.001409	0.001734	0.002774	-1.272461	0.291992	0.628174	-10.581469	-76.259895	94.065473
39739		9.486973	-0.398292	2.229375	-0.005413	0.001766	0.000598	-1.275146	0.297363	0.632080	-10.580422	-76.259479	94.060916
39740		9.456886	-0.415535	2.230801	-0.003676	0.002043	0.002827	-1.273682	0.287598	0.632568	-10.583703	-76.258568	94.064091
39741		9.453021	-0.406066	2.271929	-0.001409	0.001734	0.002774	-1.274170	0.304199	0.622070	-10.584789	-76.258201	94.059631
39742		9.457304	-0.382481	2.223174	-0.001759	0.002294	0.000985	-1.269531	0.302002	0.618896	-10.582621	-76.257344	94.058327
39743		9.465115	-0.429781	2.249898	-0.003676	0.002043	0.002827	-1.267090	0.294434	0.627686	-10.586467	-76.256064	94.066924
39744		9.470205	-0.400207	2.301429	-0.000689	-0.001959	0.003137	-1.266357	0.295166	0.629883	-10.590472	-76.257375	94.072606
39745		9.465666	-0.396750	2.241711	-0.002426	-0.002236	0.000908	-1.274902	0.301758	0.627686	-10.590347	-76.259401	94.070160
39746		9.482473	-0.424063	2.278645	-0.003486	-0.001063	0.005471	-1.282715	0.301758	0.630859	-10.600946	-76.259962	94.080980
39747		9.452934	-0.407813	2.271977	-0.001759	0.002294	0.000985	-1.281738	0.299316	0.635254	-10.599106	-76.259079	94.078094
39748		9.482941	-0.391044	2.270818	-0.004185	0.000059	0.001893	-1.278076	0.301025	0.630127	-10.601382	-76.259385	94.079935
39749		9.452884	-0.408377	2.272081	-0.002448	0.000335	0.004122	-1.270752	0.303955	0.635254	-10.607831	-76.259457	94.082450
39750		9.456676	-0.418437	2.231150	-0.004534	0.000620	0.000105	-1.266846	0.300049	0.631104	-10.605946	-76.259636	94.079800
39751		9.435545	-0.415378	2.243015	-0.002267	0.000310	0.000052	-1.276855	0.302002	0.626953	-10.604097	-76.260414	94.075614
39752		9.473428	-0.445724	2.268297	-0.002448	0.000335	0.004122	-1.270508	0.302246	0.628662	-10.610393	-76.260330	94.082618
39753		9.482836	-0.392338	2.271034	-0.004026	0.002604	0.001038	-1.274414	0.311768	0.624268	-10.610119	-76.259285	94.081691
39754		9.452763	-0.409702	2.272346	-0.003487	-0.001064	0.005470	-1.271729	0.297852	0.626709	-10.620718	-76.259846	94.092511
39755		9.456548	-0.419842	2.231430	-0.001759	0.002294	0.000985	-1.275635	0.299316	0.624756	-10.619513	-76.258843	94.094413
39756		9.461067	-0.423679	2.291151	-0.001759	0.002294	0.000985	-1.270508	0.295410	0.630127	-10.617345	-76.257986	94.093109
39757		9.431474	-0.407256	2.284752	-0.003517	0.004589	0.001971	-1.275391	0.292725	0.630127	-10.617167	-76.255770	94.091227
39758		9.453051	-0.377197	2.265227	-0.003328	0.001482	0.004614	-1.263916	0.295410	0.630371	-10.624603	-76.254988	94.098885
39759		9.485819	-0.437625	2.238918	-0.002957	-0.001650	0.003188	-1.272949	0.300049	0.637939	-10.629434	-76.256417	94.100236
39760		9.494711	-0.417610	2.249618	-0.001069	0.004254	-0.002151	-1.273193	0.299805	0.625977	-10.618802	-76.254788	94.090625
39761		9.473492	-0.414591	2.261835	-0.003168	0.004028	0.003759	-1.284180	0.291992	0.622070	-10.623542	-76.252909	94.092180
39762		9.422246	-0.428664	2.275192	0.000508	0.001984	0.000933	-1.272705	0.293457	0.623047	-10.620089	-76.252233	94.090890
39763		9.486100	-0.404636	2.231946	-0.004026	0.002605	0.001037	-1.268311	0.304199	0.623535	-10.617447	-76.250888	94.087295
39764		9.401017	-0.425810	2.287408	-0.003147	0.001457	0.000544	-1.274658	0.296387	0.619385	-10.615418	-76.250550	94.085315
39765		9.486575	-0.371368	2.224213	-0.001918	-0.000251	0.001840	-1.278564	0.299561	0.619873	-10.616465	-76.250770	94.090808
39766		9.448086	-0.375065	2.207137	0.000138	0.005116	0.002359	-1.274170	0.292236	0.632813	-10.615153	-76.248180	94.091504
39767		9.430921	-0.409287	2.286672	-0.004004	0.000035	-0.002178	-1.275146	0.300537	0.626221	-10.607226	-76.248866	94.081142
39768		9.503181	-0.398624	2.261912	-0.000371	0.003132	0.001426	-1.271973	0.303711	0.627930	-10.604914	-76.247491	94.080507
39769		9.422388	-0.396057	2.268717	-0.003009	0.006573	0.002903	-1.272705	0.302734	0.623779	-10.606625	-76.244006	94.082668
39770		9.442917	-0.433088	2.265000	0.000189	-0.003107	0.002644	-1.273438	0.295654	0.619629	-10.609482	-76.246016	94.087686
39771		9.472948	-0.416377	2.263783	-0.004906	0.003752	0.001529	-1.270508	0.305420	0.624023	-10.609534	-76.244034	94.089094
39772		9.494013	-0.419682	2.252175	-0.000879	0.001147	0.000492	-1.268799	0.297119	0.618408	-10.606221	-76.243875	94.087129
39773		9.472844	-0.416557	2.264187	-0.002108	0.002856	-0.000804	-1.271484	0.295654	0.634033	-10.600250	-76.242685	94.085036
39774		9.434362	-0.420082	2.247111	-0.001759	0.002295	0.000985	-1.272949	0.299561	0.632813	-10.598080	-76.241827	94.083730
39775		9.494434	-0.386167	2.244743	-0.004004	0.000035	-0.002178	-1.274658	0.297363	0.631104	-10.591151	-76.242967	94.072124
39776		9.430503	-0.410497	2.288180	-0.002449	0.000334	0.004121	-1.277344	0.296875	0.629639	-10.597433	-76.242884	94.079113
39777		9.464334	-0.403610	2.246106	-0.004026	0.002605	0.001036	-1.276367	0.306396	0.626465	-10.596308	-76.241998	94.074196
39778		9.455381	-0.423997	2.235584	-0.001570	-0.000813	0.003628	-1.266113	0.295654	0.627930	-10.601447	-76.242612	94.080526
39779		9.459908	-0.428014	2.295125	-0.005414	0.001768	0.000595	-1.273926	0.302246	0.622314	-10.601243	-76.242149	94.079195
39780		9.451509	-0.414639	2.276664	-0.002267	0.000310	0.000051	-1.272949	0.302246	0.630615	-10.598071	-76.242508	94.076557
39781		9.493753	-0.420981	2.253030	-0.002267	0.000310	0.000051	-1.277832	0.304932	0.621094	-10.595445	-76.242827	94.075067
39782		9.443121	-0.401258	2.258161	-0.002267	0.000310	0.000051	-1.275391	0.300049	0.618652	-10.592273	-76.243187	94.072429
39783		9.472588	-0.418098	2.264976	-0.003678	0.002043	0.002824	-1.273926	0.295898	0.634521	-10.595549	-76.241850	94.079074
39784		9.421365	-0.432151	2.278180	-0.003147	0.001458	0.000543	-1.276855	0.298340	0.627686	-10.593520	-76.241510	94.077094
39785		9.473071	-0.384827	2.257259	-0.002267	0.000310	0.000051	-1.269043	0.294678	0.625000	-10.590173	-76.242075	94.070936
39786		9.451359	-0.415296	2.277167	-0.002108	0.002856	-0.000804	-1.274658	0.294922	0.630371	-10.583848	-76.241090	94.065147
39787		9.442927	-0.401960	2.258845	-0.003678	0.002043	0.002824	-1.270752	0.301025	0.632813	-10.586614	-76.240309	94.065626
39788		9.472387	-0.418750	2.265695	-0.004884	0.001183	-0.001687	-1.270996	0.296143	0.632324	-10.580569	-76.240359	94.058486
39789		9.464002	-0.405255	2.247211	-0.002268	0.000310	0.000051	-1.272461	0.300049	0.627441	-10.577859	-76.241068	94.053181
39790		9.472918	-0.385212	2.257835	-0.002268	0.000310	0.000051	-1.269775	0.296875	0.629395	-10.574686	-76.241428	94.050541
39791		9.463976	-0.405480	2.247278	-0.002799	0.000896	0.002332	-1.276611	0.299072	0.625488	-10.577004	-76.241352	94.052100
39792		9.459586	-0.429586	2.296161	-0.003307	-0.001088	0.001398	-1.272705	0.299316	0.626465	-10.578125	-76.242358	94.053268
39793		9.463944	-0.405762	2.247365	-0.004724	0.003729	-0.002541	-1.275391	0.300293	0.629150	-10.568875	-76.240997	94.042824
39794		9.460098	-0.395921	2.288408	-0.000508	-0.001984	-0.000934	-1.276123	0.305176	0.625000	-10.563412	-76.242752	94.038864
39795		9.455048	-0.425840	2.236643	-0.006963	-0.001615	0.001006	-1.270020	0.296143	0.630127	-10.566480	-76.244030	94.040153
39796		9.468509	-0.409702	2.306733	-0.003147	0.001458	0.000543	-1.276367	0.292725	0.630127	-10.564450	-76.243692	94.038171
39797		9.481240	-0.399455	2.276453	-0.004535	0.000621	0.000101	-1.271240	0.300781	0.622314	-10.562048	-76.244078	94.031617
39798		9.442832	-0.402955	2.259068	-0.002776	-0.001673	-0.000884	-1.270264	0.302002	0.631348	-10.557866	-76.245653	94.027638
39799		9.442371	-0.436647	2.266592	-0.005364	-0.006455	0.000875	-1.276855	0.306152	0.631104	-10.561884	-76.249767	94.031355
39800		9.493672	-0.422792	2.253034	-0.005021	-0.003932	-0.004048	-1.268311	0.294189	0.626221	-10.552670	-76.252946	94.020872
39801		9.460476	-0.396446	2.286754	-0.002747	-0.007328	0.002612	-1.274658	0.292725	0.629639	-10.559337	-76.257423	94.027390
39802		9.473376	-0.386331	2.255722	-0.005364	-0.006455	0.000874	-1.275635	0.303711	0.629639	-10.562737	-76.261506	94.029690
39803		9.464590	-0.406439	2.244519	-0.003794	-0.005641	-0.002753	-1.273926	0.301758	0.627686	-10.556467	-76.265595	94.020966
39804		9.456360	-0.392749	2.225397	-0.005182	-0.006477	-0.003195	-1.263184	0.298340	0.630127	-10.550391	-76.270119	94.013619
39805		9.455958	-0.426279	2.232707	-0.005713	-0.005893	-0.000914	-1.272949	0.296875	0.631592	-10.550248	-76.274230	94.012000
39806		9.465021	-0.406228	2.242739	-0.005713	-0.005893	-0.000915	-1.267334	0.298096	0.628662	-10.549480	-76.278185	94.009804
39807		9.444036	-0.403139	2.253997	-0.005713	-0.005893	-0.000915	-1.269043	0.302002	0.629150	-10.548863	-76.282333	94.006218
39808		9.486380	-0.409674	2.229833	-0.005386	-0.003888	0.004089	-1.270508	0.304688	0.619873	-10.558592	-76.284634	94.015021
39809		9.461525	-0.396989	2.282315	-0.005903	-0.002784	-0.003556	-1.278564	0.303467	0.619873	-10.551331	-76.286972	94.009336
39810		9.456468	-0.426645	2.230479	-0.000509	-0.001984	-0.000935	-1.272217	0.297607	0.623779	-10.545851	-76.288728	94.005360
39811		9.453262	-0.383471	2.263290	-0.005735	-0.003325	0.002301	-1.275146	0.295166	0.632324	-10.551251	-76.290527	94.012348
39812		9.465492	-0.406885	2.240630	-0.003657	-0.000526	-0.000391	-1.272461	0.296875	0.630127	-10.548203	-76.291404	94.009019
39813		9.452770	-0.417428	2.270914	-0.005575	-0.000779	0.001448	-1.272705	0.298584	0.617432	-10.550310	-76.292404	94.007184
39814		9.462285	-0.363930	2.273430	-0.003817	-0.003073	0.000461	-1.267334	0.301514	0.631104	-10.550417	-76.294626	94.007008
39815		9.486699	-0.410475	2.228329	-0.005925	-0.000216	-0.000340	-1.272949	0.296631	0.633545	-10.548893	-76.295186	94.006130
39816		9.495642	-0.390541	2.238869	-0.003308	-0.001089	0.001397	-1.270752	0.293213	0.630859	-10.550016	-76.296193	94.007300
39817		9.461720	-0.397866	2.281355	0.000829	0.007076	-0.000769	-1.274658	0.300537	0.630371	-10.539945	-76.293096	93.996246
39818		9.478051	-0.397207	2.210892	-0.002689	0.011664	0.001203	-1.272461	0.301025	0.625977	-10.534787	-76.286940	93.991316
39819		9.465075	-0.407709	2.242242	-0.000930	0.009370	0.000216	-1.267822	0.294678	0.629639	-10.527702	-76.282160	93.985704
39820		9.461526	-0.364509	2.276490	-0.003410	0.015357	0.000842	-1.276367	0.298096	0.630859	-10.520552	-76.273960	93.978298
39821		9.464990	-0.374442	2.236964	-0.001673	0.015631	0.003072	-1.271729	0.291260	0.630615	-10.517280	-76.265550	93.973890
39822		9.493537	-0.424990	2.253188	-0.000125	0.019014	0.002661	-1.271240	0.300049	0.634277	-10.510890	-76.255101	93.969202
39823		9.463547	-0.408511	2.248535	0.000193	0.024107	0.000953	-1.268555	0.299561	0.624756	-10.498131	-76.242293	93.954773
39824		9.475730	-0.398630	2.220566	0.000334	0.026132	0.010023	-1.277832	0.289307	0.627686	-10.505393	-76.227064	93.964411
39825		9.492395	-0.392490	2.252255	0.006276	0.026869	0.000439	-1.276367	0.305176	0.618164	-10.486180	-76.212441	93.949060
39826		9.440533	-0.406404	2.268041	-0.001783	0.032079	0.002501	-1.277588	0.301758	0.620850	-10.474872	-76.194647	93.938328
39827		9.478166	-0.403236	2.288553	0.004646	0.034277	0.003777	-1.274902	0.302002	0.625000	-10.462149	-76.175036	93.934086
39828		9.481818	-0.379448	2.243053	0.003068	0.036551	0.000687	-1.275635	0.298096	0.629150	-10.442089	-76.154909	93.917202
39829		9.480980	-0.379725	2.246547	0.004613	0.036845	0.006982	-1.276855	0.294922	0.626465	-10.435693	-76.134044	93.914415
39830		9.458388	-0.410754	2.269735	0.004610	0.036846	0.006977	-1.276367	0.305664	0.627930	-10.429052	-76.113097	93.912260
39831		9.508136	-0.431386	2.268267	0.006152	0.037141	0.013271	-1.275391	0.298340	0.624756	-10.435991	-76.091450	93.923533
39832		9.469440	-0.401926	2.246650	0.005805	0.040792	0.004764	-1.277344	0.304199	0.621582	-10.421994	-76.068509	93.914506
39833		9.473431	-0.372972	2.302051	0.006994	0.038562	0.015981	-1.271484	0.299072	0.623047	-10.433955	-76.045630	93.933130
39834		9.454678	-0.414169	2.284523	0.005609	0.040814	0.008818	-1.275635	0.297119	0.625732	-10.429273	-76.022256	93.933584
39835		9.462614	-0.395114	2.298959	0.006984	0.038563	0.015968	-1.272949	0.299316	0.632324	-10.440855	-75.999605	93.950007
39836		9.469965	-0.409860	2.321095	0.004744	0.036307	0.012797	-1.276367	0.298584	0.621826	-10.447509	-75.978357	93.961632
39837		9.460847	-0.397370	2.305831	0.005118	0.033176	0.011372	-1.277100	0.296631	0.622314	-10.452197	-75.959393	93.968173
39838		9.489511	-0.415073	2.315702	0.001300	0.030105	0.011826	-1.274658	0.297119	0.619141	-10.461163	-75.941740	93.980150
39839		9.471630	-0.422805	2.289291	0.001641	0.029543	0.013611	-1.263916	0.294434	0.623535	-10.473527	-75.924295	93.994296
39840		9.487952	-0.417395	2.321665	0.007001	0.035995	0.012735	-1.276367	0.295898	0.622803	-10.478766	-75.903229	94.005800
39841		9.478837	-0.405161	2.306458	-0.000508	0.034971	0.015992	-1.266357	0.305420	0.620605	-10.495619	-75.882807	94.021854
39842		9.550435	-0.395921	2.285509	0.006113	0.037143	0.013211	-1.271484	0.291748	0.624023	-10.501889	-75.861043	94.033898
39843		9.518107	-0.481329	2.305831	0.003139	0.035495	0.016382	-1.270752	0.293701	0.621338	-10.517865	-75.840291	94.052388
39844		9.575997	-0.515662	2.323350	0.003516	0.041106	0.004737	-1.274170	0.305176	0.622559	-10.505020	-75.817180	94.043184
39845		10.084273	-0.546001	2.242514	0.007517	0.080115	-0.011801	-1.270508	0.300537	0.619385	-10.437287	-75.774178	93.977233
39846		9.791085	-1.054404	2.172778	0.020024	0.183159	-0.021114	-1.281738	0.305908	0.623047	-10.300449	-75.673666	93.849841
39847		11.153660	-0.970287	2.256166	0.036168	0.162050	-0.117521	-1.282227	0.298828	0.626709	-9.953677	-75.595016	93.512384
39848		10.956071	-1.083857	2.425154	0.065664	0.284552	-0.333180	-1.278809	0.294434	0.621338	-9.077630	-75.466309	92.648466
39849		17.864556	0.395185	2.470588	-0.015651	0.412667	-0.414076	-1.282715	0.294189	0.616455	-8.049440	-75.269187	91.569491
39850		21.796325	-1.421130	1.618021	0.047407	1.034367	-0.002860	-1.290771	0.288818	0.605225	-7.709200	-74.682869	91.247312
39851		17.494493	-0.579168	2.109607	-0.002699	1.539318	-0.039667	-1.296875	0.281982	0.597168	-7.221488	-73.812905	90.731399
39852		16.992870	-1.041035	2.036577	0.027181	1.831355	-0.018953	-1.313232	0.290283	0.586426	-6.740984	-72.773210	90.247988
39853		19.452694	-0.414219	1.860220	0.061378	2.186497	0.035409	-1.314209	0.295410	0.575195	-6.322409	-71.527876	89.839035
39854		21.263810	-0.776045	1.541688	0.089594	2.663635	0.055974	-1.326172	0.279541	0.558105	-5.893194	-70.007461	89.440875
39855		21.502490	-0.573110	1.428902	0.145358	3.156602	0.154410	-1.351318	0.283936	0.531250	-5.564190	-68.200040	89.179364
39856		21.441807	-0.541569	1.906849	0.182574	3.573196	0.360058	-1.365479	0.283447	0.509033	-5.476037	-66.142886	89.199293
39857		19.907082	-1.955654	2.171269	0.197763	3.938429	0.794790	-1.374023	0.279053	0.477539	-5.853774	-63.853625	89.742289
39858		17.732825	-2.779634	2.756426	0.354440	4.073955	1.507997	-1.387695	0.298340	0.448486	-6.810021	-61.438722	91.049444
39859		16.325809	-5.739000	1.011841	0.519381	4.058591	1.384380	-1.403809	0.302246	0.419189	-7.383960	-59.034558	92.054199
39860		14.172666	-3.994058	-0.952383	0.742492	4.085634	0.662436	-1.413086	0.304199	0.381836	-7.085580	-56.665011	92.206536
39861		1.793397	-1.291115	-8.880285	0.843493	3.642365	0.327692	-1.425049	0.307373	0.357910	-6.511565	-54.572341	92.097102
39862		-9.277435	-5.462571	-11.904261	1.013201	2.256910	0.231031	-1.426270	0.315918	0.346191	-5.916701	-53.272998	92.081747
39863		-0.759420	-5.334742	-11.547929	1.319842	0.947525	-0.090423	-1.425049	0.304443	0.330811	-5.021603	-52.739544	91.907765
39864		2.779541	-2.880158	-10.478124	1.512607	0.053303	0.095154	-1.425537	0.319092	0.333984	-4.220306	-52.705188	91.992305
39865		4.341232	-3.380628	-11.155506	1.656238	-0.526282	0.378114	-1.422852	0.315918	0.326416	-3.582293	-52.993664	92.381593
39866		4.133939	-2.318057	-10.747253	1.805579	-0.968480	0.402961	-1.422852	0.325928	0.325684	-2.895795	-53.535088	92.818244
39867		3.805164	-0.852651	-9.912535	1.853421	-1.343681	0.295336	-1.416260	0.332520	0.339844	-2.110855	-54.299636	93.159479
39868		3.420960	0.302258	-9.150736	1.798883	-1.761114	0.157951	-1.414063	0.344482	0.345703	-1.247415	-55.306025	93.366497
39869		4.021344	1.406169	-8.403754	1.645982	-2.162870	0.047710	-1.409668	0.335938	0.353027	-0.369522	-56.547919	93.443332
39870		5.095034	1.875981	-7.505717	1.423595	-2.484266	0.064381	-1.398926	0.352295	0.362549	0.392262	-57.971716	93.509694
39871		5.981814	1.810025	-6.606171	1.159724	-2.732617	0.168378	-1.394775	0.351807	0.388428	0.928654	-59.541926	93.657465
39872		6.482521	1.735110	-5.686601	0.885955	-2.927967	0.302666	-1.377686	0.369385	0.407227	1.188998	-61.222854	93.944103
39873		6.986296	1.803366	-4.804146	0.598847	-3.096092	0.454882	-1.374268	0.360352	0.424561	1.108090	-63.005523	94.421594
39874		7.734120	1.828300	-3.991660	0.315029	-3.214183	0.575806	-1.367920	0.372314	0.436768	0.676316	-64.852469	95.105270
39875		8.702491	1.722603	-3.106067	0.047821	-3.265344	0.646907	-1.369873	0.375244	0.453125	-0.098597	-66.729406	95.982507
39876		9.834925	1.452970	-2.263421	-0.208517	-3.216075	0.708823	-1.355469	0.385498	0.480713	-1.255140	-68.567670	97.105723
39877		10.590938	1.073242	-1.440539	-0.425498	-3.102837	0.749722	-1.346924	0.401855	0.493164	-2.811735	-70.333595	98.505115
39878		11.029715	0.802266	-0.655997	-0.617766	-2.963273	0.749672	-1.331055	0.404785	0.521729	-4.746688	-72.000060	100.177340
39879		10.853878	0.424172	-0.082914	-0.777521	-2.875251	0.718862	-1.324951	0.408936	0.535889	-7.063622	-73.601090	102.133628
39880		10.327601	0.245379	0.504522	-0.928759	-2.862869	0.634478	-1.323486	0.411621	0.565186	-9.736142	-75.171499	104.357729
39881		10.248515	0.279453	1.009662	-1.085026	-2.916924	0.474904	-1.316406	0.410889	0.579834	-12.730523	-76.762677	106.800533
39882		10.556961	0.195142	1.630494	-1.257718	-2.973387	0.277487	-1.311035	0.414063	0.607422	-16.067417	-78.374263	109.481231
39883		10.762546	0.199567	2.613030	-1.435426	-3.020081	0.096018	-1.300537	0.402100	0.640869	-19.973513	-80.007854	112.617614
39884		11.055694	0.122007	3.905285	-1.626989	-3.063182	0.038549	-1.290527	0.396973	0.668213	-25.196704	-81.621649	116.965719
39885		11.452157	-0.817787	5.870773	-1.775233	-3.105673	0.119336	-1.274658	0.385742	0.700684	-33.168264	-83.148899	123.978729
39886		11.853193	-1.684576	8.537593	-1.861737	-3.118106	0.208613	-1.259521	0.378418	0.717041	-45.538204	-84.461749	135.349015
39887		12.209031	-2.374112	11.926471	-1.888329	-3.079457	0.311783	-1.245605	0.377197	0.757813	-64.044688	-85.346185	152.838842
39888		12.183891	-2.974235	15.751623	-1.849163	-2.971204	0.446071	-1.218506	0.369629	0.785889	-86.694410	-85.533000	174.497827
39889		12.266802	-3.418789	19.793527	-1.753263	-2.769942	0.661270	-1.202637	0.366943	0.800537	-106.292732	-84.969681	-166.847509
39890		12.617083	-4.093469	23.392742	-1.594023	-2.423879	0.928924	-1.181885	0.368896	0.822754	-118.382353	-83.945170	-155.617615
39891		19.385108	-6.389945	27.296095	-1.394285	-1.937110	1.162979	-1.171631	0.358643	0.845947	-124.372420	-82.796089	-150.392757
39892		37.069312	3.279026	37.174132	-1.214747	2.164291	-0.400903	-1.178955	0.346436	0.830566	-117.096493	-83.629690	-158.418658
39893		8.070453	-2.463958	32.302604	-0.999568	3.467418	-1.022967	-1.205322	0.340088	0.817383	-100.899904	-84.843708	-175.270430
39894		4.118424	0.755134	16.807174	-0.857029	3.660405	-2.479304	-1.231934	0.321533	0.798584	-73.476341	-86.200587	156.736570
39895		13.310888	3.279497	-2.246850	-1.255961	2.133463	-1.498809	-1.255615	0.297119	0.791016	-51.136418	-86.397505	133.631860
39896		19.342093	5.052342	-12.072288	-1.311452	4.132748	-0.668291	-1.283936	0.290039	0.764404	-28.267536	-84.786878	109.947554
39897		10.107672	0.380454	2.478962	-1.114682	5.119723	-0.089475	-1.308594	0.275146	0.733643	-18.369346	-82.102943	99.346120
39898		5.177942	-0.937865	9.098643	-0.366125	3.937499	0.148524	-1.335693	0.275146	0.712891	-14.994461	-79.916971	95.719468
39899		6.801205	-2.190661	5.058471	0.186609	2.659057	0.197813	-1.343994	0.280762	0.688477	-13.497483	-78.412993	94.306175
39900		5.640379	-0.794403	6.060028	0.263507	1.786216	0.093501	-1.354492	0.281494	0.682373	-12.510434	-77.404306	93.453122
39901		7.914305	-0.080078	3.951553	0.116408	1.024855	0.023907	-1.358887	0.280518	0.673340	-11.953759	-76.828021	92.952517
39902		9.477925	-0.077581	2.464751	0.012286	0.748071	0.046022	-1.363525	0.283936	0.667725	-11.681802	-76.403654	92.682164
39903		7.752965	-0.999989	3.488935	0.130311	0.533053	0.063389	-1.364990	0.279053	0.659424	-11.497236	-76.097603	92.571122
39904		8.301549	-0.596442	3.181223	0.092773	0.238230	-0.006528	-1.363281	0.286621	0.651855	-11.316439	-75.965102	92.441555
39905		9.351640	-0.227474	2.441060	0.057861	0.155855	0.006863	-1.365723	0.279053	0.662354	-11.224589	-75.877129	92.383192
39906		9.246314	-0.501373	2.483237	0.039335	0.136739	0.008754	-1.361572	0.280762	0.656494	-11.156942	-75.799856	92.338633
39907		9.331001	-0.306168	2.509021	0.023857	0.103539	0.002019	-1.358398	0.278809	0.659668	-11.098110	-75.741789	92.294210
39908		9.349543	-0.343493	2.512014	-0.005322	0.070087	0.021086	-1.364014	0.287109	0.666016	-11.113015	-75.700612	92.308410
39909		9.423387	-0.479570	2.378224	-0.019017	0.047187	0.025644	-1.371094	0.285645	0.661133	-11.155438	-75.671606	92.343134
39910		9.392272	-0.499047	2.382259	-0.013041	0.037325	0.017148	-1.368652	0.282959	0.662354	-11.180093	-75.649278	92.362837
39911		9.442183	-0.519973	2.380017	-0.003030	0.027382	0.010929	-1.371338	0.281738	0.660400	-11.189432	-75.633030	92.372875
39912		9.433380	-0.506330	2.364348	0.002367	0.023784	0.001311	-1.362793	0.283936	0.655029	-11.176325	-75.620072	92.362712
39913		9.433466	-0.472265	2.359703	0.008642	0.015824	-0.002124	-1.377197	0.290771	0.656738	-11.155368	-75.611769	92.348380
39914		9.399295	-0.446850	2.395784	0.009439	0.009620	-0.005059	-1.369629	0.287598	0.660400	-11.130413	-75.607478	92.330167
39915		9.433496	-0.437056	2.355505	0.013278	0.012703	-0.005391	-1.368408	0.286865	0.658203	-11.101017	-75.601287	92.309867
39916		9.421228	-0.380284	2.373142	0.008730	0.007594	-0.001968	-1.369873	0.283203	0.656250	-11.084134	-75.597790	92.299568
39917		9.450529	-0.397078	2.380211	0.004127	0.004989	0.004713	-1.368408	0.290039	0.659912	-11.085418	-75.594821	92.305535
39918		9.458495	-0.411805	2.398954	0.005465	0.008321	0.008454	-1.368896	0.273682	0.655273	-11.092909	-75.589767	92.318469
39919		9.428431	-0.465343	2.305820	0.006858	0.009149	0.008939	-1.370361	0.284424	0.656738	-11.100063	-75.583993	92.332118
39920		9.453172	-0.474521	2.354522	0.008120	0.010636	0.003565	-1.368896	0.291748	0.655518	-11.094336	-75.578175	92.332977
39921		9.439735	-0.486148	2.385350	0.013753	0.011444	0.002252	-1.371582	0.286865	0.658447	-11.081929	-75.571851	92.330507
39922		9.453188	-0.440589	2.350159	0.016385	0.010537	0.004037	-1.365723	0.288818	0.655762	-11.072546	-75.566037	92.332480
39923		9.448467	-0.431987	2.392551	0.022440	0.011463	-0.005415	-1.369629	0.287598	0.660400	-11.038414	-75.560544	92.312719
39924		9.414250	-0.406299	2.428649	0.021827	0.014508	0.000115	-1.369873	0.288086	0.659424	-11.015680	-75.552927	92.304125
39925		9.418414	-0.413912	2.388680	0.020277	0.011116	0.000443	-1.369385	0.286865	0.660889	-10.995742	-75.546984	92.297746
39926		9.468903	-0.433120	2.384659	0.016380	0.010539	0.004029	-1.368164	0.291260	0.658936	-10.986375	-75.541170	92.299733
39927		9.430459	-0.436108	2.367808	0.018611	0.012737	0.007276	-1.374268	0.291260	0.663574	-10.981607	-75.533570	92.308038
39928		9.430180	-0.436139	2.368911	0.021855	0.008783	0.003529	-1.370605	0.281250	0.663818	-10.968760	-75.528798	92.309671
39929		9.442559	-0.458415	2.346745	0.019009	0.009633	0.005810	-1.365723	0.288818	0.655518	-10.961872	-75.523105	92.316025
39930		9.493059	-0.478143	2.342637	0.029689	0.008572	0.012134	-1.366943	0.292480	0.659424	-10.963371	-75.517515	92.337110
39931		9.492150	-0.512625	2.350465	0.036096	0.013257	0.016827	-1.367432	0.290527	0.657715	-10.969140	-75.508585	92.366647
39932		9.535504	-0.450769	2.315717	0.046055	0.019112	0.016137	-1.373291	0.288818	0.651855	-10.965500	-75.496630	92.392111
39933		9.509528	-0.406631	2.364808	0.048096	0.037774	0.019010	-1.370850	0.291504	0.657471	-10.958762	-75.473675	92.415834
39934		9.477233	-0.492118	2.382363	0.049233	0.044273	0.020114	-1.371094	0.289063	0.665527	-10.951299	-75.447134	92.439234
39935		9.730896	-0.522365	2.349236	0.049657	0.057682	0.014199	-1.372070	0.294189	0.653809	-10.924866	-75.413508	92.443537
39936		9.580116	-0.539309	2.344012	0.044425	0.098240	-0.001736	-1.377197	0.287354	0.657471	-10.850607	-75.358974	92.395070
39937		9.565486	-0.481395	2.371205	0.049622	0.124386	-0.009548	-1.370361	0.281494	0.653564	-10.746110	-75.290362	92.318651
39938		9.571794	-0.425359	2.388452	0.043959	0.132512	-0.018434	-1.373779	0.300049	0.654541	-10.623737	-75.218264	92.220126
39939		9.537853	-0.473086	2.408858	0.048173	0.149005	-0.024792	-1.377930	0.279785	0.659668	-10.479740	-75.137305	92.101934
39940		9.488359	-0.633075	2.480173	0.041857	0.152598	-0.033859	-1.371338	0.292236	0.654785	-10.320508	-75.055359	91.963949
39941		9.904264	-1.153699	2.363478	0.032977	0.185170	-0.091009	-1.372559	0.286621	0.646729	-10.035446	-74.960515	91.690611
39942		9.399931	-0.888372	2.532803	0.011962	0.211761	-0.207386	-1.377686	0.289307	0.647217	-9.513626	-74.861658	91.159230
39943		10.564787	-1.782648	2.350271	-0.012068	0.262208	-0.370689	-1.376709	0.286865	0.642090	-8.656634	-74.747196	90.266201
39944		10.392355	-1.093318	2.491974	-0.003593	0.349986	-0.564589	-1.379639	0.286621	0.640869	-7.383777	-74.594275	88.946235
39945		10.700189	-0.368087	2.669690	0.001734	0.368046	-0.685634	-1.371094	0.274902	0.638184	-5.882353	-74.430511	87.391382
39946		11.911356	0.825772	2.768850	0.012548	0.373814	-0.657589	-1.379883	0.269775	0.643555	-4.463301	-74.251648	85.927086
39947		13.488157	1.766309	2.875040	0.001869	0.472231	-0.593428	-1.386963	0.259766	0.633789	-3.201111	-74.004718	84.618107
39948		21.036483	0.065129	2.385039	-0.034731	0.754018	-0.224405	-1.383301	0.265137	0.626221	-2.698484	-73.580343	84.075943
39949		20.930144	1.116812	2.474692	-0.101395	1.335570	-0.000946	-1.388428	0.258057	0.624268	-2.632579	-72.816383	83.948502
39950		18.275323	1.491767	2.326056	-0.122925	1.734471	0.289444	-1.401123	0.262207	0.606934	-3.063581	-71.816047	84.328940
39951		18.374899	1.088206	2.092798	-0.143024	2.052016	0.519824	-1.404053	0.260742	0.587646	-3.808445	-70.625152	85.031126
39952		18.746143	1.021146	1.643779	-0.118521	2.419867	0.765625	-1.410645	0.270752	0.565674	-4.785017	-69.210130	86.000563
39953		20.125911	-0.603342	1.111258	-0.064592	2.859346	0.848906	-1.427002	0.271973	0.551514	-5.663552	-67.535117	86.907675
39954		22.722446	-2.328598	0.433896	0.036066	3.392862	0.777951	-1.433594	0.270752	0.520752	-6.198377	-65.555969	87.515184
39955		26.734571	-5.464723	-1.246671	0.216001	4.138700	0.526095	-1.439453	0.274170	0.482422	-6.163621	-63.167140	87.615545
39956		28.908522	-7.155580	-2.751004	0.525129	5.142779	0.135803	-1.451904	0.275146	0.447754	-5.449598	-60.228269	87.148699
39957		30.275514	-8.999465	-4.614150	0.875645	6.283992	-0.328470	-1.470459	0.264404	0.399658	-4.149038	-56.657815	86.212634
39958		29.172579	-9.985372	-5.456764	1.241642	7.525475	-0.960833	-1.480469	0.262939	0.342041	-2.321303	-52.384198	84.845513
39959		27.755334	-6.621280	-3.509786	1.450049	8.540266	-1.576284	-1.494629	0.254395	0.265625	-0.281027	-47.515000	83.267107
39960		28.263038	-0.624426	2.608821	1.342780	9.070526	-1.716717	-1.498291	0.234131	0.184814	1.421149	-42.308615	81.950730
39961		23.480781	2.125063	6.790491	1.063965	8.971411	-0.984482	-1.494385	0.223633	0.124512	2.360688	-37.155984	81.434450
39962		16.708618	4.153140	3.366145	0.699377	8.390321	-0.122366	-1.485107	0.217041	0.057129	2.666319	-32.350634	81.604856
39963		20.974951	0.721714	-0.158291	0.657884	7.880444	0.473433	-1.474121	0.218018	-0.007813	2.763949	-27.857342	82.160670
39964		15.620385	-1.824917	-8.197068	0.696729	7.491592	0.158761	-1.465576	0.218994	-0.060547	3.017514	-23.575410	82.500879
39965		20.398770	-2.441998	-11.240358	0.866860	6.992015	0.285751	-1.437744	0.211426	-0.108398	3.363041	-19.589340	82.911117
39966		16.679739	-9.086924	-14.441921	1.168792	6.784605	0.903792	-1.423096	0.209961	-0.159180	3.793154	-15.742283	83.707200
39967		-10.452040	-13.153021	-15.122134	2.030912	6.282084	0.861754	-1.395996	0.211426	-0.201904	4.768943	-12.195482	84.485033
39968		-38.399933	-5.938753	-9.851394	2.665870	2.954319	1.647779	-1.391357	0.208496	-0.218262	6.076839	-10.599936	85.606178
39969		-8.329725	-3.826282	-11.160586	2.854505	-0.377192	2.713746	-1.384277	0.222900	-0.208984	7.423282	-11.001954	87.146496
39970		1.753654	-0.659716	-7.280136	2.877647	-1.836597	2.769301	-1.398926	0.234863	-0.189209	8.781342	-12.267721	88.598021
39971		4.514366	2.576866	-7.082431	2.648561	-2.479563	2.373589	-1.396240	0.242432	-0.164307	10.041557	-13.896120	89.731306
39972		3.854722	5.038964	-6.332231	2.212686	-2.810062	2.011585	-1.408691	0.258545	-0.146729	11.090306	-15.690497	90.596951
39973		4.019221	6.142323	-5.317407	1.648215	-2.996465	1.743688	-1.419189	0.270020	-0.119385	11.844692	-17.576305	91.257137
39974		4.637224	5.716646	-4.427269	1.056836	-3.079396	1.506015	-1.407959	0.270020	-0.099365	12.293257	-19.482364	91.757147
39975		3.750037	4.689832	-3.929298	0.523317	-3.150289	1.181062	-1.422119	0.295410	-0.063721	12.491934	-21.395322	92.043847
39976		2.182957	4.041940	-3.946245	0.047234	-3.340249	0.850312	-1.424561	0.296143	-0.033936	12.495848	-23.369485	92.109640
39977		1.799297	3.621716	-4.106981	-0.386266	-3.626562	0.641977	-1.427246	0.310547	0.004150	12.315138	-25.482832	92.008830
39978		2.926546	3.295515	-4.186648	-0.792169	-3.920688	0.607742	-1.421875	0.314697	0.044189	11.929304	-27.752520	91.861105
39979		4.361993	2.882028	-4.079990	-1.163037	-4.142400	0.701098	-1.420410	0.330566	0.069336	11.310982	-30.163349	91.759406
39980		5.200463	2.319131	-3.939992	-1.476001	-4.311116	0.835562	-1.425049	0.337646	0.114990	10.465379	-32.679666	91.762640
39981		5.632537	1.872413	-3.832891	-1.728311	-4.450466	0.917919	-1.415039	0.349609	0.160645	9.424167	-35.287525	91.851209
39982		5.901792	1.349173	-3.781762	-1.910187	-4.608578	0.905832	-1.422852	0.366699	0.209229	8.252314	-37.976712	91.983742
39983		6.419199	0.783814	-3.689915	-2.021512	-4.803104	0.828541	-1.406250	0.366211	0.257813	7.009312	-40.773102	92.114479
39984		7.139944	0.033933	-3.583512	-2.051585	-5.049257	0.724940	-1.391357	0.378662	0.309326	5.753328	-43.694654	92.236676
39985		8.120094	-0.663696	-3.546079	-2.001524	-5.319955	0.605899	-1.384033	0.393066	0.366211	4.535013	-46.767739	92.334200
39986		9.375362	-1.237336	-3.486647	-1.886694	-5.586562	0.502234	-1.357422	0.396484	0.430908	3.382069	-49.981168	92.432583
39987		10.673234	-1.878989	-3.272368	-1.712055	-5.839753	0.446545	-1.335449	0.398193	0.492676	2.288778	-53.342237	92.572149
39988		11.720337	-2.255243	-3.028591	-1.486108	-6.081781	0.468859	-1.297119	0.406250	0.555420	1.207493	-56.833802	92.854263
39989		12.933178	-2.484192	-2.832298	-1.237514	-6.314568	0.534208	-1.257080	0.418945	0.624512	0.063101	-60.462049	93.359708
39990		14.353741	-1.983492	-2.490786	-0.996311	-6.505613	0.631039	-1.199463	0.433594	0.689697	-1.269090	-64.186002	94.220879
39991		16.214047	-1.436389	-2.080569	-0.804310	-6.628212	0.659767	-1.119873	0.442627	0.750244	-2.892417	-67.975203	95.487368
39992		18.402270	-0.624195	-1.444560	-0.682932	-6.671861	0.640900	-1.047119	0.468750	0.813721	-4.997748	-71.764514	97.313782
39993		20.074403	0.854320	-0.277479	-0.691681	-6.686858	0.605814	-0.946289	0.482910	0.863037	-8.057873	-75.540471	100.083426
39994		21.040063	2.555818	1.352343	-0.892874	-6.739774	0.484074	-0.829590	0.498535	0.909180	-12.941366	-79.290242	104.562208
39995		21.807230	3.862470	3.638981	-1.269795	-6.849008	0.244496	-0.698730	0.504395	0.922119	-22.148244	-83.007838	113.133842
39996		23.739904	2.852641	6.891878	-1.702917	-6.984180	0.000877	-0.572266	0.510742	0.907959	-48.065336	-86.361474	138.170684
39997		26.008207	0.021940	11.661845	-2.016705	-7.026347	-0.328551	-0.450195	0.511963	0.853760	-123.197275	-86.982082	-147.765516
39998		28.075694	-3.149228	16.801504	-2.102490	-6.795877	-0.595244	-0.358398	0.499512	0.793701	-159.318602	-84.021819	-112.757063
39999		27.632766	-5.543744	21.450606	-1.986732	-6.287292	-0.603397	-0.315186	0.485107	0.729492	-170.025225	-80.620100	-103.110865
40000		25.851799	-6.587795	24.616867	-1.762399	-5.540857	-0.326630	-0.289307	0.474121	0.687256	-174.244966	-77.499343	-99.841052
40001		22.372638	-5.177755	26.435269	-1.545254	-4.560775	0.203281	-0.266357	0.452148	0.660645	-175.602437	-74.880110	-99.357884
40002		18.787827	-4.106201	28.495200	-1.459098	-3.518912	0.775706	-0.231689	0.425781	0.639404	-175.451485	-72.834958	-100.383292
40003		17.233699	-3.943369	30.626975	-1.306812	-2.344017	1.186859	-0.198486	0.396484	0.621582	-174.466081	-71.432704	-102.206743
40004		15.046697	-2.235283	32.688605	-1.088205	-1.183512	1.192802	-0.157471	0.368896	0.600342	-173.319832	-70.685290	-104.075743
40005		12.139939	-0.260438	33.770902	-0.915972	-0.208684	0.867339	-0.137207	0.345215	0.580078	-172.487364	-70.502485	-105.514910
40006		35.799192	7.489141	39.921961	-1.084467	2.756256	-0.087278	-0.142822	0.342285	0.582520	-172.652543	-72.074573	-105.994525
40007		10.376136	-3.701182	15.569011	-1.212187	5.001242	-0.566742	-0.169189	0.330322	0.610107	-173.248926	-74.957661	-106.095190
40008		13.362634	3.764523	-14.276271	-0.734840	4.817098	-0.552158	-0.191895	0.324219	0.626953	-173.671052	-77.735366	-106.092190
40009		18.450140	0.162937	-22.364808	-0.452351	7.762474	-0.134797	-0.230469	0.318115	0.648682	-171.022986	-82.154663	-109.040758
40010		8.972357	2.131098	-0.379216	-0.295517	9.190902	0.143188	-0.285156	0.308350	0.666748	-152.652502	-87.198678	-127.639954
40011		4.901292	1.680021	7.759992	-0.026309	7.750935	0.786218	-0.325928	0.296875	0.673340	-41.675702	-87.388807	121.310132
40012		7.024445	-2.412917	6.572327	0.113813	6.189890	0.800369	-0.353516	0.291748	0.678223	-21.735120	-84.081519	101.390741
40013		4.950327	-1.832202	8.333739	0.509380	4.698553	0.490501	-0.391602	0.289063	0.687744	-16.569248	-81.444706	96.480912
40014		6.553862	0.024552	6.652794	0.424632	3.362561	0.535046	-0.410156	0.276123	0.692383	-14.959143	-79.507756	95.097157
40015		7.372789	-1.284525	4.527194	0.267317	2.433888	0.417069	-0.416748	0.279785	0.695801	-14.195390	-78.098423	94.477020
40016		7.250198	-0.715226	4.397880	0.263729	1.890283	0.209470	-0.434326	0.288330	0.697021	-13.397315	-77.018575	93.816476
40017		6.849015	-0.483127	4.489464	0.254737	1.368490	0.008614	-0.448975	0.280029	0.688477	-12.526038	-76.253611	93.073367
40018		6.720890	-0.508578	4.838883	0.163566	0.858455	-0.069636	-0.444336	0.282227	0.687012	-11.854252	-75.781840	92.479616
40019		7.641870	-0.345999	3.974127	0.142007	0.330093	-0.062532	-0.445068	0.283203	0.686035	-11.480144	-75.603945	92.180034
40020		8.820686	-0.008894	3.125247	0.080917	0.133784	-0.055204	-0.452393	0.282471	0.689209	-11.250283	-75.535599	91.992524
40021		9.252858	-0.242150	2.650455	0.042119	0.076948	0.001026	-0.452637	0.283447	0.689209	-11.189894	-75.492231	91.957694
40022		9.159364	-0.394541	2.674109	0.009045	0.039314	0.001110	-0.452393	0.286621	0.693359	-11.165979	-75.470578	91.940311
40023		9.368245	-0.446929	2.507921	-0.003477	0.012854	-0.002260	-0.448242	0.289307	0.682129	-11.152237	-75.463569	91.926702
40024		9.295399	-0.458835	2.531208	-0.006976	-0.004126	-0.002478	-0.453613	0.286621	0.685547	-11.148346	-75.466731	91.920521
40025		9.360511	-0.432391	2.488768	-0.011619	-0.027596	-0.003858	-0.458008	0.281494	0.684570	-11.153076	-75.482620	91.921186
40026		9.404626	-0.403582	2.456414	-0.016679	-0.034677	-0.001460	-0.454102	0.286377	0.673584	-11.170042	-75.502843	91.930808
40027		9.396349	-0.457264	2.446999	-0.015282	-0.047142	-0.003287	-0.452148	0.285156	0.688232	-11.186517	-75.529642	91.941447
40028		9.424101	-0.433660	2.383202	-0.021432	-0.049913	-0.003003	-0.453125	0.280518	0.680176	-11.209503	-75.558598	91.954470
40029		9.442044	-0.428738	2.408228	-0.018647	-0.048262	-0.002022	-0.446533	0.284668	0.688477	-11.231250	-75.585873	91.968565
40030		9.469706	-0.405215	2.344421	-0.018654	-0.048261	-0.002033	-0.448730	0.286133	0.687012	-11.254188	-75.613790	91.983179
40031		9.444352	-0.429211	2.399075	-0.018504	-0.045692	-0.002845	-0.448242	0.280762	0.689697	-11.273033	-75.639703	91.994365
40032		9.407895	-0.398307	2.370456	-0.018229	-0.043810	0.002198	-0.453125	0.284912	0.694092	-11.303210	-75.664641	92.016699
40033		9.468536	-0.399296	2.371991	-0.023979	-0.058676	0.011051	-0.448486	0.278076	0.681641	-11.361638	-75.696272	92.065504
40034		9.431741	-0.403980	2.348180	-0.014547	-0.061295	0.022760	-0.449463	0.283936	0.681152	-11.443121	-75.728690	92.142953
40035		9.483193	-0.460089	2.343210	-0.015670	-0.060239	0.027300	-0.447266	0.286865	0.682617	-11.533924	-75.759304	92.230066
40036		9.412403	-0.441041	2.354749	-0.009032	-0.055508	0.027974	-0.446533	0.276611	0.689697	-11.621894	-75.787816	92.317445
40037		9.472430	-0.477673	2.362040	-0.005689	-0.054387	0.026671	-0.443359	0.284668	0.684082	-11.703605	-75.815146	92.401062
40038		9.481602	-0.529303	2.280789	0.001825	-0.045050	0.023475	-0.448242	0.281738	0.685791	-11.771177	-75.838256	92.473798
40039		9.461126	-0.528562	2.288751	0.008656	-0.034498	0.016711	-0.450928	0.280273	0.685547	-11.813785	-75.855544	92.525548
40040		9.546763	-0.539233	2.239510	0.015331	-0.017514	0.000723	-0.440186	0.276611	0.685547	-11.810443	-75.865856	92.533124
40041		9.526293	-0.501973	2.244445	0.026841	0.003210	-0.006945	-0.451416	0.281250	0.683105	-11.772481	-75.864762	92.512524
40042		9.462917	-0.459078	2.274419	0.035710	0.015855	-0.006377	-0.443359	0.283447	0.680664	-11.726152	-75.857186	92.487812
40043		9.496941	-0.413455	2.329632	0.038426	0.025734	-0.005512	-0.440674	0.276123	0.685791	-11.674378	-75.843277	92.459811
40044		9.487443	-0.431748	2.321121	0.041088	0.038103	-0.001387	-0.452148	0.288086	0.689697	-11.625965	-75.822629	92.436124
40045		9.485840	-0.464559	2.331585	0.046990	0.046535	-0.001028	-0.446533	0.288818	0.681396	-11.569916	-75.796512	92.408773
40046		9.442761	-0.424370	2.353469	0.050276	0.050145	0.000926	-0.448730	0.288330	0.685303	-11.516151	-75.768827	92.384990
40047		9.483467	-0.462400	2.341647	0.056354	0.055405	0.003860	-0.442139	0.285400	0.689697	-11.461842	-75.737152	92.364967
40048		9.558417	-0.491285	2.289701	0.066193	0.071978	0.006342	-0.453613	0.281982	0.685791	-11.401489	-75.696580	92.343790
40049		9.455523	-0.382215	2.396187	0.069692	0.088957	0.006520	-0.453125	0.289307	0.689697	-11.330929	-75.645744	92.314871
40050		9.580387	-0.430955	2.342571	0.072003	0.109498	0.014484	-0.451172	0.283447	0.684570	-11.269173	-75.583165	92.295674
40051		9.615004	-0.461473	2.378739	0.067297	0.127338	0.004191	-0.452393	0.285889	0.689941	-11.179013	-75.510997	92.245087
40052		9.577930	-0.434874	2.426225	0.054870	0.131457	-0.011192	-0.458008	0.289795	0.684326	-11.062934	-75.438895	92.159619
40053		9.489957	-0.388127	2.478826	0.040386	0.134543	-0.014881	-0.452148	0.290039	0.680420	-10.945542	-75.364708	92.064926
40054		9.418754	-0.405801	2.472595	0.027938	0.120714	-0.010100	-0.455322	0.290771	0.684082	-10.853596	-75.298451	91.988399
40055		9.531522	-0.397586	2.438104	0.020785	0.114023	-0.011798	-0.448242	0.287109	0.683105	-10.764232	-75.235391	91.911022
40056		9.620828	-0.488732	2.434905	0.006480	0.127234	-0.010634	-0.444580	0.284424	0.677490	-10.682269	-75.165460	91.832057
40057		9.356807	-0.483120	2.531795	0.003327	0.140892	-0.027012	-0.461426	0.290527	0.684082	-10.561465	-75.088809	91.711750
40058		9.356489	-0.589312	2.522352	-0.010810	0.126404	-0.049402	-0.459961	0.294189	0.684082	-10.409758	-75.023306	91.550294
40059		9.349603	-0.645608	2.486830	-0.022299	0.111000	-0.069986	-0.458496	0.284424	0.686035	-10.227301	-74.967739	91.350883
40060		10.350165	-0.894325	2.351837	-0.033457	0.120747	-0.134138	-0.460449	0.277832	0.688965	-9.916026	-74.913618	91.010660
40061		10.993714	-1.343022	2.282520	-0.027144	0.283846	-0.245591	-0.454834	0.278320	0.681885	-9.313633	-74.776583	90.373139
40062		10.632730	-0.488465	2.463086	0.000421	0.383875	-0.328548	-0.466553	0.288574	0.679199	-8.505780	-74.588986	89.537760
40063		11.535082	-0.203715	2.667453	0.009091	0.421259	-0.371061	-0.464844	0.291016	0.681152	-7.615225	-74.379624	88.621569
40064		16.660351	0.763195	2.787255	-0.032595	0.568233	-0.330577	-0.479248	0.282471	0.672852	-6.819445	-74.080941	87.777243
40065		26.300650	0.263400	2.257369	-0.071047	1.118489	0.040153	-0.490967	0.281982	0.676758	-6.674938	-73.441708	87.586954
40066		21.706472	0.522992	2.275219	-0.160273	1.901597	0.184348	-0.508545	0.277344	0.669678	-6.691579	-72.347801	87.510279
40067		16.918973	0.849256	2.227740	-0.194066	2.216648	0.395047	-0.529297	0.262451	0.666260	-7.019132	-71.060041	87.740603
40068		18.015822	1.469595	2.009916	-0.210434	2.444849	0.654858	-0.571045	0.258057	0.652588	-7.676212	-69.623271	88.312289
40069		19.624218	0.210134	1.523157	-0.215677	2.806254	0.843798	-0.598633	0.246826	0.648438	-8.447776	-67.963982	89.009700
40070		20.508384	-2.162499	0.680595	-0.108634	3.269234	0.875609	-0.629639	0.236084	0.634521	-9.005381	-66.036937	89.549826
40071		23.756584	-2.899035	-0.059706	0.030728	3.862823	0.697695	-0.672852	0.240479	0.618164	-9.083879	-63.789360	89.658122
40072		26.859838	-5.959083	-1.815392	0.242365	4.678114	0.381273	-0.717285	0.224609	0.596924	-8.567303	-61.107742	89.234392
40073		28.753120	-8.429138	-3.492205	0.596796	5.716672	-0.084703	-0.765625	0.212158	0.573242	-7.369917	-57.872344	88.243506
40074		31.650777	-9.137669	-5.496773	1.024820	6.949381	-0.509367	-0.823242	0.199219	0.530029	-5.682050	-53.949909	86.917829
40075		32.855021	-6.064770	-4.365048	1.307930	8.283547	-1.049428	-0.876709	0.186768	0.480957	-3.684144	-49.271419	85.327080
40076		30.727853	-0.831884	-0.396760	1.214844	9.162541	-1.057121	-0.925781	0.178223	0.428467	-2.064154	-44.058880	84.061448
40077		24.838955	2.548657	6.856729	0.901948	9.248198	-0.403739	-0.983154	0.154297	0.376953	-1.207715	-38.773389	83.548418
40078		19.143143	1.161326	4.809696	0.575755	8.643153	0.903031	-1.009521	0.140137	0.318359	-1.179517	-33.811945	84.061187
40079		20.691049	-0.629133	1.532990	0.666020	8.003741	1.800404	-1.048584	0.144287	0.257813	-1.366205	-29.209738	85.147369
40080		19.854199	-1.828594	-5.302697	0.906937	7.756041	1.240775	-1.069336	0.128906	0.202881	-1.156238	-24.751694	85.834191
40081		20.278421	-3.960235	-11.463475	1.132632	7.459317	0.721367	-1.082275	0.129150	0.140381	-0.649858	-20.478614	86.204413
40082		22.611510	-6.755441	-13.868903	1.429404	7.464573	0.906838	-1.093018	0.117188	0.101074	0.007308	-16.199331	86.725645
40083		22.615934	-11.037418	-15.324040	2.174756	7.699905	1.564586	-1.098877	0.105713	0.035889	1.021164	-11.804186	87.684622
40084		-19.937191	-10.125172	-10.100613	2.878193	7.753140	1.374257	-1.096191	0.105225	-0.007813	2.516803	-7.388858	88.620883
40085		-31.072527	-2.995294	-9.727678	3.326206	3.472667	2.447175	-1.096924	0.104004	-0.037842	4.251180	-5.493852	90.141561
40086		-12.775123	-1.782189	-9.585071	3.482262	0.363912	3.069577	-1.108887	0.109375	-0.053467	6.078988	-5.444896	91.919182
40087		-2.683624	0.574135	-6.501414	3.446149	-1.664330	2.856773	-1.117676	0.109375	-0.047607	7.893669	-6.597286	93.430948
40088		2.708188	3.732770	-6.048545	3.187858	-2.606483	2.276965	-1.118896	0.109619	-0.046387	9.583702	-8.271865	94.501665
40089		4.844385	5.200454	-5.103007	2.744999	-3.027072	1.781123	-1.119141	0.108154	-0.037354	11.043219	-10.167539	95.199360
40090		5.221285	5.726714	-4.189916	2.222518	-3.143463	1.402922	-1.139160	0.106445	-0.026611	12.235401	-12.094002	95.630575
40091		4.608182	5.140017	-3.358735	1.688998	-3.174732	1.086443	-1.150635	0.107178	-0.014648	13.154660	-14.012246	95.839032
40092		4.354287	4.631375	-3.017840	1.187454	-3.177648	0.714169	-1.156494	0.114990	-0.009277	13.844440	-15.878374	95.810132
40093		4.115652	4.426909	-2.771633	0.697329	-3.189957	0.312992	-1.159180	0.107666	0.006348	14.325766	-17.702043	95.522858
40094		3.736180	3.736118	-2.862451	0.223737	-3.264938	-0.011816	-1.166992	0.112061	0.019043	14.615744	-19.511937	95.021881
40095		3.589026	2.957541	-2.964419	-0.215937	-3.417816	-0.150582	-1.176514	0.109375	0.036621	14.708555	-21.392197	94.399527
40096		3.841524	2.583584	-3.104304	-0.638781	-3.626871	-0.054172	-1.177490	0.110596	0.053467	14.573581	-23.395182	93.798118
40097		4.073988	2.319621	-3.278922	-1.053006	-3.900047	0.207931	-1.178711	0.122314	0.058105	14.171386	-25.597302	93.311151
40098		4.107441	2.133471	-3.471444	-1.436137	-4.216350	0.493459	-1.179932	0.130371	0.076172	13.503964	-28.010847	92.970513
40099		4.327416	2.007375	-3.717587	-1.797141	-4.561885	0.667920	-1.173828	0.138916	0.108643	12.597745	-30.651781	92.716797
40100		4.870077	1.689535	-3.978529	-2.091442	-4.908087	0.690111	-1.168945	0.143066	0.124023	11.527552	-33.484684	92.478693
40101		5.694250	1.349511	-4.205612	-2.325549	-5.241618	0.600833	-1.174072	0.150635	0.136963	10.359227	-36.507328	92.190865
40102		6.784678	0.686864	-4.344240	-2.484719	-5.557910	0.490955	-1.169922	0.155029	0.163330	9.143316	-39.693657	91.856833
40103		7.941677	-0.282805	-4.490032	-2.563482	-5.861652	0.404815	-1.156982	0.158936	0.188965	7.913155	-43.058640	91.494040
40104		9.168510	-1.157862	-4.602605	-2.549025	-6.164349	0.408381	-1.152100	0.164307	0.214844	6.669787	-46.591952	91.188241
40105		10.398225	-2.051502	-4.561623	-2.449061	-6.448748	0.460445	-1.141602	0.173096	0.239990	5.411429	-50.304040	90.992366
40106		12.157506	-2.873862	-4.317088	-2.276711	-6.692808	0.511632	-1.127441	0.183350	0.259277	4.144577	-54.150129	90.946605
40107		14.018380	-3.159651	-3.898472	-2.032608	-6.870006	0.566779	-1.113281	0.173340	0.285156	2.857257	-58.109713	91.091299
40108		15.267425	-3.068365	-3.458744	-1.765928	-7.009159	0.563404	-1.106689	0.188232	0.301514	1.555762	-62.135498	91.426905
40109		16.586936	-3.141452	-3.055770	-1.476099	-7.141741	0.502175	-1.102295	0.190430	0.312988	0.250002	-66.243296	91.933954
40110		18.532492	-2.743869	-2.525837	-1.180581	-7.257377	0.416243	-1.088135	0.185791	0.329590	-1.100944	-70.400088	92.661065
40111		20.979146	-1.988903	-1.723522	-0.943433	-7.334588	0.305420	-1.079346	0.180908	0.353271	-2.630759	-74.607402	93.693541
40112		23.059032	-0.165018	-0.252636	-0.849748	-7.402461	0.144356	-1.079590	0.178711	0.362549	-4.596257	-78.835898	95.213475
40113		23.533892	1.948498	1.830648	-0.968491	-7.521948	-0.037120	-1.072266	0.162598	0.382813	-8.009304	-83.136543	98.100933
40114		25.424540	2.153330	4.743216	-1.267654	-7.748830	-0.144922	-1.081055	0.160645	0.406982	-21.605336	-87.478117	111.005932
40115		28.875013	-0.936977	9.504857	-1.498964	-7.936954	-0.237151	-1.084717	0.140381	0.439697	-160.415605	-87.634266	-111.012153
40116		32.667242	-4.412604	15.432481	-1.534169	-7.796445	-0.307898	-1.099609	0.120605	0.477051	-175.318609	-83.271101	-96.952954
40117		33.038299	-6.359230	21.348333	-1.342094	-7.271922	-0.047420	-1.088867	0.104736	0.527100	-177.867775	-79.100680	-95.156479
40118		31.213587	-6.848899	26.032349	-1.130846	-6.426569	0.474492	-1.079834	0.096680	0.574219	-177.914874	-75.410562	-95.770440
40119		27.815877	-5.645681	29.390292	-0.965347	-5.251544	1.124300	-1.063965	0.085693	0.611816	-176.727914	-72.364242	-97.583713
40120		23.326626	-6.204177	32.338234	-0.900805	-3.871171	1.519378	-1.057617	0.075195	0.642090	-175.151344	-70.089353	-99.791598
40121		18.887669	-6.963251	34.546239	-0.671726	-2.432593	1.674980	-1.050049	0.091309	0.665771	-173.372807	-68.599050	-102.104765
40122		14.824684	-5.607374	36.346404	-0.337020	-1.155403	1.734159	-1.044189	0.088379	0.679688	-171.323511	-67.810129	-104.517647
40123		12.170995	-3.398017	37.201742	-0.058658	-0.178617	1.742503	-1.053467	0.094482	0.692627	-169.003011	-67.534561	-107.062308
40124		11.306804	-0.390156	36.043210	0.105973	0.609829	1.603572	-1.063477	0.107422	0.691650	-166.583176	-67.681543	-109.611683
40125		13.525421	1.284991	32.962532	0.134449	1.320205	1.219239	-1.072510	0.116699	0.697754	-164.364147	-68.237719	-111.920612
40126		33.147979	24.340718	7.426669	-2.305771	3.137559	-2.643749	-1.099365	0.085205	0.674561	-168.463679	-70.341291	-108.948988
40127		8.217474	-3.720314	-30.123615	-1.226355	4.331198	-2.390363	-1.111328	0.077393	0.652100	-171.969557	-73.021840	-105.994152
40128		18.654891	7.753504	-20.180694	-1.361519	7.593327	-2.139717	-1.148438	0.052734	0.614746	-175.591984	-77.480734	-103.055692
40129		10.414120	9.546654	-2.629567	-1.936899	9.167087	-0.111341	-1.187012	0.049805	0.579102	-174.458603	-82.719455	-105.329109
40130		5.160783	0.869590	5.580904	-1.619423	8.189918	1.132357	-1.232178	0.043701	0.535156	-153.750080	-87.133281	-127.031472
40131		7.122030	-1.899788	2.882282	-1.098190	6.778086	1.250327	-1.252930	0.041992	0.494873	-56.784585	-87.638672	135.317316
40132		8.610260	-5.233464	3.150230	-0.305258	5.982771	0.878570	-1.264404	0.042969	0.460205	-27.841447	-84.670240	106.147598
40133		5.336948	-2.698715	8.027955	0.732680	4.822547	0.542832	-1.289063	0.063477	0.428467	-20.201746	-82.014823	98.883255
40134		7.879140	-1.402755	4.625486	1.008261	3.606873	0.574181	-1.297119	0.061768	0.416748	-17.385322	-79.952697	96.618882
40135		6.953806	-0.218301	5.451246	0.804497	2.873658	0.424935	-1.309082	0.064697	0.399414	-15.691555	-78.304581	95.366345
40136		5.653056	-0.080946	6.232006	0.501507	2.030102	0.125117	-1.308350	0.070557	0.387695	-14.332337	-77.163116	94.271444
40137		6.081083	0.080885	5.443794	0.230957	1.245461	-0.116585	-1.313721	0.066406	0.384277	-13.190639	-76.485055	93.237716
40138		7.135564	-0.526264	4.339145	0.127867	0.653303	-0.073496	-1.312744	0.072266	0.375732	-12.601642	-76.130175	92.708859
40139		8.049988	-0.371839	3.595495	0.172341	0.239205	0.006567	-1.315674	0.075684	0.379150	-12.391083	-75.994405	92.596735
40140		9.050370	0.000763	2.919413	0.097845	0.121425	-0.007484	-1.311035	0.066406	0.375977	-12.254576	-75.927944	92.515776
40141		9.271205	-0.426012	2.610314	0.051165	0.076332	0.028793	-1.316650	0.065674	0.376221	-12.245221	-75.880432	92.539509
40142		9.162380	-0.482310	2.585741	0.032333	0.048688	0.009724	-1.322754	0.077881	0.379639	-12.220547	-75.852580	92.535133
40143		9.326014	-0.385597	2.460558	0.020026	0.027419	0.004582	-1.316650	0.064209	0.365479	-12.198734	-75.835350	92.527643
40144		9.313761	-0.541313	2.474330	0.009851	0.013258	0.009269	-1.311768	0.077881	0.378174	-12.202999	-75.827394	92.539828
40145		9.358489	-0.444593	2.433620	0.006578	-0.006090	0.001614	-1.310303	0.074951	0.378174	-12.198340	-75.829255	92.542091
40146		9.399956	-0.517712	2.420965	0.007566	-0.021216	0.004579	-1.320068	0.064697	0.370117	-12.210051	-75.841173	92.560605
40147		9.402019	-0.449983	2.406750	0.005337	-0.029132	0.004658	-1.312256	0.071289	0.380859	-12.223900	-75.855540	92.581229
40148		9.423371	-0.486959	2.397880	0.006087	-0.038595	0.008314	-1.314941	0.071777	0.373779	-12.253216	-75.876732	92.617020
40149		9.417000	-0.439060	2.370229	0.008057	-0.044052	0.009895	-1.315186	0.081543	0.381104	-12.284450	-75.898786	92.657179
40150		9.456167	-0.437552	2.384150	0.008392	-0.044667	0.011670	-1.309082	0.075928	0.378906	-12.323095	-75.922958	92.703944
40151		9.465998	-0.453333	2.297097	0.006767	-0.045580	0.015218	-1.313721	0.070801	0.378418	-12.367894	-75.945181	92.757321
40152		9.479404	-0.476599	2.269374	0.008668	-0.042805	0.016705	-1.316162	0.064941	0.378662	-12.417034	-75.967673	92.815057
40153		9.445743	-0.487220	2.306964	0.009370	-0.034999	0.010277	-1.317871	0.071777	0.373047	-12.444294	-75.984554	92.851883
40154		9.476540	-0.470856	2.304197	0.019058	-0.028556	0.007938	-1.320313	0.073242	0.380615	-12.461007	-76.000142	92.882325
40155		9.438088	-0.507254	2.290119	0.020773	-0.016841	0.003503	-1.318604	0.083252	0.377930	-12.457588	-76.007681	92.894263
40156		9.442177	-0.513974	2.348072	0.024511	-0.013061	-0.002621	-1.319824	0.071777	0.371094	-12.439817	-76.015905	92.892385
40157		9.435833	-0.430272	2.317479	0.023814	-0.006077	-0.009545	-1.313721	0.072754	0.372070	-12.399967	-76.019013	92.868573
40158		9.465305	-0.445896	2.323442	0.020944	0.000516	-0.010635	-1.312744	0.077148	0.382080	-12.359484	-76.020623	92.841184
40159		9.464525	-0.478626	2.329848	0.020501	0.006086	-0.005880	-1.310791	0.072510	0.376465	-12.323712	-76.016450	92.819620
40160		9.487091	-0.411668	2.307164	0.027760	0.013551	-0.014073	-1.308105	0.069336	0.378174	-12.265213	-76.011172	92.777688
40161		9.461118	-0.400027	2.361997	0.024118	0.020575	-0.008833	-1.314453	0.078125	0.375977	-12.213670	-75.999221	92.742006
40162		9.431335	-0.382170	2.357630	0.016805	0.015591	0.002627	-1.314941	0.079590	0.368408	-12.198042	-75.990762	92.737785
40163		9.494053	-0.423573	2.330122	0.022802	0.015778	0.003134	-1.311768	0.072998	0.380615	-12.176449	-75.980024	92.732198
40164		9.484067	-0.476875	2.326080	0.020109	0.019188	0.004611	-1.308350	0.071289	0.374756	-12.161666	-75.969310	92.730800
40165		9.538515	-0.503992	2.281539	0.025481	0.028131	0.007295	-1.312500	0.077148	0.379395	-12.141890	-75.951137	92.728668
40166		9.579471	-0.542946	2.267903	0.032957	0.045691	0.004038	-1.311035	0.073242	0.375244	-12.105769	-75.925644	92.712860
40167		9.619937	-0.581237	2.256620	0.048475	0.074536	-0.001397	-1.305420	0.075928	0.377197	-12.031390	-75.882505	92.668006
40168		9.597501	-0.542826	2.270683	0.055630	0.095978	-0.013116	-1.308105	0.072754	0.377686	-11.920748	-75.830856	92.588740
40169		9.587677	-0.457489	2.351589	0.058031	0.114004	-0.008340	-1.317871	0.068115	0.372803	-11.808096	-75.766362	92.510021
40170		9.618765	-0.479621	2.328467	0.053527	0.128709	-0.015982	-1.312500	0.070313	0.371094	-11.678856	-75.696609	92.410277
40171		9.603105	-0.454701	2.365055	0.048628	0.140760	-0.018792	-1.321289	0.074951	0.377197	-11.538470	-75.618210	92.297317
40172		9.656779	-0.553576	2.404840	0.047733	0.158456	-0.022722	-1.312744	0.076172	0.378662	-11.387089	-75.532400	92.171215
40173		9.721722	-0.496065	2.434019	0.030918	0.182397	-0.043341	-1.321533	0.074707	0.373047	-11.188614	-75.433195	91.987672
40174		9.615993	-0.451417	2.461920	0.015274	0.188039	-0.058365	-1.322754	0.076660	0.368164	-10.970362	-75.334469	91.773134
40175		9.312832	-0.444412	2.545140	0.002792	0.183217	-0.063816	-1.312988	0.070557	0.370850	-10.749105	-75.236661	91.549204
40176		9.468608	-0.612978	2.483920	-0.004305	0.181269	-0.088086	-1.314209	0.080566	0.370605	-10.487314	-75.144452	91.277837
40177		9.552670	-0.653870	2.521370	-0.004039	0.184295	-0.123865	-1.316895	0.066895	0.365479	-10.148713	-75.051642	90.928228
40178		11.264329	-1.513478	2.254081	-0.001895	0.249158	-0.212356	-1.318848	0.069092	0.380127	-9.607102	-74.932436	90.368339
40179		10.384503	-1.517499	2.472948	0.031590	0.385929	-0.413092	-1.322754	0.070801	0.362793	-8.590323	-74.749875	89.336766
40180		11.137709	-0.909510	2.530624	0.060603	0.440165	-0.595232	-1.307129	0.060059	0.366455	-7.194660	-74.547425	87.927454
40181		10.776691	0.397014	2.883453	0.085591	0.457328	-0.680667	-1.311279	0.062988	0.364258	-5.642563	-74.328944	86.370222
40182		15.600030	1.714583	2.803333	-0.031953	0.608542	-0.828673	-1.314697	0.054443	0.351318	-3.885008	-74.021377	84.526401
40183		18.745136	0.550926	2.774677	-0.042562	0.886304	-0.410876	-1.321533	0.049805	0.349854	-2.991064	-73.526966	83.572998
40184		19.502923	0.142263	2.558909	-0.075361	1.323574	-0.146068	-1.312988	0.051514	0.338379	-2.631240	-72.774108	83.153917
40185		18.606585	0.829154	2.517170	-0.133929	1.700350	-0.022694	-1.316650	0.048828	0.330811	-2.524277	-71.800215	82.963980
40186		18.886664	0.856829	2.265387	-0.131819	2.029725	0.221504	-1.315430	0.056396	0.323242	-2.809523	-70.633101	83.187494
40187		20.349603	0.328942	1.894821	-0.143242	2.426808	0.364914	-1.320557	0.058350	0.304932	-3.256162	-69.232773	83.578419
40188		21.870772	-2.451062	1.055848	-0.076402	2.938482	0.323716	-1.324707	0.049316	0.297119	-3.512775	-67.541619	83.809372
40189		23.684873	-4.517652	0.004708	0.082969	3.550316	0.096177	-1.324707	0.057373	0.265869	-3.308495	-65.507789	83.641075
40190		26.634024	-4.580388	-1.079066	0.326774	4.309115	-0.104762	-1.328369	0.054688	0.248047	-2.723767	-63.045895	83.202099
40191		29.289462	-6.598831	-2.854511	0.609754	5.238192	-0.324068	-1.325439	0.057373	0.218994	-1.809587	-60.055617	82.561841
40192		30.067415	-8.576913	-4.959706	1.017218	6.277957	-0.602337	-1.320801	0.051270	0.179199	-0.545945	-56.466865	81.764169
40193		30.484387	-9.115041	-6.360602	1.394133	7.609137	-1.178605	-1.327393	0.046875	0.122559	1.161773	-52.106915	80.646488
40194		28.975829	-6.217635	-4.240972	1.633635	8.764518	-1.680633	-1.305908	0.033203	0.085938	3.016714	-47.053688	79.443959
40195		28.184879	-1.081225	2.551660	1.548352	9.324330	-1.745768	-1.301514	0.015869	0.029053	4.537248	-41.663016	78.538761
40196		23.481346	1.796313	6.240192	1.260011	9.204239	-1.139929	-1.288086	-0.004395	-0.015869	5.418706	-36.353002	78.289436
40197		18.283278	2.316957	3.117683	0.919021	8.695229	-0.305848	-1.272461	-0.004150	-0.062256	5.738029	-31.385678	78.659696
40198		20.013405	0.303927	-1.835481	0.855642	8.244258	0.380645	-1.261719	-0.013184	-0.107666	5.845419	-26.708492	79.452062
40199		15.764206	-2.296131	-9.988839	0.888214	7.910780	0.433356	-1.226563	-0.013184	-0.143799	6.029105	-22.235789	80.234736
40200		19.757754	-3.237537	-13.034264	1.095730	7.594161	0.891675	-1.216064	-0.015869	-0.183350	6.302324	-17.964964	81.272207
40201		19.280470	-7.138331	-13.354552	1.584900	7.588880	1.646298	-1.192627	-0.016113	-0.226074	6.803174	-13.764788	82.757578
40202		9.318703	-7.471201	-14.109532	2.339469	7.832173	2.080347	-1.166016	-0.014160	-0.248047	7.786071	-9.465045	84.545056
40203		-34.223517	-7.168150	-5.246423	2.934367	6.128492	2.453135	-1.135010	-0.021240	-0.267822	9.203448	-6.213312	86.466509
40204		-16.424405	-5.248184	-11.544644	3.417254	1.814952	3.406992	-1.137207	-0.006348	-0.265381	10.947217	-5.531231	88.580588
40205		-8.323662	0.608184	-6.957048	3.585180	-0.593336	3.412939	-1.153809	-0.017822	-0.250244	12.808043	-6.276721	90.429714
40206		-0.447670	4.210609	-6.561853	3.300850	-2.134373	3.009080	-1.164063	-0.015137	-0.226807	14.529451	-7.872680	91.825700
40207		3.037947	5.514678	-5.572164	2.796015	-2.851837	2.582307	-1.176270	-0.014893	-0.209229	15.973313	-9.847745	92.831650
40208		4.393488	6.363101	-4.446049	2.173301	-3.122606	2.301373	-1.193115	-0.011719	-0.192871	17.075380	-11.938230	93.599886
40209		4.392202	6.567575	-3.493473	1.532393	-3.235244	2.149336	-1.205322	-0.007080	-0.163086	17.808226	-14.085463	94.232181
40210		4.337988	6.636763	-2.860187	0.898022	-3.268646	1.898981	-1.212646	-0.004150	-0.142578	18.201545	-16.203072	94.703584
40211		3.984464	6.510945	-2.461671	0.293164	-3.291470	1.473900	-1.219238	0.010254	-0.120850	18.302612	-18.268628	94.921889
40212		3.878269	5.850776	-2.504599	-0.278858	-3.322181	0.994058	-1.229248	0.017578	-0.101807	18.164100	-20.254935	94.863168
40213		4.178405	5.264531	-2.729236	-0.783725	-3.376917	0.631084	-1.243652	0.007813	-0.087402	17.813154	-22.217329	94.588219
40214		4.552192	4.820264	-2.935678	-1.249518	-3.473936	0.487844	-1.248047	0.014404	-0.065186	17.242173	-24.199727	94.225128
40215		4.419894	4.126411	-3.185963	-1.664869	-3.643451	0.520418	-1.254883	0.011963	-0.027344	16.439331	-26.295094	93.869064
40216		4.094821	3.522584	-3.536908	-2.009031	-3.904585	0.619047	-1.265869	0.021973	-0.027832	15.432151	-28.543873	93.560427
40217		4.144661	2.851887	-3.896743	-2.287866	-4.235837	0.697598	-1.267578	0.033447	0.006104	14.257208	-31.003701	93.286062
40218		4.698992	2.189113	-4.177713	-2.484948	-4.598588	0.695911	-1.274414	0.035156	0.026123	12.983049	-33.658506	93.009472
40219		5.646046	1.403467	-4.294245	-2.601966	-4.955573	0.645348	-1.277588	0.038086	0.051514	11.666140	-36.523399	92.706833
40220		7.013450	0.604836	-4.346324	-2.631740	-5.266438	0.546704	-1.284180	0.048828	0.092285	10.371102	-39.545320	92.364033
40221		8.484730	-0.193408	-4.298943	-2.582168	-5.509057	0.438811	-1.282715	0.041504	0.120117	9.144970	-42.711667	91.978842
40222		9.611981	-1.023232	-4.081872	-2.453670	-5.696396	0.365674	-1.290283	0.050049	0.157715	8.014856	-45.970469	91.586668
40223		10.644400	-1.456924	-3.880590	-2.251238	-5.864591	0.344030	-1.287109	0.050537	0.189209	6.995256	-49.341707	91.220705
40224		11.572883	-1.932219	-3.627582	-2.010147	-6.040557	0.386255	-1.287842	0.039795	0.218018	6.061041	-52.805732	90.943230
40225		12.579025	-2.168266	-3.323606	-1.726413	-6.213146	0.459674	-1.284912	0.041016	0.269775	5.197927	-56.389673	90.787708
40226		13.474875	-1.962521	-3.025587	-1.424174	-6.393526	0.563917	-1.272705	0.043213	0.312500	4.357530	-60.067439	90.818312
40227		14.910217	-1.810965	-2.640297	-1.133622	-6.543720	0.583633	-1.261719	0.039551	0.360107	3.571956	-63.847585	90.970864
40228		16.675285	-0.941481	-2.152176	-0.864278	-6.645393	0.541312	-1.247559	0.040771	0.405762	2.867271	-67.666934	91.202375
40229		18.657794	0.071951	-1.633802	-0.670720	-6.680041	0.397007	-1.224609	0.041992	0.448242	2.343440	-71.518677	91.349206
40230		20.583911	0.821020	-0.962837	-0.545783	-6.670416	0.197506	-1.194092	0.045898	0.497803	2.159627	-75.342465	91.216664
40231		22.131246	1.613950	-0.055579	-0.494115	-6.700501	0.033174	-1.159180	0.033447	0.541992	2.487289	-79.198289	90.588679
40232		23.400821	2.619471	1.657406	-0.551676	-6.809955	-0.118795	-1.115967	0.022461	0.578857	4.040590	-83.090837	88.699637
40233		25.145547	2.470207	4.101244	-0.687065	-6.975151	-0.240374	-1.069092	0.017334	0.617188	11.584161	-87.060476	80.735643
40234		27.140129	1.267520	7.986779	-0.824478	-7.134395	-0.385506	-1.017822	0.006592	0.659180	146.211247	-88.552992	-54.388332
40235		28.748400	-1.788588	13.021821	-0.882342	-7.123036	-0.529791	-0.963379	-0.003174	0.677246	167.860823	-84.584637	-76.571292
40236		29.449934	-5.099649	18.159049	-0.745657	-6.846418	-0.581518	-0.899902	-0.018799	0.708740	170.573706	-80.666796	-79.733980
40237		29.121192	-6.763357	22.405301	-0.485483	-6.202521	-0.328243	-0.843750	-0.022217	0.712646	172.088811	-77.107824	-81.561934
40238		25.952569	-4.783815	26.762617	-0.359119	-5.220490	0.333440	-0.800293	-0.039307	0.709717	174.034247	-74.160608	-83.779898
40239		22.872666	-2.149161	30.363944	-0.491081	-3.938530	1.293455	-0.762451	-0.041260	0.708252	176.778420	-71.956562	-86.942509
40240		18.528462	0.671677	32.891827	-0.669781	-2.581795	2.225823	-0.748047	-0.052002	0.705322	-179.739936	-70.509391	-91.022478
40241		14.170589	2.140854	34.952560	-0.847207	-1.360895	2.539523	-0.735840	-0.055908	0.696045	-176.282396	-69.670642	-95.215468
40242		9.568957	2.746934	36.378826	-0.892168	-0.402949	2.039753	-0.722168	-0.069092	0.685547	-173.732287	-69.338413	-98.481490
40243		6.871849	2.902249	36.075396	-0.867347	0.199152	0.971155	-0.719482	-0.070313	0.683594	-172.726295	-69.382907	-100.086069
40244		37.769450	7.893617	31.080249	-0.978293	0.531322	-0.115302	-0.726318	-0.084473	0.679443	-173.363920	-69.692721	-100.001740
40245		0.101053	5.253871	18.575465	-2.055896	5.572406	-1.828572	-0.739014	-0.090820	0.668945	-176.824827	-72.966172	-97.590640
40246		11.772821	2.059684	-22.645397	-1.394074	4.553917	-1.423083	-0.765625	-0.099121	0.658447	179.712348	-75.595376	-94.822001
40247		17.471536	7.170300	-19.859819	-1.304502	7.455349	-0.546956	-0.806641	-0.110352	0.642822	176.945687	-79.858729	-92.754751
40248		8.564392	5.599407	-0.525644	-1.421814	8.666799	0.632850	-0.847900	-0.118164	0.622070	176.809246	-84.836366	-93.436994
40249		4.907738	2.268308	7.625947	-1.194491	7.360890	1.550198	-0.893066	-0.120605	0.601074	-149.129453	-88.906340	-128.208616
40250		7.285565	-2.112783	4.076874	-1.090625	5.936551	1.641222	-0.923828	-0.125732	0.582764	-31.626424	-87.121854	113.640953
40251		8.129707	-5.021150	4.624469	-0.417479	5.041639	1.204021	-0.945068	-0.120850	0.561279	-22.544990	-84.225593	104.299722
40252		5.916929	-2.644738	6.766727	0.377618	3.904622	0.842749	-0.958496	-0.110352	0.550537	-19.428364	-81.963836	101.380788
40253		8.353475	-1.255479	3.975836	0.493337	3.032409	0.729267	-0.981201	-0.110352	0.538330	-18.088675	-80.182217	100.314204
40254		7.613688	-1.007750	4.310616	0.341299	2.449884	0.509614	-0.978027	-0.102539	0.537598	-17.102809	-78.756563	99.512359
40255		6.874666	-0.380811	4.923576	0.154952	1.943992	0.169224	-0.990479	-0.097900	0.524658	-15.928141	-77.658518	98.406554
40256		6.909079	-0.638391	4.319303	0.086755	1.313025	-0.066278	-1.001709	-0.095703	0.514893	-14.826193	-76.943813	97.329904
40257		7.441046	-0.841886	4.071187	0.074829	0.808730	-0.078095	-1.000977	-0.100830	0.518799	-14.096096	-76.503157	96.627425
40258		7.690235	-0.550569	3.924873	0.080371	0.444067	-0.018957	-1.006348	-0.111328	0.517090	-13.749524	-76.259431	96.320169
40259		8.500552	-0.492135	3.180542	0.071423	0.184715	-0.021261	-0.999512	-0.099854	0.523193	-13.545823	-76.155933	96.156257
40260		9.235565	-0.384346	2.565197	0.042656	0.103067	-0.022546	-1.003418	-0.100830	0.521973	-13.410484	-76.102130	96.043989
40261		9.295687	-0.573273	2.432607	0.040984	0.068089	-0.002410	-1.006104	-0.103027	0.514160	-13.332313	-76.060827	95.991377
40262		9.295528	-0.537280	2.431386	0.039706	0.055193	-0.024749	-1.011963	-0.099854	0.520508	-13.220500	-76.033915	95.901569
40263		9.361186	-0.438948	2.480641	0.039469	0.046948	-0.020489	-1.004883	-0.104736	0.514648	-13.114548	-76.006669	95.819416
40264		9.339178	-0.433464	2.495434	0.024986	0.019107	-0.009930	-1.008789	-0.098633	0.515137	-13.063772	-75.997903	95.783803
40265		9.407005	-0.450814	2.420876	0.015005	0.005124	-0.008901	-1.002197	-0.112061	0.518066	-13.019724	-75.992410	95.751001
40266		9.382322	-0.441687	2.372725	0.014555	-0.011366	-0.000335	-1.000488	-0.089600	0.514893	-13.012229	-75.999406	95.753834
40267		9.448660	-0.490242	2.403581	0.002244	-0.014251	0.003676	-1.004150	-0.099609	0.507568	-13.013587	-76.003067	95.760292
40268		9.412101	-0.459171	2.376814	0.006104	-0.019438	0.003531	-1.003906	-0.108643	0.521973	-13.023781	-76.014070	95.776365
40269		9.441679	-0.476631	2.381698	0.001922	-0.021897	0.002138	-1.005615	-0.098389	0.517090	-13.025780	-76.022166	95.783291
40270		9.460408	-0.437406	2.401909	0.004525	-0.022811	0.003898	-1.000488	-0.095459	0.516846	-13.039487	-76.035003	95.802051
40271		9.444012	-0.443397	2.370082	0.002946	-0.026185	0.004266	-1.007324	-0.104492	0.518311	-13.047851	-76.045186	95.816137
40272		9.456694	-0.466873	2.345053	0.004292	-0.022826	0.007933	-1.002930	-0.103760	0.512451	-13.070820	-76.057507	95.844301
40273		9.448089	-0.487206	2.331718	0.005174	-0.023977	0.007449	-0.997314	-0.103516	0.515869	-13.083879	-76.066020	95.864537
40274		9.471120	-0.457485	2.310542	0.012984	-0.026719	0.012726	-1.007568	-0.095703	0.518555	-13.114773	-76.079886	95.905993
40275		9.450364	-0.454956	2.320038	0.007260	-0.018632	0.008019	-1.004395	-0.102051	0.513184	-13.125109	-76.085320	95.924648
40276		9.436111	-0.500143	2.355632	0.009493	-0.016425	0.011204	-1.000244	-0.097168	0.522705	-13.149246	-76.093634	95.957080
40277		9.457587	-0.504029	2.342906	0.011995	-0.008513	0.006904	-0.996094	-0.101074	0.514404	-13.148993	-76.093545	95.967616
40278		9.461864	-0.513196	2.301533	0.015011	0.001368	0.003549	-1.001465	-0.107422	0.513184	-13.143368	-76.092927	95.972645
40279		9.513310	-0.499879	2.290088	0.022906	0.010004	0.001931	-1.006348	-0.100098	0.521729	-13.115888	-76.083136	95.961564
40280		9.519081	-0.437237	2.336750	0.027043	0.023231	0.006277	-1.003174	-0.102295	0.512207	-13.098047	-76.069964	95.961109
40281		9.480189	-0.439801	2.321514	0.025417	0.030629	0.009604	-1.000977	-0.103027	0.516846	-13.075593	-76.047654	95.956681
40282		9.461772	-0.442180	2.395655	0.017799	0.032183	0.015955	-1.004395	-0.100586	0.515625	-13.080134	-76.028231	95.973833
40283		9.457346	-0.438192	2.339307	0.019745	0.032433	0.014151	-1.003662	-0.102295	0.509766	-13.070132	-76.004308	95.978887
40284		9.576998	-0.517633	2.329170	0.022622	0.041709	0.020634	-1.009033	-0.098877	0.512939	-13.077377	-75.978963	96.001676
40285		9.532728	-0.550134	2.263779	0.028930	0.055198	0.019121	-1.011475	-0.107910	0.510254	-13.061346	-75.941680	96.005938
40286		9.560268	-0.568298	2.276871	0.039645	0.071157	0.014943	-1.004639	-0.097168	0.512939	-13.030918	-75.900636	95.999949
40287		9.561888	-0.573198	2.344031	0.042742	0.084179	0.004886	-1.006348	-0.103027	0.508057	-12.960731	-75.849011	95.956515
40288		9.571467	-0.485336	2.349558	0.046939	0.100555	0.002509	-1.003906	-0.102783	0.511475	-12.884122	-75.793139	95.907203
40289		9.512841	-0.488153	2.412950	0.051502	0.113808	-0.001304	-1.006836	-0.102783	0.513428	-12.781353	-75.725715	95.835300
40290		9.503635	-0.439528	2.398382	0.039473	0.118596	0.004161	-1.008301	-0.104492	0.510254	-12.704835	-75.659515	95.781640
40291		9.485816	-0.483316	2.447081	0.042033	0.117689	0.005871	-1.008789	-0.102295	0.510742	-12.622642	-75.588958	95.725331
40292		9.565429	-0.563411	2.427847	0.032688	0.122740	-0.002585	-1.013428	-0.104980	0.518555	-12.534613	-75.521245	95.655736
40293		9.435276	-0.397834	2.519535	0.025118	0.125484	-0.011995	-1.015625	-0.106445	0.517334	-12.421201	-75.448483	95.557123
40294		9.376175	-0.438184	2.490463	0.013222	0.116948	-0.012644	-1.011963	-0.102783	0.508789	-12.327016	-75.385184	95.469600
40295		9.362233	-0.634011	2.485918	0.003862	0.108082	-0.017331	-1.013184	-0.093262	0.514160	-12.224261	-75.322706	95.369357
40296		9.524707	-0.681561	2.454032	-0.009223	0.107901	-0.064925	-1.001953	-0.099365	0.509766	-12.037231	-75.270677	95.172502
40297		10.087663	-0.883596	2.333127	-0.019280	0.151696	-0.132905	-1.010254	-0.104980	0.513428	-11.685025	-75.197152	94.800498
40298		10.196105	-1.324629	2.381399	-0.009402	0.239960	-0.207957	-1.013672	-0.107666	0.508789	-11.143401	-75.086551	94.236536
40299		10.482929	-1.036014	2.359311	0.011163	0.336992	-0.333619	-1.017822	-0.101318	0.509277	-10.289796	-74.928237	93.363051
40300		10.751037	-0.883672	2.624636	0.020789	0.364985	-0.437192	-1.010010	-0.101074	0.503174	-9.231177	-74.765172	92.280616
40301		12.082054	0.105009	2.594844	0.028506	0.445364	-0.560633	-1.015381	-0.104492	0.496582	-7.907573	-74.556520	90.928547
40302		14.095402	0.939816	2.876333	0.009224	0.609710	-0.698254	-1.019043	-0.114502	0.514648	-6.320291	-74.259928	89.288102
40303		20.120841	-1.275114	2.351758	-0.039381	0.891348	-0.434368	-1.033936	-0.110107	0.494385	-5.288079	-73.772922	88.194363
40304		19.995624	0.751351	2.716376	-0.106301	1.394777	-0.267527	-1.020752	-0.114990	0.490234	-4.602328	-72.990460	87.417166
40305		17.486171	0.553491	2.554861	-0.122031	1.752778	-0.063388	-1.032471	-0.114258	0.475830	-4.301561	-71.988643	87.031771
40306		17.075760	0.066574	2.317381	-0.154228	2.018632	0.059470	-1.041748	-0.111328	0.463379	-4.231194	-70.833228	86.866317
40307		17.188291	0.397767	2.080805	-0.125711	2.284343	0.249809	-1.055176	-0.107178	0.447998	-4.417249	-69.514587	86.990779
40308		17.817166	-0.298499	1.741678	-0.082497	2.604317	0.313202	-1.072266	-0.104492	0.431641	-4.618759	-68.013433	87.158285
40309		18.747203	-0.248999	1.228915	-0.001856	2.988651	0.379300	-1.086914	-0.105225	0.416992	-4.793103	-66.287146	87.349530
40310		20.027136	-1.718109	0.477108	0.075190	3.465533	0.346429	-1.106689	-0.101074	0.397949	-4.815102	-64.292407	87.423262
40311		21.803599	-4.786163	-0.432595	0.243881	4.060925	0.200527	-1.113770	-0.097168	0.371826	-4.521484	-61.963511	87.253875
40312		24.072326	-7.806535	-1.751733	0.554195	4.808041	-0.107710	-1.132324	-0.100830	0.334717	-3.739453	-59.220789	86.723079
40313		27.398098	-7.883463	-3.076265	0.952354	5.717232	-0.445362	-1.147705	-0.103516	0.309326	-2.507547	-55.965314	85.912924
40314		29.463592	-7.432038	-4.166549	1.269514	6.812445	-0.875925	-1.161377	-0.104004	0.258545	-0.924638	-52.079207	84.859054
40315		31.303367	-7.736910	-4.410049	1.503972	8.093445	-1.397655	-1.163330	-0.103027	0.212158	0.887376	-47.446980	83.616567
40316		30.235970	-3.594647	0.329682	1.578822	9.056752	-1.756457	-1.176270	-0.120850	0.156250	2.637392	-42.229598	82.422453
40317		26.885171	-0.251913	7.823242	1.378471	9.303140	-1.325551	-1.167969	-0.134766	0.097900	3.807058	-36.873938	81.826656
40318		22.000008	1.411746	5.790545	1.117861	8.947482	-0.461959	-1.163818	-0.144531	0.036865	4.380756	-31.742021	81.949172
40319		18.747120	0.219280	1.997916	0.919421	8.395345	0.587585	-1.173828	-0.135254	-0.017334	4.509268	-26.984022	82.759851
40320		20.547286	-0.645084	-5.078199	1.020317	8.028714	0.858731	-1.158203	-0.142578	-0.060547	4.700577	-22.438563	83.705188
40321		19.180121	-2.203439	-9.180958	1.178730	7.643080	0.785179	-1.144531	-0.150391	-0.113281	5.072396	-18.128180	84.577977
40322		20.637046	-5.283962	-13.890976	1.488873	7.472847	1.040135	-1.130615	-0.148682	-0.163818	5.642615	-13.921210	85.610225
40323		15.955217	-10.701556	-12.547009	2.246078	7.285357	1.332173	-1.116455	-0.157715	-0.204834	6.674537	-9.870856	86.839922
40324		-23.358758	-6.778728	-8.247178	2.913805	6.908944	1.415067	-1.092041	-0.157227	-0.238281	8.162755	-6.050468	88.166756
40325		-22.139622	-4.702113	-10.319811	3.212030	2.618984	2.497616	-1.087402	-0.168457	-0.239258	9.843262	-4.809181	89.819026
40326		-7.949151	-0.065989	-7.610620	3.320037	0.027645	2.879980	-1.102051	-0.176514	-0.242432	11.606785	-5.101018	91.448481
40327		-0.402749	3.953222	-5.716696	3.022811	-1.644520	2.499172	-1.118164	-0.172852	-0.223389	13.214859	-6.342612	92.647680
40328		2.311799	6.196592	-5.261513	2.470205	-2.438629	1.948489	-1.133789	-0.180664	-0.213135	14.538313	-7.967067	93.401419
40329		2.771065	7.083463	-4.475493	1.800579	-2.866270	1.531145	-1.146240	-0.187500	-0.199951	15.500850	-9.793901	93.825953
40330		3.210428	7.219408	-3.843706	1.059794	-3.114807	1.296096	-1.169434	-0.187744	-0.189453	16.066656	-11.713498	94.058379
40331		3.704031	6.343991	-3.434798	0.351188	-3.267589	1.052768	-1.186279	-0.184082	-0.179932	16.252866	-13.693202	94.116053
40332		3.408716	5.346188	-3.208284	-0.277571	-3.381136	0.701731	-1.193604	-0.182617	-0.169189	16.136329	-15.665956	93.955824
40333		2.885149	4.073137	-3.446082	-0.811932	-3.537595	0.299353	-1.204834	-0.183838	-0.164307	15.788127	-17.675908	93.544034
40334		3.056200	3.099350	-3.639091	-1.248170	-3.752630	-0.002844	-1.228027	-0.176758	-0.152344	15.270605	-19.747335	92.933781
40335		3.708401	2.431335	-3.776252	-1.617209	-3.998204	-0.100306	-1.229248	-0.178467	-0.140869	14.590656	-21.960428	92.240552
40336		4.344296	1.635365	-3.919317	-1.922703	-4.252098	-0.014794	-1.249023	-0.173584	-0.124023	13.749547	-24.320760	91.582208
40337		4.730051	0.952892	-4.104770	-2.147306	-4.508009	0.142825	-1.264648	-0.168457	-0.119141	12.766452	-26.868614	91.011213
40338		5.259855	0.209006	-4.152947	-2.305147	-4.780479	0.301025	-1.282227	-0.159912	-0.104248	11.668466	-29.582346	90.543818
40339		5.489793	-0.698205	-4.146338	-2.358744	-5.073946	0.385367	-1.291504	-0.154785	-0.091553	10.525649	-32.493484	90.140764
40340		5.689227	-1.816205	-4.258314	-2.298003	-5.437198	0.447042	-1.314697	-0.150146	-0.068604	9.404980	-35.606363	89.793679
40341		6.975163	-2.999200	-4.290891	-2.120996	-5.832715	0.523105	-1.341064	-0.139893	-0.039307	8.359795	-38.971292	89.514102
40342		8.511221	-3.784030	-3.983578	-1.846002	-6.149333	0.623625	-1.353271	-0.129150	-0.005859	7.416010	-42.510611	89.342071
40343		10.250935	-3.791258	-3.565381	-1.537859	-6.403979	0.790048	-1.374512	-0.115479	0.027588	6.533522	-46.225842	89.344096
