// General information: 
//  MT Manager version: 2022.2.0 
//  XDA version: 2022.2.0 build 7381 rev 124627 built on 2023-07-19
// Device information: 
//  DeviceId: 00B4C223
//  ProductCode: MTW2-3A7G6
//  Firmware Version: 4.6.0
//  Hardware Version: 2.0.0
// Device settings: 
//  Filter Profile: human(46.1)
//  Option Flags: Orientation Smoother Disabled, Position/Velocity Smoother Disabled, Continuous Zero Rotation Update Disabled, AHS Disabled, ICC Disabled
// Coordinate system: ENU
PacketCounter	SampleTimeFine	Acc_X	Acc_Y	Acc_Z	Gyr_X	Gyr_Y	Gyr_Z	Mag_X	Mag_Y	Mag_Z	Roll	Pitch	Yaw
36211		9.479513	-0.036174	2.283176	-0.003166	0.005063	0.002231	-1.270996	0.155273	0.639648	6.010033	-77.610757	149.380037
36212		9.479440	-0.036458	2.283473	-0.001999	0.001231	0.002515	-1.269043	0.147217	0.635498	6.012684	-77.610163	149.378342
36213		9.497041	-0.015393	2.263215	-0.002888	0.004123	0.004093	-1.273682	0.149170	0.645752	5.990879	-77.604174	149.398848
36214		9.498616	-0.049917	2.258211	-0.003110	-0.000430	0.003452	-1.270752	0.152344	0.646240	5.990917	-77.604583	149.399177
36215		9.434702	0.003299	2.230241	-0.002860	0.001376	0.004703	-1.274170	0.142822	0.641602	5.968325	-77.600220	149.420531
36216		9.512115	-0.044181	2.218984	-0.004277	0.003402	0.003168	-1.276611	0.155762	0.651611	5.967391	-77.598427	149.421170
36217		9.502625	-0.036521	2.277545	-0.000304	-0.001736	0.005911	-1.285400	0.149902	0.643555	5.943993	-77.595903	149.444799
36218		9.496912	-0.017752	2.263740	-0.005388	0.001742	0.004104	-1.275391	0.144043	0.647705	5.940447	-77.595113	149.447460
36219		9.459569	-0.030480	2.218878	-0.000889	0.002892	0.001578	-1.278076	0.152100	0.644531	5.926690	-77.589692	149.460834
36220		9.492700	-0.033134	2.245217	-0.003138	0.002317	0.002841	-1.273682	0.149902	0.645020	5.927552	-77.588499	149.460301
36221		9.492641	-0.033389	2.245463	-0.000889	0.002892	0.001578	-1.270752	0.144043	0.642090	5.913762	-77.583101	149.473710
36222		9.459416	-0.031297	2.219520	-0.001722	0.000290	0.004376	-1.271484	0.146240	0.643555	5.912006	-77.583153	149.476689
36223		9.459382	-0.031692	2.219659	-0.005666	0.002683	0.002242	-1.281982	0.141602	0.635498	5.893859	-77.577925	149.491578
36224		9.445794	-0.038681	2.259206	-0.001972	-0.001516	0.003124	-1.280029	0.152588	0.646729	5.895682	-77.578932	149.490746
36225		9.482739	-0.030249	2.213051	-0.003139	0.002317	0.002840	-1.281250	0.147461	0.639893	5.877478	-77.573935	149.507426
36226		9.474827	-0.056412	2.266522	-0.003667	0.001452	-0.000273	-1.274414	0.145020	0.645508	5.886323	-77.573052	149.498408
36227		9.469097	-0.037353	2.252819	-0.004250	0.000656	0.003776	-1.273682	0.154785	0.644043	5.865507	-77.569085	149.517002
36228		9.488356	-0.050383	2.227216	-0.002000	0.001231	0.002514	-1.277344	0.147461	0.649170	5.868159	-77.568492	149.515305
36229		9.492436	-0.035857	2.246291	-0.003389	0.000511	0.001589	-1.271729	0.145996	0.640381	5.853482	-77.564505	149.528231
36230		9.473168	-0.023366	2.271928	-0.001111	-0.001661	0.000936	-1.279297	0.146484	0.640381	5.861487	-77.565468	149.521573
36231		9.463384	-0.018972	2.239045	-0.004778	-0.000209	0.000663	-1.279785	0.142822	0.639893	5.848635	-77.561821	149.531592
36232		9.463372	-0.019198	2.239093	-0.002000	0.001231	0.002514	-1.271729	0.152832	0.648682	5.851287	-77.561228	149.529895
36233		9.473136	-0.024048	2.272053	-0.003139	0.002317	0.002840	-1.277344	0.150635	0.648926	5.833061	-77.556292	149.546519
36234		9.439891	-0.021881	2.246203	-0.000889	0.002892	0.001578	-1.270752	0.145020	0.645264	5.838328	-77.554698	149.542796
36235		9.445585	-0.041426	2.260030	-0.003362	-0.002236	0.002198	-1.283936	0.141846	0.639893	5.822840	-77.552337	149.556465
36236		9.496459	-0.022811	2.265593	-0.002861	0.001376	0.004701	-1.279785	0.139160	0.639160	5.819311	-77.551788	149.560592
36237		9.449704	-0.027442	2.278944	-0.003362	-0.002235	0.002198	-1.277832	0.143799	0.648682	5.803847	-77.549391	149.574152
36238		9.478805	-0.044901	2.285960	-0.003389	0.000511	0.001588	-1.270752	0.150635	0.648682	5.808281	-77.549154	149.569814
36239		9.478801	-0.045101	2.285972	-0.004778	-0.000208	0.000663	-1.281250	0.153809	0.637207	5.795371	-77.545567	149.580067
36240		9.457628	-0.002027	2.225469	-0.002501	-0.002380	0.000010	-1.281250	0.145264	0.642822	5.805143	-77.546888	149.570784
36241		9.492465	-0.038723	2.246122	-0.000834	-0.002602	0.002797	-1.268066	0.147461	0.646484	5.789583	-77.544762	149.586154
36242		9.469132	-0.041123	2.252606	-0.005890	-0.001869	0.001598	-1.277100	0.138428	0.640869	5.793179	-77.545883	149.581207
36243		9.486834	-0.019940	2.232034	-0.000861	0.000145	0.002187	-1.276611	0.141602	0.643555	5.778518	-77.542194	149.595316
36244		9.463434	-0.022197	2.238807	-0.003667	0.001453	-0.000273	-1.275146	0.144287	0.638672	5.787346	-77.541315	149.586316
36245		9.470725	-0.075813	2.247384	-0.001973	-0.001516	0.003123	-1.272461	0.143311	0.641846	5.770042	-77.538621	149.602632
36246		9.473259	-0.027090	2.271505	-0.003917	-0.000353	-0.001525	-1.275391	0.149170	0.646729	5.782424	-77.538699	149.589844
36247		9.482729	-0.035275	2.213022	-0.003390	0.000512	0.001588	-1.278809	0.151855	0.640137	5.767693	-77.534787	149.602798
36248		9.486856	-0.020647	2.231934	-0.002501	-0.002380	0.000010	-1.270508	0.145508	0.643066	5.777455	-77.536108	149.593526
36249		9.506179	-0.033385	2.206025	0.001417	-0.002027	0.001535	-1.275391	0.153320	0.646240	5.766244	-77.533644	149.605786
36250		9.463582	-0.022990	2.238170	-0.008669	-0.003307	-0.000254	-1.275391	0.141846	0.639404	5.773391	-77.535479	149.595571
36251		9.459498	-0.037983	2.219068	-0.002000	0.001231	0.002513	-1.285889	0.144531	0.642334	5.756871	-77.531227	149.611216
36252		9.491106	-0.006617	2.250327	-0.003363	-0.002235	0.002196	-1.277100	0.153076	0.636963	5.760458	-77.532593	149.607761
36253		9.469364	-0.043110	2.251595	-0.003363	-0.002235	0.002196	-1.272705	0.148682	0.649902	5.744841	-77.530275	149.621912
36254		9.473504	-0.028572	2.270465	-0.002251	-0.000574	0.001261	-1.279053	0.143555	0.643799	5.751043	-77.530641	149.616431
36255		9.465267	-0.058243	2.232531	-0.002278	0.002172	0.000653	-1.271240	0.147461	0.640381	5.738968	-77.525788	149.627230
36256		9.473536	-0.028772	2.270331	-0.005253	-0.006565	-0.001234	-1.281738	0.141602	0.648926	5.751432	-77.529425	149.613573
36257		9.491298	-0.007527	2.249516	-0.003112	-0.000430	0.003448	-1.272461	0.145020	0.645020	5.732336	-77.526207	149.630992
36258		9.492918	-0.041960	2.244148	-0.000834	-0.002602	0.002795	-1.265625	0.141357	0.645996	5.735918	-77.527817	149.629025
36259		9.492930	-0.042130	2.244092	-0.003667	0.001453	-0.000273	-1.274658	0.156494	0.646240	5.725633	-77.523352	149.636831
36260		9.467941	-0.010294	2.256110	-0.003390	0.000512	0.001587	-1.284668	0.138428	0.639160	5.730057	-77.523117	149.632502
36261		9.492896	-0.042498	2.244231	-0.003390	0.000512	0.001587	-1.277100	0.152832	0.639404	5.715285	-77.519255	149.645701
36262		9.463787	-0.025451	2.237278	-0.002278	0.002173	0.000653	-1.279541	0.144531	0.646240	5.722324	-77.518021	149.639347
36263		9.463781	-0.025564	2.237302	-0.001112	-0.001661	0.000935	-1.271729	0.140869	0.641846	5.711115	-77.515388	149.650105
36264		9.491285	-0.008974	2.249562	-0.004251	0.000656	0.003774	-1.279541	0.142578	0.647949	5.709374	-77.515196	149.651584
36265		9.469478	-0.045519	2.251069	-0.000862	0.000145	0.002187	-1.282227	0.144531	0.641602	5.694705	-77.511624	149.665685
36266		9.487115	-0.024185	2.230796	-0.003694	0.004201	-0.000881	-1.278564	0.133789	0.638916	5.704356	-77.509146	149.655823
36267		9.467869	-0.011796	2.256405	-0.000531	-0.006291	0.005263	-1.281494	0.147705	0.648682	5.683590	-77.509407	149.676469
36268		9.469502	-0.046284	2.250950	-0.004529	0.001598	0.001913	-1.281006	0.140137	0.639160	5.686239	-77.508572	149.673290
36269		9.491302	-0.010392	2.249487	-0.001974	-0.001516	0.003121	-1.277344	0.148193	0.635254	5.668894	-77.506015	149.689845
36270		9.483084	-0.040187	2.211418	-0.003390	0.000512	0.001587	-1.277100	0.140625	0.640137	5.673312	-77.505781	149.685522
36271		9.450229	-0.034350	2.276671	-0.005057	0.000735	-0.001199	-1.277344	0.144287	0.643066	5.664750	-77.501709	149.691090
36272		9.491277	-0.010931	2.249590	-0.002001	0.001231	0.002513	-1.272705	0.150146	0.640381	5.667397	-77.501117	149.689396
36273		9.469457	-0.047388	2.251117	-0.000862	0.000144	0.002187	-1.280762	0.151611	0.640137	5.652680	-77.497601	149.703851
36274		9.487112	-0.026138	2.230787	-0.000888	0.002891	0.001579	-1.283691	0.150635	0.650146	5.657944	-77.496010	149.700130
36275		9.465299	-0.062566	2.232278	-0.003364	-0.002235	0.002194	-1.274902	0.141357	0.647705	5.642335	-77.493845	149.714510
36276		9.467860	-0.013978	2.256430	-0.000862	0.000144	0.002186	-1.280762	0.152588	0.636963	5.646750	-77.493855	149.711674
36277		9.469434	-0.048379	2.251192	-0.005642	-0.000062	0.002847	-1.278809	0.147949	0.648438	5.627678	-77.490504	149.727694
36278		9.496938	-0.031802	2.263475	-0.002252	-0.000574	0.001260	-1.278076	0.136963	0.642578	5.633858	-77.490872	149.722234
36279		9.459664	-0.044300	2.218241	-0.003364	-0.002235	0.002194	-1.277588	0.148926	0.635498	5.618372	-77.488734	149.735750
36280		9.469467	-0.049088	2.251039	-0.004807	0.002541	0.000053	-1.279053	0.144531	0.643555	5.625401	-77.487258	149.727921
36281		9.487129	-0.027807	2.230696	-0.000862	0.000144	0.002186	-1.270020	0.148682	0.643555	5.610686	-77.483763	149.742347
36282		9.487056	-0.027976	2.231004	-0.005972	0.006375	-0.000229	-1.278076	0.139160	0.645264	5.616799	-77.480086	149.734772
36283		9.487007	-0.028287	2.231206	-0.004226	-0.002090	0.004380	-1.281738	0.147949	0.638428	5.595171	-77.478033	149.754005
36284		9.463621	-0.030820	2.237913	-0.003140	0.002317	0.002839	-1.280518	0.143799	0.646484	5.596054	-77.476841	149.753449
36285		9.465149	-0.065333	2.232836	-0.002863	0.001375	0.004698	-1.279053	0.145264	0.645020	5.573466	-77.472799	149.774977
36286		9.492615	-0.048763	2.245290	-0.003668	0.001455	-0.000274	-1.267578	0.148926	0.639648	5.582253	-77.471926	149.766015
36287		9.463483	-0.031781	2.238482	-0.002890	0.004122	0.004091	-1.278320	0.148193	0.638428	5.560545	-77.466340	149.786262
36288		9.514353	-0.013162	2.244165	-0.004755	-0.002953	0.001266	-1.273438	0.144043	0.636719	5.565856	-77.468067	149.780222
36289		9.463469	-0.032318	2.238533	-0.000888	0.002891	0.001579	-1.272217	0.141357	0.642090	5.552053	-77.463019	149.793548
36290		9.463441	-0.032600	2.238649	-0.003114	-0.000430	0.003445	-1.280029	0.154785	0.643555	5.552083	-77.463428	149.793882
36291		9.467536	-0.018000	2.257761	-0.003945	0.002398	-0.002134	-1.278076	0.141846	0.634277	5.546173	-77.458492	149.797656
36292		9.473199	-0.037375	2.271610	-0.002252	-0.000574	0.001259	-1.274414	0.149658	0.645264	5.552337	-77.458861	149.792211
36293		9.473197	-0.037688	2.271613	-0.004254	0.000657	0.003771	-1.276855	0.147217	0.643799	5.531586	-77.455236	149.810696
36294		9.494981	-0.001890	2.270319	-0.003141	0.002318	0.002838	-1.271240	0.144287	0.641602	5.532474	-77.454044	149.810134
36295		9.469003	-0.053135	2.252897	-0.002001	0.001231	0.002512	-1.279541	0.144287	0.648926	5.516146	-77.450060	149.825333
36296		9.444027	-0.021436	2.264967	-0.002002	0.001231	0.002512	-1.275391	0.145508	0.643311	5.518793	-77.449470	149.823639
36297		9.490771	-0.017480	2.251681	-0.005921	0.000882	0.000984	-1.279053	0.149658	0.642578	5.504237	-77.445596	149.835010
36298		9.490766	-0.017792	2.251701	-0.003115	-0.000430	0.003445	-1.277832	0.152832	0.648438	5.504266	-77.446005	149.835343
36299		9.496425	-0.037398	2.265543	-0.002278	0.002174	0.000652	-1.275391	0.152100	0.647217	5.492210	-77.441388	149.847169
36300		9.463194	-0.035000	2.239656	-0.002278	0.002174	0.000652	-1.281250	0.143555	0.640381	5.499226	-77.440159	149.840836
36301		9.463176	-0.035142	2.239731	-0.002252	-0.000574	0.001259	-1.277344	0.140381	0.642578	5.486393	-77.437139	149.852874
36302		9.509966	-0.031073	2.226258	-0.003642	-0.001292	0.000332	-1.283691	0.148682	0.638916	5.494298	-77.437868	149.844829
36303		9.463205	-0.035452	2.239603	-0.003392	0.000513	0.001585	-1.273193	0.148193	0.640381	5.479763	-77.434221	149.857541
36304		9.467272	-0.020945	2.258842	-0.002028	0.003978	0.001905	-1.280273	0.151367	0.648926	5.483271	-77.432031	149.854948
36305		9.486492	-0.033800	2.233319	-0.000863	0.000144	0.002185	-1.269775	0.154297	0.646729	5.468694	-77.428708	149.869741
36306		9.513973	-0.017332	2.245745	-0.005394	0.001744	0.004096	-1.271484	0.147461	0.643311	5.465218	-77.427912	149.872328
36307		9.467115	-0.021851	2.259491	-0.003444	0.006008	0.000371	-1.280518	0.146729	0.641113	5.452433	-77.421211	149.883253
36308		9.462901	-0.036920	2.240862	-0.004004	0.002462	0.005022	-1.272949	0.147461	0.639160	5.447212	-77.420056	149.888443
36309		9.476765	-0.027128	2.292861	-0.003669	0.001456	-0.000275	-1.277100	0.147461	0.647949	5.437090	-77.415830	149.896382
36310		9.462816	-0.037315	2.241217	-0.002279	0.002174	0.000652	-1.275146	0.153320	0.641846	5.444097	-77.414602	149.890057
36311		9.466843	-0.022813	2.260624	-0.001777	0.005783	0.003157	-1.274658	0.148926	0.642822	5.425217	-77.408144	149.908737
36312		9.486039	-0.035834	2.235211	-0.004255	0.000657	0.003769	-1.273926	0.149414	0.645996	5.423498	-77.407950	149.910193
36313		9.480358	-0.016815	2.221495	-0.000863	0.000144	0.002185	-1.273682	0.142090	0.644043	5.409064	-77.404677	149.924390
36314		9.462593	-0.038388	2.242138	-0.003694	0.004204	-0.000882	-1.276367	0.147217	0.647461	5.418681	-77.402208	149.914559
36315		9.490073	-0.021815	2.254585	-0.004230	-0.002090	0.004375	-1.268555	0.150146	0.641357	5.397390	-77.400330	149.933236
36316		9.468255	-0.058369	2.255912	-0.003392	0.000514	0.001583	-1.270264	0.148926	0.641357	5.401777	-77.400100	149.928941
36317		9.466670	-0.024568	2.261327	-0.003142	0.002318	0.002836	-1.272949	0.150635	0.653564	5.383893	-77.395673	149.944770
36318		9.485920	-0.037446	2.235691	-0.002253	-0.000573	0.001258	-1.273926	0.143066	0.638428	5.390024	-77.396046	149.939357
36319		9.490005	-0.023005	2.254859	-0.004281	0.003405	0.003162	-1.270020	0.147217	0.647461	5.370467	-77.391002	149.956525
36320		9.466574	-0.025304	2.261720	-0.002529	0.000370	-0.000602	-1.279541	0.139160	0.641846	5.380952	-77.390737	149.946488
36321		9.456779	-0.020550	2.228980	-0.004196	0.000596	-0.003389	-1.274658	0.147461	0.647461	5.378890	-77.386924	149.945352
36322		9.489943	-0.023090	2.255117	-0.000863	0.000144	0.002185	-1.272949	0.144531	0.647461	5.383277	-77.386938	149.942542
36323		9.458303	-0.055000	2.223797	-0.002866	0.001375	0.004695	-1.277100	0.144531	0.645020	5.361150	-77.383156	149.963301
36324		9.484225	-0.004491	2.241582	-0.004532	0.001601	0.001908	-1.272461	0.147217	0.643311	5.363790	-77.382324	149.960127
36325		9.480084	-0.019465	2.222644	-0.003393	0.000514	0.001583	-1.272949	0.146973	0.638428	5.349495	-77.378852	149.972563
36326		9.489857	-0.024224	2.255469	-0.002530	0.000370	-0.000602	-1.281738	0.144531	0.643066	5.359970	-77.378588	149.962535
36327		9.489859	-0.024309	2.255459	-0.002254	-0.000573	0.001257	-1.281250	0.142334	0.649414	5.347402	-77.375695	149.974055
36328		9.460795	-0.007495	2.248440	-0.003730	0.001518	0.006879	-1.278076	0.143066	0.643799	5.337859	-77.375175	149.983837
36329		9.485678	-0.039932	2.236672	-0.000889	0.002891	0.001579	-1.265381	0.150879	0.652100	5.324536	-77.370340	149.996905
36330		9.466334	-0.027484	2.262700	-0.005948	0.003632	0.000374	-1.274902	0.146240	0.640381	5.329787	-77.368268	149.990224
36331		9.466250	-0.027795	2.263049	-0.000363	0.003752	0.004691	-1.284180	0.138184	0.648438	5.308625	-77.363217	150.011474
36332		9.485460	-0.040780	2.237582	-0.004533	0.001601	0.001907	-1.275879	0.144043	0.643311	5.311263	-77.362385	150.008300
36333		9.460493	-0.008964	2.249703	-0.003669	0.001458	-0.000277	-1.279785	0.138428	0.639893	5.301464	-77.358285	150.015944
36334		9.485385	-0.041033	2.237897	-0.002279	0.002175	0.000651	-1.276611	0.147705	0.642578	5.308454	-77.357060	150.009635
36335		9.479713	-0.022116	2.224199	-0.003706	-0.001230	0.007484	-1.283203	0.147949	0.646484	5.279503	-77.354929	150.036887
36336		9.461960	-0.043950	2.244705	-0.002555	0.003118	-0.001208	-1.276855	0.146973	0.646240	5.290840	-77.353068	150.025960
36337		9.479676	-0.022737	2.224352	-0.000313	-0.001744	0.005902	-1.271973	0.136719	0.637939	5.267948	-77.351180	150.049897
36338		9.464542	0.004334	2.269035	-0.006449	0.000025	-0.002133	-1.278809	0.146484	0.644775	5.280129	-77.351036	150.035819
36339		9.489427	-0.027850	2.257232	-0.000363	0.003752	0.004690	-1.276367	0.148682	0.651367	5.259141	-77.345969	150.056310
36340		9.457744	-0.059732	2.226054	-0.002004	0.001231	0.002509	-1.281982	0.148682	0.641357	5.261783	-77.345381	150.054617
36341		9.489298	-0.028502	2.257767	-0.003168	0.005066	0.002229	-1.283447	0.139648	0.637207	5.245051	-77.339451	150.070625
36342		9.489223	-0.028785	2.258082	-0.004533	0.001602	0.001906	-1.276855	0.150879	0.643799	5.247689	-77.338620	150.067452
36343		9.489180	-0.028983	2.258260	-0.002279	0.002175	0.000650	-1.278809	0.143555	0.644043	5.236208	-77.334239	150.077930
36344		9.455908	-0.026692	2.232610	-0.001528	0.007587	0.004409	-1.273682	0.139648	0.646729	5.232821	-77.330124	150.082697
36345		9.479249	-0.025051	2.226146	-0.003094	-0.003177	0.004045	-1.273682	0.142334	0.640137	5.213633	-77.329029	150.099927
36346		9.461480	-0.046801	2.246671	-0.000914	0.005640	0.000972	-1.279785	0.140625	0.653076	5.219777	-77.325846	150.095284
36347		9.479172	-0.025446	2.226468	-0.003645	-0.001289	0.000328	-1.288086	0.146973	0.642334	5.209286	-77.323492	150.103431
36348		9.493026	-0.015581	2.278429	-0.002029	0.003979	0.001903	-1.277832	0.137939	0.644775	5.212814	-77.321305	150.100816
36349		9.459835	-0.013284	2.252448	-0.004509	-0.001146	0.002511	-1.274170	0.146484	0.641357	5.196210	-77.318946	150.115398
36350		9.474991	-0.040911	2.207681	-0.002004	0.001231	0.002509	-1.273682	0.146729	0.638672	5.198852	-77.318359	150.113705
36351		9.484722	-0.045754	2.240610	-0.006199	0.001830	-0.000882	-1.273926	0.148682	0.646484	5.189221	-77.314202	150.119678
36352		9.479060	-0.026714	2.226930	-0.001454	-0.000657	0.006226	-1.276367	0.135010	0.641357	5.183190	-77.314885	150.127199
36353		9.479055	-0.027280	2.226946	-0.000339	0.001003	0.005295	-1.276123	0.146240	0.641602	5.161545	-77.311526	150.148623
36354		9.469517	-0.019630	2.285568	-0.003670	0.001459	-0.000278	-1.273682	0.146729	0.643311	5.170244	-77.310665	150.139743
36355		9.483101	-0.013173	2.246299	-0.004009	0.002462	0.005017	-1.276611	0.147217	0.641113	5.146835	-77.306473	150.161416
36356		9.507988	-0.045674	2.234441	-0.001729	0.000287	0.004367	-1.270264	0.143555	0.646973	5.145143	-77.306521	150.164328
36357		9.451408	-0.045563	2.215113	-0.003144	0.002319	0.002833	-1.273926	0.145264	0.628662	5.127865	-77.302322	150.179979
36358		9.502257	-0.027028	2.221068	-0.005674	0.002691	0.002229	-1.277344	0.150879	0.649414	5.128779	-77.300888	150.177901
36359		9.459531	-0.016956	2.253699	-0.004009	0.002463	0.005016	-1.272705	0.147949	0.640625	5.105408	-77.296706	150.199733
36360		9.488533	-0.034536	2.260897	-0.002530	0.000372	-0.000604	-1.278809	0.150879	0.640381	5.115822	-77.296451	150.189764
36361		9.455329	-0.031934	2.234993	-0.003694	0.004208	-0.000884	-1.275146	0.143066	0.651367	5.107201	-77.290990	150.196875
36362		9.455317	-0.032159	2.235040	-0.003096	-0.003177	0.004043	-1.271484	0.146240	0.641846	5.106331	-77.292997	150.198141
36363		9.465065	-0.037188	2.267863	-0.002029	0.003979	0.001903	-1.279541	0.146729	0.644287	5.091808	-77.287851	150.211538
36364		9.469137	-0.022721	2.287114	-0.000865	0.000143	0.002183	-1.284912	0.143555	0.638916	5.096170	-77.287869	150.208751
36365		9.459340	-0.018227	2.254490	-0.003419	0.003264	0.000974	-1.277344	0.148926	0.645020	5.083290	-77.283010	150.220521
36366		9.478581	-0.031003	2.228912	-0.004785	-0.000200	0.000651	-1.272949	0.147461	0.641602	5.089358	-77.283146	150.213682
36367		9.460858	-0.052588	2.249162	0.000024	-0.002748	0.000605	-1.281006	0.151367	0.646240	5.080795	-77.281783	150.222735
36368		9.486890	-0.002072	2.266727	-0.001456	-0.000658	0.006224	-1.268066	0.144043	0.651611	5.074778	-77.282463	150.230241
36369		9.464989	-0.038490	2.268158	-0.006475	0.002777	-0.002741	-1.280029	0.147217	0.633789	5.069781	-77.277810	150.231937
36370		9.482714	-0.017074	2.247906	-0.000865	0.000143	0.002183	-1.273438	0.147217	0.645264	5.074140	-77.277828	150.229152
36371		9.482694	-0.017328	2.247989	-0.004535	0.001603	0.001903	-1.275635	0.147705	0.642334	5.058747	-77.274038	150.242303
36372		9.478550	-0.032271	2.229028	-0.003395	0.000516	0.001579	-1.269287	0.145264	0.636719	5.063099	-77.273813	150.238039
36373		9.477045	0.001525	2.234318	-0.001981	-0.001517	0.003112	-1.279541	0.143799	0.639893	5.046899	-77.271913	150.252869
36374		9.464920	-0.039650	2.268429	-0.004535	0.001604	0.001903	-1.275635	0.149414	0.637939	5.049534	-77.271084	150.249696
36375		9.482665	-0.018289	2.248103	-0.003920	-0.000343	-0.001533	-1.266846	0.145752	0.646729	5.043680	-77.268248	150.253510
36376		9.511654	-0.035680	2.255334	-0.002029	0.003980	0.001903	-1.282715	0.140381	0.637939	5.047222	-77.266062	150.250879
36377		9.464864	-0.040047	2.268654	-0.003622	-0.004036	0.000930	-1.280029	0.148926	0.641113	5.036269	-77.265503	150.259299
36378		9.464872	-0.040443	2.268613	-0.002620	0.003178	0.005943	-1.275391	0.144043	0.639893	5.029447	-77.263978	150.266946
36379		9.482624	-0.019307	2.248268	-0.002506	-0.002376	0.000000	-1.284180	0.148926	0.640625	5.021041	-77.262410	150.274385
36380		9.500398	0.002000	2.227832	-0.002005	0.001231	0.002507	-1.278320	0.144043	0.646484	5.023682	-77.261823	150.272692
36381		9.455110	-0.036581	2.235848	-0.003121	-0.000429	0.003436	-1.279297	0.153076	0.641113	5.005845	-77.259313	150.290067
36382		9.511644	-0.037468	2.255345	-0.002005	0.001231	0.002507	-1.280273	0.145020	0.649170	5.008486	-77.258727	150.288373
36383		9.455090	-0.037257	2.235922	-0.003121	-0.000429	0.003436	-1.277588	0.147705	0.642334	4.990664	-77.256256	150.306063
36384		9.460690	-0.056821	2.249765	-0.002554	0.003121	-0.001209	-1.270996	0.152344	0.636963	5.001950	-77.254406	150.295183
36385		9.476931	-0.001523	2.234801	-0.000317	-0.001747	0.005898	-1.273926	0.152832	0.645996	4.979854	-77.252855	150.317814
36386		9.482574	-0.021088	2.248463	-0.004195	0.000603	-0.003391	-1.277832	0.142578	0.643311	4.996260	-77.252334	150.300721
36387		9.482563	-0.020974	2.248509	-0.002530	0.000373	-0.000604	-1.272705	0.135986	0.639160	4.988925	-77.249262	150.307071
36388		9.501846	-0.033628	2.222736	-0.003646	-0.001287	0.000324	-1.278320	0.145508	0.641113	4.996686	-77.250004	150.299166
36389		9.455055	-0.037988	2.236054	-0.002006	0.001231	0.002507	-1.277588	0.145752	0.642822	4.981739	-77.246583	150.311770
36390		9.464821	-0.042877	2.268782	-0.002507	-0.002376	-0.000000	-1.274170	0.145020	0.638672	4.991208	-77.247931	150.302781
36391		9.472864	-0.016903	2.215491	-0.003122	-0.000429	0.003436	-1.276123	0.137451	0.645264	4.973582	-77.245525	150.318722
36392		9.488217	-0.041192	2.262113	-0.002554	0.003122	-0.001209	-1.277832	0.139648	0.644775	4.984861	-77.243675	150.307850
36393		9.488217	-0.041390	2.262109	-0.003098	-0.003178	0.004039	-1.273926	0.142822	0.645020	4.966495	-77.242873	150.323575
36394		9.472853	-0.017521	2.215533	-0.003670	0.001461	-0.000280	-1.281982	0.147949	0.637451	4.975156	-77.242018	150.314731
36395		9.468933	-0.029220	2.287884	-0.002006	0.001231	0.002507	-1.269043	0.145752	0.640625	4.960182	-77.238628	150.329152
36396		9.455017	-0.039367	2.236192	-0.002280	0.002176	0.000649	-1.269287	0.144043	0.644043	4.967139	-77.237411	150.322872
36397		9.472765	-0.018140	2.215903	-0.003122	-0.000429	0.003435	-1.269287	0.149170	0.647217	4.949693	-77.235122	150.337603
36398		9.455005	-0.039789	2.236236	-0.003921	-0.000342	-0.001534	-1.275879	0.156494	0.639893	4.961759	-77.235235	150.325120
36399		9.463244	-0.010556	2.274421	-0.002006	0.001231	0.002507	-1.274658	0.144287	0.643555	4.946776	-77.231954	150.340568
36400		9.501809	-0.035769	2.222861	-0.003032	-0.003233	-0.003113	-1.275146	0.145508	0.643799	4.963957	-77.233639	150.323363
36401		9.478444	-0.037621	2.229395	-0.004195	0.000604	-0.003392	-1.280762	0.138428	0.639648	4.962877	-77.230387	150.321781
36402		9.455071	-0.039730	2.235960	-0.000842	-0.002606	0.002786	-1.285400	0.146973	0.646973	4.966318	-77.232006	150.319951
36403		9.482603	-0.023147	2.248318	-0.003671	0.001462	-0.000280	-1.268311	0.145752	0.636475	4.957483	-77.228337	150.327618
36404		9.488230	-0.042635	2.262032	-0.003647	-0.001287	0.000323	-1.273926	0.147949	0.640381	4.965229	-77.229081	150.319726
36405		9.459226	-0.025454	2.254897	-0.002256	-0.000572	0.001253	-1.276855	0.137695	0.648193	4.953842	-77.226788	150.329257
36406		9.482636	-0.023429	2.248175	-0.001391	-0.000715	-0.000929	-1.278076	0.151123	0.645508	4.965908	-77.227143	150.318260
36407		9.455103	-0.040179	2.235812	-0.006202	0.001835	-0.000885	-1.267578	0.142822	0.653320	4.957177	-77.223341	150.323993
36408		9.496253	-0.016947	2.208842	-0.001457	-0.000660	0.006222	-1.279297	0.145508	0.646973	4.951189	-77.224020	150.331470
36409		9.482586	-0.024021	2.248382	-0.006476	0.002781	-0.002743	-1.280762	0.149414	0.651611	4.946869	-77.219658	150.331948
36410		9.478418	-0.038885	2.229483	-0.000341	0.001000	0.005294	-1.279297	0.153320	0.645508	4.943496	-77.219342	150.337400
36411		9.496178	-0.017735	2.209159	-0.004788	-0.000198	0.000647	-1.279785	0.148682	0.644043	4.932075	-77.216799	150.348817
36412		9.459115	-0.026780	2.255349	-0.002280	0.002177	0.000649	-1.268311	0.153320	0.643555	4.939022	-77.215583	150.342548
36413		9.483981	-0.058941	2.243440	-0.003397	0.000516	0.001577	-1.274414	0.144775	0.643555	4.926006	-77.212730	150.354641
36414		9.482467	-0.025207	2.248872	-0.004263	0.000659	0.003758	-1.274658	0.144775	0.644287	4.924323	-77.212533	150.356054
36415		9.459036	-0.027683	2.255670	-0.003146	0.002319	0.002831	-1.275879	0.150146	0.643799	4.908040	-77.208704	150.370336
36416		9.487994	-0.045154	2.262969	-0.002554	0.003123	-0.001208	-1.270264	0.145020	0.645020	4.919292	-77.206857	150.359489
36417		9.487994	-0.045352	2.262965	-0.003100	-0.003178	0.004037	-1.274414	0.151855	0.648682	4.901190	-77.206255	150.376147
36418		9.463126	-0.013700	2.274895	-0.005928	0.000890	0.000971	-1.280029	0.147461	0.652100	4.905512	-77.205790	150.370425
36419		9.482400	-0.026450	2.249137	-0.003648	-0.001286	0.000322	-1.276855	0.154053	0.638428	4.896016	-77.203921	150.379415
36420		9.459004	-0.028727	2.255790	-0.002006	0.001231	0.002506	-1.272461	0.147217	0.639404	4.898651	-77.203337	150.377727
36421		9.482372	-0.026930	2.249249	-0.002006	0.001231	0.002506	-1.277100	0.146484	0.641602	4.884056	-77.200133	150.391718
36422		9.482364	-0.027156	2.249280	-0.002257	-0.000572	0.001252	-1.271484	0.138184	0.647705	4.890086	-77.200517	150.386400
36423		9.457495	0.004469	2.261232	-0.002849	-0.001376	0.005290	-1.281982	0.145508	0.646973	4.868769	-77.198957	150.405554
36424		9.482382	-0.027721	2.249201	-0.005336	0.001695	-0.003068	-1.274414	0.143066	0.644531	4.883402	-77.197837	150.389606
36425		9.472673	-0.023046	2.216249	-0.000820	-0.005355	0.003387	-1.274170	0.155273	0.645020	4.868855	-77.198443	150.404189
36426		9.478331	-0.042574	2.229784	-0.001414	0.002035	-0.001533	-1.277588	0.144287	0.639648	4.881804	-77.197203	150.392273
36427		9.435646	-0.032104	2.262269	-0.004788	-0.000198	0.000646	-1.280518	0.144043	0.645020	4.870718	-77.194767	150.401474
36428		9.476824	-0.008586	2.235237	-0.003922	-0.000340	-0.001536	-1.271973	0.150391	0.644043	4.882743	-77.194882	150.389031
36429		9.486573	-0.013320	2.268015	-0.002531	0.000374	-0.000606	-1.273682	0.143555	0.647217	4.876055	-77.192071	150.394719
36430		9.482441	-0.027973	2.248946	0.000000	0.000000	-0.000000	-1.282959	0.147949	0.641846	4.886395	-77.192067	150.386309
36431		9.476813	-0.008442	2.235284	-0.004196	0.000607	-0.003393	-1.274902	0.137939	0.644287	4.885739	-77.188980	150.384870
36432		9.500250	-0.006446	2.228453	-0.001960	-0.004267	0.003711	-1.272217	0.145508	0.638916	4.886553	-77.191593	150.385076
36433		9.454976	-0.044817	2.236264	-0.001414	0.002035	-0.001533	-1.273926	0.150635	0.641357	4.882647	-77.187821	150.386762
36434		9.459121	-0.030108	2.255283	-0.001368	-0.003463	-0.000328	-1.279785	0.145020	0.637695	4.893767	-77.189778	150.376747
36435		9.476940	-0.008694	2.234745	-0.002257	-0.000572	0.001251	-1.280762	0.142334	0.642578	4.882830	-77.187618	150.387018
36436		9.492347	-0.032992	2.281070	-0.002508	-0.002374	-0.000004	-1.284668	0.141846	0.639893	4.892248	-77.188969	150.378078
36437		9.488259	-0.047728	2.261807	-0.003648	-0.001286	0.000321	-1.274170	0.136963	0.651611	4.883086	-77.187124	150.385572
36438		9.482657	-0.028450	2.248030	-0.002257	-0.000572	0.001251	-1.273438	0.139648	0.639648	4.889110	-77.187507	150.380260
36439		9.472955	-0.023849	2.215036	-0.003625	-0.004035	0.000923	-1.269531	0.146240	0.644043	4.879239	-77.187370	150.386408
36440		9.449610	-0.025872	2.221481	-0.003056	-0.000481	-0.003718	-1.284668	0.144775	0.644287	4.897259	-77.187459	150.368325
36441		9.492545	-0.033107	2.280245	-0.004174	-0.002142	-0.002791	-1.273682	0.152100	0.645264	4.895850	-77.186053	150.367724
36442		9.477243	-0.008914	2.233458	0.001438	-0.004784	0.002134	-1.277100	0.153809	0.644287	4.902682	-77.188884	150.363755
36443		9.455423	-0.045064	2.234367	-0.001642	-0.002516	-0.002185	-1.268799	0.145264	0.648438	4.901209	-77.187769	150.366164
36444		9.488660	-0.047612	2.260127	-0.004151	-0.004891	-0.002190	-1.278076	0.147461	0.639404	4.915718	-77.190449	150.351038
36445		9.463876	-0.015430	2.271760	-0.001894	-0.004318	-0.003441	-1.273926	0.151367	0.645508	4.917797	-77.190311	150.347614
36446		9.458338	0.004245	2.257703	-0.000502	-0.003604	-0.002511	-1.275635	0.146973	0.653564	4.934930	-77.192240	150.331941
36447		9.459945	-0.029737	2.251830	-0.001345	-0.006211	0.000272	-1.281982	0.145508	0.648193	4.928414	-77.193389	150.339060
36448		9.487604	-0.012863	2.263703	-0.000754	-0.005407	-0.003766	-1.277588	0.145264	0.648682	4.948953	-77.196284	150.319747
36449		9.477907	-0.007890	2.230642	-0.001392	-0.000714	-0.000930	-1.277100	0.146240	0.640137	4.944275	-77.194180	150.324893
36450		9.477979	-0.007662	2.230336	-0.004677	-0.005746	-0.005303	-1.276123	0.148438	0.643799	4.966504	-77.197191	150.301542
36451		9.478061	-0.007293	2.229989	-0.001918	-0.001569	-0.004043	-1.272217	0.142334	0.636230	4.969526	-77.195447	150.297713
36452		9.479637	-0.041132	2.224252	-0.001620	-0.005265	-0.001585	-1.273193	0.148682	0.645508	4.984070	-77.198367	150.284038
36453		9.464612	-0.013762	2.268702	-0.003035	-0.003230	-0.003117	-1.270752	0.146729	0.638916	4.984589	-77.197662	150.280809
36454		9.482453	0.008006	2.247996	-0.001895	-0.004318	-0.003442	-1.273193	0.152832	0.648193	5.003439	-77.199948	150.262558
36455		9.472731	0.012955	2.215007	-0.003924	-0.000340	-0.001536	-1.282715	0.145508	0.643066	4.998822	-77.197709	150.265386
36456		9.478433	-0.006268	2.228411	-0.000754	-0.005406	-0.003768	-1.264404	0.145752	0.645020	5.019386	-77.200599	150.246048
36457		9.501876	-0.004034	2.221516	0.001392	0.000714	0.000931	-1.274902	0.144775	0.634277	5.011489	-77.197870	150.254697
36458		9.468749	-0.001235	2.195251	-0.001895	-0.004318	-0.003443	-1.277588	0.144531	0.640137	5.030344	-77.200154	150.236440
36459		9.488355	-0.010622	2.260564	-0.003924	-0.000340	-0.001536	-1.276123	0.145752	0.647217	5.025816	-77.197859	150.238258
36460		9.507631	-0.023198	2.234702	-0.001117	-0.001661	0.000926	-1.275146	0.148438	0.639404	5.033557	-77.198845	150.231856
36461		9.478647	-0.005841	2.227504	-0.001643	-0.002516	-0.002187	-1.273193	0.143799	0.646729	5.032483	-77.197812	150.232595
36462		9.482827	0.008831	2.246417	-0.003649	-0.001286	0.000321	-1.280762	0.145996	0.651123	5.040211	-77.198554	150.224719
36463		9.478765	-0.005923	2.227002	0.000047	-0.005497	0.001201	-1.275391	0.143311	0.636963	5.032359	-77.199411	150.233600
36464		9.484488	-0.025347	2.240329	-0.000252	-0.001802	-0.001256	-1.275146	0.145020	0.637939	5.046110	-77.200367	150.221543
36465		9.492467	0.001126	2.187158	-0.004199	0.000607	-0.003393	-1.270752	0.146484	0.639648	5.046005	-77.197487	150.218349
36466		9.461135	-0.027299	2.246853	-0.000842	-0.002608	0.002783	-1.275391	0.147217	0.653320	5.049451	-77.199106	150.216513
36467		9.478937	-0.005948	2.226268	-0.002509	-0.002374	-0.000005	-1.280518	0.147949	0.640381	5.042529	-77.198185	150.222488
36468		9.469187	-0.001276	2.193364	-0.002257	-0.000573	0.001251	-1.275635	0.147705	0.645996	5.048558	-77.198566	150.217171
36469		9.507996	-0.023503	2.233145	-0.001140	0.001088	0.000326	-1.273438	0.141602	0.646973	5.040767	-77.195631	150.225892
36470		9.484644	-0.025711	2.239665	-0.001094	-0.004409	0.001526	-1.274170	0.147949	0.640625	5.047623	-77.198215	150.220411
36471		9.455677	-0.008408	2.232397	-0.002784	-0.001427	-0.001862	-1.273926	0.142090	0.638428	5.045088	-77.196662	150.221002
36472		9.479113	-0.006510	2.225516	0.000825	-0.002841	0.005570	-1.268799	0.145752	0.644775	5.042540	-77.198555	150.226293
36473		9.484780	-0.026220	2.239084	0.001392	0.000714	0.000931	-1.274902	0.145752	0.640869	5.034978	-77.195946	150.233532
36474		9.479128	-0.006793	2.225451	-0.006457	0.000035	-0.002141	-1.273682	0.142822	0.638184	5.046984	-77.195810	150.219618
36475		9.465520	-0.013647	2.264912	-0.002532	0.000374	-0.000605	-1.278320	0.136963	0.645996	5.041083	-77.193286	150.223553
36476		9.484780	-0.026358	2.239083	-0.001982	-0.001520	0.003108	-1.269043	0.139648	0.641846	5.042815	-77.194301	150.222804
36477		9.498410	-0.019728	2.199523	0.000275	-0.000947	0.001856	-1.276611	0.153809	0.641846	5.032832	-77.192678	150.231158
36478		9.484830	-0.026867	2.238866	-0.004515	-0.001145	0.002502	-1.279297	0.147705	0.643066	5.034550	-77.193449	150.228936
36479		9.473540	0.011680	2.211555	-0.004538	0.001604	0.001902	-1.273926	0.154053	0.643799	5.020825	-77.190365	150.242904
36480		9.498429	-0.020374	2.199434	-0.000252	-0.001802	-0.001257	-1.273926	0.149414	0.645752	5.034565	-77.191322	150.230858
36481		9.488964	-0.012740	2.257997	-0.003146	0.002317	0.002833	-1.277100	0.146484	0.640381	5.019228	-77.187955	150.246777
36482		9.484812	-0.027827	2.238926	-0.000315	-0.001753	0.005895	-1.275391	0.146240	0.642578	5.014969	-77.189243	150.253152
36483		9.451643	-0.025547	2.212819	-0.002005	0.001229	0.002507	-1.265137	0.143799	0.645752	5.001460	-77.186429	150.266390
36484		9.477673	0.024903	2.230709	-0.003123	-0.000431	0.003433	-1.276367	0.149414	0.649414	5.001480	-77.186839	150.266727
36485		9.508197	-0.026924	2.232251	-0.001731	0.000282	0.004364	-1.275635	0.148193	0.641113	4.983834	-77.184771	150.283742
36486		9.450143	0.007334	2.218276	-0.003123	-0.000431	0.003432	-1.275146	0.143066	0.646973	4.983852	-77.185181	150.284080
36487		9.512336	-0.013284	2.251375	-0.001204	0.001136	0.007476	-1.268066	0.146729	0.633789	4.958495	-77.182708	150.309779
36488		9.479111	-0.011137	2.225508	-0.004286	0.003406	0.003158	-1.274902	0.150146	0.640869	4.957699	-77.180915	150.310270
36489		9.474905	-0.026218	2.206651	-0.005404	0.001746	0.004083	-1.270264	0.141113	0.649658	4.938297	-77.177956	150.326490
36490		9.479001	-0.011927	2.225971	-0.000888	0.002890	0.001582	-1.268066	0.156006	0.645264	4.943515	-77.176379	150.322810
36491		9.512132	-0.014958	2.252224	-0.004264	0.000657	0.003757	-1.278320	0.148926	0.647705	4.925962	-77.174125	150.338439
36492		9.478942	-0.012718	2.226217	-0.000339	0.000995	0.005294	-1.283203	0.155273	0.649170	4.922598	-77.173812	150.343882
36493		9.507894	-0.030578	2.233494	-0.004034	0.005208	0.004414	-1.278809	0.144287	0.642090	4.902373	-77.168867	150.366597
36494		9.469001	-0.008981	2.194145	-0.002620	0.003172	0.005944	-1.274170	0.142334	0.645264	4.895607	-77.167343	150.374189
36495		9.478725	-0.014243	2.227133	-0.004539	0.001605	0.001901	-1.274414	0.152100	0.643555	4.882465	-77.164351	150.384608
36496		9.460888	-0.036158	2.247769	-0.001502	0.004832	0.005019	-1.271729	0.145996	0.634521	4.878307	-77.161834	150.390183
36497		9.478566	-0.014978	2.227804	-0.000888	0.002890	0.001582	-1.271484	0.147217	0.642822	4.867689	-77.158137	150.400538
36498		9.505965	0.001700	2.240835	-0.003739	0.009711	-0.002079	-1.274658	0.139160	0.647705	4.878984	-77.152488	150.388948
36499		9.483928	-0.034529	2.242577	-0.002006	0.001230	0.002506	-1.275391	0.145996	0.647461	4.866006	-77.149817	150.400075
36500		9.474090	-0.029882	2.210104	-0.002303	0.004926	0.000051	-1.270508	0.147705	0.641113	4.873810	-77.147004	150.392910
36501		9.482278	-0.000664	2.248749	-0.003695	0.004213	-0.000881	-1.279053	0.144287	0.640381	4.867633	-77.142482	150.397168
36502		9.473890	-0.029823	2.210961	-0.001437	0.004785	-0.002130	-1.283203	0.145996	0.644775	4.881413	-77.139644	150.384383
36503		9.495697	0.006379	2.210206	-0.002303	0.004926	0.000050	-1.277344	0.150391	0.647461	4.873527	-77.134661	150.392568
36504		9.481915	-0.000466	2.250279	-0.002600	0.008623	-0.002405	-1.278076	0.153564	0.640869	4.886498	-77.129617	150.379928
36505		9.506600	-0.032388	2.238972	-0.000934	0.008388	0.000382	-1.273682	0.145508	0.645020	4.877765	-77.122760	150.391221
36506		9.510549	-0.017824	2.258878	-0.000934	0.008388	0.000381	-1.269287	0.140137	0.642822	4.884769	-77.117987	150.385679
36507		9.486654	-0.022690	2.175303	-0.002646	0.014122	-0.003607	-1.272217	0.144287	0.645996	4.884133	-77.107729	150.383021
36508		9.517981	0.008834	2.208330	-0.001004	0.016637	-0.001420	-1.274658	0.153564	0.645752	4.893819	-77.098158	150.374687
36509		9.528789	-0.030078	2.237455	-0.001644	0.021329	0.001415	-1.273926	0.145020	0.637939	4.879584	-77.084051	150.389410
36510		9.471752	-0.029457	2.220108	0.001731	0.023563	-0.000761	-1.275879	0.147949	0.652588	4.887711	-77.070560	150.384282
36511		9.498700	-0.012556	2.235025	0.002824	0.027974	-0.002289	-1.279785	0.144287	0.647949	4.883941	-77.052468	150.390404
36512		9.474678	-0.014446	2.244286	0.000562	0.027404	-0.001045	-1.272949	0.149414	0.634521	4.891271	-77.036770	150.385407
36513		9.454778	-0.001771	2.272572	0.001701	0.026316	-0.001371	-1.276855	0.143555	0.640137	4.884938	-77.019650	150.393452
36514		9.428175	-0.052230	2.257073	0.001177	0.025463	-0.004487	-1.278320	0.147705	0.650391	4.901531	-77.004891	150.379309
36515		9.422019	-0.032087	2.245759	0.001521	0.024470	-0.009782	-1.273682	0.149414	0.644287	4.916355	-76.988437	150.366037
36516		9.396593	0.001064	2.259979	-0.003174	0.021477	-0.015695	-1.281494	0.145508	0.641602	4.958896	-76.975398	150.322701
36517		9.421051	-0.029329	2.249854	-0.002556	0.019536	-0.019133	-1.274414	0.145752	0.643311	4.995361	-76.961302	150.285151
36518		9.519814	-0.038508	2.239166	-0.005389	0.023611	-0.022210	-1.275146	0.144043	0.640869	5.052040	-76.946704	150.225996
36519		9.499884	-0.024197	2.267400	-0.000727	0.029358	-0.016906	-1.270996	0.142578	0.637207	5.081858	-76.927147	150.194752
36520		9.489541	-0.017283	2.237496	-0.003735	0.031587	-0.028395	-1.276367	0.141846	0.649658	5.152649	-76.907659	150.122072
36521		9.475033	-0.021743	2.280023	0.005740	0.034785	-0.023123	-1.281006	0.145508	0.636475	5.200066	-76.884710	150.075780
36522		9.494642	0.050875	2.287251	0.000232	0.026429	-0.025656	-1.265869	0.145996	0.637451	5.267183	-76.868275	150.009193
36523		9.459371	0.089825	2.269123	0.002381	0.029802	-0.020359	-1.274658	0.141357	0.645508	5.306620	-76.848289	149.969552
36524		9.501473	0.083907	2.330468	-0.001509	0.018501	-0.012332	-1.280029	0.151855	0.643066	5.341744	-76.837061	149.934789
36525		9.491476	0.089448	2.299176	-0.004064	0.013417	-0.004580	-1.272705	0.145752	0.648926	5.342636	-76.827271	149.933431
36526		9.489639	0.123421	2.305695	-0.005230	0.009046	0.004108	-1.266846	0.148438	0.644775	5.337655	-76.822312	149.937664
36527		9.533901	0.077867	2.268654	-0.009527	0.004239	0.016222	-1.277344	0.148438	0.636963	5.287007	-76.818979	149.984552
36528		9.533790	0.075449	2.269201	-0.009718	0.007079	0.029923	-1.283447	0.147461	0.638428	5.217046	-76.816495	150.052883
36529		9.533636	0.071893	2.269963	-0.014351	0.008727	0.038956	-1.280029	0.138428	0.649414	5.107211	-76.811564	150.159387
36530		9.525462	0.038426	2.232309	-0.013785	0.004081	0.043272	-1.278564	0.150146	0.637695	5.003123	-76.811411	150.260378
36531		9.529277	0.048322	2.252455	-0.013739	0.016938	0.049243	-1.274658	0.145264	0.638428	4.867240	-76.802260	150.393028
36532		9.515057	0.036099	2.293506	-0.012717	0.018649	0.055453	-1.275879	0.141113	0.647217	4.731246	-76.794271	150.527425
36533		9.529971	0.003322	2.250564	-0.008563	0.020794	0.058238	-1.283203	0.148438	0.646973	4.576201	-76.783237	150.681083
36534		9.533513	0.011750	2.271852	-0.012097	0.024116	0.066318	-1.281494	0.143311	0.641113	4.413495	-76.772449	150.843296
36535		9.534351	-0.029103	2.268962	-0.009991	0.030246	0.070983	-1.280518	0.138672	0.635498	4.225454	-76.756306	151.032276
36536		9.496229	-0.044903	2.317976	-0.007792	0.036330	0.068502	-1.285889	0.145020	0.642090	4.058431	-76.738401	151.201478
36537		9.485785	-0.046693	2.288781	-0.008977	0.040185	0.068184	-1.279053	0.147217	0.640381	3.877166	-76.716177	151.382063
36538		9.516406	-0.022435	2.324390	-0.005691	0.039718	0.073733	-1.281738	0.146973	0.637451	3.699146	-76.696294	151.563831
36539		9.460389	-0.062330	2.302977	-0.010690	0.043200	0.064726	-1.286133	0.145508	0.643555	3.525950	-76.672021	151.735637
36540		9.496759	-0.059580	2.261430	-0.014032	0.046442	0.058513	-1.278076	0.147705	0.643799	3.380012	-76.647523	151.879557
36541		9.365725	-0.116083	2.331768	-0.014539	0.042845	0.055990	-1.276123	0.151855	0.640381	3.226974	-76.622979	152.028860
36542		9.402132	-0.112662	2.290109	-0.015080	0.044753	0.052256	-1.275635	0.151611	0.637939	3.096752	-76.599081	152.156035
36543		9.409287	-0.088308	2.332198	-0.012019	0.035068	0.042280	-1.279053	0.140869	0.648193	2.979990	-76.578469	152.268801
36544		9.477531	-0.052554	2.321825	-0.017611	0.037746	0.037315	-1.276367	0.159424	0.637451	2.885786	-76.558026	152.357478
36545		9.465143	-0.131197	2.353499	-0.017484	0.034949	0.030786	-1.282715	0.149414	0.638672	2.794147	-76.537074	152.441426
36546		9.546238	-0.053882	2.309454	-0.011946	0.037786	0.034510	-1.287109	0.144531	0.644287	2.710427	-76.516466	152.522675
36547		9.517719	-0.074007	2.300641	-0.015160	0.045636	0.036071	-1.283936	0.149170	0.635010	2.606950	-76.489415	152.620562
36548		9.478908	-0.086411	2.351074	-0.018008	0.055245	0.031751	-1.289551	0.151123	0.634766	2.525060	-76.458681	152.696373
36549		9.591284	0.021284	2.341086	-0.016266	0.056862	0.042881	-1.279541	0.142090	0.630615	2.404411	-76.425280	152.811575
36550		9.469564	-0.041853	2.354069	-0.011296	0.066258	0.057752	-1.280518	0.150879	0.631104	2.264633	-76.388777	152.950921
36551		9.771003	0.043250	2.289149	-0.008618	0.071491	0.090522	-1.283936	0.147217	0.635498	2.036146	-76.347933	153.179388
36552		9.671631	0.127457	2.339034	-0.003031	0.090980	0.123914	-1.277832	0.141602	0.638428	1.745520	-76.298271	153.478908
36553		9.782329	-0.039344	2.348275	-0.004963	0.117134	0.147018	-1.273682	0.145996	0.639160	1.387476	-76.231661	153.843230
36554		9.607721	-0.129282	2.360144	-0.002345	0.126877	0.146880	-1.291992	0.150146	0.628174	1.047095	-76.160887	154.194550
36555		10.610606	-0.292807	2.307872	0.003433	0.162682	0.121783	-1.286621	0.150635	0.630371	0.757847	-76.066951	154.493918
36556		10.523625	-0.085852	2.367993	0.008279	0.252029	0.104342	-1.285889	0.149658	0.628906	0.526005	-75.923363	154.739953
36557		10.764062	-0.367931	2.396158	0.008256	0.293437	0.080502	-1.298096	0.151367	0.631592	0.339981	-75.753772	154.936612
36558		12.223587	-0.154359	2.311462	0.015944	0.423903	0.058728	-1.286133	0.146973	0.617188	0.222480	-75.511209	155.069543
36559		11.430928	-0.233365	2.457210	0.025271	0.569180	0.065077	-1.294189	0.150146	0.617676	0.088221	-75.183435	155.223469
36560		11.262369	-0.292783	2.504339	0.025038	0.660912	0.052191	-1.298828	0.149658	0.619873	-0.001009	-74.804938	155.332912
36561		11.390788	-0.422812	2.527967	0.040675	0.745680	0.025567	-1.305176	0.156494	0.613037	-0.032924	-74.375996	155.390483
36562		11.562656	-0.362274	2.599633	0.059514	0.837650	0.015588	-1.312744	0.147461	0.608398	-0.020799	-73.896211	155.415549
36563		11.333560	-0.365297	2.677003	0.070694	0.927520	0.017056	-1.302002	0.155273	0.599121	-0.015321	-73.363141	155.452323
36564		11.486583	-0.609761	2.728150	0.084663	1.007027	-0.021388	-1.321045	0.148926	0.592285	0.080608	-72.786305	155.404991
36565		11.468857	-0.624480	2.771884	0.100744	1.087496	-0.069234	-1.321777	0.149902	0.590088	0.256003	-72.161537	155.281783
36566		11.800524	-0.688000	2.819385	0.113153	1.179230	-0.125084	-1.329346	0.148926	0.586670	0.532737	-71.485553	155.061006
36567		12.361830	-0.605880	2.847275	0.128744	1.294325	-0.169903	-1.341309	0.149902	0.572510	0.862607	-70.741365	154.790425
36568		13.235194	-0.148658	2.870840	0.132548	1.449430	-0.178826	-1.338623	0.142334	0.554932	1.190783	-69.909321	154.524834
36569		13.227054	-0.069345	2.847266	0.126656	1.635376	-0.155650	-1.346680	0.139893	0.549316	1.441855	-68.969213	154.334184
36570		13.493241	-0.202010	2.957617	0.112906	1.827701	-0.165319	-1.353760	0.143311	0.527344	1.680853	-67.919930	154.149076
36571		14.250122	-0.059239	2.874892	0.090345	2.040716	-0.188347	-1.358643	0.135742	0.528809	1.901870	-66.746787	153.965547
36572		15.158444	0.324688	2.824080	0.071307	2.301692	-0.134031	-1.375732	0.140381	0.500244	2.020366	-65.426252	153.882961
36573		15.803842	0.566503	2.807281	0.027044	2.602509	-0.052467	-1.389893	0.133301	0.486816	1.987995	-63.934194	153.935673
36574		16.269489	0.850091	2.734767	-0.015850	2.929197	0.073336	-1.395996	0.131836	0.458496	1.792823	-62.258280	154.146722
36575		16.920285	1.348207	2.518477	-0.070742	3.303371	0.201984	-1.407715	0.132324	0.432617	1.442514	-60.369229	154.499453
36576		17.298552	2.201674	2.374792	-0.158179	3.703869	0.370195	-1.416748	0.135498	0.408936	0.925890	-58.252005	154.997212
36577		17.642651	3.396713	2.563002	-0.268797	4.120935	0.640566	-1.430908	0.132568	0.372314	0.170075	-55.894664	155.713650
36578		18.451755	3.366429	3.274930	-0.424113	4.536331	0.862129	-1.443848	0.129150	0.332520	-0.744913	-53.293200	156.540461
36579		19.554053	1.100320	3.540111	-0.507393	4.946137	0.996148	-1.455078	0.136719	0.287598	-1.685674	-50.448653	157.366299
36580		20.941034	0.139672	5.443600	-0.474847	5.309588	1.002334	-1.466553	0.141357	0.246826	-2.485017	-47.387778	158.068308
36581		20.332077	1.401224	7.807638	-0.440793	5.500327	0.896767	-1.468750	0.145752	0.206787	-3.106753	-44.216770	158.582639
36582		18.669073	2.575967	6.848042	-0.514517	5.548099	0.719663	-1.466309	0.151855	0.152588	-3.605373	-41.019516	158.886584
36583		18.335497	1.900753	5.577693	-0.537938	5.684235	0.289639	-1.472656	0.146240	0.101074	-3.874272	-37.761413	158.824380
36584		17.537492	3.050127	4.851341	-0.640510	5.703119	-0.170920	-1.465088	0.135498	0.056152	-4.002606	-34.508483	158.423292
36585		18.647125	1.307006	2.180355	-0.820209	5.659847	0.126863	-1.454834	0.141846	0.011963	-4.365305	-31.272637	158.225964
36586		18.816127	0.343735	-0.768617	-0.877870	5.716305	0.510692	-1.449219	0.149658	-0.029785	-4.880983	-27.984824	158.255677
36587		18.590763	0.069363	-2.366889	-0.873009	5.848379	0.567458	-1.439453	0.146973	-0.083984	-5.391922	-24.623470	158.280129
36588		12.841019	2.357949	-6.401841	-0.820728	5.854149	0.296744	-1.425781	0.143555	-0.132813	-5.792625	-21.269028	158.106973
36589		6.189305	6.505546	-7.196040	-0.938517	5.464075	0.158096	-1.400879	0.144287	-0.170410	-6.244012	-18.152820	157.851713
36590		-8.356630	6.159999	-7.055711	-1.177146	4.924705	0.254442	-1.390869	0.158691	-0.217773	-6.862600	-15.333351	157.664788
36591		-25.822786	2.913773	-3.718094	-1.282906	2.875734	-0.416562	-1.384277	0.153564	-0.227539	-7.481394	-13.735259	157.205320
36592		-9.436421	0.938263	-6.318107	-1.149967	0.582980	-1.112023	-1.385254	0.154297	-0.231689	-7.973940	-13.490345	156.507639
36593		-2.622908	0.062454	-3.460044	-0.989263	-0.853637	-1.332200	-1.383057	0.141357	-0.226563	-8.370628	-14.088426	155.799000
36594		2.468396	-0.640377	-3.103537	-0.835892	-1.765794	-1.088123	-1.396484	0.138184	-0.215820	-8.725235	-15.182015	155.315363
36595		4.379786	-1.510039	-3.261638	-0.653075	-2.245078	-0.754119	-1.393311	0.133789	-0.197998	-9.032775	-16.525171	155.075705
36596		4.806633	-1.891656	-3.347856	-0.431640	-2.484168	-0.533731	-1.399902	0.127441	-0.176025	-9.253877	-17.979452	154.994502
36597		4.961732	-1.725743	-3.107437	-0.217615	-2.625361	-0.489082	-1.415039	0.125732	-0.163086	-9.365626	-19.515254	154.957150
36598		5.168791	-1.273828	-2.946791	-0.039271	-2.715748	-0.499645	-1.416016	0.130615	-0.143066	-9.374547	-21.097568	154.924177
36599		4.824970	-1.101808	-2.834423	0.102249	-2.821049	-0.484327	-1.431396	0.121582	-0.117188	-9.309799	-22.744117	154.909543
36600		4.414649	-1.143328	-2.865690	0.232573	-2.958863	-0.466766	-1.440430	0.112061	-0.092285	-9.177259	-24.460818	154.916690
36601		4.248287	-0.950464	-2.834698	0.338397	-3.147691	-0.451929	-1.440674	0.122803	-0.069336	-8.995702	-26.289656	154.946642
36602		4.531562	-0.610282	-2.636962	0.423059	-3.338587	-0.448349	-1.451416	0.108643	-0.046387	-8.771647	-28.219689	154.991400
36603		5.038822	-0.348947	-2.449111	0.480526	-3.541319	-0.476109	-1.460205	0.102051	-0.022217	-8.514607	-30.274203	155.029529
36604		5.666498	-0.088745	-2.210343	0.527789	-3.730817	-0.550244	-1.463623	0.101563	0.015137	-8.208277	-32.435349	155.026153
36605		6.259191	0.075082	-1.834298	0.558349	-3.917245	-0.646804	-1.484131	0.102295	0.044678	-7.851390	-34.717571	154.959806
36606		6.825532	-0.030481	-1.619944	0.596753	-4.098593	-0.739282	-1.489258	0.098633	0.087891	-7.428028	-37.101758	154.824695
36607		7.493831	0.093304	-1.408848	0.635276	-4.273441	-0.828652	-1.484619	0.085938	0.122070	-6.931801	-39.599002	154.612057
36608		8.382922	0.294599	-1.106386	0.656894	-4.424315	-0.901798	-1.484131	0.089844	0.166992	-6.361287	-42.177088	154.318906
36609		9.044983	0.093831	-0.674753	0.687537	-4.558397	-0.946549	-1.490479	0.088135	0.203369	-5.714208	-44.840622	153.951792
36610		9.709701	-0.167202	-0.280917	0.738327	-4.678861	-1.020278	-1.489014	0.078125	0.252197	-4.939521	-47.564448	153.467804
36611		10.520348	-0.344122	0.091138	0.822362	-4.783341	-1.133082	-1.482910	0.075439	0.296387	-3.966803	-50.357059	152.803645
36612		11.294420	-0.240297	0.675256	0.910101	-4.885078	-1.288527	-1.476563	0.065430	0.347412	-2.711840	-53.194591	151.873097
36613		11.993369	0.136351	1.440386	0.979838	-4.996041	-1.434923	-1.460205	0.066650	0.393555	-1.123964	-56.093490	150.615684
36614		13.037596	0.316927	2.102306	1.021699	-5.108215	-1.515570	-1.449951	0.059570	0.439453	0.820895	-59.022978	149.008073
36615		14.254376	0.126348	2.686587	1.066765	-5.186973	-1.523991	-1.430420	0.063232	0.483154	3.162243	-61.973839	147.021950
36616		15.386814	-0.259556	3.118639	1.120420	-5.230592	-1.509914	-1.401367	0.059570	0.533691	6.014911	-64.892558	144.553702
36617		16.365562	-0.767375	3.668001	1.207789	-5.240663	-1.508783	-1.383789	0.050293	0.579590	9.599874	-67.761817	141.397404
36618		17.039215	-1.279506	4.448340	1.318056	-5.225392	-1.478048	-1.365723	0.053223	0.623047	14.155795	-70.518750	137.333959
36619		17.465177	-1.951145	5.706094	1.455470	-5.224780	-1.353860	-1.330566	0.058350	0.661865	19.944355	-73.166476	132.122973
36620		18.126171	-2.147649	7.446830	1.615337	-5.228883	-1.106807	-1.305664	0.069092	0.711426	27.267343	-75.661229	125.485828
36621		19.100970	-1.270642	9.518984	1.741770	-5.200938	-0.685586	-1.261719	0.078613	0.757324	36.449408	-78.000349	117.084892
36622		19.660817	0.242974	11.233583	1.764710	-5.107764	-0.106803	-1.235107	0.099854	0.785400	47.894295	-80.136125	106.463604
36623		19.125628	1.653958	12.487988	1.665375	-4.958848	0.440450	-1.187988	0.103760	0.820313	62.889138	-81.977757	92.255408
36624		17.906204	3.321654	13.210314	1.473274	-4.784121	0.794556	-1.154541	0.138672	0.847168	82.998250	-83.233127	72.835386
36625		16.517585	5.348470	13.916027	1.195764	-4.593116	0.977534	-1.111084	0.145752	0.881104	107.010958	-83.568465	49.358251
36626		15.094366	6.376964	14.725390	0.841189	-4.346788	0.931450	-1.072021	0.161865	0.895264	128.249282	-82.873082	28.461566
36627		14.023574	6.376640	16.451366	0.520292	-4.031819	0.574549	-1.040771	0.169922	0.915771	142.145418	-81.450945	14.739288
36628		13.417954	6.097845	18.601721	0.233450	-3.581151	0.085556	-1.000000	0.178711	0.930908	149.496619	-79.776466	7.427123
36629		12.821835	4.825711	20.326678	-0.011403	-2.984517	-0.374762	-0.975342	0.174072	0.943848	152.777527	-78.169731	4.080132
36630		12.103144	2.333039	21.482430	-0.161993	-2.273476	-0.804463	-0.950684	0.177246	0.958984	153.479843	-76.798430	3.267888
36631		11.921497	-0.474606	22.108862	-0.216139	-1.536315	-1.144824	-0.933594	0.174561	0.971680	152.604428	-75.713381	4.043660
36632		37.419352	-8.858854	30.180128	-0.067090	0.687509	-0.295734	-0.938477	0.171875	0.979736	151.233749	-75.980170	5.419800
36633		24.056419	-4.448435	23.983651	0.086477	2.639580	0.509112	-0.959473	0.170410	0.960693	149.177671	-77.437731	7.585009
36634		16.319609	-0.638474	23.673660	-0.013878	4.345377	1.863753	-0.999023	0.182373	0.950684	147.112903	-80.115376	9.683523
36635		4.372970	-4.063953	-3.060573	-0.058194	4.273857	1.605372	-1.030029	0.187988	0.937012	142.759731	-82.652278	14.052999
36636		14.995831	4.109737	-6.002566	-0.015481	4.403502	1.410369	-1.062012	0.195801	0.917480	132.460943	-85.068952	24.401811
36637		14.376292	-1.065297	-6.120457	-0.224085	5.822510	1.617004	-1.109131	0.194336	0.893799	89.721179	-87.287284	67.093543
36638		7.764286	-4.270964	2.725548	-0.088343	5.999394	0.997428	-1.156006	0.194580	0.863525	31.848189	-85.938315	124.999509
36639		7.162046	-1.623658	6.059217	0.159385	5.004407	0.324089	-1.187012	0.194336	0.846191	17.308501	-83.385950	139.690805
36640		6.845290	0.381921	7.050086	0.053529	3.695286	0.176887	-1.209229	0.193848	0.810547	12.547418	-81.364157	144.526662
36641		7.785787	1.256520	5.061992	-0.168538	2.765126	0.232805	-1.223389	0.196777	0.793701	9.798273	-79.833229	147.215735
36642		7.393821	-0.027411	4.255565	-0.237465	2.003798	0.219654	-1.238770	0.194336	0.788330	8.075859	-78.718387	148.832382
36643		7.823288	-0.685978	3.690955	-0.141586	1.483221	0.152107	-1.258301	0.195557	0.780518	7.032698	-77.884891	149.815388
36644		6.156930	0.053729	4.824068	-0.141130	1.008436	0.066505	-1.252930	0.207031	0.764404	6.481118	-77.315530	150.299529
36645		7.252459	-0.146827	3.788747	-0.134338	0.520425	0.051731	-1.262207	0.193848	0.773438	6.126406	-77.019666	150.584924
36646		8.433331	-0.168316	2.995595	-0.040410	0.220024	0.073670	-1.255127	0.192627	0.773193	5.875284	-76.898669	150.821121
36647		9.232390	-0.267968	2.403953	-0.021446	0.120415	0.042883	-1.267090	0.199707	0.769531	5.723778	-76.829631	150.964609
36648		9.248952	-0.048537	2.454134	-0.011407	0.093513	0.003187	-1.266602	0.191895	0.772949	5.696832	-76.776474	150.987768
36649		9.252906	0.044276	2.416925	-0.003274	0.058422	0.007357	-1.257568	0.198486	0.778320	5.658432	-76.740689	151.025809
36650		9.308706	0.038479	2.350046	-0.005145	0.035634	-0.000527	-1.262207	0.202393	0.763672	5.658251	-76.720317	151.025161
36651		9.349020	0.066271	2.416594	-0.001002	0.016643	-0.001669	-1.262695	0.198730	0.764160	5.653112	-76.707835	151.030373
36652		9.427869	0.097010	2.344309	0.001136	-0.001092	-0.000313	-1.265625	0.194824	0.764893	5.664794	-76.708415	151.021234
36653		9.474937	0.100709	2.330808	-0.004063	-0.010420	-0.000808	-1.269043	0.201172	0.774658	5.662298	-76.711410	151.021934
36654		9.496034	0.053043	2.299762	-0.004414	-0.012108	0.005102	-1.260742	0.198730	0.762939	5.660365	-76.718576	151.023516
36655		9.501678	0.033530	2.312935	-0.006335	-0.008235	-0.000181	-1.266357	0.194336	0.776367	5.654535	-76.720366	151.026311
36656		9.470316	0.001292	2.281165	-0.004217	-0.004796	0.005043	-1.264648	0.197266	0.771484	5.651103	-76.723361	151.029551
36657		9.478433	0.030763	2.318533	-0.005373	-0.000958	0.004716	-1.260498	0.206055	0.771729	5.632232	-76.721285	151.046313
36658		9.448265	-0.035440	2.282836	-0.009193	0.004043	-0.005207	-1.261719	0.198730	0.772461	5.648600	-76.718663	151.026280
36659		9.475665	-0.017760	2.295548	-0.003449	0.003944	-0.015192	-1.262451	0.195557	0.769043	5.677711	-76.712676	150.994875
36660		9.545946	-0.010489	2.276576	-0.000851	0.006196	-0.022372	-1.258301	0.197754	0.771240	5.739741	-76.707842	150.932832
36661		9.596998	0.122821	2.225375	-0.001070	0.020058	-0.018444	-1.268311	0.194824	0.768799	5.774030	-76.692482	150.897503
36662		9.487098	0.144570	2.297849	-0.004504	0.030905	-0.003293	-1.259766	0.196045	0.767334	5.781844	-76.674646	150.889017
36663		9.426874	0.100438	2.348163	-0.010710	0.024618	0.004880	-1.260254	0.198486	0.768311	5.753333	-76.658040	150.912553
36664		9.412945	0.088653	2.298522	-0.015189	0.020748	0.008054	-1.266846	0.202148	0.769287	5.730245	-76.646646	150.929534
36665		9.470302	0.052807	2.315495	-0.016261	0.013601	0.010288	-1.253662	0.203125	0.771240	5.688341	-76.636628	150.963575
36666		9.484082	0.057606	2.277331	-0.016763	0.012710	0.007195	-1.262451	0.197998	0.770264	5.668405	-76.629764	150.976390
36667		9.515138	0.088299	2.310276	-0.013580	0.023297	0.010182	-1.262695	0.209717	0.769775	5.626085	-76.614213	151.012444
36668		9.491137	0.084741	2.318948	-0.018461	0.023229	0.017978	-1.267578	0.207275	0.765869	5.576943	-76.601950	151.054282
36669		9.493354	0.014036	2.311880	-0.016352	0.026667	0.023198	-1.263916	0.207031	0.765869	5.501322	-76.585189	151.122947
36670		9.441788	-0.007021	2.308446	-0.013229	0.027067	0.019750	-1.259766	0.204834	0.765381	5.450272	-76.570812	151.169835
36671		9.443763	0.040059	2.334614	-0.010980	0.027631	0.018479	-1.265137	0.195068	0.768311	5.389064	-76.553223	151.226854
36672		9.465288	0.073775	2.335339	-0.017720	0.023201	0.022906	-1.262451	0.197266	0.758789	5.329008	-76.541198	151.280362
36673		9.441313	0.069222	2.343821	-0.016069	0.020252	0.026320	-1.258301	0.198975	0.765625	5.248118	-76.528209	151.354635
36674		9.413347	0.049137	2.333451	-0.019609	0.023661	0.034373	-1.268799	0.202393	0.769287	5.159815	-76.516484	151.436082
36675		9.441684	0.028088	2.343181	-0.019832	0.019097	0.033782	-1.268799	0.194336	0.770752	5.059571	-76.504486	151.528052
36676		9.490842	-0.040201	2.322895	-0.021254	0.023872	0.031576	-1.260742	0.195557	0.769775	4.977235	-76.492439	151.602403
36677		9.465392	-0.010926	2.336567	-0.021172	0.029248	0.023157	-1.260742	0.202881	0.770020	4.899688	-76.474066	151.670253
36678		9.463339	0.020446	2.344299	-0.023215	0.033259	0.024989	-1.269043	0.199219	0.762939	4.830273	-76.456294	151.730167
36679		9.480693	0.038693	2.327281	-0.023518	0.039691	0.021830	-1.270020	0.201172	0.773926	4.752834	-76.431863	151.796536
36680		9.529435	0.087980	2.342082	-0.032212	0.041221	0.036417	-1.263428	0.190430	0.770264	4.650106	-76.410041	151.885429
36681		9.482653	0.045575	2.354485	-0.034203	0.052678	0.045293	-1.266113	0.196533	0.767578	4.509355	-76.379219	152.010660
36682		9.453890	0.023657	2.347174	-0.043800	0.057817	0.045275	-1.266357	0.200195	0.763184	4.376877	-76.348216	152.123356
36683		9.537540	-0.000114	2.380666	-0.036917	0.055942	0.051101	-1.260254	0.198975	0.768311	4.221556	-76.315643	152.262018
36684		9.499536	-0.017995	2.340427	-0.036306	0.056721	0.047036	-1.263428	0.198486	0.769775	4.090593	-76.285207	152.377603
36685		9.470731	-0.069427	2.419472	-0.030902	0.054929	0.042975	-1.263672	0.200439	0.770264	3.959168	-76.252741	152.495254
36686		9.472216	0.004555	2.361860	-0.024740	0.050338	0.044511	-1.264648	0.200928	0.769287	3.842816	-76.225733	152.602651
36687		9.503701	-0.002864	2.393279	-0.018592	0.048495	0.045409	-1.267822	0.199951	0.763428	3.714819	-76.196925	152.724065
36688		9.477786	0.024586	2.409074	-0.025411	0.049589	0.048490	-1.260986	0.197510	0.762451	3.589854	-76.170380	152.839960
36689		9.491074	0.025296	2.374441	-0.021046	0.048074	0.053720	-1.266357	0.196045	0.770020	3.442263	-76.141979	152.980141
36690		9.585607	0.108722	2.383300	-0.027761	0.058554	0.072151	-1.264893	0.197266	0.764893	3.260989	-76.110954	153.152680
36691		9.593189	0.095349	2.422567	-0.034433	0.070984	0.098871	-1.263916	0.202148	0.759521	3.000007	-76.070644	153.401825
36692		9.555965	0.037921	2.379463	-0.041229	0.086997	0.115936	-1.271484	0.201660	0.763672	2.708977	-76.024234	153.679564
36693		9.515650	0.017590	2.433688	-0.043076	0.097571	0.126522	-1.274170	0.201416	0.760498	2.380277	-75.968809	153.993511
36694		9.441751	-0.118210	2.427490	-0.033718	0.094497	0.141837	-1.270508	0.197510	0.760254	2.037842	-75.917925	154.328803
36695		9.440491	-0.166186	2.430559	-0.021727	0.076016	0.136656	-1.273682	0.196533	0.765625	1.704768	-75.874150	154.660018
36696		9.470094	-0.148074	2.468921	-0.013380	0.061763	0.130540	-1.272705	0.201904	0.760742	1.406066	-75.840913	154.962354
36697		9.919092	0.164941	2.345919	-0.001706	0.076056	0.166913	-1.274658	0.201904	0.756592	1.019692	-75.796562	155.360493
36698		9.504876	-0.021044	2.476609	-0.003539	0.084246	0.204160	-1.271729	0.206299	0.758057	0.563152	-75.750045	155.831591
36699		10.162656	0.620792	2.456641	0.001192	0.094569	0.270749	-1.272217	0.199463	0.753906	-0.049737	-75.693743	156.465371
36700		11.132677	0.176363	2.426242	-0.026122	0.152158	0.376261	-1.270752	0.211426	0.764404	-0.895149	-75.604960	157.324768
36701		13.137444	-0.012826	2.201274	-0.001529	0.375646	0.474429	-1.273438	0.210693	0.758789	-1.928163	-75.380285	158.391595
36702		13.395524	-0.964403	2.571940	0.015583	0.548122	0.625926	-1.278076	0.219238	0.747559	-3.214242	-75.050681	159.733145
36703		22.421950	-1.093267	2.055249	0.019746	0.931373	0.393170	-1.282227	0.216309	0.737793	-3.909148	-74.501345	160.465720
36704		21.770738	-1.283319	2.023907	0.109573	1.640721	0.299311	-1.292969	0.217529	0.731689	-4.203136	-73.551789	160.839028
36705		18.091067	-1.078984	2.028927	0.147817	2.146120	0.123642	-1.297363	0.217041	0.717773	-4.061529	-72.317930	160.780031
36706		16.894364	-0.787689	2.082379	0.180532	2.455335	0.054776	-1.318359	0.209961	0.706787	-3.756079	-70.912541	160.569425
36707		17.175650	-0.844759	2.001194	0.161248	2.756247	-0.078814	-1.330811	0.217285	0.684326	-3.272510	-69.337103	160.153856
36708		18.292955	-1.252509	1.606891	0.124512	3.100243	-0.169019	-1.344971	0.214111	0.659668	-2.714480	-67.568513	159.632964
36709		20.379236	0.315660	1.354032	0.082950	3.540733	-0.097883	-1.359131	0.212158	0.637939	-2.332840	-65.542791	159.268933
36710		21.223170	1.683920	0.842975	-0.030495	4.074128	0.071610	-1.367188	0.209229	0.612549	-2.235808	-63.208938	159.144333
36711		21.408945	2.831317	0.303999	-0.134188	4.642674	0.378697	-1.390869	0.206543	0.572998	-2.512604	-60.541511	159.370859
36712		23.534144	4.020221	-0.174979	-0.260949	5.251216	0.694159	-1.404053	0.206543	0.526855	-3.074614	-57.517202	159.854226
36713		26.810712	6.063210	-0.595343	-0.430637	6.037646	1.122877	-1.420898	0.203125	0.490967	-3.953368	-54.025357	160.618148
36714		27.743590	6.107952	0.202308	-0.668070	6.872075	1.528070	-1.437256	0.204102	0.423584	-5.054268	-50.031556	161.531055
36715		24.978126	0.953024	2.874095	-0.760858	7.448238	1.507539	-1.447266	0.215576	0.368652	-5.985841	-45.702829	162.198969
36716		19.639752	-2.423759	5.830251	-0.603740	7.566842	0.786740	-1.460938	0.219727	0.314209	-6.312628	-41.344370	162.174068
36717		16.572557	-4.037204	3.446829	-0.328507	7.378849	-0.122363	-1.472168	0.203613	0.254639	-6.070005	-37.152190	161.493568
36718		20.970764	0.665863	3.081252	-0.319690	7.224174	-0.737703	-1.467285	0.204102	0.200439	-5.656558	-33.078096	160.460621
36719		22.617556	0.848155	-0.334227	-0.594416	7.165549	-0.312297	-1.453369	0.185303	0.135742	-5.645465	-29.014814	159.778861
36720		20.726056	-0.459105	-4.344735	-0.742630	7.109445	0.143937	-1.453857	0.181885	0.088867	-5.901141	-24.954105	159.409150
36721		18.307277	0.646074	-7.786174	-0.727547	7.055435	0.044623	-1.429688	0.170166	0.040771	-6.148199	-20.938033	158.973493
36722		12.427936	6.114513	-11.971053	-0.802935	6.858097	-0.277963	-1.416504	0.162598	-0.009033	-6.403243	-17.049920	158.349994
36723		6.647319	10.098927	-10.276839	-1.170749	6.467883	-0.289134	-1.395508	0.163086	-0.050781	-6.911320	-13.396808	157.731345
36724		-17.519171	8.067931	-7.909251	-1.657265	5.759609	-0.031688	-1.375977	0.155273	-0.078125	-7.767064	-10.126564	157.280568
36725		-24.095029	1.163215	-7.103841	-1.730435	2.820550	-1.252557	-1.367676	0.149902	-0.095947	-8.601262	-8.637322	156.324543
36726		-8.933764	0.388386	-7.224096	-1.559604	0.600622	-2.358723	-1.357422	0.135254	-0.089355	-9.283162	-8.507880	154.918530
36727		-3.532106	-0.189702	-5.379869	-1.405522	-1.030604	-2.352918	-1.352295	0.111816	-0.072510	-9.893288	-9.321365	153.669820
36728		1.375327	-1.862617	-5.716151	-1.185957	-2.071892	-1.775696	-1.353516	0.100830	-0.059814	-10.430786	-10.669849	152.863819
36729		3.272812	-2.962890	-5.232507	-0.892148	-2.673032	-1.174134	-1.352539	0.103271	-0.031982	-10.862991	-12.305932	152.475124
36730		3.689917	-3.417687	-4.784663	-0.574469	-3.025553	-0.727066	-1.357422	0.090820	-0.001953	-11.171407	-14.087615	152.393565
36731		3.954885	-3.221860	-4.503878	-0.247994	-3.280306	-0.432683	-1.345459	0.082275	0.033203	-11.344987	-15.986348	152.518861
36732		4.131850	-2.558450	-4.356355	0.052718	-3.462274	-0.292402	-1.344971	0.081787	0.071045	-11.381277	-17.964732	152.753905
36733		4.231195	-1.317987	-4.170413	0.300055	-3.619324	-0.290952	-1.342773	0.086670	0.109375	-11.292039	-20.038223	153.009249
36734		4.177622	-0.380406	-3.845278	0.477590	-3.783945	-0.322337	-1.329834	0.076660	0.138672	-11.108234	-22.201363	153.264541
36735		4.603879	0.042184	-3.483331	0.606417	-3.945060	-0.407568	-1.313965	0.068115	0.182861	-10.846324	-24.472727	153.480750
36736		5.341753	0.153818	-3.210317	0.726016	-4.084693	-0.566113	-1.302490	0.075684	0.228516	-10.482209	-26.833181	153.605591
36737		5.757418	0.170006	-2.941895	0.826619	-4.226616	-0.780470	-1.290039	0.066406	0.265381	-10.002286	-29.304179	153.592043
36738		5.735300	0.070342	-2.764027	0.919942	-4.413816	-0.992518	-1.259766	0.063477	0.303467	-9.392316	-31.893225	153.433633
36739		6.282633	0.097314	-2.737599	1.000266	-4.654251	-1.170366	-1.228271	0.066162	0.354004	-8.657738	-34.641053	153.139046
36740		7.403997	0.138518	-2.555888	1.061495	-4.890313	-1.253890	-1.190674	0.057373	0.394531	-7.820407	-37.517452	152.753922
36741		8.794052	0.079679	-2.200428	1.099713	-5.105866	-1.268059	-1.150146	0.060791	0.424316	-6.908597	-40.521500	152.306267
36742		9.996718	-0.075844	-1.699142	1.117975	-5.280025	-1.227571	-1.111328	0.059082	0.467285	-5.938726	-43.606801	151.818322
36743		11.188900	0.119890	-1.138504	1.113858	-5.425702	-1.162519	-1.054199	0.059326	0.491455	-4.927255	-46.774978	151.292037
36744		12.281966	0.367154	-0.416946	1.065564	-5.527885	-1.076125	-0.995850	0.061035	0.512207	-3.894538	-49.980581	150.730556
36745		13.211068	0.487412	0.216718	1.003078	-5.599986	-0.991767	-0.936279	0.066162	0.510986	-2.839152	-53.228160	150.117189
36746		13.951947	0.523376	0.796234	0.930508	-5.661711	-0.931361	-0.876221	0.079590	0.505859	-1.727003	-56.491041	149.412216
36747		14.736458	0.331972	1.190172	0.886674	-5.723303	-0.930048	-0.825684	0.081055	0.477051	-0.458640	-59.791768	148.517162
36748		15.533455	0.027751	1.592908	0.867721	-5.799343	-1.004079	-0.784668	0.084473	0.443359	1.138173	-63.111397	147.268439
36749		16.495372	-0.429092	2.127015	0.891550	-5.883978	-1.112135	-0.772705	0.086670	0.406982	3.283641	-66.468370	145.462426
36750		17.300712	-1.238965	3.022929	0.963033	-5.969540	-1.229059	-0.775391	0.091797	0.372803	6.305478	-69.818688	142.804754
36751		18.368519	-2.223653	4.460300	1.082172	-6.050549	-1.356989	-0.796143	0.086914	0.347900	10.770000	-73.146162	138.752404
36752		19.453880	-2.977265	6.542720	1.262603	-6.125219	-1.417604	-0.809326	0.078613	0.351318	17.544678	-76.354772	132.485647
36753		20.485862	-2.708213	9.956996	1.461084	-6.228720	-1.310619	-0.826660	0.061279	0.359619	28.077505	-79.376181	122.573398
36754		21.810497	-0.837998	14.332451	1.579911	-6.293007	-0.894146	-0.839355	0.062256	0.369141	44.595155	-82.000890	106.761694
36755		22.884173	1.694702	18.452306	1.522053	-6.189279	-0.211326	-0.849854	0.056885	0.396973	70.382754	-83.855563	81.665209
36756		22.330285	4.379508	21.365255	1.291762	-5.852165	0.543444	-0.843018	0.052490	0.427002	103.859310	-84.353416	48.766752
36757		20.573724	6.453629	23.011670	0.926576	-5.329160	1.066949	-0.840332	0.052002	0.445801	132.575887	-83.415742	20.428149
36758		17.821128	6.181635	23.940562	0.535565	-4.568087	1.033700	-0.825928	0.052734	0.463623	149.142137	-81.741317	4.037192
36759		15.326043	5.920995	25.998645	0.290756	-3.644463	0.351323	-0.826904	0.052246	0.479004	156.384796	-79.966979	-3.127623
36760		13.716160	5.787492	27.701573	0.019085	-2.591785	-0.687209	-0.814697	0.048340	0.492920	157.537133	-78.445396	-4.287305
36761		11.351758	3.544564	28.212608	-0.216644	-1.616850	-1.677834	-0.817139	0.054199	0.496094	155.066242	-77.206442	-1.884954
36762		9.641054	0.961561	27.747414	-0.404756	-0.855118	-2.298953	-0.812500	0.046387	0.508789	150.813294	-76.169251	2.249034
36763		48.095767	-7.595567	27.443965	-0.318394	-0.188387	-1.946476	-0.826172	0.044922	0.510742	147.067718	-75.499816	5.925859
36764		8.466193	-17.795206	30.537552	0.184573	3.924364	1.679192	-0.834229	0.042236	0.502197	145.252607	-77.902366	7.901421
36765		9.697865	-0.983874	11.069706	0.272982	4.422592	3.053604	-0.848633	0.056396	0.503662	145.391811	-80.984260	7.920810
36766		9.400031	-3.875801	-4.412494	0.484612	3.756855	2.679016	-0.871094	0.054932	0.495605	146.080751	-83.626247	7.508111
36767		17.281864	-3.804292	-14.659175	0.747618	5.573921	1.840460	-0.895996	0.062012	0.482910	130.585368	-86.746279	23.483459
36768		11.794275	-3.098758	-3.563770	0.873883	7.312881	1.020649	-0.923828	0.078613	0.464600	42.614006	-87.211838	112.037061
36769		7.461425	-0.484744	7.167183	0.660104	6.791440	0.572834	-0.944092	0.073486	0.443359	14.983190	-83.858874	140.117646
36770		5.476626	-0.245720	9.904241	0.360216	4.962360	0.308317	-0.962158	0.075195	0.431641	9.349939	-81.112904	146.008286
36771		4.926912	0.948373	8.760544	-0.090973	3.389465	0.354412	-0.964600	0.082764	0.433350	6.575790	-79.214401	148.771380
36772		5.474382	0.241643	5.842640	-0.190027	2.040217	0.234729	-0.982666	0.074463	0.427246	5.214772	-78.065338	150.050649
36773		6.488472	-0.406105	4.477379	-0.070547	1.244304	0.142697	-0.978271	0.081543	0.413330	4.515741	-77.358321	150.725543
36774		5.877121	-0.140101	4.854896	-0.035630	0.580834	0.101102	-0.992188	0.076172	0.415771	4.141008	-77.030868	151.091087
36775		8.239690	-0.218368	3.090128	-0.001983	0.253853	0.089981	-0.988525	0.073975	0.414063	3.867425	-76.885428	151.371599
36776		9.315262	0.119858	2.432129	-0.006856	0.151713	0.038640	-0.989746	0.078857	0.403564	3.754371	-76.800204	151.485860
36777		9.121315	0.052144	2.471221	-0.013962	0.121623	0.038049	-0.996338	0.085938	0.413574	3.628357	-76.728038	151.607948
36778		9.134627	-0.011260	2.521553	-0.006721	0.085691	0.060118	-0.991211	0.082520	0.411133	3.476150	-76.681215	151.762586
36779		9.267000	-0.068134	2.445679	-0.010471	0.053195	0.049703	-0.983643	0.082764	0.415039	3.336249	-76.648414	151.901059
36780		9.267258	-0.106048	2.443595	-0.005860	0.023036	0.029464	-0.988281	0.076172	0.412354	3.268674	-76.636263	151.969257
36781		9.355693	-0.081082	2.405709	-0.001419	0.001180	0.014537	-0.991943	0.084717	0.415527	3.226359	-76.631968	152.012779
36782		9.438152	-0.001250	2.358038	-0.010036	-0.014966	0.001128	-0.991211	0.079102	0.411621	3.229883	-76.640622	152.005442
36783		9.457997	-0.014442	2.330902	-0.009271	-0.017825	0.006685	-0.985596	0.081299	0.415771	3.204492	-76.646934	152.026948
36784		9.496156	-0.006180	2.283473	-0.015314	-0.021494	-0.000166	-0.991699	0.073730	0.411133	3.208989	-76.659281	152.015504
36785		9.530533	-0.044090	2.302766	-0.012720	-0.011775	0.007003	-0.981689	0.075439	0.414063	3.179968	-76.662144	152.038712
36786		9.507201	-0.046842	2.308427	-0.017824	-0.002722	0.003931	-0.987061	0.078125	0.417236	3.170609	-76.663884	152.040030
36787		9.578820	-0.075944	2.283989	-0.013963	0.008614	0.003074	-0.994873	0.074951	0.419678	3.147587	-76.654960	152.056343
36788		9.552624	-0.010297	2.302871	-0.012618	0.017586	0.002195	-0.991943	0.071777	0.421387	3.142700	-76.645026	152.056131
36789		9.524539	-0.027165	2.292214	-0.012179	0.029460	0.002871	-0.988281	0.076660	0.410645	3.118452	-76.624176	152.074758
36790		9.452128	0.000371	2.319823	-0.012334	0.032256	0.009374	-0.996582	0.079102	0.410889	3.094582	-76.606073	152.094225
36791		9.405572	-0.038905	2.329873	-0.016394	0.031986	0.014912	-0.991943	0.072266	0.404297	3.038813	-76.584146	152.142777
36792		9.412985	-0.011735	2.370987	-0.019384	0.023264	0.012994	-0.984863	0.075684	0.415039	3.003531	-76.571290	152.169829
36793		9.406085	0.040268	2.364993	-0.020999	0.018003	0.011409	-0.994873	0.078857	0.409424	2.955474	-76.557242	152.207748
36794		9.397679	0.009004	2.327875	-0.023538	0.012004	0.028058	-0.990234	0.080078	0.415039	2.883273	-76.551258	152.270313
36795		9.469309	-0.054222	2.389890	-0.024277	0.009357	0.023706	-0.979492	0.084229	0.412598	2.805128	-76.542486	152.337250
36796		9.502838	-0.062886	2.325948	-0.023280	0.008296	0.030502	-0.988770	0.073975	0.407959	2.727791	-76.538653	152.405252
36797		9.499639	-0.114725	2.302188	-0.024469	0.017669	0.028987	-0.990723	0.075439	0.416016	2.636120	-76.525222	152.485992
36798		9.554218	-0.085392	2.330125	-0.020834	0.024448	0.027491	-0.986572	0.078857	0.411621	2.565778	-76.512020	152.548247
36799		9.515665	-0.065467	2.292541	-0.018333	0.029569	0.026906	-1.000732	0.075684	0.408447	2.481615	-76.491682	152.624891
36800		9.472999	-0.092230	2.321885	-0.017782	0.037770	0.037134	-0.989746	0.077637	0.411377	2.389045	-76.471047	152.711818
36801		9.515807	0.009594	2.329872	-0.016634	0.033917	0.037419	-0.995850	0.071533	0.414307	2.280920	-76.448415	152.814124
36802		9.496546	-0.016260	2.353301	-0.017477	0.041419	0.046698	-0.987061	0.076416	0.412109	2.166094	-76.425828	152.924140
36803		9.538570	-0.032580	2.325480	-0.021484	0.042994	0.060546	-0.993164	0.081543	0.411133	2.000395	-76.398381	153.082848
36804		9.443401	-0.046441	2.354641	-0.018894	0.044441	0.069495	-0.993652	0.079834	0.411621	1.831528	-76.374362	153.247655
36805		9.449490	-0.140986	2.360994	-0.019413	0.046366	0.065763	-0.995117	0.085205	0.414307	1.655741	-76.344860	153.418006
36806		9.466779	-0.125896	2.345552	-0.019268	0.046344	0.058638	-0.991455	0.079346	0.402588	1.513341	-76.319355	153.555394
36807		9.376549	-0.158335	2.388117	-0.017717	0.041501	0.053672	-0.991699	0.072266	0.411377	1.368505	-76.292259	153.694929
36808		9.422572	-0.160074	2.379555	-0.015930	0.041217	0.049348	-0.995850	0.077393	0.406738	1.251111	-76.269414	153.808574
36809		9.443116	-0.095145	2.388626	-0.010219	0.038467	0.047214	-0.987549	0.074219	0.402344	1.126779	-76.243835	153.931453
36810		9.413682	-0.081536	2.384530	-0.016724	0.031229	0.037862	-0.994141	0.085205	0.403320	1.036984	-76.226481	154.016236
36811		9.403881	-0.080504	2.354559	-0.016912	0.031268	0.044934	-0.988281	0.086426	0.411377	0.915169	-76.204899	154.132603
36812		9.388643	-0.092065	2.396226	-0.018776	0.024211	0.042102	-0.993896	0.081787	0.408936	0.815054	-76.191525	154.226816
36813		9.445106	-0.132472	2.413163	-0.023840	0.022270	0.041413	-0.989502	0.073730	0.410889	0.698346	-76.174970	154.333857
36814		9.436429	-0.165451	2.376624	-0.024331	0.024190	0.037707	-0.990234	0.076416	0.411133	0.605683	-76.161496	154.417130
36815		9.464252	-0.187403	2.386479	-0.024825	0.028871	0.033396	-0.990234	0.071289	0.409180	0.507340	-76.141030	154.504693
36816		9.486059	-0.155482	2.389230	-0.025749	0.037306	0.033711	-0.992432	0.082764	0.415039	0.423297	-76.119958	154.578263
36817		9.522319	-0.116872	2.353701	-0.023190	0.044259	0.041444	-0.991211	0.083496	0.417236	0.307546	-76.090643	154.684741
36818		9.515257	-0.067711	2.350886	-0.030093	0.059190	0.041391	-0.999023	0.083252	0.412354	0.203656	-76.056988	154.776214
36819		9.569672	-0.075371	2.378093	-0.033012	0.078083	0.059536	-0.995361	0.081787	0.416748	0.041491	-76.008223	154.924758
36820		9.513924	0.001498	2.396247	-0.034330	0.085675	0.082862	-0.996094	0.089111	0.410156	-0.158617	-75.959248	155.112935
36821		9.630574	-0.034518	2.368512	-0.023474	0.092204	0.114612	-0.993896	0.086670	0.411133	-0.438507	-75.901977	155.388554
36822		9.619109	-0.108509	2.424047	-0.008525	0.092538	0.150963	-0.990967	0.080811	0.416504	-0.775378	-75.848223	155.733093
36823		10.166786	0.256286	2.316076	0.003671	0.131103	0.220105	-1.001465	0.093750	0.411377	-1.271757	-75.766758	156.248223
36824		9.819887	-0.116856	2.382749	0.002835	0.187558	0.271938	-0.993408	0.088135	0.404053	-1.860747	-75.655286	156.859895
36825		9.645265	-0.302320	2.491845	0.007783	0.201627	0.279773	-0.995361	0.082031	0.408203	-2.467492	-75.529685	157.491925
36826		9.812329	-0.257232	2.515372	0.005593	0.213223	0.281007	-1.004883	0.084717	0.402588	-3.052638	-75.400153	158.101935
36827		10.214433	-0.300887	2.556471	-0.003488	0.231551	0.283894	-0.994873	0.093018	0.406738	-3.649390	-75.254076	158.717728
36828		13.188085	-0.662352	2.459842	-0.008523	0.295337	0.231729	-0.995117	0.088623	0.403320	-4.102166	-75.076557	159.183274
36829		18.687075	-0.887042	2.105249	0.027208	0.699737	0.201663	-1.003662	0.089355	0.403320	-4.406585	-74.664111	159.515740
36830		15.659343	-1.070332	2.478502	0.064660	1.141163	0.207629	-1.009033	0.083252	0.406494	-4.600677	-74.003253	159.758012
36831		16.369490	-1.026216	2.432475	0.098983	1.385650	0.094535	-1.021973	0.084717	0.398193	-4.516520	-73.203806	159.730249
36832		17.985748	-0.891450	2.281306	0.133082	1.743376	-0.000200	-1.016602	0.094482	0.386719	-4.188394	-72.208112	159.468697
36833		18.268915	-0.675443	2.037040	0.173727	2.161606	-0.029956	-1.024902	0.091309	0.386719	-3.782003	-70.970441	159.145969
36834		17.818988	-0.344830	2.071614	0.186655	2.560009	-0.033870	-1.032471	0.083984	0.373535	-3.359583	-69.507989	158.813058
36835		17.637269	-0.154406	2.074040	0.164361	2.904865	-0.026684	-1.034180	0.076172	0.360107	-2.992699	-67.844226	158.520764
36836		18.663561	-0.317898	1.705295	0.110337	3.274292	-0.033158	-1.052490	0.082031	0.352783	-2.661480	-65.971661	158.231786
36837		20.719272	0.748283	1.454744	0.056400	3.734674	0.113370	-1.061279	0.071289	0.333496	-2.561585	-63.828998	158.157317
36838		22.384318	2.966526	0.985568	-0.068029	4.306986	0.325954	-1.074463	0.079102	0.328369	-2.734805	-61.355527	158.310896
36839		23.311011	3.288181	0.365287	-0.228392	4.944249	0.705241	-1.073975	0.075928	0.300781	-3.305875	-58.504270	158.819347
36840		24.360535	2.348129	-0.254526	-0.383115	5.644457	0.922972	-1.104736	0.077637	0.276123	-4.013053	-55.243318	159.403902
36841		26.480011	2.414500	0.274268	-0.461266	6.369798	1.156823	-1.109131	0.081299	0.242676	-4.790276	-51.554074	160.042218
36842		25.964037	3.644422	2.239233	-0.536558	6.969724	1.442114	-1.119629	0.077881	0.210693	-5.633046	-47.502437	160.748139
36843		20.834874	1.658636	5.908562	-0.586167	7.203953	1.317110	-1.140869	0.082275	0.166992	-6.294904	-43.321252	161.205145
36844		18.927595	-2.047530	6.134765	-0.462262	7.090249	0.648018	-1.155029	0.079102	0.140869	-6.483165	-39.243120	161.092190
36845		19.607634	0.299401	4.501560	-0.348606	6.969562	-0.268680	-1.152100	0.076904	0.093994	-6.229250	-35.295161	160.342890
36846		25.795373	1.563689	1.398381	-0.541854	6.926252	-0.165790	-1.153564	0.073975	0.050049	-6.191955	-31.360597	159.713989
36847		22.521985	0.652535	-3.212291	-0.686632	7.030172	0.148956	-1.147705	0.067383	0.015137	-6.384091	-27.353353	159.302943
36848		18.961372	1.969164	-6.153778	-0.744572	6.903967	-0.020470	-1.145752	0.064941	-0.023193	-6.590147	-23.424673	158.793439
36849		15.402099	6.710607	-11.444510	-0.850883	6.748175	-0.289514	-1.138916	0.060547	-0.056641	-6.833657	-19.612441	158.127844
36850		7.876373	11.113330	-11.355378	-1.185770	6.492664	-0.265399	-1.128906	0.070068	-0.107178	-7.315239	-15.939835	157.486455
36851		-16.702174	9.622933	-7.673960	-1.683648	5.846712	-0.096496	-1.109375	0.067627	-0.142822	-8.149549	-12.637870	156.961571
36852		-25.740876	2.333756	-6.264334	-1.855658	3.034942	-1.548717	-1.100342	0.055420	-0.153564	-8.972025	-11.050841	155.798747
36853		-8.259403	0.373928	-6.827376	-1.695860	0.848649	-3.125193	-1.103271	0.052979	-0.164307	-9.583792	-10.867240	153.915934
36854		-2.758996	0.871890	-4.764960	-1.551293	-0.675266	-3.326301	-1.099854	0.045410	-0.181152	-10.110784	-11.574909	152.067242
36855		1.081270	-1.294398	-5.049371	-1.374836	-1.695125	-2.743445	-1.093994	0.034668	-0.174072	-10.599159	-12.819882	150.660935
36856		3.481680	-2.682680	-5.119610	-1.099603	-2.271149	-2.038420	-1.107422	0.027100	-0.169434	-11.008641	-14.317546	149.729886
36857		4.778299	-3.232110	-4.565489	-0.797874	-2.548999	-1.422755	-1.103516	0.024170	-0.166260	-11.323421	-15.915501	149.191359
36858		5.465823	-3.532167	-3.972836	-0.489554	-2.643503	-1.006866	-1.120850	0.015137	-0.162109	-11.521524	-17.514892	148.912286
36859		5.538767	-3.653708	-3.483382	-0.188755	-2.684361	-0.749707	-1.120850	0.019287	-0.151611	-11.590034	-19.115688	148.790317
36860		4.559007	-3.660931	-3.224278	0.127034	-2.756038	-0.620755	-1.126465	0.028320	-0.143311	-11.502719	-20.734544	148.753965
36861		3.804577	-2.889468	-3.286046	0.418960	-2.905108	-0.565750	-1.135498	0.019531	-0.132080	-11.265113	-22.438772	148.762301
36862		3.358793	-2.147623	-3.245138	0.665960	-3.116708	-0.499554	-1.141846	0.015381	-0.115234	-10.907580	-24.246737	148.828420
36863		3.470024	-2.033835	-3.206555	0.875639	-3.372635	-0.457570	-1.137939	0.012939	-0.107422	-10.451778	-26.203122	148.936287
36864		4.069509	-1.933455	-3.119698	1.084931	-3.633324	-0.496187	-1.153320	0.007568	-0.098389	-9.872079	-28.302840	149.032633
36865		4.952662	-1.598931	-2.951260	1.264122	-3.865370	-0.545036	-1.167725	0.002197	-0.080322	-9.179693	-30.547986	149.096748
36866		5.890448	-1.080338	-2.678750	1.413164	-4.061660	-0.567170	-1.167969	0.004883	-0.060303	-8.387800	-32.897898	149.134851
36867		6.887778	-0.666909	-2.271221	1.515232	-4.227502	-0.552819	-1.178955	0.001221	-0.039307	-7.533481	-35.350496	149.158157
36868		7.803930	-0.140442	-1.808834	1.580307	-4.359774	-0.548043	-1.181396	-0.009033	-0.022217	-6.621552	-37.868479	149.151120
36869		8.575330	0.565359	-1.177325	1.599248	-4.476866	-0.554342	-1.190918	-0.004395	-0.006104	-5.670869	-40.463428	149.095114
36870		9.130856	1.351452	-0.558087	1.564457	-4.602021	-0.590531	-1.201172	-0.009766	0.006592	-4.681999	-43.120267	148.959794
36871		9.523507	2.224239	0.091157	1.485900	-4.757963	-0.674824	-1.210449	-0.025391	0.029053	-3.645053	-45.878686	148.693632
36872		9.538681	2.833712	0.733202	1.362261	-4.967118	-0.813633	-1.220947	-0.027100	0.051270	-2.521450	-48.745848	148.230165
36873		9.717794	2.991814	1.198199	1.234112	-5.223184	-1.009664	-1.230713	-0.043213	0.075439	-1.234858	-51.768051	147.475782
36874		10.842179	3.108582	1.353881	1.114558	-5.484662	-1.199449	-1.244385	-0.050293	0.099854	0.297610	-54.916337	146.364830
36875		12.426538	2.993643	1.540834	1.008637	-5.673934	-1.351922	-1.243896	-0.060303	0.139648	2.156732	-58.162889	144.829316
36876		14.260114	2.527722	2.045074	0.944605	-5.805638	-1.446879	-1.261475	-0.064209	0.168701	4.455605	-61.436442	142.799174
36877		15.649945	1.981050	3.022996	0.922054	-5.884070	-1.507813	-1.257813	-0.083008	0.215576	7.367650	-64.714891	140.126941
36878		16.842985	1.204088	4.309813	0.949322	-5.941444	-1.534197	-1.271729	-0.093018	0.263184	11.147281	-67.934633	136.597967
36879		18.036019	0.254243	5.754725	1.042640	-5.984079	-1.539055	-1.271973	-0.108887	0.314453	16.223424	-71.073092	131.819254
36880		19.248064	-0.857560	7.724966	1.201628	-6.016141	-1.467110	-1.254639	-0.125244	0.364746	23.138466	-74.039797	125.297833
36881		20.521994	-1.830816	10.335952	1.451945	-6.047258	-1.249523	-1.239990	-0.124023	0.413574	32.673953	-76.786761	116.309131
36882		20.780568	-1.660648	13.338562	1.755460	-6.069231	-0.721695	-1.222412	-0.122070	0.461426	45.556562	-79.236395	104.174722
36883		19.780814	0.486408	16.060727	1.961317	-6.096540	0.025165	-1.194336	-0.123779	0.509766	63.336167	-81.309039	87.283431
36884		18.469285	2.615697	18.238173	1.961035	-6.055933	0.645877	-1.163330	-0.106201	0.556152	87.685075	-82.559627	63.836329
36885		18.181880	3.991032	20.330443	1.800720	-5.789946	0.930826	-1.137695	-0.096924	0.589111	114.530231	-82.439289	37.809162
36886		18.144073	4.857863	21.863903	1.549531	-5.204541	0.820302	-1.098145	-0.080078	0.628662	134.366793	-81.120225	18.670941
36887		17.304977	4.235639	23.155640	1.269430	-4.368746	0.347181	-1.064941	-0.073242	0.648926	145.385369	-79.321286	8.231683
36888		15.804163	2.947249	24.420923	1.031065	-3.356044	-0.307986	-1.040527	-0.073730	0.663574	150.256221	-77.597465	3.866088
36889		14.338769	2.267400	25.566788	0.807594	-2.310376	-0.762140	-1.030029	-0.068848	0.670166	151.844221	-76.223863	2.712817
36890		12.926496	0.924778	25.727025	0.521580	-1.321845	-0.919893	-1.008301	-0.064209	0.683594	151.719969	-75.306278	3.151510
36891		14.534862	0.044397	23.705282	0.290572	-0.547778	-0.799901	-1.008057	-0.067383	0.681885	150.948230	-74.810371	4.124760
36892		44.404383	-12.424125	32.946523	0.427779	2.969201	1.377123	-1.023682	-0.053955	0.664307	150.632400	-76.679301	4.705659
36893		13.007350	-2.242244	18.771351	0.321169	4.549916	2.431313	-1.048340	-0.046387	0.648682	150.491092	-79.637956	5.040242
36894		4.413462	-2.316566	-3.257265	0.375852	4.317503	2.329945	-1.077148	-0.032471	0.641602	150.311284	-82.447220	5.442362
36895		17.117466	0.038957	-10.437664	0.516823	5.002574	1.735823	-1.111572	-0.018311	0.602539	143.785113	-85.403467	12.303044
36896		13.905700	-3.002056	-6.383884	0.396363	6.867345	1.419999	-1.139160	-0.019531	0.572021	83.528741	-88.092240	72.855402
36897		6.789593	-3.318076	5.294445	0.410449	6.743550	0.636462	-1.171387	-0.012695	0.543213	20.701307	-85.644712	135.984446
36898		6.398539	-0.681278	9.440559	0.236917	5.241189	0.214042	-1.186035	-0.004639	0.524902	11.470319	-82.783310	145.398183
36899		7.467547	1.699893	5.887119	-0.044325	3.848913	0.155502	-1.204102	-0.016602	0.498291	8.236716	-80.620750	148.641057
36900		6.005452	1.182824	6.390230	-0.311507	2.669130	0.255841	-1.213379	-0.006348	0.474854	6.182180	-79.121662	150.548803
36901		6.076534	-0.117259	5.157612	-0.337252	1.711218	0.215858	-1.212646	-0.007324	0.464355	4.894854	-78.152588	151.666036
36902		4.634176	-1.618941	5.396788	-0.184920	0.822314	0.133763	-1.216309	-0.011719	0.464844	4.266886	-77.689072	152.202049
36903		8.025221	0.162022	3.252652	-0.054026	0.370678	0.130226	-1.213623	-0.012207	0.463867	3.820015	-77.476795	152.629210
36904		9.158836	-0.142024	2.392797	-0.050300	0.221350	0.111662	-1.222656	0.002441	0.474365	3.479478	-77.354344	152.950788
36905		8.933157	-0.157836	2.529291	-0.040370	0.188255	0.082012	-1.219238	-0.004639	0.458740	3.210903	-77.243584	153.203685
36906		9.001570	-0.233191	2.421786	-0.024929	0.114148	0.073157	-1.219727	-0.007080	0.461426	3.006901	-77.180613	153.400418
36907		9.328567	-0.250167	2.333817	-0.021216	0.078982	0.026256	-1.218750	-0.001221	0.462158	2.909356	-77.130311	153.489291
36908		9.364202	-0.058567	2.337987	-0.007525	0.052644	0.002438	-1.218750	-0.002441	0.461670	2.902506	-77.100326	153.494086
36909		9.441468	0.005869	2.274526	-0.004260	0.041925	-0.005591	-1.225586	-0.009277	0.460938	2.899420	-77.070274	153.496034
36910		9.533591	0.046365	2.257127	-0.009430	0.034576	0.002156	-1.222656	-0.009521	0.451172	2.894501	-77.050620	153.497728
36911		9.579724	0.048438	2.247645	-0.013349	0.039041	0.015418	-1.221436	-0.004150	0.461182	2.834425	-77.022822	153.552815
36912		9.554459	0.078774	2.262917	-0.014375	0.039325	0.024659	-1.215576	-0.005859	0.453125	2.770410	-77.001080	153.612250
36913		9.551092	-0.007567	2.237920	-0.018554	0.044726	0.036059	-1.221191	-0.008545	0.459717	2.656128	-76.970566	153.719930
36914		9.532512	-0.066341	2.258016	-0.021324	0.054300	0.031721	-1.225586	-0.007568	0.452637	2.569564	-76.940393	153.798437
36915		9.507760	-0.071153	2.269675	-0.009508	0.055162	0.029172	-1.215820	-0.004639	0.462402	2.477233	-76.903663	153.888931
36916		9.455335	-0.091736	2.268530	-0.006863	0.049168	0.023922	-1.221924	-0.010254	0.458252	2.419433	-76.876186	153.946432
36917		9.434091	-0.046576	2.303433	-0.003966	0.044987	0.019903	-1.226074	-0.005127	0.458740	2.354793	-76.845018	154.011772
36918		9.391197	-0.070833	2.334148	-0.003582	0.038446	0.015909	-1.230225	-0.005615	0.453125	2.320028	-76.823467	154.047560
36919		9.389578	-0.038190	2.342176	-0.006846	0.025150	0.013496	-1.218262	-0.009766	0.463379	2.271747	-76.803486	154.094417
36920		9.403254	-0.033779	2.305021	-0.005870	0.021412	0.020889	-1.228027	-0.000488	0.453369	2.225391	-76.791786	154.140769
36921		9.407103	-0.021077	2.325450	-0.010266	0.009217	0.018789	-1.224365	-0.006104	0.461914	2.163956	-76.781024	154.199135
36922		9.425355	-0.002411	2.305898	-0.017076	0.007589	0.022512	-1.214844	-0.003418	0.460205	2.108644	-76.777253	154.248096
36923		9.426074	-0.039603	2.301321	-0.014237	0.002691	0.034516	-1.228760	-0.002686	0.460205	2.007346	-76.770523	154.345083
36924		9.426848	-0.077357	2.296409	-0.019272	0.000730	0.033919	-1.218506	-0.002441	0.468994	1.923643	-76.770870	154.421918
36925		9.470395	-0.126820	2.259704	-0.016759	0.003089	0.033895	-1.223633	-0.003906	0.453125	1.822490	-76.763835	154.517280
36926		9.460214	-0.121749	2.318482	-0.017002	0.006776	0.031417	-1.219971	0.000732	0.458984	1.745764	-76.760620	154.588287
36927		9.455013	-0.105560	2.305102	-0.012468	0.005111	0.029556	-1.230957	-0.004639	0.458252	1.657588	-76.752298	154.672849
36928		9.474128	-0.121478	2.280260	-0.013686	0.007041	0.020938	-1.225342	-0.014893	0.463623	1.608332	-76.748717	154.717588
36929		9.472421	-0.055719	2.290928	-0.014344	0.003526	0.025560	-1.228027	0.007568	0.452148	1.529006	-76.741206	154.791961
36930		9.448802	-0.060317	2.297666	-0.010615	0.003952	0.034152	-1.221680	-0.009766	0.462646	1.449660	-76.739565	154.869424
36931		9.468675	-0.111273	2.267717	-0.012637	0.007978	0.035985	-1.223877	0.001709	0.457764	1.345860	-76.729609	154.969955
36932		9.481919	-0.104811	2.320495	-0.013123	0.009852	0.032286	-1.228516	-0.006836	0.456055	1.269382	-76.724508	155.043000
36933		9.477394	-0.122909	2.302447	-0.014260	0.010960	0.032587	-1.224365	-0.004150	0.458252	1.172957	-76.712743	155.135008
36934		9.491393	-0.120133	2.264155	-0.014264	0.010962	0.032580	-1.223389	0.001465	0.452148	1.095218	-76.706958	155.208682
36935		9.454003	-0.165104	2.305750	-0.014995	0.011023	0.027660	-1.220459	-0.000244	0.449951	1.010535	-76.695057	155.288199
36936		9.499269	-0.096984	2.304532	-0.009468	0.016605	0.030698	-1.222412	0.000000	0.453613	0.940046	-76.685974	155.357253
36937		9.452547	-0.136906	2.313554	-0.011586	0.013209	0.025485	-1.225342	-0.013672	0.457764	0.862718	-76.672764	155.431228
36938		9.521446	-0.067214	2.305759	-0.016149	0.009386	0.028572	-1.218018	0.002930	0.455566	0.793997	-76.667758	155.494537
36939		9.469795	-0.087891	2.300754	-0.013124	0.018116	0.030379	-1.223389	-0.007568	0.452393	0.704046	-76.651741	155.580589
36940		9.445847	-0.092631	2.308714	-0.016547	0.015939	0.032534	-1.228760	-0.006348	0.457764	0.625521	-76.642966	155.653746
36941		9.450336	-0.115630	2.324236	-0.017437	0.018862	0.034055	-1.224854	-0.005127	0.451904	0.524573	-76.626495	155.748576
36942		9.487043	-0.077620	2.285718	-0.021974	0.023295	0.035269	-1.222900	-0.006592	0.458740	0.436473	-76.613464	155.828387
36943		9.486420	-0.081717	2.288161	-0.026029	0.028606	0.039545	-1.224121	-0.004395	0.462402	0.317701	-76.591369	155.936497
36944		9.490554	-0.105819	2.305004	-0.026194	0.034223	0.045344	-1.226318	0.004639	0.451904	0.203307	-76.572032	156.040866
36945		9.517515	-0.095034	2.320960	-0.026388	0.034339	0.052380	-1.224365	-0.001465	0.463135	0.054272	-76.546579	156.179903
36946		9.521434	-0.119891	2.338467	-0.031871	0.042533	0.046204	-1.228516	-0.001709	0.450928	-0.064687	-76.522368	156.285643
36947		9.539040	-0.104712	2.322447	-0.033860	0.045745	0.056902	-1.226318	-0.003662	0.451416	-0.227675	-76.490235	156.434664
36948		9.523920	-0.086620	2.280279	-0.035886	0.052540	0.058076	-1.231689	-0.001709	0.460938	-0.376098	-76.460128	156.568368
36949		9.583511	-0.115263	2.320056	-0.038750	0.064185	0.069033	-1.223633	0.004150	0.453613	-0.568825	-76.417197	156.745147
36950		9.608123	-0.005444	2.354961	-0.036830	0.069624	0.089489	-1.233887	-0.000977	0.456787	-0.790086	-76.376884	156.953279
36951		9.858433	0.188064	2.305559	-0.029637	0.075234	0.121252	-1.229736	0.001709	0.441650	-1.097726	-76.326812	157.253760
36952		9.843694	0.029453	2.333073	-0.027195	0.113322	0.188001	-1.225830	-0.004395	0.452637	-1.539016	-76.259626	157.694145
36953		10.128342	0.002016	2.285409	-0.014887	0.147081	0.257626	-1.228271	0.004639	0.444336	-2.144577	-76.164830	158.310296
36954		9.706425	-0.304271	2.389687	-0.011712	0.178160	0.272940	-1.229736	-0.003662	0.449951	-2.755908	-76.056398	158.935326
36955		9.884908	-0.503748	2.404864	-0.005900	0.199368	0.266564	-1.231201	0.004395	0.452148	-3.352423	-75.928367	159.548065
36956		9.811271	-0.313067	2.494001	-0.006073	0.209463	0.246509	-1.233398	0.011475	0.447510	-3.876145	-75.799965	160.086754
36957		12.152390	-0.437081	2.411784	-0.019548	0.240963	0.202214	-1.232910	-0.001709	0.445801	-4.308478	-75.648154	160.522738
36958		16.504634	-0.795323	2.032382	0.023397	0.578225	0.208837	-1.240479	0.014404	0.443359	-4.646567	-75.308829	160.888036
36959		15.582219	-0.705565	2.380682	0.036180	0.912146	0.199846	-1.234863	0.005127	0.437988	-4.895378	-74.772914	161.168396
36960		17.114619	-1.270956	2.384180	0.082680	1.227693	0.208836	-1.243408	0.014648	0.428467	-5.048171	-74.062094	161.378412
36961		19.510101	-0.938801	2.147204	0.109195	1.635143	0.065391	-1.248779	0.006592	0.422852	-4.842786	-73.120275	161.230751
36962		19.142862	-0.731409	1.918890	0.172976	2.138632	0.013152	-1.254150	0.009277	0.398438	-4.444744	-71.898648	160.919585
36963		17.045396	-0.341460	1.918258	0.187211	2.541224	-0.009315	-1.266357	0.012451	0.380859	-4.011190	-70.442448	160.575841
36964		16.184532	-0.372600	2.101598	0.174715	2.823186	-0.021459	-1.266846	0.009033	0.359619	-3.582364	-68.829522	160.227524
36965		17.090706	-0.733238	1.761974	0.137439	3.107178	-0.079016	-1.265625	0.009521	0.342773	-3.137982	-67.051059	159.833736
36966		18.966391	0.540780	1.690028	0.088321	3.478860	-0.011021	-1.277100	0.009033	0.321777	-2.833086	-65.061105	159.557883
36967		20.554114	2.009145	1.213274	-0.018995	3.952913	0.165303	-1.281250	0.001709	0.292969	-2.812025	-62.791369	159.522657
36968		21.085916	2.440776	0.649285	-0.130377	4.492201	0.476279	-1.291260	0.002441	0.262695	-3.137178	-60.207083	159.809989
36969		22.488874	2.358065	0.039778	-0.245579	5.098571	0.720598	-1.289795	0.006836	0.224121	-3.672347	-57.264859	160.271415
36970		24.866595	4.208834	-0.328232	-0.361346	5.810921	0.961083	-1.297607	0.008545	0.182373	-4.337173	-53.905374	160.828608
36971		27.019763	5.105198	0.292488	-0.528401	6.577716	1.353834	-1.301514	0.016113	0.135742	-5.227431	-50.085462	161.573664
36972		24.421604	2.637237	2.051775	-0.673074	7.209077	1.475385	-1.301514	0.018555	0.096680	-6.091009	-45.892031	162.219108
36973		19.650344	-2.833339	6.145326	-0.565356	7.394753	0.980199	-1.294434	0.021484	0.042236	-6.503761	-41.622028	162.347325
36974		16.627886	-4.346450	5.984305	-0.305957	7.197977	0.154573	-1.286621	0.013672	-0.007080	-6.366144	-37.514287	161.859634
36975		19.373833	-0.714331	4.536850	-0.176065	6.990036	-0.692355	-1.270752	0.013672	-0.049072	-5.879391	-33.578713	160.848588
36976		22.557563	0.839791	0.780212	-0.397819	6.959538	-0.548087	-1.254395	0.006348	-0.096436	-5.664860	-29.643261	160.008836
36977		21.237825	-0.129919	-3.513576	-0.580618	6.947061	-0.034183	-1.233154	-0.007813	-0.141113	-5.778758	-25.691469	159.536654
36978		19.908920	0.467788	-6.467886	-0.621038	6.953720	0.069968	-1.205566	-0.009766	-0.187256	-5.970172	-21.724439	159.132936
36979		14.964447	4.535206	-11.157968	-0.662257	6.927109	-0.154339	-1.177734	-0.003662	-0.223877	-6.166921	-17.796879	158.590841
36980		9.983613	10.339666	-10.914399	-0.974533	6.677546	-0.370690	-1.160400	-0.012207	-0.264893	-6.541932	-14.018276	157.929270
36981		-7.157850	11.253902	-9.843527	-1.509975	6.184261	-0.124295	-1.140137	-0.013916	-0.295898	-7.297768	-10.521264	157.416571
36982		-33.560767	2.751440	-5.684901	-1.818160	3.835253	-1.008132	-1.116455	-0.013916	-0.317383	-8.192286	-8.422110	156.534310
36983		-14.130969	0.227319	-7.987691	-1.655546	0.900906	-2.789669	-1.099609	-0.024902	-0.323975	-8.897093	-8.158065	154.856344
36984		-5.706998	1.590656	-5.392218	-1.567967	-0.865394	-3.230173	-1.106934	-0.030762	-0.322754	-9.530369	-8.944351	153.087429
36985		-0.402534	-0.321918	-5.401115	-1.447841	-2.161923	-2.635886	-1.105469	-0.031006	-0.315430	-10.139448	-10.430274	151.789545
36986		2.664041	-1.877175	-5.168645	-1.237739	-2.895535	-1.868465	-1.123535	-0.039551	-0.308594	-10.695143	-12.256030	151.019830
36987		4.163699	-2.208805	-4.579116	-0.997254	-3.275841	-1.201714	-1.132324	-0.050781	-0.291748	-11.188793	-14.237081	150.688311
36988		4.837823	-2.144309	-4.124541	-0.758881	-3.483738	-0.671907	-1.147949	-0.052002	-0.274658	-11.625774	-16.270347	150.704512
36989		5.245233	-2.315104	-3.761489	-0.526816	-3.595393	-0.294697	-1.157471	-0.057617	-0.254150	-12.005494	-18.329504	150.970098
36990		5.217429	-2.142431	-3.236531	-0.294653	-3.656949	-0.128919	-1.174072	-0.056396	-0.247070	-12.301229	-20.393927	151.359220
36991		5.159987	-1.021234	-2.861441	-0.093121	-3.724220	-0.139158	-1.177734	-0.052246	-0.223633	-12.502549	-22.504048	151.764859
36992		5.205017	-0.391847	-2.535068	0.069255	-3.807407	-0.260902	-1.199219	-0.061035	-0.197266	-12.603267	-24.666441	152.121038
36993		5.179345	-0.419348	-2.301395	0.220215	-3.923867	-0.449962	-1.209717	-0.060059	-0.173584	-12.591275	-26.926424	152.383191
36994		5.491179	-0.577450	-2.244128	0.391046	-4.071347	-0.710501	-1.209717	-0.072754	-0.154785	-12.421658	-29.292494	152.503303
36995		6.362904	-0.537813	-2.077594	0.556991	-4.219722	-0.935252	-1.228516	-0.080322	-0.123291	-12.095391	-31.779226	152.488443
36996		7.255625	-0.262647	-1.794621	0.700900	-4.362115	-1.091255	-1.235107	-0.088135	-0.091309	-11.626506	-34.354217	152.369166
36997		7.937438	-0.222008	-1.242233	0.799983	-4.503809	-1.152955	-1.247070	-0.108887	-0.060791	-11.066560	-37.025465	152.193955
36998		8.579649	-0.356383	-0.716946	0.879627	-4.653259	-1.118205	-1.245850	-0.116699	-0.033936	-10.454588	-39.764822	152.023734
36999		9.185185	-0.036313	0.034341	0.919312	-4.812686	-1.040799	-1.249512	-0.132568	-0.001709	-9.838212	-42.596383	151.886364
37000		9.850173	0.642860	0.734515	0.899160	-4.979548	-0.944237	-1.247803	-0.123047	0.032227	-9.260817	-45.500127	151.800139
37001		10.464722	1.194381	1.285741	0.818599	-5.138607	-0.883331	-1.246582	-0.146729	0.073975	-8.748656	-48.500341	151.739928
37002		10.857316	1.364456	1.725794	0.713193	-5.295412	-0.911003	-1.249023	-0.141846	0.114014	-8.254853	-51.578644	151.631759
37003		11.456094	1.382853	2.134511	0.603611	-5.449629	-1.055180	-1.234375	-0.160400	0.154785	-7.685777	-54.768647	151.351925
37004		12.423136	1.221752	2.666662	0.501039	-5.569392	-1.277026	-1.218262	-0.167969	0.193115	-6.911483	-58.027202	150.769852
37005		13.863283	0.521581	3.134049	0.432806	-5.630453	-1.537043	-1.204834	-0.186035	0.238770	-5.772673	-61.345502	149.737614
37006		15.381511	-0.432405	3.767581	0.416598	-5.623427	-1.810629	-1.175537	-0.195068	0.290527	-4.040288	-64.645057	148.064326
37007		16.723236	-1.790881	4.678747	0.459701	-5.554942	-2.034382	-1.154053	-0.211426	0.321289	-1.469500	-67.896042	145.544526
37008		17.820990	-3.584786	5.592005	0.575405	-5.446234	-2.199300	-1.114746	-0.224609	0.352051	2.290190	-71.009067	141.885368
37009		18.377513	-4.857033	7.083782	0.780208	-5.351973	-2.238408	-1.077148	-0.234375	0.384277	7.644654	-73.970948	136.741540
37010		18.126286	-5.657200	9.048794	1.015314	-5.304754	-2.040524	-1.030029	-0.250000	0.412354	14.899781	-76.727853	129.848766
37011		17.701362	-6.200844	11.340410	1.278933	-5.327191	-1.527646	-0.997803	-0.250488	0.434082	24.402810	-79.329542	120.887031
37012		17.389223	-5.505866	13.709652	1.500415	-5.376112	-0.776145	-0.963135	-0.245361	0.457275	37.044965	-81.762530	108.948531
37013		17.080964	-3.706286	15.668192	1.596403	-5.375715	0.117572	-0.925537	-0.247070	0.486328	55.535200	-83.975343	91.242041
37014		16.965304	-1.671443	17.122069	1.560083	-5.217996	0.871003	-0.893066	-0.240723	0.492676	85.526683	-85.489411	62.031073
37015		16.696913	0.391237	18.266068	1.432040	-4.812099	1.246475	-0.862061	-0.242920	0.497314	123.255794	-85.494625	25.016566
37016		15.953721	1.780107	18.718080	1.251728	-4.189369	1.141579	-0.824951	-0.226807	0.495117	147.961623	-84.207316	0.937291
37017		14.352453	1.631577	18.860760	1.061504	-3.436220	0.537906	-0.812256	-0.221680	0.486572	158.638512	-82.574022	-9.196221
37018		12.468822	0.097375	19.570112	0.973634	-2.693381	-0.345866	-0.795410	-0.211426	0.492920	161.544888	-81.054473	-11.566514
37019		11.937564	-0.561276	20.477143	0.944650	-1.999791	-0.975770	-0.776367	-0.216064	0.472900	161.138575	-79.785990	-10.603862
37020		11.723344	-1.839316	20.808072	0.889600	-1.363910	-1.088751	-0.760010	-0.193115	0.467773	159.905759	-78.840366	-8.828466
37021		11.988893	-3.457220	20.017440	0.884642	-0.804094	-0.814338	-0.751953	-0.192383	0.460693	159.065102	-78.244891	-7.451278
37022		37.875080	-9.798530	29.156126	1.157117	2.445605	0.333128	-0.766357	-0.184570	0.460693	158.008725	-79.618111	-5.697255
37023		15.664291	-1.654503	19.472768	1.147427	4.081104	0.799501	-0.781982	-0.179443	0.460205	155.592588	-81.952874	-2.581489
37024		6.874411	-2.908976	4.897261	1.270076	5.334859	0.819492	-0.800293	-0.172607	0.452148	147.196363	-84.869496	6.602204
37025		11.732169	2.605170	-0.505993	1.358238	4.954285	0.297083	-0.829590	-0.166260	0.445557	120.429109	-87.025826	34.211908
37026		16.307952	3.390685	-7.597410	0.792527	6.102114	0.916098	-0.843750	-0.158447	0.434326	46.056040	-87.161887	109.112477
37027		10.147728	-0.463237	3.388256	0.281069	6.688587	1.043641	-0.870361	-0.161865	0.413086	14.106304	-84.019334	141.304128
37028		4.562039	-2.856506	10.676858	0.214295	5.202219	0.578228	-0.894287	-0.153076	0.404785	7.456238	-81.148012	148.134019
37029		6.046052	0.507662	7.450093	0.052667	3.442639	0.441268	-0.906738	-0.153564	0.390137	4.799597	-79.207434	150.862001
37030		4.094170	0.343692	7.210636	-0.041338	1.979787	0.392245	-0.914307	-0.148926	0.387939	3.272643	-78.091665	152.397359
37031		4.466343	-0.354975	5.836682	-0.022588	0.914921	0.254605	-0.924072	-0.137695	0.387207	2.450054	-77.568352	153.227240
37032		8.262797	-0.057434	3.041111	-0.010306	0.343950	0.137098	-0.925537	-0.149414	0.392334	2.066456	-77.374621	153.616332
37033		9.045224	-0.152949	2.514799	-0.026133	0.265759	0.125880	-0.919678	-0.156250	0.382813	1.697714	-77.217246	153.980652
37034		9.112099	-0.078912	2.457202	-0.037000	0.243519	0.093376	-0.922363	-0.150635	0.383789	1.435623	-77.079348	154.229922
37035		8.624716	-0.226081	2.718718	-0.031612	0.167365	0.091201	-0.928711	-0.146973	0.379639	1.169976	-76.977040	154.485615
37036		8.990116	-0.273549	2.491471	-0.030027	0.079591	0.049797	-0.926514	-0.145752	0.382813	1.035985	-76.932123	154.607686
37037		9.390770	-0.136631	2.332939	-0.025025	0.048274	0.017361	-0.920898	-0.149658	0.385498	0.965625	-76.896934	154.666879
37038		9.367022	-0.173976	2.337650	-0.023363	0.035083	0.007153	-0.925537	-0.150879	0.376465	0.943284	-76.877036	154.678266
37039		9.436932	-0.169730	2.321010	-0.015103	0.018958	-0.007345	-0.917480	-0.151611	0.386230	0.940756	-76.858402	154.673651
37040		9.543311	-0.087729	2.269188	-0.011766	0.019282	-0.017789	-0.924316	-0.146240	0.380615	0.986900	-76.847316	154.621533
37041		9.560628	-0.031386	2.256574	-0.011931	0.019346	-0.010721	-0.919922	-0.144043	0.382568	0.994325	-76.828445	154.608557
37042		9.557853	0.070546	2.275294	-0.008504	0.022581	0.011438	-0.916748	-0.149658	0.379883	0.970552	-76.815753	154.630162
37043		9.544501	-0.006456	2.305892	-0.020713	0.030153	0.026177	-0.917969	-0.148682	0.373291	0.882496	-76.791063	154.710092
37044		9.536048	-0.072939	2.264915	-0.021287	0.033985	0.037860	-0.923340	-0.150635	0.384277	0.786755	-76.772045	154.798102
37045		9.466142	-0.149762	2.276063	-0.020152	0.035638	0.036935	-0.934326	-0.144043	0.379639	0.673323	-76.744254	154.904451
37046		9.446017	-0.140528	2.304823	-0.017474	0.032419	0.031083	-0.927002	-0.145996	0.376221	0.596872	-76.726021	154.974905
37047		9.510113	-0.085292	2.280968	-0.015676	0.034865	0.026173	-0.932617	-0.145996	0.381592	0.512820	-76.698562	155.053722
37048		9.443698	-0.112780	2.316598	-0.015872	0.029420	0.034437	-0.925049	-0.152588	0.383057	0.429682	-76.682016	155.132002
37049		9.442190	-0.082086	2.325306	-0.020251	0.036547	0.027979	-0.927734	-0.139160	0.377686	0.339225	-76.653571	155.214725
37050		9.484942	-0.130680	2.290971	-0.015226	0.030220	0.030430	-0.922363	-0.152100	0.379883	0.266591	-76.636502	155.282604
37051		9.492611	-0.104988	2.332481	-0.012938	0.033519	0.028602	-0.927246	-0.145508	0.377441	0.179467	-76.609762	155.366224
37052		9.510445	-0.087148	2.315705	-0.014511	0.032887	0.034721	-0.933350	-0.151611	0.375732	0.097340	-76.591126	155.444296
37053		9.458339	-0.108415	2.312129	-0.016324	0.033206	0.038997	-0.935547	-0.156982	0.376465	-0.016025	-76.564532	155.552919
37054		9.433983	-0.114171	2.321502	-0.019525	0.032830	0.042338	-0.933105	-0.148193	0.377197	-0.118734	-76.545859	155.649215
37055		9.461603	-0.136856	2.331858	-0.020684	0.031188	0.043230	-0.930908	-0.152588	0.375000	-0.243941	-76.520341	155.767471
37056		9.428278	-0.137421	2.307818	-0.017767	0.024256	0.039840	-0.925781	-0.143066	0.379639	-0.339174	-76.506499	155.857131
37057		9.381823	-0.212467	2.311170	-0.017115	0.022298	0.036453	-0.925537	-0.152832	0.380615	-0.445599	-76.486026	155.958196
37058		9.445223	-0.155646	2.377841	-0.015311	0.021985	0.032162	-0.932861	-0.142578	0.381104	-0.520757	-76.473453	156.028668
37059		9.477970	-0.131193	2.320646	-0.015340	0.016475	0.033363	-0.929932	-0.139648	0.378906	-0.618481	-76.456282	156.121844
37060		9.496256	-0.113657	2.302479	-0.016240	0.019393	0.034891	-0.927002	-0.145996	0.375732	-0.700417	-76.445125	156.198750
37061		9.486000	-0.144006	2.357164	-0.015523	0.022054	0.039187	-0.928955	-0.145264	0.383057	-0.811440	-76.424674	156.305515
37062		9.480620	-0.128645	2.345656	-0.013438	0.022653	0.045018	-0.931885	-0.147461	0.372070	-0.915317	-76.411498	156.406655
37063		9.452742	-0.183048	2.329221	-0.017095	0.026944	0.044069	-0.925781	-0.144043	0.381592	-1.037980	-76.388128	156.524491
37064		9.475118	-0.152572	2.330960	-0.010906	0.021352	0.054505	-0.930664	-0.143555	0.381592	-1.162403	-76.375494	156.648281
37065		9.502753	-0.176100	2.340801	-0.017532	0.030727	0.048641	-0.929443	-0.147461	0.384277	-1.295167	-76.349809	156.776277
37066		9.478363	-0.183110	2.349886	-0.010618	0.030548	0.062768	-0.930176	-0.145996	0.370361	-1.437764	-76.331659	156.918960
37067		9.449266	-0.170740	2.345228	-0.017780	0.028047	0.056247	-0.933105	-0.149658	0.376953	-1.587797	-76.307274	157.064612
37068		9.448970	-0.210435	2.342178	-0.018021	0.029007	0.054391	-0.928467	-0.150879	0.374512	-1.714250	-76.289979	157.186337
37069		9.447720	-0.181642	2.350632	-0.016437	0.029645	0.048270	-0.931885	-0.145020	0.376465	-1.843771	-76.264690	157.311698
37070		9.437419	-0.247045	2.400233	-0.018076	0.027155	0.046091	-0.931152	-0.150146	0.369141	-1.950283	-76.248490	157.412884
37071		9.479595	-0.263249	2.371071	-0.013736	0.026414	0.042447	-0.924805	-0.151611	0.375244	-2.064132	-76.225076	157.523728
37072		9.460578	-0.222424	2.313762	-0.015539	0.033150	0.036623	-0.933105	-0.146484	0.372314	-2.146035	-76.205554	157.601089
37073		9.416828	-0.214499	2.348335	-0.012131	0.029810	0.035721	-0.945801	-0.147217	0.384766	-2.242345	-76.180292	157.694839
37074		9.495302	-0.185548	2.371381	-0.009840	0.030342	0.034512	-0.932129	-0.147705	0.377930	-2.315843	-76.162370	157.766923
37075		9.494088	-0.155434	2.380150	-0.013489	0.033754	0.042417	-0.933105	-0.136475	0.376953	-2.427460	-76.134653	157.875658
37076		9.540330	-0.157591	2.371391	-0.019645	0.040354	0.049072	-0.937256	-0.149170	0.369385	-2.538790	-76.110577	157.980939
37077		9.534577	-0.143254	2.362114	-0.026007	0.050672	0.053277	-0.938232	-0.145020	0.371582	-2.679933	-76.072821	158.112736
37078		9.538080	-0.203058	2.375220	-0.028472	0.061256	0.059041	-0.933838	-0.141846	0.377930	-2.816018	-76.036392	158.238344
37079		9.673784	-0.216231	2.325734	-0.031386	0.073754	0.061126	-0.930420	-0.143311	0.383545	-2.974022	-75.985083	158.384393
37080		9.703561	-0.159309	2.371773	-0.029045	0.084445	0.066311	-0.939453	-0.143555	0.382324	-3.122625	-75.935008	158.522617
37081		9.846817	-0.113189	2.369923	-0.012273	0.106629	0.119274	-0.935303	-0.135498	0.375488	-3.395313	-75.862830	158.798279
37082		10.050960	0.038808	2.337778	-0.005808	0.144444	0.173522	-0.934326	-0.145996	0.373535	-3.761495	-75.774302	159.174739
37083		9.542147	-0.404782	2.467794	0.001939	0.169998	0.196841	-0.939209	-0.147461	0.371826	-4.183065	-75.662065	159.612673
37084		9.731079	-0.535437	2.432981	0.006054	0.174833	0.172854	-0.934814	-0.147217	0.370850	-4.525553	-75.554964	159.972039
37085		9.820196	-0.444557	2.444496	0.009380	0.188106	0.149189	-0.943359	-0.143066	0.367920	-4.822322	-75.433334	160.285903
37086		10.162926	-0.454725	2.448669	0.011267	0.217345	0.127897	-0.945068	-0.144287	0.368408	-5.045368	-75.303283	160.525302
37087		12.757938	-0.742601	2.369258	0.011576	0.294859	0.079576	-0.943359	-0.142090	0.366699	-5.160335	-75.123760	160.652823
37088		14.726800	-0.303528	2.481181	0.043313	0.573261	0.061207	-0.950928	-0.143799	0.365479	-5.146784	-74.793810	160.666697
37089		15.128639	-0.548538	2.302817	0.041517	0.852052	0.134094	-0.952881	-0.148438	0.363281	-5.245904	-74.293764	160.795894
37090		16.237760	-0.690930	2.355291	0.070221	1.154112	0.156329	-0.959717	-0.139893	0.363770	-5.296135	-73.627405	160.892242
37091		17.937216	-0.246121	2.352352	0.103957	1.532815	0.075704	-0.970703	-0.142822	0.355225	-5.121169	-72.742409	160.773220
37092		17.788376	-0.963285	2.104611	0.134756	1.957609	0.012943	-0.973389	-0.132568	0.350342	-4.758600	-71.624625	160.475744
37093		17.634946	-0.666752	2.072613	0.163612	2.314636	0.004332	-0.994141	-0.135498	0.341309	-4.371016	-70.296702	160.166201
37094		19.213514	0.477848	2.158650	0.175204	2.705203	0.045653	-1.004150	-0.143311	0.317383	-4.029437	-68.749275	159.911047
37095		21.024382	0.576844	1.779366	0.130668	3.170039	0.126918	-1.017578	-0.138672	0.303955	-3.830921	-66.927418	159.778539
37096		22.637536	0.345726	1.403876	0.083220	3.723045	0.247186	-1.033203	-0.142822	0.293213	-3.776578	-64.789858	159.773584
37097		23.891638	0.173137	0.445866	-0.000636	4.376520	0.309297	-1.050537	-0.146729	0.260742	-3.801949	-62.272638	159.802126
37098		25.277559	-0.621935	-0.460559	-0.050184	5.127549	0.423754	-1.069580	-0.140381	0.238281	-3.905460	-59.325378	159.890177
37099		25.266111	0.166376	-0.518536	-0.093522	5.891457	0.521728	-1.088623	-0.132568	0.200684	-4.061547	-55.935944	160.011444
37100		21.795367	-0.880595	0.075602	-0.126645	6.491471	0.510207	-1.108887	-0.127441	0.171387	-4.163755	-52.205511	160.050640
37101		18.761598	-4.225036	2.672718	0.020308	6.738828	0.310080	-1.115479	-0.138184	0.119873	-4.034667	-48.342803	159.897176
37102		17.115154	-5.068322	6.647434	0.296764	6.621627	-0.257875	-1.130859	-0.135010	0.074951	-3.444881	-44.566849	159.321419
37103		15.938144	-1.478764	5.096342	0.437902	6.351694	-0.829311	-1.134766	-0.145264	0.037354	-2.580083	-40.960257	158.415453
37104		18.857928	0.813711	4.098585	0.254679	6.086258	-0.841797	-1.129150	-0.147949	-0.004883	-1.924981	-37.494906	157.614120
37105		20.361428	0.815803	0.346426	0.041453	6.132644	-0.381722	-1.130615	-0.158203	-0.043945	-1.666323	-33.994350	157.208892
37106		18.290800	1.110463	-3.288792	-0.078520	6.114374	-0.093300	-1.126465	-0.151855	-0.081787	-1.611096	-30.494244	157.025117
37107		16.060525	2.116606	-6.090466	-0.134128	6.105804	-0.001784	-1.124756	-0.152832	-0.129150	-1.634473	-27.004836	156.909581
37108		10.073458	6.002981	-8.619502	-0.264882	6.111303	0.134116	-1.109375	-0.159424	-0.167236	-1.770442	-23.502797	156.877459
37109		-11.624305	13.147127	-11.971822	-0.654301	5.490829	0.914130	-1.104492	-0.157715	-0.206787	-2.311873	-20.350048	157.318457
37110		-32.345587	7.033621	-6.557497	-1.245774	3.403015	1.029093	-1.091064	-0.142334	-0.233643	-3.197000	-18.374430	157.841421
37111		-14.322849	-0.098280	-4.917887	-1.303859	0.771959	-0.036741	-1.100830	-0.138916	-0.240479	-3.935889	-17.940674	158.117385
37112		-4.326116	0.998128	-3.627104	-1.188397	-0.633565	-1.126787	-1.093506	-0.147705	-0.256592	-4.411704	-18.350004	157.465685
37113		-2.643316	1.710146	-4.184911	-1.166085	-1.674123	-1.448827	-1.106445	-0.146484	-0.252930	-4.822817	-19.377945	156.670721
37114		0.106348	0.203518	-5.087797	-1.114810	-2.275744	-1.253535	-1.104248	-0.152588	-0.260742	-5.239292	-20.740143	156.028872
37115		1.662420	-1.069377	-4.464787	-0.985824	-2.583917	-1.047010	-1.116211	-0.143555	-0.252686	-5.623162	-22.275668	155.535468
37116		2.670602	-1.683021	-3.722211	-0.815479	-2.753260	-0.917303	-1.121826	-0.155762	-0.240723	-5.932306	-23.898415	155.137708
37117		3.055140	-1.882206	-3.262017	-0.632000	-2.876812	-0.760689	-1.134766	-0.146484	-0.233154	-6.174203	-25.588845	154.849858
37118		2.211587	-2.095805	-2.753325	-0.443150	-3.029161	-0.546558	-1.150879	-0.146973	-0.218994	-6.364465	-27.348607	154.711827
37119		1.378311	-2.129209	-2.485911	-0.239774	-3.271977	-0.298156	-1.158203	-0.152588	-0.214600	-6.523595	-29.236470	154.756194
37120		1.653775	-1.955305	-2.325442	-0.041493	-3.541534	-0.102717	-1.171875	-0.146973	-0.201416	-6.645784	-31.259358	154.955765
37121		2.233818	-1.541766	-1.982054	0.145038	-3.791562	0.013394	-1.181641	-0.149170	-0.186523	-6.728096	-33.422147	155.262772
37122		3.018845	-0.920462	-1.571682	0.329116	-4.020755	0.010861	-1.190674	-0.144775	-0.164551	-6.726331	-35.709664	155.595769
37123		3.905739	-0.817888	-0.964964	0.492291	-4.212090	-0.091613	-1.208252	-0.148193	-0.154541	-6.616571	-38.119156	155.880239
37124		4.247569	-1.042113	-0.513465	0.675236	-4.367332	-0.269399	-1.213867	-0.150391	-0.129395	-6.331690	-40.623267	156.044461
37125		4.272868	-0.710169	-0.059620	0.855153	-4.519663	-0.482477	-1.232178	-0.154297	-0.109863	-5.842638	-43.234374	156.043574
37126		5.133546	-0.059366	0.361080	0.990419	-4.640017	-0.671316	-1.242432	-0.157471	-0.079590	-5.144647	-45.917851	155.860847
37127		6.383568	0.409817	0.919348	1.080814	-4.718277	-0.836702	-1.254150	-0.166504	-0.065186	-4.248897	-48.658652	155.482749
37128		7.465318	0.502307	1.798201	1.130639	-4.756701	-0.983442	-1.257324	-0.160400	-0.035645	-3.134972	-51.414967	154.877733
37129		8.749933	0.500232	2.570626	1.157812	-4.756964	-1.090464	-1.264404	-0.177246	-0.005371	-1.805146	-54.172736	154.039822
37130		9.939805	0.334166	3.249710	1.174396	-4.724594	-1.105240	-1.271484	-0.182617	0.024902	-0.276436	-56.891065	153.004800
37131		10.741368	0.074557	3.744942	1.180303	-4.674196	-1.070366	-1.280762	-0.192383	0.049072	1.433245	-59.571274	151.788708
37132		11.501939	0.219538	4.271882	1.182562	-4.625242	-0.993267	-1.286865	-0.200684	0.078369	3.335465	-62.195623	150.389874
37133		12.286812	0.825925	4.904884	1.148525	-4.590873	-0.880943	-1.300537	-0.204590	0.115234	5.404702	-64.788777	148.812839
37134		12.701974	1.195882	5.729146	1.069714	-4.596656	-0.752986	-1.302979	-0.208984	0.144287	7.665933	-67.356490	147.012468
37135		12.895671	1.202815	6.733359	0.983108	-4.652293	-0.612129	-1.315918	-0.221191	0.170898	10.175021	-69.944573	144.923808
37136		13.619132	1.613637	8.305064	0.888672	-4.726450	-0.462214	-1.328857	-0.212158	0.216064	13.062554	-72.544184	142.415113
37137		15.391702	2.053745	10.763393	0.764941	-4.714213	-0.320429	-1.323730	-0.213379	0.241699	16.494731	-75.118191	139.299146
37138		17.849453	2.217595	13.331800	0.613705	-4.481132	-0.232124	-1.328369	-0.218018	0.287354	20.740980	-77.509867	135.293934
37139		19.407574	2.289285	15.652601	0.470404	-3.998758	-0.267587	-1.321289	-0.217529	0.310303	26.216521	-79.559162	129.983716
37140		18.987130	2.037427	17.257485	0.330094	-3.373131	-0.383764	-1.329102	-0.214355	0.344727	33.172710	-81.131118	123.122489
37141		17.002710	1.590345	17.774451	0.232470	-2.756291	-0.489988	-1.324463	-0.226563	0.367676	41.395364	-82.224670	114.948815
37142		15.017717	1.563923	17.480353	0.166769	-2.247322	-0.455436	-1.325928	-0.221191	0.399658	49.988383	-82.938141	106.382206
37143		13.432266	1.404767	16.715841	0.093997	-1.835381	-0.284388	-1.321045	-0.231689	0.408447	57.975088	-83.427849	98.394668
37144		12.014569	0.610411	15.994269	0.065635	-1.464997	-0.201066	-1.320068	-0.221436	0.425781	65.070344	-83.725838	91.294722
37145		48.610994	2.309149	20.912936	0.144778	-0.593600	0.138786	-1.325928	-0.231934	0.429443	67.733212	-83.935517	88.701544
37146		-1.897122	-5.573085	21.512356	0.036181	1.599276	0.670983	-1.333984	-0.216553	0.425537	58.482597	-83.862115	98.027617
37147		9.665105	-0.247285	20.670408	0.155600	2.104536	1.225771	-1.343994	-0.208740	0.410645	45.840176	-83.674566	110.836053
37148		7.859591	-3.449418	18.482034	0.109823	2.534319	1.908809	-1.358154	-0.197021	0.400635	30.588893	-83.204999	126.252010
37149		8.799673	-1.326942	0.788273	0.222997	2.238439	1.651540	-1.375000	-0.190186	0.386475	19.542846	-82.434387	137.515379
37150		12.355916	-1.762853	-0.666878	0.374500	2.109096	1.242625	-1.384521	-0.178467	0.368652	12.565747	-81.467706	144.780322
37151		12.603444	0.246846	1.712931	0.160026	2.574950	0.886279	-1.390625	-0.171631	0.350342	7.937935	-80.098259	149.563102
37152		8.830930	0.985454	4.685516	-0.444964	2.488203	0.738364	-1.400879	-0.165527	0.336670	4.611143	-78.726857	152.690058
37153		2.820999	-2.467748	6.954452	-0.463875	1.528502	0.437751	-1.401855	-0.156982	0.316895	2.850803	-77.861812	154.218247
37154		6.567393	-1.028969	3.800423	-0.152369	0.504679	0.165789	-1.409180	-0.155029	0.314941	2.278739	-77.577271	154.716546
37155		9.030896	-0.599519	2.353007	-0.050886	0.173284	0.059670	-1.408936	-0.154785	0.317627	2.066625	-77.471161	154.905851
37156		9.643395	-0.041211	2.067477	-0.036317	0.174108	0.020320	-1.408691	-0.158936	0.316650	1.988269	-77.371977	154.967001
37157		9.383450	-0.123596	2.237781	-0.026408	0.162299	0.009008	-1.410400	-0.154785	0.313232	1.924680	-77.271049	155.018565
37158		9.317720	-0.069081	2.223744	-0.017866	0.147026	-0.002562	-1.410889	-0.156006	0.311279	1.918737	-77.186908	155.016352
37159		9.330193	0.091310	2.327184	-0.017431	0.119666	0.015480	-1.408691	-0.166992	0.315186	1.848784	-77.110537	155.079737
37160		9.281554	0.051983	2.344815	-0.019873	0.086196	0.024061	-1.410889	-0.153320	0.314697	1.780671	-77.061717	155.140126
37161		9.346546	0.004572	2.308350	-0.028899	0.067463	0.025635	-1.409912	-0.156250	0.309570	1.684331	-77.015400	155.223877
37162		9.360671	-0.060750	2.264228	-0.026724	0.048781	0.028687	-1.410156	-0.155518	0.305908	1.604505	-76.988044	155.292279
37163		9.477041	-0.056633	2.236150	-0.028869	0.045388	0.023462	-1.409668	-0.159668	0.310791	1.516114	-76.954314	155.367913
37164		9.448876	-0.109393	2.222730	-0.028981	0.043467	0.015155	-1.407227	-0.157227	0.314941	1.469380	-76.929760	155.401034
37165		9.485086	-0.099736	2.272210	-0.026323	0.042960	0.008679	-1.416748	-0.155273	0.316895	1.419642	-76.897225	155.438493
37166		9.493244	-0.075170	2.223077	-0.018624	0.044405	0.002795	-1.414551	-0.154541	0.302979	1.409461	-76.871948	155.440181
37167		9.538588	-0.038957	2.219469	-0.014494	0.043781	0.006146	-1.406738	-0.158936	0.306152	1.372957	-76.838952	155.471011
37168		9.517735	0.007389	2.254264	-0.014009	0.044662	0.009204	-1.415283	-0.161621	0.316650	1.349829	-76.813614	155.488714
37169		9.474698	-0.016537	2.285245	-0.016450	0.044240	0.017495	-1.412598	-0.149170	0.313232	1.284848	-76.780552	155.547646
37170		9.473689	-0.018655	2.289408	-0.018732	0.043708	0.018720	-1.407715	-0.156738	0.313477	1.236150	-76.755874	155.588839
37171		9.486988	-0.014965	2.254009	-0.019166	0.039261	0.025166	-1.410400	-0.152344	0.306152	1.151833	-76.725773	155.666054
37172		9.467535	-0.038749	2.278007	-0.023962	0.039129	0.025781	-1.413818	-0.166016	0.310547	1.083651	-76.703773	155.724196
37173		9.467363	-0.075900	2.276214	-0.020348	0.032127	0.027309	-1.416992	-0.161621	0.310303	0.994473	-76.677787	155.805725
37174		9.462342	-0.093556	2.260111	-0.020604	0.030318	0.026075	-1.415527	-0.159912	0.311768	0.928316	-76.660801	155.863776
37175		9.461681	-0.096267	2.262763	-0.017699	0.026123	0.022080	-1.422852	-0.164795	0.311035	0.854058	-76.638212	155.931543
37176		9.465399	-0.084217	2.284076	-0.014966	0.022036	0.025145	-1.412842	-0.150146	0.310791	0.793995	-76.625931	155.986658
37177		9.451343	-0.096448	2.234396	-0.017048	0.026896	0.018075	-1.415039	-0.163330	0.303467	0.730139	-76.602887	156.044124
