// General information: 
//  MT Manager version: 2022.2.0 
//  XDA version: 2022.2.0 build 7381 rev 124627 built on 2023-07-19
// Device information: 
//  DeviceId: 00B4C223
//  ProductCode: MTW2-3A7G6
//  Firmware Version: 4.6.0
//  Hardware Version: 2.0.0
// Device settings: 
//  Filter Profile: human(46.1)
//  Option Flags: Orientation Smoother Disabled, Position/Velocity Smoother Disabled, Continuous Zero Rotation Update Disabled, AHS Disabled, ICC Disabled
// Coordinate system: ENU
PacketCounter	SampleTimeFine	Acc_X	Acc_Y	Acc_Z	Gyr_X	Gyr_Y	Gyr_Z	Mag_X	Mag_Y	Mag_Z	Roll	Pitch	Yaw
28496		-3.247696	-0.756631	9.376262	-0.004330	-0.001636	0.005575	-1.065186	0.340820	-0.535645	-4.472758	18.829529	129.565841
28497		-3.230676	-0.754432	9.393523	-0.007144	0.001175	0.003820	-1.060547	0.352783	-0.535400	-4.474451	18.830599	129.566017
28498		-3.246691	-0.742582	9.407369	-0.002014	-0.000373	0.002054	-1.062012	0.344482	-0.539551	-4.473788	18.831005	129.565108
28499		-3.237777	-0.775985	9.403689	-0.005052	-0.002780	0.004842	-1.060547	0.347168	-0.538086	-4.474024	18.829862	129.566089
28500		-3.213453	-0.752815	9.410808	-0.006156	-0.000485	0.002499	-1.060059	0.339355	-0.540283	-4.475597	18.830367	129.565241
28501		-3.253490	-0.764556	9.417605	-0.003039	-0.002407	0.002788	-1.063232	0.343262	-0.533936	-4.475085	18.829345	129.564964
28502		-3.237435	-0.776906	9.403731	-0.003609	-0.000493	0.006308	-1.065186	0.353027	-0.533203	-4.474460	18.829930	129.564177
28503		-3.247273	-0.758855	9.376229	-0.006574	-0.000738	0.000301	-1.059326	0.346924	-0.530518	-4.476483	18.829750	129.562320
28504		-3.264221	-0.761846	9.358929	-0.004331	-0.001637	0.005575	-1.061768	0.348389	-0.536133	-4.476497	18.829473	129.565327
28505		-3.229990	-0.756907	9.393560	-0.003039	-0.002407	0.002788	-1.070801	0.348145	-0.532715	-4.475985	18.828451	129.565050
28506		-3.219932	-0.775662	9.421078	-0.006764	-0.002264	0.005432	-1.066162	0.344482	-0.528809	-4.477391	18.827824	129.566358
28507		-3.228551	-0.742879	9.424818	-0.004750	-0.001891	0.003377	-1.072510	0.341797	-0.535645	-4.477753	18.827124	129.566412
28508		-3.229425	-0.757890	9.393675	-0.003344	-0.003297	0.004254	-1.063477	0.345215	-0.536133	-4.477429	18.825703	129.564035
28509		-3.269429	-0.769611	9.400487	-0.006157	-0.000484	0.002500	-1.064209	0.341797	-0.533447	-4.478788	18.825766	129.563493
28510		-3.219335	-0.777024	9.421169	-0.004332	-0.001637	0.005576	-1.070557	0.346680	-0.540039	-4.478745	18.825554	129.563045
28511		-3.222050	-0.737789	9.383494	-0.003003	0.001286	0.003377	-1.062012	0.349121	-0.532959	-4.478153	18.826668	129.562948
28512		-3.252250	-0.768024	9.417751	-0.007905	-0.003661	0.002501	-1.060059	0.353271	-0.529541	-4.480734	18.825189	129.562218
28513		-3.196121	-0.769327	9.397029	-0.004409	0.002692	0.002501	-1.058350	0.343018	-0.538086	-4.481140	18.827067	129.561526
28514		-3.237839	-0.726766	9.397362	-0.003649	-0.004187	0.005720	-1.063965	0.349854	-0.533447	-4.480647	18.825466	129.564587
28515		-3.212836	-0.772372	9.379804	-0.005055	-0.002781	0.004844	-1.061523	0.347168	-0.533691	-4.480884	18.824323	129.565568
28516		-3.245695	-0.763154	9.376426	-0.006158	-0.000484	0.002501	-1.056396	0.349609	-0.535156	-4.482531	18.824618	129.565828
28517		-3.234718	-0.767176	9.435076	-0.003611	-0.000495	0.006310	-1.062500	0.343750	-0.529785	-4.481689	18.824846	129.567586
28518		-3.267626	-0.757784	9.431697	-0.004752	-0.001891	0.003378	-1.067627	0.348633	-0.544434	-4.482328	18.824393	129.568214
28519		-3.244505	-0.749221	9.407596	-0.003003	0.001286	0.003378	-1.066406	0.345215	-0.539063	-4.481737	18.825507	129.568118
28520		-3.211433	-0.759271	9.410978	-0.007907	-0.003660	0.002502	-1.061768	0.346680	-0.537598	-4.484252	18.824202	129.566765
28521		-3.228257	-0.762267	9.393722	-0.004334	-0.001638	0.005577	-1.060059	0.342529	-0.531250	-4.483950	18.823745	129.568135
28522		-3.251326	-0.771394	9.417795	-0.005741	-0.000231	0.004701	-1.067139	0.350586	-0.538086	-4.462517	18.831244	129.140282
28523		-3.235283	-0.783931	9.403889	-0.005057	-0.002781	0.004844	-1.072021	0.348877	-0.538574	-4.462726	18.830110	129.141211
28524		-3.220735	-0.742252	9.383593	-0.004753	-0.001891	0.003379	-1.060791	0.348633	-0.532959	-4.463426	18.829583	129.101305
28525		-3.243700	-0.751410	9.407700	-0.004753	-0.001891	0.003379	-1.066162	0.348145	-0.530273	-4.463761	18.828893	129.101307
28526		-3.234948	-0.784978	9.403916	-0.005132	0.001550	0.001770	-1.056396	0.344727	-0.538818	-4.465027	18.830258	129.101426
28527		-3.236608	-0.731193	9.397443	-0.005741	-0.000232	0.004702	-1.059570	0.342773	-0.538818	-4.465695	18.830574	129.102149
28528		-3.227805	-0.764688	9.393681	-0.004335	-0.001639	0.005578	-1.066406	0.350830	-0.534180	-4.465458	18.830507	129.125842
28529		-3.220423	-0.744005	9.383562	-0.003879	-0.002912	-0.001610	-1.064697	0.345703	-0.535645	-4.466248	18.829011	129.122882
28530		-3.250615	-0.774305	9.417801	-0.007452	0.000285	0.005293	-1.062988	0.343994	-0.537109	-4.468122	18.829826	129.110422
28531		-3.227419	-0.765906	9.393714	-0.005058	-0.002782	0.004845	-1.059326	0.346436	-0.526123	-4.468333	18.828692	129.111351
28532		-3.243277	-0.753961	9.407641	-0.003308	0.000394	0.004846	-1.069336	0.347168	-0.533936	-4.467872	18.829577	129.127551
28533		-3.228511	-0.781066	9.362470	-0.003727	0.000142	0.002647	-1.058105	0.344482	-0.531494	-4.467792	18.830016	129.127016
28534		-3.242233	-0.739658	9.438800	-0.003613	-0.000496	0.006312	-1.060303	0.345947	-0.544922	-4.467240	18.830430	129.129541
28535		-3.194399	-0.776453	9.397028	-0.004450	-0.001000	0.001913	-1.062988	0.350098	-0.535156	-4.467699	18.830184	129.128617
28536		-3.243372	-0.754831	9.407539	-0.004184	0.001414	0.009836	-1.065186	0.343262	-0.536133	-4.466684	18.831996	129.129539
28537		-3.236182	-0.733961	9.397373	-0.003044	-0.002407	0.002789	-1.063721	0.349121	-0.539795	-4.466146	18.830985	129.129209
28538		-3.217537	-0.785871	9.421050	-0.003422	0.001033	0.001181	-1.060547	0.349365	-0.530518	-4.466442	18.832116	129.117784
28539		-3.243419	-0.755552	9.407465	-0.005438	0.000659	0.003238	-1.061768	0.351318	-0.539795	-4.467236	18.832876	129.117581
28540		-3.210587	-0.765574	9.410757	-0.004715	0.001802	0.003971	-1.065186	0.351807	-0.534180	-4.467755	18.834564	129.121591
28541		-3.236506	-0.735140	9.397170	-0.003309	0.000394	0.004847	-1.062988	0.343750	-0.532471	-4.467011	18.835245	129.122372
28542		-3.244927	-0.771012	9.376049	-0.003004	0.001285	0.003381	-1.061523	0.347656	-0.528320	-4.466718	18.836536	129.118703
28543		-3.210795	-0.766222	9.410633	-0.005061	-0.002782	0.004846	-1.066650	0.343994	-0.529785	-4.466930	18.835403	129.119632
28544		-3.244866	-0.771566	9.376025	-0.003117	0.001925	-0.000285	-1.066406	0.350830	-0.529297	-4.467475	18.836825	129.121457
28545		-3.242714	-0.742576	9.438406	-0.007760	-0.000606	0.006761	-1.058838	0.343994	-0.537598	-4.468894	18.837020	129.123440
28546		-3.203733	-0.746278	9.400354	-0.003005	0.001285	0.003381	-1.065674	0.344971	-0.531250	-4.468570	18.838337	129.125952
28547		-3.251155	-0.778832	9.417241	-0.004033	-0.000749	0.004114	-1.066895	0.350342	-0.536621	-4.468367	18.838333	129.126344
28548		-3.220794	-0.749246	9.383017	-0.004033	-0.000749	0.004114	-1.059326	0.349365	-0.530029	-4.468510	18.838470	129.114018
28549		-3.250039	-0.764657	9.448421	-0.005022	0.000910	0.005438	-1.061035	0.342529	-0.539307	-4.468640	18.839472	129.115131
28550		-3.244022	-0.758745	9.407000	-0.007762	-0.000606	0.006762	-1.067627	0.336182	-0.533203	-4.470287	18.839922	129.129493
28551		-3.226759	-0.756497	9.424349	-0.000346	-0.004584	0.000874	-1.067871	0.345459	-0.536133	-4.468544	18.837582	129.128111
28552		-3.243612	-0.759137	9.407110	-0.003728	0.000142	0.002648	-1.056396	0.352539	-0.529785	-4.468778	18.838165	129.114982
28553		-3.210542	-0.769297	9.410468	-0.009209	-0.002890	0.005295	-1.062012	0.351074	-0.538330	-4.471277	18.836989	129.116187
28554		-3.236293	-0.739113	9.396931	-0.004716	0.001801	0.003973	-1.061523	0.344482	-0.530762	-4.471791	18.838683	129.127494
28555		-3.267830	-0.783910	9.399861	-0.004034	-0.000749	0.004114	-1.065674	0.344727	-0.534180	-4.471587	18.838678	129.127887
28556		-3.236276	-0.739685	9.396892	-0.004758	-0.001891	0.003381	-1.060059	0.348145	-0.535400	-4.472228	18.838149	129.130277
28557		-3.226336	-0.758489	9.424334	-0.004034	-0.000749	0.004115	-1.061279	0.344971	-0.526611	-4.472025	18.838144	129.130669
28558		-3.237359	-0.755051	9.365623	-0.007152	0.001176	0.003831	-1.065674	0.350098	-0.533447	-4.473983	18.839403	129.143684
28559		-3.227487	-0.773750	9.393048	0.001100	-0.002300	0.002341	-1.060791	0.349609	-0.535156	-4.471161	18.838432	129.143079
28560		-3.243211	-0.761702	9.407040	-0.005176	-0.002141	0.001181	-1.058350	0.343262	-0.536133	-4.472465	18.837694	129.138780
28561		-3.244191	-0.776715	9.375833	-0.004341	-0.001641	0.005581	-1.068115	0.354004	-0.536133	-4.472138	18.837245	129.140100
28562		-3.226025	-0.759750	9.424338	-0.003005	0.001284	0.003383	-1.064453	0.351318	-0.530762	-4.471789	18.838598	129.136034
28563		-3.243166	-0.762459	9.406995	-0.003729	0.000142	0.002649	-1.055420	0.355713	-0.539551	-4.471711	18.839037	129.135501
28564		-3.266233	-0.771588	9.431060	-0.004759	-0.001891	0.003381	-1.056396	0.351807	-0.532471	-4.472317	18.838601	129.140016
28565		-3.204052	-0.766433	9.368960	-0.005023	0.000909	0.005441	-1.064209	0.346191	-0.534668	-4.472447	18.839603	129.141131
28566		-3.259050	-0.751354	9.420858	-0.008183	-0.000857	0.004565	-1.066895	0.338623	-0.536377	-4.474799	18.839779	129.149978
28567		-3.260309	-0.766436	9.389546	-0.002394	0.003068	0.000451	-1.057617	0.345947	-0.531982	-4.474429	18.841790	129.147980
28568		-3.221244	-0.770099	9.351519	-0.005789	-0.003925	0.004113	-1.060303	0.351563	-0.539551	-4.475429	18.840183	129.154252
28569		-3.250177	-0.785579	9.417019	-0.003048	-0.002408	0.002790	-1.061279	0.339844	-0.535889	-4.474893	18.839172	129.153924
28570		-3.225796	-0.762435	9.424200	-0.006165	-0.000482	0.002507	-1.065186	0.339844	-0.535156	-4.476433	18.839548	129.157453
28571		-3.242816	-0.765287	9.406886	-0.004036	-0.000750	0.004116	-1.062744	0.347656	-0.533203	-4.476231	18.839543	129.157847
28572		-3.225667	-0.763103	9.424190	-0.004760	-0.001891	0.003382	-1.062500	0.343506	-0.533203	-4.476846	18.839034	129.157045
28573		-3.219524	-0.757111	9.382822	-0.005748	-0.000233	0.004708	-1.062012	0.350830	-0.537842	-4.477517	18.839351	129.157772
28574		-3.226718	-0.778503	9.392920	-0.006055	-0.001125	0.006174	-1.070068	0.343018	-0.536133	-4.478324	18.839454	129.160160
28575		-3.259726	-0.769064	9.389533	-0.003006	0.001284	0.003384	-1.061523	0.347168	-0.529297	-4.477705	18.840578	129.160016
28576		-3.219562	-0.757962	9.382740	-0.004343	-0.001642	0.005582	-1.065918	0.344971	-0.535156	-4.477703	18.840249	129.155801
28577		-3.235200	-0.746083	9.396757	-0.004497	-0.004691	0.001322	-1.064453	0.348389	-0.533203	-4.478250	18.837868	129.154695
28578		-3.242184	-0.767410	9.406930	-0.004037	-0.000750	0.004117	-1.058594	0.343262	-0.531738	-4.478353	18.838022	129.149045
28579		-3.226238	-0.779838	9.392974	-0.004037	-0.000750	0.004117	-1.069824	0.347900	-0.531250	-4.478152	18.838017	129.149439
28580		-3.242023	-0.767877	9.406948	-0.003049	-0.002408	0.002790	-1.066406	0.351807	-0.541016	-4.477938	18.837125	129.149070
28581		-3.251818	-0.749573	9.379532	-0.005025	0.000908	0.005444	-1.062256	0.345947	-0.534424	-4.478068	18.838127	129.150187
28582		-3.246931	-0.760176	9.479513	-0.004455	-0.000999	0.001917	-1.071533	0.342773	-0.541260	-4.478794	18.838126	129.141276
28583		-3.224800	-0.766328	9.424225	-0.005068	-0.002784	0.004849	-1.070068	0.348389	-0.527832	-4.479009	18.836992	129.142207
28584		-3.257552	-0.756991	9.420925	-0.005179	-0.002140	0.001182	-1.059570	0.343262	-0.537842	-4.480370	18.836142	129.119324
28585		-3.208661	-0.779395	9.410279	-0.007155	0.001177	0.003836	-1.057861	0.357178	-0.538818	-4.482039	18.837225	129.119457
28586		-3.241580	-0.770106	9.406918	-0.005069	-0.002784	0.004849	-1.068848	0.350098	-0.526611	-4.482445	18.836434	129.127879
28587		-3.224391	-0.767934	9.424234	-0.004038	-0.000750	0.004118	-1.063477	0.344482	-0.535156	-4.482244	18.836429	129.128273
28588		-3.242565	-0.785269	9.375683	-0.004038	-0.000750	0.004118	-1.056885	0.339355	-0.537109	-4.482401	18.836497	129.122761
28589		-3.217029	-0.747460	9.414129	-0.004763	-0.001891	0.003383	-1.063965	0.345703	-0.531982	-4.482740	18.835807	129.122766
28590		-3.241282	-0.771300	9.406923	-0.005444	0.000659	0.003245	-1.060059	0.346191	-0.528809	-4.483750	18.836812	129.133207
28591		-3.234170	-0.750574	9.396754	-0.003007	0.001283	0.003386	-1.067383	0.344971	-0.534912	-4.483131	18.837936	129.133064
28592		-3.234187	-0.750774	9.396732	-0.004346	-0.001643	0.005584	-1.069336	0.343750	-0.531494	-4.483112	18.837618	129.135597
28593		-3.234028	-0.750986	9.396770	-0.003051	-0.002409	0.002791	-1.066650	0.344971	-0.534668	-4.482578	18.836606	129.135269
28594		-3.231337	-0.790678	9.434294	-0.001602	-0.000127	0.004260	-1.063721	0.350098	-0.531250	-4.481291	18.837056	129.124992
28595		-3.257055	-0.760055	9.420850	-0.004039	-0.000751	0.004118	-1.064453	0.351563	-0.533203	-4.481090	18.837051	129.125387
28596		-3.225340	-0.784699	9.392877	-0.004720	0.001800	0.003980	-1.053467	0.343018	-0.530273	-4.481679	18.838627	129.122482
28597		-3.243875	-0.733197	9.369305	-0.004346	-0.001643	0.005585	-1.067139	0.347656	-0.534912	-4.481354	18.838177	129.123803
28598		-3.232903	-0.737351	9.427934	-0.003007	0.001283	0.003387	-1.070313	0.357422	-0.535889	-4.480988	18.839503	129.133973
28599		-3.248562	-0.794145	9.416858	-0.002327	-0.001268	0.003525	-1.059814	0.351807	-0.525391	-4.479914	18.839175	129.134034
28600		-3.233990	-0.752278	9.396680	-0.004347	-0.001643	0.005585	-1.064941	0.345703	-0.536377	-4.479974	18.838803	129.129027
28601		-3.227760	-0.746092	9.355361	-0.003052	-0.002409	0.002791	-1.058105	0.340576	-0.532471	-4.479441	18.837791	129.128699
28602		-3.233708	-0.752712	9.396742	-0.004040	-0.000751	0.004119	-1.062988	0.344482	-0.532715	-4.479469	18.838009	129.135325
28603		-3.240943	-0.773984	9.406820	-0.003732	0.000142	0.002653	-1.060547	0.343018	-0.534424	-4.479391	18.838448	129.134793
28604		-3.240877	-0.774160	9.406828	-0.002635	-0.002161	0.004992	-1.066895	0.349854	-0.538330	-4.478440	18.837875	129.141337
28605		-3.233563	-0.753380	9.396738	-0.005753	-0.000233	0.004713	-1.063232	0.344482	-0.530273	-4.479113	18.838192	129.142066
28606		-3.249415	-0.741443	9.410699	-0.002328	-0.001268	0.003526	-1.056152	0.342041	-0.531006	-4.478330	18.838027	129.137192
28607		-3.224907	-0.787092	9.392826	-0.005138	0.001553	0.001780	-1.060547	0.350830	-0.533203	-4.479250	18.839232	129.136067
28608		-3.244644	-0.750255	9.337990	-0.003733	0.000142	0.002653	-1.062012	0.348877	-0.532227	-4.479418	18.839888	129.148833
28609		-3.250795	-0.756943	9.379295	-0.005028	0.000907	0.005448	-1.065186	0.347412	-0.528564	-4.479549	18.840889	129.149952
28610		-3.233833	-0.754743	9.396536	-0.003316	0.000390	0.004854	-1.067627	0.344971	-0.528320	-4.479134	18.841666	129.151522
28611		-3.257067	-0.763803	9.420543	-0.005029	0.000907	0.005448	-1.065674	0.335693	-0.531982	-4.479266	18.842666	129.152641
28612		-3.233976	-0.755239	9.396447	-0.004041	-0.000751	0.004120	-1.059570	0.342529	-0.534424	-4.479376	18.842710	129.150616
28613		-3.235167	-0.770043	9.365160	-0.003316	0.000389	0.004855	-1.061279	0.344727	-0.540039	-4.478634	18.843389	129.151401
28614		-3.216939	-0.753285	9.413696	-0.006062	-0.001126	0.006180	-1.059570	0.351563	-0.533691	-4.479377	18.843560	129.158022
28615		-3.257179	-0.764808	9.420423	-0.003008	0.001283	0.003389	-1.063721	0.343506	-0.537598	-4.478759	18.844683	129.157880
28616		-3.217072	-0.753778	9.413611	-0.003734	0.000142	0.002654	-1.064941	0.340820	-0.526855	-4.478927	18.845364	129.158905
28617		-3.227862	-0.750094	9.355006	-0.004504	-0.004689	0.001321	-1.063721	0.339111	-0.532959	-4.479478	18.842983	129.157797
28618		-3.223970	-0.775460	9.423762	-0.005029	0.000907	0.005449	-1.057861	0.342041	-0.536133	-4.479897	18.844057	129.161446
28619		-3.233770	-0.757171	9.396362	-0.004767	-0.001891	0.003385	-1.066406	0.346680	-0.531250	-4.480239	18.843367	129.161452
28620		-3.256847	-0.766309	9.420416	-0.003734	0.000142	0.002654	-1.062012	0.346436	-0.528076	-4.480414	18.843997	129.163710
28621		-3.216588	-0.755367	9.413648	-0.004767	-0.001891	0.003385	-1.062256	0.351318	-0.527100	-4.480755	18.843307	129.163716
28622		-3.223771	-0.776751	9.423724	-0.005755	-0.000233	0.004715	-1.057373	0.346436	-0.534668	-4.481771	18.843675	129.169078
28623		-3.233596	-0.758526	9.396313	-0.005755	-0.000233	0.004715	-1.062256	0.343018	-0.532471	-4.482446	18.843992	129.169808
28624		-3.240755	-0.779839	9.406401	-0.003055	-0.002409	0.002791	-1.069092	0.353516	-0.535400	-4.482149	18.843201	129.176069
28625		-3.232166	-0.744573	9.427619	-0.006481	-0.001373	0.003980	-1.063232	0.348389	-0.535645	-4.483365	18.842834	129.176409
28626		-3.216215	-0.757121	9.413635	-0.004043	-0.000751	0.004121	-1.063232	0.343506	-0.526367	-4.483464	18.843002	129.169105
28627		-3.241808	-0.726610	9.400255	-0.004768	-0.001891	0.003386	-1.060791	0.343994	-0.531006	-4.483806	18.842312	129.169112
28628		-3.233032	-0.760152	9.396376	-0.004768	-0.001891	0.003386	-1.058350	0.350098	-0.528809	-4.484444	18.841699	129.174585
28629		-3.215934	-0.758129	9.413650	-0.005448	0.000660	0.003250	-1.068359	0.344238	-0.532715	-4.485241	18.842460	129.174388
28630		-3.242867	-0.742234	9.368942	-0.003735	0.000142	0.002655	-1.067627	0.352295	-0.529785	-4.485466	18.843005	129.174628
28631		-3.256220	-0.770027	9.420329	-0.005756	-0.000234	0.004716	-1.067383	0.342773	-0.527344	-4.486141	18.843321	129.175358
28632		-3.240300	-0.782644	9.406324	-0.006482	-0.001373	0.003981	-1.061768	0.349854	-0.533447	-4.487712	18.842949	129.170566
28633		-3.232942	-0.762102	9.396248	-0.006482	-0.001373	0.003981	-1.062988	0.349365	-0.534912	-4.488928	18.842581	129.170907
28634		-3.248759	-0.750223	9.410230	-0.002022	-0.000376	0.002061	-1.062744	0.348877	-0.539063	-4.488248	18.842901	129.170084
28635		-3.232827	-0.762518	9.396254	-0.002331	-0.001270	0.003527	-1.065918	0.339111	-0.527100	-4.487176	18.842572	129.170146
28636		-3.232642	-0.762660	9.396307	-0.003365	-0.003303	0.004258	-1.064697	0.345459	-0.537354	-4.486785	18.841262	129.169645
28637		-3.242259	-0.744352	9.368984	-0.006483	-0.001373	0.003982	-1.056641	0.347412	-0.539063	-4.488002	18.840894	129.169986
28638		-3.249360	-0.765773	9.379075	-0.005079	-0.002785	0.004853	-1.071533	0.343018	-0.531738	-4.488418	18.840082	129.172660
28639		-3.215138	-0.761239	9.413671	-0.001713	0.000518	0.000595	-1.061279	0.349365	-0.536133	-4.487591	18.840643	129.170868
28640		-3.249477	-0.766129	9.379005	-0.003580	0.003185	0.006924	-1.063477	0.352539	-0.535889	-4.486921	18.843148	129.167404
28641		-3.248454	-0.751878	9.410203	-0.007780	-0.000610	0.006779	-1.066162	0.345215	-0.538574	-4.488347	18.843341	129.169397
28642		-3.232596	-0.764449	9.396177	-0.003736	0.000142	0.002656	-1.062988	0.352539	-0.534912	-4.488521	18.844017	129.163728
28643		-3.216779	-0.776842	9.382151	-0.003319	0.000387	0.004858	-1.061768	0.352539	-0.535156	-4.487781	18.844695	129.164515
28644		-3.232667	-0.764860	9.396119	-0.004045	-0.000752	0.004123	-1.066162	0.346680	-0.536865	-4.487858	18.844909	129.163882
28645		-3.225424	-0.743975	9.386038	-0.001297	0.000763	0.002797	-1.055176	0.345215	-0.533447	-4.486367	18.845709	129.163407
28646		-3.232721	-0.765138	9.396078	-0.004045	-0.000752	0.004123	-1.070557	0.347168	-0.536133	-4.486392	18.845947	129.167291
28647		-3.240046	-0.786372	9.406101	-0.003010	0.001281	0.003392	-1.055908	0.346680	-0.535400	-4.485775	18.847070	129.167151
28648		-3.255933	-0.774389	9.420071	-0.004355	-0.001646	0.005589	-1.064209	0.351074	-0.536865	-4.485697	18.846838	129.167194
28649		-3.231478	-0.751226	9.427327	-0.004355	-0.001646	0.005589	-1.062012	0.347412	-0.523438	-4.485377	18.846387	129.168519
28650		-3.242519	-0.747392	9.368652	-0.004724	0.001800	0.003988	-1.062500	0.353760	-0.540527	-4.485945	18.847920	129.169697
28651		-3.232840	-0.766339	9.395939	-0.003737	0.000142	0.002657	-1.060303	0.347656	-0.536377	-4.485870	18.848358	129.169167
28652		-3.265737	-0.756766	9.392633	-0.004356	-0.001647	0.005590	-1.070557	0.352051	-0.534424	-4.485773	18.848219	129.169922
28653		-3.232762	-0.766833	9.395925	-0.003737	0.000142	0.002657	-1.063965	0.347900	-0.533447	-4.485697	18.848658	129.169392
28654		-3.232703	-0.767135	9.395921	-0.004773	-0.001891	0.003388	-1.062500	0.351563	-0.531494	-4.486347	18.848084	129.162202
28655		-3.256010	-0.776282	9.419889	-0.004985	0.004596	0.006056	-1.058594	0.349121	-0.530273	-4.486392	18.851219	129.163513
28656		-3.248755	-0.755584	9.409802	-0.004512	-0.004688	0.001321	-1.069092	0.340576	-0.530762	-4.487239	18.848980	129.166855
28657		-3.248483	-0.755889	9.409872	-0.004356	-0.001647	0.005590	-1.058838	0.351318	-0.536133	-4.486919	18.848529	129.168180
28658		-3.225320	-0.747239	9.385815	-0.003321	0.000387	0.004860	-1.063965	0.351563	-0.531250	-4.486442	18.849358	129.167926
28659		-3.216709	-0.780634	9.381860	-0.002750	-0.001515	0.001326	-1.062744	0.346436	-0.540283	-4.486035	18.848790	129.166672
28660		-3.271454	-0.765329	9.433931	-0.004357	-0.001647	0.005590	-1.064453	0.347656	-0.530518	-4.485967	18.848556	129.166194
28661		-3.225035	-0.747930	9.385858	-0.004774	-0.001891	0.003388	-1.059814	0.354004	-0.531006	-4.486312	18.847866	129.166202
28662		-3.209089	-0.760345	9.371867	-0.002024	-0.000376	0.002062	-1.065430	0.341553	-0.540527	-4.485667	18.848097	129.167150
28663		-3.249302	-0.771792	9.378602	-0.005761	-0.000234	0.004720	-1.068115	0.345703	-0.536621	-4.486343	18.848413	129.167883
28664		-3.238365	-0.776154	9.437197	-0.002905	0.000630	0.007063	-1.067139	0.346191	-0.535156	-4.485153	18.849563	129.163279
28665		-3.240940	-0.736604	9.399776	-0.003738	0.000142	0.002658	-1.067139	0.351807	-0.530273	-4.485077	18.850002	129.162750
28666		-3.255416	-0.778949	9.419873	-0.005084	-0.002786	0.004855	-1.061768	0.345947	-0.535156	-4.485607	18.848951	129.157710
28667		-3.234583	-0.730728	9.358485	-0.004774	-0.001891	0.003389	-1.068604	0.353516	-0.531738	-4.485952	18.848261	129.157718
28668		-3.247852	-0.758672	9.409865	-0.006178	-0.000478	0.002519	-1.065186	0.343506	-0.538574	-4.487582	18.848474	129.153559
28669		-3.250310	-0.788048	9.347232	-0.003322	0.000386	0.004861	-1.066162	0.345947	-0.531006	-4.486842	18.849151	129.154349
28670		-3.234466	-0.731777	9.358444	-0.006799	-0.002268	0.005452	-1.056641	0.343018	-0.528809	-4.488188	18.848497	129.151871
28671		-3.254817	-0.780569	9.419946	-0.000360	-0.004586	0.000865	-1.075439	0.347656	-0.532471	-4.486455	18.846155	129.150484
28672		-3.207113	-0.748499	9.403209	-0.003738	0.000142	0.002659	-1.067871	0.343262	-0.536377	-4.486676	18.846646	129.147417
28673		-3.264534	-0.762309	9.392603	-0.006333	0.001667	0.008256	-1.068359	0.343262	-0.539795	-4.487020	18.848206	129.150194
28674		-3.214558	-0.770034	9.413154	-0.002645	-0.002166	0.004996	-1.067383	0.347656	-0.535889	-4.486047	18.847637	129.142563
28675		-3.247383	-0.760349	9.409892	-0.004049	-0.000753	0.004126	-1.064453	0.344971	-0.531738	-4.485851	18.847630	129.142962
28676		-3.247407	-0.760676	9.409857	-0.005453	0.000661	0.003256	-1.065186	0.350342	-0.530762	-4.486917	18.848524	129.138746
28677		-3.231672	-0.773151	9.395783	-0.003012	0.001281	0.003395	-1.059814	0.346436	-0.533203	-4.486300	18.849646	129.138608
28678		-3.248748	-0.775547	9.378484	-0.000621	-0.001790	0.002933	-1.067871	0.346436	-0.535645	-4.484630	18.849133	129.140241
28679		-3.247411	-0.761195	9.409814	-0.004466	-0.000996	0.001923	-1.065186	0.351807	-0.526123	-4.485098	18.848889	129.139322
28680		-3.224169	-0.752646	9.385778	-0.004360	-0.001648	0.005592	-1.067871	0.338623	-0.533447	-4.485098	18.848487	129.136421
28681		-3.247203	-0.761717	9.409844	-0.004360	-0.001648	0.005593	-1.062988	0.345215	-0.531738	-4.484780	18.848035	129.137747
28682		-3.208159	-0.765369	9.371777	-0.005764	-0.000234	0.004723	-1.060547	0.350098	-0.539551	-4.485705	18.848461	129.137039
28683		-3.214309	-0.772172	9.413063	-0.003012	0.001281	0.003396	-1.059570	0.347900	-0.532959	-4.485088	18.849583	129.136901
28684		-3.240007	-0.741434	9.399718	-0.003634	-0.000510	0.006329	-1.058594	0.346680	-0.533936	-4.484441	18.850099	129.142268
28685		-3.214513	-0.772439	9.412972	-0.002285	0.002419	0.004133	-1.063232	0.348389	-0.530029	-4.483281	18.851905	129.142521
28686		-3.231730	-0.774804	9.395627	-0.001609	-0.000134	0.004266	-1.064697	0.346191	-0.531982	-4.481925	18.852419	129.147372
28687		-3.241514	-0.756166	9.368296	-0.003634	-0.000510	0.006329	-1.063721	0.346680	-0.534668	-4.481064	18.852649	129.149090
28688		-3.247716	-0.762800	9.409579	-0.002285	0.002419	0.004133	-1.068359	0.346680	-0.533936	-4.480163	18.854596	129.148285
28689		-3.230832	-0.760676	9.426791	-0.005038	0.000904	0.005460	-1.059814	0.338379	-0.530029	-4.480298	18.855596	129.149411
28690		-3.224858	-0.754375	9.385403	-0.003324	0.000385	0.004863	-1.062256	0.344482	-0.535645	-4.479807	18.856378	129.150697
28691		-3.240781	-0.742468	9.399370	-0.005454	0.000662	0.003257	-1.059326	0.354004	-0.534424	-4.480607	18.857140	129.150504
28692		-3.240814	-0.742733	9.399337	-0.002026	-0.000376	0.002063	-1.060547	0.350342	-0.533447	-4.479893	18.857493	129.152185
28693		-3.272480	-0.787282	9.402083	-0.004051	-0.000753	0.004127	-1.060303	0.350342	-0.530273	-4.479698	18.857486	129.152585
28694		-3.223584	-0.740835	9.416652	-0.003064	-0.002410	0.002794	-1.067383	0.346436	-0.531738	-4.479443	18.856634	129.156268
28695		-3.247929	-0.764604	9.409359	-0.009195	0.000804	0.005918	-1.061035	0.349121	-0.531006	-4.481869	18.857597	129.157675
28696		-3.230855	-0.762753	9.426615	-0.004363	-0.001649	0.005594	-1.057129	0.343018	-0.536865	-4.481836	18.857233	129.158410
28697		-3.247894	-0.765302	9.409314	-0.003740	0.000143	0.002661	-1.053711	0.342529	-0.536133	-4.481762	18.857672	129.157882
28698		-3.239217	-0.730197	9.430623	-0.007533	-0.003405	0.004718	-1.070313	0.346924	-0.535645	-4.483552	18.856531	129.168563
28699		-3.247670	-0.766194	9.409319	-0.005455	0.000662	0.003258	-1.054199	0.343018	-0.537842	-4.484352	18.857293	129.168371
28700		-3.240386	-0.745618	9.399256	-0.006183	-0.000476	0.002522	-1.063477	0.356201	-0.530762	-4.485895	18.857627	129.167976
28701		-3.263394	-0.754927	9.423308	-0.005507	-0.003029	0.002654	-1.062256	0.350342	-0.533447	-4.486786	18.856254	129.167595
28702		-3.225335	-0.773234	9.353993	-0.007845	-0.004301	0.006185	-1.056885	0.346924	-0.536133	-4.488607	18.854442	129.169402
28703		-3.240948	-0.761367	9.368071	-0.002338	-0.001273	0.003531	-1.067627	0.343018	-0.528320	-4.487539	18.854112	129.169466
28704		-3.256827	-0.749383	9.382066	-0.003118	0.001934	-0.000271	-1.065674	0.350098	-0.538086	-4.487950	18.855580	129.168721
28705		-3.239939	-0.747282	9.399278	-0.004208	0.001386	0.009869	-1.071777	0.356445	-0.535889	-4.486757	18.857053	129.172485
28706		-3.247367	-0.768545	9.409232	-0.005768	-0.000234	0.004726	-1.060791	0.343506	-0.528320	-4.487716	18.857540	129.165154
28707		-3.255868	-0.735645	9.413230	-0.004053	-0.000754	0.004128	-1.064697	0.351318	-0.533936	-4.487522	18.857533	129.165554
28708		-3.224188	-0.760338	9.385152	-0.005768	-0.000234	0.004726	-1.062744	0.348633	-0.532715	-4.488470	18.857951	129.167555
28709		-3.240064	-0.748422	9.399145	-0.003326	0.000384	0.004865	-1.063477	0.348145	-0.526611	-4.487732	18.858627	129.168346
28710		-3.254744	-0.790819	9.419117	-0.007795	-0.000611	0.006791	-1.062988	0.346436	-0.534912	-4.489454	18.858878	129.171481
28711		-3.239103	-0.734559	9.430323	-0.000934	0.005347	0.001940	-1.065430	0.350342	-0.532959	-4.487993	18.862257	129.170271
28712		-3.241591	-0.763552	9.367670	-0.001093	-0.005724	0.000124	-1.058838	0.343018	-0.529541	-4.487060	18.859386	129.166972
28713		-3.239997	-0.749374	9.399092	-0.008420	-0.002404	0.009724	-1.068359	0.343018	-0.530273	-4.488251	18.858687	129.170828
28714		-3.239881	-0.749791	9.399099	-0.004470	-0.000995	0.001926	-1.062988	0.337646	-0.535889	-4.488977	18.858495	129.170946
28715		-3.247056	-0.771163	9.409125	-0.005094	-0.002787	0.004859	-1.062256	0.345703	-0.535400	-4.489205	18.857359	129.171884
28716		-3.246860	-0.771367	9.409176	-0.002652	-0.002169	0.004998	-1.060303	0.344971	-0.539063	-4.488201	18.856805	129.173280
28717		-3.256652	-0.752751	9.381858	-0.004313	0.002040	0.006202	-1.053955	0.348877	-0.536133	-4.487794	18.858486	129.174799
28718		-3.239685	-0.750771	9.399088	-0.004158	-0.000098	0.000459	-1.053711	0.346680	-0.536865	-4.488552	18.859053	129.178149
28719		-3.229743	-0.769868	9.426418	-0.005720	-0.004580	0.007792	-1.058838	0.341797	-0.541504	-4.488539	18.857025	129.180942
28720		-3.246771	-0.772317	9.409129	-0.002286	0.002417	0.004137	-1.068604	0.350586	-0.534668	-4.487512	18.859243	129.186577
28721		-3.247037	-0.772524	9.409020	-0.004417	0.002696	0.002532	-1.056641	0.342773	-0.536377	-4.487891	18.861135	129.185850
28722		-3.233702	-0.745066	9.357659	-0.002237	-0.001929	0.007202	-1.057373	0.346680	-0.533203	-4.486257	18.860808	129.187908
28723		-3.225136	-0.778524	9.353623	-0.006186	-0.000475	0.002525	-1.069336	0.342041	-0.545166	-4.487601	18.860888	129.187327
28724		-3.262846	-0.761047	9.423005	-0.003640	-0.000513	0.006334	-1.056152	0.350830	-0.531494	-4.486917	18.861416	129.187303
28725		-3.239667	-0.752396	9.398964	-0.004056	-0.000754	0.004130	-1.064697	0.346436	-0.531982	-4.486723	18.861410	129.187704
28726		-3.239657	-0.752526	9.398957	-0.001612	-0.000137	0.004269	-1.060059	0.344971	-0.536621	-4.485369	18.861904	129.190806
28727		-3.239666	-0.752601	9.398948	-0.003640	-0.000514	0.006334	-1.064941	0.341797	-0.531738	-4.484511	18.862134	129.192527
28728		-3.279927	-0.763898	9.405664	-0.003743	0.000143	0.002664	-1.069336	0.348389	-0.529785	-4.484650	18.862744	129.192242
28729		-3.239702	-0.752816	9.398918	0.000518	-0.000416	0.005874	-1.061279	0.342041	-0.538574	-4.481501	18.863009	129.193680
28730		-3.247109	-0.773877	9.408884	-0.005043	0.000903	0.005466	-1.063232	0.354004	-0.532715	-4.481873	18.864138	129.192546
28731		-3.216669	-0.744221	9.374824	-0.003641	-0.000514	0.006335	-1.063477	0.341797	-0.538574	-4.481016	18.864367	129.194267
28732		-3.241070	-0.767568	9.367522	-0.001926	-0.001033	0.005736	-1.067627	0.347412	-0.533447	-4.479512	18.864473	129.194667
28733		-3.239869	-0.753157	9.398834	-0.002600	0.001520	0.005605	-1.067383	0.344971	-0.536133	-4.478231	18.865832	129.195852
28734		-3.240090	-0.753229	9.398752	-0.002287	0.002416	0.004139	-1.058594	0.342773	-0.530762	-4.477317	18.867747	129.191799
28735		-3.241375	-0.767867	9.367392	-0.005099	-0.002787	0.004860	-1.063477	0.351563	-0.534668	-4.477547	18.866612	129.192737
28736		-3.247398	-0.774645	9.408721	-0.002914	0.000623	0.007073	-1.060059	0.349365	-0.538574	-4.476387	18.867677	129.196711
28737		-3.264544	-0.776788	9.391413	0.000517	-0.000417	0.005875	-1.070557	0.348877	-0.535889	-4.473238	18.867940	129.198149
28738		-3.256025	-0.741359	9.412728	-0.004731	0.001800	0.004001	-1.060547	0.351807	-0.533691	-4.473725	18.869600	129.195321
28739		-3.264757	-0.776988	9.391323	-0.001614	-0.000137	0.004270	-1.063965	0.344971	-0.536377	-4.472114	18.869952	129.195777
28740		-3.206175	-0.749383	9.433203	-0.003744	0.000143	0.002665	-1.066406	0.337158	-0.538086	-4.472274	18.870589	129.195408
28741		-3.256186	-0.741801	9.412637	-0.001614	-0.000137	0.004270	-1.059326	0.349365	-0.533447	-4.470663	18.870941	129.195864
28742		-3.247700	-0.775094	9.408580	-0.003957	-0.001411	0.007803	-1.055176	0.347168	-0.538574	-4.469883	18.870923	129.198123
28743		-3.257461	-0.756316	9.381290	-0.000885	0.000999	0.005008	-1.063721	0.342041	-0.535400	-4.467728	18.871957	129.198971
28744		-3.256501	-0.741920	9.412519	-0.002960	0.004969	0.004010	-1.064209	0.342285	-0.536621	-4.467196	18.875499	129.201208
28745		-3.248305	-0.775229	9.408359	-0.001614	-0.000137	0.004270	-1.063965	0.354248	-0.525635	-4.465585	18.875851	129.201665
28746		-3.225209	-0.766552	9.384295	-0.005045	0.000903	0.005468	-1.056641	0.342773	-0.535156	-4.466001	18.876905	129.202237
28747		-3.258122	-0.756783	9.381023	-0.002343	-0.001274	0.003533	-1.061768	0.354248	-0.532959	-4.464935	18.876574	129.202302
28748		-3.241027	-0.754686	9.398312	-0.003330	0.000383	0.004869	-1.066650	0.349121	-0.533203	-4.464428	18.877459	129.205835
28749		-3.232652	-0.788070	9.394206	-0.003330	0.000383	0.004870	-1.063232	0.346436	-0.532959	-4.463691	18.878135	129.206629
28750		-3.283882	-0.726178	9.367683	-0.002288	0.002416	0.004141	-1.060303	0.338135	-0.535156	-4.462791	18.880032	129.205262
28751		-3.225586	-0.767267	9.384108	-0.003645	-0.000514	0.006337	-1.056885	0.349365	-0.530273	-4.461934	18.880260	129.206983
28752		-3.257144	-0.743051	9.412207	-0.004374	-0.001650	0.005599	-1.060791	0.351318	-0.536621	-4.461833	18.879981	129.211636
28753		-3.248783	-0.776563	9.408084	-0.004418	0.002697	0.002535	-1.054688	0.351563	-0.540771	-4.462211	18.881874	129.210911
28754		-3.264727	-0.764598	9.422066	-0.003645	-0.000514	0.006337	-1.061279	0.342773	-0.536621	-4.461553	18.882461	129.215213
28755		-3.257469	-0.743731	9.412041	-0.002703	0.002177	0.001936	-1.059814	0.348633	-0.531982	-4.461057	18.884031	129.214152
28756		-3.274671	-0.746238	9.394680	-0.005776	-0.000233	0.004732	-1.065430	0.345703	-0.540039	-4.461957	18.884533	129.216054
28757		-3.241776	-0.756479	9.397909	-0.002030	-0.000377	0.002066	-1.060059	0.345215	-0.536133	-4.461012	18.884650	129.215191
28758		-3.231938	-0.775519	9.425202	-0.005104	-0.002787	0.004861	-1.066406	0.348389	-0.538818	-4.461435	18.883769	129.215131
28759		-3.234131	-0.736010	9.387988	-0.004475	-0.000992	0.001928	-1.059570	0.348145	-0.535156	-4.461908	18.883528	129.214214
28760		-3.219627	-0.762823	9.342566	-0.002917	0.000621	0.007076	-1.069092	0.345215	-0.531250	-4.460725	18.884660	129.215454
28761		-3.240188	-0.742955	9.429293	-0.003074	-0.002410	0.002795	-1.063965	0.347412	-0.532715	-4.460204	18.883649	129.215127
28762		-3.241532	-0.757701	9.397895	-0.006134	0.003218	0.003136	-1.059570	0.337646	-0.533203	-4.461722	18.885893	129.212325
28763		-3.234301	-0.737031	9.387849	-0.004061	-0.000754	0.004133	-1.061035	0.346191	-0.532471	-4.461531	18.885887	129.212728
28764		-3.281900	-0.769346	9.404532	-0.004061	-0.000754	0.004133	-1.068604	0.353516	-0.528320	-4.461546	18.886019	129.214613
28765		-3.225832	-0.770767	9.383736	-0.003746	0.000144	0.002666	-1.062988	0.352051	-0.536377	-4.461475	18.886460	129.214087
28766		-3.247720	-0.765452	9.439088	-0.004061	-0.000754	0.004133	-1.067383	0.341553	-0.536865	-4.461581	18.886511	129.212742
28767		-3.234233	-0.737984	9.387798	-0.003647	-0.000515	0.006338	-1.068115	0.343506	-0.533203	-4.460725	18.886739	129.214464
28768		-3.257314	-0.747109	9.411827	-0.005205	-0.002128	0.001190	-1.061035	0.352295	-0.530762	-4.461962	18.885905	129.209376
28769		-3.257467	-0.747409	9.411750	-0.002960	0.004969	0.004014	-1.060547	0.346191	-0.539063	-4.461251	18.889162	129.209437
28770		-3.232050	-0.778664	9.424905	-0.003804	-0.003546	0.002057	-1.061279	0.351074	-0.534912	-4.461506	18.887669	129.209774
28771		-3.257434	-0.747851	9.411727	-0.003333	0.000382	0.004872	-1.058105	0.350342	-0.532959	-4.460770	18.888344	129.210569
28772		-3.241596	-0.760299	9.397663	-0.004791	-0.001889	0.003395	-1.056152	0.347900	-0.531738	-4.461368	18.887846	129.212519
28773		-3.250154	-0.796075	9.376276	-0.004476	-0.000992	0.001929	-1.065186	0.349121	-0.529053	-4.461842	18.887605	129.211602
28774		-3.256020	-0.734321	9.443058	-0.003018	0.001279	0.003405	-1.061035	0.341797	-0.529053	-4.461495	18.888801	129.213171
28775		-3.248746	-0.782288	9.407623	-0.006565	-0.005058	0.003386	-1.062988	0.341309	-0.533203	-4.462819	18.886303	129.213326
28776		-3.233661	-0.740699	9.387781	-0.005206	-0.002127	0.001191	-1.064209	0.336914	-0.532715	-4.464062	18.885446	129.212382
28777		-3.265364	-0.785296	9.390421	-0.004378	-0.001652	0.005601	-1.063477	0.346924	-0.536621	-4.463751	18.884992	129.213713
28778		-3.239575	-0.747880	9.429114	-0.003333	0.000381	0.004873	-1.068115	0.351318	-0.532471	-4.463216	18.885807	129.213271
28779		-3.240805	-0.762443	9.397762	-0.003076	-0.002410	0.002796	-1.071045	0.351318	-0.538574	-4.462697	18.884795	129.212945
28780		-3.233298	-0.741632	9.387833	-0.004063	-0.000754	0.004135	-1.060791	0.345215	-0.535400	-4.462776	18.884878	129.209086
28781		-3.256409	-0.750643	9.411859	-0.002347	-0.001275	0.003534	-1.057861	0.350098	-0.537354	-4.461712	18.884547	129.209152
28782		-3.257669	-0.765272	9.380491	-0.005779	-0.000233	0.004735	-1.058838	0.348389	-0.532959	-4.462594	18.885130	129.211526
28783		-3.240658	-0.763372	9.397737	-0.003018	0.001279	0.003406	-1.063721	0.347656	-0.539063	-4.461979	18.886252	129.211394
28784		-3.240562	-0.763667	9.397746	-0.005838	-0.003923	0.004125	-1.063477	0.344727	-0.525635	-4.462972	18.884659	129.212378
28785		-3.241706	-0.778258	9.366420	-0.001617	-0.000140	0.004273	-1.067871	0.349854	-0.531982	-4.461363	18.885009	129.212836
28786		-3.231738	-0.728609	9.419178	-0.003748	0.000144	0.002668	-1.058838	0.340576	-0.529297	-4.461584	18.885403	129.211148
28787		-3.257457	-0.766372	9.380475	-0.002663	-0.002173	0.005002	-1.058350	0.346436	-0.527100	-4.460400	18.884624	129.212142
28788		-3.248695	-0.731139	9.401901	-0.003748	0.000144	0.002668	-1.056641	0.352783	-0.542236	-4.460576	18.885106	129.214515
28789		-3.224627	-0.776866	9.383647	-0.004735	0.001800	0.004007	-1.061035	0.347412	-0.532959	-4.460835	18.886552	129.214722
28790		-3.263771	-0.773555	9.421666	0.001144	0.001372	0.002944	-1.067139	0.351563	-0.534424	-4.458126	18.888019	129.215937
28791		-3.223461	-0.762610	9.414956	-0.005110	-0.002787	0.004864	-1.060303	0.345703	-0.537354	-4.458362	18.886883	129.216877
28792		-3.256245	-0.752874	9.411738	-0.003749	0.000144	0.002668	-1.066162	0.345703	-0.542725	-4.458517	18.887507	129.215464
28793		-3.240419	-0.765323	9.397661	-0.004380	-0.001652	0.005603	-1.063721	0.351807	-0.535889	-4.458208	18.887053	129.216796
28794		-3.257529	-0.767691	9.380342	-0.003019	0.001279	0.003407	-1.067627	0.351074	-0.539063	-4.457792	18.888436	129.214736
28795		-3.256211	-0.753453	9.411703	-0.002664	-0.002174	0.005002	-1.065674	0.345215	-0.534668	-4.456609	18.887657	129.215730
28796		-3.223286	-0.763614	9.414934	-0.003335	0.000381	0.004874	-1.062256	0.352783	-0.532959	-4.456099	18.888494	129.213925
28797		-3.250175	-0.747131	9.370347	-0.005051	0.000902	0.005475	-1.062256	0.350830	-0.534912	-4.456238	18.889493	129.215060
28798		-3.240507	-0.766143	9.397564	-0.000316	-0.000898	0.001467	-1.063232	0.349365	-0.532715	-4.454677	18.889436	129.214235
28799		-3.280747	-0.777195	9.404289	-0.003651	-0.000518	0.006342	-1.061523	0.347168	-0.535889	-4.453823	18.889663	129.215960
28800		-3.273363	-0.756360	9.394326	-0.003749	0.000144	0.002669	-1.059570	0.349609	-0.522705	-4.453986	18.890258	129.215474
28801		-3.239173	-0.752182	9.428909	-0.003554	-0.001180	0.010015	-1.068359	0.342529	-0.532959	-4.452348	18.890270	129.219447
28802		-3.256360	-0.754439	9.411573	-0.002703	0.002177	0.001941	-1.064941	0.349854	-0.542236	-4.452137	18.891781	129.218228
28803		-3.240819	-0.766779	9.397405	-0.002289	0.002413	0.004147	-1.064209	0.338623	-0.535889	-4.450977	18.893584	129.218490
28804		-3.273775	-0.756821	9.394146	-0.002349	-0.001275	0.003535	-1.058350	0.346436	-0.537598	-4.450085	18.893504	129.216556
28805		-3.233392	-0.746006	9.387454	-0.004382	-0.001653	0.005604	-1.063965	0.350098	-0.538818	-4.449777	18.893049	129.217889
28806		-3.257801	-0.769366	9.380111	-0.003969	-0.001416	0.007810	-1.066650	0.344727	-0.530518	-4.448996	18.893111	129.220749
28807		-3.239425	-0.753008	9.428757	-0.003020	0.001279	0.003408	-1.074219	0.349609	-0.530273	-4.448381	18.894233	129.220619
28808		-3.272201	-0.743245	9.425546	-0.005843	-0.003922	0.004126	-1.060791	0.344482	-0.537598	-4.449455	18.892329	129.217344
28809		-3.233079	-0.746836	9.387496	-0.001620	-0.000141	0.004274	-1.069336	0.342773	-0.540771	-4.447847	18.892678	129.217803
28810		-3.240572	-0.767965	9.397393	-0.003020	0.001279	0.003409	-1.068115	0.348389	-0.538818	-4.447399	18.894047	129.215342
28811		-3.266233	-0.736994	9.384161	-0.002290	0.002413	0.004148	-1.056152	0.346436	-0.535645	-4.446238	18.895850	129.215604
28812		-3.241033	-0.768172	9.397217	-0.002290	0.002413	0.004148	-1.063721	0.345703	-0.532471	-4.445275	18.897891	129.215679
28813		-3.250872	-0.749271	9.369934	-0.001206	0.000095	0.006481	-1.060547	0.341309	-0.533936	-4.443002	18.898474	129.217459
28814		-3.274180	-0.758267	9.393888	-0.006771	0.001423	0.006079	-1.067627	0.347900	-0.535645	-4.444229	18.899910	129.219061
28815		-3.241580	-0.768423	9.397008	0.000571	0.003262	0.006492	-1.054443	0.352783	-0.538086	-4.440984	18.902302	129.220699
28816		-3.248920	-0.720743	9.432436	-0.002290	0.002413	0.004148	-1.058105	0.347412	-0.534668	-4.440040	18.904349	129.221576
28817		-3.242080	-0.768521	9.396827	-0.005054	0.000902	0.005478	-1.060547	0.345459	-0.528809	-4.440180	18.905348	129.222713
28818		-3.257989	-0.756546	9.410840	-0.003021	0.001279	0.003409	-1.054688	0.348633	-0.534912	-4.439799	18.906582	129.224495
28819		-3.234848	-0.747933	9.386799	-0.004068	-0.000754	0.004137	-1.055420	0.351074	-0.546631	-4.439611	18.906576	129.224900
28820		-3.273867	-0.744758	9.424848	-0.003021	0.001279	0.003409	-1.064453	0.343018	-0.540039	-4.439153	18.908141	129.227884
28821		-3.250706	-0.736200	9.400811	-0.004481	-0.000990	0.001931	-1.064209	0.346680	-0.540771	-4.439630	18.907903	129.226968
28822		-3.266883	-0.792802	9.389261	-0.001304	0.000757	0.002808	-1.060303	0.344482	-0.531738	-4.438304	18.908976	129.224609
28823		-3.234875	-0.748781	9.386722	-0.005116	-0.002787	0.004866	-1.055664	0.343018	-0.540771	-4.438543	18.907841	129.225549
28824		-3.258272	-0.757733	9.410646	-0.000195	0.006478	0.002693	-1.067139	0.348877	-0.536133	-4.436703	18.912152	129.226281
28825		-3.235863	-0.748763	9.386383	-0.000039	0.009504	0.006980	-1.067871	0.348877	-0.539307	-4.433805	18.918132	129.227922
28826		-3.244188	-0.769746	9.395999	-0.002899	0.008656	0.004636	-1.064697	0.347656	-0.536133	-4.433220	18.923669	129.225498
28827		-3.245178	-0.769658	9.395665	0.001008	0.011536	0.006253	-1.057129	0.343750	-0.533936	-4.429895	18.930777	129.226605
28828		-3.229491	-0.767187	9.412517	0.002116	0.017257	0.006140	-1.061279	0.343994	-0.539063	-4.426257	18.941304	129.227753
28829		-3.247224	-0.754659	9.425942	-0.000530	0.023123	0.008697	-1.065430	0.352295	-0.535889	-4.423510	18.955140	129.229795
28830		-3.277712	-0.751907	9.349185	0.001881	0.028087	0.005777	-1.053223	0.333984	-0.537354	-4.420246	18.971857	129.228945
28831		-3.234979	-0.752161	9.441626	-0.004123	0.021142	0.005614	-1.065918	0.349121	-0.540039	-4.420132	18.984424	129.229220
28832		-3.257781	-0.729005	9.354967	-0.007501	0.025874	0.007432	-1.066650	0.355225	-0.530273	-4.421827	19.000012	129.230485
28833		-3.257995	-0.769255	9.391261	-0.002761	0.024072	0.003424	-1.067383	0.342041	-0.532959	-4.421408	19.014156	129.229300
28834		-3.260172	-0.769376	9.390496	-0.003719	0.021375	0.007826	-1.063721	0.343018	-0.537109	-4.420929	19.026863	129.228838
28835		-3.304652	-0.740557	9.359250	-0.004542	0.020905	0.003413	-1.065674	0.354736	-0.529541	-4.421484	19.039198	129.227793
28836		-3.296883	-0.759747	9.385824	-0.004192	0.017452	0.005006	-1.066650	0.341553	-0.535889	-4.421753	19.049612	129.226653
28837		-3.273892	-0.736918	9.392705	-0.005970	0.014286	0.004991	-1.063232	0.342773	-0.537598	-4.422714	19.058235	129.226870
28838		-3.298536	-0.745941	9.416149	-0.001805	0.014375	0.004532	-1.066162	0.347900	-0.533691	-4.421594	19.066944	129.224532
28839		-3.301080	-0.760512	9.384287	-0.007019	0.012253	0.005717	-1.062256	0.344482	-0.536865	-4.422982	19.074438	129.225283
28840		-3.283793	-0.744442	9.432643	-0.004950	0.008278	0.006708	-1.067383	0.343994	-0.539551	-4.423179	19.079728	129.225345
28841		-3.278240	-0.738054	9.391099	-0.005098	0.005254	0.002417	-1.062256	0.350342	-0.532227	-4.424012	19.083078	129.224429
28842		-3.278946	-0.738386	9.390827	-0.004631	0.009176	0.005243	-1.063721	0.341797	-0.531738	-4.424332	19.088822	129.223255
28843		-3.278425	-0.724344	9.421945	-0.004690	0.005489	0.004626	-1.059082	0.344238	-0.528809	-4.424497	19.092403	129.223663
28844		-3.297089	-0.741061	9.373044	-0.004748	0.001801	0.004008	-1.066162	0.346680	-0.535156	-4.425029	19.093765	129.224128
28845		-3.280207	-0.739268	9.390317	-0.005068	0.000902	0.005475	-1.057861	0.348877	-0.535156	-4.425173	19.094763	129.225263
28846		-3.320572	-0.750449	9.396854	-0.004077	-0.000754	0.004133	-1.057617	0.352051	-0.534912	-4.425241	19.094809	129.225363
28847		-3.286358	-0.746673	9.431573	-0.007254	-0.002498	0.003250	-1.055664	0.348145	-0.539063	-4.427026	19.093767	129.225313
28848		-3.293797	-0.768144	9.441436	-0.005068	0.000902	0.005475	-1.054199	0.349609	-0.540039	-4.427400	19.094956	129.228652
28849		-3.248225	-0.765255	9.362241	-0.006002	-0.006941	-0.000177	-1.055664	0.343506	-0.538818	-4.429077	19.091224	129.226739
28850		-3.296488	-0.743433	9.373068	-0.006526	-0.001365	0.003992	-1.059326	0.339111	-0.535645	-4.430496	19.091140	129.229335
28851		-3.279279	-0.741747	9.390445	-0.005127	-0.002786	0.004858	-1.056396	0.339844	-0.543701	-4.430740	19.090005	129.230270
28852		-3.263185	-0.754388	9.376468	-0.006265	-0.004153	0.001908	-1.058350	0.338135	-0.529541	-4.432344	19.088188	129.229654
28853		-3.272394	-0.735906	9.349325	-0.005856	-0.003919	0.004116	-1.052002	0.344971	-0.537598	-4.433135	19.086372	129.230194
28854		-3.319966	-0.768344	9.365822	-0.006935	-0.001598	0.001785	-1.052490	0.343506	-0.541016	-4.435245	19.085885	129.231124
28855		-3.278018	-0.743677	9.390733	-0.007225	-0.006851	0.006307	-1.064697	0.347168	-0.534668	-4.436342	19.082491	129.233126
28856		-3.260807	-0.742001	9.408108	-0.004428	0.002700	0.002545	-1.067627	0.355713	-0.542725	-4.436926	19.084569	129.232823
28857		-3.302359	-0.767566	9.383263	-0.005857	-0.003920	0.004117	-1.058105	0.347168	-0.531982	-4.437718	19.082753	129.233364
28858		-3.261661	-0.757075	9.376782	-0.006177	-0.004819	0.005583	-1.062500	0.348389	-0.538086	-4.438640	19.080603	129.234348
28859		-3.294044	-0.747314	9.373618	-0.004867	-0.005575	0.002774	-1.053955	0.349854	-0.539063	-4.439104	19.077782	129.234154
28860		-3.243707	-0.755704	9.394387	-0.004138	-0.004442	0.003516	-1.058838	0.349121	-0.537354	-4.439233	19.075858	129.235193
28861		-3.283679	-0.766880	9.401069	-0.003818	-0.003542	0.002050	-1.055908	0.343750	-0.539063	-4.439270	19.074166	129.234467
28862		-3.275957	-0.746159	9.391255	-0.004808	-0.001887	0.003393	-1.056152	0.345947	-0.542236	-4.439831	19.073693	129.235295
28863		-3.275722	-0.746475	9.391312	-0.003819	-0.003542	0.002050	-1.058594	0.351318	-0.534912	-4.439868	19.072001	129.234569
28864		-3.292377	-0.748877	9.374079	-0.006499	-0.005719	0.007051	-1.060303	0.346924	-0.541504	-4.440626	19.069515	129.237937
28865		-3.274903	-0.747082	9.391550	-0.003730	-0.004209	0.005725	-1.055908	0.343994	-0.531006	-4.439877	19.067605	129.239463
28866		-3.241904	-0.757636	9.394854	-0.007927	0.000057	0.003131	-1.056885	0.342529	-0.539795	-4.442317	19.068168	129.239673
28867		-3.297886	-0.756719	9.415517	-0.003410	-0.003310	0.004259	-1.056396	0.343262	-0.539551	-4.441688	19.066707	129.240271
28868		-3.257428	-0.745932	9.408967	-0.001631	-0.000145	0.004276	-1.060791	0.346191	-0.531494	-4.440245	19.067313	129.241073
28869		-3.291588	-0.750135	9.374255	-0.003350	0.000378	0.004878	-1.058350	0.345215	-0.533203	-4.439516	19.067986	129.241872
28870		-3.243084	-0.772671	9.363414	-0.003030	0.001278	0.003412	-1.056396	0.346191	-0.538574	-4.439152	19.069133	129.241918
28871		-3.292938	-0.764815	9.342785	-0.005130	-0.002787	0.004861	-1.056641	0.349854	-0.536865	-4.439397	19.067997	129.242856
28872		-3.274662	-0.748705	9.391505	-0.003610	0.003165	0.006964	-1.060791	0.348389	-0.537598	-4.438653	19.070570	129.245771
28873		-3.274845	-0.748767	9.391435	-0.001631	-0.000145	0.004277	-1.058105	0.347900	-0.537354	-4.437050	19.070917	129.246231
28874		-3.282368	-0.769944	9.401277	-0.003760	0.000145	0.002670	-1.055908	0.354980	-0.538086	-4.437204	19.071524	129.245878
28875		-3.274898	-0.749045	9.391395	-0.001631	-0.000145	0.004277	-1.063477	0.349609	-0.535156	-4.435600	19.071872	129.246338
28876		-3.276170	-0.763442	9.359973	-0.004081	-0.000755	0.004137	-1.052979	0.341797	-0.531738	-4.435665	19.072008	129.247394
28877		-3.274966	-0.749457	9.391338	-0.004749	0.001800	0.004015	-1.060059	0.343506	-0.538086	-4.435930	19.073456	129.247605
28878		-3.284754	-0.730475	9.364052	0.001869	0.002496	0.003693	-1.055908	0.342773	-0.531494	-4.432676	19.075414	129.247816
28879		-3.275500	-0.749562	9.391144	-0.007780	0.003078	0.007427	-1.055420	0.353516	-0.533447	-4.434023	19.077742	129.250029
28880		-3.260140	-0.761970	9.376915	-0.000841	0.004674	0.005640	-1.063721	0.343262	-0.537354	-4.432017	19.080985	129.252254
28881		-3.260694	-0.761883	9.376729	-0.000199	0.006474	0.002707	-1.064697	0.354248	-0.537109	-4.430005	19.085045	129.251455
28882		-3.283305	-0.756306	9.431869	-0.000112	0.005806	0.006382	-1.062500	0.344727	-0.537354	-4.427439	19.088971	129.252052
28883		-3.277799	-0.749491	9.390347	-0.002909	0.008652	0.004654	-1.058594	0.344971	-0.531982	-4.426628	19.094360	129.252329
28884		-3.301996	-0.758508	9.413933	-0.004308	0.010075	0.003789	-1.060303	0.343018	-0.535400	-4.427035	19.100583	129.251508
28885		-3.246801	-0.760200	9.392955	-0.005038	0.008943	0.003047	-1.059570	0.351563	-0.542480	-4.427766	19.106068	129.250800
28886		-3.297596	-0.752382	9.371964	-0.004309	0.010075	0.003790	-1.062744	0.349609	-0.530273	-4.428154	19.112408	129.250283
28887		-3.264359	-0.748871	9.406331	-0.009938	0.007725	0.002766	-1.065918	0.338135	-0.538330	-4.431729	19.117184	129.249462
28888		-3.306638	-0.774487	9.381187	-0.004284	0.005719	0.006845	-1.063965	0.346191	-0.538330	-4.431462	19.120978	129.249733
28889		-3.259208	-0.742852	9.364621	-0.004431	0.002701	0.002549	-1.058105	0.344482	-0.541260	-4.431848	19.122875	129.249015
28890		-3.259647	-0.743045	9.364453	-0.002242	0.006096	0.004778	-1.062256	0.341553	-0.531494	-4.430783	19.126982	129.248743
28891		-3.333309	-0.743849	9.367514	-0.003702	0.003832	0.003292	-1.063721	0.345459	-0.536133	-4.430621	19.129558	129.248421
28892		-3.307034	-0.761106	9.411954	-0.004753	0.001800	0.004015	-1.064697	0.347412	-0.534424	-4.431123	19.130988	129.247431
28893		-3.260806	-0.743770	9.363992	-0.004693	0.005487	0.004637	-1.062256	0.344238	-0.538330	-4.431289	19.134569	129.247845
28894		-3.267774	-0.750706	9.404999	-0.000870	0.009028	0.002589	-1.062744	0.342041	-0.530273	-4.429953	19.140129	129.245735
28895		-3.285550	-0.753133	9.387347	-0.010584	0.005924	0.005700	-1.050293	0.352783	-0.536621	-4.433289	19.144007	129.246771
28896		-3.326492	-0.764465	9.393630	-0.004287	0.005718	0.006847	-1.052490	0.343262	-0.539307	-4.433031	19.147882	129.249384
28897		-3.263080	-0.745135	9.363091	-0.006536	-0.001363	0.003994	-1.065430	0.341553	-0.538330	-4.434274	19.147521	129.249731
28898		-3.303516	-0.756379	9.369557	-0.004432	0.002701	0.002549	-1.057861	0.354004	-0.534668	-4.434841	19.149579	129.248395
28899		-3.285388	-0.740369	9.418274	-0.003357	0.000376	0.004879	-1.061279	0.345947	-0.546875	-4.434114	19.150251	129.249195
28900		-3.302626	-0.742700	9.400812	-0.006153	0.003224	0.003152	-1.061768	0.346436	-0.537598	-4.435584	19.152686	129.248935
28901		-3.295281	-0.722156	9.390877	-0.005891	0.000438	0.001063	-1.056885	0.350586	-0.536865	-4.437067	19.153224	129.247424
28902		-3.286955	-0.755962	9.386627	-0.007266	-0.002495	0.003251	-1.054932	0.342529	-0.531494	-4.439086	19.152304	129.247491
28903		-3.286812	-0.756429	9.386640	-0.004494	-0.000986	0.001927	-1.053711	0.351074	-0.539551	-4.439575	19.152067	129.246570
28904		-3.286558	-0.756800	9.386699	-0.004555	-0.004673	0.001303	-1.056885	0.351074	-0.538330	-4.440383	19.149840	129.246501
28905		-3.301893	-0.745218	9.400870	-0.010769	-0.005136	0.003833	-1.053467	0.356689	-0.539063	-4.444026	19.147317	129.246927
28906		-3.302734	-0.760328	9.369513	-0.008811	-0.004087	-0.001911	-1.065430	0.338867	-0.538086	-4.447933	19.145365	129.245439
28907		-3.294759	-0.740038	9.359786	-0.007006	-0.005281	0.001163	-1.064453	0.344971	-0.541016	-4.449947	19.142640	129.244258
28908		-3.292258	-0.780732	9.396928	-0.007329	-0.006182	0.002629	-1.060059	0.340576	-0.539795	-4.452024	19.139566	129.242082
28909		-3.292267	-0.727054	9.391557	-0.007068	-0.008968	0.000539	-1.060547	0.346191	-0.545654	-4.454140	19.134708	129.240698
28910		-3.322185	-0.757870	9.425520	-0.012378	-0.010414	-0.001951	-1.059814	0.343994	-0.536621	-4.459922	19.129165	129.236970
28911		-3.234004	-0.730336	9.371540	-0.006870	-0.015439	-0.002174	-1.063965	0.343994	-0.539551	-4.462361	19.120489	129.234252
28912		-3.295636	-0.805268	9.407907	-0.013025	-0.012217	0.000983	-1.061279	0.354004	-0.536865	-4.467946	19.113913	129.232320
28913		-3.303114	-0.718803	9.407061	-0.009064	-0.018833	-0.004403	-1.057617	0.346191	-0.544189	-4.472030	19.103198	129.228416
28914		-3.267819	-0.784332	9.416397	-0.010378	-0.018081	-0.001589	-1.056396	0.343994	-0.534424	-4.476520	19.093275	129.226467
28915		-3.289985	-0.739870	9.435331	-0.009712	-0.020637	-0.001468	-1.057617	0.343994	-0.532715	-4.480365	19.081661	129.224425
28916		-3.280872	-0.788279	9.400280	-0.008465	-0.025076	-0.004903	-1.059814	0.343506	-0.527344	-4.484316	19.067450	129.220764
28917		-3.303811	-0.758045	9.387971	-0.010189	-0.024553	-0.004297	-1.062256	0.342773	-0.540283	-4.488930	19.053472	129.217200
28918		-3.284347	-0.757012	9.406073	-0.006750	-0.025599	-0.005504	-1.059082	0.337646	-0.530029	-4.492005	19.038904	129.212307
28919		-3.259802	-0.763172	9.351537	-0.008450	-0.029437	-0.001845	-1.061035	0.338135	-0.536621	-4.495062	19.022246	129.210458
28920		-3.271235	-0.791914	9.403332	-0.008259	-0.018377	0.000027	-1.060547	0.345215	-0.538330	-4.497990	19.012065	129.208171
28921		-3.237368	-0.748572	9.401583	-0.006950	-0.019129	-0.002786	-1.066406	0.349121	-0.547119	-4.500530	19.001253	129.205265
28922		-3.269652	-0.753270	9.367531	-0.007595	-0.020933	0.000148	-1.059326	0.349365	-0.531738	-4.502995	18.989843	129.203462
28923		-3.248692	-0.792050	9.422367	-0.005489	-0.016867	-0.001299	-1.058350	0.337158	-0.536865	-4.504440	18.980388	129.201348
28924		-3.250671	-0.766681	9.354428	-0.006157	-0.014311	-0.001417	-1.056885	0.340332	-0.537109	-4.506521	18.972541	129.199071
28925		-3.288258	-0.763916	9.392954	-0.004437	-0.014834	-0.002022	-1.058838	0.347412	-0.531738	-4.507536	18.964215	129.196425
28926		-3.271173	-0.776540	9.379250	-0.003705	-0.013703	-0.001280	-1.071045	0.339600	-0.537598	-4.508192	18.956750	129.194498
28927		-3.245318	-0.754083	9.387138	-0.007558	-0.012887	-0.002276	-1.061768	0.344971	-0.537842	-4.511074	18.949525	129.191606
28928		-3.268842	-0.778021	9.379940	-0.011575	-0.009961	0.002494	-1.073486	0.342773	-0.543945	-4.515541	18.944343	129.189798
28929		-3.243297	-0.755717	9.387705	-0.004053	-0.010245	-0.002865	-1.068604	0.342285	-0.541748	-4.516570	18.938600	129.186426
28930		-3.249912	-0.777350	9.397772	-0.006761	-0.008069	-0.000910	-1.061523	0.347656	-0.533203	-4.518946	18.934421	129.181384
28931		-3.241632	-0.756879	9.388186	-0.005041	-0.008592	-0.001516	-1.061768	0.356689	-0.534912	-4.520302	18.929683	129.178748
28932		-3.258006	-0.759403	9.371093	-0.006028	-0.006939	-0.000168	-1.058350	0.359375	-0.532227	-4.522226	18.926104	129.177601
28933		-3.240310	-0.757888	9.388561	-0.003254	-0.005427	-0.001499	-1.058594	0.349609	-0.538818	-4.522603	18.923174	129.174824
28934		-3.256963	-0.760367	9.371377	-0.008323	-0.004536	0.003996	-1.060547	0.346191	-0.528809	-4.525055	18.921242	129.176988
28935		-3.223793	-0.770919	9.374606	0.000253	-0.002784	-0.002090	-1.067383	0.345703	-0.535156	-4.523579	18.919795	129.173728
28936		-3.268529	-0.774646	9.454097	-0.001788	-0.003165	-0.000016	-1.059326	0.350342	-0.538574	-4.523086	18.918292	129.171320
28937		-3.263517	-0.782305	9.381438	-0.008003	-0.003633	0.002530	-1.065674	0.347168	-0.535400	-4.525423	18.916569	129.170891
28938		-3.244578	-0.766756	9.430302	-0.005296	-0.005808	0.000575	-1.063965	0.341553	-0.532227	-4.526756	18.913733	129.169474
28939		-3.261194	-0.769343	9.413125	-0.007108	-0.004611	-0.002493	-1.062744	0.350830	-0.544434	-4.529548	18.911225	129.166059
28940		-3.237594	-0.761153	9.389234	-0.006375	-0.003480	-0.001751	-1.051758	0.347168	-0.534424	-4.531970	18.909631	129.162637
28941		-3.252027	-0.803898	9.408976	-0.006351	-0.007842	0.001300	-1.062012	0.341797	-0.531982	-4.533536	18.905448	129.161667
28942		-3.253628	-0.764267	9.372219	-0.006283	-0.004155	0.001924	-1.059570	0.345215	-0.539551	-4.535190	18.903591	129.161639
28943		-3.259197	-0.771558	9.413636	-0.001856	-0.006852	-0.000640	-1.069092	0.350098	-0.543457	-4.534575	18.899886	129.159450
28944		-3.235467	-0.763077	9.389811	-0.006697	-0.004383	-0.000284	-1.055176	0.346436	-0.534424	-4.536866	18.897909	129.156946
28945		-3.219265	-0.775870	9.375754	-0.007338	-0.006190	0.002650	-1.058350	0.343994	-0.538086	-4.538759	18.894731	129.156712
28946		-3.242086	-0.785298	9.399814	-0.005229	-0.002121	0.001199	-1.061768	0.344727	-0.537842	-4.539964	18.894076	129.156120
28947		-3.250046	-0.752482	9.404251	-0.004243	-0.003774	-0.000150	-1.060059	0.348633	-0.531982	-4.540668	18.892151	129.154081
28948		-3.266692	-0.754815	9.387094	-0.003578	-0.006330	-0.000032	-1.057129	0.350830	-0.534180	-4.541128	18.888954	129.152427
28949		-3.256508	-0.774406	9.414332	-0.007019	-0.005287	0.001184	-1.058838	0.349854	-0.530273	-4.543138	18.886226	129.151265
28950		-3.257377	-0.789203	9.382994	-0.007753	-0.006417	0.000443	-1.055664	0.345215	-0.537598	-4.545925	18.882980	129.150840
28951		-3.199432	-0.776866	9.393727	-0.002523	-0.004296	-0.000757	-1.062744	0.344971	-0.539795	-4.545754	18.880730	129.148459
28952		-3.254971	-0.775997	9.414733	-0.007340	-0.006190	0.002652	-1.065918	0.346191	-0.530029	-4.547808	18.877843	129.148362
28953		-3.248443	-0.769543	9.373585	-0.002617	-0.003619	-0.004432	-1.065918	0.343750	-0.536621	-4.548418	18.875812	129.143731
28954		-3.263658	-0.757802	9.387909	-0.005620	-0.006712	0.002044	-1.066162	0.348877	-0.536133	-4.549647	18.872396	129.142469
28955		-3.247280	-0.770475	9.373912	-0.006355	-0.007843	0.001303	-1.053955	0.348145	-0.537598	-4.551213	18.868213	129.141502
28956		-3.252663	-0.777940	9.415370	-0.005620	-0.006712	0.002044	-1.060791	0.351563	-0.533447	-4.552423	18.864957	129.141438
28957		-3.205665	-0.760631	9.367577	-0.006035	-0.006939	-0.000163	-1.061279	0.341797	-0.532715	-4.554105	18.861224	129.139543
28958		-3.222285	-0.763131	9.350425	-0.006286	-0.004156	0.001928	-1.065674	0.351807	-0.533447	-4.555776	18.859323	129.138960
28959		-3.269787	-0.795250	9.367005	0.001079	-0.002329	0.002325	-1.062256	0.354248	-0.543701	-4.552969	18.858336	129.138346
28960		-3.226417	-0.756295	9.423312	-0.005231	-0.002122	0.001202	-1.062744	0.346436	-0.531982	-4.554206	18.857665	129.137624
28961		-3.273996	-0.788818	9.439832	-0.009313	-0.002887	0.005354	-1.065430	0.346924	-0.536377	-4.556753	18.856498	129.138864
28962		-3.211820	-0.783757	9.377651	-0.007844	-0.000626	0.006836	-1.063965	0.345947	-0.530762	-4.558411	18.856828	129.140696
28963		-3.235618	-0.738647	9.396281	-0.003004	-0.003095	0.006476	-1.058838	0.343018	-0.534912	-4.557121	18.855592	129.142623
28964		-3.242934	-0.760201	9.406085	-0.012341	-0.001617	0.008781	-1.060303	0.350830	-0.531250	-4.560954	18.855443	129.145690
28965		-3.219262	-0.806266	9.387328	-0.009974	0.004783	0.015305	-1.062256	0.350830	-0.527344	-4.562058	18.859109	129.152567
28966		-3.235492	-0.794725	9.401294	-0.014473	0.003792	0.017250	-1.063477	0.352295	-0.534180	-4.565594	18.862367	129.161301
28967		-3.268854	-0.785178	9.397973	-0.013647	0.004243	0.021669	-1.058350	0.346680	-0.535645	-4.567552	18.866015	129.172045
28968		-3.230598	-0.788960	9.359528	-0.012915	0.005372	0.022412	-1.060547	0.349121	-0.527588	-4.569165	18.870538	129.183561
28969		-3.239659	-0.756248	9.363617	-0.012937	0.009737	0.019365	-1.066162	0.349121	-0.534180	-4.571250	18.877220	129.192650
28970		-3.224839	-0.768576	9.349099	-0.004565	0.005542	0.021461	-1.064209	0.346436	-0.531250	-4.568294	18.881672	129.203218
28971		-3.222181	-0.794477	9.417127	-0.004173	0.010132	0.020622	-1.065674	0.347168	-0.537842	-4.565116	18.888637	129.213047
28972		-3.209674	-0.765934	9.365772	-0.000320	0.009312	0.021613	-1.061279	0.350586	-0.535889	-4.559721	18.895303	129.223000
28973		-3.251383	-0.775902	9.372042	0.003587	0.016543	0.020183	-1.060547	0.347412	-0.534912	-4.552279	18.905907	129.232259
28974		-3.266826	-0.748634	9.417400	0.003781	0.005709	0.020512	-1.060547	0.345947	-0.538086	-4.544688	18.910521	129.242324
28975		-3.237715	-0.785905	9.357326	0.007294	0.008349	0.019922	-1.062988	0.347168	-0.530518	-4.535043	18.916431	129.251822
28976		-3.254287	-0.772559	9.371310	0.004424	0.007518	0.017581	-1.055176	0.348633	-0.531494	-4.527681	18.921895	129.259576
28977		-3.220916	-0.767687	9.405692	0.005245	0.007967	0.022002	-1.057861	0.344238	-0.535889	-4.518794	18.927678	129.270350
28978		-3.239228	-0.768130	9.388102	0.010552	0.013768	0.021430	-1.062988	0.347900	-0.536621	-4.507255	18.936922	129.280571
28979		-3.273172	-0.756161	9.384728	0.010728	0.007300	0.018710	-1.051758	0.345947	-0.545410	-4.495858	18.942172	129.289392
28980		-3.258320	-0.766750	9.370385	0.010726	0.007299	0.018712	-1.063477	0.344727	-0.527344	-4.484607	18.947737	129.298189
28981		-3.234448	-0.741946	9.377787	0.014987	0.006700	0.021916	-1.067139	0.350342	-0.529053	-4.470129	18.952785	129.308978
28982		-3.258308	-0.748610	9.401701	0.018592	0.003548	0.014928	-1.066650	0.346191	-0.532471	-4.455157	18.955647	129.315000
28983		-3.268145	-0.727166	9.374699	0.018926	0.000086	0.016514	-1.053223	0.345459	-0.536865	-4.439379	18.956671	129.322840
28984		-3.243094	-0.756184	9.387737	0.022931	0.001522	0.008684	-1.057861	0.344971	-0.540771	-4.423054	18.958297	129.325445
28985		-3.266874	-0.708190	9.406487	0.022939	-0.002843	0.011738	-1.067871	0.348633	-0.531982	-4.405869	18.957433	129.330537
28986		-3.267760	-0.773876	9.380660	0.028498	0.000171	0.009073	-1.064453	0.345703	-0.539551	-4.386257	18.958302	129.333298
28987		-3.258777	-0.735726	9.402555	0.028169	-0.000733	0.010544	-1.056885	0.343750	-0.531494	-4.366342	18.958588	129.337570
28988		-3.227399	-0.757092	9.374492	0.031606	-0.001785	0.009331	-1.058594	0.348389	-0.534180	-4.344864	18.958349	129.340561
28989		-3.225920	-0.739572	9.406229	0.032745	-0.000430	0.012288	-1.060791	0.345215	-0.533691	-4.321988	18.958881	129.345874
28990		-3.260150	-0.739820	9.371914	0.034135	-0.001859	0.013153	-1.059814	0.337402	-0.539063	-4.298331	18.958733	129.351594
28991		-3.211981	-0.758423	9.361136	0.042627	0.005666	0.013459	-1.062256	0.342529	-0.530518	-4.269654	18.962794	129.357338
28992		-3.243706	-0.729316	9.389651	0.045982	0.000925	0.011629	-1.064209	0.346436	-0.537109	-4.239518	18.964154	129.361016
28993		-3.239473	-0.731851	9.317159	0.047600	0.006196	0.017422	-1.056396	0.343018	-0.532715	-4.207218	18.968679	129.369136
28994		-3.199419	-0.770053	9.316213	0.057075	0.007702	0.019444	-1.062500	0.342285	-0.537598	-4.169312	18.974241	129.377990
28995		-3.174524	-0.726635	9.355135	0.062524	0.016507	0.023178	-1.064453	0.344971	-0.532227	-4.127473	18.984887	129.389144
28996		-3.172923	-0.795623	9.256524	0.071484	0.023584	0.029388	-1.063721	0.339111	-0.540039	-4.079582	18.999865	129.402848
28997		-3.027526	-0.877029	9.119451	0.088256	0.037162	0.051987	-1.049805	0.344971	-0.539063	-4.017601	19.023462	129.430554
28998		-2.984343	-0.834687	9.102283	0.108499	0.057723	0.070953	-1.062500	0.339844	-0.536377	-3.940709	19.059725	129.468547
28999		-3.170474	-0.760311	9.271621	0.129676	0.072265	0.091678	-1.059326	0.343750	-0.532227	-3.847562	19.104863	129.518895
29000		-3.302764	-0.645336	9.382637	0.137448	0.064242	0.107922	-1.052734	0.333008	-0.541748	-3.746804	19.145909	129.578519
29001		-3.381813	-0.578028	9.551796	0.125096	0.034334	0.112605	-1.058838	0.347168	-0.536377	-3.651514	19.169970	129.643203
29002		-3.231416	-0.488658	9.528823	0.101520	0.026702	0.109904	-1.058594	0.336426	-0.535889	-3.570329	19.189540	129.705820
29003		-3.189418	-0.637254	9.467158	0.070975	0.036568	0.122951	-1.056152	0.345947	-0.540039	-3.503938	19.215071	129.776775
29004		-3.239439	-0.575535	9.539382	0.039892	0.043358	0.146323	-1.055420	0.345947	-0.536621	-3.450946	19.245201	129.860608
29005		-2.820562	-0.078963	9.823325	-0.065130	0.024846	0.161896	-1.051758	0.348145	-0.537598	-3.454533	19.265273	129.955647
29006		-2.767729	-0.584745	9.480061	-0.159751	0.000531	0.188719	-1.057373	0.349121	-0.533691	-3.506884	19.272372	130.067559
29007		-3.159660	-0.523384	9.617560	-0.182326	-0.034565	0.205490	-1.058838	0.342773	-0.538574	-3.568162	19.260143	130.191207
29008		-2.823865	-0.352821	9.784121	-0.152603	0.003889	0.201265	-1.050049	0.356445	-0.541748	-3.613944	19.269729	130.309029
29009		-2.908993	-0.684833	9.819096	-0.107090	0.164518	0.178637	-1.059082	0.348877	-0.540039	-3.639899	19.370546	130.408820
29010		-2.861217	-0.407714	9.679937	-0.098943	0.310683	0.196172	-1.050537	0.354004	-0.543457	-3.659443	19.555615	130.512203
29011		-2.860719	-0.711585	9.857749	-0.113827	0.539639	0.188178	-1.044922	0.359131	-0.542725	-3.691543	19.871349	130.603304
29012		-2.734168	-1.009179	10.112860	-0.082147	0.883663	0.167725	-1.038330	0.355469	-0.544922	-3.713983	20.382973	130.667427
29013		-2.546845	-0.659470	10.048870	-0.076857	1.150219	0.164045	-1.029297	0.351563	-0.543701	-3.737117	21.046980	130.719767
29014		-2.091528	-0.371926	11.006435	-0.174196	1.524012	0.204284	-1.023926	0.349609	-0.557129	-3.812249	21.925867	130.780780
29015		-0.688287	-0.457861	12.223043	-0.346187	2.235230	0.278574	-1.003662	0.356689	-0.560791	-3.979033	23.214703	130.856821
29016		-0.723927	-0.655880	12.215985	-0.478353	3.175464	0.420658	-0.977783	0.364502	-0.578125	-4.202277	25.046818	130.975644
29017		-1.810342	-0.382442	12.201448	-0.620683	3.895417	0.610798	-0.949707	0.370605	-0.581787	-4.467951	27.299039	131.174228
29018		-3.144193	-0.608154	10.454312	-0.850616	4.491424	0.765753	-0.914063	0.376953	-0.594482	-4.829561	29.899545	131.432233
29019		-3.420696	-0.754113	9.804876	-1.023495	4.898187	0.939108	-0.873779	0.384521	-0.605469	-5.238601	32.742605	131.768992
29020		-3.802046	-0.964071	9.068142	-1.061119	5.189296	1.085586	-0.833252	0.402100	-0.619873	-5.615685	35.761271	132.175187
29021		-3.950129	-0.987488	8.570981	-1.076534	5.244541	1.185784	-0.792480	0.413574	-0.631836	-5.947488	38.819525	132.641739
29022		-2.603896	-1.653660	10.660280	-0.929020	5.099861	1.254946	-0.748779	0.423828	-0.626221	-6.133604	41.800817	133.173205
29023		0.707664	-1.722374	14.710614	-0.628912	4.561453	1.331321	-0.711426	0.427734	-0.632568	-6.042390	44.480709	133.829995
29024		-8.696317	-2.588011	23.786668	-0.432771	2.858640	1.630797	-0.679688	0.429688	-0.631836	-5.516324	46.203992	134.914665
29025		-6.904970	-3.128588	23.947566	-0.317404	0.242245	1.519265	-0.671387	0.420898	-0.627441	-4.803355	46.420737	136.148805
29026		0.102797	-3.138254	17.740675	-0.464356	-0.686561	1.351104	-0.666260	0.429688	-0.637939	-4.230806	46.088767	137.306251
29027		1.919900	-3.420171	12.550140	-0.450769	-1.153852	1.191577	-0.674561	0.430664	-0.632813	-3.741570	45.476954	138.345880
29028		2.408305	-3.448160	9.664540	-0.366350	-1.423209	1.065209	-0.685059	0.432861	-0.637451	-3.290386	44.699330	139.275937
29029		2.430846	-3.526037	8.629024	-0.288088	-1.496810	0.913866	-0.684570	0.437256	-0.643799	-2.899883	43.871515	140.068169
29030		1.800201	-3.617953	9.196476	-0.259650	-1.552125	0.728923	-0.697510	0.447266	-0.634033	-2.613358	43.001949	140.697838
29031		1.121741	-3.809380	10.015489	-0.298417	-1.687623	0.507253	-0.709229	0.438721	-0.635254	-2.478105	42.049176	141.147358
29032		0.465942	-3.821740	10.566795	-0.345097	-1.858080	0.252234	-0.714600	0.449707	-0.629639	-2.507258	40.990256	141.398217
29033		0.078768	-3.665674	10.690064	-0.369944	-2.059695	0.011594	-0.729492	0.451660	-0.635986	-2.667557	39.811947	141.474251
29034		-0.169542	-3.330030	10.616100	-0.364984	-2.237707	-0.183592	-0.744629	0.458740	-0.631104	-2.911672	38.524375	141.415360
29035		-0.427365	-2.685838	10.476042	-0.360544	-2.400377	-0.342481	-0.764404	0.445801	-0.629150	-3.212553	37.140830	141.257743
29036		-0.633311	-2.041000	10.253749	-0.369181	-2.531244	-0.457442	-0.775146	0.458008	-0.628906	-3.554053	35.675494	141.035174
29037		-0.930049	-1.449539	10.097019	-0.405275	-2.627140	-0.522119	-0.793457	0.466064	-0.619385	-3.925135	34.154211	140.788409
29038		-1.329873	-1.071540	10.085838	-0.481744	-2.682859	-0.562078	-0.805908	0.464111	-0.621094	-4.339752	32.595526	140.532695
29039		-1.881154	-1.135224	10.262916	-0.552229	-2.710387	-0.606886	-0.833740	0.468018	-0.618652	-4.793342	31.020068	140.267950
29040		-2.448011	-1.388026	10.442742	-0.600064	-2.738381	-0.642207	-0.850098	0.469971	-0.613037	-5.270278	29.422385	139.999424
29041		-3.202127	-1.632167	10.990361	-0.598644	-2.761963	-0.687421	-0.869629	0.467529	-0.620605	-5.743063	27.809605	139.723523
29042		-4.087888	-1.878174	11.687965	-0.593869	-2.822785	-0.733167	-0.896484	0.475098	-0.618408	-6.209885	26.154711	139.440191
29043		-4.869342	-2.088844	12.188498	-0.585094	-2.912283	-0.807342	-0.922119	0.471191	-0.616211	-6.672515	24.444902	139.136596
29044		-5.479236	-2.460967	12.386364	-0.574192	-3.007768	-0.888626	-0.956055	0.473145	-0.608398	-7.131001	22.670196	138.807736
29045		-6.154369	-2.933390	12.339442	-0.550713	-3.094428	-0.994254	-0.984863	0.471924	-0.599854	-7.579874	20.839010	138.441659
29046		-6.605127	-3.417759	12.107226	-0.498351	-3.162242	-1.115416	-1.016357	0.480225	-0.587402	-8.004906	18.954555	138.026270
29047		-6.917741	-3.915949	11.702861	-0.383349	-3.207083	-1.245376	-1.048096	0.472168	-0.583008	-8.367278	17.034250	137.556658
29048		-7.281471	-4.213053	11.372195	-0.208814	-3.214613	-1.354435	-1.078857	0.464600	-0.565674	-8.628640	15.095299	137.038024
29049		-7.591330	-4.218500	10.966527	0.018920	-3.229143	-1.453238	-1.122070	0.457764	-0.551758	-8.752641	13.140639	136.475506
29050		-7.900003	-3.697345	10.264560	0.212048	-3.198606	-1.515783	-1.148193	0.447510	-0.537109	-8.755009	11.194612	135.879653
29051		-8.110905	-2.466573	9.599219	0.272131	-3.109635	-1.584224	-1.169189	0.430908	-0.520264	-8.710330	9.295834	135.240800
29052		-8.445762	-1.388075	9.011946	0.198088	-2.939172	-1.630640	-1.198486	0.424316	-0.498291	-8.694255	7.487496	134.561838
29053		-9.189399	-0.762258	8.312531	0.134722	-2.737291	-1.618381	-1.226807	0.422607	-0.472900	-8.694047	5.797068	133.875691
29054		-9.798218	-0.297915	7.367503	0.096652	-2.511401	-1.584295	-1.248291	0.405029	-0.459473	-8.696914	4.235355	133.190455
29055		-10.344025	0.165210	6.319915	0.128598	-2.266495	-1.504147	-1.267578	0.392578	-0.448975	-8.661418	2.821644	132.531211
29056		-10.864341	0.658012	5.532092	0.251279	-2.005776	-1.365098	-1.288086	0.383301	-0.427002	-8.538882	1.566620	131.926535
29057		-11.601369	1.103272	5.089896	0.402618	-1.782033	-1.173311	-1.300293	0.373779	-0.411133	-8.314946	0.458187	131.409064
29058		-13.388296	2.194759	0.087248	0.561712	-1.491847	-0.900577	-1.316650	0.368164	-0.401123	-7.991318	-0.462473	131.016902
29059		-10.451351	3.853299	-5.999409	0.556853	0.145646	-0.604524	-1.321289	0.361572	-0.404785	-7.667108	-0.426866	130.660359
29060		-15.686657	2.175866	-6.130964	0.454149	0.322793	-0.314561	-1.307617	0.353271	-0.405762	-7.403784	-0.268073	130.454953
29061		-18.427509	1.544657	-12.263926	0.478123	1.287597	-0.176117	-1.312256	0.355469	-0.417969	-7.127760	0.451118	130.259527
29062		-19.821319	0.431017	-13.082737	0.679569	2.194606	-0.151725	-1.300049	0.344727	-0.426758	-6.740963	1.688535	130.019043
29063		0.148829	-0.012988	1.605541	0.525936	2.361793	-0.301282	-1.289307	0.349854	-0.449951	-6.450726	3.013122	129.689834
29064		0.846131	-0.214400	17.738713	0.115957	2.915539	-0.554885	-1.280518	0.341553	-0.469238	-6.416174	4.637523	129.183332
29065		-0.246036	2.086527	15.839427	-0.076159	2.796449	-0.202947	-1.261719	0.351318	-0.484131	-6.485699	6.216732	128.884418
29066		-3.946706	5.836634	6.673785	-0.010025	2.649865	0.132717	-1.240723	0.359863	-0.505859	-6.501470	7.733843	128.785261
29067		-1.294754	8.626079	7.271000	-0.205104	3.064640	0.339469	-1.226563	0.358643	-0.526367	-6.618031	9.500639	128.775765
29068		-7.762219	3.941521	19.576689	-0.309181	3.392196	0.504273	-1.212402	0.373779	-0.543945	-6.782165	11.464704	128.834819
29069		-8.216767	-4.729436	18.998819	-0.357606	2.969801	0.442998	-1.192871	0.377441	-0.562744	-6.974595	13.184577	128.882090
29070		-11.907548	-10.669058	19.885448	0.025271	2.468874	0.271645	-1.171875	0.379639	-0.570313	-6.962520	14.607748	128.862331
29071		-10.009150	-8.015252	17.894738	0.522555	1.670691	0.120377	-1.156250	0.373291	-0.593506	-6.673443	15.566555	128.813467
29072		-7.281484	-1.050916	15.905964	0.925378	1.017625	0.137188	-1.158203	0.380615	-0.590576	-6.138022	16.155135	128.824788
29073		-4.931700	2.281919	13.627244	0.760360	0.643727	0.098056	-1.150635	0.367188	-0.601318	-5.695334	16.527975	128.841296
29074		-4.640670	-0.340212	11.830630	0.386596	0.350854	0.018955	-1.150879	0.367676	-0.602295	-5.474892	16.729590	128.829963
29075		-3.494001	-1.755312	9.959664	0.422126	0.305301	0.043644	-1.148682	0.363525	-0.602051	-5.228660	16.906290	128.836817
29076		-3.948952	-0.031507	11.900022	0.381305	0.268665	0.059247	-1.144287	0.362061	-0.604736	-5.002513	17.063168	128.855625
29077		-3.932775	-0.309620	11.305913	0.199112	0.254190	0.013153	-1.146973	0.364014	-0.606201	-4.888221	17.209136	128.848231
29078		-3.558429	-0.414255	10.962897	0.092915	0.201842	-0.001202	-1.143311	0.358887	-0.615479	-4.836683	17.324861	128.835075
29079		-3.391113	-0.478821	10.275193	0.003327	0.143228	-0.022874	-1.139404	0.364014	-0.616211	-4.839269	17.405751	128.812026
29080		-3.193948	-0.954165	9.823425	0.014550	0.094833	-0.028706	-1.137207	0.365723	-0.612305	-4.835945	17.459063	128.787884
29081		-2.987257	-0.841980	9.549399	0.024726	0.087137	-0.014832	-1.136719	0.354492	-0.604492	-4.824018	17.508321	128.772482
29082		-3.091992	-1.040246	9.528706	0.035965	0.081487	-0.001703	-1.140381	0.357910	-0.608398	-4.803390	17.555322	128.765190
29083		-2.840116	-1.008474	9.289536	0.058702	0.090030	0.020263	-1.135986	0.364746	-0.612549	-4.765706	17.607920	128.770696
29084		-3.043147	-0.946607	9.445836	0.070745	0.109524	0.041381	-1.138184	0.354980	-0.625488	-4.717755	17.672977	128.787875
29085		-3.121661	-0.720396	9.559137	0.075946	0.107269	0.043226	-1.139404	0.363281	-0.625000	-4.666223	17.736487	128.806391
29086		-3.125069	-0.813881	9.525176	0.063343	0.106973	0.044847	-1.135498	0.360352	-0.624756	-4.621766	17.800221	128.825900
29087		-3.213884	-0.671310	9.694555	0.057114	0.080370	0.034519	-1.129883	0.361328	-0.620361	-4.582152	17.847941	128.840609
29088		-3.146754	-0.685961	9.583279	0.037462	0.067586	0.021566	-1.129395	0.355469	-0.616943	-4.556167	17.888095	128.848136
29089		-3.185877	-0.794547	9.557951	0.028921	0.055646	0.024452	-1.139404	0.360352	-0.620850	-4.534165	17.921222	128.858038
29090		-3.182952	-0.770288	9.546905	0.019787	0.031732	0.026966	-1.130859	0.354980	-0.622559	-4.516764	17.941137	128.870546
29091		-3.059314	-0.782087	9.488008	0.019465	0.030824	0.028444	-1.135010	0.357910	-0.618652	-4.499063	17.960260	128.884045
29092		-3.179883	-0.730221	9.566882	0.006834	0.026865	0.029375	-1.141113	0.354004	-0.614502	-4.488555	17.977497	128.898244
29093		-3.167618	-0.686887	9.546476	-0.000552	0.019245	0.022677	-1.126953	0.352051	-0.615234	-4.483214	17.989743	128.908835
29094		-3.138461	-0.710681	9.516982	-0.003229	0.015628	0.018280	-1.134033	0.362793	-0.617920	-4.480356	18.000063	128.916907
29095		-3.222432	-0.657130	9.630255	-0.007496	0.006061	0.011806	-1.133789	0.359375	-0.624756	-4.480816	18.004291	128.921591
29096		-3.137668	-0.697796	9.548021	-0.020644	-0.007594	0.003536	-1.136719	0.363281	-0.614990	-4.490332	18.000688	128.921903
29097		-3.125239	-0.739909	9.470674	-0.020228	-0.008786	-0.003697	-1.133301	0.353027	-0.619629	-4.500747	17.995740	128.917977
29098		-3.117003	-0.720944	9.460969	-0.021094	-0.009233	-0.008104	-1.135742	0.357422	-0.615967	-4.512654	17.990677	128.911379
29099		-3.067590	-0.745626	9.449211	-0.019397	-0.011168	-0.018163	-1.139160	0.355957	-0.618164	-4.525239	17.983714	128.898882
29100		-3.047725	-0.767031	9.361996	-0.019955	-0.004920	-0.017664	-1.134033	0.354004	-0.615967	-4.538326	17.980679	128.886341
29101		-3.047574	-0.769183	9.361868	-0.014524	0.004586	-0.017687	-1.135010	0.351563	-0.620117	-4.548262	17.982730	128.873381
29102		-3.083770	-0.808443	9.436942	-0.016484	0.012262	-0.018037	-1.136475	0.361572	-0.613037	-4.559684	17.989486	128.859795
29103		-3.069314	-0.822411	9.421961	-0.011875	0.012574	-0.016345	-1.138916	0.357666	-0.615967	-4.567973	17.996156	128.847257
29104		-3.115260	-0.808264	9.360586	-0.006832	0.013109	-0.012450	-1.140869	0.356689	-0.620117	-4.572847	18.003646	128.836981
29105		-3.071907	-0.824247	9.420955	0.000667	0.020039	-0.002068	-1.135498	0.354004	-0.620117	-4.571415	18.015231	128.832656
29106		-3.099568	-0.792352	9.407948	0.012012	0.024743	-0.000162	-1.134766	0.356934	-0.627197	-4.563387	18.029927	128.829201
29107		-3.131872	-0.821271	9.441435	0.012466	0.020590	0.005103	-1.136475	0.354248	-0.622559	-4.553871	18.042154	128.829158
29108		-3.157255	-0.774919	9.460081	0.005100	0.014384	0.007831	-1.139893	0.357666	-0.612305	-4.548165	18.051298	128.831002
29109		-3.150063	-0.807674	9.455138	-0.001926	0.004712	0.012146	-1.127686	0.365967	-0.613525	-4.545347	18.054776	128.835952
29110		-3.058544	-0.825856	9.362981	-0.006212	0.006718	0.018420	-1.139893	0.355957	-0.619385	-4.544037	18.060024	128.844524
29111		-2.988776	-0.838569	9.326412	0.006380	0.020835	0.020826	-1.131348	0.358643	-0.619873	-4.535080	18.073103	128.853920
29112		-3.006937	-0.824721	9.340173	0.013958	0.031452	0.031835	-1.135498	0.360840	-0.619385	-4.520075	18.093081	128.869377
29113		-3.059005	-0.799370	9.351085	0.026992	0.041412	0.039517	-1.133301	0.357178	-0.620605	-4.496112	18.118750	128.889040
29114		-3.148574	-0.755842	9.431902	0.032719	0.051818	0.038045	-1.131836	0.352051	-0.615234	-4.469477	18.150626	128.907288
29115		-3.103412	-0.759913	9.450285	0.034958	0.049419	0.033880	-1.132324	0.356201	-0.623047	-4.442094	18.180601	128.923218
29116		-3.133786	-0.724061	9.436538	0.037084	0.049116	0.035480	-1.131592	0.364258	-0.617920	-4.413371	18.210803	128.940087
29117		-3.125038	-0.745718	9.389346	0.037275	0.050702	0.030345	-1.130127	0.355469	-0.621826	-4.385316	18.241341	128.953869
29118		-3.159421	-0.702739	9.448260	0.039490	0.054088	0.032564	-1.129883	0.355469	-0.624268	-4.355806	18.274240	128.968792
29119		-3.173578	-0.733186	9.425308	0.038544	0.045578	0.030610	-1.130371	0.358398	-0.622559	-4.326875	18.301849	128.983005
29120		-3.039520	-0.783706	9.289402	0.043079	0.056041	0.035653	-1.128174	0.358398	-0.622559	-4.294723	18.335983	128.999741
29121		-3.043995	-0.764373	9.319272	0.046195	0.072301	0.036786	-1.121094	0.354248	-0.627441	-4.260588	18.379109	129.016507
29122		-3.128739	-0.751930	9.394251	0.048438	0.085163	0.046023	-1.129395	0.346924	-0.629150	-4.223767	18.430301	129.038235
29123		-3.270057	-0.683510	9.485008	0.043214	0.072883	0.043961	-1.122314	0.357178	-0.626465	-4.189933	18.474042	129.059362
29124		-3.212737	-0.712716	9.457413	0.047645	0.060010	0.038084	-1.120361	0.354736	-0.629150	-4.154677	18.510505	129.077489
29125		-3.172382	-0.689404	9.407591	0.047948	0.056543	0.039697	-1.129883	0.352051	-0.617432	-4.118674	18.544707	129.096824
29126		-3.217943	-0.694238	9.413207	0.046218	0.048336	0.046461	-1.132813	0.357178	-0.625977	-4.082430	18.574820	129.120560
29127		-3.199230	-0.733907	9.393348	0.047910	0.047804	0.045867	-1.123535	0.350830	-0.627197	-4.045107	18.604255	129.144043
29128		-3.156354	-0.696224	9.375297	0.048803	0.051942	0.050924	-1.131104	0.353760	-0.625488	-4.006533	18.636580	129.170367
29129		-3.167398	-0.696573	9.415360	0.052384	0.049531	0.057092	-1.128174	0.354492	-0.630859	-3.964463	18.667419	129.200600
29130		-3.268821	-0.698656	9.442130	0.049333	0.050812	0.060549	-1.120117	0.359375	-0.631836	-3.923664	18.699440	129.232835
29131		-3.225450	-0.660569	9.424230	0.046754	0.037798	0.065969	-1.122314	0.360107	-0.623535	-3.882897	18.723877	129.268966
29132		-3.244671	-0.641768	9.437611	0.044832	0.030947	0.065371	-1.120117	0.344482	-0.629150	-3.843437	18.744687	129.304978
29133		-3.311538	-0.600873	9.462265	0.030323	0.024571	0.062519	-1.125977	0.361328	-0.627441	-3.812545	18.761385	129.339603
29134		-3.244765	-0.589106	9.530740	0.019402	0.010661	0.055739	-1.118896	0.349609	-0.624512	-3.789234	18.770196	129.370645
29135		-3.290227	-0.535406	9.604622	-0.009590	-0.006426	0.053072	-1.119629	0.356201	-0.628906	-3.782632	18.768791	129.400821
29136		-3.255600	-0.582624	9.472419	-0.034562	-0.017742	0.039477	-1.123779	0.354004	-0.628174	-3.793031	18.760741	129.423183
29137		-3.199309	-0.655708	9.426080	-0.047854	-0.027776	0.046332	-1.126709	0.359863	-0.623047	-3.809394	18.746883	129.450143
29138		-3.191002	-0.706911	9.390856	-0.061034	-0.025403	0.047663	-1.129639	0.358887	-0.637207	-3.833280	18.734778	129.477759
29139		-3.227560	-0.653103	9.424028	-0.066889	-0.029970	0.055539	-1.128174	0.360352	-0.624512	-3.858746	18.720039	129.510374
29140		-3.215314	-0.676995	9.451723	-0.075468	-0.036710	0.068461	-1.123535	0.354492	-0.621826	-3.886740	18.702298	129.551010
29141		-3.183178	-0.666842	9.386953	-0.083045	-0.036387	0.073896	-1.122559	0.358398	-0.631348	-3.917843	18.684637	129.594975
29142		-3.249294	-0.698187	9.460030	-0.091192	-0.048707	0.082653	-1.124512	0.359619	-0.627197	-3.951967	18.660639	129.644683
29143		-3.141943	-0.580729	9.381104	-0.096211	-0.068793	0.085261	-1.128906	0.367920	-0.622559	-3.988022	18.624955	129.696869
29144		-2.952579	-0.565663	9.268579	-0.095212	-0.115410	0.090552	-1.127686	0.356201	-0.624756	-4.022093	18.563205	129.754167
29145		-3.146608	-0.630141	9.348913	-0.107127	-0.198634	0.095587	-1.129639	0.368652	-0.628418	-4.060787	18.453792	129.818111
29146		-3.221148	-0.595435	9.550847	-0.092220	-0.229769	0.091751	-1.132324	0.373291	-0.625977	-4.091552	18.326798	129.881054
29147		-3.124902	-0.568502	9.443663	-0.083870	-0.228830	0.072576	-1.126953	0.374512	-0.617676	-4.121099	18.199253	129.932495
29148		-2.680689	-0.585837	9.577472	-0.077819	-0.208847	0.063627	-1.131104	0.373535	-0.623291	-4.149402	18.083115	129.977668
29149		-2.918831	-0.741281	9.608310	-0.082407	-0.104824	0.080647	-1.134766	0.371338	-0.616455	-4.178443	18.026817	130.028607
29150		-2.758032	-0.713151	9.621425	-0.069933	-0.004070	0.080246	-1.124268	0.370605	-0.622314	-4.201984	18.028419	130.074838
29151		-2.902344	-0.740357	9.698314	-0.038545	0.037000	0.119474	-1.130615	0.368652	-0.620117	-4.200607	18.054823	130.142884
29152		-2.953188	-0.702083	9.623482	-0.008802	0.240360	0.081529	-1.126221	0.370361	-0.626465	-4.192152	18.196143	130.179127
29153		-2.680749	-0.777416	9.628598	0.010993	0.347825	0.108886	-1.125000	0.365479	-0.627197	-4.168362	18.399698	130.227238
29154		-2.486606	-0.959788	9.532157	-0.017557	0.513856	0.172053	-1.127930	0.373047	-0.627441	-4.151066	18.701033	130.306234
29155		-2.665225	-0.986704	9.537516	-0.051013	0.634213	0.282655	-1.119141	0.372314	-0.626465	-4.132310	19.075408	130.447086
29156		-2.713403	-1.191226	9.514745	-0.048131	0.719176	0.403148	-1.110840	0.375732	-0.625488	-4.088099	19.503483	130.657682
29157		-2.564069	-1.255407	9.721328	-0.056381	0.784507	0.557697	-1.115967	0.377686	-0.640381	-4.015765	19.974681	130.960433
29158		-1.955073	-1.443926	10.018874	-0.020916	0.992780	0.679744	-1.096191	0.381348	-0.643066	-3.897304	20.569520	131.330540
29159		-1.329244	-1.029964	10.569727	0.101872	1.443652	0.786750	-1.087158	0.389160	-0.643066	-3.685677	21.424935	131.751572
29160		0.979336	-0.807927	12.014113	0.168881	2.442404	0.889742	-1.059082	0.386230	-0.652832	-3.415815	22.853659	132.204993
29161		2.929428	-0.306519	15.148077	0.062377	4.158080	1.066290	-1.026855	0.386719	-0.673584	-3.167293	25.267508	132.720914
29162		1.733805	-0.485970	17.653182	-0.414240	6.447734	1.305888	-0.968994	0.400146	-0.694580	-3.124545	28.997499	133.330008
29163		-0.559375	-0.251015	13.943954	-0.882841	8.341122	1.607638	-0.900635	0.410889	-0.712891	-3.229426	33.820662	134.094686
29164		-0.163826	-1.083454	11.205756	-0.799827	9.594886	1.685836	-0.812500	0.415771	-0.731689	-3.199888	39.363604	134.908746
29165		-0.767159	-0.629084	8.633267	-0.475115	10.491100	1.710970	-0.718506	0.424561	-0.741455	-2.868047	45.418455	135.800314
29166		-2.288186	-1.447588	7.444256	-0.088882	11.067699	1.776090	-0.625244	0.425537	-0.744873	-2.075120	51.797694	136.920285
29167		-1.541344	-0.001005	5.198141	0.119946	11.446077	1.935030	-0.516113	0.416748	-0.725342	-0.639635	58.381199	138.581181
29168		-1.079614	1.249363	5.692519	-0.202470	11.983654	2.073948	-0.412842	0.429443	-0.705322	1.565825	65.238810	141.207638
29169		-9.878772	4.485583	14.559834	-0.983630	12.543742	2.445529	-0.309814	0.428223	-0.662842	5.797471	72.328338	146.339498
29170		-34.720169	3.064741	40.108834	-0.758073	7.193009	2.813909	-0.251953	0.431152	-0.638428	13.434458	76.132045	154.718431
29171		-13.530117	3.382859	42.057060	-1.267461	1.698049	2.812177	-0.241699	0.416504	-0.614258	20.228618	76.598716	162.453765
29172		-7.948643	0.568746	33.041084	-2.132365	-0.429174	2.862677	-0.223877	0.417725	-0.611328	24.773734	75.741775	168.389855
29173		-5.073363	-2.541601	21.574263	-2.132442	-1.964071	2.764256	-0.242188	0.416016	-0.607666	27.006205	74.038278	171.965000
29174		-1.970278	-3.525543	12.865858	-1.799665	-2.756934	2.713995	-0.252930	0.419922	-0.608643	28.083439	71.916812	174.167253
29175		-1.224625	-4.022989	8.271882	-1.545654	-3.061944	2.552420	-0.267578	0.418701	-0.622314	28.505505	69.680014	175.549274
29176		-0.968919	-4.990409	5.381226	-1.433267	-3.124724	2.238891	-0.291992	0.424805	-0.622314	28.378144	67.493202	176.292264
29177		-0.532690	-6.321573	3.595600	-1.299464	-3.029233	1.838353	-0.311035	0.424805	-0.634033	27.886236	65.467279	176.565221
29178		-0.454134	-7.457533	3.422291	-1.072279	-2.892370	1.397396	-0.317871	0.420166	-0.635254	27.147844	63.626008	176.425840
29179		-1.137125	-8.266686	4.692516	-0.751557	-2.823459	0.948320	-0.341309	0.437988	-0.644043	26.247111	61.937867	175.894590
29180		-2.128758	-8.713279	6.643980	-0.424680	-2.886925	0.485544	-0.362061	0.450439	-0.662354	25.150602	60.324963	174.918505
29181		-3.009115	-8.582191	8.194126	-0.180297	-3.066846	-0.008092	-0.396973	0.446289	-0.665283	23.802305	58.728692	173.471372
29182		-3.534619	-7.814064	9.174768	-0.078274	-3.293874	-0.516239	-0.419922	0.457764	-0.674805	22.141447	57.104290	171.562521
29183		-4.061522	-6.581845	9.769764	-0.140423	-3.522997	-0.991427	-0.464355	0.474609	-0.681152	20.176118	55.427672	169.293500
29184		-4.532363	-5.161049	9.885533	-0.308616	-3.740175	-1.431037	-0.499023	0.478271	-0.687744	17.922175	53.666703	166.742422
29185		-5.120768	-3.844788	9.770825	-0.518763	-3.917337	-1.780839	-0.545654	0.489014	-0.682373	15.491642	51.810808	164.059589
29186		-5.676867	-2.647165	9.563457	-0.705597	-4.049269	-2.039635	-0.588867	0.493408	-0.694824	12.990838	49.845853	161.354368
29187		-6.244835	-1.657583	9.607917	-0.841395	-4.130877	-2.219506	-0.640381	0.519531	-0.693115	10.534006	47.788307	158.728074
29188		-7.017364	-0.741633	10.114572	-0.930334	-4.193002	-2.333938	-0.696777	0.541260	-0.673340	8.180878	45.631054	156.226706
29189		-7.706117	0.063185	10.613707	-0.996196	-4.273395	-2.392458	-0.743896	0.548340	-0.663818	5.976752	43.370424	153.893785
29190		-8.308248	0.525151	10.971721	-1.026285	-4.348723	-2.405153	-0.802490	0.560547	-0.657471	3.945453	41.002654	151.743620
29191		-8.893682	0.649235	11.276852	-1.012212	-4.404095	-2.379148	-0.858154	0.572510	-0.642334	2.121379	38.555187	149.796171
29192		-9.510951	0.520342	11.723786	-0.936810	-4.437507	-2.334211	-0.913330	0.589844	-0.630371	0.518865	36.039267	148.036082
29193		-10.371668	0.226004	12.458292	-0.810230	-4.454648	-2.280924	-0.985596	0.596680	-0.593506	-0.846576	33.483418	146.451895
29194		-11.251467	-0.060014	13.437390	-0.642107	-4.505887	-2.232305	-1.043213	0.610596	-0.569092	-1.980612	30.865924	145.011485
29195		-11.794448	-0.271850	13.890323	-0.461018	-4.582804	-2.164220	-1.097412	0.609619	-0.531982	-2.882335	28.190108	143.713491
29196		-12.126964	-0.613760	14.085128	-0.297216	-4.649452	-2.102140	-1.164063	0.606689	-0.480225	-3.585757	25.457403	142.529874
29197		-12.749926	-0.945530	14.506205	-0.189970	-4.680021	-2.049020	-1.216309	0.612061	-0.428955	-4.136025	22.703150	141.442544
29198		-13.502391	-1.337000	14.993516	-0.134020	-4.706690	-2.021622	-1.266113	0.604248	-0.386963	-4.583884	19.921210	140.418784
29199		-14.292239	-1.848242	15.368419	-0.115951	-4.731931	-2.014700	-1.311768	0.598633	-0.317627	-4.958536	17.123546	139.441400
29200		-15.122678	-2.239116	15.551974	-0.107448	-4.777950	-2.026343	-1.343750	0.584229	-0.256836	-5.276622	14.288620	138.490092
29201		-15.545750	-2.294256	14.694978	-0.097556	-4.826111	-2.045308	-1.379395	0.567627	-0.182617	-5.537461	11.425476	137.558717
29202		-15.406053	-1.930338	12.856839	-0.082986	-4.803089	-2.044410	-1.388428	0.552246	-0.124756	-5.742439	8.567393	136.646245
29203		-15.004811	-0.784354	10.680233	-0.081331	-4.654650	-1.987303	-1.410156	0.533936	-0.049072	-5.895626	5.798907	135.775087
29204		-14.509328	0.755216	8.866538	-0.147012	-4.361344	-1.858181	-1.399414	0.506592	0.007568	-6.042020	3.199078	134.970398
29205		-14.027716	2.374351	7.800402	-0.277086	-3.981560	-1.668063	-1.393311	0.485107	0.055420	-6.223337	0.828911	134.261438
29206		-13.516573	3.751694	7.394395	-0.456701	-3.609196	-1.418762	-1.379639	0.455078	0.107666	-6.481465	-1.319480	133.679382
29207		-12.525104	4.369898	6.828536	-0.640066	-3.282948	-1.140266	-1.360352	0.429199	0.128418	-6.828520	-3.263360	133.246099
29208		-11.888020	4.324809	6.038511	-0.791559	-2.963086	-0.883130	-1.360596	0.414795	0.165283	-7.259329	-5.013002	132.948603
29209		-11.565539	3.821149	4.965901	-0.769825	-2.685689	-0.605510	-1.340088	0.395264	0.183350	-7.683228	-6.583706	132.801932
29210		-11.208867	3.051306	3.646748	-0.528627	-2.419354	-0.248945	-1.321289	0.385498	0.203857	-7.990406	-7.978576	132.847448
29211		-11.043296	2.386583	2.812201	-0.268581	-2.126443	0.082200	-1.307129	0.376221	0.220459	-8.174480	-9.178110	133.065787
29212		-11.067069	1.972566	2.750558	-0.102164	-1.810586	0.332262	-1.296387	0.365723	0.226807	-8.288463	-10.179241	133.405141
29213		-10.916978	1.670446	2.434759	-0.092905	-1.539077	0.488266	-1.281006	0.364990	0.233887	-8.414664	-11.010990	133.814968
29214		-10.656899	1.417149	1.588754	-0.195492	-1.263015	0.550205	-1.271484	0.370117	0.247070	-8.608570	-11.681193	134.239861
29215		-10.009337	0.844077	0.047375	-0.282670	-0.922859	0.563452	-1.263916	0.361328	0.254150	-8.852002	-12.154745	134.645935
29216		-9.431276	0.025490	-1.002178	-0.271710	-0.487344	0.551564	-1.257568	0.356201	0.265137	-9.082797	-12.382014	135.007686
29217		-9.025984	-0.659000	-1.031309	-0.134823	-0.013688	0.506021	-1.249268	0.354492	0.272949	-9.220226	-12.343577	135.299919
29218		-8.881742	-1.170566	-0.133560	0.053938	0.431573	0.441281	-1.240967	0.358887	0.269775	-9.232516	-12.059272	135.512506
29219		-9.096692	-11.883556	-9.231314	0.417005	0.973791	-0.060132	-1.243164	0.368408	0.283691	-8.965267	-11.513731	135.385549
29220		7.169505	-0.373214	-3.378926	2.486719	2.990739	-0.021762	-1.243408	0.373535	0.268799	-7.490068	-9.819521	135.121312
29221		-0.173476	0.979780	11.574395	2.485856	2.733337	-0.072518	-1.239990	0.370605	0.272949	-6.027073	-8.269093	134.890868
29222		6.102442	-0.287351	7.832068	1.370641	2.997711	-0.506417	-1.240234	0.373291	0.268311	-5.180454	-6.588026	134.428334
29223		-0.396775	0.984568	4.820260	1.011991	3.265865	-0.754971	-1.235107	0.379395	0.270752	-4.539405	-4.759970	133.833891
29224		-3.606264	2.004046	8.031247	0.613571	3.441692	-0.844851	-1.245850	0.389404	0.269775	-4.144254	-2.830341	133.198320
29225		-6.007862	4.981252	14.979931	0.405587	3.283340	-0.832409	-1.245361	0.381592	0.269775	-3.889146	-0.986889	132.588456
29226		-3.622522	7.566896	13.858148	0.036841	2.868158	-0.650012	-1.251221	0.382080	0.276367	-3.864804	0.627745	132.103581
29227		-0.246557	9.310930	7.775982	-0.109010	2.848073	-0.243856	-1.253174	0.392090	0.267578	-3.931211	2.246552	131.851167
29228		-0.766254	9.129273	6.501552	-0.208228	3.255997	0.235881	-1.262207	0.394531	0.262695	-4.048202	4.117301	131.854117
29229		-2.761685	5.511934	10.030326	-0.446794	3.654745	0.564903	-1.265137	0.422363	0.269531	-4.286570	6.229543	132.023419
29230		-8.580328	-2.908091	18.562230	-0.663077	3.736275	0.575444	-1.274170	0.426270	0.247559	-4.643449	8.389798	132.184836
29231		-6.691916	-6.673132	15.515943	-0.749019	3.329489	0.383071	-1.281006	0.443848	0.244385	-5.061151	10.309398	132.240893
29232		-7.361981	-8.108389	16.712916	-0.308708	3.340436	0.290103	-1.295654	0.451904	0.235352	-5.237307	12.231109	132.232540
29233		-10.819630	-8.574889	20.530351	0.231130	2.912048	0.155812	-1.307861	0.458496	0.220459	-5.117261	13.901046	132.167180
29234		-12.196630	-4.674043	23.872713	1.087490	2.006173	0.090048	-1.311035	0.472656	0.215332	-4.504257	15.051615	132.118556
29235		-11.640892	4.617511	19.808869	0.420126	0.328705	0.153931	-1.315918	0.471191	0.215820	-4.241782	15.246362	132.192695
29236		-0.776400	0.773907	8.597390	0.088366	0.371665	-0.004033	-1.312744	0.472412	0.215820	-4.194516	15.459738	132.171981
29237		-5.298467	-1.354617	13.277995	0.067600	0.402009	0.078533	-1.312012	0.481445	0.212158	-4.146119	15.692978	132.199087
29238		-3.471511	0.895806	11.633705	-0.140302	0.298816	0.063774	-1.308594	0.478516	0.214111	-4.218158	15.867576	132.221908
29239		-3.549598	-0.976649	10.749379	-0.196147	0.342988	-0.019153	-1.324463	0.488770	0.210205	-4.336056	16.062968	132.193185
29240		-3.395720	-1.008876	10.494210	-0.118950	0.285009	0.010033	-1.321289	0.486816	0.211670	-4.404548	16.227424	132.184141
29241		-3.074896	-0.933581	9.917641	-0.084410	0.253816	0.013891	-1.322998	0.476318	0.215088	-4.452078	16.373265	132.178608
29242		-3.040438	-1.036166	9.811310	-0.037268	0.247066	0.043205	-1.320801	0.482422	0.198730	-4.467814	16.517529	132.190799
29243		-3.123095	-0.738068	9.968447	-0.023019	0.203463	0.048986	-1.325928	0.484375	0.207031	-4.473592	16.636170	132.208409
29244		-2.807635	-0.683241	9.563885	-0.010148	0.162843	0.046384	-1.323975	0.487549	0.212646	-4.472081	16.732481	132.226401
29245		-3.033618	-0.787485	9.645094	0.001215	0.162012	0.055043	-1.326904	0.482178	0.209961	-4.462306	16.827714	132.249583
29246		-2.882648	-0.803549	9.497963	-0.000753	0.148927	0.053992	-1.326904	0.488525	0.205078	-4.453836	16.916416	132.272807
29247		-3.038444	-0.721019	9.607263	0.013710	0.144775	0.053209	-1.329834	0.486572	0.208984	-4.436901	17.001713	132.295754
29248		-3.004114	-0.884893	9.592408	0.024615	0.128120	0.051943	-1.321533	0.486084	0.200439	-4.413888	17.078432	132.318788
29249		-3.039781	-0.685871	9.679836	0.044663	0.122456	0.051408	-1.320557	0.489014	0.202148	-4.379146	17.150881	132.341779
29250		-3.124289	-0.635347	9.647146	0.041906	0.093388	0.038116	-1.319092	0.481934	0.203857	-4.348119	17.207139	132.358232
29251		-3.094203	-0.777537	9.608013	0.034939	0.072813	0.034049	-1.326416	0.489990	0.207275	-4.321285	17.250451	132.373186
29252		-3.029464	-0.694341	9.528575	0.041134	0.058773	0.033240	-1.319336	0.478027	0.205811	-4.291058	17.286716	132.388348
29253		-3.037475	-0.642808	9.564353	0.038682	0.049034	0.028253	-1.332275	0.487793	0.210205	-4.262760	17.316179	132.400949
29254		-2.910427	-0.759147	9.355488	0.035981	0.051997	0.026589	-1.320068	0.485840	0.200439	-4.236551	17.348283	132.412474
29255		-2.979028	-0.610282	9.488092	0.037253	0.059906	0.015260	-1.321777	0.482666	0.202637	-4.211515	17.383399	132.416849
29256		-3.048438	-0.724006	9.485815	0.033829	0.060295	0.020337	-1.313477	0.483398	0.199951	-4.187745	17.419976	132.424298
29257		-2.995831	-0.610250	9.526230	0.034811	0.058077	0.005583	-1.320801	0.485840	0.196777	-4.165805	17.453640	132.422988
29258		-2.993344	-0.645864	9.446400	0.042792	0.058564	-0.001535	-1.320068	0.489014	0.198975	-4.140791	17.488321	132.417442
29259		-3.077104	-0.645269	9.491917	0.048273	0.058515	-0.008733	-1.322754	0.485352	0.200439	-4.113717	17.521646	132.407566
29260		-3.127358	-0.697492	9.575576	0.060898	0.043498	-0.021877	-1.332764	0.496582	0.200684	-4.081803	17.546894	132.390508
29261		-3.064314	-0.722423	9.505808	0.071920	0.034019	-0.024089	-1.327637	0.492676	0.197510	-4.043640	17.565606	132.372506
29262		-3.119623	-0.657208	9.523540	0.079128	0.024757	-0.023482	-1.328369	0.492676	0.201660	-4.001338	17.580108	132.355304
29263		-3.049127	-0.613342	9.481738	0.080354	0.017556	-0.029133	-1.329346	0.494385	0.198730	-3.959049	17.589235	132.334990
29264		-3.047272	-0.755159	9.412473	0.074612	0.013928	-0.022548	-1.328613	0.491943	0.207764	-3.919030	17.597614	132.318816
29265		-3.013779	-0.706809	9.410136	0.071962	0.015429	-0.016740	-1.328369	0.483643	0.192627	-3.879279	17.606035	132.306032
29266		-2.988728	-0.679456	9.417413	0.063765	0.010546	-0.006511	-1.328613	0.484863	0.196289	-3.842531	17.613126	132.299619
29267		-2.963571	-0.753591	9.392379	0.062382	0.019066	0.008784	-1.325439	0.491455	0.194092	-3.803679	17.624618	132.302010
29268		-3.056030	-0.683616	9.449226	0.059578	0.023344	0.016717	-1.324219	0.490967	0.199707	-3.765269	17.639914	132.309028
29269		-3.156502	-0.675318	9.551856	0.053077	0.018627	0.022548	-1.333008	0.488770	0.197754	-3.729233	17.651667	132.319710
29270		-3.102536	-0.674548	9.529441	0.041169	0.005486	0.026927	-1.327637	0.493164	0.195557	-3.699298	17.657132	132.333567
29271		-3.141388	-0.624531	9.532444	0.027748	0.005213	0.024116	-1.326416	0.490479	0.196045	-3.677326	17.661262	132.345723
29272		-3.051736	-0.685261	9.475563	0.024339	0.005629	0.029162	-1.320557	0.499023	0.197266	-3.656626	17.666888	132.360919
29273		-2.954440	-0.725941	9.408684	0.010732	0.023085	0.039884	-1.325928	0.487305	0.195557	-3.641734	17.681804	132.381858
29274		-3.067317	-0.714560	9.452772	0.003757	0.018079	0.060582	-1.336914	0.486816	0.195801	-3.627240	17.695684	132.415438
29275		-2.988647	-0.696288	9.436823	-0.011791	0.032429	0.071332	-1.321533	0.491699	0.191650	-3.619605	17.717074	132.454909
29276		-2.978479	-0.708383	9.420775	-0.017789	0.048709	0.080225	-1.328369	0.498291	0.197510	-3.614195	17.749173	132.499129
29277		-3.068306	-0.677156	9.470793	-0.023675	0.055047	0.087975	-1.330322	0.493896	0.194580	-3.610536	17.784089	132.547753
29278		-3.120755	-0.651519	9.481472	-0.030021	0.054745	0.090715	-1.328613	0.495850	0.206543	-3.610227	17.820015	132.598061
29279		-3.140813	-0.638049	9.494395	-0.020146	0.049671	0.092111	-1.322998	0.490479	0.198730	-3.603660	17.852003	132.649396
29280		-3.099581	-0.662942	9.480145	-0.031246	0.050557	0.102796	-1.334229	0.503418	0.193359	-3.601715	17.885970	132.707144
29281		-3.167935	-0.497350	9.715101	-0.046037	0.051807	0.099144	-1.329102	0.498047	0.190430	-3.608645	17.919431	132.762645
29282		-3.104183	-0.598441	9.503492	-0.073350	0.044729	0.088468	-1.326172	0.498047	0.203125	-3.633339	17.949571	132.812015
29283		-3.054044	-0.709583	9.447291	-0.088150	0.043088	0.099832	-1.326660	0.494629	0.198730	-3.664113	17.978111	132.868255
29284		-3.049764	-0.694657	9.435801	-0.104930	0.036156	0.122484	-1.333008	0.500244	0.197021	-3.700441	18.004653	132.938388
29285		-3.024865	-0.666742	9.472919	-0.116484	0.041834	0.141299	-1.331055	0.499268	0.194580	-3.739677	18.034084	133.019589
29286		-3.140658	-0.663252	9.514921	-0.118126	0.045332	0.146470	-1.326904	0.501709	0.197998	-3.779147	18.066864	133.103767
29287		-3.159279	-0.616127	9.491725	-0.124964	0.027745	0.146785	-1.327881	0.511963	0.195068	-3.821970	18.088558	133.188814
29288		-2.991080	-0.442262	9.416932	-0.119118	0.011450	0.137900	-1.328125	0.499512	0.203857	-3.863128	18.101762	133.269180
29289		-2.957564	-0.610497	9.348908	-0.119335	-0.034172	0.124280	-1.324219	0.499023	0.198242	-3.906127	18.087307	133.343196
29290		-3.193771	-0.590945	9.494468	-0.110927	-0.094099	0.113643	-1.331055	0.499023	0.199463	-3.945807	18.039334	133.413303
29291		-3.153156	-0.608807	9.499192	-0.065402	-0.102401	0.103958	-1.332275	0.507080	0.202393	-3.960912	17.985160	133.477922
29292		-3.193745	-0.615617	9.378573	-0.017344	-0.113650	0.076430	-1.324707	0.508545	0.206787	-3.953740	17.924585	133.526471
29293		-3.014339	-0.572796	9.629960	0.038325	-0.128389	0.058260	-1.322266	0.504883	0.194580	-3.917666	17.853740	133.564653
29294		-2.945778	-0.623879	9.500722	0.074612	-0.066405	0.032646	-1.320801	0.514404	0.198975	-3.866575	17.818420	133.584876
29295		-2.949713	-0.556377	9.685220	0.104205	0.009268	0.022790	-1.330078	0.517090	0.209717	-3.801057	17.824848	133.596072
29296		-2.731393	-0.624033	9.729396	0.108335	0.163115	-0.016566	-1.329102	0.511719	0.195801	-3.742513	17.918846	133.577568
29297		-2.757262	-0.775529	9.621997	0.100051	0.308573	-0.004365	-1.324707	0.497803	0.197754	-3.687992	18.095372	133.560779
29298		-2.731852	-0.824608	9.480819	0.089952	0.415530	0.019623	-1.327881	0.503662	0.197510	-3.636275	18.335034	133.554478
29299		-2.406102	-1.059807	9.480833	0.057364	0.427302	0.167528	-1.329346	0.503418	0.190430	-3.574854	18.585676	133.637118
29300		-2.362574	-1.203068	9.659410	0.094228	0.473947	0.319757	-1.331055	0.515381	0.185791	-3.463073	18.869281	133.810475
29301		-2.542944	-1.027623	9.669813	0.162553	0.579011	0.412972	-1.332520	0.502441	0.192139	-3.293467	19.214669	134.037543
29302		-2.380787	-0.864725	9.803239	0.156211	0.758115	0.499342	-1.331543	0.510986	0.184082	-3.110314	19.665621	134.312579
29303		-1.884177	-0.914111	10.221843	0.274505	1.210799	0.523359	-1.326660	0.506348	0.173584	-2.855419	20.374310	134.590730
29304		-1.115061	-1.050787	10.927849	0.391177	1.846333	0.583332	-1.331543	0.526367	0.158691	-2.521361	21.447908	134.892800
29305		1.439292	-1.324410	12.042413	0.658073	2.986583	0.660938	-1.324219	0.526367	0.139404	-2.015231	23.173055	135.226421
29306		2.735238	-1.393120	16.149217	0.808281	4.686784	0.939755	-1.325684	0.529297	0.099121	-1.341206	25.873976	135.729171
29307		2.396278	-1.720334	17.649349	0.674929	7.026201	1.130263	-1.325928	0.538818	0.050049	-0.647130	29.910719	136.380347
29308		-1.203171	-0.016247	12.425314	0.537703	8.987933	1.249644	-1.316650	0.535645	0.008545	0.102441	35.064234	137.197181
29309		-0.475231	-0.043480	10.443982	0.627886	10.094365	1.227982	-1.298340	0.537109	-0.058105	1.058280	40.841019	138.160784
29310		0.672219	-0.216812	8.678145	0.775485	10.964798	1.241530	-1.279541	0.536865	-0.124756	2.371101	47.099623	139.406053
29311		-3.025205	-0.092856	6.396315	0.742834	11.577797	1.405817	-1.250244	0.535645	-0.180664	4.232117	53.677049	141.262429
29312		-2.189008	0.389509	5.681165	0.632013	12.002266	1.656807	-1.210693	0.536377	-0.245361	7.101719	60.428426	144.241901
29313		1.331111	2.586339	5.948542	0.244641	12.450832	1.645451	-1.174072	0.553955	-0.302979	11.494458	67.322364	148.966413
29314		-5.900995	5.207707	13.201532	-0.596956	13.379959	2.009552	-1.121582	0.556641	-0.361084	20.437776	74.401060	158.771836
29315		-43.471143	5.473461	44.234180	-0.725161	8.544809	2.584340	-1.091309	0.561279	-0.359863	34.683694	78.088752	173.851322
29316		-13.585704	4.791433	44.035559	-1.644915	1.424380	2.327648	-1.082031	0.552979	-0.314453	41.044803	77.913740	-178.684713
29317		-7.743405	0.857064	33.796874	-2.541348	-0.272155	2.432227	-1.077881	0.547852	-0.245605	43.717223	76.860167	-174.456752
29318		-4.532100	-2.915622	22.907697	-2.383757	-1.997713	2.512668	-1.033203	0.514648	-0.163330	43.353446	75.036976	-173.425858
29319		-2.857188	-4.270072	14.891885	-2.098149	-2.883225	2.406311	-0.991211	0.478027	-0.086670	41.793379	72.889366	-173.800537
29320		-2.457105	-4.376213	10.657685	-1.884362	-3.337643	2.160437	-0.924561	0.437500	-0.045166	39.751575	70.630166	-174.814817
29321		-2.220124	-4.471597	8.578401	-1.821716	-3.537573	1.879634	-0.854736	0.383789	-0.019287	37.568842	68.376134	-176.032921
29322		-2.343155	-5.400291	7.496287	-1.781571	-3.643747	1.539210	-0.793457	0.341797	-0.010498	35.268312	66.169325	-177.421137
29323		-2.408358	-6.159974	6.488738	-1.696162	-3.724233	1.159153	-0.736572	0.325195	-0.026123	32.904108	64.031169	-178.958413
29324		-2.348563	-6.953422	5.884699	-1.534891	-3.784987	0.758985	-0.691162	0.293945	-0.047363	30.501179	61.953737	179.331380
29325		-2.378071	-7.317394	5.845001	-1.295026	-3.795506	0.356847	-0.652100	0.273438	-0.079834	28.161100	59.958798	177.501117
29326		-2.775584	-7.305531	6.832377	-1.056039	-3.798808	-0.057535	-0.627197	0.260986	-0.102539	25.850328	58.030071	175.511326
29327		-3.208035	-6.811431	8.026985	-0.914334	-3.856283	-0.469298	-0.617188	0.248779	-0.143311	23.523023	56.135714	173.360602
29328		-3.538031	-6.093179	9.126886	-0.899932	-3.959250	-0.885475	-0.620605	0.252930	-0.168213	21.083253	54.224169	171.017666
29329		-4.013636	-5.137103	10.132207	-0.997530	-4.083804	-1.289989	-0.619873	0.244873	-0.198242	18.518627	52.273684	168.527807
29330		-4.586042	-4.076692	11.118911	-1.196905	-4.212419	-1.664890	-0.630371	0.247803	-0.217285	15.798788	50.242588	165.921512
29331		-5.276764	-3.138659	12.153391	-1.452361	-4.365073	-2.002427	-0.646973	0.260010	-0.240479	12.961021	48.105274	163.268735
29332		-5.938379	-2.251352	12.967098	-1.718525	-4.543503	-2.302025	-0.664063	0.269531	-0.260742	10.027491	45.809470	160.604377
29333		-6.489178	-1.371235	13.835752	-1.950411	-4.717093	-2.544390	-0.688965	0.276611	-0.276855	7.092589	43.354071	158.013019
29334		-7.298501	-0.795401	14.288772	-2.080320	-4.895136	-2.717313	-0.707520	0.299561	-0.283447	4.246453	40.708188	155.545142
29335		-8.034791	-0.428503	14.245998	-2.029493	-5.077667	-2.830058	-0.732422	0.305908	-0.294678	1.636187	37.886024	153.257347
29336		-8.230274	0.000431	14.066519	-1.803160	-5.214074	-2.841677	-0.763428	0.317139	-0.293701	-0.622745	34.903595	151.194409
29337		-8.707102	0.075285	14.355055	-1.477572	-5.296158	-2.749044	-0.786621	0.319336	-0.294189	-2.452055	31.828028	149.404446
29338		-9.907613	-0.868246	15.541295	-1.110207	-5.335547	-2.637140	-0.815186	0.339600	-0.286133	-3.874300	28.682334	147.846935
29339		-11.413885	-2.192544	16.981619	-0.752038	-5.435442	-2.577443	-0.838867	0.338135	-0.273193	-4.934505	25.463911	146.459847
29340		-12.847239	-3.853822	17.785616	-0.469888	-5.587329	-2.615432	-0.862305	0.323975	-0.270264	-5.733725	22.127055	145.149177
29341		-14.249051	-5.349239	18.043419	-0.256359	-5.702984	-2.774617	-0.888428	0.324219	-0.256836	-6.339782	18.710434	143.826974
29342		-16.196756	-5.616859	18.247694	-0.105779	-5.789645	-3.015692	-0.912109	0.319336	-0.255859	-6.810489	15.207198	142.425052
29343		-17.653695	-4.953719	17.699279	-0.036014	-5.792820	-3.254357	-0.935547	0.292969	-0.232422	-7.175240	11.685775	140.935768
29344		-18.623473	-3.175036	16.890340	0.022908	-5.681547	-3.384543	-0.953613	0.283447	-0.237305	-7.428589	8.201022	139.399178
29345		-19.185987	-0.987691	16.141256	0.022142	-5.521525	-3.346709	-0.974365	0.266357	-0.229004	-7.583516	4.813971	137.899880
29346		-19.059984	0.683467	14.084121	-0.027635	-5.366317	-3.172833	-0.990967	0.250000	-0.225586	-7.677436	1.516820	136.500951
29347		-17.956052	2.200957	11.084200	-0.062767	-5.135688	-2.859408	-1.014404	0.233154	-0.208008	-7.709929	-1.618562	135.269442
29348		-16.913123	3.476259	8.259209	-0.072900	-4.769092	-2.400252	-1.034912	0.218018	-0.205811	-7.698510	-4.517720	134.268648
29349		-15.328977	4.705916	5.771690	-0.135754	-4.286934	-1.851784	-1.056641	0.200195	-0.195068	-7.700252	-7.093874	133.540594
29350		-14.959064	5.879344	3.603706	-0.438736	-3.704627	-1.359179	-1.065430	0.197266	-0.187500	-7.881449	-9.308139	133.049179
29351		-15.422302	6.306948	1.628074	-0.817078	-3.144662	-0.894305	-1.078369	0.184570	-0.189209	-8.301073	-11.163979	132.789327
29352		-15.710271	5.633469	-0.574316	-1.091158	-2.592713	-0.403029	-1.084717	0.180664	-0.178223	-8.923919	-12.671855	132.780927
29353		-16.102219	4.331626	-2.312642	-1.247625	-1.999148	-0.039268	-1.095215	0.181396	-0.171875	-9.674238	-13.805800	132.946170
29354		-16.296108	2.769634	-3.543088	-1.246596	-1.412031	0.181152	-1.101074	0.184326	-0.167480	-10.448534	-14.587646	133.195096
29355		-16.385048	1.423070	-3.935686	-1.061716	-0.838946	0.284318	-1.109863	0.188965	-0.170410	-11.120017	-15.029350	133.451548
29356		-15.923517	0.328291	-3.686522	-0.701385	-0.296371	0.318738	-1.109375	0.193359	-0.176270	-11.577504	-15.162136	133.669455
29357		-14.576317	-0.164684	-3.181538	-0.236530	0.191679	0.337544	-1.102051	0.195557	-0.187500	-11.755171	-15.015498	133.840518
29358		-13.059129	-0.020901	-1.810193	0.174369	0.666005	0.371716	-1.103516	0.198730	-0.185547	-11.688286	-14.599706	133.973994
29359		-11.845893	0.224934	0.446378	0.411217	1.110308	0.393390	-1.094727	0.193604	-0.189697	-11.473442	-13.931271	134.067958
29360		-10.668208	0.396577	2.612492	0.484018	1.461875	0.408576	-1.081543	0.190674	-0.205322	-11.210112	-13.064110	134.132643
29361		-9.444566	0.347356	4.280491	0.469964	1.744840	0.431559	-1.075928	0.201660	-0.209473	-10.949247	-12.035512	134.182336
29362		4.877637	-11.319828	2.452332	0.676452	1.643112	0.010253	-1.064697	0.194092	-0.221191	-10.525348	-11.108674	134.007286
29363		12.108907	-1.379001	15.654110	2.220282	3.917339	0.008045	-1.049072	0.189697	-0.234375	-9.183358	-8.896528	133.619811
29364		-0.826641	0.142952	13.177317	2.061395	2.698494	0.145596	-1.028076	0.179688	-0.254639	-7.979973	-7.354990	133.468088
29365		8.091444	1.110939	-8.848264	1.431407	3.122982	-0.121821	-1.021973	0.182861	-0.268799	-7.122625	-5.590234	133.159774
29366		-1.161306	3.944999	1.075738	1.017282	4.262125	-0.158376	-0.992188	0.175293	-0.284912	-6.509537	-3.176169	132.776654
29367		-7.018336	3.105521	13.652593	0.640578	4.343533	-0.284515	-0.966797	0.170166	-0.302490	-6.125171	-0.720386	132.338546
29368		-9.056557	5.544218	20.580443	0.466989	3.849567	-0.319597	-0.948730	0.173584	-0.320557	-5.859003	1.454557	131.924056
29369		-5.092166	7.364410	13.437273	0.283965	3.134678	-0.046663	-0.927490	0.173340	-0.328857	-5.702491	3.238952	131.714366
29370		-1.274327	7.607400	7.772774	0.257825	3.293107	0.398977	-0.908447	0.161621	-0.340820	-5.549865	5.140144	131.754963
29371		-3.329417	3.683808	10.900936	0.085193	3.854104	0.693257	-0.882324	0.167725	-0.353271	-5.478793	7.376528	131.937184
29372		-11.001202	-4.025369	20.902310	-0.030121	3.756395	0.629676	-0.858887	0.173096	-0.373535	-5.470962	9.554585	132.090736
29373		-8.908025	-7.266105	18.655338	-0.216593	3.325594	0.353631	-0.834229	0.181885	-0.366699	-5.589713	11.470858	132.107029
29374		-10.658214	-6.683811	20.467236	0.161083	2.943738	0.252746	-0.810791	0.164063	-0.372314	-5.499800	13.165370	132.085759
29375		-10.565505	-3.892456	20.602320	0.305007	2.166092	0.104932	-0.801270	0.170410	-0.379639	-5.337218	14.406776	132.024636
29376		-9.425598	-2.207089	19.299327	0.627259	1.397519	0.065337	-0.791504	0.162598	-0.377441	-4.985685	15.209909	131.986600
29377		-9.192172	0.876705	17.498071	0.356621	0.325293	0.107813	-0.788574	0.172852	-0.379150	-4.767015	15.401079	132.031893
29378		-1.152636	0.137399	8.755648	0.164451	0.221028	0.055635	-0.784912	0.159668	-0.381836	-4.665499	15.532609	132.052016
29379		-4.686791	-1.348259	12.300980	0.178819	0.438276	0.071065	-0.780518	0.163818	-0.383789	-4.555505	15.786408	132.071108
29380		-3.890314	-0.000788	11.542266	0.139806	0.257060	0.076949	-0.779541	0.162109	-0.382813	-4.464812	15.939417	132.102726
29381		-3.516555	0.095028	11.446057	-0.004637	0.287145	0.041362	-0.788330	0.161377	-0.381836	-4.462555	16.105513	132.111887
29382		-3.285189	-0.637623	10.258940	-0.044657	0.245050	0.010744	-0.781982	0.159424	-0.381348	-4.488071	16.248730	132.104868
29383		-3.083088	-0.695177	10.077917	-0.007611	0.215848	0.006952	-0.777832	0.165039	-0.379639	-4.492308	16.372563	132.096815
29384		-3.055147	-0.825022	9.951489	0.030593	0.164355	0.003121	-0.772217	0.164551	-0.380615	-4.474954	16.469372	132.088999
29385		-2.654640	-0.764558	9.311789	0.042792	0.180470	0.003077	-0.770020	0.157227	-0.382568	-4.450514	16.572827	132.080336
29386		-2.884042	-0.996273	9.541153	0.058159	0.201475	0.019372	-0.772949	0.168945	-0.378906	-4.415096	16.691576	132.080567
29387		-2.976822	-0.783387	9.609264	0.074637	0.215299	0.030035	-0.770752	0.161133	-0.380127	-4.368233	16.816121	132.086514
29388		-3.068194	-0.811899	9.646069	0.092820	0.185851	0.030948	-0.772461	0.162842	-0.375732	-4.310702	16.926457	132.094555
29389		-3.045280	-0.793751	9.633298	0.085544	0.176465	0.037809	-0.770264	0.167480	-0.381348	-4.255629	17.029136	132.107138
29390		-3.103970	-0.710701	9.565155	0.075913	0.155868	0.047128	-0.760742	0.171387	-0.375488	-4.204470	17.123027	132.126395
29391		-3.075382	-0.715991	9.693862	0.075840	0.138724	0.046993	-0.765869	0.166992	-0.379639	-4.152750	17.204500	132.146329
29392		-3.021234	-0.601437	9.544998	0.065243	0.129960	0.041733	-0.770752	0.164063	-0.387939	-4.108222	17.283350	132.163660
29393		-3.010581	-0.687442	9.484069	0.060456	0.123361	0.037353	-0.768066	0.155762	-0.379395	-4.066740	17.355619	132.178632
29394		-2.965800	-0.690352	9.385048	0.069459	0.135053	0.034453	-0.769287	0.158691	-0.384033	-4.021076	17.437072	132.191523
29395		-2.969513	-0.744624	9.443656	0.058367	0.143042	0.044271	-0.754639	0.161621	-0.386719	-3.979716	17.520846	132.209945
29396		-3.143192	-0.656879	9.534553	0.049876	0.141627	0.052980	-0.761963	0.161133	-0.382813	-3.941933	17.606780	132.233798
29397		-3.219426	-0.647254	9.667262	0.058258	0.125891	0.044191	-0.750977	0.153076	-0.379395	-3.900343	17.680722	132.253015
29398		-3.144312	-0.533657	9.535781	0.071604	0.104772	0.032783	-0.761719	0.156250	-0.389648	-3.853237	17.744790	132.266396
29399		-3.179809	-0.588247	9.561736	0.068546	0.091169	0.024907	-0.765625	0.157471	-0.379883	-3.808778	17.798116	132.275568
29400		-3.136159	-0.599037	9.505437	0.067491	0.087118	0.019809	-0.764160	0.153320	-0.377441	-3.766132	17.851597	132.281970
29401		-3.094604	-0.664299	9.453849	0.068360	0.077539	0.023148	-0.758057	0.163330	-0.382813	-3.721896	17.897051	132.290711
29402		-3.145770	-0.618702	9.496044	0.059892	0.077620	0.024286	-0.757324	0.165527	-0.378662	-3.682628	17.945269	132.300254
29403		-3.190758	-0.667660	9.464642	0.055783	0.066992	0.027421	-0.752197	0.162109	-0.379150	-3.644646	17.984837	132.312042
29404		-3.127105	-0.679376	9.426249	0.051332	0.062627	0.031095	-0.754150	0.165527	-0.378174	-3.608808	18.024731	132.326317
29405		-3.275735	-0.591328	9.534736	0.040745	0.054476	0.039059	-0.754883	0.159180	-0.380615	-3.577096	18.057546	132.345632
29406		-3.221231	-0.577903	9.543435	0.036716	0.022483	0.027908	-0.759277	0.157471	-0.380859	-3.549735	18.074372	132.359540
29407		-3.202594	-0.580489	9.487115	0.010425	0.010823	0.030737	-0.755127	0.156494	-0.383057	-3.536422	18.081913	132.375509
29408		-3.154198	-0.651591	9.437799	-0.000879	0.008758	0.036972	-0.747070	0.165283	-0.387939	-3.528740	18.091218	132.395391
29409		-3.128903	-0.670506	9.481140	-0.010084	0.005583	0.048563	-0.758545	0.165771	-0.380615	-3.523781	18.096386	132.422282
29410		-3.179584	-0.658667	9.461411	-0.031890	0.009728	0.060832	-0.755615	0.162109	-0.383057	-3.529419	18.107095	132.456482
29411		-3.180553	-0.558554	9.493143	-0.035558	0.007922	0.057742	-0.747314	0.156494	-0.378662	-3.537357	18.113927	132.488812
29412		-3.178354	-0.648260	9.492290	-0.041216	-0.005612	0.063110	-0.754883	0.159424	-0.381104	-3.547727	18.115966	132.524954
29413		-3.111168	-0.621027	9.492352	-0.042756	-0.002820	0.071930	-0.759521	0.156250	-0.381348	-3.557008	18.117169	132.566220
29414		-3.155478	-0.585037	9.535954	-0.066449	0.009052	0.064518	-0.750977	0.157227	-0.381348	-3.581739	18.127668	132.602659
29415		-3.122158	-0.608411	9.464528	-0.072749	0.016666	0.062539	-0.750488	0.155029	-0.374023	-3.610180	18.139706	132.637541
29416		-3.203053	-0.616153	9.509627	-0.077559	0.019299	0.063018	-0.741943	0.158447	-0.382813	-3.641662	18.156051	132.672684
29417		-3.152820	-0.639996	9.454921	-0.078361	0.018933	0.058543	-0.751221	0.149170	-0.385986	-3.674080	18.169276	132.705066
29418		-3.140586	-0.658471	9.439082	-0.076850	0.021113	0.060080	-0.750000	0.154297	-0.377686	-3.705715	18.186596	132.738360
29419		-3.223890	-0.578489	9.485051	-0.079228	0.017093	0.061606	-0.747070	0.156494	-0.385986	-3.738020	18.198917	132.772647
29420		-3.205355	-0.630581	9.464204	-0.076658	0.007670	0.060515	-0.748047	0.159180	-0.386719	-3.769284	18.208614	132.806722
29421		-3.159789	-0.661655	9.451103	-0.076935	0.003250	0.063640	-0.749268	0.165771	-0.380859	-3.799713	18.213134	132.842774
29422		-3.151807	-0.646128	9.440994	-0.075596	0.008184	0.067344	-0.753906	0.165283	-0.390137	-3.829083	18.223429	132.880933
29423		-3.235033	-0.666944	9.454443	-0.078292	0.011164	0.065684	-0.753174	0.156006	-0.382568	-3.859995	18.232587	132.917894
29424		-3.168209	-0.602126	9.418436	-0.071102	0.002594	0.062520	-0.753662	0.165039	-0.381348	-3.887617	18.239549	132.953373
29425		-3.148785	-0.653728	9.397786	-0.076943	-0.000271	0.065350	-0.750000	0.167236	-0.387939	-3.917666	18.242193	132.990594
29426		-3.172252	-0.666862	9.421541	-0.082447	-0.008646	0.063845	-0.755127	0.156250	-0.377930	-3.951386	18.242825	133.027334
29427		-3.159831	-0.680458	9.479604	-0.090915	-0.019949	0.071261	-0.750244	0.166504	-0.387939	-3.988072	18.234498	133.068931
29428		-2.992721	-0.573399	9.380056	-0.091891	-0.034645	0.068618	-0.754150	0.154785	-0.385010	-4.025970	18.220512	133.109638
29429		-3.172851	-0.665498	9.396477	-0.100357	-0.078657	0.067834	-0.748535	0.167725	-0.379395	-4.067956	18.178546	133.151675
29430		-3.210955	-0.646070	9.411487	-0.083032	-0.105060	0.062523	-0.751465	0.161133	-0.387695	-4.101018	18.124123	133.191750
29431		-3.191069	-0.630348	9.405541	-0.057386	-0.132251	0.040345	-0.749268	0.163330	-0.387695	-4.122866	18.050445	133.219600
29432		-3.265931	-0.698246	9.501054	-0.039301	-0.156819	0.032012	-0.754639	0.163330	-0.388672	-4.135929	17.965228	133.243604
29433		-2.966352	-0.659544	9.423371	-0.025323	-0.191377	0.042489	-0.756104	0.166260	-0.389893	-4.138300	17.857862	133.275316
29434		-3.129413	-0.690426	9.441805	-0.007506	-0.201765	0.030094	-0.763672	0.175049	-0.386230	-4.132984	17.746889	133.300104
29435		-2.982796	-0.622150	9.593292	0.026410	-0.136063	0.018642	-0.749268	0.163086	-0.378906	-4.110920	17.670143	133.315053
29436		-2.777680	-0.642778	9.603897	0.035924	-0.072337	0.012939	-0.751709	0.170898	-0.383789	-4.085614	17.632421	133.323894
29437		-2.878894	-0.618630	9.609157	0.075649	-0.001773	0.004399	-0.760254	0.159912	-0.380371	-4.039704	17.631832	133.324492
29438		-2.803715	-0.696127	9.559618	0.098529	0.098398	-0.011541	-0.758789	0.163086	-0.382813	-3.985173	17.690676	133.311402
29439		-2.869537	-0.728005	9.541686	0.098344	0.162896	0.006329	-0.754395	0.158691	-0.387939	-3.927988	17.784286	133.306323
29440		-2.816875	-0.765211	9.566742	0.098969	0.249349	0.006516	-0.756592	0.163818	-0.382813	-3.871794	17.930123	133.297991
29441		-2.741359	-0.834243	9.487035	0.079534	0.330797	0.048876	-0.752441	0.158691	-0.376953	-3.819539	18.121361	133.311888
29442		-2.624742	-0.912357	9.498401	0.038732	0.362636	0.124693	-0.759277	0.165527	-0.383057	-3.777014	18.336431	133.370398
29443		-2.745277	-0.920789	9.502296	0.001726	0.414926	0.218344	-0.750488	0.158936	-0.387939	-3.737842	18.582110	133.483454
29444		-2.679752	-0.995099	9.549901	-0.009950	0.504040	0.296988	-0.742676	0.160400	-0.385254	-3.690957	18.884293	133.640927
29445		-2.452427	-1.187644	9.630710	0.023565	0.579637	0.397628	-0.740723	0.163086	-0.390381	-3.604523	19.230483	133.856988
29446		-2.637285	-1.080037	9.699507	0.038243	0.683605	0.532404	-0.738281	0.163086	-0.392334	-3.482433	19.643167	134.152070
29447		-2.292760	-0.882691	9.946442	0.045097	0.914844	0.652768	-0.734131	0.164307	-0.384521	-3.330954	20.188903	134.513895
29448		-1.406399	-0.889223	10.441473	0.123655	1.448119	0.700818	-0.731201	0.158936	-0.387451	-3.125644	21.042717	134.890153
29449		-0.105391	-1.112663	11.579895	0.304030	2.331666	0.776360	-0.717529	0.162842	-0.393799	-2.800386	22.400160	135.291824
29450		1.859080	-1.234766	14.014680	0.473349	3.769203	0.912903	-0.691406	0.152832	-0.397949	-2.343044	24.583516	135.753642
29451		1.594412	-1.483100	16.198010	0.567384	5.898507	1.144410	-0.655029	0.152588	-0.404053	-1.752393	27.984728	136.347475
29452		0.892303	-1.034866	14.674504	0.263174	7.849060	1.388134	-0.614990	0.148682	-0.403809	-1.204717	32.502599	137.130763
29453		-1.247708	-0.122875	10.803638	0.215222	9.226231	1.487285	-0.570557	0.146484	-0.395996	-0.536506	37.801673	138.071855
29454		0.243651	-0.103659	10.386031	0.352276	10.177678	1.470527	-0.512451	0.141113	-0.388916	0.384735	43.635255	139.169815
