// General information: 
//  MT Manager version: 2022.2.0 
//  XDA version: 2022.2.0 build 7381 rev 124627 built on 2023-07-19
// Device information: 
//  DeviceId: 00B4C223
//  ProductCode: MTW2-3A7G6
//  Firmware Version: 4.6.0
//  Hardware Version: 2.0.0
// Device settings: 
//  Filter Profile: human(46.1)
//  Option Flags: Orientation Smoother Disabled, Position/Velocity Smoother Disabled, Continuous Zero Rotation Update Disabled, AHS Disabled, ICC Disabled
// Coordinate system: ENU
PacketCounter	SampleTimeFine	Acc_X	Acc_Y	Acc_Z	Gyr_X	Gyr_Y	Gyr_Z	Mag_X	Mag_Y	Mag_Z	Roll	Pitch	Yaw
13770		-3.270049	-0.731511	9.421740	-0.003208	-0.002196	0.003059	-1.065430	0.359375	-0.528564	-4.379628	19.103864	128.025277
13771		-3.252001	-0.720674	9.394431	-0.005904	-0.000972	0.005598	-1.066406	0.364746	-0.526123	-4.380127	19.103876	128.026725
13772		-3.225704	-0.741763	9.403184	-0.004790	-0.002032	0.003375	-1.060547	0.362061	-0.520508	-4.380454	19.103117	128.024511
13773		-3.251725	-0.721371	9.394473	-0.004790	-0.002032	0.003375	-1.063965	0.365479	-0.521973	-4.380739	19.102426	128.024665
13774		-3.273638	-0.716937	9.403789	-0.004931	-0.001490	0.001931	-1.064697	0.364990	-0.525879	-4.381523	19.101706	128.025053
13775		-3.251461	-0.722028	9.394514	-0.004182	-0.001678	0.006726	-1.062256	0.364258	-0.521240	-4.380802	19.101364	128.027217
13776		-3.251381	-0.722302	9.394520	-0.005904	-0.000972	0.005598	-1.058350	0.363281	-0.532471	-4.381404	19.101193	128.028957
13777		-3.273510	-0.717867	9.403762	-0.004417	0.001929	0.001411	-1.062256	0.355225	-0.521729	-4.381924	19.102679	128.027740
13778		-3.251513	-0.722974	9.394423	-0.004323	-0.001136	0.005282	-1.070313	0.356201	-0.529785	-4.381573	19.102654	128.028620
13779		-3.251465	-0.723239	9.394419	-0.004463	-0.000594	0.003837	-1.063477	0.361084	-0.529785	-4.381601	19.102805	128.028987
13780		-3.283092	-0.736554	9.390125	-0.004323	-0.001136	0.005282	-1.057861	0.361572	-0.518311	-4.381237	19.102734	128.025961
13781		-3.215420	-0.726633	9.416784	-0.003537	-0.003634	0.002597	-1.062988	0.351563	-0.524170	-4.380933	19.101094	128.025718
13782		-3.260675	-0.741941	9.380908	-0.006045	-0.000430	0.004154	-1.062500	0.361572	-0.524170	-4.381865	19.101103	128.026427
13783		-3.247010	-0.740465	9.412461	-0.005858	0.001551	0.003172	-1.065430	0.364990	-0.517822	-4.382856	19.102450	128.026292
13784		-3.242845	-0.731562	9.353489	-0.001909	-0.001275	-0.000146	-1.066895	0.358398	-0.525635	-4.382330	19.101703	128.024434
13785		-3.269086	-0.736190	9.421710	-0.004136	0.000844	0.004300	-1.060547	0.357666	-0.518799	-4.382101	19.102696	128.025013
13786		-3.224995	-0.746050	9.403088	-0.004323	-0.001137	0.005282	-1.054932	0.364014	-0.522461	-4.381825	19.102321	128.024841
13787		-3.255247	-0.709619	9.376334	-0.004464	-0.000594	0.003838	-1.062500	0.363037	-0.532227	-4.381854	19.102471	128.025207
13788		-3.247046	-0.741779	9.412345	-0.004136	0.000844	0.004300	-1.061035	0.362549	-0.526123	-4.381645	19.103613	128.027560
13789		-3.215408	-0.729012	9.416604	-0.004464	-0.000594	0.003838	-1.059814	0.361328	-0.526123	-4.381673	19.103763	128.027926
13790		-3.247069	-0.742417	9.412287	-0.006045	-0.000430	0.004154	-1.064453	0.354004	-0.515381	-4.382581	19.104047	128.029046
13791		-3.223590	-0.697711	9.380536	-0.001301	-0.000922	0.003205	-1.061035	0.362549	-0.525391	-4.380917	19.103983	128.029044
13792		-3.247075	-0.742916	9.412246	-0.007299	0.001172	0.004934	-1.064209	0.363770	-0.525879	-4.382475	19.104835	128.029362
13793		-3.241636	-0.709491	9.407769	-0.003023	-0.000215	0.002077	-1.060059	0.357910	-0.527832	-4.382032	19.105125	128.028646
13794		-3.229135	-0.732390	9.384880	-0.003351	-0.001654	0.001614	-1.058594	0.361084	-0.524170	-4.381867	19.104588	128.026941
13795		-3.273128	-0.722943	9.403506	-0.002743	-0.001301	0.004966	-1.063232	0.359863	-0.518799	-4.380675	19.104384	128.028022
13796		-3.237201	-0.726083	9.425848	-0.004792	-0.002033	0.003375	-1.064941	0.360840	-0.526855	-4.381051	19.103454	128.028937
13797		-3.250842	-0.728223	9.394250	-0.002883	-0.000758	0.003521	-1.066895	0.363037	-0.520996	-4.380233	19.103497	128.029119
13798		-3.260428	-0.746222	9.380655	-0.002883	-0.000758	0.003521	-1.062500	0.361084	-0.523193	-4.379504	19.103298	128.027590
13799		-3.250679	-0.728667	9.394272	-0.006234	-0.002412	0.005136	-1.063965	0.361328	-0.531738	-4.380262	19.102467	128.028825
13800		-3.236909	-0.727255	9.425858	-0.007300	0.001172	0.004934	-1.056396	0.362305	-0.531494	-4.381744	19.103697	128.028467
13801		-3.238448	-0.752119	9.371241	-0.002367	0.002661	0.003003	-1.073730	0.356934	-0.523193	-4.380785	19.105670	128.028178
13802		-3.245537	-0.695855	9.389654	-0.004137	0.000844	0.004301	-1.061768	0.365723	-0.523682	-4.380573	19.106618	128.026048
13803		-3.241444	-0.712055	9.407642	-0.004325	-0.001138	0.005282	-1.057861	0.360107	-0.526855	-4.380227	19.106521	128.027312
13804		-3.251031	-0.730157	9.394034	-0.004465	-0.000595	0.003838	-1.065430	0.359131	-0.529297	-4.380307	19.106672	128.029129
13805		-3.259365	-0.723775	9.434919	-0.005579	0.000464	0.006062	-1.059082	0.356934	-0.526611	-4.380550	19.107524	128.030790
13806		-3.251002	-0.730772	9.393997	-0.004653	-0.002576	0.004819	-1.065186	0.355225	-0.521973	-4.380444	19.106643	128.029953
13807		-3.255017	-0.715018	9.376004	-0.001582	0.000164	0.000317	-1.063721	0.371582	-0.524170	-4.379529	19.107073	128.028155
13808		-3.268854	-0.742302	9.421311	-0.003023	-0.000215	0.002078	-1.058594	0.364014	-0.526611	-4.379195	19.107111	128.026967
13809		-3.237235	-0.729662	9.425560	-0.007300	0.001172	0.004935	-1.062256	0.364502	-0.522949	-4.380658	19.108318	128.027915
13810		-3.241354	-0.714162	9.407513	-0.004933	-0.001489	0.001931	-1.058594	0.361084	-0.529785	-4.381392	19.107833	128.028773
13811		-3.245415	-0.698643	9.389489	-0.006187	0.000113	0.002711	-1.065186	0.368896	-0.529297	-4.382641	19.108338	128.028424
13812		-3.260580	-0.750592	9.380253	-0.002884	-0.000759	0.003522	-1.058594	0.358643	-0.524658	-4.381838	19.108558	128.028709
13813		-3.241290	-0.715261	9.407452	-0.006187	0.000113	0.002711	-1.061523	0.357422	-0.524414	-4.383087	19.109063	128.028361
13814		-3.250875	-0.733466	9.393831	-0.003352	-0.001653	0.001614	-1.065430	0.363037	-0.526367	-4.382924	19.108441	128.027271
13815		-3.241164	-0.716057	9.407434	-0.007629	-0.000267	0.004472	-1.064453	0.363037	-0.531250	-4.384645	19.108807	128.028005
13816		-3.250688	-0.734461	9.393818	-0.006844	-0.002763	0.001784	-1.055420	0.361572	-0.525146	-4.386434	19.107668	128.025382
13817		-3.240958	-0.716916	9.407440	-0.000974	0.000515	0.003668	-1.057129	0.364014	-0.515869	-4.384513	19.108445	128.025594
13818		-3.240973	-0.717163	9.407416	-0.005213	-0.000402	-0.000957	-1.063721	0.366943	-0.523193	-4.386028	19.108330	128.027168
13819		-3.244983	-0.701690	9.389411	-0.006376	-0.001869	0.003692	-1.061035	0.361328	-0.529785	-4.387161	19.107746	128.027505
13820		-3.254608	-0.719875	9.375774	-0.004137	0.000843	0.004302	-1.069092	0.359131	-0.528076	-4.386987	19.108730	128.028333
13821		-3.240828	-0.718325	9.407377	-0.004794	-0.002033	0.003375	-1.067139	0.368164	-0.519043	-4.387274	19.108038	128.028486
13822		-3.250407	-0.736562	9.393751	-0.006188	0.000113	0.002712	-1.060547	0.361572	-0.521973	-4.388643	19.108204	128.026184
13823		-3.244727	-0.703205	9.389386	-0.005123	-0.003471	0.002911	-1.065186	0.361084	-0.517578	-4.389189	19.106670	128.026123
13824		-3.250173	-0.737501	9.393758	-0.006467	0.001201	-0.000176	-1.063232	0.359131	-0.531494	-4.391317	19.107270	128.024301
13825		-3.240537	-0.720040	9.407346	-0.002744	-0.001304	0.004966	-1.061523	0.359375	-0.528320	-4.390127	19.107065	128.025381
13826		-3.276241	-0.717370	9.385051	-0.006516	-0.001325	0.002248	-1.058838	0.364014	-0.520264	-4.391592	19.106902	128.022870
13827		-3.231998	-0.727674	9.366428	-0.008567	-0.002055	0.000658	-1.065918	0.360596	-0.520996	-4.394578	19.106078	128.021381
13828		-3.240134	-0.721614	9.407365	-0.004935	-0.001490	0.001931	-1.072510	0.371826	-0.527832	-4.395364	19.105301	128.021396
13829		-3.249658	-0.739828	9.393753	-0.004935	-0.001490	0.001931	-1.061035	0.361328	-0.524658	-4.396026	19.104856	128.020650
13830		-3.257831	-0.708263	9.357753	-0.004746	0.000492	0.000951	-1.065918	0.357422	-0.518311	-4.396899	19.105373	128.018326
13831		-3.259206	-0.758463	9.380097	-0.006237	-0.002414	0.005136	-1.064209	0.361572	-0.528564	-4.397659	19.104540	128.019561
13832		-3.249360	-0.741077	9.393758	-0.003961	-0.002003	-0.001737	-1.062988	0.362793	-0.525391	-4.398549	19.103383	128.014700
13833		-3.231413	-0.730125	9.366439	-0.002087	0.001570	0.005894	-1.062988	0.358154	-0.530029	-4.396842	19.104860	128.016208
13834		-3.261818	-0.719035	9.416633	-0.008239	-0.000617	0.001122	-1.054688	0.363037	-0.529297	-4.399572	19.104927	128.013546
13835		-3.253490	-0.726189	9.375675	-0.004467	-0.000596	0.003839	-1.056152	0.363525	-0.524414	-4.399602	19.105076	128.013912
13836		-3.271405	-0.737653	9.402964	-0.004467	-0.000597	0.003839	-1.065918	0.360840	-0.522705	-4.399636	19.105460	128.017748
13837		-3.235514	-0.741051	9.425262	-0.006377	-0.001870	0.003692	-1.062988	0.361328	-0.522461	-4.400770	19.104875	128.018085
13838		-3.258849	-0.761122	9.380006	-0.006049	-0.000432	0.004157	-1.066406	0.357666	-0.528076	-4.401740	19.104845	128.017689
13839		-3.249035	-0.743728	9.393660	-0.005124	-0.003472	0.002911	-1.057373	0.360840	-0.521729	-4.402287	19.103310	128.017628
13840		-3.244976	-0.759997	9.411606	-0.003480	0.003716	0.005232	-1.055664	0.356689	-0.530029	-4.401571	19.105903	128.017823
13841		-3.239628	-0.726525	9.407161	-0.006189	0.000112	0.002713	-1.063232	0.362549	-0.529297	-4.402821	19.106407	128.017475
13842		-3.258889	-0.762502	9.379880	-0.003353	-0.001654	0.001614	-1.060791	0.360596	-0.520752	-4.402586	19.106113	128.016125
13843		-3.225571	-0.700031	9.361904	-0.004796	-0.002034	0.003375	-1.062012	0.360840	-0.523682	-4.402875	19.105421	128.016278
13844		-3.271092	-0.740475	9.402851	-0.004138	0.000841	0.004304	-1.063965	0.363770	-0.523438	-4.402731	19.106189	128.017265
13845		-3.239420	-0.727705	9.407141	-0.002885	-0.000761	0.003522	-1.058838	0.359619	-0.530762	-4.401914	19.106230	128.017447
13846		-3.227091	-0.750560	9.384147	-0.004278	0.001385	0.002860	-1.060303	0.365723	-0.520996	-4.402077	19.107530	128.016961
13847		-3.253155	-0.730080	9.375489	-0.005125	-0.003472	0.002911	-1.058594	0.358887	-0.527588	-4.402624	19.105995	128.016900
13848		-3.251555	-0.705989	9.430116	-0.005631	-0.002068	0.008488	-1.062744	0.360596	-0.532227	-4.402437	19.105467	128.021567
13849		-3.248790	-0.746776	9.393503	-0.006189	0.000112	0.002713	-1.063232	0.371582	-0.526611	-4.403687	19.105972	128.021219
13850		-3.265207	-0.708529	9.398482	-0.003354	-0.001654	0.001614	-1.057129	0.354980	-0.525391	-4.403531	19.105581	128.020540
13851		-3.270621	-0.742629	9.402845	-0.004797	-0.002035	0.003375	-1.068115	0.365479	-0.522705	-4.403820	19.104888	128.020692
13852		-3.238885	-0.729961	9.407151	-0.004138	0.000840	0.004304	-1.063477	0.361816	-0.527100	-4.403649	19.105718	128.020528
13853		-3.260967	-0.725406	9.416439	-0.004468	-0.000597	0.003840	-1.071777	0.363525	-0.520996	-4.403679	19.105867	128.020895
13854		-3.248665	-0.748394	9.393418	-0.005860	0.001550	0.003178	-1.057129	0.363037	-0.523193	-4.404774	19.106910	128.018761
13855		-3.243202	-0.715027	9.389020	-0.004747	0.000493	0.000953	-1.065918	0.364990	-0.531250	-4.405552	19.107554	128.017331
13856		-3.234957	-0.747247	9.424964	-0.002467	-0.002398	0.007853	-1.064209	0.364502	-0.530273	-4.403650	19.106923	128.020751
13857		-3.274785	-0.728413	9.384709	-0.006190	0.000113	0.002714	-1.060791	0.353271	-0.525146	-4.404901	19.107428	128.020404
13858		-3.220957	-0.720635	9.379707	-0.003215	-0.002199	0.003057	-1.064697	0.357666	-0.512939	-4.404330	19.106676	128.018580
13859		-3.248519	-0.749799	9.393356	-0.003999	0.000294	0.005748	-1.062256	0.364014	-0.525146	-4.403728	19.107419	128.020059
13860		-3.256743	-0.718039	9.357387	-0.004607	-0.000052	0.002396	-1.054199	0.364990	-0.526367	-4.404280	19.107336	128.019541
13861		-3.260920	-0.727784	9.416271	-0.004468	-0.000597	0.003840	-1.062500	0.356934	-0.522705	-4.404310	19.107484	128.019908
13862		-3.262357	-0.752538	9.361637	-0.007164	0.000623	0.006384	-1.056885	0.358887	-0.521973	-4.405435	19.108445	128.023124
13863		-3.252803	-0.735075	9.375221	-0.002696	0.001221	0.002544	-1.070313	0.359131	-0.523926	-4.404735	19.109576	128.022622
13864		-3.239062	-0.733450	9.406818	-0.002747	-0.001308	0.004966	-1.055908	0.363770	-0.522705	-4.403614	19.109107	128.022258
13865		-3.248693	-0.751385	9.393169	-0.003025	-0.000216	0.002079	-1.059570	0.364502	-0.526367	-4.403172	19.109395	128.021542
13866		-3.265097	-0.712910	9.398189	-0.002747	-0.001308	0.004966	-1.064697	0.369385	-0.523926	-4.402045	19.109221	128.025321
13867		-3.229244	-0.716255	9.420475	-0.006051	-0.000433	0.004158	-1.067871	0.369629	-0.528809	-4.402922	19.109477	128.025872
13868		-3.274706	-0.731312	9.384511	-0.004469	-0.000598	0.003840	-1.058350	0.358643	-0.526367	-4.403075	19.109520	128.027008
13869		-3.234720	-0.750739	9.424768	-0.004798	-0.002035	0.003375	-1.062500	0.358154	-0.520264	-4.403365	19.108827	128.027161
13870		-3.238677	-0.735044	9.406827	-0.005773	-0.001525	0.007045	-1.062500	0.357178	-0.524414	-4.403535	19.108442	128.028933
13871		-3.274519	-0.732333	9.384497	-0.005861	0.001550	0.003180	-1.062500	0.353760	-0.521973	-4.404527	19.109788	128.028801
13872		-3.246868	-0.703627	9.370853	-0.001634	-0.002364	0.002739	-1.064453	0.364746	-0.522705	-4.403150	19.108652	128.026128
13873		-3.266149	-0.764846	9.420446	-0.004799	-0.002035	0.003375	-1.053955	0.357178	-0.525146	-4.403440	19.107959	128.026280
13874		-3.274163	-0.733090	9.384562	-0.003356	-0.001653	0.001614	-1.063721	0.369385	-0.522217	-4.403307	19.107349	128.026243
13875		-3.232703	-0.702770	9.402540	-0.006191	0.000113	0.002715	-1.062988	0.367920	-0.534180	-4.404558	19.107853	128.025896
13876		-3.247949	-0.754851	9.393149	-0.006521	-0.001324	0.002250	-1.063477	0.367188	-0.523438	-4.406138	19.107613	128.026664
13877		-3.264197	-0.716709	9.398212	-0.005268	-0.002926	0.001466	-1.063965	0.364746	-0.518799	-4.407061	19.106327	128.025704
13878		-3.242007	-0.721849	9.388911	-0.002887	-0.000763	0.003523	-1.061523	0.363770	-0.526367	-4.406406	19.106023	128.027233
13879		-3.237904	-0.738247	9.406842	-0.007634	-0.000268	0.004477	-1.059326	0.362549	-0.525635	-4.408130	19.106387	128.027969
13880		-3.269390	-0.751537	9.402565	-0.002294	-0.005239	0.001808	-1.065430	0.364990	-0.517578	-4.407285	19.103835	128.028045
13881		-3.229141	-0.745442	9.366016	-0.005913	-0.000980	0.005602	-1.069580	0.356445	-0.525635	-4.407789	19.103843	128.029495
13882		-3.267742	-0.702314	9.380324	-0.004087	0.003368	0.001885	-1.063721	0.358643	-0.531006	-4.408169	19.105725	128.026472
13883		-3.241797	-0.723529	9.388854	-0.004608	-0.000052	0.002397	-1.064209	0.362793	-0.526611	-4.408574	19.106121	128.025941
13884		-3.259741	-0.735054	9.416115	-0.004469	-0.000598	0.003841	-1.068604	0.360596	-0.529541	-4.408592	19.106361	128.024435
13885		-3.281677	-0.730533	9.425459	-0.004800	-0.002035	0.003375	-1.061523	0.361572	-0.524902	-4.408883	19.105667	128.024588
13886		-3.227929	-0.722920	9.420416	-0.007443	0.001715	0.003499	-1.056396	0.359619	-0.529541	-4.410743	19.107084	128.022706
13887		-3.241861	-0.725014	9.388717	-0.002696	0.001220	0.002545	-1.062256	0.362061	-0.524414	-4.410043	19.108213	128.022205
13888		-3.241901	-0.725286	9.388682	-0.005913	-0.000980	0.005602	-1.062012	0.370850	-0.523193	-4.410543	19.108344	128.023940
13889		-3.237696	-0.741549	9.406654	-0.001635	-0.002365	0.002739	-1.067383	0.358887	-0.526367	-4.409141	19.107434	128.023722
13890		-3.283239	-0.756334	9.370676	-0.003948	0.002822	0.003329	-1.056152	0.371094	-0.523193	-4.409123	19.109350	128.023586
13891		-3.246026	-0.709902	9.370672	-0.004470	-0.000599	0.003841	-1.062744	0.364258	-0.528320	-4.409155	19.109498	128.023953
13892		-3.251607	-0.743925	9.374938	-0.002887	-0.000764	0.003523	-1.064941	0.370117	-0.524170	-4.408420	19.109607	128.027055
13893		-3.273651	-0.739254	9.384257	-0.004001	0.000291	0.005750	-1.064697	0.365479	-0.527344	-4.407819	19.110347	128.028535
13894		-3.251799	-0.744322	9.374840	-0.003948	0.002822	0.003330	-1.066162	0.360840	-0.529785	-4.407813	19.112326	128.029439
13895		-3.242250	-0.726990	9.388430	-0.007636	-0.000268	0.004477	-1.059326	0.371582	-0.523438	-4.409537	19.112690	128.030176
13896		-3.238079	-0.743358	9.406379	-0.001635	-0.002365	0.002739	-1.072266	0.366943	-0.528809	-4.408205	19.111785	128.030957
13897		-3.237814	-0.743624	9.406449	-0.006575	-0.003854	0.004670	-1.062500	0.360596	-0.520508	-4.409229	19.110110	128.031978
13898		-3.219728	-0.732746	9.379191	-0.004001	0.000291	0.005750	-1.064697	0.371094	-0.527832	-4.408728	19.110585	128.032314
13899		-3.241938	-0.728127	9.388450	-0.003948	0.002822	0.003330	-1.060791	0.359131	-0.528809	-4.408614	19.112664	128.032214
13900		-3.251749	-0.746119	9.374714	-0.004332	-0.001146	0.005284	-1.062500	0.364014	-0.526123	-4.408303	19.112667	128.033798
13901		-3.259918	-0.739972	9.415668	-0.006523	-0.001323	0.002250	-1.058594	0.366699	-0.531250	-4.409815	19.112331	128.033238
13902		-3.247353	-0.763034	9.392693	-0.006437	-0.004401	0.006113	-1.070313	0.360840	-0.522217	-4.410482	19.110599	128.036219
13903		-3.253847	-0.706999	9.411502	-0.004471	-0.000599	0.003841	-1.055664	0.364014	-0.527832	-4.410514	19.110747	128.036587
13904		-3.263593	-0.725011	9.397786	-0.004140	0.000838	0.004308	-1.053467	0.370361	-0.521484	-4.410346	19.111620	128.036768
13905		-3.263704	-0.725442	9.397714	-0.006470	0.001208	-0.000170	-1.067627	0.359863	-0.530029	-4.412345	19.112624	128.034627
13906		-3.241459	-0.730684	9.388416	-0.003603	-0.006168	0.005010	-1.071289	0.359131	-0.524658	-4.411625	19.109655	128.037272
13907		-3.237056	-0.747034	9.406440	-0.004940	-0.001488	0.001932	-1.057129	0.353271	-0.525635	-4.412290	19.109211	128.036528
13908		-3.258998	-0.742465	9.415790	-0.002888	-0.000764	0.003523	-1.061279	0.359131	-0.518799	-4.411482	19.109081	128.033434
13909		-3.249322	-0.724934	9.429448	-0.004140	0.000837	0.004308	-1.062988	0.365479	-0.523682	-4.411254	19.110069	128.034017
13910		-3.259005	-0.742856	9.415757	-0.001775	-0.001819	0.001295	-1.060303	0.352295	-0.515869	-4.410343	19.109096	128.033273
13911		-3.231241	-0.714119	9.402187	-0.004471	-0.000599	0.003842	-1.060059	0.366455	-0.522461	-4.410375	19.109243	128.033641
13912		-3.258813	-0.743385	9.415782	-0.004802	-0.002036	0.003375	-1.062500	0.360840	-0.522217	-4.410779	19.108169	128.033888
13913		-3.240728	-0.732390	9.388536	-0.002750	-0.001312	0.004966	-1.059814	0.359863	-0.522217	-4.409592	19.107958	128.034969
13914		-3.258670	-0.743861	9.415794	-0.004748	0.000496	0.000956	-1.064941	0.360107	-0.521729	-4.410446	19.108385	128.033287
13915		-3.244721	-0.716956	9.370586	-0.004802	-0.002036	0.003375	-1.065430	0.357422	-0.526367	-4.410738	19.107691	128.033440
13916		-3.230864	-0.715644	9.402200	-0.004610	-0.000052	0.002399	-1.060059	0.364746	-0.532715	-4.411195	19.107849	128.030592
13917		-3.250264	-0.751395	9.374808	-0.004333	-0.001147	0.005285	-1.066406	0.364990	-0.526855	-4.410854	19.107746	128.031858
13918		-3.258392	-0.745174	9.415786	-0.004803	-0.002036	0.003375	-1.063721	0.367432	-0.532715	-4.411151	19.107237	128.031870
13919		-3.240554	-0.734166	9.388457	-0.002034	0.004092	0.003480	-1.059570	0.367920	-0.526367	-4.409930	19.110048	128.031800
13920		-3.262701	-0.729522	9.397746	-0.004803	-0.002036	0.003375	-1.064697	0.360596	-0.529785	-4.410251	19.109577	128.033425
13921		-3.240549	-0.734595	9.388426	-0.002750	-0.001313	0.004966	-1.058105	0.357422	-0.522705	-4.409064	19.109366	128.034507
13922		-3.236585	-0.750958	9.406290	-0.006975	0.002604	0.005413	-1.050781	0.359863	-0.528320	-4.410271	19.111409	128.034333
13923		-3.257234	-0.696625	9.393385	-0.004279	0.001385	0.002866	-1.067383	0.363770	-0.529053	-4.410417	19.112647	128.034018
13924		-3.253233	-0.713004	9.411261	-0.004472	-0.000599	0.003842	-1.063721	0.364014	-0.528076	-4.410428	19.113009	128.034545
13925		-3.272623	-0.748709	9.383866	-0.004334	-0.001148	0.005285	-1.059082	0.362305	-0.529785	-4.410087	19.112906	128.035811
13926		-3.262884	-0.731353	9.397540	-0.006193	0.000114	0.002718	-1.063477	0.365479	-0.520996	-4.411340	19.113568	128.035361
13927		-3.235100	-0.702731	9.383981	-0.003082	-0.002749	0.004499	-1.064697	0.358887	-0.521729	-4.410413	19.112516	128.036226
13928		-3.250427	-0.754441	9.374507	-0.004141	0.000837	0.004309	-1.062744	0.367188	-0.519531	-4.410309	19.113132	128.036492
13929		-3.258601	-0.748183	9.415476	-0.004527	-0.003132	0.006261	-1.058350	0.355469	-0.526367	-4.409855	19.111939	128.038440
13930		-3.234930	-0.703498	9.383983	-0.005862	0.001550	0.003185	-1.062744	0.364990	-0.527832	-4.410921	19.113116	128.038537
13931		-3.240745	-0.737712	9.388113	-0.005724	0.001002	0.004628	-1.058350	0.364258	-0.521484	-4.411539	19.114213	128.039305
13932		-3.240786	-0.737984	9.388078	-0.002890	-0.000765	0.003523	-1.066162	0.366211	-0.535889	-4.410801	19.114192	128.040705
13933		-3.271033	-0.726895	9.438380	-0.004611	-0.000051	0.002399	-1.060059	0.364014	-0.515625	-4.411207	19.114589	128.040175
13934		-3.262874	-0.733712	9.397360	-0.004279	0.001385	0.002866	-1.056641	0.364014	-0.529541	-4.411426	19.115754	128.040366
13935		-3.244968	-0.722787	9.370053	-0.004473	-0.000600	0.003842	-1.057617	0.364746	-0.526367	-4.411459	19.115901	128.040735
13936		-3.258654	-0.724725	9.338447	-0.004804	-0.002036	0.003375	-1.067627	0.364746	-0.529297	-4.411758	19.115435	128.042460
13937		-3.231198	-0.721734	9.401620	-0.003478	0.003708	0.005244	-1.064209	0.357910	-0.523682	-4.411009	19.118105	128.043475
13938		-3.272759	-0.752437	9.383520	-0.003083	-0.002750	0.004499	-1.060059	0.362793	-0.519775	-4.410126	19.116914	128.042606
13939		-3.253242	-0.717220	9.410938	-0.004141	0.000836	0.004310	-1.061523	0.369629	-0.520020	-4.409899	19.117902	128.043190
13940		-3.245043	-0.723969	9.369936	-0.004473	-0.000600	0.003842	-1.054199	0.352295	-0.523438	-4.410097	19.117706	128.045776
13941		-3.236913	-0.756449	9.405737	-0.004473	-0.000600	0.003842	-1.063965	0.359131	-0.527100	-4.410130	19.117853	128.046144
13942		-3.253254	-0.718184	9.410860	-0.006194	0.000115	0.002718	-1.059570	0.362549	-0.527832	-4.411362	19.118337	128.043569
13943		-3.240967	-0.741145	9.387766	-0.004473	-0.000600	0.003842	-1.055908	0.348389	-0.520508	-4.411395	19.118484	128.043937
13944		-3.266980	-0.720381	9.379219	-0.002752	-0.001315	0.004966	-1.060059	0.360596	-0.531982	-4.410198	19.118226	128.043344
13945		-3.253068	-0.718996	9.410862	-0.004805	-0.002036	0.003375	-1.058105	0.362793	-0.520752	-4.410492	19.117532	128.043496
13946		-3.248864	-0.735396	9.428796	-0.003360	-0.001653	0.001613	-1.062256	0.366455	-0.527832	-4.410330	19.117040	128.042778
13947		-3.266612	-0.721179	9.379286	-0.004473	-0.000600	0.003843	-1.055908	0.371094	-0.526611	-4.410363	19.117186	128.043146
13948		-3.262376	-0.737589	9.397229	-0.004999	-0.004021	0.004350	-1.060303	0.363525	-0.531494	-4.410612	19.115534	128.046754
13949		-3.252520	-0.720181	9.410961	-0.004142	0.000836	0.004310	-1.055176	0.365234	-0.518799	-4.410384	19.116522	128.047339
13950		-3.240312	-0.742824	9.387860	-0.000837	-0.000045	0.005115	-1.059814	0.359131	-0.517578	-4.408143	19.117077	128.049940
13951		-3.274768	-0.715590	9.420217	-0.006976	0.002603	0.005416	-1.058350	0.354980	-0.527588	-4.409347	19.119123	128.051110
13952		-3.256754	-0.704691	9.392950	-0.003417	-0.004187	0.004031	-1.058838	0.365723	-0.527588	-4.408719	19.117049	128.050205
13953		-3.262185	-0.738752	9.397204	-0.004806	-0.002036	0.003375	-1.063232	0.357178	-0.519043	-4.409013	19.116355	128.050357
13954		-3.240160	-0.743946	9.387824	-0.004280	0.001385	0.002868	-1.054932	0.358398	-0.527100	-4.409229	19.117418	128.049808
13955		-3.248402	-0.737847	9.428764	-0.004944	-0.001487	0.001932	-1.058105	0.357422	-0.528809	-4.409897	19.116974	128.049063
13956		-3.244152	-0.728504	9.369893	-0.003029	-0.000217	0.002081	-1.064941	0.359619	-0.531494	-4.409407	19.117460	128.047288
13957		-3.262099	-0.739928	9.397141	-0.002891	-0.000766	0.003524	-1.057617	0.363281	-0.520264	-4.408594	19.117498	128.047471
13958		-3.266086	-0.724016	9.379251	-0.004336	-0.001150	0.005286	-1.067383	0.358398	-0.533203	-4.408291	19.117348	128.048240
13959		-3.248186	-0.738672	9.428773	-0.001308	-0.000933	0.003205	-1.058838	0.366211	-0.527588	-4.406631	19.117277	128.048238
13960		-3.262017	-0.740522	9.397123	-0.007308	0.001168	0.004949	-1.063721	0.357666	-0.529053	-4.408082	19.118630	128.048124
13961		-3.240250	-0.745779	9.387647	-0.002640	0.003753	0.000131	-1.052490	0.364990	-0.525879	-4.407866	19.121101	128.046045
13962		-3.256613	-0.707344	9.392799	-0.004531	-0.003135	0.006260	-1.067383	0.360352	-0.530273	-4.407415	19.120023	128.048089
13963		-3.234479	-0.712505	9.383459	-0.004612	-0.000051	0.002400	-1.062744	0.359863	-0.520264	-4.407822	19.120421	128.047559
13964		-3.262194	-0.741753	9.396965	-0.004475	-0.000600	0.003843	-1.065918	0.355957	-0.518311	-4.407911	19.120362	128.046136
13965		-3.258046	-0.758225	9.414864	-0.006253	-0.002419	0.005137	-1.067139	0.360596	-0.523438	-4.408679	19.119527	128.047372
13966		-3.248236	-0.740850	9.428585	-0.004004	0.000285	0.005754	-1.062256	0.364258	-0.517822	-4.408190	19.119781	128.046515
13967		-3.261890	-0.742565	9.397006	-0.001973	-0.003804	0.002268	-1.067871	0.368652	-0.526367	-4.407053	19.118028	128.046080
13968		-3.256217	-0.709042	9.392809	-0.006644	0.004039	0.005886	-1.060791	0.365967	-0.528809	-4.408148	19.120578	128.048220
13969		-3.248351	-0.741602	9.428487	-0.003029	-0.000217	0.002081	-1.061523	0.368164	-0.531738	-4.407708	19.120866	128.047505
13970		-3.284069	-0.738565	9.406242	-0.004808	-0.002036	0.003375	-1.062744	0.357178	-0.524658	-4.408022	19.120381	128.048730
13971		-3.239984	-0.748513	9.387521	-0.002421	0.000119	0.005435	-1.065430	0.359375	-0.531982	-4.406575	19.121008	128.050027
13972		-3.261941	-0.743832	9.396888	-0.004808	-0.002036	0.003375	-1.058594	0.362793	-0.527100	-4.406861	19.120301	128.047671
13973		-3.252009	-0.726431	9.410657	-0.003224	-0.002202	0.003056	-1.061279	0.365234	-0.521729	-4.406310	19.119499	128.047638
13974		-3.251842	-0.726774	9.410688	-0.006391	-0.001870	0.003695	-1.061768	0.363525	-0.534180	-4.407528	19.118829	128.049033
13975		-3.265528	-0.728573	9.379092	-0.001308	-0.000933	0.003205	-1.056885	0.354248	-0.523926	-4.405868	19.118758	128.049031
13976		-3.233798	-0.716051	9.383423	-0.007309	0.001167	0.004951	-1.064453	0.369873	-0.527588	-4.407299	19.120119	128.048861
13977		-3.229833	-0.732366	9.401267	-0.000700	-0.000598	0.006558	-1.057861	0.361084	-0.530273	-4.404632	19.120387	128.050870
13978		-3.251985	-0.727544	9.410580	-0.003947	0.002820	0.003338	-1.070313	0.368164	-0.531982	-4.404545	19.122580	128.051437
13979		-3.252185	-0.727801	9.410491	-0.004143	0.000835	0.004312	-1.071289	0.360840	-0.527344	-4.404318	19.123567	128.052021
13980		-3.252295	-0.728050	9.410433	-0.004143	0.000835	0.004312	-1.066162	0.368652	-0.520996	-4.404145	19.124434	128.050388
13981		-3.230324	-0.733205	9.401033	-0.004476	-0.000601	0.003844	-1.066895	0.362549	-0.530029	-4.404179	19.124581	128.050757
13982		-3.252367	-0.728527	9.410371	-0.002559	0.000668	0.003993	-1.058838	0.362793	-0.524414	-4.403208	19.125243	128.050756
13983		-3.252376	-0.728809	9.410347	-0.007368	-0.001368	0.007368	-1.057861	0.357666	-0.526611	-4.404190	19.125106	128.053290
13984		-3.242529	-0.711422	9.424091	-0.002755	-0.001318	0.004967	-1.068115	0.362793	-0.526855	-4.403030	19.124879	128.054499
13985		-3.266082	-0.730832	9.378724	-0.003305	0.000883	-0.000804	-1.063721	0.354736	-0.529297	-4.403336	19.125669	128.051988
13986		-3.252272	-0.729559	9.410324	-0.004201	-0.001701	0.006729	-1.068115	0.366699	-0.519531	-4.402635	19.125222	128.051410
13987		-3.274212	-0.724910	9.419697	-0.004476	-0.000601	0.003844	-1.061768	0.355957	-0.526611	-4.402669	19.125369	128.051778
13988		-3.256269	-0.713934	9.392420	-0.004143	0.000834	0.004312	-1.061279	0.359131	-0.524414	-4.402539	19.126046	128.051308
13989		-3.266126	-0.731810	9.378632	-0.004006	0.000284	0.005755	-1.062012	0.362549	-0.520508	-4.401938	19.126783	128.052791
13990		-3.248331	-0.746559	9.428102	-0.001446	-0.000384	0.001762	-1.061768	0.365723	-0.528320	-4.400739	19.126712	128.051791
13991		-3.252207	-0.730613	9.410265	-0.005981	-0.003521	0.008022	-1.063965	0.360840	-0.517090	-4.400763	19.125374	128.054822
13992		-3.252225	-0.730964	9.410232	-0.005531	0.002987	0.003659	-1.065674	0.361328	-0.525879	-4.401599	19.127305	128.055148
13993		-3.230425	-0.736179	9.400766	-0.004143	0.000834	0.004313	-1.052246	0.358887	-0.522461	-4.401372	19.128292	128.055733
13994		-3.248354	-0.747627	9.428010	-0.003089	-0.002753	0.004498	-1.062012	0.368652	-0.520996	-4.400493	19.127146	128.056807
13995		-3.264510	-0.709082	9.433277	-0.003869	-0.000267	0.007198	-1.065674	0.364014	-0.525146	-4.399520	19.127631	128.059187
13996		-3.256248	-0.715748	9.392289	-0.004947	-0.001485	0.001933	-1.059814	0.363770	-0.528809	-4.400317	19.126936	128.059252
13997		-3.248007	-0.722442	9.351292	-0.004006	0.000283	0.005755	-1.066650	0.361084	-0.525879	-4.399717	19.127671	128.060735
13998		-3.252190	-0.732331	9.410138	-0.002756	-0.001318	0.004967	-1.067383	0.362305	-0.532715	-4.398566	19.127423	128.061076
13999		-3.269889	-0.717870	9.360681	-0.003364	-0.001652	0.001613	-1.055420	0.366943	-0.528076	-4.398389	19.126871	128.060143
14000		-3.248136	-0.748807	9.427991	-0.003202	0.002603	0.008136	-1.061279	0.366455	-0.526123	-4.396893	19.129205	128.063052
14001		-3.266118	-0.734427	9.378430	-0.006198	0.000117	0.002721	-1.059814	0.362061	-0.520752	-4.398148	19.129713	128.062708
14002		-3.243985	-0.739541	9.369086	-0.001369	-0.003472	0.005621	-1.052002	0.369141	-0.525391	-4.396098	19.128137	128.065291
14003		-3.265895	-0.734673	9.378489	-0.002560	0.000667	0.003994	-1.053223	0.367188	-0.523682	-4.395024	19.129014	128.065691
14004		-3.256157	-0.717192	9.392211	-0.003030	-0.000217	0.002082	-1.059814	0.362549	-0.524658	-4.394658	19.129415	128.069058
14005		-3.246258	-0.699730	9.405988	-0.003090	-0.002754	0.004498	-1.068115	0.362549	-0.521484	-4.393736	19.128360	128.069922
14006		-3.243752	-0.740039	9.369127	-0.002560	0.000667	0.003994	-1.072998	0.361328	-0.526367	-4.392758	19.128963	128.069892
14007		-3.234000	-0.722601	9.382852	-0.004477	-0.000601	0.003844	-1.064941	0.357910	-0.528076	-4.392793	19.129109	128.070261
14008		-3.246122	-0.700381	9.405986	-0.004811	-0.002036	0.003375	-1.065674	0.356689	-0.530762	-4.393129	19.128210	128.067643
14009		-3.242097	-0.716969	9.423819	-0.007311	0.001168	0.004953	-1.063965	0.364746	-0.525146	-4.394595	19.129415	128.068600
14010		-3.265624	-0.736289	9.378456	0.000077	-0.003088	0.003858	-1.068115	0.360840	-0.525146	-4.391999	19.128084	128.067398
14011		-3.233847	-0.723616	9.382826	-0.003947	0.002820	0.003341	-1.058105	0.357422	-0.521729	-4.391882	19.130162	128.067302
14012		-3.247859	-0.751229	9.427894	-0.003091	-0.002754	0.004498	-1.068848	0.367432	-0.525391	-4.391022	19.128867	128.066878
14013		-3.265612	-0.736751	9.378424	-0.004144	0.000834	0.004314	-1.063477	0.360107	-0.524170	-4.390795	19.129853	128.067463
14014		-3.261634	-0.753109	9.396256	-0.002894	-0.000768	0.003525	-1.059326	0.366455	-0.521729	-4.390075	19.129655	128.066859
14015		-3.251888	-0.735639	9.409984	-0.002697	0.001218	0.002552	-1.068359	0.366211	-0.526367	-4.389374	19.130783	128.066362
14016		-3.246228	-0.702058	9.405825	-0.004144	0.000834	0.004314	-1.059570	0.365234	-0.523193	-4.389257	19.131569	128.067640
14017		-3.252021	-0.736023	9.409908	-0.002757	-0.001320	0.004967	-1.052002	0.369629	-0.532227	-4.388074	19.131353	128.068721
14018		-3.230030	-0.741100	9.400515	-0.004144	0.000834	0.004314	-1.058594	0.360840	-0.525146	-4.387882	19.132524	128.072008
14019		-3.252074	-0.736470	9.409855	-0.004478	-0.000601	0.003845	-1.059814	0.365234	-0.529297	-4.387918	19.132670	128.072377
14020		-3.250243	-0.686784	9.387900	-0.004342	-0.001152	0.005287	-1.063965	0.355957	-0.517822	-4.387605	19.132616	128.074018
14021		-3.274067	-0.732104	9.419191	-0.004281	0.001385	0.002872	-1.058350	0.360352	-0.522705	-4.387750	19.133855	128.073707
14022		-3.230085	-0.742158	9.400413	-0.004205	-0.001704	0.006729	-1.054688	0.361084	-0.524658	-4.387130	19.133144	128.074888
14023		-3.305914	-0.745378	9.414746	-0.005865	0.001553	0.003192	-1.062012	0.356689	-0.526367	-4.388122	19.134492	128.074762
14024		-3.252117	-0.737960	9.409723	-0.004813	-0.002036	0.003375	-1.061035	0.351807	-0.526123	-4.388433	19.133777	128.074311
14025		-3.246312	-0.704605	9.405605	-0.007312	0.001168	0.004954	-1.065918	0.359863	-0.523193	-4.389899	19.134982	128.075268
14026		-3.251989	-0.738685	9.409710	-0.001843	-0.004357	0.003708	-1.059814	0.358643	-0.526367	-4.388417	19.132774	128.073129
14027		-3.255945	-0.722674	9.391864	-0.003946	0.002820	0.003342	-1.063232	0.364258	-0.522217	-4.388300	19.134851	128.073035
14028		-3.265932	-0.740590	9.378010	-0.005592	0.000449	0.006077	-1.059814	0.360352	-0.519287	-4.388609	19.135545	128.074437
14029		-3.220430	-0.726717	9.413957	-0.004144	0.000833	0.004315	-1.061768	0.364258	-0.525391	-4.388382	19.136530	128.075023
14030		-3.274340	-0.734767	9.418889	-0.004145	0.000833	0.004315	-1.061523	0.364014	-0.524658	-4.388246	19.137292	128.075989
14031		-3.256599	-0.723669	9.391561	-0.002028	0.004087	0.003492	-1.065674	0.360840	-0.524902	-4.387019	19.140100	128.075927
14032		-3.256679	-0.723818	9.391521	-0.004541	-0.003139	0.006259	-1.065430	0.368896	-0.520752	-4.386645	19.138723	128.077312
14033		-3.234511	-0.728891	9.382189	-0.002759	-0.001321	0.004967	-1.057617	0.367188	-0.518799	-4.385462	19.138507	128.078392
14034		-3.256640	-0.724257	9.391501	-0.005667	0.003540	0.002220	-1.064209	0.359375	-0.534912	-4.386735	19.140600	128.079791
14035		-3.266722	-0.742172	9.377610	-0.003674	0.001716	0.006227	-1.059326	0.367920	-0.521973	-4.385872	19.142173	128.081493
14036		-3.275062	-0.735877	9.418551	-0.000977	0.000498	0.003675	-1.063965	0.361816	-0.531250	-4.383974	19.142991	128.081561
14037		-3.235060	-0.729634	9.381942	-0.004343	-0.001153	0.005287	-1.065674	0.357422	-0.529785	-4.383638	19.142884	128.082827
14038		-3.265287	-0.718682	9.432281	-0.005729	0.001001	0.004635	-1.061279	0.357666	-0.519043	-4.384236	19.144035	128.081323
14039		-3.265318	-0.718886	9.432255	-0.001312	-0.000937	0.003205	-1.064453	0.361084	-0.524414	-4.382579	19.143961	128.081320
14040		-3.247414	-0.707694	9.404993	-0.002362	0.002652	0.003023	-1.063477	0.368164	-0.528320	-4.381702	19.145607	128.080021
14041		-3.275201	-0.736863	9.418426	-0.006597	-0.003854	0.004667	-1.064209	0.374268	-0.531738	-4.382739	19.143929	128.081037
14042		-3.257145	-0.725865	9.391202	-0.002226	0.002100	0.004465	-1.057373	0.362549	-0.527344	-4.381470	19.145738	128.083123
14043		-3.243454	-0.724689	9.422762	-0.006064	-0.000433	0.004165	-1.064453	0.364746	-0.526611	-4.382354	19.145993	128.083677
14044		-3.271005	-0.727802	9.359524	-0.002760	-0.001321	0.004967	-1.061523	0.367188	-0.527344	-4.381211	19.145767	128.084948
14045		-3.247304	-0.708872	9.404942	-0.002760	-0.001321	0.004967	-1.063232	0.360596	-0.520264	-4.380028	19.145550	128.086028
14046		-3.256960	-0.726598	9.391209	-0.003095	-0.002756	0.004497	-1.056396	0.362305	-0.531250	-4.379199	19.144294	128.087129
14047		-3.264927	-0.720403	9.432274	-0.003095	-0.002756	0.004497	-1.064941	0.357422	-0.525879	-4.378281	19.143237	128.087992
14048		-3.256618	-0.726923	9.391303	-0.003032	-0.000217	0.002083	-1.060059	0.357666	-0.526611	-4.377830	19.143588	128.086144
14049		-3.256590	-0.727218	9.391290	-0.005928	-0.000986	0.005608	-1.059570	0.365479	-0.525391	-4.378342	19.143591	128.087596
14050		-3.260524	-0.711404	9.373443	-0.005929	-0.000986	0.005608	-1.063477	0.368164	-0.531738	-4.378885	19.143558	128.088937
14051		-3.256468	-0.727828	9.391285	-0.002760	-0.001322	0.004967	-1.063965	0.368164	-0.525635	-4.377703	19.143341	128.090017
14052		-3.264678	-0.721739	9.432259	-0.005730	0.001001	0.004636	-1.055420	0.362793	-0.524170	-4.378384	19.144452	128.091551
14053		-3.248279	-0.734765	9.350237	-0.004816	-0.002035	0.003375	-1.056396	0.360596	-0.526855	-4.378685	19.143758	128.091702
14054		-3.246640	-0.711165	9.404998	-0.004281	0.001386	0.002874	-1.063965	0.364258	-0.522461	-4.378854	19.145032	128.092124
14055		-3.278492	-0.724216	9.400557	-0.007377	-0.001371	0.007371	-1.062744	0.363037	-0.529541	-4.379839	19.144892	128.094660
14056		-3.256360	-0.729401	9.391200	-0.001648	-0.002372	0.002734	-1.060791	0.364746	-0.518066	-4.378509	19.143853	128.094139
14057		-3.256233	-0.729621	9.391227	-0.005929	-0.000986	0.005608	-1.060547	0.360352	-0.521729	-4.379020	19.143855	128.095591
14058		-3.260284	-0.713796	9.373345	-0.004417	0.001939	0.001432	-1.057373	0.361816	-0.524658	-4.379663	19.144991	128.094841
14059		-3.278309	-0.725420	9.400528	-0.004817	-0.002035	0.003375	-1.052246	0.358887	-0.524658	-4.379964	19.144296	128.094992
14060		-3.250304	-0.696902	9.387133	-0.004817	-0.002035	0.003375	-1.061035	0.358643	-0.520264	-4.380283	19.143625	128.095568
14061		-3.256073	-0.731038	9.391172	-0.004617	-0.000048	0.002404	-1.060547	0.365967	-0.527832	-4.380693	19.144023	128.095039
14062		-3.239988	-0.770164	9.385768	-0.007179	0.000616	0.006400	-1.067627	0.360596	-0.524170	-4.381853	19.144821	128.096817
14063		-3.256251	-0.731767	9.391054	-0.002697	0.001217	0.002554	-1.062988	0.358398	-0.527100	-4.381152	19.145949	128.096320
14064		-3.274305	-0.743313	9.418231	-0.005930	-0.000986	0.005608	-1.058594	0.363037	-0.528564	-4.381707	19.145749	128.095761
14065		-3.260240	-0.716132	9.373182	-0.003033	-0.000217	0.002083	-1.072021	0.362793	-0.521729	-4.381270	19.146036	128.095046
14066		-3.256097	-0.732677	9.391036	-0.006601	-0.003854	0.004667	-1.067871	0.354248	-0.524414	-4.382385	19.144145	128.095162
14067		-3.255928	-0.733128	9.391060	-0.006066	-0.000433	0.004166	-1.056641	0.358887	-0.519043	-4.383269	19.144400	128.095717
14068		-3.267928	-0.711029	9.414267	-0.005153	-0.003469	0.002904	-1.064209	0.364014	-0.526855	-4.383895	19.142546	128.093703
14069		-3.237551	-0.722727	9.363906	-0.006538	-0.001314	0.002254	-1.058105	0.362793	-0.532227	-4.385416	19.142213	128.093142
14070		-3.277450	-0.729507	9.400511	-0.003505	-0.001097	0.000170	-1.066650	0.361816	-0.518066	-4.385614	19.142036	128.091026
14071		-3.241504	-0.733441	9.422756	-0.006266	-0.002421	0.005138	-1.068604	0.363281	-0.526367	-4.386390	19.141198	128.092260
14072		-3.255097	-0.735314	9.391177	-0.006874	-0.002748	0.001783	-1.057373	0.363525	-0.520996	-4.388297	19.139615	128.090141
14073		-3.223166	-0.723209	9.395576	-0.006202	0.000120	0.002725	-1.066406	0.359863	-0.525391	-4.389553	19.140122	128.089798
14074		-3.280917	-0.715228	9.382724	-0.006538	-0.001314	0.002254	-1.066895	0.366455	-0.517090	-4.391150	19.139581	128.088966
14075		-3.254816	-0.736813	9.391157	-0.004818	-0.002036	0.003375	-1.061279	0.357666	-0.520264	-4.391451	19.138885	128.089116
14076		-3.258862	-0.720969	9.373290	-0.005530	0.002987	0.003668	-1.052979	0.363525	-0.520020	-4.392330	19.140586	128.088992
14077		-3.276876	-0.732649	9.400467	-0.005154	-0.003470	0.002904	-1.070557	0.362061	-0.528809	-4.392896	19.139050	128.088924
14078		-3.244802	-0.720415	9.404928	-0.006267	-0.002422	0.005138	-1.062744	0.359863	-0.527344	-4.393737	19.138081	128.090120
14079		-3.236382	-0.727102	9.363972	-0.005154	-0.003470	0.002904	-1.061279	0.361328	-0.524902	-4.394303	19.136545	128.090052
14080		-3.250046	-0.755023	9.409085	-0.005490	-0.004904	0.002432	-1.067627	0.366699	-0.514893	-4.395156	19.134114	128.088775
14081		-3.257751	-0.723169	9.373507	-0.008259	-0.000592	0.001133	-1.065918	0.359863	-0.525635	-4.397896	19.134144	128.087502
14082		-3.265713	-0.717359	9.414555	-0.003434	-0.004193	0.004025	-1.068604	0.360840	-0.531494	-4.397389	19.131786	128.087418
14083		-3.243491	-0.722657	9.405209	-0.006539	-0.001314	0.002255	-1.064941	0.361572	-0.520996	-4.398910	19.131453	128.086857
14084		-3.275204	-0.735762	9.400806	-0.004954	-0.001482	0.001934	-1.068359	0.364014	-0.523193	-4.399627	19.130852	128.084044
14085		-3.256979	-0.724864	9.373644	-0.005155	-0.003470	0.002904	-1.062012	0.360840	-0.529053	-4.400194	19.129316	128.083976
14086		-3.242794	-0.724010	9.405345	-0.007076	-0.004735	0.002753	-1.067139	0.356689	-0.531494	-4.401918	19.126936	128.082596
14087		-3.256389	-0.725779	9.373778	-0.004482	-0.000603	0.003847	-1.061035	0.367432	-0.525146	-4.401956	19.127079	128.082964
14088		-3.252317	-0.742327	9.391588	-0.004819	-0.002037	0.003376	-1.062744	0.374023	-0.524902	-4.402266	19.126409	128.081762
14089		-3.220280	-0.730165	9.396028	-0.006876	-0.002748	0.001783	-1.057617	0.364014	-0.525146	-4.404051	19.125236	128.080982
14090		-3.263970	-0.720791	9.414898	-0.005155	-0.003470	0.002904	-1.042969	0.358154	-0.522461	-4.404708	19.123688	128.083251
14091		-3.247557	-0.759903	9.409551	-0.005155	-0.003471	0.002904	-1.057861	0.357910	-0.527344	-4.405275	19.122151	128.083183
14092		-3.233279	-0.732775	9.364602	-0.006268	-0.002423	0.005139	-1.058105	0.356445	-0.518311	-4.406017	19.121512	128.086162
14093		-3.263336	-0.722047	9.415022	-0.006203	0.000119	0.002727	-1.061523	0.357422	-0.531738	-4.407274	19.122019	128.085820
14094		-3.263325	-0.722482	9.414992	-0.005932	-0.000990	0.005611	-1.065918	0.355713	-0.525635	-4.407784	19.121971	128.085872
14095		-3.237471	-0.744124	9.423305	-0.006138	0.002662	0.000316	-1.067871	0.358643	-0.519043	-4.409520	19.123824	128.083953
14096		-3.223479	-0.717037	9.378258	-0.004819	-0.002037	0.003376	-1.061279	0.360352	-0.529297	-4.409890	19.122769	128.081325
14097		-3.263499	-0.723904	9.414822	-0.007587	0.002276	0.002079	-1.064697	0.365234	-0.521729	-4.412101	19.124479	128.080490
14098		-3.255268	-0.730496	9.373801	-0.001851	-0.004363	0.003702	-1.060059	0.359375	-0.533447	-4.410652	19.122389	128.080555
14099		-3.263215	-0.724429	9.414880	-0.004483	-0.000604	0.003848	-1.065186	0.369629	-0.520020	-4.410690	19.122531	128.080924
14100		-3.277104	-0.726037	9.383226	-0.004282	0.001384	0.002878	-1.066895	0.376465	-0.523438	-4.410879	19.123760	128.080671
14101		-3.259376	-0.741348	9.432572	-0.006068	-0.000436	0.004169	-1.060547	0.359131	-0.523193	-4.411765	19.124013	128.081226
14102		-3.255195	-0.731735	9.373730	-0.004619	-0.000049	0.002406	-1.059570	0.363037	-0.530518	-4.412292	19.124224	128.081757
14103		-3.251218	-0.748305	9.391494	-0.004483	-0.000604	0.003848	-1.064941	0.361816	-0.529297	-4.412330	19.124366	128.082126
14104		-3.241541	-0.731170	9.405223	-0.005801	0.004096	0.000789	-1.064453	0.353760	-0.522705	-4.413787	19.127196	128.079642
14105		-3.287474	-0.745595	9.369066	-0.007316	0.001166	0.004963	-1.063965	0.357422	-0.521484	-4.415255	19.128399	128.080603
14106		-3.251628	-0.749571	9.391251	-0.003100	-0.002761	0.004495	-1.057129	0.358643	-0.520996	-4.414388	19.127045	128.079211
14107		-3.241641	-0.732251	9.405104	-0.004484	-0.000604	0.003848	-1.060547	0.359863	-0.522705	-4.414427	19.127187	128.079579
14108		-3.267627	-0.711338	9.396699	-0.004147	0.000829	0.004320	-1.066406	0.362793	-0.529053	-4.414258	19.128012	128.080516
14109		-3.277636	-0.729292	9.382788	-0.007452	0.001721	0.003522	-1.061768	0.361572	-0.529053	-4.416097	19.129468	128.080579
14110		-3.263909	-0.728478	9.414327	-0.004619	-0.000049	0.002406	-1.060791	0.363281	-0.526367	-4.416515	19.129912	128.078876
14111		-3.245806	-0.717551	9.387134	-0.006270	-0.002424	0.005139	-1.059326	0.357422	-0.521484	-4.417293	19.129072	128.080109
14112		-3.263683	-0.729310	9.414341	-0.005092	-0.000927	0.000492	-1.062744	0.363037	-0.531738	-4.418384	19.128788	128.078529
14113		-3.263477	-0.729777	9.414377	-0.006608	-0.003858	0.004666	-1.064697	0.360840	-0.527344	-4.419428	19.127108	128.079544
14114		-3.267253	-0.714125	9.396618	-0.008262	-0.000590	0.001136	-1.064453	0.361816	-0.522949	-4.422168	19.127210	128.077113
14115		-3.253325	-0.713463	9.428216	-0.006406	-0.001869	0.003697	-1.061279	0.357910	-0.524902	-4.423319	19.126623	128.077449
14116		-3.272860	-0.749059	9.400573	-0.006879	-0.002747	0.001783	-1.063232	0.364258	-0.525391	-4.425157	19.125292	128.075883
14117		-3.244784	-0.720741	9.387243	-0.006406	-0.001870	0.003697	-1.066406	0.360352	-0.520752	-4.426308	19.124705	128.076219
14118		-3.294471	-0.745108	9.410041	-0.006271	-0.002425	0.005139	-1.065918	0.362549	-0.518799	-4.427171	19.123639	128.076844
14119		-3.222489	-0.726612	9.377861	-0.006542	-0.001314	0.002256	-1.062988	0.359375	-0.525879	-4.428694	19.123306	128.076283
14120		-3.272268	-0.750984	9.400625	-0.005934	-0.000992	0.005612	-1.064453	0.365967	-0.527832	-4.429289	19.123060	128.076993
14121		-3.276122	-0.735076	9.382865	-0.004822	-0.002038	0.003376	-1.066406	0.360840	-0.528076	-4.429593	19.122362	128.077142
14122		-3.240148	-0.739284	9.405069	-0.007150	-0.001635	-0.001099	-1.061768	0.361084	-0.530029	-4.432156	19.121679	128.073487
14123		-3.244016	-0.723518	9.387295	-0.004485	-0.000606	0.003849	-1.062012	0.366455	-0.524170	-4.432195	19.121820	128.073855
14124		-3.261882	-0.735223	9.414506	-0.005295	-0.002916	0.001461	-1.061768	0.358643	-0.520752	-4.433167	19.120561	128.073023
14125		-3.261696	-0.735719	9.414531	-0.006543	-0.001314	0.002256	-1.067383	0.361084	-0.523682	-4.434690	19.120228	128.072462
14126		-3.265519	-0.719999	9.396772	-0.007857	-0.002257	0.005461	-1.058838	0.362061	-0.523438	-4.436391	19.119248	128.072910
14127		-3.221315	-0.730212	9.377985	-0.001989	-0.003809	0.002258	-1.057617	0.364746	-0.532715	-4.435266	19.117489	128.072467
14128		-3.258785	-0.776931	9.377556	-0.006880	-0.002747	0.001784	-1.070068	0.367676	-0.529541	-4.437056	19.116465	128.072690
14129		-3.260998	-0.737578	9.414628	-0.007588	0.002277	0.002084	-1.062256	0.361084	-0.522461	-4.439268	19.118175	128.071856
14130		-3.243117	-0.726810	9.387351	-0.006205	0.000119	0.002730	-1.064941	0.368408	-0.527832	-4.440590	19.118569	128.070768
14131		-3.252867	-0.744834	9.373507	-0.006745	-0.003303	0.003225	-1.059326	0.360840	-0.518555	-4.442006	19.117142	128.070885
14132		-3.264765	-0.722918	9.396810	-0.006543	-0.001314	0.002257	-1.054932	0.367432	-0.529297	-4.443613	19.116670	128.071049
14133		-3.248484	-0.762083	9.391333	-0.005025	-0.004028	0.004344	-1.056396	0.359619	-0.523926	-4.443811	19.114879	128.071877
14134		-3.264229	-0.723853	9.396924	-0.008331	-0.003135	0.003547	-1.060303	0.364990	-0.528076	-4.446086	19.113707	128.073918
14135		-3.256119	-0.757024	9.432451	-0.006543	-0.001314	0.002257	-1.058838	0.363281	-0.523193	-4.447609	19.113373	128.073358
14136		-3.273630	-0.742315	9.383165	-0.002328	-0.005243	0.001784	-1.064209	0.357422	-0.521973	-4.446790	19.110792	128.073565
14137		-3.251356	-0.747642	9.373807	-0.007993	-0.001702	0.004021	-1.056396	0.359375	-0.520752	-4.448789	19.110316	128.074089
14138		-3.241255	-0.730642	9.387697	-0.005161	-0.003472	0.002903	-1.058594	0.363770	-0.525879	-4.449416	19.108588	128.073625
14139		-3.249094	-0.724908	9.428802	-0.005296	-0.002916	0.001461	-1.072510	0.363525	-0.523926	-4.450357	19.107304	128.072659
14140		-3.236845	-0.747876	9.405527	-0.006679	-0.000758	0.000816	-1.067871	0.361816	-0.530029	-4.452318	19.107087	128.070675
14141		-3.236649	-0.748412	9.405552	-0.006611	-0.003861	0.004666	-1.056641	0.370361	-0.525635	-4.453364	19.105406	128.071691
14142		-3.250211	-0.750151	9.374004	-0.006882	-0.002747	0.001784	-1.058594	0.365723	-0.522217	-4.455187	19.104299	128.071452
14143		-3.258175	-0.744309	9.415075	-0.001315	-0.000945	0.003205	-1.066650	0.362305	-0.528564	-4.453532	19.104218	128.071447
14144		-3.250098	-0.750726	9.373997	-0.007318	0.001163	0.004969	-1.069824	0.360596	-0.531250	-4.455053	19.105370	128.072573
14145		-3.248316	-0.727520	9.428869	-0.004823	-0.002040	0.003376	-1.063477	0.366455	-0.521729	-4.455358	19.104671	128.072724
14146		-3.258099	-0.745269	9.415026	-0.002900	-0.000776	0.003527	-1.054443	0.360107	-0.517822	-4.454601	19.104606	128.072009
14147		-3.261952	-0.729224	9.397300	-0.004824	-0.002040	0.003376	-1.062012	0.363525	-0.525635	-4.454905	19.103908	128.072159
14148		-3.279860	-0.740900	9.424492	-0.004486	-0.000608	0.003850	-1.066162	0.356934	-0.528076	-4.455010	19.103935	128.073414
14149		-3.271678	-0.747455	9.383438	-0.006545	-0.001314	0.002258	-1.055176	0.360840	-0.522217	-4.456533	19.103601	128.072854
14150		-3.235894	-0.751587	9.405558	-0.002833	0.001770	0.001119	-1.065186	0.360352	-0.527832	-4.456217	19.104948	128.070685
14151		-3.229814	-0.718170	9.401703	-0.006950	-0.005294	0.004192	-1.053223	0.357422	-0.527344	-4.457529	19.102427	128.071482
14152		-3.257497	-0.747527	9.415055	-0.006207	0.000118	0.002732	-1.060059	0.364502	-0.530518	-4.458767	19.103035	128.070484
14153		-3.245398	-0.770254	9.391733	-0.002765	-0.001334	0.004969	-1.070801	0.354736	-0.524414	-4.457588	19.102811	128.071563
14154		-3.287311	-0.710504	9.389006	-0.004621	-0.000051	0.002409	-1.061523	0.367920	-0.525391	-4.458011	19.103165	128.069287
14155		-3.239356	-0.737109	9.387847	-0.006410	-0.001871	0.003699	-1.060059	0.354004	-0.526123	-4.459163	19.102577	128.069624
14156		-3.247446	-0.731351	9.428872	-0.004148	0.000824	0.004325	-1.061035	0.364990	-0.517334	-4.458961	19.103550	128.070021
14157		-3.261272	-0.732828	9.397256	-0.004824	-0.002040	0.003376	-1.062500	0.359619	-0.529297	-4.459266	19.102852	128.070171
14158		-3.239390	-0.738103	9.387757	-0.004080	0.003372	0.001917	-1.055908	0.364014	-0.528809	-4.459582	19.105051	128.069344
14159		-3.217577	-0.743355	9.378236	-0.004486	-0.000608	0.003850	-1.068848	0.362793	-0.524170	-4.459622	19.105191	128.069713
14160		-3.257452	-0.750097	9.414866	-0.004825	-0.002040	0.003376	-1.059326	0.361816	-0.525879	-4.459964	19.104485	128.069851
14161		-3.239177	-0.739000	9.387760	-0.003443	-0.004199	0.004020	-1.062500	0.359619	-0.526855	-4.459317	19.102582	128.070492
14162		-3.261043	-0.734376	9.397214	-0.005869	0.001551	0.003207	-1.060303	0.361084	-0.519531	-4.460325	19.103939	128.070001
14163		-3.261155	-0.734807	9.397142	-0.004757	0.000507	0.000969	-1.063232	0.356934	-0.527832	-4.461107	19.104588	128.068575
14164		-3.261030	-0.735210	9.397154	-0.005164	-0.003473	0.002902	-1.068848	0.364258	-0.521240	-4.461719	19.102923	128.067775
14165		-3.247036	-0.734489	9.428769	-0.006207	0.000118	0.002733	-1.062744	0.359619	-0.526367	-4.462977	19.103429	128.067434
14166		-3.252720	-0.742177	9.356107	-0.004825	-0.002041	0.003376	-1.058594	0.358154	-0.527832	-4.463356	19.102529	128.066702
14167		-3.238768	-0.741517	9.387702	-0.006816	-0.000198	-0.000623	-1.060547	0.355225	-0.529297	-4.465622	19.102705	128.064348
14168		-3.246638	-0.735965	9.428791	-0.005503	-0.004905	0.002427	-1.063232	0.359619	-0.522949	-4.466417	19.100454	128.062826
14169		-3.246413	-0.736295	9.428843	-0.003036	-0.000220	0.002087	-1.059082	0.363525	-0.529541	-4.465981	19.100738	128.062110
14170		-3.254390	-0.704030	9.393343	-0.007319	0.001161	0.004972	-1.065674	0.359863	-0.524170	-4.467474	19.101945	128.062986
14171		-3.238470	-0.743276	9.387666	-0.006208	0.000118	0.002733	-1.059570	0.370361	-0.527344	-4.468732	19.102451	128.062645
14172		-3.238472	-0.743671	9.387634	-0.004487	-0.000609	0.003851	-1.069824	0.357422	-0.523193	-4.468831	19.102550	128.063502
14173		-3.252302	-0.745115	9.356018	-0.004487	-0.000609	0.003851	-1.064941	0.362793	-0.523926	-4.468872	19.102691	128.063872
14174		-3.238456	-0.744324	9.387588	-0.004757	0.000507	0.000970	-1.065674	0.366943	-0.523926	-4.469725	19.103084	128.060750
14175		-3.252232	-0.745930	9.355977	-0.005435	-0.002357	0.000020	-1.064453	0.361572	-0.524414	-4.471039	19.102054	128.058886
14176		-3.228132	-0.727793	9.401541	-0.005504	-0.004906	0.002427	-1.060791	0.362061	-0.533203	-4.471959	19.099514	128.058441
14177		-3.267993	-0.734774	9.438159	-0.007590	0.002277	0.002091	-1.060547	0.359131	-0.527588	-4.474170	19.101224	128.057610
14178		-3.233880	-0.762562	9.405368	-0.002467	-0.004686	0.000339	-1.063232	0.364502	-0.517822	-4.473647	19.099076	128.055424
14179		-3.231531	-0.712847	9.383909	-0.006886	-0.002746	0.001784	-1.060547	0.371582	-0.521484	-4.475438	19.097903	128.054645
14180		-3.277181	-0.753571	9.424419	-0.005165	-0.003474	0.002902	-1.068848	0.358643	-0.531982	-4.476160	19.096090	128.056716
14181		-3.313004	-0.686969	9.494515	-0.008946	-0.003451	0.000192	-1.058105	0.359375	-0.526123	-4.479435	19.094443	128.055009
14182		-3.180577	-0.781093	9.345627	-0.014043	-0.004376	0.000688	-1.068848	0.368896	-0.524170	-4.485494	19.092367	128.052065
14183		-3.310237	-0.729454	9.457302	-0.021024	-0.001784	0.006137	-1.062012	0.356445	-0.518555	-4.494539	19.091939	128.053872
14184		-3.183871	-0.857588	9.312132	-0.011578	-0.005348	0.006602	-1.066650	0.352051	-0.525146	-4.498129	19.089209	128.055805
14185		-3.319582	-0.659505	9.459194	-0.021936	-0.004410	0.013664	-1.061035	0.355469	-0.523682	-4.506168	19.087619	128.062286
14186		-3.249451	-0.782245	9.432693	-0.020282	-0.002030	0.010936	-1.061279	0.362305	-0.524658	-4.513831	19.087133	128.064361
14187		-3.265214	-0.745322	9.438294	-0.025720	-0.004387	0.010957	-1.058350	0.360840	-0.518799	-4.524574	19.085436	128.069204
14188		-3.224761	-0.741049	9.401662	-0.029303	-0.008032	0.013534	-1.065430	0.370605	-0.524414	-4.536866	19.081646	128.076486
14189		-3.255958	-0.756048	9.397259	-0.032952	-0.008566	0.012267	-1.061279	0.364258	-0.522949	-4.551428	19.077624	128.082323
14190		-3.237550	-0.747215	9.370035	-0.030279	-0.001890	0.010968	-1.073242	0.357910	-0.526123	-4.564905	19.077263	128.087894
14191		-3.245658	-0.743879	9.410885	-0.035677	0.000528	0.016099	-1.057373	0.363281	-0.513916	-4.580415	19.078613	128.095609
14192		-3.247494	-0.769957	9.355677	-0.030624	-0.003323	0.010493	-1.060547	0.357422	-0.515869	-4.594160	19.077196	128.098934
14193		-3.251498	-0.756137	9.337781	-0.032439	0.002739	0.013050	-1.063477	0.362061	-0.529297	-4.608452	19.079672	128.104699
14194		-3.221912	-0.796258	9.363337	-0.027886	0.000239	0.013041	-1.060303	0.364502	-0.524170	-4.620125	19.080606	128.109589
14195		-3.226061	-0.782164	9.345414	-0.030721	0.002007	0.014168	-1.071533	0.371826	-0.525635	-4.633200	19.082718	128.116063
14196		-3.230414	-0.767881	9.327442	-0.023830	0.004754	0.012385	-1.054199	0.365723	-0.531006	-4.642789	19.086243	128.121054
14197		-3.209282	-0.774155	9.317567	-0.014060	0.010500	0.014590	-1.058594	0.357178	-0.520264	-4.646370	19.093227	128.127366
14198		-3.288128	-0.764839	9.445479	-0.016741	0.003822	0.015884	-1.067627	0.361816	-0.522461	-4.651097	19.096609	128.135116
14199		-3.218788	-0.770289	9.357988	-0.017782	0.007414	0.015725	-1.053955	0.366699	-0.523193	-4.656535	19.101884	128.142265
14200		-3.233601	-0.772000	9.325998	-0.010145	0.009905	0.018741	-1.065674	0.365723	-0.525879	-4.657087	19.108645	128.151147
14201		-3.238682	-0.782945	9.384368	-0.009983	0.007129	0.012663	-1.059082	0.369385	-0.521484	-4.658657	19.113615	128.156460
14202		-3.255384	-0.744422	9.389883	-0.003294	0.007881	0.011844	-1.058350	0.367188	-0.523682	-4.656631	19.118898	128.161497
14203		-3.226804	-0.755066	9.338837	0.000484	0.021404	0.009587	-1.070068	0.371582	-0.521240	-4.653042	19.131877	128.164249
14204		-3.260567	-0.794202	9.410169	-0.001768	0.010829	0.007679	-1.059814	0.366211	-0.524170	-4.651050	19.138544	128.166722
14205		-3.247744	-0.793043	9.441443	0.000086	0.009534	0.010234	-1.061279	0.365967	-0.515137	-4.647369	19.144774	128.170450
14206		-3.268400	-0.737780	9.429317	-0.005358	0.007183	0.010250	-1.055420	0.368408	-0.526611	-4.646867	19.149413	128.174919
14207		-3.271404	-0.761121	9.373855	-0.002467	0.015851	0.007999	-1.065430	0.369873	-0.520996	-4.645192	19.159147	128.176986
14208		-3.238672	-0.788281	9.340537	-0.002691	0.008186	0.015202	-1.062744	0.367432	-0.535400	-4.642163	19.164772	128.184738
14209		-3.197872	-0.758293	9.358686	-0.002276	0.012171	0.013280	-1.063477	0.362549	-0.521484	-4.639271	19.172648	128.190180
14210		-3.329436	-0.794943	9.453855	-0.004088	0.018232	0.015843	-1.056885	0.367188	-0.528076	-4.637001	19.184149	128.195639
14211		-3.238929	-0.804240	9.356781	-0.005320	0.011948	0.015368	-1.065186	0.364502	-0.528809	-4.635432	19.191994	128.202356
14212		-3.268327	-0.742965	9.385502	-0.001047	0.018453	0.013757	-1.055908	0.369873	-0.524658	-4.631840	19.203550	128.207127
14213		-3.257740	-0.764842	9.361611	0.000819	0.009274	0.015035	-1.060059	0.361328	-0.521484	-4.626773	19.209852	128.213775
14214		-3.213165	-0.750815	9.397439	0.005866	0.013309	0.010704	-1.055420	0.361816	-0.524902	-4.619801	19.218139	128.218030
14215		-3.312343	-0.747304	9.420815	0.006207	0.014739	0.011183	-1.054932	0.365723	-0.523193	-4.612500	19.227383	128.222083
14216		-3.279438	-0.773466	9.387672	0.011115	0.005781	0.010375	-1.058105	0.371826	-0.529053	-4.602432	19.231435	128.226446
14217		-3.248260	-0.759752	9.392075	0.008885	0.007857	0.014859	-1.056396	0.362793	-0.525879	-4.592751	19.236916	128.233061
14218		-3.311078	-0.759744	9.437870	0.013042	0.007039	0.010532	-1.063721	0.369141	-0.528320	-4.581559	19.241787	128.237593
14219		-3.275525	-0.735340	9.383593	0.012701	0.005609	0.010053	-1.065430	0.361572	-0.529053	-4.570613	19.245762	128.241412
14220		-3.250273	-0.755231	9.391743	0.013815	0.004569	0.007812	-1.057617	0.368896	-0.512695	-4.559486	19.248958	128.242308
14221		-3.308614	-0.744446	9.378887	0.017540	0.007649	0.006684	-1.061279	0.369385	-0.521973	-4.546470	19.253944	128.243993
14222		-3.275050	-0.769912	9.346070	0.019140	-0.000407	0.005086	-1.062500	0.372070	-0.523193	-4.532910	19.253793	128.246647
14223		-3.277001	-0.728168	9.383637	0.018077	-0.002483	0.011170	-1.058350	0.369385	-0.529541	-4.518531	19.253194	128.251534
14224		-3.273032	-0.742661	9.401496	0.017210	-0.001666	0.004931	-1.062256	0.366455	-0.516113	-4.505988	19.252692	128.253564
14225		-3.294805	-0.735663	9.411142	0.020646	-0.003134	0.007167	-1.062256	0.363037	-0.527100	-4.490926	19.251539	128.256060
14226		-3.282571	-0.756098	9.387992	0.016868	-0.003097	0.004454	-1.069092	0.361572	-0.523193	-4.478682	19.249924	128.256327
14227		-3.280214	-0.730809	9.443352	0.020866	-0.009027	0.004933	-1.062988	0.367920	-0.526123	-4.463847	19.245304	128.257749
14228		-3.285034	-0.735736	9.371114	0.020262	-0.009335	0.001575	-1.060059	0.367676	-0.518799	-4.450113	19.240048	128.255714
14229		-3.252271	-0.721358	9.376089	0.020865	-0.009027	0.004934	-1.055664	0.364990	-0.519287	-4.435281	19.235426	128.257134
14230		-3.279663	-0.748013	9.389656	0.020943	-0.006475	0.002531	-1.059082	0.368652	-0.528076	-4.421061	19.231801	128.258113
14231		-3.250931	-0.717102	9.376881	0.022791	-0.007770	0.005090	-1.059326	0.360352	-0.526611	-4.405114	19.227904	128.259566
14232		-3.278262	-0.743551	9.390499	0.022448	-0.009201	0.004613	-1.062012	0.368652	-0.523438	-4.389462	19.223147	128.260472
14233		-3.293096	-0.702529	9.396685	0.021764	-0.012062	0.003660	-1.061279	0.366699	-0.526611	-4.374325	19.216734	128.261257
14234		-3.310281	-0.711885	9.424282	0.017555	-0.008123	0.004142	-1.063721	0.366699	-0.526367	-4.361650	19.212424	128.262557
14235		-3.301505	-0.743003	9.460182	0.014391	-0.015664	0.003523	-1.060303	0.363770	-0.532471	-4.350711	19.203948	128.263421
14236		-3.275772	-0.696340	9.429910	0.016108	-0.016397	0.004642	-1.059326	0.358398	-0.531006	-4.338571	19.195117	128.264377
14237		-3.262399	-0.717230	9.407165	0.013276	-0.014621	0.005764	-1.060547	0.358887	-0.529785	-4.327841	19.187333	128.266546
14238		-3.251075	-0.698578	9.421633	0.008649	-0.014663	0.008175	-1.063965	0.365967	-0.525635	-4.319232	19.179727	128.268057
14239		-3.217963	-0.685073	9.426589	0.010787	-0.011415	0.007363	-1.061279	0.362061	-0.530518	-4.309661	19.173843	128.271044
14240		-3.189765	-0.745530	9.397808	0.001343	0.000061	0.008158	-1.058838	0.364502	-0.526367	-4.305540	19.174504	128.273097
14241		-3.080986	-0.770180	9.350334	0.000842	0.016302	0.027643	-1.061035	0.368408	-0.530518	-4.298051	19.185327	128.287088
14242		-3.014450	-0.863669	9.246590	0.006836	0.044835	0.042287	-1.060059	0.367676	-0.528809	-4.284663	19.213107	128.308906
14243		-2.967095	-0.880399	9.316405	0.012798	0.074700	0.075819	-1.059082	0.363525	-0.526855	-4.261572	19.259346	128.349421
14244		-2.860783	-0.868261	9.262897	0.008955	0.113717	0.121043	-1.065430	0.365479	-0.526367	-4.232212	19.329712	128.415456
14245		-2.703054	-0.888478	9.166250	-0.002928	0.163697	0.176680	-1.059082	0.367432	-0.526123	-4.199052	19.431015	128.513178
14246		-1.861314	0.049462	9.005762	-0.034102	0.202659	0.271454	-1.053223	0.366211	-0.524902	-4.165049	19.558101	128.665567
14247		-0.618061	1.433749	9.488137	-0.085625	0.400604	0.474023	-1.045410	0.366455	-0.532959	-4.121404	19.806980	128.933655
14248		-0.245940	0.699209	10.993041	-0.311947	0.846891	0.613591	-1.046143	0.368652	-0.529785	-4.183217	20.316356	129.266526
14249		-2.706316	-1.018846	12.092058	-0.595349	1.283590	0.712533	-1.032959	0.376709	-0.542725	-4.389579	21.080578	129.640953
14250		-0.961983	-0.169008	11.953414	-0.988644	1.498528	0.901338	-1.027588	0.387939	-0.552734	-4.778467	21.976940	130.114928
14251		-2.323620	0.345315	13.288237	-1.394019	2.030172	0.971232	-1.001465	0.403564	-0.548340	-5.387930	23.185165	130.601564
14252		-1.028439	-0.128751	13.351320	-1.798440	2.501092	1.008936	-0.980225	0.424316	-0.551758	-6.226074	24.668708	131.069129
14253		0.499968	-1.098810	12.802537	-2.114808	2.955401	1.035521	-0.958496	0.438965	-0.552246	-7.249701	26.420160	131.499858
14254		2.555897	-2.272359	12.075762	-1.885911	3.223484	1.045577	-0.935059	0.446777	-0.571777	-8.149584	28.330388	131.887513
14255		-3.608157	-3.786409	15.862311	-1.203857	2.762997	1.175959	-0.906494	0.465088	-0.572021	-8.594674	29.994888	132.384719
14256		-2.575708	-2.987371	18.891395	-0.649880	1.184775	1.496867	-0.896484	0.464111	-0.573242	-8.527548	30.793344	133.248435
14257		0.404843	-3.630061	18.679286	-0.421281	0.534156	1.472480	-0.880859	0.477295	-0.579590	-8.292947	31.219691	134.167730
14258		1.267110	-3.120564	16.221571	-0.317043	-0.070334	1.400862	-0.882813	0.483398	-0.578125	-7.987656	31.292714	135.101425
14259		3.292459	-2.650332	12.301280	-0.299224	-0.466654	1.340466	-0.886719	0.477295	-0.577881	-7.674728	31.132681	136.031452
14260		3.791617	-2.415986	10.218589	-0.362317	-0.618454	1.281520	-0.878906	0.485596	-0.575195	-7.415753	30.876818	136.932450
14261		3.573933	-2.763354	9.579202	-0.460930	-0.707811	1.191583	-0.872559	0.489990	-0.583496	-7.245441	30.561912	137.778112
14262		2.929529	-3.511299	9.759551	-0.533527	-0.810960	1.050270	-0.868164	0.496338	-0.572998	-7.166065	30.175191	138.535006
14263		2.331552	-4.274969	9.834633	-0.558787	-0.944347	0.848100	-0.871582	0.497070	-0.571289	-7.168377	29.699194	139.167083
14264		1.935613	-4.862503	9.709924	-0.525898	-1.084102	0.590051	-0.887207	0.505371	-0.577393	-7.235710	29.123903	139.638811
14265		1.637951	-5.055318	9.559457	-0.475461	-1.196193	0.304967	-0.886963	0.510010	-0.567871	-7.363633	28.466510	139.933791
14266		1.072201	-4.994945	9.828067	-0.423324	-1.291646	0.013012	-0.883789	0.514893	-0.570068	-7.550035	27.732060	140.048266
14267		0.409838	-4.746143	10.403483	-0.393537	-1.409108	-0.276258	-0.900635	0.521484	-0.568604	-7.799424	26.911001	139.990931
14268		-0.176854	-4.358619	10.871699	-0.374436	-1.554382	-0.539615	-0.910889	0.518311	-0.561768	-8.104115	25.984403	139.783711
14269		-0.699430	-3.897180	11.353097	-0.359120	-1.705729	-0.761223	-0.921387	0.520508	-0.552246	-8.446960	24.954676	139.459357
14270		-1.341035	-3.433965	11.675902	-0.350054	-1.880644	-0.940166	-0.940918	0.517090	-0.553223	-8.814702	23.806552	139.049346
14271		-1.716107	-2.942969	11.579600	-0.320771	-2.051466	-1.083190	-0.951172	0.505371	-0.551514	-9.180649	22.548706	138.580452
14272		-2.136925	-2.528194	11.386767	-0.294946	-2.194917	-1.171177	-0.961914	0.515625	-0.553223	-9.532352	21.196658	138.084520
14273		-2.469297	-2.200969	10.999660	-0.253359	-2.312492	-1.214785	-0.981201	0.507324	-0.550537	-9.848829	19.773574	137.588183
14274		-2.736901	-1.959807	10.568515	-0.223876	-2.387710	-1.228773	-1.000000	0.498291	-0.537598	-10.133297	18.301945	137.103078
14275		-3.048807	-2.026356	10.133707	-0.219517	-2.411756	-1.238433	-1.024658	0.496826	-0.522705	-10.400280	16.815879	136.627089
14276		-3.353275	-2.259955	9.953137	-0.201213	-2.393978	-1.241415	-1.047852	0.490479	-0.526367	-10.643596	15.335199	136.157345
14277		-3.926088	-2.753281	10.211019	-0.152933	-2.358740	-1.242858	-1.082764	0.487061	-0.515625	-10.845967	13.874770	135.692781
14278		-4.581231	-3.393382	10.679322	-0.086827	-2.343130	-1.262017	-1.095459	0.492920	-0.510010	-11.000667	12.417361	135.222361
14279		-5.510593	-4.019212	11.609495	-0.026380	-2.339533	-1.298891	-1.117920	0.474365	-0.498291	-11.111694	10.959152	134.737071
14280		-6.669488	-4.489264	12.149869	-0.001715	-2.418350	-1.388419	-1.139648	0.473145	-0.490723	-11.203318	9.443656	134.213978
14281		-7.007743	-4.596399	11.398816	-0.008264	-2.519649	-1.516318	-1.171143	0.466064	-0.484863	-11.292739	7.858343	133.635001
14282		-7.051838	-4.157357	9.902335	-0.016835	-2.536140	-1.635907	-1.187500	0.457031	-0.464600	-11.379103	6.247339	132.994323
14283		-7.050470	-3.392917	8.376583	-0.023377	-2.435624	-1.700033	-1.210693	0.447021	-0.448486	-11.455216	4.686692	132.310800
14284		-7.328039	-2.504354	7.427895	-0.028498	-2.255221	-1.700321	-1.239990	0.433105	-0.435547	-11.518021	3.224573	131.609367
14285		-7.532235	-1.510971	6.721416	-0.052005	-2.046065	-1.643133	-1.254150	0.421631	-0.424316	-11.576197	1.887598	130.919065
14286		-7.739688	-0.496895	6.130090	-0.083013	-1.810376	-1.531191	-1.272461	0.404785	-0.416504	-11.636554	0.693389	130.265895
14287		-7.688232	0.489495	5.530114	-0.098299	-1.572940	-1.351229	-1.286133	0.398193	-0.393066	-11.692221	-0.345692	129.687996
14288		-7.467046	1.265708	5.295142	-0.087655	-1.332295	-1.118964	-1.301758	0.397217	-0.381104	-11.733960	-1.224718	129.212895
14289		-7.382443	1.818646	5.601748	-0.046101	-1.099719	-0.839368	-1.310059	0.390381	-0.372803	-11.748449	-1.939425	128.868219
14290		-7.328329	2.019296	6.029340	-0.018530	-0.920634	-0.558906	-1.305908	0.390869	-0.372803	-11.748888	-2.522256	128.659752
14291		-7.259844	1.770032	6.419812	0.001292	-0.780808	-0.300026	-1.323242	0.381348	-0.363770	-11.741925	-2.995184	128.580521
14292		-7.325352	1.286977	6.600784	0.016800	-0.673937	-0.064465	-1.329590	0.370850	-0.359375	-11.732381	-3.381726	128.620833
14293		-5.860693	0.570052	-1.610394	0.161158	-0.319047	0.158028	-1.322266	0.381836	-0.355225	-11.645124	-3.542323	128.744855
14294		-8.475965	0.595103	-0.873082	0.582651	0.837223	0.378573	-1.325928	0.377197	-0.361816	-11.315687	-3.029809	128.860046
14295		-9.745651	0.269837	-2.838853	0.861854	1.169351	0.582358	-1.311035	0.383789	-0.381592	-10.828642	-2.308124	129.057143
14296		-12.219157	0.042152	-2.356751	1.182894	1.670138	0.641885	-1.303955	0.380859	-0.387695	-10.154506	-1.300688	129.242574
14297		-3.862860	-0.666896	3.118320	1.342659	1.802507	0.615216	-1.299072	0.381836	-0.410645	-9.385050	-0.222965	129.412816
14298		-1.275633	-1.993497	11.880274	1.131736	1.931448	0.363157	-1.294189	0.390625	-0.420898	-8.734213	0.902468	129.442051
14299		0.962172	-2.712337	13.436917	0.856609	1.918651	0.177300	-1.276611	0.373535	-0.437988	-8.242604	2.004899	129.378339
14300		0.339697	-1.502154	7.404431	0.600574	1.984854	0.136570	-1.264160	0.377686	-0.456299	-7.900075	3.141730	129.294058
14301		-0.380452	-0.472453	4.743010	0.194278	2.242367	-0.050356	-1.255859	0.382080	-0.475342	-7.799943	4.410728	129.087662
14302		-2.054384	0.206853	8.750139	-0.006069	2.528529	-0.107767	-1.236816	0.381836	-0.486816	-7.824544	5.837505	128.826522
14303		-3.373581	1.905032	12.310203	-0.013205	2.453991	0.000357	-1.219971	0.379883	-0.506836	-7.851859	7.230628	128.631820
14304		-2.926812	3.402024	11.246541	0.005821	2.282449	0.189215	-1.210205	0.386230	-0.517822	-7.856395	8.540842	128.557825
14305		-1.924288	3.193447	8.702413	0.048076	2.302550	0.419030	-1.201172	0.399170	-0.524902	-7.817347	9.880717	128.614619
14306		-1.993993	0.897293	7.750959	0.068597	2.534762	0.569438	-1.184570	0.403076	-0.551270	-7.752252	11.363790	128.741380
14307		-4.830466	-3.265134	11.837687	-0.119149	2.741948	0.491365	-1.161621	0.409668	-0.573242	-7.804230	12.958657	128.807282
14308		-5.105086	-4.351182	11.664514	-0.039073	2.713244	0.508671	-1.137695	0.408203	-0.586426	-7.805670	14.538402	128.885213
14309		-9.788729	-5.127865	18.571891	0.342627	2.789965	0.404723	-1.119141	0.412354	-0.598877	-7.603205	16.153792	128.899312
14310		-13.619876	-7.837506	22.825249	0.879383	2.093674	0.163467	-1.107178	0.403320	-0.616211	-7.115873	17.355596	128.833815
14311		-11.677923	-0.433522	20.972095	1.184757	0.637044	0.140923	-1.101074	0.407471	-0.634277	-6.423499	17.727798	128.870798
14312		-2.698134	2.647848	10.669786	0.877339	0.215183	0.055870	-1.097412	0.396973	-0.630127	-5.913179	17.854128	128.888288
14313		-3.536669	-1.094277	10.736691	0.643826	0.378578	-0.023534	-1.098633	0.391113	-0.636475	-5.553871	18.068871	128.849421
14314		-3.958225	-1.457040	10.818685	0.592801	0.207465	0.042461	-1.094482	0.388672	-0.638672	-5.208211	18.189829	128.861179
14315		-3.467994	0.154964	10.722284	0.492023	0.212674	0.021889	-1.089844	0.382813	-0.633301	-4.923943	18.312602	128.861020
14316		-3.540528	-0.485304	11.027574	0.310666	0.260107	0.010843	-1.097656	0.378418	-0.639404	-4.746331	18.461979	128.852313
14317		-3.433115	-0.603261	9.995002	0.221881	0.229042	0.009194	-1.089844	0.379395	-0.643799	-4.619254	18.593503	128.844566
14318		-3.558260	-0.678917	10.055359	0.201390	0.217334	0.001583	-1.091553	0.378662	-0.642822	-4.505172	18.718065	128.833076
14319		-3.404589	-0.608405	9.857454	0.157691	0.176509	-0.001463	-1.088135	0.382813	-0.648682	-4.416009	18.819134	128.821900
14320		-3.375504	-0.617561	9.719655	0.121620	0.149728	-0.005545	-1.086670	0.378174	-0.643555	-4.347917	18.904799	128.809636
14321		-3.393903	-0.810185	9.627899	0.091005	0.119587	-0.003447	-1.089600	0.375244	-0.645020	-4.296458	18.973286	128.800107
14322		-3.268941	-0.795679	9.432482	0.077382	0.101090	0.016974	-1.090576	0.377197	-0.643555	-4.248541	19.032146	128.803811
14323		-3.302885	-0.832834	9.460693	0.067582	0.090425	0.041377	-1.085449	0.380127	-0.647949	-4.201210	19.085877	128.822798
14324		-3.331768	-0.757150	9.560603	0.057283	0.068829	0.055047	-1.080566	0.371826	-0.651367	-4.156769	19.127886	128.851054
14325		-3.372231	-0.656036	9.552983	0.040356	0.052223	0.063289	-1.076660	0.374268	-0.642822	-4.120084	19.160665	128.885065
14326		-3.336877	-0.644982	9.515068	0.022928	0.037887	0.065760	-1.075439	0.371338	-0.649658	-4.092704	19.185398	128.921214
14327		-3.364956	-0.556655	9.598373	0.005476	0.026682	0.064381	-1.090088	0.375488	-0.648926	-4.075381	19.203594	128.957032
14328		-3.403002	-0.549883	9.575542	-0.003179	0.014654	0.056243	-1.081055	0.374756	-0.647461	-4.064493	19.214640	128.988448
14329		-3.367399	-0.593134	9.559826	-0.009210	0.009850	0.045368	-1.079590	0.372314	-0.649658	-4.059116	19.222432	129.013495
14330		-3.359790	-0.598621	9.518647	-0.007338	-0.006875	0.035437	-1.080078	0.379639	-0.649414	-4.054440	19.220325	129.033249
14331		-3.354051	-0.654572	9.499184	-0.011041	-0.015251	0.032888	-1.082275	0.372559	-0.649658	-4.052245	19.213263	129.051819
14332		-3.327712	-0.609817	9.468898	-0.010884	-0.018018	0.026800	-1.080322	0.374023	-0.651367	-4.051167	19.204436	129.066823
14333		-3.262783	-0.649379	9.385990	-0.010604	-0.021351	0.022154	-1.074951	0.378662	-0.644531	-4.050777	19.193452	129.079157
14334		-3.247036	-0.648988	9.418221	-0.008278	-0.020883	0.015257	-1.085205	0.382080	-0.645020	-4.050466	19.182521	129.087296
14335		-3.247555	-0.672583	9.363764	-0.009989	-0.020133	0.014141	-1.086426	0.379883	-0.646729	-4.051339	19.171908	129.094727
14336		-3.257779	-0.650121	9.387676	-0.001415	-0.009756	0.013309	-1.080322	0.376709	-0.640869	-4.047642	19.167257	129.101210
14337		-3.267091	-0.666937	9.374076	0.001914	-0.012891	0.006568	-1.082764	0.374512	-0.640625	-4.043303	19.160477	129.103747
14338		-3.277427	-0.643452	9.398021	0.013496	-0.013325	0.006209	-1.085693	0.374512	-0.645264	-4.032424	19.153498	129.106086
14339		-3.276183	-0.641885	9.398562	0.017531	-0.013608	0.000427	-1.083496	0.374268	-0.645508	-4.020347	19.146059	129.104935
14340		-3.288465	-0.640659	9.367670	0.025032	-0.020719	-0.006807	-1.086426	0.377197	-0.646729	-4.005338	19.134331	129.099709
14341		-3.232632	-0.631824	9.363429	0.035746	-0.017194	-0.017264	-1.081055	0.381592	-0.646240	-3.986284	19.124138	129.088004
14342		-3.285642	-0.595323	9.406851	0.046060	-0.026105	-0.025625	-1.087891	0.373535	-0.650635	-3.962880	19.108588	129.071614
14343		-3.224292	-0.574190	9.344375	0.068931	-0.035934	-0.038033	-1.084717	0.376465	-0.648438	-3.928663	19.086873	129.048120
14344		-3.179991	-0.629056	9.348400	0.090262	-0.037698	-0.048839	-1.082520	0.371582	-0.652588	-3.884358	19.063808	129.018153
14345		-3.253767	-0.712954	9.348998	0.091696	-0.038237	-0.039217	-1.083496	0.373779	-0.651611	-3.837292	19.040765	128.994009
14346		-3.145269	-0.676913	9.322945	0.067992	-0.048845	-0.007520	-1.085938	0.373047	-0.644287	-3.797440	19.012946	128.989449
14347		-3.137545	-0.686703	9.342489	0.079939	-0.036849	-0.010000	-1.084717	0.375000	-0.649414	-3.751366	18.991832	128.982887
14348		-3.184505	-0.702587	9.367047	0.071130	-0.033782	0.004296	-1.078613	0.366211	-0.655273	-3.707598	18.973070	128.984832
14349		-3.178554	-0.645764	9.346952	0.067932	-0.031193	0.012479	-1.083740	0.373535	-0.649658	-3.664065	18.956028	128.991608
14350		-3.266997	-0.627293	9.445373	0.068300	-0.032882	0.016816	-1.087402	0.373535	-0.648682	-3.619486	18.938232	129.001055
14351		-3.173016	-0.658628	9.426449	0.059545	-0.035136	0.027448	-1.078613	0.375732	-0.653320	-3.577787	18.919464	129.017001
14352		-3.203472	-0.624466	9.460680	0.046830	-0.028309	0.033730	-1.084961	0.371582	-0.659180	-3.542268	18.904872	129.036471
14353		-3.193492	-0.625600	9.420707	0.040098	-0.023652	0.038230	-1.084229	0.371826	-0.650146	-3.509757	18.893032	129.058478
14354		-3.217183	-0.599225	9.413409	0.029721	-0.019487	0.041467	-1.084961	0.371582	-0.648438	-3.482647	18.883733	129.082278
14355		-3.237604	-0.589897	9.423676	0.021537	-0.015198	0.047738	-1.085693	0.373291	-0.650879	-3.459022	18.877038	129.109708
14356		-3.213252	-0.528474	9.506510	0.012369	-0.009535	0.046313	-1.082031	0.373779	-0.652588	-3.441033	18.873580	129.136064
14357		-3.321292	-0.499697	9.554672	-0.014624	-0.013353	0.039259	-1.085938	0.365723	-0.655273	-3.439812	18.867634	129.158296
14358		-3.206783	-0.584528	9.487840	-0.028756	-0.011343	0.032269	-1.079102	0.358398	-0.654785	-3.448113	18.862656	129.176228
14359		-3.245339	-0.565406	9.448353	-0.032157	-0.012956	0.033900	-1.080811	0.365479	-0.649414	-3.457993	18.856758	129.195207
14360		-3.251807	-0.561142	9.489727	-0.036399	-0.016865	0.033144	-1.083008	0.370850	-0.641113	-3.470440	18.848657	129.213871
14361		-3.227680	-0.609004	9.443396	-0.036153	-0.017989	0.036036	-1.082520	0.373291	-0.652100	-3.482138	18.839962	129.234326
14362		-3.237496	-0.588681	9.467110	-0.039808	-0.018480	0.034779	-1.086426	0.379150	-0.649902	-3.496205	18.831003	129.254039
14363		-3.216885	-0.620386	9.403048	-0.040771	-0.021101	0.042335	-1.083252	0.375977	-0.644287	-3.509289	18.820757	129.278418
14364		-3.175792	-0.643797	9.443059	-0.039328	-0.018507	0.048091	-1.085938	0.375732	-0.644043	-3.520493	18.812258	129.306177
14365		-3.189218	-0.606810	9.449092	-0.040545	-0.020007	0.052759	-1.086426	0.376953	-0.642090	-3.531437	18.803015	129.336814
14366		-3.169583	-0.598153	9.422149	-0.043111	-0.019329	0.056785	-1.089355	0.379639	-0.649902	-3.543115	18.794362	129.369855
14367		-3.193711	-0.578461	9.414342	-0.043750	-0.014298	0.057095	-1.081055	0.365967	-0.647949	-3.555129	18.788548	129.402898
14368		-3.225296	-0.552432	9.447720	-0.042395	-0.021820	0.054073	-1.080811	0.378418	-0.649170	-3.566902	18.778387	129.434395
14369		-3.237532	-0.555293	9.416756	-0.036190	-0.024240	0.043782	-1.083252	0.375732	-0.647705	-3.577062	18.766426	129.459771
14370		-3.184652	-0.601650	9.433444	-0.042156	-0.027385	0.041912	-1.091797	0.375488	-0.641602	-3.591003	18.752659	129.484135
14371		-3.182286	-0.604304	9.434073	-0.043499	-0.028326	0.045136	-1.089111	0.388184	-0.644287	-3.605049	18.738421	129.510486
14372		-3.140104	-0.628391	9.474284	-0.045683	-0.034679	0.049827	-1.079590	0.377197	-0.642090	-3.619399	18.720779	129.539909
14373		-3.017863	-0.682339	9.403092	-0.062630	-0.027295	0.070467	-1.089111	0.379150	-0.646240	-3.639525	18.708063	129.581517
14374		-3.041135	-0.731498	9.434444	-0.090905	-0.023689	0.098272	-1.090332	0.385986	-0.649170	-3.670554	18.698492	129.639770
14375		-3.040676	-0.591602	9.470236	-0.115174	-0.026651	0.128006	-1.087158	0.373779	-0.640137	-3.709674	18.688308	129.716092
14376		-2.846309	-0.527170	9.364400	-0.137152	-0.059862	0.147681	-1.082764	0.379395	-0.644775	-3.757226	18.659968	129.805590
14377		-3.213656	-0.632516	9.385040	-0.155419	-0.103839	0.162688	-1.089844	0.384033	-0.642578	-3.811812	18.607086	129.905909
14378		-3.175252	-0.532996	9.449638	-0.110704	-0.129774	0.140520	-1.086182	0.386719	-0.644531	-3.844838	18.538641	129.993905
14379		-3.289355	-0.543935	9.301884	-0.052028	-0.127245	0.106599	-1.081055	0.386719	-0.639648	-3.850834	18.470327	130.061347
14380		-3.024382	-0.580773	9.457581	0.005694	-0.168083	0.089962	-1.094482	0.386475	-0.648193	-3.826541	18.378061	130.120366
14381		-3.125986	-0.592687	9.401359	0.054532	-0.130204	0.074356	-1.088379	0.382568	-0.641113	-3.777776	18.306778	130.168385
14382		-2.985688	-0.608133	9.763818	0.085250	-0.097113	0.076736	-1.093018	0.387207	-0.646973	-3.711479	18.254500	130.216436
14383		-2.350486	-0.599965	9.701205	0.096146	0.052467	0.057558	-1.096191	0.393066	-0.638672	-3.644373	18.286949	130.247087
14384		-3.009573	-0.459621	9.609585	0.099074	0.330571	0.022733	-1.081543	0.384766	-0.645508	-3.585501	18.477156	130.246218
14385		-2.985487	-0.835380	9.595400	0.120119	0.411667	0.009716	-1.087158	0.384766	-0.646973	-3.517947	18.713254	130.234684
14386		-2.506437	-1.082504	9.544600	0.126042	0.383524	0.094040	-1.082764	0.386230	-0.649902	-3.430196	18.936216	130.275447
14387		-2.588355	-1.203050	9.650879	0.153028	0.422286	0.225398	-1.079102	0.381348	-0.645508	-3.301120	19.185676	130.394835
14388		-2.608838	-1.154041	9.626836	0.132550	0.536099	0.365823	-1.076660	0.391357	-0.648438	-3.156077	19.504498	130.596283
14389		-1.872509	-1.257348	9.922340	0.263423	0.860929	0.472131	-1.063721	0.387207	-0.651367	-2.915762	20.011765	130.853563
14390		-2.482699	-1.042602	10.037422	0.454962	1.261242	0.555741	-1.049316	0.375244	-0.658691	-2.548080	20.749081	131.154075
14391		-1.715468	-1.078893	10.286685	0.616583	1.760910	0.588053	-1.038330	0.377441	-0.680664	-2.077965	21.771164	131.469614
14392		0.263016	-1.528351	11.524195	0.846039	2.427716	0.826730	-1.019287	0.375488	-0.682373	-1.413314	23.176231	131.934039
14393		2.045799	-1.652871	14.152347	1.293109	3.850542	1.100575	-0.982178	0.370605	-0.704346	-0.402004	25.392576	132.585325
14394		1.396305	-1.087134	16.361277	1.350681	6.037654	1.293051	-0.925781	0.364746	-0.718018	0.758525	28.849782	133.427454
14395		1.466223	-0.748924	15.398714	0.863011	8.074752	1.446141	-0.859375	0.352783	-0.744873	1.818535	33.457109	134.514544
14396		-1.471822	1.060363	10.287177	0.675383	9.504601	1.561851	-0.775146	0.349365	-0.761230	3.028942	38.860377	135.904113
14397		-0.137804	0.208829	9.369900	0.655788	10.330561	1.602360	-0.678223	0.352783	-0.767334	4.576242	44.706557	137.655885
14398		-1.210040	0.998111	8.937619	0.528657	11.055922	1.745352	-0.588135	0.349854	-0.770752	6.663800	50.913781	140.057278
14399		-2.636078	1.360436	5.352226	0.283677	11.655498	1.960237	-0.468018	0.344727	-0.753906	9.681635	57.367804	143.571177
14400		1.018936	4.035663	6.785855	-0.291140	12.190833	2.004969	-0.362549	0.340576	-0.724121	14.080515	63.972773	148.796112
14401		0.018009	5.297736	12.696060	-1.447384	13.259336	2.212476	-0.251953	0.345947	-0.671631	21.787394	70.832445	158.021420
14402		-44.639557	9.186686	44.621542	-2.339844	10.609685	3.048785	-0.167480	0.349609	-0.636230	35.086932	75.385492	173.300967
14403		-21.392579	3.431287	47.569263	-3.014876	1.136965	2.610229	-0.158447	0.358643	-0.623291	39.356077	75.000518	179.500680
14404		-7.408869	-0.212621	32.965149	-3.588144	-0.671649	2.685158	-0.176758	0.382813	-0.612305	40.619465	73.716299	-177.055034
14405		-4.341645	-4.406576	20.525456	-3.314029	-2.294812	2.662883	-0.196289	0.383789	-0.612305	39.739748	71.728910	-175.990278
14406		-2.864945	-6.559072	12.376148	-2.798228	-2.868393	2.418019	-0.209961	0.400635	-0.620117	38.249420	69.579210	-175.872674
14407		-2.109537	-7.443672	7.779334	-2.251155	-3.212060	2.050934	-0.240723	0.402588	-0.627930	36.493863	67.404880	-176.375603
14408		-1.590653	-8.110339	5.360362	-1.772059	-3.306732	1.564201	-0.270264	0.408447	-0.618896	34.619096	65.341439	-177.315463
14409		-1.456562	-8.600844	4.506183	-1.310569	-3.243667	1.032240	-0.289063	0.408691	-0.631836	32.743508	63.468249	-178.564941
14410		-1.354928	-8.736605	4.434288	-0.791629	-3.206909	0.532542	-0.311035	0.422119	-0.638184	30.913271	61.744984	179.882929
14411		-1.340609	-8.265892	5.010580	-0.311136	-3.228253	0.124197	-0.343018	0.424805	-0.645996	29.179750	60.109395	178.100946
14412		-1.688608	-7.387839	6.106787	-0.027349	-3.265727	-0.285274	-0.362305	0.429443	-0.649658	27.419514	58.537831	176.071137
14413		-2.080369	-6.266920	7.415686	-0.008514	-3.293269	-0.711278	-0.394043	0.438477	-0.668457	25.501146	57.031142	173.806892
14414		-2.671546	-5.282091	8.639852	-0.161642	-3.367417	-1.123321	-0.420654	0.450439	-0.678955	23.328939	55.538234	171.305671
14415		-3.106364	-4.306888	9.265596	-0.377505	-3.504039	-1.488648	-0.460693	0.460693	-0.682617	20.922917	54.000407	168.622417
14416		-3.485478	-3.207345	9.484808	-0.556232	-3.654003	-1.763699	-0.498535	0.461182	-0.687988	18.386381	52.365907	165.851205
14417		-3.836304	-1.965829	9.685563	-0.676425	-3.801210	-1.929162	-0.549072	0.489746	-0.693604	15.865319	50.610575	163.122136
14418		-4.271465	-0.796245	10.025162	-0.795349	-3.924486	-2.020929	-0.591797	0.502441	-0.684326	13.415696	48.724274	160.505776
14419		-4.878319	0.171945	10.671894	-0.909200	-4.046970	-2.036352	-0.646484	0.521484	-0.685791	11.099828	46.706557	158.076978
14420		-5.644066	0.729898	11.195508	-1.009983	-4.173326	-2.005817	-0.685791	0.520752	-0.677734	8.935156	44.547871	155.857480
14421		-6.386233	0.921092	11.655774	-1.077498	-4.307272	-1.950443	-0.734619	0.544189	-0.663330	6.948870	42.258490	153.862404
14422		-6.958216	0.947019	11.906256	-1.096012	-4.449250	-1.891594	-0.783203	0.558594	-0.656494	5.145543	39.833328	152.071671
14423		-7.442252	0.826890	12.189399	-1.062273	-4.558827	-1.821659	-0.843750	0.569580	-0.631348	3.549698	37.308356	150.485073
14424		-8.182063	0.623985	13.095343	-1.003953	-4.647205	-1.752570	-0.901367	0.572021	-0.616943	2.147381	34.694334	149.076929
14425		-9.062610	0.368204	14.258678	-0.950395	-4.766103	-1.708628	-0.948975	0.592773	-0.593018	0.911937	31.991044	147.816137
14426		-9.902364	0.113598	15.067293	-0.926345	-4.914180	-1.684420	-1.002197	0.604004	-0.558838	-0.201082	29.176711	146.670484
14427		-10.560456	-0.316918	15.381218	-0.921300	-5.046441	-1.683368	-1.066162	0.621094	-0.519287	-1.215843	26.273950	145.619372
14428		-10.976919	-1.169087	15.278921	-0.924850	-5.140405	-1.721096	-1.123779	0.629395	-0.483643	-2.161780	23.296077	144.625434
14429		-11.628479	-2.486027	15.409331	-0.891933	-5.166988	-1.813566	-1.178467	0.627930	-0.424805	-3.032790	20.291857	143.650082
14430		-13.140584	-3.635633	16.185785	-0.797954	-5.177725	-1.978275	-1.224365	0.633057	-0.364258	-3.814885	17.257982	142.638724
14431		-15.035760	-4.393358	17.030102	-0.659804	-5.192699	-2.208140	-1.269287	0.627930	-0.309814	-4.485952	14.199238	141.549669
14432		-17.691742	-4.662919	17.679189	-0.476735	-5.263973	-2.449261	-1.313477	0.616943	-0.239502	-5.016729	11.072603	140.369388
14433		-19.983922	-4.104738	16.666061	-0.266283	-5.374145	-2.687920	-1.351563	0.597168	-0.170166	-5.376618	7.866750	139.095466
14434		-21.009939	-2.694647	13.618341	-0.082840	-5.380097	-2.832428	-1.365723	0.568359	-0.104492	-5.568571	4.639139	137.763355
14435		-21.205820	-0.960858	9.378431	0.021626	-5.181555	-2.871021	-1.372803	0.542236	-0.037598	-5.626439	1.524147	136.412127
14436		-20.642682	0.739268	5.124901	0.042106	-4.754745	-2.830045	-1.379883	0.504395	0.018066	-5.603640	-1.349354	135.062535
14437		-19.326152	2.311780	1.932998	0.017417	-4.138986	-2.697008	-1.381592	0.473389	0.073730	-5.531662	-3.859405	133.751500
14438		-17.787787	3.043931	0.016898	-0.005936	-3.423574	-2.464595	-1.369873	0.439697	0.104004	-5.429413	-5.949777	132.526460
14439		-17.960559	3.492928	-0.989614	-0.083721	-2.719390	-2.221226	-1.366455	0.408691	0.136230	-5.341389	-7.620230	131.395879
14440		-18.447815	4.059424	-1.953766	-0.111983	-2.113496	-1.897882	-1.356445	0.388672	0.166748	-5.262941	-8.928707	130.412676
14441		-18.384221	4.591797	-3.334940	-0.174950	-1.507188	-1.532068	-1.345947	0.368896	0.180908	-5.228837	-9.868650	129.604775
14442		-18.008076	4.916544	-4.185100	-0.333447	-0.868990	-1.243125	-1.350098	0.358154	0.201172	-5.299407	-10.431335	128.928607
14443		-17.312560	4.796753	-4.582583	-0.425876	-0.263332	-0.990985	-1.338623	0.335693	0.222900	-5.438176	-10.634414	128.366058
14444		-16.510822	4.554440	-4.188991	-0.374609	0.325525	-0.764529	-1.342285	0.338623	0.222656	-5.566268	-10.491670	127.902356
14445		-15.628682	4.377983	-2.893927	-0.129483	0.854438	-0.522979	-1.328613	0.330078	0.234619	-5.575108	-10.033253	127.549066
14446		-13.623812	2.381562	-0.738119	0.231896	1.288142	-0.261508	-1.322998	0.335205	0.239502	-5.402736	-9.313224	127.324248
14447		9.441402	-0.972599	-8.618146	1.571540	3.048456	-0.631895	-1.332031	0.340088	0.243896	-4.423656	-7.603740	126.806444
14448		-0.646371	3.401415	17.770762	2.204784	3.273163	0.013048	-1.325439	0.353760	0.240479	-3.144733	-5.732197	126.687436
14449		9.160228	6.688560	7.143800	1.093833	3.134939	-0.240709	-1.333740	0.360840	0.233643	-2.496253	-3.944631	126.458625
14450		0.599410	2.443289	0.558888	0.100129	3.893580	-0.676191	-1.346680	0.364990	0.229004	-2.412857	-1.732698	125.973488
14451		-4.188643	0.609356	4.673573	-0.226164	4.246622	-0.786675	-1.342773	0.365234	0.222168	-2.534928	0.679092	125.416300
14452		-8.543619	3.619338	16.074099	-0.544015	4.226716	-0.744360	-1.351563	0.372559	0.238281	-2.862377	3.077830	124.874037
14453		-9.072769	4.889694	20.323380	-1.004798	3.682870	-0.666436	-1.364014	0.375488	0.222412	-3.471751	5.163982	124.373061
14454		-5.697892	6.837066	15.463990	-0.862410	3.180894	-0.196796	-1.366699	0.393799	0.231689	-3.988392	6.975353	124.138748
14455		-3.752090	6.431890	11.441467	-0.574560	3.133965	0.354188	-1.367188	0.409912	0.231689	-4.305431	8.781258	124.210093
14456		-6.193506	0.780833	14.840756	-0.737155	3.380713	0.459351	-1.369385	0.418945	0.221680	-4.706571	10.733112	124.320018
14457		-8.431510	-4.637784	17.386885	-0.789941	2.930178	0.360077	-1.368164	0.440918	0.226807	-5.144606	12.423769	124.380764
14458		-6.961595	-6.605105	16.457553	-0.611909	2.750256	0.227855	-1.371094	0.444092	0.208252	-5.496848	14.005180	124.362313
14459		-9.603615	-8.968789	19.078798	-0.028410	2.422148	0.152548	-1.378174	0.465332	0.210938	-5.523351	15.395208	124.312541
14460		-16.228693	-6.953542	27.076001	0.958622	1.484846	0.050356	-1.383057	0.470215	0.208252	-4.986231	16.245504	124.259469
14461		-5.421881	3.165854	12.319856	0.163709	-0.361214	0.146066	-1.377197	0.469727	0.214844	-4.861289	16.046770	124.362805
14462		0.666465	0.093141	6.702687	0.119304	0.364212	-0.051027	-1.375488	0.472900	0.214111	-4.804680	16.252961	124.312249
14463		-6.263212	-2.734568	13.519757	0.150453	0.379748	0.053614	-1.376709	0.471924	0.213867	-4.712935	16.472624	124.323378
14464		-3.550297	0.928285	11.747843	-0.027082	0.248624	0.099500	-1.380615	0.475342	0.208740	-4.713306	16.619995	124.368504
14465		-3.371682	-1.146706	10.335177	-0.112119	0.285437	0.025889	-1.382813	0.476074	0.218018	-4.775327	16.784489	124.367849
14466		-3.349699	-0.968368	10.307593	-0.037899	0.270875	0.069816	-1.383789	0.472656	0.217529	-4.787109	16.943210	124.394057
14467		-3.474659	-0.486849	10.430831	-0.027998	0.198980	0.052066	-1.381104	0.483887	0.213135	-4.795142	17.059594	124.413217
14468		-3.162933	-0.759822	9.942618	-0.018792	0.122240	0.034328	-1.386963	0.470459	0.218506	-4.799914	17.131771	124.425667
14469		-2.986583	-0.890338	9.628658	-0.021637	0.114025	0.035243	-1.386230	0.475342	0.217529	-4.805960	17.198847	124.439031
14470		-3.010128	-0.869186	9.648804	-0.018593	0.106963	0.048790	-1.380859	0.483398	0.218262	-4.807804	17.263004	124.460891
14471		-2.895042	-0.889401	9.453775	-0.008980	0.113269	0.059276	-1.388428	0.478271	0.214111	-4.802282	17.330802	124.488671
14472		-3.057514	-0.887570	9.596787	-0.008029	0.130063	0.076845	-1.382813	0.477051	0.213135	-4.793353	17.409491	124.526180
14473		-2.978402	-0.866812	9.548913	0.002200	0.121979	0.085364	-1.382813	0.476563	0.208252	-4.776792	17.483500	124.569185
14474		-3.044039	-0.749883	9.563102	0.008425	0.121714	0.092463	-1.379395	0.483398	0.220703	-4.755382	17.558149	124.616537
14475		-3.077875	-0.742455	9.569522	0.008786	0.112953	0.084246	-1.381836	0.488281	0.215820	-4.734983	17.626922	124.659410
14476		-3.092055	-0.699107	9.603440	0.012495	0.103381	0.076784	-1.375488	0.480469	0.212158	-4.713676	17.690334	124.698368
14477		-3.193781	-0.713652	9.644216	0.018870	0.085287	0.064083	-1.384521	0.488770	0.215576	-4.690648	17.742332	124.730601
14478		-3.153502	-0.683659	9.618076	0.023050	0.071800	0.053449	-1.377686	0.489502	0.218994	-4.666994	17.786595	124.757193
14479		-3.127217	-0.729482	9.528023	0.024590	0.056942	0.047794	-1.379883	0.480957	0.217041	-4.643188	17.821624	124.781102
14480		-3.148011	-0.664097	9.587297	0.022910	0.040079	0.035337	-1.382324	0.485352	0.205322	-4.622420	17.846918	124.798418
14481		-3.130794	-0.739008	9.543399	0.018576	0.031745	0.028111	-1.379639	0.483154	0.201660	-4.605276	17.866634	124.811771
14482		-3.125833	-0.742251	9.501555	0.020594	0.020328	0.021950	-1.383301	0.483398	0.223389	-4.587987	17.880028	124.822029
14483		-3.040184	-0.705533	9.440137	0.024493	0.012757	0.013513	-1.383545	0.487793	0.210693	-4.569851	17.888223	124.827548
14484		-3.063408	-0.648198	9.428209	0.040090	-0.000242	0.001004	-1.380859	0.483887	0.216064	-4.544944	17.888913	124.826229
14485		-2.987021	-0.651429	9.299064	0.065729	-0.001026	-0.022210	-1.382813	0.490723	0.216064	-4.509564	17.887615	124.810970
14486		-2.980579	-0.761020	9.361025	0.090831	-0.000140	-0.031403	-1.379395	0.498291	0.221924	-4.461555	17.886915	124.790197
14487		-2.990660	-0.720975	9.326150	0.097229	0.006417	-0.020201	-1.386719	0.487549	0.225830	-4.407864	17.889981	124.775796
14488		-2.976199	-0.759917	9.379968	0.109084	0.007792	-0.020169	-1.386963	0.491699	0.216797	-4.347440	17.894342	124.761399
14489		-3.004796	-0.679919	9.350478	0.112969	0.014989	-0.004965	-1.380615	0.486816	0.208252	-4.282039	17.902991	124.755763
14490		-2.913009	-0.751249	9.351371	0.116342	0.023824	0.005923	-1.385010	0.492432	0.212891	-4.212862	17.917651	124.756326
14491		-3.040278	-0.721846	9.368899	0.118086	0.037863	0.012313	-1.383789	0.488525	0.216553	-4.141640	17.940105	124.760084
14492		-3.026433	-0.798133	9.385121	0.117980	0.052905	0.026033	-1.375488	0.488281	0.214355	-4.068176	17.972208	124.771510
14493		-3.005409	-0.806049	9.392341	0.115701	0.067512	0.046625	-1.379639	0.493164	0.218994	-3.992317	18.012981	124.794694
14494		-3.357285	-0.705307	9.733352	0.093644	0.032186	0.057916	-1.377441	0.485840	0.217041	-3.926568	18.034475	124.826232
14495		-3.068459	-0.729989	9.488735	0.071723	0.018656	0.068636	-1.376221	0.488770	0.213135	-3.871136	18.048127	124.864756
14496		-3.150063	-0.637414	9.518495	0.052742	0.022866	0.070189	-1.378906	0.485107	0.222900	-3.826388	18.064714	124.904098
14497		-3.042632	-0.701366	9.491798	0.040275	0.030827	0.076896	-1.380859	0.493164	0.221680	-3.787554	18.085579	124.947132
14498		-3.137534	-0.638274	9.566445	0.030994	0.033460	0.087785	-1.377441	0.492920	0.210205	-3.752075	18.108836	124.996669
14499		-3.157930	-0.644954	9.593329	0.014379	0.022638	0.088542	-1.380859	0.486816	0.218994	-3.725757	18.125405	125.047068
14500		-3.092000	-0.644466	9.504548	0.007264	0.028226	0.090129	-1.378418	0.496582	0.216309	-3.703330	18.145714	125.098254
14501		-3.024744	-0.669937	9.492500	-0.002964	0.033906	0.102260	-1.376465	0.498291	0.220703	-3.684473	18.169196	125.156494
14502		-3.152891	-0.559914	9.653849	-0.039910	0.036674	0.116389	-1.379395	0.492920	0.212646	-3.684199	18.195275	125.223180
14503		-3.094504	-0.673115	9.536686	-0.069301	0.039802	0.125994	-1.378418	0.498779	0.225586	-3.698901	18.223001	125.295495
14504		-3.066360	-0.628140	9.402875	-0.090166	0.040039	0.139720	-1.376953	0.505371	0.219238	-3.723003	18.251900	125.376104
14505		-3.119529	-0.469638	9.525843	-0.111694	0.044968	0.145268	-1.373779	0.500732	0.212891	-3.758351	18.283359	125.459819
14506		-3.113683	-0.672266	9.513006	-0.114822	0.035020	0.137294	-1.373535	0.498535	0.224854	-3.796894	18.309386	125.539160
14507		-3.063305	-0.521124	9.438930	-0.139588	0.025309	0.148130	-1.381592	0.500732	0.217773	-3.847368	18.329829	125.625368
14508		-2.873360	-0.489597	9.424469	-0.154638	0.003717	0.159652	-1.372803	0.509277	0.214844	-3.904043	18.338956	125.719422
14509		-3.024305	-0.598001	9.308641	-0.173992	-0.038909	0.157664	-1.374023	0.507324	0.219238	-3.971582	18.323232	125.813995
14510		-3.201147	-0.566334	9.428752	-0.138769	-0.122209	0.136420	-1.375732	0.501953	0.219727	-4.021965	18.259639	125.899319
14511		-3.121968	-0.612041	9.479869	-0.080627	-0.144572	0.119870	-1.370117	0.504883	0.225830	-4.041902	18.182149	125.975599
14512		-3.110845	-0.587712	9.407293	-0.021633	-0.136128	0.077645	-1.364258	0.513184	0.213135	-4.036203	18.108293	126.026144
14513		-2.856538	-0.532418	9.564069	0.036934	-0.131926	0.065571	-1.374023	0.500977	0.227783	-3.999291	18.035833	126.069160
14514		-2.915018	-0.535709	9.541945	0.078771	-0.071771	0.045064	-1.371582	0.510010	0.218018	-3.943093	17.997408	126.097308
14515		-2.678009	-0.393340	9.768502	0.112300	0.080595	-0.000559	-1.373047	0.503418	0.223145	-3.878082	18.043769	126.091685
14516		-2.789116	-0.752703	9.788588	0.110184	0.295010	-0.025774	-1.378662	0.500488	0.219971	-3.821721	18.212221	126.062308
14517		-2.663878	-0.956616	9.813252	0.096419	0.433677	0.006934	-1.372070	0.514404	0.215332	-3.768829	18.460735	126.047179
14518		-2.145995	-1.199991	9.601002	0.038954	0.508537	0.190577	-1.366699	0.507324	0.219238	-3.714482	18.759383	126.140143
14519		-1.772843	-1.593930	9.591655	-0.005754	0.610745	0.406868	-1.371826	0.516846	0.211670	-3.643884	19.123874	126.360374
14520		-1.821097	-1.540623	9.942701	0.079744	0.777023	0.616771	-1.363037	0.512207	0.202148	-3.482334	19.590887	126.702906
14521		-1.264169	-1.191202	10.338694	0.185183	1.327637	0.731540	-1.358643	0.517578	0.197021	-3.238564	20.375163	127.098689
14522		-0.705281	-1.042137	11.205179	0.282942	2.117960	0.861374	-1.359863	0.522949	0.170654	-2.910728	21.614006	127.554803
14523		3.417710	-0.583279	13.246673	0.486525	3.492188	1.041776	-1.356689	0.526123	0.145996	-2.420547	23.640846	128.097902
14524		6.186769	-0.243088	19.393548	0.519099	6.120258	1.254977	-1.342285	0.543945	0.104248	-1.842209	27.172149	128.746771
14525		4.974664	-1.487468	20.179758	0.112326	9.545429	1.330161	-1.323486	0.544922	0.038086	-1.427623	32.661258	129.443260
14526		0.127064	1.067103	12.059013	-0.076075	12.060036	1.423352	-1.304443	0.554199	-0.045654	-0.980720	39.586382	130.269872
14527		2.371757	0.055746	10.058720	0.025257	13.356175	1.354906	-1.254883	0.551758	-0.124756	-0.311753	47.247812	131.216467
14528		-0.074907	-0.896892	7.264881	0.149686	14.190982	1.569360	-1.197510	0.560547	-0.213135	0.955821	55.373100	132.723452
14529		2.632721	2.652222	3.238397	-0.094098	14.863252	1.954666	-1.129639	0.578857	-0.282959	3.360914	63.843789	135.563581
14530		1.600587	10.353187	2.462317	-0.898653	16.052887	2.413249	-1.033691	0.589600	-0.355957	8.769700	72.855952	141.914920
14531		-53.985038	10.903740	42.894296	-1.619821	14.115883	3.279234	-0.949707	0.605225	-0.395996	25.264120	80.127503	159.788921
14532		-26.463359	5.763710	52.335828	-2.543662	3.715116	2.991330	-0.896484	0.606689	-0.412598	39.422118	81.016183	175.612795
14533		-7.785147	1.615403	41.941249	-3.190687	0.809910	3.325329	-0.887939	0.613770	-0.412354	47.789186	80.035841	-174.054421
14534		-7.334595	-3.085544	30.273500	-3.084577	-1.519974	3.441133	-0.899902	0.613037	-0.393555	49.353476	77.978455	-170.663094
14535		-3.992033	-5.236209	17.631884	-2.743316	-2.735399	3.284437	-0.917969	0.607666	-0.337158	48.053827	75.532041	-170.385792
14536		-2.806813	-6.107695	10.992893	-2.344426	-3.266467	2.952353	-0.941406	0.583252	-0.277832	45.926584	73.015803	-171.201478
14537		-2.692148	-6.636376	7.937623	-2.048963	-3.545513	2.550438	-0.933594	0.538330	-0.210693	43.560395	70.545811	-172.458662
14538		-2.764431	-7.621039	6.494463	-1.845219	-3.731158	2.057303	-0.906250	0.496338	-0.129150	40.983376	68.167733	-174.083221
14539		-2.506421	-8.373369	5.030286	-1.560425	-3.843613	1.524345	-0.859375	0.452637	-0.090088	38.356917	65.916321	-175.966735
14540		-1.911153	-9.086318	3.700899	-1.229087	-3.877464	0.977420	-0.806885	0.397217	-0.066895	35.737397	63.801876	-178.082397
14541		-1.267736	-9.206980	2.804058	-0.842008	-3.824308	0.448304	-0.758789	0.349365	-0.065186	33.249598	61.851538	179.661196
14542		-1.084531	-8.555950	3.151339	-0.511279	-3.735355	-0.046482	-0.718506	0.310547	-0.077148	30.857094	60.047343	177.260031
14543		-1.475885	-7.543498	4.628903	-0.374913	-3.669208	-0.512767	-0.678467	0.283691	-0.098145	28.467781	58.366853	174.726271
14544		-2.239788	-6.453187	6.684874	-0.443828	-3.668382	-0.998739	-0.658691	0.267822	-0.116943	25.889137	56.753333	171.973241
14545		-3.270295	-5.407265	8.854551	-0.634068	-3.773470	-1.471967	-0.647217	0.246826	-0.155762	23.064550	55.135711	169.000103
14546		-4.297991	-4.484937	10.307820	-0.811826	-3.995322	-1.878786	-0.638916	0.238770	-0.180420	20.027318	53.395490	165.833210
14547		-5.036994	-3.516086	11.140429	-0.895954	-4.289010	-2.198314	-0.647217	0.250488	-0.205811	16.947682	51.464618	162.593302
14548		-5.676393	-2.104590	11.744804	-0.935894	-4.589708	-2.424490	-0.654785	0.240967	-0.231689	13.937792	49.291976	159.384261
14549		-6.221604	-0.487894	12.065850	-0.972288	-4.885778	-2.560403	-0.666016	0.249268	-0.253418	11.108953	46.877441	156.329324
14550		-6.622164	1.141644	12.139565	-1.033595	-5.141120	-2.587178	-0.695313	0.258545	-0.277832	8.507793	44.218476	153.517725
14551		-7.073147	2.522763	12.256975	-1.099994	-5.353610	-2.515681	-0.718506	0.250732	-0.287354	6.191067	41.360796	151.032799
14552		-7.526653	3.417020	12.187475	-1.134426	-5.511070	-2.350434	-0.741943	0.264648	-0.294434	4.177430	38.328202	148.907006
14553		-7.895692	3.940409	12.191450	-1.149627	-5.622254	-2.127792	-0.771240	0.281738	-0.302734	2.470726	35.183265	147.152714
14554		-8.355136	3.803226	12.323972	-1.143900	-5.679723	-1.877705	-0.796143	0.276611	-0.300049	1.031307	31.953474	145.736950
14555		-8.667224	3.025943	12.816033	-1.090637	-5.692178	-1.644306	-0.814941	0.287354	-0.298340	-0.158241	28.699714	144.614729
14556		-9.210609	1.819938	13.897653	-1.040860	-5.673290	-1.471592	-0.846924	0.295898	-0.295410	-1.169149	25.429502	143.705426
14557		-10.459002	0.099304	15.513362	-1.002697	-5.627395	-1.402456	-0.868652	0.296875	-0.278076	-2.056658	22.184241	142.924756
14558		-12.991991	-1.672187	17.734523	-0.940534	-5.606868	-1.454413	-0.894287	0.292236	-0.263672	-2.858202	18.928832	142.178621
14559		-16.182967	-2.762566	19.222689	-0.881380	-5.684599	-1.645716	-0.914551	0.302490	-0.258545	-3.597351	15.624152	141.382912
14560		-19.799599	-3.138560	19.434779	-0.827227	-5.802821	-1.910368	-0.938965	0.292480	-0.241211	-4.286910	12.222182	140.489916
14561		-24.094977	-2.793021	17.735906	-0.664194	-5.857838	-2.125356	-0.950684	0.281006	-0.238281	-4.841085	8.779837	139.525212
14562		-27.863348	-1.447858	14.488152	-0.418410	-5.743675	-2.197705	-0.972168	0.273193	-0.224609	-5.201835	5.382596	138.548582
14563		-30.367190	0.334487	9.829491	-0.226958	-5.428317	-2.111112	-0.997314	0.259521	-0.214844	-5.390227	2.174218	137.627476
14564		-30.784881	2.261631	4.150212	-0.242712	-4.910690	-1.973885	-1.013916	0.243164	-0.213867	-5.540428	-0.741197	136.767163
14565		-29.590079	4.245100	-1.283401	-0.437945	-4.199934	-1.803130	-1.022705	0.243652	-0.199951	-5.761440	-3.237410	135.973716
14566		-27.893278	5.582802	-5.860453	-0.622684	-3.347630	-1.513150	-1.041748	0.230713	-0.190674	-6.068825	-5.239319	135.305126
14567		-26.589641	6.733289	-10.073787	-0.761586	-2.387083	-1.166090	-1.042725	0.228516	-0.187012	-6.448874	-6.671487	134.785415
14568		-24.869921	7.449996	-12.960545	-0.933971	-1.287753	-0.843013	-1.048340	0.218506	-0.189941	-6.934500	-7.463391	134.386764
14569		-23.815526	6.871093	-13.491317	-0.903575	-0.174954	-0.433616	-1.044922	0.226074	-0.190918	-7.418633	-7.593691	134.148846
14570		-18.651100	-7.376141	-33.961157	0.283439	2.484683	-0.934499	-1.028076	0.215332	-0.194580	-7.168675	-6.250724	133.429985
14571		-16.325242	-3.950189	-14.466721	2.823905	3.957163	-0.726133	-1.015137	0.205322	-0.202637	-5.488141	-4.042940	132.762040
14572		-0.079524	5.571268	11.534303	3.047318	4.068242	-0.475438	-0.996826	0.196533	-0.228516	-3.718408	-1.741464	132.301136
14573		2.410875	7.314184	29.120026	0.673387	4.393168	-1.559384	-0.977051	0.189697	-0.229980	-3.320732	0.716417	131.253000
14574		-6.840676	3.535290	14.698541	-0.950597	4.100460	-2.220191	-0.949951	0.187744	-0.248047	-3.910464	2.980932	129.832724
14575		-8.265662	5.162968	8.890244	-1.154766	3.751990	-2.023434	-0.939209	0.197510	-0.255127	-4.662236	5.038368	128.510912
14576		-7.540107	12.223088	14.106851	-0.904426	3.551045	-1.247472	-0.914307	0.204102	-0.261475	-5.273156	7.003830	127.615799
14577		-3.018483	17.081197	15.965927	-0.436117	3.183874	-0.193563	-0.897705	0.195801	-0.261719	-5.560163	8.809693	127.328583
14578		-3.693094	13.984170	14.843279	-0.590075	3.349715	0.518911	-0.882324	0.209717	-0.277344	-5.878067	10.749630	127.432828
14579		-5.428042	0.206601	12.623323	-1.193935	3.112846	0.520492	-0.857666	0.217773	-0.278076	-6.538818	12.555165	127.536663
14580		-9.979949	-16.059713	17.560182	-0.712814	3.423701	0.354234	-0.849854	0.220703	-0.291016	-6.951447	14.527811	127.505266
14581		-22.689936	-24.699436	30.625792	1.232686	2.415625	-0.010787	-0.831543	0.219482	-0.281006	-6.288311	15.902125	127.331597
14582		-10.639239	6.668586	19.430144	1.064327	-0.294119	0.462992	-0.839844	0.215820	-0.287109	-5.597505	15.763517	127.621955
14583		1.943868	5.498453	8.141427	0.282120	0.279417	0.018420	-0.839111	0.212646	-0.287109	-5.435379	15.924131	127.614916
14584		-7.027066	-6.238344	13.245786	0.292119	0.410373	0.080484	-0.836914	0.211426	-0.284424	-5.259252	16.164147	127.638023
14585		-3.320196	2.276432	12.395190	0.262791	0.124440	0.216254	-0.827148	0.218262	-0.285156	-5.072828	16.246572	127.757882
14586		-4.627400	0.830279	12.636202	-0.153909	0.220791	-0.005890	-0.820801	0.214111	-0.287109	-5.163521	16.374018	127.740744
14587		-3.427688	-1.550732	10.429546	-0.129277	0.080253	-0.025560	-0.821289	0.215820	-0.290527	-5.241259	16.418740	127.719230
14588		-2.971610	-0.612690	9.978161	-0.086560	0.070253	-0.012216	-0.827148	0.215332	-0.285156	-5.292170	16.459984	127.706250
14589		-3.019456	-1.269017	9.731790	-0.053016	0.038280	-0.007257	-0.825195	0.214844	-0.285645	-5.322522	16.481693	127.697851
14590		-2.658496	-0.925345	9.413575	-0.004550	0.048836	0.033123	-0.825928	0.214111	-0.284424	-5.318475	16.513131	127.712990
14591		-2.905519	-1.073617	9.609090	0.019102	0.049308	0.050742	-0.825195	0.216064	-0.289063	-5.297870	16.544206	127.738493
14592		-2.759909	-0.844761	9.474524	0.029258	0.056715	0.070220	-0.813477	0.216553	-0.289063	-5.268267	16.582091	127.775303
14593		-2.838057	-0.911228	9.527980	0.003877	0.059366	0.076038	-0.825195	0.217773	-0.287109	-5.252198	16.620213	127.815351
14594		-2.602712	-0.875446	9.214397	0.008854	0.096335	0.082585	-0.823242	0.216064	-0.286377	-5.232728	16.681332	127.857402
14595		-2.833186	-0.808972	9.471652	0.001520	0.133347	0.086416	-0.821045	0.217773	-0.283447	-5.217295	16.762183	127.899653
14596		-2.974206	-0.689711	9.721151	-0.005957	0.138066	0.077853	-0.824219	0.209473	-0.285645	-5.207652	16.846847	127.936681
14597		-2.946036	-0.827143	9.639661	-0.023708	0.135639	0.066758	-0.820557	0.219238	-0.282715	-5.209981	16.927973	127.967145
14598		-3.037105	-0.723831	9.653862	-0.030339	0.120972	0.055612	-0.825684	0.210449	-0.288818	-5.217787	17.001736	127.991868
14599		-2.896437	-0.914500	9.424079	-0.024268	0.112968	0.051422	-0.819092	0.213135	-0.289307	-5.222678	17.069133	128.014423
14600		-2.917171	-0.842003	9.424661	-0.007544	0.124596	0.047795	-0.823730	0.219238	-0.289795	-5.218787	17.144571	128.034293
14601		-3.033992	-0.922131	9.471612	0.012412	0.116341	0.046027	-0.824951	0.218750	-0.285645	-5.203606	17.213608	128.053471
14602		-3.036391	-0.834682	9.445217	0.023023	0.100521	0.037995	-0.825439	0.215576	-0.283203	-5.183489	17.274804	128.068844
14603		-3.019849	-0.852429	9.449439	0.042597	0.091303	0.025833	-0.817627	0.215088	-0.285645	-5.154141	17.328498	128.077373
14604		-2.989885	-0.801370	9.447919	0.056043	0.084775	0.014147	-0.816650	0.218750	-0.289795	-5.119055	17.379485	128.079405
14605		-2.915180	-0.836795	9.349582	0.075711	0.083437	0.003350	-0.815430	0.211182	-0.282959	-5.074594	17.427535	128.074983
14606		-2.854000	-0.899357	9.295971	0.096488	0.096970	0.001469	-0.814941	0.207275	-0.290771	-5.018773	17.484848	128.068868
14607		-2.875021	-0.867096	9.318116	0.122670	0.115544	0.005624	-0.816895	0.221191	-0.289063	-4.947480	17.551346	128.064228
14608		-2.897139	-0.872308	9.301585	0.121838	0.131287	0.021951	-0.809570	0.219971	-0.283691	-4.873941	17.629269	128.068745
14609		-2.889319	-0.826277	9.326642	0.117449	0.145952	0.038488	-0.819092	0.218262	-0.284668	-4.800088	17.714726	128.082429
14610		-3.027194	-0.750060	9.380393	0.115636	0.151538	0.051078	-0.810791	0.210205	-0.298584	-4.725013	17.805585	128.103606
14611		-3.173009	-0.796862	9.419445	0.114828	0.142911	0.056365	-0.812500	0.218506	-0.290283	-4.649213	17.890109	128.128413
14612		-3.147391	-0.727020	9.530796	0.125084	0.125606	0.047992	-0.816895	0.208252	-0.290283	-4.568764	17.965976	128.149264
14613		-3.464323	-0.692997	9.688295	0.114860	0.093658	0.044332	-0.809326	0.209473	-0.284180	-4.494314	18.021759	128.169450
14614		-3.191483	-0.770129	9.502511	0.108550	0.026216	0.034870	-0.817139	0.214600	-0.284668	-4.424227	18.040240	128.187294
14615		-3.326334	-0.739183	9.621191	0.100484	-0.002870	0.040331	-0.808838	0.208008	-0.294678	-4.357317	18.040655	128.209679
14616		-3.068438	-0.813154	9.447908	0.095693	-0.018697	0.040196	-0.809814	0.211914	-0.291992	-4.292960	18.033686	128.232805
14617		-3.107617	-0.770289	9.524123	0.078536	-0.010403	0.058072	-0.819580	0.211670	-0.290283	-4.235223	18.030506	128.266188
14618		-3.148888	-0.649786	9.675493	0.058901	-0.006374	0.066353	-0.813965	0.201660	-0.295166	-4.187264	18.031641	128.304466
14619		-3.089551	-0.744338	9.498045	0.023287	-0.005286	0.072911	-0.814697	0.208496	-0.287354	-4.158494	18.031953	128.346537
14620		-3.047062	-0.711431	9.516190	0.010138	-0.002530	0.081263	-0.809570	0.207031	-0.300293	-4.135747	18.035867	128.393609
14621		-3.167149	-0.648314	9.703535	-0.015745	0.001281	0.102284	-0.815674	0.210449	-0.289307	-4.123957	18.041115	128.453049
14622		-3.106114	-0.687281	9.618334	-0.057027	-0.001502	0.099941	-0.812256	0.210449	-0.283936	-4.136215	18.046377	128.511306
14623		-3.020985	-0.723404	9.464018	-0.077666	0.016802	0.115488	-0.818115	0.209717	-0.284668	-4.157637	18.061059	128.578011
14624		-3.019698	-0.744216	9.480278	-0.089321	0.018972	0.133460	-0.811279	0.211914	-0.292236	-4.182397	18.079456	128.655525
14625		-3.055102	-0.721761	9.512834	-0.113158	0.014989	0.156232	-0.808838	0.210693	-0.283203	-4.216490	18.094869	128.746799
14626		-3.076584	-0.672193	9.500637	-0.123043	0.018952	0.172929	-0.810791	0.215088	-0.292725	-4.253153	18.115008	128.848036
14627		-2.738222	-0.524573	9.436944	-0.138086	-0.002349	0.179177	-0.804199	0.216797	-0.291504	-4.296950	18.121609	128.953879
14628		-3.149233	-0.609925	9.418824	-0.156259	-0.067298	0.169210	-0.820313	0.222900	-0.291992	-4.352109	18.092447	129.056775
14629		-3.203280	-0.579020	9.506023	-0.112595	-0.105672	0.145347	-0.822998	0.215332	-0.294189	-4.386240	18.038709	129.146989
14630		-3.311475	-0.621531	9.393396	-0.035986	-0.137790	0.109758	-0.804688	0.214600	-0.287354	-4.382689	17.966787	129.217398
14631		-3.030565	-0.628352	9.502745	0.045355	-0.170504	0.073066	-0.804932	0.211914	-0.287354	-4.339005	17.872849	129.267099
14632		-3.161400	-0.653345	9.574328	0.112166	-0.101842	0.047558	-0.803711	0.211426	-0.288086	-4.262730	17.818710	129.298380
14633		-2.834711	-0.723086	9.771951	0.136837	-0.073887	0.040584	-0.810791	0.219238	-0.292480	-4.174083	17.778494	129.324031
14634		-2.545652	-0.607379	9.807190	0.131837	0.120004	0.016497	-0.809082	0.219482	-0.283691	-4.095251	17.849757	129.326865
14635		-2.493622	-0.819024	9.672174	0.117119	0.360590	-0.001531	-0.816406	0.215820	-0.293457	-4.031378	18.056076	129.308581
14636		-2.182298	-1.075586	9.500911	0.108133	0.503563	0.073453	-0.805420	0.214600	-0.294922	-3.960385	18.348777	129.329743
14637		-2.083549	-1.437580	9.612911	0.066473	0.550421	0.324153	-0.803711	0.205566	-0.299072	-3.865685	18.676387	129.500469
14638		-1.684232	-1.716087	9.772916	0.145532	0.693196	0.522893	-0.802979	0.213867	-0.288330	-3.687221	19.094285	129.786877
14639		-1.807311	-1.214916	10.150948	0.207986	0.965335	0.694052	-0.802979	0.207764	-0.300049	-3.438765	19.671342	130.169188
14640		-1.347226	-1.391417	10.402845	0.394273	1.622950	0.745498	-0.794434	0.212158	-0.303467	-3.074124	20.625692	130.565224
14641		0.416939	-1.232828	11.559290	0.603333	2.476134	0.888777	-0.775391	0.208008	-0.302734	-2.555183	22.068052	131.034484
14642		4.249432	-1.386544	14.720204	0.996643	4.113504	1.143893	-0.750488	0.205566	-0.307129	-1.739015	24.449204	131.649175
14643		5.605767	-1.434695	20.225097	1.173683	7.163815	1.435060	-0.720703	0.208496	-0.316650	-0.698112	28.570770	132.468000
14644		4.139073	-2.019059	18.097065	0.853951	10.517092	1.582827	-0.667969	0.197754	-0.335205	0.339136	34.599766	133.507632
14645		1.134523	1.040291	11.062885	0.842099	12.828048	1.631191	-0.606689	0.195557	-0.322510	1.662807	41.933093	134.858087
14646		1.583466	0.820556	9.413678	0.784447	13.942545	1.647471	-0.542969	0.186768	-0.304688	3.456602	49.871452	136.721348
14647		-1.136128	0.139979	5.393353	0.630634	14.688608	1.928327	-0.476563	0.175293	-0.295654	6.328040	58.165762	139.811121
14648		5.166162	6.394925	0.816410	0.129121	15.414840	2.348800	-0.406006	0.171631	-0.254395	11.592335	66.689460	145.646505
14649		-6.572727	13.236094	7.687284	-0.848522	17.305237	3.459405	-0.341797	0.155762	-0.215332	25.996917	75.518182	161.327859
14650		-64.634857	10.144926	52.417413	-1.544848	11.423328	3.537757	-0.296387	0.155273	-0.185059	50.868779	79.487174	-172.328226
14651		-16.470216	6.193247	52.552237	-3.053907	2.775217	3.387191	-0.282471	0.140625	-0.175781	61.632880	78.754231	-159.589626
14652		-10.903553	-1.318641	43.429791	-3.825836	0.359050	3.694500	-0.279053	0.120117	-0.185547	64.704411	76.954298	-154.207629
14653		-8.278807	-6.319824	28.951830	-3.621919	-2.055704	3.577935	-0.256592	0.103760	-0.196045	62.095937	74.595844	-154.759825
14654		-4.909522	-8.698400	16.198877	-3.046371	-3.282179	3.222988	-0.265137	0.092773	-0.234131	57.955605	72.053005	-157.258956
14655		-3.376975	-9.302244	9.454469	-2.388202	-3.831350	2.739392	-0.267578	0.076416	-0.248779	53.892453	69.524075	-160.114212
14656		-2.642975	-9.408706	5.783223	-1.879491	-4.035355	2.192879	-0.272461	0.068359	-0.291504	50.144853	67.106030	-162.986092
14657		-1.861814	-9.558306	3.333083	-1.528366	-4.011876	1.588734	-0.277588	0.065430	-0.324219	46.760498	64.901322	-165.733979
14658		-1.378073	-9.904469	2.092865	-1.209496	-3.834292	0.972656	-0.290039	0.060303	-0.358398	43.655556	62.952645	-168.416028
14659		-1.239861	-9.944154	1.836224	-0.878604	-3.655698	0.370732	-0.308105	0.054443	-0.384766	40.790038	61.259940	-171.090918
14660		-1.010470	-9.246459	2.493863	-0.571525	-3.535384	-0.159239	-0.322021	0.046143	-0.416748	38.038613	59.746887	-173.871767
14661		-1.359975	-8.229591	4.121994	-0.445993	-3.455865	-0.660760	-0.333008	0.057861	-0.450928	35.303022	58.385871	-176.765480
14662		-1.993841	-6.996188	6.262506	-0.536436	-3.433777	-1.182011	-0.346191	0.065918	-0.472656	32.343390	57.121211	-179.896381
14663		-3.094327	-5.706504	8.542091	-0.768789	-3.513943	-1.677320	-0.374512	0.083008	-0.501465	29.100196	55.882227	176.740335
14664		-4.173343	-4.578974	10.006228	-1.000621	-3.728614	-2.113940	-0.401123	0.097412	-0.520508	25.543619	54.530901	173.113732
14665		-5.003976	-3.477513	10.824660	-1.153983	-4.000415	-2.457484	-0.434814	0.115723	-0.552979	21.865110	52.998686	169.370892
14666		-5.571159	-2.295048	11.094788	-1.201035	-4.277442	-2.711452	-0.476318	0.146973	-0.564941	18.201528	51.216542	165.607676
14667		-6.160684	-0.927498	11.353740	-1.176552	-4.526190	-2.863650	-0.515625	0.163818	-0.572510	14.754874	49.195219	161.997370
14668		-6.577897	0.650150	11.544725	-1.131230	-4.746997	-2.904945	-0.565674	0.181152	-0.577148	11.595796	46.912237	158.629148
14669		-7.151121	2.067356	12.099347	-1.119549	-4.936806	-2.856178	-0.601318	0.193848	-0.577637	8.793218	44.417982	155.605667
14670		-7.996875	2.956457	12.751447	-1.159800	-5.124954	-2.736840	-0.649170	0.214111	-0.564453	6.301821	41.697268	152.937666
14671		-8.911752	3.300819	12.935537	-1.207813	-5.299989	-2.593638	-0.706299	0.223877	-0.561768	4.123473	38.808304	150.634932
14672		-9.616320	2.986244	12.662834	-1.234290	-5.447119	-2.448496	-0.736084	0.237549	-0.551025	2.208253	35.752836	148.648343
14673		-9.974789	2.537592	12.423548	-1.193016	-5.509661	-2.337867	-0.770508	0.231934	-0.535889	0.563730	32.629572	146.935098
14674		-10.460560	1.922877	12.856108	-1.094135	-5.530045	-2.229721	-0.807373	0.238525	-0.527832	-0.835101	29.440911	145.445634
14675		-11.659914	1.131029	13.829484	-0.957889	-5.534412	-2.152335	-0.856934	0.230957	-0.505127	-1.992644	26.240698	144.137975
14676		-12.912075	0.228403	14.910850	-0.810341	-5.547728	-2.140558	-0.887695	0.226807	-0.494629	-2.961227	22.994880	142.935630
14677		-14.467913	-0.636133	16.210712	-0.678839	-5.550615	-2.181391	-0.918457	0.205322	-0.477539	-3.763983	19.746981	141.794261
14678		-16.819122	-1.573072	17.949138	-0.564487	-5.596361	-2.309315	-0.949219	0.194580	-0.463623	-4.447946	16.437289	140.642975
14679		-20.069576	-1.895189	18.982487	-0.381198	-5.737043	-2.441308	-0.988525	0.179932	-0.450195	-4.960495	13.046711	139.478447
14680		-23.731501	-1.394192	18.453098	-0.135500	-5.875630	-2.504658	-1.016113	0.167480	-0.432129	-5.267013	9.550254	138.323419
14681		-27.045605	0.311934	16.317983	0.107205	-5.905593	-2.407107	-1.056152	0.150146	-0.405273	-5.348743	6.053667	137.251533
14682		-28.714352	2.356269	11.996423	0.141315	-5.785908	-2.172071	-1.090820	0.138672	-0.374512	-5.340572	2.624228	136.315946
14683		-28.344516	3.930371	5.732348	-0.122701	-5.432870	-1.917078	-1.114014	0.119629	-0.353516	-5.422845	-0.577685	135.512424
14684		-26.644890	5.052343	-0.269709	-0.608577	-4.808727	-1.672904	-1.144043	0.116699	-0.329590	-5.748864	-3.422492	134.824202
14685		-24.530818	5.071205	-5.864455	-1.061969	-3.918590	-1.390637	-1.155029	0.103760	-0.319580	-6.310265	-5.738739	134.264033
14686		-23.404311	5.220278	-10.916011	-1.413735	-2.860187	-1.114884	-1.163086	0.105225	-0.297363	-7.069410	-7.446999	133.815807
14687		-22.968118	5.791553	-13.023857	-1.559902	-1.690529	-0.724536	-1.177734	0.095215	-0.280518	-7.920669	-8.461295	133.525893
14688		-24.761437	4.845943	-13.149086	-1.640998	-0.552362	-0.344235	-1.172363	0.111572	-0.290039	-8.837991	-8.806704	133.373536
14689		-20.516790	-4.533693	-32.562280	-0.566692	2.217016	-0.724097	-1.169434	0.103516	-0.300049	-9.072341	-7.616378	132.757787
14690		-28.297768	-9.942142	-26.202725	1.747292	3.869638	-0.732795	-1.150391	0.102783	-0.320557	-7.985822	-5.487156	132.007366
14691		1.367251	4.246602	-1.311910	3.201506	4.044825	-0.473694	-1.130127	0.075684	-0.340820	-6.106537	-3.220330	131.450281
14692		-0.191741	6.222686	25.801777	1.738183	5.030063	-1.091972	-1.105957	0.067871	-0.362061	-5.082744	-0.412570	130.544659
14693		-7.106856	4.464747	21.717463	-0.543183	4.660835	-1.846169	-1.081055	0.066406	-0.383057	-5.411337	2.150321	129.245175
14694		-8.716358	4.018514	8.268681	-0.940904	4.073052	-1.684526	-1.060547	0.066895	-0.403320	-6.018737	4.377219	128.048663
14695		-4.955880	9.553876	7.560162	-0.681279	4.005869	-0.964744	-1.039063	0.063721	-0.421875	-6.483729	6.598822	127.243744
14696		-4.366620	13.737128	13.928460	-0.422465	4.329546	-0.162309	-1.016846	0.064941	-0.437012	-6.777270	9.053760	126.859419
14697		-9.191337	14.275170	22.666049	-0.493383	4.442905	0.523871	-0.993164	0.072266	-0.462158	-7.059526	11.617166	126.848692
14698		-8.104153	2.170709	20.119818	-1.224298	4.007375	0.361434	-0.966553	0.078125	-0.471436	-7.779094	13.922855	126.753510
14699		-20.098314	-24.179958	29.615456	0.037400	3.615080	-0.133851	-0.941895	0.075684	-0.481689	-7.851226	15.964645	126.381422
14700		-25.627091	-9.052347	31.933812	1.252028	0.621672	0.198674	-0.942139	0.074463	-0.483643	-7.113162	16.335753	126.448685
14701		4.398201	6.428847	3.575099	0.976132	-0.322255	0.243301	-0.939453	0.066162	-0.488037	-6.505293	16.169141	126.613696
14702		-3.417310	-0.027874	12.806564	0.820674	0.934139	-0.037389	-0.928955	0.064453	-0.484619	-6.057040	16.702704	126.528561
14703		-5.924775	-2.636692	13.076097	0.687243	0.479943	0.063492	-0.931885	0.055420	-0.483887	-5.658988	16.980194	126.535074
14704		-3.066652	1.678207	11.762893	0.496977	0.493463	0.055822	-0.928955	0.055908	-0.490234	-5.371232	17.268730	126.538066
14705		-4.353356	-0.967054	11.004974	0.340756	0.487286	-0.043655	-0.927246	0.051514	-0.484375	-5.190045	17.544683	126.483059
14706		-3.901848	-0.293923	10.825290	0.275862	0.312158	-0.029640	-0.919678	0.051758	-0.490723	-5.040676	17.725396	126.446738
14707		-3.886953	-0.782384	10.484737	0.224929	0.200099	-0.059630	-0.916016	0.049316	-0.490967	-4.924111	17.836900	126.398558
14708		-3.395762	-0.710743	9.887225	0.202013	0.091444	-0.049684	-0.920898	0.046875	-0.487305	-4.817138	17.890855	126.362257
14709		-3.250064	-0.656882	9.606011	0.230622	0.077930	-0.063116	-0.916992	0.051025	-0.497803	-4.696052	17.932616	126.318512
14710		-3.145796	-0.890018	9.543691	0.215914	0.048311	-0.039802	-0.920166	0.050781	-0.492188	-4.578614	17.962569	126.290445
14711		-3.126493	-0.976936	9.403826	0.210406	0.046988	-0.002474	-0.916504	0.043213	-0.490234	-4.457414	17.989567	126.284750
14712		-3.125780	-0.860860	9.493164	0.192363	0.056864	0.037856	-0.921875	0.051025	-0.494385	-4.339193	18.027944	126.303033
14713		-3.070854	-0.839721	9.445873	0.168639	0.068418	0.063040	-0.921143	0.047363	-0.492676	-4.229997	18.070012	126.335856
14714		-3.224733	-0.705958	9.488043	0.140436	0.077143	0.084571	-0.918945	0.036621	-0.498779	-4.133026	18.121871	126.381472
14715		-3.435316	-0.580107	9.708112	0.108703	0.039201	0.076002	-0.918213	0.047852	-0.486084	-4.055255	18.147669	126.423511
14716		-3.252171	-0.601586	9.530064	0.087524	0.015061	0.065709	-0.916260	0.047363	-0.497314	-3.991210	18.163199	126.460567
14717		-3.221979	-0.579257	9.534196	0.067280	0.010705	0.069256	-0.920166	0.035400	-0.497803	-3.938023	18.172351	126.499805
14718		-3.216986	-0.626846	9.514660	0.067389	0.007905	0.063199	-0.913330	0.042236	-0.484619	-3.885854	18.183645	126.535678
14719		-3.177937	-0.701888	9.462101	0.059987	0.003935	0.073032	-0.917725	0.035889	-0.496094	-3.836032	18.189005	126.577484
14720		-3.224534	-0.644715	9.518991	0.048512	0.003334	0.084804	-0.916016	0.047119	-0.495117	-3.790544	18.198466	126.626558
14721		-3.257274	-0.560549	9.530823	0.036138	-0.004361	0.089100	-0.920654	0.027344	-0.485596	-3.751252	18.199627	126.678375
14722		-3.270128	-0.492134	9.592134	0.036608	-0.023764	0.073520	-0.921143	0.036621	-0.497070	-3.714356	18.193128	126.721734
14723		-3.244197	-0.505398	9.470005	0.024819	-0.045745	0.057413	-0.917480	0.045410	-0.490234	-3.687012	18.169394	126.756089
14724		-3.120553	-0.598581	9.421281	0.020847	-0.047420	0.045786	-0.919189	0.047852	-0.487549	-3.664072	18.148331	126.783659
14725		-3.104918	-0.617927	9.399297	0.014010	-0.039732	0.046450	-0.918213	0.042725	-0.488770	-3.645081	18.127610	126.811158
14726		-3.163279	-0.616802	9.447324	0.011031	-0.029509	0.047387	-0.915283	0.037598	-0.487549	-3.627699	18.116835	126.838983
14727		-3.150412	-0.597107	9.462120	-0.000081	-0.036535	0.058399	-0.919189	0.043945	-0.491455	-3.614604	18.098359	126.873531
