// General information: 
//  MT Manager version: 2022.2.0 
//  XDA version: 2022.2.0 build 7381 rev 124627 built on 2023-07-19
// Device information: 
//  DeviceId: 00B4C223
//  ProductCode: MTW2-3A7G6
//  Firmware Version: 4.6.0
//  Hardware Version: 2.0.0
// Device settings: 
//  Filter Profile: human(46.1)
//  Option Flags: Orientation Smoother Disabled, Position/Velocity Smoother Disabled, Continuous Zero Rotation Update Disabled, AHS Disabled, ICC Disabled
// Coordinate system: ENU
PacketCounter	SampleTimeFine	Acc_X	Acc_Y	Acc_Z	Gyr_X	Gyr_Y	Gyr_Z	Mag_X	Mag_Y	Mag_Z	Roll	Pitch	Yaw
27972		-2.925395	-0.042658	9.520893	-0.005696	0.001621	0.001191	-1.093262	0.292725	-0.527344	0.076497	17.382517	117.991991
27973		-2.939913	-0.012767	9.512749	-0.004879	0.002877	0.000623	-1.083252	0.289063	-0.535156	0.075556	17.384651	117.990138
27974		-2.940614	-0.035570	9.502914	-0.004062	0.004133	0.000054	-1.083740	0.281738	-0.529053	0.074198	17.387812	117.988020
27975		-2.945727	-0.049480	9.534208	-0.003258	0.001606	-0.000061	-1.089844	0.278320	-0.536865	0.074062	17.389217	117.985755
27976		-2.975281	-0.033797	9.498526	-0.002441	0.002862	-0.000630	-1.088867	0.289551	-0.526611	0.073513	17.391648	117.982461
27977		-2.955642	-0.005805	9.494612	0.003270	0.002178	-0.000391	-1.087402	0.280029	-0.528320	0.077058	17.393381	117.979999
27978		-2.941519	-0.036277	9.502631	-0.005696	0.001622	0.001191	-1.096680	0.286865	-0.526367	0.074967	17.395083	117.978077
27979		-2.956872	-0.051007	9.474989	-0.001608	0.005055	0.000232	-1.082275	0.285889	-0.525391	0.075830	17.398465	117.975990
27980		-2.961420	-0.020064	9.525699	-0.004061	0.004133	0.000054	-1.078369	0.285889	-0.521973	0.074471	17.401599	117.973432
27981		-2.928363	-0.067526	9.510347	-0.001623	0.004118	-0.001198	-1.085205	0.283691	-0.526367	0.075068	17.404444	117.970486
27982		-2.977281	-0.034921	9.497895	-0.001608	0.005055	0.000232	-1.091309	0.285156	-0.527344	0.075149	17.408105	117.968087
27983		-2.962807	-0.020725	9.525267	-0.002427	0.006645	-0.001082	-1.088379	0.280029	-0.523926	0.075307	17.412398	117.965213
27984		-2.958616	-0.007212	9.493685	0.001663	0.007233	-0.000158	-1.089600	0.282471	-0.522705	0.077194	17.417301	117.962250
27985		-2.964308	-0.020743	9.524800	0.000025	0.010414	-0.002785	-1.084473	0.293701	-0.525635	0.078450	17.423755	117.958356
27986		-2.945841	-0.037485	9.501287	0.003254	0.004087	-0.003701	-1.094971	0.288086	-0.516602	0.080614	17.426853	117.953728
27987		-2.985489	-0.048437	9.528221	0.003283	0.008808	-0.002723	-1.093262	0.285889	-0.527344	0.083747	17.432387	117.949871
27988		-2.947555	-0.059277	9.491135	0.005738	0.006884	-0.000663	-1.089600	0.279297	-0.524170	0.087878	17.437072	117.946738
27989		-3.001551	-0.039647	9.509967	0.003300	0.006899	0.000589	-1.093262	0.282227	-0.526855	0.091616	17.441510	117.944868
27990		-2.967491	-0.019320	9.523811	0.003286	0.003116	0.001041	-1.092773	0.290039	-0.522217	0.094653	17.444044	117.942425
27991		-2.963178	-0.005382	9.492263	0.004920	0.008474	-0.001976	-1.095703	0.287354	-0.528809	0.098858	17.449387	117.939017
27992		-2.968823	-0.018839	9.523397	-0.001608	0.007902	-0.001650	-1.084473	0.285889	-0.526367	0.098609	17.454658	117.935540
27993		-2.974292	-0.032388	9.554587	0.002468	0.004706	-0.000273	-1.094238	0.285645	-0.532227	0.101714	17.457840	117.933151
27994		-2.974728	-0.032360	9.554451	-0.000819	0.004437	-0.003195	-1.095459	0.284180	-0.527832	0.101646	17.461137	117.928763
27995		-2.975090	-0.032373	9.554339	0.000847	0.003131	0.002292	-1.090088	0.284668	-0.520996	0.104285	17.463415	117.927914
27996		-2.955776	-0.026783	9.540721	-0.001621	0.001272	0.000683	-1.085938	0.291992	-0.521484	0.104450	17.464874	117.925488
27997		-2.975656	-0.054949	9.544540	-0.003257	-0.001241	0.001819	-1.092773	0.285889	-0.524414	0.104650	17.464648	117.924349
27998		-2.989910	-0.024607	9.536462	0.000848	0.000285	0.004174	-1.089600	0.293213	-0.531982	0.106860	17.465532	117.924619
27999		-2.965838	-0.027966	9.481811	-0.004892	-0.000906	0.001072	-1.090088	0.289551	-0.524170	0.105988	17.465498	117.923032
28000		-2.969944	0.002826	9.532669	-0.005680	-0.000287	0.004500	-1.088135	0.278809	-0.532715	0.104524	17.466064	117.923846
28001		-2.951253	-0.036695	9.499611	-0.002439	0.002862	-0.000630	-1.083008	0.287109	-0.529053	0.104753	17.468191	117.921241
28002		-2.965909	-0.006532	9.491409	-0.002409	0.004737	0.002230	-1.075928	0.283691	-0.533936	0.104766	17.471650	117.919923
28003		-2.986168	-0.034795	9.495105	-0.004075	0.003197	-0.001377	-1.087646	0.284668	-0.526123	0.103922	17.473969	117.916870
28004		-2.981236	0.000921	9.473373	-0.001591	0.003147	0.003544	-1.088135	0.287354	-0.535645	0.104643	17.476513	117.916627
28005		-2.961978	0.006348	9.459741	-0.003242	0.002544	0.001367	-1.093018	0.283447	-0.527832	0.104771	17.478455	117.915221
28006		-2.953280	-0.060086	9.489350	0.000832	0.005040	-0.001018	-1.086670	0.288086	-0.529053	0.106060	17.482078	117.912068
28007		-2.967856	-0.029668	9.481174	0.000015	0.000937	0.001430	-1.081543	0.287842	-0.527344	0.108065	17.483100	117.910698
28008		-2.967888	-0.007184	9.490790	0.001665	0.007234	-0.000155	-1.089844	0.281250	-0.531006	0.109985	17.487970	117.908536
28009		-2.978579	-0.056612	9.543619	0.000030	0.004722	0.000979	-1.086426	0.286133	-0.527344	0.111918	17.491160	117.906899
28010		-2.954536	-0.037178	9.498588	0.005725	0.003100	-0.000208	-1.085205	0.283691	-0.531494	0.116154	17.493656	117.903980
28011		-2.950243	-0.023118	9.467033	0.004937	0.009412	-0.000543	-1.099121	0.284912	-0.535156	0.120626	17.499537	117.901435
28012		-2.989757	-0.011484	9.503602	0.004908	0.007537	-0.003403	-1.086670	0.287842	-0.531494	0.123822	17.504581	117.896674
28013		-2.980403	-0.010262	9.562305	0.004120	0.008156	0.000025	-1.087402	0.280762	-0.525879	0.127927	17.509741	117.894470
28014		-3.001313	-0.060276	9.556170	0.003287	0.005963	-0.000838	-1.091064	0.283203	-0.531738	0.130657	17.513868	117.891350
28015		-2.996429	-0.024339	9.534416	-0.003257	0.001606	-0.000064	-1.089844	0.286621	-0.520508	0.130517	17.515275	117.889083
28016		-2.982061	-0.032380	9.552165	0.000862	0.004069	0.003723	-1.087158	0.282227	-0.523438	0.132675	17.518294	117.888566
28017		-3.006590	-0.002783	9.485078	-0.002411	-0.000956	0.005992	-1.088623	0.291504	-0.526123	0.134113	17.518226	117.889934
28018		-2.962660	-0.026645	9.538586	0.001650	0.000603	0.002177	-1.087402	0.283691	-0.527588	0.136445	17.519259	117.888851
28019		-2.996952	-0.024085	9.534252	0.000030	0.001875	0.002860	-1.088379	0.287354	-0.527588	0.138716	17.520816	117.888342
28020		-2.997012	-0.024057	9.534234	-0.001607	-0.000637	0.003994	-1.087402	0.290527	-0.519287	0.139516	17.521143	117.888233
28021		-2.972455	-0.004886	9.489362	0.000014	-0.001909	0.003311	-1.093750	0.285889	-0.535645	0.141858	17.520532	117.887989
28022		-2.977311	-0.018570	9.520747	-0.004863	0.000970	0.003931	-1.085938	0.289551	-0.526367	0.140782	17.521771	117.888099
28023		-2.977372	-0.018738	9.520728	-0.001592	0.000301	0.005425	-1.095215	0.281494	-0.523682	0.142587	17.522423	117.889129
28024		-2.957836	-0.013264	9.507190	-0.003242	-0.000302	0.003248	-1.081543	0.291260	-0.522949	0.142315	17.522923	117.888320
28025		-2.957927	-0.013416	9.507162	-0.001606	0.002210	0.002114	-1.091309	0.288330	-0.525635	0.143514	17.524673	117.887363
28026		-2.972727	-0.005441	9.489277	0.000818	0.001256	-0.000567	-1.087891	0.282471	-0.524170	0.144883	17.526069	117.885148
28027		-2.958614	-0.035831	9.497324	-0.001606	0.002210	0.002114	-1.086182	0.282471	-0.532715	0.146083	17.527820	117.884191
28028		-2.958466	-0.013437	9.506994	0.000833	0.002194	0.000863	-1.096924	0.281006	-0.527588	0.147729	17.529766	117.881710
28029		-2.973308	-0.005343	9.489095	0.000833	0.002194	0.000863	-1.097168	0.286621	-0.526611	0.150100	17.531510	117.880002
28030		-2.982719	0.012461	9.571206	0.001667	0.004388	0.001727	-1.085449	0.281738	-0.536621	0.152374	17.534683	117.877708
28031		-2.988506	0.002930	9.471082	0.000015	0.000938	0.001430	-1.079590	0.285645	-0.524902	0.154378	17.535706	117.876339
28032		-2.939881	-0.007481	9.493164	0.000001	0.002847	-0.001881	-1.088623	0.277100	-0.535889	0.155067	17.538041	117.872936
28033		-2.974442	-0.005060	9.488740	0.001639	0.005359	-0.003015	-1.091797	0.275391	-0.526123	0.157198	17.541604	117.868902
28034		-2.999387	-0.024139	9.533487	0.000835	0.005041	-0.001017	-1.093506	0.276123	-0.532715	0.158520	17.545179	117.864220
28035		-2.980265	-0.018449	9.519823	0.002456	0.003768	-0.001700	-1.082520	0.290527	-0.524170	0.161356	17.547829	117.860974
28036		-2.960788	0.009628	9.515895	0.000835	0.005041	-0.001017	-1.085693	0.287598	-0.524414	0.162674	17.551389	117.857737
28037		-2.981561	-0.040551	9.509796	0.003289	0.005962	-0.000837	-1.090332	0.284180	-0.526855	0.166146	17.555295	117.855014
28038		-2.961894	0.010094	9.515551	0.004093	0.006281	-0.002834	-1.089844	0.278564	-0.529541	0.168998	17.559550	117.851061
28039		-2.982284	-0.017712	9.519193	0.000821	0.004103	-0.002447	-1.090088	0.276367	-0.525391	0.170761	17.562394	117.847366
28040		-2.997479	-0.009631	9.501171	0.003277	0.007872	-0.004147	-1.079834	0.280518	-0.530273	0.172915	17.567568	117.841088
28041		-2.978454	0.018385	9.497103	0.000036	0.010417	-0.002781	-1.088379	0.284668	-0.536865	0.174170	17.574029	117.837205
28042		-2.984757	-0.017424	9.518418	0.004930	0.011323	-0.003849	-1.088379	0.281494	-0.523682	0.177346	17.581212	117.832807
28043		-2.961673	0.001931	9.473092	0.002511	0.017971	-0.004930	-1.088379	0.288818	-0.521484	0.179633	17.592006	117.827646
28044		-2.963717	-0.020366	9.462830	0.002512	0.017972	-0.004929	-1.088135	0.280273	-0.522217	0.181203	17.602935	117.822334
28045		-2.989427	0.005375	9.526576	0.003336	0.022076	-0.007375	-1.097656	0.291260	-0.519775	0.183519	17.616086	117.815712
28046		-2.991969	-0.016865	9.516155	0.004171	0.024271	-0.006509	-1.093018	0.283691	-0.529297	0.185749	17.630608	117.809155
28047		-3.027904	0.008116	9.520864	0.004947	0.019867	-0.009485	-1.084717	0.284912	-0.530762	0.188599	17.642498	117.801260
28048		-3.020656	-0.035818	9.559710	0.000085	0.023685	-0.007437	-1.086182	0.292480	-0.530518	0.188341	17.656733	117.794520
28049		-2.983284	-0.002186	9.541786	0.004986	0.019836	-0.003310	-1.082520	0.285645	-0.520996	0.192337	17.668593	117.790337
28050		-3.039094	-0.027653	9.540625	0.000065	0.017053	-0.005107	-1.083984	0.284912	-0.531494	0.192481	17.679006	117.786036
28051		-3.001627	-0.016518	9.513113	0.002521	0.017976	-0.004922	-1.089355	0.272949	-0.522705	0.194767	17.689804	117.780881
28052		-3.017930	-0.008554	9.494696	0.000081	0.017992	-0.003675	-1.079590	0.279541	-0.531250	0.195184	17.700755	117.775375
28053		-3.005032	-0.016537	9.512038	0.001716	0.017659	-0.002925	-1.084473	0.282471	-0.524902	0.197372	17.711367	117.771420
28054		-2.982435	0.002432	9.466576	-0.002346	0.023704	-0.006185	-1.093018	0.281250	-0.525879	0.195948	17.725604	117.765246
28055		-3.028345	-0.000301	9.533960	-0.002364	0.019919	-0.005735	-1.083252	0.284668	-0.528320	0.195283	17.737517	117.759604
28056		-3.010755	0.004837	9.519857	-0.002368	0.021830	-0.009043	-1.086426	0.279053	-0.531006	0.193313	17.750662	117.751597
28057		-3.013101	-0.018069	9.509482	-0.003982	0.021193	-0.005052	-1.087646	0.285400	-0.533447	0.191844	17.763303	117.746368
28058		-3.029613	-0.010575	9.490973	-0.003168	0.019602	-0.003737	-1.086670	0.280518	-0.532227	0.190397	17.775181	117.741680
28059		-3.036273	-0.002118	9.531437	-0.001537	0.021179	-0.006294	-1.088379	0.278564	-0.531494	0.190098	17.787816	117.735702
28060		-3.033362	-0.011289	9.489774	-0.002365	0.017074	-0.003852	-1.086914	0.275391	-0.533447	0.189087	17.798239	117.730402
28061		-3.005793	-0.027494	9.525079	-0.000742	0.015802	-0.004532	-1.084473	0.281006	-0.532227	0.189562	17.807791	117.725473
28062		-3.060823	-0.008603	9.543304	-0.002363	0.017075	-0.003850	-1.093994	0.278320	-0.538086	0.188555	17.818217	117.720130
28063		-3.008507	-0.005816	9.533862	-0.003218	0.013003	-0.007579	-1.084473	0.276611	-0.534668	0.187047	17.826170	117.713360
28064		-2.995055	0.011925	9.429645	-0.004816	0.016152	-0.004036	-1.090576	0.285889	-0.527100	0.184603	17.836071	117.707623
28065		-3.006511	0.006671	9.501551	-0.003172	0.018668	-0.005161	-1.088379	0.274170	-0.527100	0.183568	17.847265	117.702318
28066		-3.008514	-0.016293	9.491271	-0.005625	0.017744	-0.005348	-1.085693	0.288574	-0.524658	0.180400	17.858027	117.696010
28067		-3.029530	-0.000106	9.513900	-0.003181	0.017731	-0.006590	-1.091064	0.280518	-0.527344	0.179093	17.868687	117.689842
28068		-3.046177	-0.037480	9.476014	-0.004823	0.015215	-0.005464	-1.084229	0.280029	-0.534668	0.176357	17.877990	117.684443
28069		-3.047193	0.006724	9.494987	-0.003989	0.017412	-0.004595	-1.081787	0.275391	-0.525391	0.174953	17.888462	117.679474
28070		-3.053931	-0.007457	9.525792	-0.005621	0.017746	-0.005345	-1.076904	0.281006	-0.531738	0.171801	17.899249	117.673433
28071		-3.045568	-0.003283	9.452887	-0.004809	0.014243	-0.000724	-1.073486	0.286621	-0.525635	0.170640	17.907899	117.670788
28072		-3.052050	-0.017209	9.483772	-0.001543	0.015488	-0.002528	-1.081543	0.284180	-0.534668	0.170347	17.917391	117.668434
28073		-3.038552	-0.003295	9.511022	-0.006472	0.011763	-0.005768	-1.085693	0.285400	-0.532715	0.167296	17.924628	117.662747
28074		-3.054217	0.003983	9.492732	-0.005640	0.012047	-0.001592	-1.079346	0.287598	-0.529541	0.164829	17.932147	117.660344
28075		-3.045917	-0.018051	9.541627	-0.003196	0.012034	-0.002833	-1.080566	0.285889	-0.527588	0.164198	17.939534	117.656423
28076		-3.061517	-0.010417	9.523353	-0.002386	0.010442	-0.001520	-1.082764	0.279297	-0.530518	0.163601	17.946110	117.654410
28077		-3.037678	0.008446	9.478340	-0.004030	0.007925	-0.000396	-1.075439	0.277344	-0.531006	0.162941	17.951139	117.651950
28078		-3.063422	-0.033322	9.513075	0.000057	0.008516	0.000546	-1.083008	0.280029	-0.522461	0.164136	17.956621	117.649317
28079		-3.044154	-0.005407	9.509229	-0.001609	0.004123	-0.001194	-1.085938	0.290039	-0.530762	0.164713	17.959473	117.646369
28080		-3.059043	0.002066	9.491179	-0.008138	0.003546	-0.000895	-1.085449	0.285156	-0.533936	0.160929	17.962070	117.643912
28081		-3.059374	0.001748	9.491072	-0.000771	0.003432	0.007719	-1.085693	0.282959	-0.534668	0.163641	17.964511	117.646332
28082		-3.079543	-0.026294	9.494623	-0.002431	0.002865	-0.000633	-1.083984	0.279297	-0.533447	0.163194	17.966755	117.644056
28083		-3.045287	-0.006488	9.508866	-0.002444	0.000014	0.001241	-1.079590	0.284424	-0.524658	0.163742	17.967248	117.642568
28084		-3.040126	0.006875	9.477557	-0.003266	-0.001245	0.001803	-1.087402	0.285645	-0.528076	0.163262	17.967114	117.641152
28085		-3.040096	0.006761	9.477566	-0.000802	0.000617	0.003425	-1.084229	0.286621	-0.533203	0.165157	17.967950	117.640980
28086		-3.074669	-0.013271	9.463220	-0.001600	0.003148	0.003544	-1.087402	0.281982	-0.526611	0.165961	17.970325	117.641428
28087		-3.040349	0.006693	9.477485	-0.001634	-0.001579	0.002554	-1.075195	0.280518	-0.534424	0.167215	17.969904	117.640729
28088		-3.059885	0.000837	9.490907	-0.005699	-0.000293	0.004476	-1.082764	0.282959	-0.532471	0.165850	17.970316	117.640792
28089		-3.045706	-0.029669	9.499061	0.000833	0.002196	0.000871	-1.090576	0.274170	-0.528320	0.168207	17.972061	117.639085
28090		-3.060065	0.000539	9.490849	-0.005699	-0.000293	0.004476	-1.078369	0.284912	-0.531982	0.166840	17.972460	117.638405
28091		-3.030685	0.006723	9.536495	-0.001634	-0.001579	0.002554	-1.081787	0.286621	-0.529297	0.168095	17.972039	117.637705
28092		-3.079437	-0.005401	9.504324	-0.002446	-0.001899	0.004548	-1.085449	0.277100	-0.525391	0.168611	17.971527	117.638944
28093		-3.040021	0.005742	9.477591	-0.001634	-0.001579	0.002554	-1.077637	0.279053	-0.530029	0.169866	17.971106	117.638245
28094		-3.059572	-0.000007	9.491008	-0.002443	0.000014	0.001242	-1.086182	0.275879	-0.530029	0.169770	17.971680	117.635576
28095		-3.044724	0.014159	9.518717	-0.004078	-0.001565	0.003796	-1.080566	0.286377	-0.535156	0.169856	17.971265	117.635624
28096		-3.040009	-0.017165	9.467923	-0.002435	-0.000962	0.005980	-1.081299	0.289307	-0.532227	0.170655	17.971290	117.636674
28097		-3.059350	-0.000609	9.491080	-0.004075	0.000349	0.000490	-1.083496	0.280518	-0.526367	0.170129	17.971976	117.634734
28098		-3.045135	-0.031240	9.499239	-0.003244	0.000631	0.004667	-1.089111	0.286621	-0.532959	0.170216	17.972897	117.635710
28099		-3.093556	0.001308	9.486522	-0.003255	-0.000306	0.003235	-1.083008	0.277100	-0.533447	0.170670	17.973204	117.635423
28100		-3.064354	-0.014749	9.522435	-0.000825	-0.003172	0.003867	-1.086670	0.280518	-0.529053	0.172001	17.971959	117.635193
28101		-3.058977	-0.001288	9.491200	-0.004088	-0.002502	0.002364	-1.079590	0.285156	-0.539307	0.171814	17.971009	117.634377
28102		-3.019488	0.009620	9.464490	-0.004088	-0.002502	0.002365	-1.087646	0.281006	-0.536377	0.171002	17.970160	117.633644
28103		-3.053321	0.011741	9.460056	-0.003279	-0.004095	0.003677	-1.085205	0.269531	-0.529053	0.171522	17.968295	117.633617
28104		-3.058218	-0.002065	9.491444	-0.003254	-0.000306	0.003236	-1.086670	0.283447	-0.533203	0.171352	17.968686	117.631513
28105		-3.043670	-0.010267	9.509380	-0.003254	-0.000306	0.003236	-1.082520	0.285645	-0.533691	0.171806	17.968993	117.631226
28106		-3.063062	0.006318	9.532526	-0.002432	0.000952	0.002674	-1.081299	0.282227	-0.535400	0.172006	17.970109	117.631012
28107		-3.058516	-0.025009	9.481671	-0.003254	-0.000306	0.003236	-1.081787	0.278320	-0.539063	0.172460	17.970416	117.630725
28108		-3.058177	-0.002866	9.491457	-0.003265	-0.001244	0.001804	-1.090332	0.275879	-0.529053	0.172033	17.970302	117.629361
28109		-3.024150	-0.027800	9.486273	-0.002445	-0.001899	0.004548	-1.089111	0.284424	-0.528076	0.173194	17.969694	117.629861
28110		-3.038297	0.002419	9.478145	-0.003254	-0.000306	0.003236	-1.082764	0.286865	-0.524170	0.173015	17.970041	117.628451
28111		-3.043167	0.011006	9.519219	-0.002431	0.000952	0.002675	-1.082764	0.276611	-0.543213	0.173837	17.971070	117.627829
28112		-3.038659	-0.020492	9.468349	-0.006517	0.000364	0.001734	-1.079590	0.282715	-0.530762	0.171532	17.971849	117.626600
28113		-3.062890	0.004664	9.532582	-0.001631	0.000335	-0.000751	-1.085449	0.277344	-0.532715	0.172175	17.972531	117.623913
28114		-3.043518	-0.012302	9.509426	-0.004065	-0.000627	0.005230	-1.083008	0.282959	-0.531006	0.171921	17.972723	117.624327
28115		-3.057646	0.017912	9.501309	-0.002445	-0.001899	0.004548	-1.078125	0.283691	-0.533203	0.173082	17.972114	117.624828
28116		-3.057767	-0.004635	9.491589	-0.003265	-0.001243	0.001804	-1.082031	0.286621	-0.526855	0.172655	17.971962	117.624146
28117		-3.043221	-0.012848	9.509521	-0.003242	0.000632	0.004669	-1.084961	0.281494	-0.522217	0.173383	17.972804	117.624724
28118		-3.043237	-0.013037	9.509515	-0.003253	-0.000306	0.003236	-1.077637	0.280029	-0.531982	0.173210	17.973130	117.624507
28119		-3.057543	0.016982	9.501344	-0.005694	0.001623	0.001173	-1.080078	0.283203	-0.533936	0.171884	17.974546	117.622981
28120		-3.038252	-0.000137	9.478160	-0.003253	-0.000306	0.003236	-1.076660	0.286621	-0.536133	0.171740	17.974936	117.622822
28121		-3.057850	-0.005860	9.491561	-0.000811	-0.000321	0.001994	-1.083496	0.274658	-0.532227	0.173363	17.975237	117.621787
28122		-3.043381	-0.014137	9.509468	-0.006504	0.001303	0.003167	-1.087158	0.273926	-0.533691	0.171348	17.976550	117.621287
28123		-3.072460	0.001517	9.473609	-0.003253	-0.000306	0.003237	-1.088379	0.286377	-0.536133	0.171803	17.976858	117.621001
28124		-3.057960	-0.006680	9.491525	-0.003241	0.000632	0.004669	-1.083496	0.271729	-0.524658	0.171933	17.977762	117.620796
28125		-3.052758	0.006797	9.460242	-0.001645	-0.002516	0.001122	-1.081787	0.286621	-0.532227	0.172914	17.976807	117.619232
28126		-3.057693	-0.007109	9.491611	-0.005707	-0.001228	0.003047	-1.086426	0.278320	-0.533936	0.171322	17.976622	117.617892
28127		-3.057370	0.015139	9.501403	0.000832	0.000281	0.004177	-1.081055	0.286377	-0.541016	0.174292	17.977264	117.618174
28128		-3.057280	0.014899	9.501432	-0.008160	-0.002150	0.002857	-1.080811	0.280762	-0.524658	0.171281	17.976603	117.617858
28129		-3.037695	-0.002177	9.478339	-0.000014	-0.002852	0.001873	-1.075439	0.288574	-0.532227	0.173337	17.975453	117.616746
28130		-3.057250	-0.008018	9.491753	-0.006503	0.001304	0.003168	-1.087158	0.290527	-0.532959	0.171320	17.976725	117.617295
28131		-3.042782	-0.016401	9.509656	-0.003252	-0.000306	0.003237	-1.083252	0.280762	-0.533936	0.171775	17.977032	117.617009
28132		-3.057492	-0.030990	9.481984	-0.004075	-0.001563	0.003798	-1.090820	0.274658	-0.530762	0.171271	17.976668	117.617815
28133		-3.042246	0.005541	9.519518	-0.002444	-0.001899	0.004549	-1.084717	0.284912	-0.529297	0.172432	17.976060	117.618317
28134		-3.056701	-0.008981	9.491929	-0.004100	-0.005352	0.004238	-1.083496	0.285400	-0.536133	0.171987	17.973494	117.617479
28135		-3.022063	0.010667	9.506304	-0.004871	0.000968	0.003920	-1.083740	0.282959	-0.524902	0.171643	17.974530	117.617606
28136		-3.095375	0.001629	9.528592	-0.002455	-0.002837	0.003116	-1.080322	0.277832	-0.532471	0.171939	17.973420	117.617574
28137		-3.056106	-0.009676	9.492120	-0.004076	-0.003478	0.007105	-1.090088	0.283936	-0.531738	0.172640	17.971903	117.619612
28138		-3.035768	0.018177	9.488649	-0.001658	-0.005368	0.002995	-1.083008	0.279297	-0.537842	0.173376	17.969350	117.618559
28139		-3.021139	-0.012327	9.496904	-0.003265	-0.003157	0.005111	-1.080566	0.281250	-0.533203	0.174170	17.968021	117.619397
28140		-3.055043	-0.010027	9.492462	-0.002443	-0.001899	0.004550	-1.085693	0.287598	-0.541748	0.174763	17.967483	117.619522
28141		-3.054449	0.012183	9.502346	-0.004087	-0.004415	0.005672	-1.081543	0.285156	-0.531738	0.175190	17.965432	117.620695
28142		-3.054413	-0.010157	9.492664	0.000820	-0.002572	0.006051	-1.082520	0.280273	-0.531250	0.177931	17.964503	117.623302
28143		-3.068494	-0.002153	9.474894	-0.004922	-0.006609	0.004801	-1.079590	0.273682	-0.529053	0.177716	17.961195	117.623946
28144		-3.048389	0.003302	9.461653	-0.001633	-0.003493	0.005862	-1.081299	0.278564	-0.536621	0.179009	17.959705	117.623603
28145		-3.053047	-0.010274	9.493103	-0.000837	-0.006024	0.005741	-1.081299	0.280029	-0.532227	0.181310	17.956731	117.624814
28146		-3.052173	0.012184	9.503078	-0.000836	-0.006024	0.005741	-1.081055	0.279785	-0.521729	0.183046	17.953818	117.625348
28147		-3.017516	0.009775	9.507750	-0.002455	-0.004750	0.006424	-1.083008	0.281982	-0.530518	0.184547	17.951573	117.626972
28148		-3.051483	-0.010008	9.493607	0.000808	-0.005424	0.007924	-1.086914	0.275391	-0.524902	0.187612	17.948935	117.628880
28149		-3.031684	-0.026537	9.470570	-0.000014	-0.004767	0.005180	-1.083984	0.279053	-0.532715	0.190280	17.946682	117.629755
28150		-3.055282	-0.000918	9.535024	-0.000836	-0.006024	0.005741	-1.079834	0.277344	-0.531738	0.192004	17.943713	117.629149
28151		-3.035232	0.004945	9.521758	0.002454	-0.002909	0.006802	-1.087402	0.288574	-0.532715	0.196388	17.942522	117.631005
28152		-3.044571	0.004253	9.462882	-0.006539	-0.005333	0.005486	-1.085449	0.277100	-0.536865	0.194808	17.939976	117.632235
28153		-3.015230	-0.011988	9.498782	0.000013	-0.000978	0.004740	-1.083008	0.277832	-0.535645	0.197412	17.939895	117.632853
28154		-3.044001	0.004154	9.463065	-0.002453	-0.004749	0.006425	-1.086182	0.283203	-0.525146	0.198363	17.937708	117.633148
28155		-3.029241	-0.004015	9.481043	-0.003249	-0.000303	0.003240	-1.085449	0.281006	-0.538086	0.198821	17.938017	117.632864
28156		-3.048485	0.012627	9.504261	-0.002427	-0.000961	0.005985	-1.079590	0.281494	-0.532959	0.199691	17.937956	117.633901
28157		-3.029030	-0.004126	9.481111	-0.000808	-0.002235	0.005302	-1.082031	0.281006	-0.531982	0.201928	17.937154	117.634854
28158		-3.023746	0.009419	9.449863	-0.004071	-0.001560	0.003802	-1.084961	0.271729	-0.527832	0.201463	17.936778	117.634970
28159		-3.062966	-0.001968	9.476683	-0.002427	0.000954	0.002679	-1.084473	0.287598	-0.535889	0.202289	17.937808	117.634350
28160		-3.028764	-0.004751	9.481195	-0.005716	-0.002160	0.001619	-1.084229	0.280518	-0.530518	0.200472	17.937072	117.632164
28161		-3.062761	-0.002557	9.476749	-0.002426	-0.000961	0.005985	-1.090088	0.274658	-0.531494	0.201910	17.936999	117.633532
28162		-3.028291	0.017239	9.491040	-0.002426	0.000954	0.002679	-1.088867	0.283203	-0.532227	0.202174	17.938029	117.631033
28163		-3.047886	0.011441	9.504455	-0.004071	-0.001560	0.003802	-1.088135	0.279297	-0.524658	0.202264	17.937616	117.631085
28164		-3.047721	0.011259	9.504508	-0.002439	-0.001898	0.004552	-1.087891	0.281494	-0.531982	0.202856	17.936978	117.630536
28165		-3.062464	-0.003194	9.476845	-0.003248	-0.000303	0.003241	-1.087402	0.283936	-0.530029	0.203314	17.937287	117.630252
28166		-3.027858	0.016432	9.491179	-0.004084	-0.002497	0.002369	-1.084717	0.276611	-0.527588	0.202570	17.936333	117.629030
28167		-3.032858	0.002731	9.522515	0.000837	0.000279	0.004179	-1.089600	0.278320	-0.530518	0.205543	17.936973	117.629312
28168		-3.062194	-0.003429	9.476932	-0.002425	-0.000961	0.005986	-1.087402	0.281250	-0.527832	0.206422	17.936879	117.628681
28169		-3.047163	0.010776	9.504687	-0.002453	-0.002834	0.003119	-1.091064	0.286865	-0.533691	0.207311	17.935737	117.628318
28170		-3.027465	0.016129	9.491305	-0.004057	0.001292	0.001929	-1.080566	0.282471	-0.537109	0.206504	17.936942	117.626960
28171		-3.047121	0.010267	9.504701	-0.004056	-0.000623	0.005236	-1.085938	0.280762	-0.530762	0.206869	17.937064	117.627877
28172		-3.027711	-0.006664	9.481530	-0.002439	-0.001897	0.004553	-1.089111	0.279541	-0.534668	0.207500	17.936488	117.628526
28173		-3.066401	0.004408	9.518218	-0.002453	-0.002834	0.003119	-1.084961	0.285156	-0.531006	0.208389	17.935347	117.628163
28174		-3.041325	0.023466	9.473623	-0.004083	-0.004411	0.005676	-1.088379	0.275635	-0.529785	0.208275	17.933300	117.629001
28175		-3.041009	0.023305	9.473725	-0.003246	-0.002217	0.006548	-1.085938	0.275879	-0.530762	0.209346	17.932505	117.630705
28176		-3.045963	0.009672	9.505073	0.000015	-0.000978	0.004741	-1.081543	0.277588	-0.530762	0.211409	17.932407	117.628707
28177		-3.011979	-0.015169	9.499809	-0.002453	-0.002834	0.003119	-1.085938	0.285645	-0.533447	0.212299	17.931266	117.628344
28178		-3.055372	0.008863	9.446187	-0.004055	-0.000622	0.005237	-1.084229	0.281006	-0.528320	0.212131	17.931397	117.629369
28179		-3.025947	0.014856	9.491791	-0.003247	-0.000302	0.003242	-1.076660	0.282715	-0.531006	0.212590	17.931706	117.629086
28180		-3.026159	-0.007761	9.482025	-0.004084	-0.002495	0.002370	-1.085449	0.283447	-0.532959	0.211872	17.930761	117.629098
28181		-3.045246	0.008719	9.505304	-0.004069	-0.001559	0.003804	-1.084473	0.277832	-0.523193	0.211963	17.930350	117.629150
28182		-3.040019	0.022216	9.474045	-0.002423	-0.000960	0.005987	-1.086182	0.282227	-0.528809	0.212857	17.930238	117.629915
28183		-3.064283	0.025174	9.528600	-0.004069	-0.001559	0.003804	-1.081299	0.278320	-0.525391	0.212948	17.929827	117.629967
28184		-3.040069	-0.000483	9.464330	-0.000837	-0.002193	-0.000872	-1.084229	0.275635	-0.527588	0.213481	17.929020	117.626687
28185		-3.030071	-0.000184	9.523402	-0.007330	-0.002797	0.005612	-1.092529	0.273438	-0.529053	0.212039	17.927895	117.627825
28186		-3.044367	0.007586	9.505586	-0.002437	-0.001897	0.004554	-1.086426	0.279541	-0.531494	0.212664	17.927237	117.624838
28187		-3.033990	0.034727	9.443048	-0.004068	-0.001558	0.003804	-1.080078	0.280762	-0.535645	0.212756	17.926825	117.624891
28188		-3.024368	0.012778	9.492297	-0.002452	-0.002833	0.003120	-1.083008	0.269531	-0.533447	0.213135	17.925707	117.624365
28189		-3.044138	-0.015356	9.495957	-0.004068	-0.001558	0.003804	-1.092285	0.277100	-0.525879	0.213227	17.925296	117.624418
28190		-3.043712	0.006666	9.505797	-0.004877	0.000037	0.002493	-1.093994	0.282471	-0.525635	0.212087	17.925764	117.619885
28191		-3.024102	0.012154	9.492383	0.000839	0.000277	0.004180	-1.089111	0.281982	-0.528076	0.215061	17.926403	117.620167
28192		-3.043282	0.028685	9.515639	-0.008153	-0.002137	0.002868	-1.080322	0.290283	-0.531982	0.212083	17.925567	117.617991
28193		-3.063115	0.000390	9.519277	-0.002422	-0.000961	0.005988	-1.080811	0.284668	-0.526367	0.213524	17.925493	117.619360
28194		-3.043430	0.005839	9.505887	-0.003246	-0.000301	0.003243	-1.094238	0.281738	-0.530762	0.213461	17.925788	117.622612
28195		-3.038294	0.019297	9.474605	-0.003246	-0.000301	0.003243	-1.085205	0.279785	-0.531982	0.213921	17.926097	117.622329
28196		-3.043252	0.005455	9.505945	-0.002452	-0.002833	0.003120	-1.092041	0.285400	-0.535156	0.214288	17.924917	117.620426
28197		-3.063029	-0.022674	9.509599	-0.004068	-0.001558	0.003805	-1.074951	0.280029	-0.529785	0.214381	17.924505	117.620479
28198		-3.057265	0.012998	9.488226	-0.004920	-0.004687	0.001498	-1.081299	0.282471	-0.538818	0.213049	17.922311	117.619969
28199		-3.037430	0.018468	9.474883	0.000839	0.000277	0.004180	-1.084473	0.276855	-0.533447	0.216023	17.922950	117.620251
28200		-3.027686	0.018868	9.533869	-0.006507	0.000377	0.001745	-1.086426	0.281006	-0.523682	0.213854	17.923700	117.618900
28201		-3.076715	0.006654	9.501692	-0.005683	-0.000282	0.004491	-1.084473	0.280273	-0.526855	0.213148	17.924017	117.619369
28202		-3.056894	0.012131	9.488346	0.000004	-0.003832	0.006614	-1.079834	0.284912	-0.530029	0.215558	17.922211	117.620524
28203		-3.036968	0.017649	9.475033	-0.004082	-0.002494	0.002371	-1.089600	0.282715	-0.522461	0.215375	17.921266	117.619711
28204		-3.022225	0.009433	9.492984	-0.000805	-0.002236	0.005304	-1.078857	0.282227	-0.531006	0.217086	17.920390	117.621535
28205		-3.056128	0.011838	9.488593	-0.004889	-0.002814	0.004368	-1.081543	0.278076	-0.533936	0.216811	17.919258	117.621923
28206		-3.050755	0.025185	9.457392	-0.004889	-0.002814	0.004368	-1.088623	0.283691	-0.531494	0.216050	17.918149	117.622820
28207		-3.021850	-0.013589	9.483392	-0.003242	-0.002217	0.006551	-1.086182	0.277832	-0.529053	0.217123	17.917354	117.624525
28208		-3.040893	0.003075	9.506700	-0.000838	-0.002192	-0.000873	-1.078857	0.289063	-0.532227	0.217690	17.916545	117.620842
28209		-3.040656	0.002759	9.506776	-0.007326	-0.002794	0.005616	-1.080322	0.278564	-0.534424	0.216250	17.915421	117.621982
28210		-3.035013	0.038506	9.485374	-0.001613	-0.000640	0.003993	-1.087646	0.276367	-0.530762	0.217303	17.915566	117.624292
28211		-3.054787	0.010475	9.489027	-0.003273	-0.004089	0.003682	-1.082275	0.283447	-0.529297	0.217826	17.913704	117.624265
28212		-3.034878	0.015902	9.475706	-0.002435	-0.001897	0.004555	-1.083496	0.278809	-0.524902	0.218493	17.913061	117.623967
28213		-3.054322	0.010238	9.489177	-0.002435	-0.001897	0.004555	-1.082764	0.279053	-0.529541	0.219659	17.912453	117.624471
28214		-3.040063	-0.020376	9.497253	-0.004050	-0.000621	0.005241	-1.091309	0.277344	-0.530518	0.219524	17.912519	117.624459
28215		-3.019486	0.029683	9.503571	-0.001660	-0.003448	-0.000311	-1.087891	0.284668	-0.528076	0.220232	17.911033	117.622029
28216		-3.034145	0.015332	9.475942	-0.004031	-0.001601	0.009984	-1.083252	0.285156	-0.532471	0.220982	17.910509	117.624550
28217		-3.053327	0.031782	9.499211	-0.006505	0.000380	0.001748	-1.082520	0.277832	-0.524902	0.219298	17.911212	117.623369
28218		-3.039135	0.001003	9.507263	-0.001628	-0.001576	0.002559	-1.081787	0.280762	-0.523682	0.220062	17.910752	117.623015
28219		-3.038894	0.000976	9.507340	-0.001625	-0.003493	0.005866	-1.082764	0.293945	-0.534668	0.221934	17.909227	117.624304
28220		-3.033190	0.036993	9.485963	-0.002418	-0.000960	0.005991	-1.080566	0.286133	-0.526611	0.222880	17.909115	117.628660
28221		-3.053036	0.008904	9.489592	-0.004081	-0.002492	0.002372	-1.079834	0.289063	-0.533447	0.222699	17.908171	117.627849
28222		-3.033144	0.014237	9.476264	-0.003256	-0.003152	0.005118	-1.087891	0.281738	-0.534668	0.223012	17.906827	117.632020
28223		-3.018489	0.006140	9.494175	0.000842	0.000275	0.004181	-1.085205	0.273682	-0.530518	0.225988	17.907465	117.632303
28224		-3.057585	-0.004974	9.521053	-0.004061	-0.003472	0.007115	-1.080566	0.278076	-0.534668	0.226221	17.905929	117.632329
28225		-3.037391	0.022547	9.517537	-0.008116	-0.000259	0.005743	-1.083252	0.279053	-0.531738	0.224353	17.906257	117.633552
28226		-3.052213	0.008096	9.489857	0.000809	-0.001596	0.001310	-1.084229	0.284912	-0.525391	0.226316	17.905843	117.631140
28227		-3.037425	-0.000073	9.507810	-0.003272	-0.004088	0.003683	-1.089355	0.281494	-0.527344	0.226839	17.903982	117.631114
28228		-3.051600	0.007784	9.490054	-0.005692	-0.003131	0.006367	-1.076660	0.288330	-0.530029	0.225970	17.902559	117.632850
28229		-3.056069	0.016207	9.531257	-0.002433	-0.001896	0.004556	-1.080566	0.285400	-0.531250	0.227137	17.901952	117.633355
28230		-3.070402	0.001704	9.503736	-0.007382	-0.010367	0.006494	-1.088623	0.288574	-0.530518	0.225350	17.896485	117.638245
28231		-3.030200	0.012536	9.477208	-0.003297	-0.009792	0.007429	-1.076904	0.285156	-0.536377	0.226547	17.891347	117.640460
28232		-3.043852	0.020616	9.459627	-0.002475	-0.008536	0.006867	-1.086182	0.282471	-0.535156	0.227647	17.886938	117.645031
28233		-3.033531	-0.001388	9.509053	-0.004944	-0.010386	0.005246	-1.087158	0.280029	-0.529053	0.227497	17.881465	117.645931
28234		-3.013191	0.003998	9.495859	-0.002444	-0.004748	0.006430	-1.091553	0.277588	-0.537598	0.228533	17.879191	117.647094
28235		-3.027086	0.012010	9.478204	-0.004909	-0.008515	0.008117	-1.079834	0.277832	-0.536865	0.228934	17.874783	117.649727
28236		-3.036585	-0.015651	9.540982	-0.005701	-0.005982	0.008243	-1.083496	0.281250	-0.526123	0.228466	17.871870	117.650677
28237		-3.064915	0.000465	9.505507	-0.004082	-0.009175	0.010864	-1.090088	0.278809	-0.529053	0.229849	17.867077	117.654961
28238		-3.043798	0.028096	9.502280	-0.008195	-0.013535	0.010369	-1.088379	0.281006	-0.530762	0.228294	17.859701	117.657482
28239		-3.042689	0.027628	9.502637	-0.008164	-0.009747	0.009932	-1.086914	0.274902	-0.529297	0.227165	17.854583	117.661204
28240		-3.002926	0.015917	9.466224	-0.007377	-0.010362	0.006499	-1.086914	0.280762	-0.536865	0.225382	17.849065	117.660406
28241		-3.021099	0.032271	9.489838	-0.006549	-0.011024	0.009245	-1.084717	0.285645	-0.524658	0.225050	17.843218	117.663711
28242		-3.025373	0.018145	9.521374	-0.008131	-0.005959	0.009497	-1.091553	0.278564	-0.531494	0.223396	17.840235	117.667502
28243		-3.039752	0.003676	9.493859	-0.004065	-0.006322	0.008994	-1.088135	0.281250	-0.534180	0.224442	17.837082	117.670667
28244		-3.004994	0.000848	9.498457	-0.004911	-0.006595	0.004813	-1.087646	0.286621	-0.532471	0.223777	17.833748	117.669525
28245		-3.003432	0.045056	9.518402	-0.008166	-0.007828	0.006627	-1.081787	0.274658	-0.541016	0.222037	17.829737	117.671262
28246		-3.037605	0.002483	9.494546	-0.006571	-0.010040	0.004503	-1.087158	0.274170	-0.526855	0.220391	17.824513	117.671198
28247		-3.036253	0.024442	9.504704	-0.004118	-0.009127	0.004687	-1.081543	0.286377	-0.533936	0.220611	17.819762	117.671765
28248		-3.001330	0.021426	9.509343	-0.006559	-0.007188	0.002631	-1.084473	0.285400	-0.530762	0.218604	17.816097	117.670176
28249		-3.014586	0.051496	9.501647	-0.004938	-0.010382	0.005251	-1.081299	0.279541	-0.529297	0.218457	17.810626	117.671079
28250		-3.014449	0.028871	9.491964	-0.004860	-0.001872	0.005813	-1.091309	0.283936	-0.532715	0.218017	17.810003	117.672767
28251		-3.000092	-0.001960	9.500006	-0.004897	-0.003742	0.002941	-1.079590	0.282471	-0.541748	0.217473	17.808341	117.672295
28252		-3.013885	0.028195	9.492145	-0.004076	-0.002487	0.002379	-1.083984	0.278809	-0.535645	0.216878	17.807448	117.672114
28253		-3.048365	0.008147	9.477928	-0.004867	0.000045	0.002505	-1.085449	0.278809	-0.526611	0.216274	17.807958	117.671389
28254		-3.014178	0.005111	9.482323	-0.004886	-0.000890	0.001069	-1.083252	0.277344	-0.530518	0.214956	17.807908	117.668095
28255		-3.033339	0.021497	9.505642	-0.004848	0.000980	0.003941	-1.088867	0.276611	-0.532715	0.214628	17.808950	117.668235
28256		-2.999254	0.018705	9.510004	0.000802	0.000320	-0.001999	-1.086426	0.282959	-0.534424	0.216008	17.809597	117.662038
28257		-3.033853	-0.001085	9.495746	-0.003236	-0.000298	0.003252	-1.086914	0.283691	-0.523193	0.216476	17.809909	117.661761
28258		-3.038199	0.029725	9.546712	-0.001555	0.004082	0.004998	-1.083740	0.278076	-0.530518	0.217774	17.812646	117.662760
28259		-3.034272	-0.001259	9.495612	-0.002414	0.000957	0.002689	-1.090576	0.282227	-0.528320	0.218610	17.813679	117.662147
28260		-3.014754	0.004143	9.482140	-0.002414	0.000957	0.002689	-1.091309	0.277344	-0.529297	0.218997	17.814637	117.660102
28261		-3.033956	0.020744	9.505446	-0.002433	0.000023	0.001253	-1.082275	0.286133	-0.529785	0.219556	17.815136	117.658622
28262		-3.039213	0.006714	9.536657	-0.004836	0.003833	0.002069	-1.085938	0.291504	-0.527100	0.218444	17.817745	117.657106
28263		-3.049809	-0.016183	9.467732	0.000019	0.000935	0.001436	-1.081543	0.291748	-0.527832	0.220443	17.818766	117.655739
28264		-3.014903	0.025803	9.491828	-0.001593	0.002212	0.002126	-1.085693	0.283203	-0.536377	0.221183	17.820432	117.659810
28265		-3.015115	0.025522	9.491762	-0.006460	0.002258	0.004631	-1.083252	0.288330	-0.533447	0.220059	17.822205	117.660369
28266		-3.035393	-0.002628	9.495254	-0.001593	0.002212	0.002126	-1.086182	0.278076	-0.528320	0.220843	17.823970	117.661581
28267		-3.020555	0.011385	9.522914	-0.002414	0.000958	0.002689	-1.090332	0.276611	-0.535645	0.221678	17.825002	117.660968
28268		-3.035315	0.019303	9.505016	-0.004836	0.003833	0.002069	-1.085938	0.284668	-0.535156	0.220585	17.827630	117.657071
28269		-2.996572	0.030066	9.477987	-0.003193	0.006343	0.000944	-1.089600	0.274658	-0.534180	0.220656	17.831752	117.655420
28270		-3.031122	0.032432	9.473469	-0.004026	0.002235	0.003379	-1.084961	0.294678	-0.526123	0.220279	17.833497	117.653701
28271		-3.056092	0.012890	9.518082	-0.003204	0.003490	0.002816	-1.090332	0.279053	-0.530029	0.220687	17.835980	117.653170
28272		-3.036748	0.018287	9.504560	-0.001593	0.002212	0.002126	-1.086426	0.284180	-0.527588	0.221434	17.837615	117.654150
28273		-3.017344	0.023556	9.491058	-0.006459	0.002259	0.004631	-1.085205	0.277588	-0.528564	0.220311	17.839389	117.654709
28274		-3.076283	0.006664	9.531332	-0.000802	-0.000320	0.001999	-1.081787	0.283447	-0.535889	0.221500	17.839589	117.652766
28275		-3.037804	-0.026956	9.484741	-0.003247	-0.003150	0.005123	-1.083252	0.275146	-0.527832	0.222303	17.838262	117.653609
28276		-3.012002	0.036785	9.459880	-0.004037	-0.000617	0.005251	-1.084961	0.279297	-0.526855	0.222266	17.838365	117.653536
28277		-3.036542	0.017212	9.504628	-0.004878	-0.002806	0.004377	-1.088867	0.279297	-0.527832	0.221998	17.837237	117.653931
28278		-3.022238	-0.013525	9.512638	-0.003228	-0.002215	0.006560	-1.084473	0.286621	-0.526123	0.222636	17.836323	117.653710
28279		-3.050532	0.024850	9.486977	-0.008132	-0.004037	0.006193	-1.087158	0.287354	-0.524902	0.220837	17.834486	117.655194
28280		-3.035645	0.016366	9.504916	-0.001616	-0.003493	0.005870	-1.081299	0.287842	-0.530273	0.222254	17.832819	117.658755
28281		-3.021288	-0.014501	9.512939	-0.009742	-0.002759	0.006884	-1.086914	0.286865	-0.534912	0.219661	17.831712	117.660658
28282		-3.035476	-0.006759	9.495225	-0.004068	-0.004404	0.005687	-1.084717	0.287354	-0.528076	0.219679	17.829641	117.664841
28283		-3.014896	0.020847	9.491843	-0.005690	-0.005979	0.008249	-1.090088	0.274902	-0.533691	0.219657	17.826687	117.667559
28284		-3.033467	0.037324	9.515360	-0.005690	-0.005979	0.008250	-1.086426	0.287842	-0.535889	0.219212	17.823662	117.669278
28285		-3.019277	-0.015926	9.513575	-0.008142	-0.006889	0.008067	-1.086670	0.284180	-0.530518	0.217751	17.820187	117.671884
28286		-3.032089	0.036330	9.515803	-0.008982	-0.009077	0.007193	-1.081055	0.277588	-0.531250	0.215231	17.815427	117.675827
28287		-3.017438	0.005589	9.523907	-0.001565	-0.003544	0.012054	-1.083496	0.278564	-0.541504	0.218274	17.813860	117.680840
28288		-3.026311	0.027572	9.475022	-0.004899	-0.008510	0.008123	-1.077393	0.287842	-0.521484	0.218303	17.809509	117.681562
28289		-3.011122	0.019109	9.493044	-0.004086	-0.005337	0.004252	-1.086670	0.282471	-0.525146	0.218463	17.806931	117.681875
28290		-3.029679	0.035491	9.516574	-0.007338	-0.006567	0.006069	-1.091797	0.286133	-0.531006	0.216647	17.803497	117.684636
28291		-3.009958	0.018416	9.493415	-0.003255	-0.006002	0.006998	-1.075195	0.291992	-0.523926	0.217789	17.800532	117.686601
28292		-3.009447	0.018348	9.493577	-0.002434	-0.004747	0.006435	-1.080078	0.273682	-0.533447	0.218867	17.798192	117.691710
28293		-3.043096	0.020886	9.489374	-0.004885	-0.005657	0.006252	-1.090820	0.283447	-0.526367	0.218938	17.795427	117.693227
28294		-3.023094	0.026321	9.476053	-0.001591	-0.002559	0.007309	-1.087646	0.291260	-0.520508	0.220687	17.794368	117.692744
28295		-3.008278	0.017749	9.493948	-0.008956	-0.003368	0.003453	-1.085205	0.288574	-0.521973	0.217912	17.792921	117.692582
28296		-3.022367	0.025563	9.476287	-0.003254	-0.006001	0.006998	-1.085449	0.287598	-0.537354	0.218592	17.789747	117.697665
28297		-3.027055	0.011496	9.507662	-0.005704	-0.002138	0.001636	-1.081299	0.285400	-0.532227	0.217347	17.789008	117.696412
28298		-3.026836	0.010995	9.507732	-0.006504	-0.002458	0.003636	-1.087891	0.280273	-0.528320	0.215628	17.788104	117.698615
28299		-3.007080	0.016165	9.494331	-0.004031	-0.000615	0.005256	-1.088379	0.278809	-0.529541	0.216008	17.788229	117.699545
28300		-3.041061	0.018594	9.490031	-0.004873	-0.002803	0.004382	-1.078613	0.287109	-0.533203	0.215336	17.787004	117.697527
28301		-3.006607	0.015437	9.494482	-0.007324	-0.003712	0.004200	-1.077393	0.282227	-0.530518	0.213632	17.785357	117.697814
28302		-3.007028	-0.007298	9.484591	-0.004819	0.001918	0.005386	-1.084229	0.278320	-0.533203	0.213205	17.786948	117.700123
28303		-3.006419	0.014661	9.494543	-0.005693	-0.004057	0.004945	-1.083252	0.285400	-0.528564	0.212573	17.785102	117.700857
28304		-3.006276	0.014102	9.494589	-0.007322	0.001061	-0.000980	-1.078613	0.283447	-0.532715	0.209530	17.786157	117.697254
28305		-3.020848	0.021790	9.476781	-0.005660	-0.000270	0.004512	-1.081787	0.287842	-0.530273	0.208840	17.786482	117.697736
28306		-3.006302	0.013242	9.494582	-0.002430	0.000025	0.001256	-1.082764	0.290771	-0.527588	0.209015	17.786966	117.697813
28307		-3.011354	-0.000948	9.525834	-0.006512	-0.000538	0.000328	-1.082031	0.277344	-0.535156	0.207068	17.787147	117.695777
28308		-3.025908	0.006830	9.508031	-0.004839	0.000984	0.003949	-1.095947	0.280518	-0.530518	0.206356	17.788154	117.696393
28309		-3.025326	0.028801	9.517981	-0.004072	-0.002483	0.002382	-1.087891	0.285156	-0.531982	0.206183	17.787216	117.695589
28310		-2.986103	0.039776	9.491088	-0.000735	0.002480	0.006314	-1.092041	0.286865	-0.520996	0.208245	17.789005	117.696608
28311		-3.025433	0.028274	9.517949	-0.010573	-0.000166	0.000839	-1.094238	0.280762	-0.524902	0.204066	17.789398	117.694881
28312		-3.020997	0.019158	9.476739	-0.002418	0.002879	-0.000615	-1.081543	0.273193	-0.533203	0.203854	17.791302	117.691532
28313		-3.020606	0.041227	9.486631	-0.003230	-0.000295	0.003256	-1.091309	0.272461	-0.523438	0.204326	17.791615	117.691259
28314		-3.021755	-0.003691	9.466730	-0.004848	0.002904	0.000641	-1.082520	0.288574	-0.529541	0.203007	17.793663	117.683631
28315		-3.021484	0.018343	9.476585	-0.001587	0.002213	0.002131	-1.081543	0.284180	-0.524170	0.204214	17.795416	117.682685
28316		-3.006622	0.032180	9.504255	-0.003239	0.001625	-0.000052	-1.084229	0.286377	-0.529297	0.203672	17.796736	117.682359
28317		-3.006760	0.031959	9.504212	-0.001609	0.001279	0.000693	-1.090576	0.279541	-0.532227	0.204602	17.797956	117.680546
28318		-3.007635	0.009460	9.494164	-0.003184	0.006346	0.000953	-1.086670	0.281006	-0.529053	0.204294	17.801995	117.678618
28319		-3.012706	0.017626	9.535178	-0.004027	0.004159	0.000078	-1.082031	0.274414	-0.529541	0.203727	17.804867	117.676442
28320		-3.023627	-0.005151	9.466132	-0.000776	0.005387	-0.001740	-1.083984	0.278564	-0.528564	0.204310	17.808361	117.670547
28321		-3.022876	0.039192	9.485917	-0.004060	0.000371	0.000511	-1.080078	0.281250	-0.538574	0.203801	17.809062	117.668622
28322		-3.028853	0.002898	9.507096	0.000067	0.007574	-0.000864	-1.084473	0.286621	-0.524658	0.205050	17.813878	117.665040
28323		-3.044040	0.011016	9.489088	-0.003184	0.006346	0.000954	-1.082520	0.287109	-0.531982	0.205129	17.818001	117.663395
28324		-3.010499	0.008114	9.493257	-0.000754	0.006321	-0.000301	-1.088867	0.279541	-0.534424	0.205974	17.822008	117.663193
28325		-3.025595	0.016187	9.475277	-0.002405	0.005733	-0.002485	-1.084961	0.278809	-0.526611	0.205864	17.825787	117.659477
28326		-3.011241	0.029981	9.502800	-0.002341	0.008533	0.001830	-1.090576	0.277344	-0.527832	0.206209	17.831064	117.656439
28327		-3.031463	0.024166	9.516041	-0.004026	0.004159	0.000078	-1.085449	0.283691	-0.530029	0.205641	17.833935	117.654262
28328		-3.007791	0.021110	9.461268	0.001698	0.007229	-0.000118	-1.084961	0.277344	-0.528809	0.207931	17.838435	117.650554
28329		-3.052227	0.018529	9.529107	-0.000774	0.005388	-0.001739	-1.079102	0.286621	-0.527832	0.208892	17.842015	117.647285
28330		-3.014048	0.007118	9.492132	-0.003183	0.006346	0.000954	-1.093506	0.281250	-0.531982	0.208589	17.846037	117.645873
28331		-3.048686	0.009517	9.487598	-0.004026	0.004159	0.000078	-1.076660	0.278809	-0.526611	0.208021	17.848909	117.643696
28332		-2.999948	0.020548	9.519585	-0.002375	0.004746	0.002262	-1.091064	0.284424	-0.534180	0.208424	17.852002	117.641713
28333		-3.010281	0.020163	9.460478	-0.001595	0.004134	-0.001176	-1.082275	0.284424	-0.527832	0.209016	17.854862	117.638781
28334		-3.015291	0.028464	9.501520	-0.003175	0.004425	0.004263	-1.086182	0.282715	-0.523193	0.209329	17.857773	117.639949
28335		-3.020634	0.014186	9.532675	-0.006540	0.000452	-0.004420	-1.084229	0.272705	-0.531494	0.206487	17.858530	117.635056
28336		-3.015859	0.027589	9.501342	-0.002332	0.006613	0.005139	-1.092529	0.283691	-0.531494	0.207444	17.862654	117.633665
28337		-3.050952	0.007869	9.486871	-0.002416	0.002880	-0.000614	-1.077148	0.283447	-0.538574	0.207668	17.864794	117.631068
28338		-3.036210	0.021543	9.514534	-0.004847	0.002905	0.000641	-1.086182	0.288086	-0.532227	0.206379	17.866905	117.630099
28339		-3.036974	-0.001100	9.504505	-0.003217	0.002559	0.001386	-1.083252	0.284668	-0.523438	0.206514	17.868857	117.628705
28340		-3.011985	0.040201	9.469727	-0.004846	0.002905	0.000641	-1.095215	0.278320	-0.526855	0.205189	17.870866	117.628928
28341		-3.036930	0.020454	9.514307	-0.004038	0.001305	0.001948	-1.082031	0.288818	-0.533447	0.204956	17.872098	117.627870
28342		-3.037011	0.020010	9.514282	-0.006489	0.000397	0.001764	-1.083252	0.289063	-0.530029	0.202906	17.872673	117.626931
28343		-3.037666	-0.002396	9.504284	0.002493	0.002774	0.003061	-1.086426	0.284668	-0.534912	0.206622	17.874744	117.626546
28344		-3.046701	0.041781	9.465160	-0.008919	0.000423	0.003019	-1.079834	0.276367	-0.524414	0.203424	17.875387	117.628539
28345		-3.037824	-0.003091	9.504233	-0.003230	-0.000296	0.003255	-1.084229	0.276367	-0.524414	0.203895	17.875699	117.628265
28346		-3.051410	0.049618	9.506305	-0.001587	0.002213	0.002132	-1.087646	0.286621	-0.532227	0.204724	17.877282	117.624368
28347		-3.032960	0.010383	9.472930	-0.004038	0.001305	0.001948	-1.087646	0.284912	-0.533691	0.204491	17.878514	117.623310
28348		-3.028036	0.023829	9.441648	-0.004845	0.002906	0.000641	-1.087891	0.285645	-0.533936	0.203193	17.880572	117.623005
28349		-3.033614	0.009557	9.472722	-0.004810	0.006694	0.000212	-1.080322	0.276123	-0.534180	0.202200	17.884895	117.620913
28350		-3.000008	0.006317	9.476945	-0.005653	0.004507	-0.000665	-1.083252	0.287598	-0.525879	0.200218	17.887913	117.617904
28351		-3.019580	0.022314	9.500174	-0.009711	0.004880	-0.000155	-1.079834	0.286865	-0.525146	0.196348	17.891198	117.615587
28352		-3.020694	-0.000628	9.490022	-0.003987	0.007949	-0.000349	-1.083496	0.278564	-0.526855	0.195340	17.896078	117.615877
28353		-3.041051	-0.006582	9.503199	-0.005589	0.007306	0.003652	-1.092041	0.291016	-0.523926	0.194537	17.900745	117.615857
28354		-3.050935	0.015034	9.454014	-0.005673	0.003575	-0.002104	-1.086914	0.284424	-0.531250	0.192228	17.903076	117.613171
28355		-3.022317	-0.002123	9.489505	-0.005652	0.004508	-0.000665	-1.087402	0.277832	-0.531982	0.190589	17.906148	117.610546
28356		-3.056405	0.022453	9.494921	-0.004001	0.005093	0.001520	-1.089355	0.288818	-0.539063	0.189943	17.909435	117.608584
28357		-3.061863	0.008193	9.526029	-0.005666	0.001652	0.001203	-1.083008	0.281982	-0.533691	0.188639	17.910867	117.607078
28358		-3.042853	-0.008862	9.502620	-0.002409	0.000958	0.002694	-1.080811	0.284424	-0.531494	0.189137	17.911854	117.608287
28359		-3.071469	0.029778	9.476935	-0.003236	0.001627	-0.000052	-1.091553	0.286621	-0.530029	0.188992	17.913274	117.606025
28360		-3.043073	-0.009526	9.502550	-0.006488	0.000398	0.001764	-1.079834	0.285645	-0.519043	0.186958	17.913860	117.606459
28361		-3.037401	0.026394	9.481320	0.000027	-0.000991	0.004746	-1.081299	0.280518	-0.526855	0.189570	17.913771	117.607081
28362		-3.042007	0.034618	9.522507	-0.006488	0.000398	0.001764	-1.084717	0.276855	-0.531738	0.187517	17.914287	117.605925
28363		-3.062318	0.006484	9.525884	-0.001565	0.003145	0.003572	-1.081055	0.284424	-0.529541	0.189002	17.916570	117.605849
28364		-3.042832	0.011823	9.512435	-0.004859	0.000051	0.002510	-1.077637	0.283203	-0.527588	0.188055	17.916980	117.604308
28365		-3.042804	0.011615	9.512445	-0.001602	-0.000644	0.004000	-1.083984	0.276611	-0.535400	0.189596	17.917092	117.604482
28366		-3.008642	0.008561	9.516859	-0.007288	0.000077	0.003765	-1.088379	0.285156	-0.527344	0.187499	17.917540	117.603518
28367		-3.077499	-0.008661	9.498049	-0.003236	0.001627	-0.000051	-1.083008	0.277588	-0.527344	0.187355	17.918961	117.601257
28368		-3.023756	-0.005941	9.489045	0.000027	-0.000991	0.004746	-1.088867	0.271484	-0.532471	0.189603	17.918699	117.601209
28369		-3.038222	0.002251	9.471250	-0.004058	0.000373	0.000510	-1.082031	0.278809	-0.526123	0.189090	17.919400	117.599283
28370		-3.037853	0.024116	9.481181	-0.005644	0.002586	0.002643	-1.080322	0.282471	-0.532227	0.187721	17.921224	117.594962
28371		-3.058110	-0.004043	9.484568	-0.003230	-0.000296	0.003255	-1.079834	0.283691	-0.526611	0.188191	17.921536	117.594688
28372		-3.043122	0.009743	9.512345	-0.003208	0.000636	0.004695	-1.077148	0.281982	-0.530518	0.188594	17.922276	117.596360
28373		-3.048268	-0.004213	9.543547	-0.001601	-0.000644	0.004001	-1.088135	0.288818	-0.534912	0.190136	17.922388	117.596534
28374		-3.023299	0.015201	9.499005	-0.000816	-0.003178	0.003867	-1.082764	0.280273	-0.525391	0.191761	17.920970	117.598629
28375		-3.047260	0.017809	9.553685	-0.006524	-0.003389	0.002193	-1.085693	0.288330	-0.537842	0.190145	17.919512	117.597708
28376		-3.100495	0.014550	9.562854	-0.005732	-0.007847	0.005365	-1.087158	0.278320	-0.529297	0.189224	17.915388	117.599907
28377		-3.041346	0.008447	9.512914	-0.008161	-0.007820	0.006621	-1.082031	0.282471	-0.536865	0.187488	17.911382	117.601645
28378		-3.040403	0.008159	9.513216	-0.001711	-0.012009	0.005282	-1.078125	0.282227	-0.531006	0.188866	17.904896	117.601772
28379		-3.078981	-0.025348	9.530429	-0.005761	-0.013558	0.009100	-1.082031	0.284424	-0.535400	0.188960	17.897599	117.604991
28380		-3.003608	0.005095	9.518452	-0.004146	-0.016762	0.011713	-1.083984	0.280762	-0.535400	0.190135	17.888414	117.610820
28381		-3.031121	0.021653	9.483342	-0.005729	-0.014549	0.013849	-1.089600	0.280518	-0.529785	0.191123	17.880540	117.616895
28382		-3.015282	0.013131	9.501556	-0.005758	-0.013556	0.009103	-1.088379	0.274658	-0.525879	0.190885	17.873142	117.619180
28383		-3.028405	0.021332	9.484210	-0.003321	-0.015506	0.011154	-1.078613	0.282959	-0.535645	0.192753	17.864724	117.623630
28384		-3.022022	0.035044	9.453412	-0.006541	-0.011021	0.009239	-1.085449	0.289307	-0.528076	0.192096	17.858780	117.625112
28385		-3.011708	0.012658	9.502690	-0.002470	-0.008540	0.006859	-1.093750	0.284180	-0.534424	0.193663	17.854362	117.626990
28386		-3.025270	0.020894	9.485211	-0.004911	-0.011369	0.009984	-1.084473	0.278809	-0.528809	0.194059	17.848178	117.632505
28387		-3.024384	0.020734	9.485494	-0.004075	-0.007259	0.007556	-1.085205	0.274658	-0.535400	0.194834	17.844492	117.634806
28388		-3.004128	0.026047	9.472272	-0.005680	-0.005978	0.008252	-1.081299	0.277832	-0.531494	0.194504	17.841456	117.634453
28389		-3.042796	0.014773	9.499307	-0.004051	-0.006327	0.008996	-1.086670	0.285156	-0.521484	0.195559	17.838302	117.637622
28390		-3.008072	0.011863	9.503843	-0.003252	-0.006005	0.006995	-1.086182	0.277832	-0.530518	0.196359	17.835174	117.638947
28391		-3.001921	0.047666	9.482792	-0.008115	-0.004026	0.006204	-1.087158	0.279785	-0.526855	0.194572	17.833343	117.640440
28392		-3.060198	0.030663	9.523264	-0.004894	-0.008512	0.008119	-1.076660	0.284912	-0.533447	0.194649	17.828791	117.640761
28393		-3.019961	0.041419	9.496726	-0.004988	-0.012238	0.002359	-1.090576	0.282715	-0.527832	0.193940	17.822263	117.639923
28394		-2.995910	-0.006191	9.422423	-0.001692	-0.009149	0.003419	-1.087891	0.286133	-0.532715	0.194996	17.817409	117.640532
28395		-3.013819	0.032701	9.456039	-0.003237	-0.003149	0.005128	-1.089844	0.280518	-0.533203	0.195805	17.816083	117.641379
28396		-3.038368	0.013100	9.500726	-0.004021	-0.000615	0.005263	-1.088623	0.286377	-0.529297	0.195875	17.816113	117.642166
28397		-3.003454	0.032245	9.515128	-0.004890	-0.003731	0.002945	-1.087402	0.280273	-0.523438	0.195336	17.814457	117.641699
28398		-2.998563	0.023490	9.474042	-0.004889	-0.003731	0.002945	-1.093994	0.281738	-0.526611	0.194452	17.812610	117.641026
28399		-3.036982	0.034464	9.510991	-0.001618	-0.001575	0.002564	-1.094971	0.274414	-0.536133	0.195718	17.812191	117.640334
28400		-3.018177	-0.004698	9.477655	-0.004081	-0.005334	0.004251	-1.084229	0.280273	-0.525391	0.195559	17.809453	117.636862
28401		-3.016642	0.039629	9.497788	-0.002439	-0.002828	0.003127	-1.083008	0.280762	-0.532227	0.196458	17.808315	117.636505
28402		-3.017052	0.017187	9.487836	-0.004020	-0.000615	0.005264	-1.087646	0.279541	-0.531494	0.196531	17.808326	117.636686
28403		-3.021977	0.003110	9.519088	-0.003236	-0.003149	0.005129	-1.081543	0.275635	-0.528564	0.197342	17.807000	117.637533
28404		-3.035648	0.033498	9.511421	-0.004068	-0.002478	0.002384	-1.084717	0.280273	-0.526123	0.196866	17.805962	117.634274
28405		-3.016380	0.016652	9.488050	-0.000786	-0.002246	0.005310	-1.091064	0.277344	-0.529785	0.199115	17.805153	117.635233
28406		-2.997116	-0.000289	9.464678	-0.006493	-0.002449	0.003643	-1.091309	0.276367	-0.541504	0.197463	17.804068	117.632712
28407		-3.029869	0.046856	9.480444	-0.000785	-0.002246	0.005310	-1.079102	0.284424	-0.528076	0.199712	17.803258	117.633670
28408		-3.015693	0.016110	9.488270	-0.004864	-0.002799	0.004387	-1.084473	0.280029	-0.535156	0.199171	17.802102	117.633048
28409		-3.019946	0.024145	9.529559	-0.004864	-0.002799	0.004387	-1.088135	0.281250	-0.532227	0.198912	17.800978	117.633449
28410		-3.014679	0.037764	9.498419	-0.004018	-0.000614	0.005265	-1.084229	0.285645	-0.532715	0.199011	17.801042	117.633207
28411		-3.010747	0.006951	9.447203	-0.003197	0.000639	0.004703	-1.086182	0.288330	-0.528320	0.199768	17.801887	117.633805
28412		-3.053365	0.048502	9.535296	-0.004851	0.000058	0.002520	-1.091064	0.277344	-0.531982	0.198861	17.802294	117.635553
28413		-3.015182	0.014691	9.488434	-0.004067	-0.002477	0.002384	-1.083008	0.282715	-0.534180	0.198691	17.801359	117.634750
28414		-3.013962	0.058990	9.508480	-0.003172	0.001570	0.006144	-1.088379	0.289063	-0.539063	0.199438	17.802655	117.634526
28415		-3.000623	0.005909	9.506203	-0.004043	-0.001545	0.003825	-1.081055	0.277832	-0.532959	0.199547	17.802250	117.634591
28416		-3.014405	0.036176	9.498512	-0.004103	-0.001483	-0.002364	-1.084961	0.281494	-0.529541	0.198209	17.801877	117.631606
28417		-3.020017	-0.000414	9.519711	-0.005647	-0.000264	0.004523	-1.086182	0.280273	-0.526855	0.197529	17.802205	117.632094
28418		-3.019974	-0.000630	9.519724	-0.001592	-0.000643	0.004006	-1.083008	0.281494	-0.530273	0.198765	17.802164	117.631464
28419		-3.014796	0.013044	9.488560	-0.004875	-0.000873	0.001079	-1.080811	0.281250	-0.528076	0.197893	17.802150	117.629878
28420		-3.034301	0.007264	9.502032	-0.001617	-0.001574	0.002565	-1.084717	0.283691	-0.532471	0.198862	17.801625	117.629606
28421		-3.019104	0.020997	9.529833	-0.003221	-0.000293	0.003263	-1.085449	0.283447	-0.529785	0.199340	17.801939	117.629336
28422		-2.999443	0.026115	9.516411	-0.006503	-0.000522	0.000337	-1.087158	0.291016	-0.523926	0.197100	17.802023	117.628080
28423		-2.994800	0.017413	9.475245	-0.003209	-0.002218	0.006571	-1.093994	0.283447	-0.533447	0.198192	17.801228	117.629797
28424		-3.018813	0.020072	9.529927	-0.003221	-0.000292	0.003263	-1.088379	0.283936	-0.523926	0.198341	17.801345	117.631023
28425		-3.009080	0.025387	9.457571	-0.003271	-0.002155	0.000382	-1.082764	0.286377	-0.527832	0.198258	17.800598	117.629016
28426		-3.033587	0.005643	9.502261	-0.004067	-0.002476	0.002385	-1.076660	0.276123	-0.525391	0.197762	17.799464	117.629738
28427		-3.028350	0.019295	9.471119	-0.003221	-0.000292	0.003263	-1.092041	0.277588	-0.531982	0.198240	17.799778	117.629469
28428		-3.018269	0.019016	9.530102	-0.003246	-0.001223	0.001823	-1.085449	0.284180	-0.524170	0.198147	17.799428	117.625376
28429		-3.032729	0.027085	9.512372	-0.004849	0.000059	0.002521	-1.082764	0.282715	-0.523438	0.197556	17.799945	117.624661
28430		-3.013079	0.032404	9.498947	-0.001592	-0.000643	0.004006	-1.086670	0.276855	-0.531738	0.198776	17.799836	117.625842
28431		-3.013485	0.010054	9.488980	-0.001667	-0.003436	-0.000317	-1.089600	0.274414	-0.530518	0.199483	17.798356	117.623412
28432		-3.017814	0.018103	9.530248	-0.005645	-0.000263	0.004524	-1.079834	0.277344	-0.523682	0.198524	17.798561	117.619554
28433		-3.013313	0.009482	9.489035	-0.001629	0.000351	-0.000742	-1.083008	0.281250	-0.527344	0.199177	17.799251	117.616875
28434		-3.017776	0.017598	9.530261	-0.003245	-0.001223	0.001823	-1.084229	0.280762	-0.526123	0.199074	17.798871	117.615359
28435		-3.032132	0.025618	9.512567	-0.005695	-0.002125	0.001643	-1.083984	0.285156	-0.525879	0.197835	17.798138	117.614110
28436		-3.017517	0.016784	9.530344	-0.004849	0.000059	0.002522	-1.085205	0.283936	-0.529053	0.196933	17.798473	117.614401
28437		-3.028170	-0.005860	9.461341	-0.005681	0.000732	-0.000224	-1.084473	0.276855	-0.528809	0.195359	17.799380	117.612035
28438		-3.012692	0.029979	9.499077	-0.000732	0.004396	0.003019	-1.087402	0.281006	-0.521973	0.196931	17.802246	117.610908
28439		-3.027286	0.038126	9.481309	-0.004924	-0.002733	-0.001802	-1.087646	0.284912	-0.534912	0.195499	17.801171	117.607585
28440		-2.998233	0.020930	9.516806	-0.004002	0.002242	0.003401	-1.083984	0.284668	-0.531250	0.195253	17.802765	117.607520
28441		-3.012991	0.029066	9.498986	-0.002411	0.002886	-0.000605	-1.090576	0.286621	-0.527100	0.195484	17.804907	117.604929
28442		-3.013163	0.028669	9.498932	-0.005681	0.000732	-0.000224	-1.078613	0.282959	-0.531250	0.193609	17.805655	117.604344
28443		-3.008183	0.042084	9.467717	-0.004860	0.001985	-0.000785	-1.076172	0.282715	-0.530273	0.192403	17.807281	117.601642
28444		-3.019296	-0.008456	9.519936	-0.004014	0.004168	0.000094	-1.083252	0.278076	-0.531250	0.191584	17.810119	117.601969
28445		-3.013980	0.027343	9.498677	-0.004014	0.004168	0.000094	-1.084229	0.279785	-0.534180	0.191026	17.812995	117.599801
28446		-3.034061	0.021367	9.511962	-0.005617	0.005450	0.000793	-1.081299	0.284424	-0.530762	0.189421	17.816539	117.596684
28447		-3.044515	0.021019	9.452857	-0.004014	0.004168	0.000094	-1.088379	0.282471	-0.537354	0.188864	17.819415	117.594516
28448		-3.015349	0.026107	9.498246	-0.003193	0.005421	-0.000467	-1.087646	0.277588	-0.533447	0.188411	17.822954	117.593226
28449		-3.002107	-0.004975	9.505735	-0.004807	0.008630	-0.003075	-1.090820	0.279541	-0.534424	0.186817	17.828392	117.589159
28450		-3.021430	0.033562	9.538969	-0.003128	0.010139	0.000551	-1.075439	0.281494	-0.528564	0.186590	17.834585	117.584670
28451		-3.037917	-0.002795	9.500879	-0.003167	0.006352	0.000975	-1.089844	0.281738	-0.533203	0.186680	17.838710	117.583036
28452		-3.037880	0.019153	9.510748	-0.003192	0.005421	-0.000467	-1.086914	0.289063	-0.530518	0.186217	17.842200	117.581243
28453		-3.039216	-0.003388	9.500463	-0.003127	0.010140	0.000551	-1.084229	0.283691	-0.535645	0.186254	17.848497	117.579362
28454		-3.039376	0.018466	9.510271	-0.004819	0.005773	-0.001209	-1.094238	0.280518	-0.530762	0.184715	17.852196	117.579448
28455		-3.005297	0.037587	9.524450	-0.001489	0.007861	0.004601	-1.088379	0.276611	-0.534912	0.186436	17.857179	117.580000
28456		-3.006523	0.015185	9.514201	-0.003191	0.005422	-0.000466	-1.080811	0.281250	-0.532959	0.185970	17.860613	117.574634
28457		-3.021450	0.023136	9.496314	-0.005665	0.003590	-0.002090	-1.087158	0.276367	-0.531006	0.184061	17.863162	117.571150
28458		-3.042090	-0.005013	9.499543	-0.001563	0.005070	0.000276	-1.085693	0.277100	-0.526367	0.184676	17.866444	117.567803
28459		-3.036917	0.030882	9.478255	-0.004793	0.006704	0.000233	-1.082275	0.275879	-0.527588	0.183696	17.870773	117.565723
28460		-3.057112	0.024954	9.491485	-0.003987	0.005099	0.001537	-1.081543	0.286621	-0.534668	0.183131	17.873970	117.561752
28461		-3.004420	0.005048	9.472214	-0.003987	0.005100	0.001537	-1.093262	0.276123	-0.528564	0.182853	17.877377	117.560453
28462		-3.077124	0.041087	9.514638	-0.001563	0.005070	0.000277	-1.076416	0.281006	-0.538818	0.183452	17.880610	117.558012
28463		-3.005253	0.004413	9.471950	-0.006485	0.002338	-0.001529	-1.079590	0.278320	-0.525391	0.181174	17.882440	117.554862
28464		-3.064417	-0.012759	9.512084	-0.004833	0.002916	0.000656	-1.083252	0.276611	-0.525391	0.180000	17.884543	117.554107
28465		-3.038846	0.050837	9.487513	-0.003190	0.005422	-0.000465	-1.082764	0.283447	-0.531738	0.179808	17.888139	117.551603
28466		-3.005625	0.025405	9.481705	-0.004027	0.001311	0.001959	-1.076660	0.275635	-0.537842	0.179300	17.889195	117.550540
28467		-3.045651	-0.008320	9.498399	-0.004857	0.001986	-0.000786	-1.085449	0.279053	-0.531738	0.178092	17.890821	117.547836
28468		-3.059151	0.043990	9.500708	-0.007281	0.002016	0.000474	-1.088135	0.278809	-0.526611	0.175494	17.892429	117.544616
28469		-3.044878	0.035101	9.518395	-0.003205	0.002564	0.001399	-1.086426	0.284668	-0.528564	0.175637	17.894383	117.543228
28470		-3.031830	-0.018142	9.515938	-0.004832	0.002917	0.000656	-1.082275	0.271729	-0.526367	0.174408	17.896289	117.541504
28471		-3.026216	0.017639	9.494808	-0.003279	-0.000226	-0.002927	-1.082764	0.277100	-0.528809	0.173706	17.896652	117.537506
28472		-3.040801	0.025722	9.477025	-0.004002	0.002241	0.003402	-1.088135	0.287354	-0.524414	0.173490	17.898221	117.533944
28473		-3.046230	0.011316	9.508089	-0.005662	0.003592	-0.002088	-1.083496	0.281738	-0.521240	0.171580	17.900770	117.530458
28474		-3.041300	0.024527	9.476868	-0.009729	0.001115	0.000292	-1.083740	0.288330	-0.529297	0.167444	17.901559	117.530975
28475		-3.013241	-0.015259	9.502201	-0.004816	0.005775	-0.001206	-1.087402	0.279053	-0.534668	0.166183	17.905357	117.528024
28476		-3.027481	0.014798	9.494410	-0.006508	0.001410	-0.002970	-1.088867	0.284668	-0.532227	0.163350	17.906512	117.525945
28477		-3.046775	0.030729	9.517803	-0.008085	0.003622	-0.000828	-1.083984	0.281982	-0.527344	0.160284	17.909074	117.523218
28478		-3.043108	-0.000563	9.466408	-0.007313	0.003016	-0.004272	-1.096436	0.287598	-0.529297	0.156736	17.911095	117.519999
28479		-3.027826	0.034596	9.504194	-0.009687	0.004904	-0.000127	-1.087891	0.281982	-0.530518	0.152882	17.914391	117.517696
28480		-3.043268	0.020116	9.476247	-0.004831	0.002917	0.000658	-1.084473	0.269287	-0.532959	0.151653	17.916285	117.517289
28481		-3.067916	0.022345	9.530722	-0.004018	0.006100	-0.003207	-1.087646	0.277588	-0.527832	0.150477	17.920271	117.513133
28482		-3.049814	-0.017336	9.497051	-0.010557	0.001792	-0.002452	-1.078857	0.281738	-0.526123	0.145438	17.921608	117.504476
28483		-3.010301	0.015126	9.480243	-0.007238	0.005805	0.000056	-1.084717	0.280762	-0.533691	0.143021	17.925419	117.502284
28484		-3.060017	0.003414	9.447873	-0.008889	0.005228	-0.002129	-1.085449	0.281738	-0.535400	0.138987	17.928754	117.500324
28485		-3.010816	0.035591	9.489985	-0.009693	0.006835	-0.003430	-1.084229	0.278809	-0.528076	0.134517	17.933160	117.496033
28486		-3.046206	0.015041	9.475312	-0.012945	0.007540	-0.004914	-1.085938	0.281494	-0.528320	0.127649	17.937824	117.490961
28487		-3.051658	0.022151	9.516262	-0.007227	0.010596	-0.005108	-1.080566	0.277832	-0.530762	0.124281	17.944387	117.485663
28488		-3.033206	0.004551	9.492593	-0.008959	0.002441	-0.006456	-1.087158	0.283447	-0.534912	0.119401	17.946098	117.479665
28489		-3.052721	0.020263	9.515925	-0.007268	0.006807	-0.004689	-1.081055	0.278076	-0.538330	0.116085	17.950488	117.474614
28490		-3.063750	-0.002886	9.446663	-0.013788	0.005359	-0.005796	-1.081299	0.278076	-0.534180	0.108599	17.954007	117.469662
28491		-3.029644	0.015223	9.460953	-0.008893	0.007160	-0.005430	-1.080566	0.283203	-0.529053	0.104214	17.958599	117.464164
28492		-3.030371	0.014049	9.460722	-0.011346	0.008192	-0.008915	-1.074951	0.279785	-0.530029	0.097525	17.963667	117.457986
28493		-3.056106	-0.006735	9.504924	-0.008851	0.010950	-0.005846	-1.083252	0.281250	-0.529541	0.093087	17.970431	117.452240
28494		-3.056405	0.014369	9.514753	-0.011314	0.007189	-0.004169	-1.080078	0.288818	-0.524902	0.087289	17.974893	117.449180
28495		-3.038720	-0.025500	9.480900	-0.007224	0.010598	-0.005102	-1.087891	0.283203	-0.524902	0.083919	17.981454	117.443881
28496		-3.028247	0.045775	9.438563	-0.014546	0.010757	-0.007511	-1.088623	0.277832	-0.533691	0.075590	17.987794	117.441670
28497		-3.010282	0.027804	9.414733	-0.008055	0.013211	-0.011146	-1.082764	0.281494	-0.524658	0.070618	17.995855	117.432729
28498		-3.036621	0.006621	9.458726	-0.016936	0.018441	-0.013270	-1.088135	0.280762	-0.530029	0.059888	18.006673	117.422412
28499		-3.063259	-0.014818	9.502612	-0.012063	0.019316	-0.014342	-1.079834	0.283203	-0.532471	0.052021	18.018231	117.411547
28500		-3.059355	0.019858	9.481035	-0.012061	0.019317	-0.014341	-1.088623	0.276123	-0.531006	0.043889	18.029605	117.402680
28501		-3.061741	-0.004020	9.470314	-0.013683	0.019672	-0.015081	-1.076660	0.283447	-0.534424	0.034950	18.041363	117.391365
28502		-3.088560	-0.025312	9.514120	-0.011212	0.021502	-0.013451	-1.085449	0.282471	-0.536377	0.027481	18.054024	117.381762
28503		-3.031424	-0.010032	9.473517	-0.013675	0.017739	-0.011777	-1.083984	0.285400	-0.525879	0.019158	18.064672	117.372432
28504		-3.071544	0.021750	9.519855	-0.007959	0.020799	-0.011962	-1.091553	0.274414	-0.530762	0.013798	18.076855	117.366695
28505		-3.063705	0.026135	9.446863	-0.015276	0.022893	-0.017672	-1.084961	0.276611	-0.530273	0.003449	18.090454	117.353808
28506		-2.978356	0.024257	9.441635	-0.012744	0.031379	-0.018307	-1.080811	0.287109	-0.531250	-0.005836	18.108637	117.337984
28507		-3.049808	0.027966	9.431688	-0.014342	0.036535	-0.024198	-1.086182	0.281250	-0.531250	-0.016883	18.130046	117.321154
28508		-3.083541	-0.007986	9.506001	-0.015115	0.039074	-0.024047	-1.082031	0.278809	-0.527588	-0.028627	18.152681	117.308831
28509		-3.087073	-0.010160	9.504853	-0.015150	0.035286	-0.023632	-1.084229	0.276367	-0.526123	-0.040047	18.173369	117.292330
28510		-3.084677	0.024155	9.482848	-0.011095	0.034912	-0.024140	-1.077148	0.277344	-0.531738	-0.049532	18.193501	117.274906
28511		-3.049230	0.011279	9.445014	-0.015114	0.038157	-0.025474	-1.082031	0.283447	-0.534668	-0.061294	18.215827	117.257280
28512		-3.028048	0.028950	9.399460	-0.012638	0.041930	-0.027131	-1.074951	0.280029	-0.533447	-0.072209	18.240137	117.241000
28513		-3.072170	-0.006729	9.414438	-0.011791	0.049009	-0.037563	-1.083984	0.281250	-0.532959	-0.084374	18.268664	117.216058
28514		-3.121301	-0.012266	9.480566	-0.012504	0.054333	-0.033073	-1.079102	0.282959	-0.528076	-0.096368	18.300044	117.196617
28515		-3.086655	-0.002901	9.452519	-0.008529	0.046377	-0.032761	-1.078369	0.281250	-0.531006	-0.105783	18.327058	117.174555
28516		-3.057662	-0.029756	9.445403	-0.010070	0.053397	-0.035750	-1.083984	0.271973	-0.531006	-0.116948	18.357786	117.154607
28517		-2.977873	0.026587	9.370111	-0.023936	0.048388	-0.045070	-1.084473	0.279785	-0.539551	-0.137561	18.385927	117.125092
28518		-3.175826	-0.063974	9.449058	-0.014792	0.064927	-0.040609	-1.082520	0.284424	-0.529541	-0.152364	18.423283	117.098570
28519		-3.142230	-0.032564	9.430753	-0.005822	0.067306	-0.039267	-1.072998	0.276611	-0.531250	-0.161543	18.462258	117.072501
28520		-3.153409	-0.026411	9.469906	-0.008275	0.063538	-0.037601	-1.080566	0.277344	-0.538330	-0.172113	18.498742	117.050917
28521		-3.150670	-0.095062	9.496555	-0.004298	0.054567	-0.032556	-1.083252	0.283691	-0.534424	-0.179163	18.530422	117.028902
28522		-3.220639	-0.149500	9.555176	0.006234	0.051781	-0.025332	-1.077881	0.273193	-0.533936	-0.179071	18.560246	117.016168
28523		-3.145380	-0.081814	9.521496	0.015841	0.040233	-0.022937	-1.087402	0.276611	-0.538086	-0.172745	18.583729	116.999987
28524		-3.157877	-0.058112	9.471422	0.022278	0.035037	-0.019546	-1.067139	0.279297	-0.526611	-0.162347	18.603931	116.986809
28525		-3.180318	-0.040069	9.493747	0.023826	0.028022	-0.016550	-1.075684	0.273682	-0.538574	-0.150217	18.620433	116.974514
28526		-3.176867	-0.001714	9.472141	0.029411	0.019712	-0.015498	-1.080078	0.276855	-0.541260	-0.134953	18.631898	116.962984
28527		-3.207212	-0.005204	9.425712	0.022810	0.009722	-0.017285	-1.081299	0.278809	-0.536865	-0.123542	18.637920	116.950277
28528		-3.184860	-0.056545	9.482182	0.025982	0.003372	-0.018275	-1.075928	0.272705	-0.542480	-0.110760	18.640064	116.940947
28529		-3.164867	-0.026741	9.479201	0.023488	-0.002351	-0.013339	-1.073242	0.275635	-0.537598	-0.098193	18.639178	116.930642
28530		-3.218346	-0.050230	9.477637	0.025011	-0.011221	-0.013230	-1.076904	0.282959	-0.532715	-0.084963	18.633057	116.920741
28531		-3.182583	-0.028934	9.493029	0.019258	-0.018100	-0.012676	-1.072754	0.268311	-0.531250	-0.074686	18.623152	116.910850
28532		-3.155795	-0.030037	9.439343	0.014352	-0.021864	-0.009783	-1.082520	0.278564	-0.531250	-0.066930	18.610784	116.903495
28533		-3.158720	-0.020856	9.481266	0.014324	-0.024732	-0.007935	-1.073486	0.275146	-0.537598	-0.058561	18.597085	116.896474
28534		-3.171236	-0.055557	9.443902	0.017569	-0.025513	-0.000262	-1.074219	0.273193	-0.529297	-0.047112	18.582681	116.896590
28535		-3.094840	-0.023115	9.433305	0.012668	-0.028178	-0.008274	-1.079590	0.281250	-0.531006	-0.039754	18.567009	116.889362
28536		-3.145676	0.019275	9.462799	0.014348	-0.023885	-0.000310	-1.083984	0.278320	-0.532715	-0.030167	18.553508	116.888619
28537		-3.149176	-0.015617	9.484450	0.015999	-0.021364	-0.001408	-1.075439	0.279785	-0.541016	-0.019579	18.541744	116.885534
28538		-3.127494	-0.031003	9.461898	0.009458	-0.025623	-0.006875	-1.078125	0.278076	-0.536133	-0.014026	18.527362	116.882418
28539		-3.138965	0.022475	9.465020	0.011097	-0.024030	-0.009417	-1.072021	0.277344	-0.535889	-0.007783	18.514070	116.874493
28540		-3.102994	-0.023851	9.450292	0.010253	-0.027144	-0.011748	-1.079346	0.276855	-0.524170	-0.002696	18.498845	116.866203
28541		-3.100426	-0.023247	9.451136	0.010256	-0.027143	-0.011745	-1.077393	0.273193	-0.537354	0.002622	18.483772	116.856870
28542		-3.088971	-0.067484	9.490854	0.007795	-0.028898	-0.019555	-1.078369	0.278320	-0.532471	0.004803	18.467476	116.842762
28543		-3.128141	0.024009	9.468600	0.004449	-0.038576	-0.024553	-1.081543	0.282227	-0.531006	0.004350	18.445853	116.825692
28544		-3.090360	-0.001251	9.464448	0.005189	-0.044735	-0.036630	-1.084473	0.270996	-0.534912	0.001790	18.420509	116.803171
28545		-3.077207	-0.001774	9.524718	0.013401	-0.033983	-0.045023	-1.072754	0.266113	-0.540283	0.002577	18.401517	116.773746
28546		-3.035648	0.009734	9.498965	0.016844	-0.011819	-0.052150	-1.084473	0.280029	-0.531006	0.003780	18.395095	116.738651
28547		-3.075639	-0.045840	9.505194	0.026012	0.014280	-0.051833	-1.077881	0.279541	-0.525635	0.010502	18.403758	116.705117
28548		-3.092416	-0.014029	9.496586	0.035179	0.040384	-0.051513	-1.079590	0.276367	-0.541748	0.022298	18.427175	116.673216
28549		-3.117478	-0.062371	9.488037	0.037026	0.063665	-0.045600	-1.081543	0.271973	-0.533447	0.036499	18.464144	116.643458
28550		-3.124342	-0.060231	9.485792	0.034774	0.081573	-0.035485	-1.079590	0.273438	-0.529297	0.051115	18.511223	116.620226
28551		-3.098444	-0.015530	9.507824	0.039027	0.099970	-0.019496	-1.082520	0.266357	-0.529297	0.071440	18.568994	116.606271
28552		-3.138175	-0.040206	9.448396	0.040894	0.123195	-0.007391	-1.076660	0.270020	-0.545166	0.094943	18.639856	116.599204
28553		-3.116233	-0.016576	9.459161	0.044336	0.137727	-0.007480	-1.075439	0.281494	-0.533691	0.120632	18.719258	116.592598
28554		-3.149603	0.003936	9.477783	0.045365	0.153210	-0.004875	-1.069336	0.274902	-0.539551	0.147207	18.807365	116.588073
28555		-3.187649	0.016306	9.395738	0.046300	0.158238	0.000405	-1.075195	0.276855	-0.537842	0.175579	18.898512	116.586347
28556		-3.174382	-0.017978	9.416602	0.044828	0.165220	0.003637	-1.073730	0.271240	-0.542725	0.203539	18.993473	116.586765
28557		-3.257840	0.035484	9.421342	0.039206	0.164025	0.006721	-1.069824	0.268799	-0.542480	0.229125	19.087923	116.588971
28558		-3.298429	0.019640	9.460170	0.034287	0.157350	0.017670	-1.072021	0.274902	-0.537109	0.253862	19.178341	116.597482
28559		-3.267057	0.048469	9.398230	0.026029	0.139155	0.014523	-1.077881	0.264893	-0.549072	0.273467	19.258520	116.604438
28560		-3.313345	0.031456	9.378811	0.023387	0.120181	0.017813	-1.064941	0.276855	-0.537109	0.291999	19.327628	116.613100
28561		-3.230724	0.049272	9.341294	0.027449	0.116982	0.019232	-1.067871	0.267578	-0.545898	0.313379	19.395084	116.622909
28562		-3.267625	0.032965	9.381373	0.033334	0.123055	0.011157	-1.068604	0.268311	-0.541260	0.336310	19.465862	116.627715
28563		-3.284959	0.022749	9.408412	0.036618	0.122398	0.012723	-1.067383	0.271729	-0.538330	0.361675	19.536435	116.633653
28564		-3.336330	0.015344	9.430111	0.039903	0.121742	0.014293	-1.060303	0.264404	-0.541992	0.389042	19.606444	116.640357
28565		-3.314159	0.061667	9.451180	0.037631	0.130332	0.016196	-1.054932	0.266846	-0.537598	0.415749	19.681544	116.648518
28566		-3.340698	0.051420	9.418570	0.033689	0.134527	0.016296	-1.063477	0.269775	-0.540771	0.440030	19.758868	116.656585
28567		-3.367189	0.063585	9.395840	0.036850	0.130942	0.025892	-1.061035	0.263672	-0.545166	0.468337	19.834267	116.670732
28568		-3.392806	0.075522	9.373346	0.027795	0.117178	0.019501	-1.063232	0.268799	-0.542969	0.489923	19.901628	116.680755
28569		-3.377001	0.120530	9.335711	0.026789	0.102632	0.018379	-1.057861	0.275146	-0.541016	0.510910	19.960834	116.690250
28570		-3.383860	0.087777	9.412985	0.026539	0.081781	0.011334	-1.064209	0.272217	-0.546387	0.530050	20.007953	116.695167
28571		-3.412436	0.120563	9.342775	0.024659	0.064077	0.007838	-1.061279	0.272949	-0.548584	0.547572	20.045120	116.698061
28572		-3.478623	0.163474	9.308751	0.014413	0.029076	-0.003710	-1.057617	0.266846	-0.538818	0.556530	20.062124	116.693517
28573		-3.498989	0.135825	9.311423	-0.001052	-0.022084	-0.012709	-1.064941	0.265625	-0.549072	0.554853	20.050040	116.683381
28574		-3.507200	0.129401	9.384982	-0.009829	-0.065989	-0.024134	-1.058350	0.268799	-0.541504	0.545471	20.012695	116.665827
28575		-3.512674	0.090608	9.350014	-0.017032	-0.114029	-0.034363	-1.051270	0.270020	-0.548340	0.529963	19.948046	116.641973
28576		-3.398763	0.080336	9.371148	-0.020686	-0.141860	-0.035952	-1.066895	0.275146	-0.545654	0.511815	19.867292	116.616840
28577		-3.343224	0.052987	9.430915	-0.018294	-0.147579	-0.033420	-1.069336	0.264404	-0.548584	0.495800	19.783404	116.593445
28578		-3.337802	0.072199	9.386371	-0.015640	-0.139001	-0.033934	-1.062988	0.272949	-0.539795	0.481057	19.704264	116.569625
28579		-3.344403	0.041701	9.394046	-0.014079	-0.145983	-0.030867	-1.067383	0.276611	-0.541016	0.468068	19.621267	116.547861
28580		-3.310455	0.089630	9.406014	-0.015738	-0.152280	-0.029324	-1.063965	0.268066	-0.539063	0.454273	19.534487	116.526852
28581		-3.295961	0.064680	9.401200	-0.019781	-0.156627	-0.029842	-1.061523	0.269287	-0.542969	0.438292	19.445376	116.505727
28582		-3.280723	0.039454	9.396619	-0.023138	-0.168313	-0.025352	-1.065918	0.268066	-0.545166	0.421122	19.349383	116.487123
28583		-3.324372	0.064139	9.460942	-0.015741	-0.170229	-0.025655	-1.066895	0.261719	-0.542480	0.408368	19.252451	116.468557
28584		-3.302512	0.053378	9.425600	-0.015690	-0.173980	-0.025168	-1.070557	0.267822	-0.542725	0.395578	19.153202	116.450108
28585		-3.328502	0.120223	9.397050	-0.005806	-0.179569	-0.038625	-1.072510	0.261475	-0.539307	0.386012	19.050962	116.423705
28586		-3.331551	0.135457	9.425973	0.011502	-0.176643	-0.055150	-1.069336	0.266602	-0.541504	0.382964	18.950301	116.387138
28587		-3.149218	0.042425	9.458145	0.013906	-0.196451	-0.061820	-1.072021	0.273193	-0.532471	0.380228	18.838473	116.346669
28588		-3.212945	0.076346	9.446575	0.006698	-0.201021	-0.065198	-1.076660	0.272461	-0.532959	0.372593	18.723879	116.304046
28589		-3.063102	-0.014800	9.473547	0.008468	-0.200353	-0.062896	-1.074707	0.261475	-0.539551	0.366707	18.609811	116.262991
28590		-3.087429	0.052452	9.445625	-0.002778	-0.197127	-0.054284	-1.082031	0.265381	-0.534424	0.355935	18.497397	116.227017
28591		-3.045165	-0.024077	9.498875	-0.005096	-0.198053	-0.048213	-1.083740	0.270264	-0.535156	0.345268	18.384582	116.194933
28592		-2.972935	0.021531	9.515880	-0.020368	-0.185916	-0.044672	-1.073242	0.265137	-0.537842	0.326417	18.278538	116.164905
28593		-2.984871	0.078640	9.505322	-0.027514	-0.170681	-0.042551	-1.084473	0.268066	-0.531006	0.304149	18.181370	116.136439
28594		-3.057410	0.028393	9.494740	-0.029828	-0.158184	-0.053391	-1.084717	0.270996	-0.531494	0.278405	18.091217	116.101377
28595		-3.003692	-0.014561	9.584160	-0.038673	-0.153004	-0.055472	-1.089111	0.270752	-0.534912	0.247471	18.004186	116.065298
28596		-2.984453	-0.028972	9.547498	-0.058058	-0.149235	-0.039676	-1.083252	0.266846	-0.528320	0.208249	17.919085	116.038689
28597		-2.883550	-0.056277	9.536800	-0.061164	-0.126023	-0.025189	-1.086670	0.267334	-0.534912	0.170189	17.847412	116.021046
28598		-2.876096	-0.033210	9.591564	-0.083821	-0.124391	-0.015155	-1.091064	0.264160	-0.527588	0.120841	17.776469	116.009316
28599		-2.915016	-0.031298	9.572562	-0.082104	-0.084122	-0.008184	-1.089111	0.264893	-0.523438	0.073994	17.728760	116.002080
28600		-2.878056	-0.078687	9.600214	-0.103138	-0.075268	0.001752	-1.087646	0.269531	-0.536377	0.016739	17.685923	116.000621
28601		-2.866020	-0.075609	9.571138	-0.131428	-0.077773	0.016765	-1.087646	0.269043	-0.533447	-0.053774	17.641842	116.008491
28602		-2.869592	-0.087808	9.514120	-0.135396	-0.062343	0.021814	-1.093750	0.270508	-0.526123	-0.125832	17.606428	116.019274
28603		-2.819784	-0.169272	9.548430	-0.147374	-0.061576	0.041932	-1.085693	0.269531	-0.524170	-0.200894	17.571688	116.042356
28604		-2.838862	-0.151494	9.483552	-0.148843	-0.062312	0.052150	-1.095703	0.274414	-0.524658	-0.275150	17.536374	116.071425
28605		-2.836419	-0.111819	9.546939	-0.148741	-0.074546	0.052039	-1.074951	0.269531	-0.517090	-0.349158	17.494292	116.100707
28606		-2.838152	-0.080389	9.510773	-0.159977	-0.098603	0.049920	-1.093750	0.280273	-0.519531	-0.430171	17.438246	116.128680
28607		-2.831544	-0.065160	9.565409	-0.174532	-0.126431	0.033021	-1.089600	0.275146	-0.521729	-0.522317	17.366426	116.146910
28608		-2.799224	-0.075282	9.555557	-0.180108	-0.144359	0.022700	-1.092529	0.278564	-0.523193	-0.619663	17.284089	116.158988
28609		-2.760726	-0.094187	9.504826	-0.189782	-0.168324	0.002882	-1.090332	0.284424	-0.519531	-0.725795	17.188125	116.159675
28610		-2.728941	-0.077139	9.547519	-0.201833	-0.173453	-0.011508	-1.100342	0.276611	-0.520264	-0.841507	17.088892	116.151794
28611		-2.790529	-0.003645	9.527385	-0.206085	-0.170232	-0.051004	-1.093506	0.286133	-0.521973	-0.966320	16.991351	116.120615
28612		-2.749962	-0.100538	9.576623	-0.202930	-0.157995	-0.073791	-1.095947	0.275635	-0.514893	-1.093417	16.900293	116.075694
28613		-2.651066	-0.208286	9.531558	-0.197431	-0.099881	-0.082761	-1.104736	0.279297	-0.524658	-1.218809	16.842555	116.025133
28614		-2.667947	-0.227784	9.587956	-0.186328	-0.028566	-0.082306	-1.099854	0.279785	-0.524658	-1.338156	16.825333	115.973823
28615		-2.713918	-0.243743	9.524907	-0.174551	0.045971	-0.085652	-1.096436	0.285645	-0.518555	-1.451452	16.850896	115.919667
28616		-2.553970	-0.199526	9.613807	-0.150727	0.130681	-0.085678	-1.090576	0.282227	-0.517578	-1.551743	16.924635	115.863913
28617		-2.006432	-0.425534	9.527062	-0.115295	0.332178	-0.079279	-1.095703	0.291504	-0.521729	-1.631570	17.114042	115.808666
28618		-2.189022	-0.355475	9.632128	-0.064582	0.773445	-0.047269	-1.087891	0.281738	-0.522705	-1.679477	17.556367	115.764460
28619		-2.470035	-0.357800	9.776599	0.000898	1.026597	-0.039099	-1.082275	0.286621	-0.535400	-1.690028	18.144065	115.720524
28620		-2.475229	-0.320782	10.014876	0.090318	1.245794	-0.032178	-1.070313	0.285400	-0.535645	-1.649914	18.857117	115.676689
28621		-2.416082	-0.344948	10.172734	0.177719	1.499611	-0.018511	-1.056152	0.283936	-0.544434	-1.558560	19.716115	115.637711
28622		-2.642876	-0.440158	9.926716	0.293293	1.772756	-0.012031	-1.049561	0.281494	-0.548340	-1.401298	20.731374	115.599913
28623		-2.331770	-0.031690	10.419698	0.353731	2.085359	0.004791	-1.036865	0.288574	-0.556152	-1.206594	21.926378	115.571382
28624		-2.728048	-0.337525	10.102386	0.322203	2.456748	0.058446	-1.012451	0.276123	-0.572754	-1.018096	23.334392	115.575489
28625		-3.016582	-0.077456	9.893202	0.362077	2.772628	0.062228	-1.005615	0.271729	-0.575195	-0.804528	24.923799	115.584533
28626		-3.066234	0.234721	10.045952	0.275870	3.064895	0.047541	-0.975098	0.269287	-0.595947	-0.642839	26.680031	115.587507
28627		-3.291715	0.274734	10.041294	0.188663	3.390924	0.024094	-0.945557	0.269775	-0.608643	-0.536691	28.623381	115.578114
28628		-3.280976	0.047810	10.178324	0.178722	3.808743	-0.032596	-0.925537	0.262451	-0.610352	-0.454714	30.805289	115.532130
28629		-2.995484	-0.220717	10.329950	0.354137	4.431056	-0.052475	-0.891113	0.265381	-0.625000	-0.279749	33.344314	115.474942
28630		-3.435493	-0.543908	9.851990	0.443775	5.081216	-0.065963	-0.844238	0.259521	-0.639160	-0.056919	36.255301	115.415577
28631		-3.023695	-0.355853	9.916719	0.477129	5.799147	0.016626	-0.799316	0.260010	-0.644531	0.228582	39.578427	115.431270
28632		-4.523546	-0.195545	8.966945	0.449178	6.485120	0.092606	-0.753662	0.261719	-0.658936	0.555627	43.293328	115.532684
28633		-4.299403	-0.248494	8.508664	0.482719	7.065491	0.128006	-0.685547	0.251465	-0.656494	0.960959	47.340737	115.710120
28634		-4.345645	-0.311503	7.972676	0.612206	7.769349	0.150462	-0.617920	0.254150	-0.660156	1.526139	51.788884	115.988090
28635		-4.981053	-0.476403	6.854033	0.869365	8.524103	0.145780	-0.558838	0.243164	-0.663330	2.370576	56.667735	116.411223
28636		-4.232713	-0.582814	7.298904	1.218599	9.248826	0.086537	-0.477295	0.227783	-0.650879	3.617906	61.956617	117.045526
28637		-5.103796	-0.637007	5.715094	1.655359	10.095988	0.066029	-0.402832	0.220947	-0.627686	5.640142	67.720138	118.226831
28638		-5.345558	-1.134182	3.876281	1.793528	10.687694	0.266340	-0.324463	0.204346	-0.592285	9.393597	73.772398	121.106236
28639		-7.311996	0.485793	3.263243	2.012800	10.912472	-0.053107	-0.248047	0.195557	-0.552979	16.382181	79.883081	127.086824
28640		-33.700491	-0.586574	31.122256	1.743865	6.791262	-1.327594	-0.203125	0.189941	-0.532227	21.058055	83.814337	130.795702
28641		-13.512969	-0.001584	33.282779	1.766063	1.733249	-1.746525	-0.189453	0.190186	-0.523926	15.480749	85.074256	124.173422
28642		-11.820032	2.276791	30.413045	1.710876	0.172602	-1.603853	-0.180908	0.190430	-0.526611	5.863715	85.340893	113.536036
28643		-7.014812	4.547512	23.742711	1.152118	-1.218239	-1.703203	-0.195313	0.178223	-0.542236	-4.737772	84.649664	102.229382
28644		-6.700403	4.847489	19.927810	0.483466	-2.147167	-1.621026	-0.213867	0.180420	-0.552979	-11.535060	83.293898	95.112771
28645		-6.509842	3.979775	17.547693	0.045502	-2.928723	-1.506532	-0.239258	0.207764	-0.551758	-14.932099	81.461974	91.657180
28646		-6.588730	3.589327	15.970788	-0.123989	-3.565405	-1.352550	-0.269043	0.198975	-0.574707	-16.175628	79.281245	90.464196
28647		-6.204394	3.344841	13.652532	-0.137808	-4.105802	-1.156014	-0.289795	0.216064	-0.576416	-16.171911	76.837269	90.546238
28648		-5.532679	3.033884	11.011019	-0.072728	-4.495971	-0.956945	-0.322266	0.228516	-0.586670	-15.529226	74.204027	91.248479
28649		-4.640880	2.325082	7.964452	0.026772	-4.763835	-0.774946	-0.333252	0.232666	-0.599854	-14.609340	71.452793	92.192436
28650		-3.776945	1.889709	5.153671	0.216899	-4.805406	-0.628553	-0.356445	0.229004	-0.620117	-13.595324	68.688927	93.133788
28651		-3.474515	1.658344	3.730844	0.407578	-4.689789	-0.456077	-0.379639	0.227295	-0.632080	-12.519574	66.012221	94.043494
28652		-3.230408	1.171337	3.015244	0.647704	-4.504538	-0.257496	-0.400146	0.218018	-0.659912	-11.322034	63.450616	94.951986
28653		-3.248696	0.666444	3.596247	0.926181	-4.252147	-0.048097	-0.434570	0.203613	-0.685303	-9.988150	61.051241	95.856579
28654		-3.868350	0.565010	5.257301	1.169009	-4.041506	0.163469	-0.471436	0.189697	-0.701172	-8.513550	58.774914	96.781053
28655		-4.433278	0.725631	7.011438	1.303662	-3.963714	0.364000	-0.501465	0.171631	-0.723877	-6.958090	56.552746	97.734818
28656		-4.829160	0.940503	8.534000	1.293330	-3.986879	0.556273	-0.532471	0.161621	-0.735596	-5.397746	54.310013	98.723838
28657		-5.424833	0.884496	9.777533	1.153391	-4.068987	0.745884	-0.569824	0.148438	-0.747314	-3.915802	52.021281	99.746404
28658		-5.973068	0.642132	10.513694	0.944574	-4.181505	0.908256	-0.620361	0.129150	-0.757813	-2.567744	49.652551	100.780711
28659		-6.491429	0.130030	10.757522	0.713765	-4.276308	1.052365	-0.664063	0.119385	-0.767334	-1.383676	47.224974	101.813072
28660		-6.975114	-0.581784	10.737097	0.498639	-4.353845	1.140852	-0.708740	0.118652	-0.766113	-0.379425	44.734424	102.805663
28661		-7.425071	-1.355388	10.689204	0.338101	-4.413892	1.171232	-0.772217	0.110107	-0.771484	0.449513	42.205450	103.725209
28662		-7.877199	-2.118286	10.417042	0.270909	-4.454359	1.150088	-0.815918	0.112549	-0.759033	1.147397	39.637950	104.546738
28663		-8.230397	-2.619998	10.224474	0.293958	-4.461963	1.095345	-0.867920	0.111816	-0.746582	1.761728	37.066816	105.261259
28664		-8.709705	-2.941682	10.339655	0.398738	-4.426576	1.017952	-0.920654	0.111572	-0.728027	2.346932	34.504928	105.864104
28665		-9.209833	-2.818138	10.951968	0.570236	-4.391386	0.970248	-0.963867	0.110840	-0.689453	2.962305	31.966358	106.386146
28666		-9.949764	-2.127817	11.812805	0.712426	-4.400316	0.953295	-1.002197	0.114258	-0.670654	3.610350	29.411755	106.848459
28667		-10.509809	-1.176305	12.501301	0.714743	-4.427571	0.970224	-1.038574	0.123047	-0.648438	4.225077	26.843500	107.278391
28668		-11.189957	-0.112249	13.149691	0.542817	-4.435613	0.974636	-1.083008	0.111084	-0.628418	4.709553	24.260266	107.672311
28669		-12.451869	1.062911	13.831700	0.240631	-4.440719	1.001286	-1.114502	0.125000	-0.604004	5.000011	21.677139	108.057014
28670		-13.498945	2.123044	13.706169	-0.143144	-4.478397	1.044494	-1.144043	0.125488	-0.578369	5.057778	19.062880	108.449319
28671		-14.405672	2.880238	12.949054	-0.563252	-4.500265	1.094875	-1.176270	0.129639	-0.562012	4.865443	16.440471	108.869160
28672		-14.990568	3.239790	11.488106	-0.933101	-4.471627	1.131839	-1.217285	0.149170	-0.526367	4.451400	13.828923	109.319647
28673		-15.317402	3.220357	9.620925	-1.170199	-4.362756	1.163026	-1.252197	0.169189	-0.498047	3.890317	11.288027	109.812102
28674		-15.468656	2.697583	7.713713	-1.244665	-4.161196	1.175249	-1.274414	0.176270	-0.471680	3.272361	8.861736	110.340066
28675		-15.186359	1.971841	5.892999	-1.138105	-3.872706	1.162502	-1.301270	0.187500	-0.439941	2.696985	6.611745	110.892589
28676		-14.854321	1.230952	4.505641	-0.891757	-3.510747	1.110711	-1.311035	0.200928	-0.412598	2.242259	4.570670	111.441179
28677		-14.421392	0.485997	3.698383	-0.562522	-3.120603	1.027573	-1.339844	0.208984	-0.389893	1.955707	2.762873	111.962997
28678		-14.028713	-0.151117	3.531486	-0.219850	-2.721043	0.889575	-1.344482	0.217285	-0.367188	1.848108	1.184483	112.417958
28679		-13.787703	-0.610303	3.971369	0.090202	-2.373806	0.734542	-1.365723	0.217529	-0.338623	1.905446	-0.188124	112.791951
28680		-13.757694	-0.847282	4.287056	0.368295	-2.100439	0.602890	-1.370117	0.224609	-0.330811	2.114888	-1.405521	113.092171
28681		-13.757982	-0.591093	3.604317	0.505293	-1.886562	0.485132	-1.388672	0.220703	-0.307373	2.398871	-2.495993	113.325379
28682		-10.852252	0.372489	-6.563439	0.445559	-1.255928	0.393408	-1.376953	0.218506	-0.298584	2.647125	-3.226620	113.516479
28683		-13.985931	0.868263	-4.752923	0.255599	0.448668	0.342930	-1.383057	0.225830	-0.301758	2.784790	-2.978578	113.723130
28684		-14.530103	2.535480	-8.159592	-0.176538	1.042889	0.255857	-1.380615	0.226074	-0.314209	2.678096	-2.389880	113.895734
28685		-14.948032	2.432294	-9.283891	-0.613030	2.173222	0.233493	-1.377441	0.243652	-0.330078	2.323497	-1.151174	114.081705
28686		-15.518077	2.866929	-7.515831	-0.898657	3.124990	0.309170	-1.358887	0.241943	-0.360352	1.810170	0.631318	114.321013
28687		-1.363739	1.234244	6.341026	-0.892721	2.863953	0.404794	-1.351318	0.253418	-0.376465	1.307984	2.265853	114.595472
28688		-2.181347	0.263009	15.640747	-0.485273	3.165236	0.739782	-1.330811	0.262451	-0.402344	1.058129	4.070236	115.055226
28689		-2.565413	-0.424206	16.637287	-0.302231	3.100110	0.876449	-1.327148	0.281738	-0.412109	0.933370	5.837994	115.588042
28690		-2.747200	-2.499909	7.947808	-0.466101	3.058434	0.619540	-1.295654	0.283447	-0.443848	0.713551	7.585089	115.968631
28691		-3.271565	-6.256601	6.130167	-0.317218	3.004582	0.487737	-1.287598	0.290039	-0.457275	0.578241	9.303828	116.268597
28692		-4.451865	-9.562103	10.191915	-0.330772	3.124632	0.187069	-1.271240	0.296143	-0.475586	0.412920	11.093230	116.391022
28693		-8.680661	-8.296072	17.300483	-0.157563	2.882336	-0.048672	-1.255371	0.296143	-0.499512	0.320937	12.745318	116.371166
28694		-6.655745	-2.519516	16.032902	-0.015612	2.327350	-0.194596	-1.243164	0.309570	-0.510986	0.288610	14.079681	116.261448
28695		-8.032694	4.907751	17.647799	-0.025442	2.155603	-0.100056	-1.223633	0.307373	-0.519287	0.262398	15.315495	116.206131
28696		-9.197083	11.546429	22.202098	-0.567061	1.779455	0.165422	-1.220947	0.315186	-0.535156	-0.033588	16.335339	116.304387
28697		-14.070904	0.710547	21.666527	-1.073119	0.555316	-0.138306	-1.210938	0.323242	-0.537354	-0.670712	16.653476	116.217489
28698		-1.187629	-6.202420	8.068877	-0.496214	0.003027	-0.128853	-1.209229	0.325684	-0.532227	-0.975304	16.654895	116.138235
28699		-2.456930	-0.412208	10.321945	-0.074075	0.476239	0.063242	-1.215576	0.322021	-0.534912	-1.006478	16.928781	116.168925
28700		-5.020699	0.813130	11.799930	0.000658	0.451766	-0.075466	-1.211670	0.327637	-0.541260	-1.019163	17.187504	116.116639
28701		-3.662273	-1.190689	10.595186	0.005789	0.340969	-0.093816	-1.203369	0.319336	-0.547607	-1.031920	17.382306	116.054460
28702		-3.432539	-0.135212	10.294894	0.080606	0.349749	-0.072082	-1.206299	0.325439	-0.546387	-0.998270	17.582668	116.005170
28703		-3.405002	-0.151877	10.322124	0.029240	0.352756	-0.095587	-1.195313	0.321533	-0.549561	-0.998375	17.784233	115.941763
28704		-3.465815	-0.495113	10.066480	0.023883	0.294628	-0.080306	-1.196289	0.324463	-0.543701	-0.998895	17.952957	115.888057
28705		-3.232536	-0.214695	9.807034	0.041020	0.254412	-0.063394	-1.199463	0.321045	-0.551514	-0.986323	18.098509	115.844971
28706		-3.113736	-0.023405	9.738918	0.030658	0.238789	-0.086909	-1.192627	0.320801	-0.551025	-0.984315	18.235198	115.787807
28707		-3.015737	-0.157096	9.668966	0.015587	0.249734	-0.110560	-1.197266	0.323486	-0.559082	-0.995460	18.377605	115.716247
28708		-3.616213	-0.709910	10.035487	0.120850	0.260677	-0.118134	-1.197754	0.320068	-0.552246	-0.948100	18.526536	115.639941
28709		-3.340683	-0.205912	9.616052	0.185435	0.205374	-0.096633	-1.192139	0.324707	-0.557617	-0.859407	18.643757	115.577332
28710		-3.432786	-0.179059	9.641545	0.192843	0.183497	-0.090310	-1.194092	0.315918	-0.553223	-0.765414	18.748908	115.518836
28711		-3.575807	-0.142655	9.818153	0.158606	0.103761	-0.070986	-1.186035	0.315186	-0.562256	-0.686945	18.808284	115.472838
28712		-3.360945	-0.158677	9.589859	0.135019	0.061460	-0.063903	-1.189697	0.319580	-0.558594	-0.620696	18.843853	115.431431
28713		-3.345847	-0.142468	9.575399	0.115493	0.036762	-0.054539	-1.195801	0.314209	-0.561768	-0.563593	18.865042	115.395936
28714		-3.284295	-0.078880	9.514899	0.099274	0.021979	-0.052440	-1.190186	0.311768	-0.562744	-0.515521	18.878135	115.361758
28715		-3.260526	-0.073262	9.460255	0.088730	0.009397	-0.051920	-1.192139	0.310547	-0.563721	-0.473197	18.883717	115.328024
28716		-3.241395	-0.038450	9.457395	0.084701	-0.000627	-0.054951	-1.186768	0.307861	-0.561279	-0.433934	18.883896	115.292452
28717		-3.231787	-0.077037	9.496228	0.080670	-0.005008	-0.055489	-1.193115	0.313721	-0.563477	-0.396905	18.881254	115.256627
28718		-3.290099	-0.089963	9.535606	0.074991	-0.011014	-0.053508	-1.195801	0.309326	-0.562744	-0.362904	18.875530	115.221972
28719		-3.274139	-0.137406	9.533627	0.064406	-0.010482	-0.045140	-1.192139	0.310791	-0.561523	-0.333156	18.869827	115.192433
28720		-3.233621	-0.142569	9.497765	0.059444	-0.006923	-0.030768	-1.185547	0.304199	-0.561035	-0.303614	18.866555	115.171527
28721		-3.227665	-0.101692	9.477294	0.053739	-0.012018	-0.027358	-1.190186	0.309570	-0.558350	-0.276491	18.860052	115.152755
28722		-3.226706	-0.075297	9.487893	0.051262	-0.013059	-0.021412	-1.194336	0.312988	-0.564209	-0.249802	18.853307	115.137525
28723		-3.186289	-0.036768	9.472397	0.046394	-0.014007	-0.020377	-1.191406	0.304688	-0.562012	-0.225519	18.845697	115.122980
28724		-3.204898	-0.039744	9.485825	0.035889	-0.008547	-0.023274	-1.188965	0.307373	-0.561279	-0.208005	18.841543	115.106607
28725		-3.198887	-0.023065	9.455059	0.033493	-0.007529	-0.026744	-1.193359	0.310303	-0.565186	-0.192361	18.837641	115.088189
28726		-3.203042	-0.057394	9.476271	0.028630	-0.009405	-0.027149	-1.191650	0.310547	-0.559326	-0.179761	18.832995	115.069470
28727		-3.254999	-0.104469	9.464668	0.027013	-0.017596	-0.028530	-1.189697	0.310547	-0.560547	-0.168169	18.823329	115.049989
28728		-3.180091	-0.048256	9.464326	0.015590	-0.024003	-0.022116	-1.190918	0.302734	-0.562012	-0.162049	18.810333	115.034341
28729		-3.177439	-0.069757	9.455033	0.015618	-0.025849	-0.024982	-1.196533	0.310791	-0.555664	-0.156282	18.795950	115.017021
28730		-3.209557	-0.045170	9.461006	0.012353	-0.022411	-0.022170	-1.190186	0.302490	-0.557617	-0.152022	18.783865	115.001336
28731		-3.207648	-0.044408	9.461657	0.017189	-0.017754	-0.017457	-1.189941	0.304932	-0.555176	-0.143886	18.774134	114.988557
28732		-3.200518	-0.029416	9.431261	0.012318	-0.023435	-0.017459	-1.196777	0.304443	-0.566650	-0.138724	18.761472	114.975722
28733		-3.138916	-0.032440	9.382689	0.013975	-0.026538	-0.021012	-1.194824	0.306152	-0.563477	-0.133112	18.746706	114.960805
28734		-3.181439	-0.035763	9.450787	0.022127	-0.020486	-0.024216	-1.195557	0.307129	-0.555664	-0.123641	18.735725	114.943877
28735		-3.135326	-0.007678	9.394068	0.028675	-0.015026	-0.029602	-1.194824	0.304688	-0.562988	-0.111275	18.727549	114.923744
28736		-3.173097	-0.018072	9.420799	0.033547	-0.016937	-0.028789	-1.196533	0.303467	-0.562744	-0.096146	18.718601	114.904042
28737		-3.191042	-0.022071	9.434491	0.033580	-0.018783	-0.031650	-1.182617	0.312012	-0.561768	-0.081361	18.708280	114.882673
28738		-3.169216	-0.035817	9.411959	0.035179	-0.021058	-0.027626	-1.188232	0.306396	-0.557617	-0.065066	18.696981	114.863674
28739		-3.172420	-0.025347	9.453852	0.032752	-0.025797	-0.027415	-1.195801	0.303223	-0.555176	-0.049925	18.682655	114.844867
28740		-3.203853	-0.021567	9.449944	0.030340	-0.031462	-0.028635	-1.201904	0.303955	-0.558594	-0.036590	18.665401	114.825260
28741		-3.185628	-0.049853	9.459021	0.028747	-0.039652	-0.029991	-1.196777	0.307373	-0.562256	-0.024231	18.643144	114.804897
28742		-3.182024	-0.025814	9.470375	0.029589	-0.043097	-0.031552	-1.198975	0.305664	-0.557861	-0.011878	18.619231	114.783523
28743		-3.192560	-0.015827	9.453776	0.033591	-0.041644	-0.023032	-1.197021	0.300537	-0.567627	0.004613	18.595842	114.767362
28744		-3.193735	-0.005399	9.496326	0.030394	-0.046634	-0.026967	-1.185791	0.297852	-0.560791	0.018324	18.569912	114.748753
28745		-3.204121	0.026504	9.489903	0.025537	-0.048521	-0.027353	-1.196289	0.304443	-0.562988	0.029380	18.542591	114.729971
28746		-3.198713	-0.016853	9.471507	0.017419	-0.051704	-0.025957	-1.197754	0.308105	-0.568115	0.035866	18.513762	114.711966
28747		-3.174576	0.012459	9.469943	0.017430	-0.051698	-0.025948	-1.198975	0.291260	-0.558105	0.042564	18.484626	114.694030
28748		-3.169388	0.013140	9.471680	0.015873	-0.057939	-0.030558	-1.199219	0.304688	-0.564697	0.047299	18.452230	114.673243
28749		-3.178048	-0.000953	9.445657	0.012655	-0.061078	-0.031621	-1.198975	0.297607	-0.562256	0.050195	18.417725	114.651878
28750		-3.137563	-0.024719	9.442341	0.011076	-0.065466	-0.033366	-1.195068	0.294922	-0.557617	0.051671	18.381021	114.629397
28751		-3.151507	0.013669	9.477644	0.012731	-0.066706	-0.034037	-1.200684	0.297607	-0.559570	0.054177	18.343294	114.606576
28752		-3.164426	-0.014975	9.483021	0.006217	-0.065496	-0.030865	-1.201416	0.304443	-0.560547	0.053372	18.306571	114.585611
28753		-3.104523	-0.010464	9.476394	0.011129	-0.065438	-0.033326	-1.209473	0.300293	-0.556885	0.055127	18.269571	114.563230
28754		-3.094100	0.003398	9.447056	0.006181	-0.053172	-0.030667	-1.197754	0.306885	-0.560791	0.054366	18.239909	114.542399
28755		-3.109242	0.019419	9.471876	0.012633	-0.045946	-0.027102	-1.203125	0.293457	-0.553711	0.058185	18.214074	114.523789
28756		-3.085302	0.003862	9.449932	0.015054	-0.041197	-0.027326	-1.205322	0.296875	-0.551758	0.063159	18.191271	114.504984
28757		-3.101077	-0.001819	9.464469	0.015863	-0.037051	-0.029720	-1.200439	0.291748	-0.558105	0.068352	18.170537	114.484802
28758		-3.097511	-0.001171	9.465637	0.017510	-0.038294	-0.030400	-1.196289	0.297607	-0.553711	0.074169	18.149402	114.464146
28759		-3.084013	0.027459	9.404571	0.015150	-0.047751	-0.031162	-1.200928	0.291504	-0.559570	0.078696	18.122542	114.443087
28760		-3.068766	-0.016198	9.445243	0.015246	-0.055236	-0.036435	-1.205078	0.299561	-0.559326	0.082099	18.091707	114.418781
28761		-3.087577	-0.013797	9.501611	0.014477	-0.064179	-0.028895	-1.205566	0.296631	-0.558594	0.086682	18.055435	114.399078
28762		-3.086059	0.000441	9.413570	0.022756	-0.076036	-0.034737	-1.208008	0.292236	-0.553711	0.094727	18.012684	114.375779
28763		-3.068707	0.002104	9.475014	0.022841	-0.083605	-0.033867	-1.208008	0.297607	-0.548096	0.103200	17.965291	114.353060
28764		-3.095886	0.027493	9.482957	0.036630	-0.072394	-0.040598	-1.208252	0.292969	-0.555420	0.118140	17.924640	114.326231
28765		-3.038292	-0.024268	9.487796	0.027866	-0.093040	-0.032170	-1.200928	0.288330	-0.555908	0.129832	17.871849	114.304512
28766		-3.063890	0.044804	9.516355	0.005244	-0.110645	-0.020098	-1.210205	0.295166	-0.557861	0.130600	17.809262	114.289970
28767		-3.018349	0.042733	9.524276	-0.003454	-0.127214	-0.030439	-1.209961	0.299072	-0.557129	0.124700	17.736891	114.269258
28768		-3.120976	0.090536	9.475910	0.028159	-0.101939	-0.064717	-1.209473	0.296143	-0.544434	0.130475	17.679347	114.227907
28769		-2.830125	-0.148869	9.545710	-0.002869	-0.160879	-0.050928	-1.201172	0.295654	-0.552246	0.121218	17.587712	114.194851
28770		-2.828166	-0.105834	9.683984	-0.063638	-0.178620	-0.020725	-1.210449	0.298096	-0.551758	0.082472	17.486166	114.179917
28771		-2.899641	-0.008116	9.570804	-0.068278	-0.127325	-0.016814	-1.213135	0.283936	-0.558350	0.042033	17.413700	114.167512
28772		-2.878333	-0.059366	9.612834	-0.076911	-0.086304	-0.003556	-1.205566	0.290039	-0.552246	-0.001150	17.365012	114.163066
28773		-2.714334	-0.111398	9.597410	-0.104046	-0.061272	0.018073	-1.217041	0.301514	-0.544434	-0.055786	17.330383	114.171709
28774		-2.697363	-0.122592	9.657949	-0.150958	-0.073265	0.026917	-1.210693	0.294922	-0.547852	-0.135926	17.289174	114.185641
28775		-2.755612	-0.120594	9.620288	-0.176300	-0.054055	0.040841	-1.212646	0.302490	-0.544678	-0.227890	17.258743	114.208025
28776		-2.634216	-0.099785	9.540074	-0.217292	-0.073241	0.052264	-1.211914	0.293945	-0.540527	-0.341512	17.217646	114.237293
28777		-2.739601	-0.138663	9.461255	-0.250078	-0.092844	0.056554	-1.209961	0.306885	-0.555420	-0.472911	17.165140	114.269382
28778		-2.700708	-0.132619	9.518967	-0.254590	-0.102854	0.043580	-1.221191	0.299561	-0.534180	-0.609390	17.107139	114.293786
28779		-2.641911	-0.208371	9.521993	-0.229492	-0.087968	0.032113	-1.216797	0.298584	-0.541504	-0.733296	17.057404	114.311425
28780		-2.667692	-0.183781	9.540770	-0.230771	-0.099668	0.025229	-1.217529	0.307617	-0.541260	-0.859329	17.001170	114.325059
28781		-2.476355	-0.191228	9.630918	-0.228327	-0.093353	0.002055	-1.222656	0.302246	-0.531982	-0.987776	16.948148	114.324965
28782		-2.589263	-0.148857	9.493554	-0.230090	-0.075519	-0.015650	-1.217773	0.313721	-0.540527	-1.120574	16.905353	114.314107
28783		-2.437851	-0.154543	9.578284	-0.196481	0.003804	-0.039144	-1.211914	0.310547	-0.544678	-1.238224	16.907499	114.288397
28784		-2.324911	-0.229142	9.584176	-0.151249	0.111446	-0.062786	-1.214600	0.309082	-0.529785	-1.334752	16.971127	114.246979
28785		-2.141506	-0.178640	9.675440	-0.100879	0.254753	-0.099028	-1.221191	0.305420	-0.546631	-1.409265	17.116111	114.181765
28786		-1.581675	-0.190489	9.630885	-0.048982	0.485829	-0.157252	-1.209473	0.318848	-0.538818	-1.465964	17.392669	114.077800
28787		-0.877436	-0.465642	9.770833	0.105345	1.263508	-0.164293	-1.209229	0.318115	-0.556396	-1.439893	18.114405	113.957479
28788		-1.253304	-0.561355	10.555969	0.334612	1.928356	-0.187605	-1.185547	0.301758	-0.560303	-1.291924	19.216825	113.813873
28789		-0.933287	-0.953376	11.464459	0.674261	2.750411	-0.176742	-1.171387	0.304932	-0.575439	-0.952045	20.790839	113.671025
28790		-0.986870	0.056948	12.534894	1.030735	3.846018	-0.152337	-1.139404	0.299072	-0.602051	-0.405704	22.993525	113.546348
28791		-1.158889	0.945013	13.299284	0.973973	4.869665	-0.129598	-1.116699	0.285889	-0.624268	0.117031	25.783899	113.454779
28792		0.105462	-0.351199	12.650348	0.977308	6.076244	-0.232774	-1.059570	0.271973	-0.656250	0.620370	29.266145	113.327033
28793		-0.203906	-0.919771	11.693903	1.364698	7.460861	-0.373397	-1.008301	0.260742	-0.673828	1.317250	33.544388	113.158655
28794		-0.368331	-0.829041	11.370863	1.592676	8.829694	-0.487815	-0.934570	0.240479	-0.712646	2.138455	38.609194	112.998772
28795		-1.770587	-0.731734	10.500545	1.739370	10.184137	-0.485099	-0.850830	0.234619	-0.728516	3.127963	44.451378	112.983189
28796		-3.425733	0.469889	7.375643	1.776307	11.133742	-0.451287	-0.756592	0.217041	-0.755127	4.317834	50.833143	113.211107
28797		-3.325064	0.184351	6.728094	1.825847	11.749492	-0.437316	-0.649170	0.200195	-0.762207	5.845967	57.561482	113.799937
28798		-1.233976	-1.865287	3.963651	1.697262	12.373697	-0.160565	-0.543945	0.192139	-0.750244	8.226263	64.608760	115.400938
28799		-6.794205	3.040230	7.924546	1.515284	12.697145	-0.345760	-0.435791	0.173828	-0.730957	11.767838	71.810542	118.270430
28800		-32.001754	5.991142	29.959496	0.602057	8.633006	-1.128843	-0.365479	0.169678	-0.711670	13.748744	76.777336	119.965291
28801		-12.891499	3.272366	32.548658	0.087300	3.805890	-1.412878	-0.335693	0.175781	-0.700439	12.412008	79.085695	118.545023
28802		-8.104031	2.068286	33.450547	-0.025919	1.732986	-1.329811	-0.328125	0.173340	-0.700195	9.314200	80.202273	115.408167
28803		-5.708221	1.891332	28.887577	0.100423	-0.381068	-1.278933	-0.331543	0.183350	-0.705078	5.021478	80.077718	110.990315
28804		-4.002725	2.076004	22.684775	0.217660	-1.806374	-1.082345	-0.359131	0.176514	-0.718506	1.452744	79.073948	107.231590
28805		-2.587758	1.819089	17.121439	0.278414	-2.725851	-0.897950	-0.397949	0.178955	-0.725098	-0.914441	77.514677	104.649015
28806		-2.336079	1.546362	13.206917	0.337537	-3.313690	-0.725511	-0.441650	0.171387	-0.746094	-2.244668	75.598746	103.078780
28807		-1.864316	0.911092	9.504316	0.400685	-3.741025	-0.581840	-0.488770	0.169678	-0.755371	-2.877254	73.442856	102.181809
28808		-1.078895	0.552810	6.368898	0.500254	-3.908480	-0.472183	-0.539551	0.165527	-0.763428	-3.074552	71.185234	101.669710
28809		-0.868681	0.643470	4.434530	0.555389	-3.867805	-0.390803	-0.598145	0.167480	-0.778809	-3.050050	68.960701	101.354756
28810		-0.985917	0.807132	3.791110	0.527053	-3.709813	-0.313944	-0.653809	0.159424	-0.783936	-2.917821	66.821131	101.167031
28811		-1.404141	1.000813	4.512606	0.453985	-3.518477	-0.231614	-0.719971	0.158447	-0.789307	-2.733873	64.801468	101.080885
28812		-2.435581	1.027618	6.525484	0.346813	-3.383935	-0.138027	-0.785156	0.155029	-0.786133	-2.514497	62.853276	101.099137
28813		-3.815002	1.144332	8.802645	0.228968	-3.404281	-0.066210	-0.837891	0.146240	-0.781250	-2.302440	60.903277	101.188080
28814		-5.066531	1.195053	10.677303	0.112718	-3.585714	-0.016928	-0.906738	0.162109	-0.772461	-2.116778	58.841830	101.322979
28815		-6.091377	1.113388	11.749177	0.034091	-3.905918	0.043522	-0.992676	0.165283	-0.754883	-1.933531	56.606576	101.513732
28816		-6.681277	1.042020	11.501768	0.011032	-4.266412	0.102565	-1.089844	0.175293	-0.715820	-1.727331	54.156602	101.751099
28817		-6.983519	0.909781	10.431677	0.037628	-4.551130	0.165432	-1.180176	0.189453	-0.677246	-1.484601	51.553081	102.025479
28818		-7.183149	0.622941	9.295936	0.089286	-4.701933	0.233458	-1.273438	0.195068	-0.612793	-1.195307	48.853951	102.329413
28819		-7.442441	0.397374	8.739164	0.203300	-4.725055	0.310426	-1.352539	0.212158	-0.529053	-0.832315	46.150688	102.660373
28820		-7.811287	0.191452	8.878113	0.337974	-4.670075	0.410338	-1.436035	0.229248	-0.425781	-0.374949	43.468426	103.028041
28821		-8.315364	0.107908	9.615360	0.439292	-4.612104	0.500315	-1.475830	0.241943	-0.304932	0.141638	40.826929	103.419035
28822		-8.897183	0.147387	10.397318	0.482652	-4.582667	0.572335	-1.487793	0.261963	-0.188477	0.675400	38.189821	103.816293
28823		-9.316486	0.149249	10.929666	0.463323	-4.573404	0.622994	-1.465576	0.287842	-0.071533	1.177728	35.564518	104.206815
28824		-9.681765	0.291348	11.286672	0.400180	-4.540315	0.648604	-1.408691	0.291992	-0.005615	1.619088	32.945707	104.575946
28825		-9.862091	0.453374	11.526104	0.302136	-4.491969	0.660822	-1.378418	0.284912	0.041504	1.976886	30.361914	104.923153
28826		-10.031642	0.587763	12.042195	0.181314	-4.401767	0.654295	-1.349609	0.263916	0.078857	2.239927	27.818851	105.242135
28827		-10.645600	0.649580	13.040887	0.064309	-4.321787	0.631957	-1.337158	0.236572	0.129639	2.408885	25.330550	105.531995
28828		-11.351595	0.546436	13.797311	-0.012146	-4.327446	0.603421	-1.324219	0.218506	0.205078	2.511147	22.829843	105.790242
28829		-11.736839	0.540649	13.808019	-0.040516	-4.374464	0.573232	-1.261475	0.203613	0.276367	2.575264	20.311914	106.021200
28830		-11.924066	0.546039	13.132830	-0.020353	-4.394391	0.556331	-1.185059	0.190918	0.317871	2.636509	17.773903	106.233476
28831		-11.943617	0.794039	12.234951	0.033148	-4.377327	0.566932	-1.103760	0.174805	0.329834	2.718756	15.254007	106.447497
28832		-11.952703	1.282845	11.407959	0.056100	-4.273505	0.603250	-1.027344	0.154541	0.305908	2.810247	12.783881	106.678199
28833		-12.069772	1.798694	10.965085	0.019433	-4.106903	0.646209	-0.958008	0.144287	0.273193	2.875313	10.415901	106.934410
28834		-12.203463	2.124850	10.572718	-0.084576	-3.941890	0.698893	-0.938477	0.124512	0.228516	2.876456	8.133041	107.221515
28835		-12.191301	2.155702	9.882389	-0.227972	-3.762197	0.708210	-0.914795	0.111084	0.197021	2.784908	5.960620	107.520486
28836		-11.922057	1.680696	9.015997	-0.335686	-3.565314	0.682568	-0.919189	0.094971	0.161621	2.620937	3.895388	107.812704
28837		-11.738835	0.805652	8.207944	-0.286303	-3.344624	0.635664	-0.913086	0.090332	0.126709	2.473442	1.965325	108.089637
28838		-11.539087	-0.031003	7.432840	-0.065003	-3.130335	0.603037	-0.929199	0.076416	0.108154	2.444305	0.153150	108.354851
28839		-11.265143	-0.473464	6.380863	0.251752	-2.919890	0.584898	-0.936523	0.066895	0.087891	2.587839	-1.532364	108.614117
28840		-10.981927	-0.340920	5.377212	0.502426	-2.673206	0.572785	-0.944824	0.063721	0.074951	2.868636	-3.082461	108.866258
28841		-10.913214	0.244743	5.174255	0.619444	-2.373455	0.581829	-0.945557	0.055908	0.060059	3.208922	-4.457531	109.125522
28842		-10.840096	1.031886	4.867837	0.538152	-2.088966	0.597387	-0.965088	0.052734	0.050049	3.496400	-5.676086	109.395432
28843		-10.506293	1.501280	4.070902	0.291626	-1.800980	0.604575	-0.976318	0.058350	0.044678	3.635528	-6.726922	109.676529
28844		-10.255018	1.414451	2.851578	0.009265	-1.500829	0.603430	-0.984863	0.061035	0.034424	3.607611	-7.609792	109.966817
28845		-9.978101	0.765554	1.591799	-0.155866	-1.164313	0.600954	-0.990967	0.045166	0.032227	3.478746	-8.296302	110.270079
28846		-9.811238	0.099789	1.103893	-0.149206	-0.774593	0.610992	-0.995605	0.050537	0.036133	3.348247	-8.762214	110.594094
28847		-9.911005	-0.255472	1.640097	-0.025361	-0.379233	0.613364	-1.003906	0.057617	0.024170	3.283589	-8.998874	110.934356
28848		-9.913851	-0.234334	2.526413	0.092995	-0.057072	0.614922	-1.005859	0.063477	0.024658	3.284711	-9.052980	111.286116
28849		-9.734318	-0.133063	3.758034	0.120684	0.224323	0.597139	-1.002197	0.059326	0.013428	3.301332	-8.943729	111.637299
28850		-9.476997	-0.181497	4.974809	0.049189	0.428394	0.559253	-1.000977	0.060303	0.004883	3.280990	-8.717553	111.972936
28851		-8.839778	-0.531209	5.715620	-0.089185	0.552720	0.496850	-0.998535	0.059814	-0.000244	3.187097	-8.416844	112.276315
28852		-1.243669	1.426224	-8.731580	-0.550005	1.933487	0.675640	-0.995850	0.080566	-0.006348	2.813740	-7.330519	112.722888
28853		-3.148404	-1.678780	9.711276	-0.842339	2.878261	0.446274	-0.991211	0.079102	-0.022217	2.296169	-5.693873	113.051855
28854		-0.124051	-3.566126	11.996067	-0.829631	2.307332	0.412842	-0.985107	0.081299	-0.031006	1.798947	-4.380746	113.334414
28855		2.389466	-1.904320	9.799306	-0.808956	2.586324	0.306147	-0.986328	0.083984	-0.046631	1.324226	-2.903699	113.548458
28856		1.527949	-3.427803	4.401221	-1.244068	2.850201	-0.060123	-0.976074	0.108154	-0.055908	0.614411	-1.269963	113.539492
28857		0.853450	-5.054400	4.124800	-1.008278	3.134374	-0.133624	-0.966553	0.093506	-0.070068	0.039508	0.526780	113.471062
28858		-3.574275	-4.408454	10.392656	-0.546183	3.369284	-0.025199	-0.958496	0.101807	-0.076172	-0.271641	2.457420	113.450532
28859		-5.369646	-4.705088	14.350279	0.009003	2.885622	-0.034109	-0.944824	0.095459	-0.086182	-0.265769	4.111107	113.421063
28860		-5.236320	-4.892743	13.979688	0.004812	2.509075	-0.280764	-0.936523	0.104248	-0.092529	-0.275377	5.548462	113.250621
28861		-3.268576	-3.654866	11.193609	0.222609	2.376224	-0.425232	-0.928711	0.101318	-0.094238	-0.172831	6.909435	112.998049
28862		-4.647292	1.133318	13.702288	0.545287	2.538689	-0.367572	-0.917236	0.095703	-0.108398	0.112608	8.364679	112.782538
28863		-5.917900	4.821240	15.988499	0.398680	2.212714	-0.307388	-0.911377	0.096191	-0.108887	0.315968	9.633596	112.606881
28864		-5.284164	4.988278	14.874084	0.141742	1.990750	-0.225416	-0.908936	0.106934	-0.111328	0.376658	10.776036	112.480449
28865		-4.871969	3.469651	13.723986	0.019686	1.807509	-0.090253	-0.899902	0.094971	-0.125488	0.380956	11.812464	112.432540
28866		-5.367558	1.952823	13.615811	-0.116059	1.594121	-0.041502	-0.893066	0.115967	-0.126221	0.312243	12.727218	112.411735
28867		-4.794456	1.432632	12.737892	-0.198872	1.344894	-0.017088	-0.890137	0.103271	-0.125488	0.198723	13.498298	112.403034
28868		-4.616279	1.780871	12.304089	-0.342426	1.166637	-0.015571	-0.885254	0.109131	-0.132813	0.002452	14.168179	112.392973
28869		-5.302314	2.117983	13.875571	-0.566242	0.951416	-0.040380	-0.893799	0.115967	-0.128174	-0.326484	14.713693	112.365299
28870		-5.244705	-0.707006	13.034537	-0.629159	0.595257	-0.113874	-0.876221	0.106689	-0.142578	-0.703158	15.055700	112.292593
28871		-4.734587	-3.720575	12.636548	-0.505597	0.300745	-0.146323	-0.875977	0.112793	-0.136719	-1.014401	15.227173	112.200870
28872		-3.421345	-1.527119	10.986458	-0.212924	0.142566	-0.093499	-0.880371	0.118896	-0.137207	-1.149678	15.309490	112.141673
28873		-3.354520	-0.710748	10.747609	-0.116239	0.119274	-0.092784	-0.879150	0.115234	-0.139648	-1.229434	15.377134	112.082878
28874		-2.801182	-0.818744	10.002824	-0.064498	0.104892	-0.081701	-0.880371	0.108643	-0.137695	-1.277976	15.437882	112.030867
28875		-2.723198	-0.172903	9.816737	-0.057572	0.158931	-0.069747	-0.878906	0.124023	-0.148438	-1.320790	15.528432	111.985056
28876		-2.961515	-0.268687	10.153004	-0.091043	0.187870	-0.092150	-0.877197	0.110107	-0.145996	-1.386745	15.636482	111.925504
28877		-2.978001	-0.632317	10.095485	-0.053672	0.187440	-0.104022	-0.877930	0.117920	-0.146729	-1.433173	15.742794	111.858656
28878		-2.741614	-0.508087	9.773173	-0.023233	0.199728	-0.094202	-0.875000	0.115723	-0.144287	-1.460963	15.857525	111.797453
28879		-2.826329	-0.680626	9.891974	0.001987	0.221392	-0.085849	-0.869873	0.116455	-0.139648	-1.472985	15.983485	111.740725
28880		-2.942104	-0.593114	9.976111	0.014784	0.207676	-0.057300	-0.875244	0.120605	-0.148438	-1.473268	16.103284	111.701252
28881		-2.789048	-0.453545	9.804163	0.020108	0.197829	-0.037482	-0.875244	0.114502	-0.149658	-1.467027	16.216456	111.673652
28882		-2.942049	-0.357066	9.926482	0.003357	0.193299	-0.021988	-0.868896	0.122070	-0.152344	-1.468080	16.328543	111.655425
28883		-2.952572	-0.350183	9.848630	-0.001368	0.170102	-0.014927	-0.870605	0.110840	-0.143311	-1.470337	16.426166	111.641685
28884		-2.843958	-0.306977	9.647397	-0.001638	0.157513	-0.013078	-0.868896	0.116455	-0.148682	-1.472666	16.517889	111.629298
28885		-2.828033	-0.322542	9.677596	-0.007192	0.156081	-0.009926	-0.875488	0.118896	-0.145996	-1.477396	16.607554	111.618740
28886		-2.925934	-0.257235	9.638080	-0.011131	0.155432	-0.010725	-0.870117	0.112549	-0.143311	-1.484804	16.698115	111.607760
28887		-3.118146	-0.309612	9.839685	-0.009978	0.124296	-0.008853	-0.866943	0.118652	-0.149658	-1.490842	16.769588	111.598306
28888		-3.050242	-0.428301	9.750653	-0.004082	0.091861	0.007248	-0.870361	0.120850	-0.141846	-1.490856	16.824013	111.599044
28889		-3.034837	-0.346732	9.693093	0.010971	0.076904	0.013440	-0.867432	0.111816	-0.157471	-1.480830	16.868673	111.603664
28890		-2.964792	-0.257141	9.626199	0.008926	0.064379	0.020572	-0.868652	0.111572	-0.140625	-1.470957	16.907562	111.612811
28891		-2.909507	-0.241131	9.542187	0.009066	0.060601	0.020985	-0.865967	0.115479	-0.146484	-1.460624	16.942993	111.622216
28892		-2.952206	-0.276384	9.557244	0.007369	0.062709	0.023116	-0.865479	0.118896	-0.147461	-1.451175	16.980962	111.632929
28893		-2.980299	-0.216096	9.600062	0.005884	0.059232	0.022817	-0.870605	0.111084	-0.144287	-1.442322	17.015633	111.643468
28894		-3.011692	-0.251654	9.674081	0.003789	0.049774	0.022053	-0.864746	0.112793	-0.144531	-1.435038	17.046177	111.653754
28895		-2.895076	-0.280514	9.518799	0.004439	0.053773	0.025757	-0.858643	0.122559	-0.147705	-1.426457	17.077760	111.666150
28896		-2.873356	-0.264584	9.431194	0.008227	0.062041	0.025838	-0.868164	0.117432	-0.153320	-1.416003	17.115382	111.678533
28897		-2.864791	-0.270018	9.446683	0.016517	0.079683	0.031514	-0.869385	0.120361	-0.147705	-1.399576	17.161882	111.694017
28898		-2.930587	-0.266799	9.495305	0.025346	0.082360	0.032733	-0.866455	0.121094	-0.149414	-1.378156	17.211227	111.710263
28899		-2.999011	-0.218679	9.564370	0.030095	0.087240	0.031263	-0.865479	0.114990	-0.153076	-1.353988	17.262042	111.725531
28900		-3.039097	-0.177887	9.537037	0.031765	0.088036	0.027348	-0.871826	0.114258	-0.144043	-1.329832	17.314554	111.738516
28901		-2.931250	-0.175004	9.432908	0.029332	0.089950	0.025387	-0.861572	0.118896	-0.142334	-1.307121	17.366831	111.750274
28902		-3.001780	-0.104975	9.511749	0.026753	0.099624	0.016556	-0.865234	0.114258	-0.149170	-1.287778	17.425832	111.756673
28903		-3.001652	-0.197948	9.426362	0.027011	0.095125	0.009491	-0.866943	0.113770	-0.149414	-1.269244	17.480863	111.758863
28904		-2.967433	-0.173146	9.496891	0.030326	0.098681	-0.001587	-0.860107	0.107666	-0.144531	-1.251099	17.539094	111.754420
28905		-2.965878	-0.206930	9.401038	0.039864	0.104466	0.001961	-0.867188	0.113037	-0.142090	-1.226587	17.599380	111.752005
28906		-3.064938	-0.252508	9.555035	0.066864	0.102541	-0.009885	-0.866211	0.111816	-0.146729	-1.189024	17.659722	111.742578
28907		-3.032002	-0.135735	9.493955	0.084003	0.102088	-0.013897	-0.867188	0.114502	-0.153076	-1.142091	17.718465	111.730736
28908		-3.038221	-0.194376	9.460282	0.091446	0.103452	-0.022231	-0.857178	0.116699	-0.145020	-1.092702	17.779205	111.713962
28909		-3.126726	-0.170403	9.531189	0.099696	0.100167	-0.021397	-0.857178	0.119629	-0.160645	-1.038143	17.836788	111.697729
28910		-3.063516	-0.147384	9.505977	0.099858	0.096406	-0.020948	-0.865234	0.120117	-0.148438	-0.983676	17.893536	111.681905
28911		-3.150228	-0.145306	9.566730	0.095310	0.090818	-0.026931	-0.868652	0.115479	-0.152832	-0.932626	17.945738	111.662538
28912		-3.128713	-0.145536	9.468330	0.089764	0.083608	-0.020237	-0.866699	0.116943	-0.153564	-0.883770	17.995189	111.647360
28913		-3.087017	-0.144998	9.488205	0.093354	0.077581	-0.027238	-0.863770	0.113525	-0.152344	-0.833866	18.039837	111.628011
28914		-3.114732	-0.122135	9.509347	0.088539	0.076523	-0.026156	-0.857666	0.110840	-0.160156	-0.786798	18.085207	111.609404
28915		-3.155808	-0.114714	9.502664	0.082290	0.068167	-0.024997	-0.857178	0.110352	-0.153076	-0.742797	18.124509	111.591550
28916		-3.078795	-0.109626	9.396172	0.074959	0.069899	-0.024523	-0.858154	0.122559	-0.155762	-0.703194	18.166124	111.574039
28917		-3.130648	-0.087485	9.471835	0.075847	0.072274	-0.029694	-0.862061	0.106689	-0.153076	-0.663786	18.207770	111.553373
28918		-3.157676	-0.066549	9.493026	0.068873	0.065643	-0.035890	-0.858154	0.109619	-0.154297	-0.629814	18.246894	111.529082
28919		-3.215644	-0.090708	9.489754	0.062548	0.058184	-0.033332	-0.856445	0.115234	-0.147461	-0.598697	18.280470	111.506356
28920		-3.221662	-0.063889	9.498197	0.058255	0.041149	-0.038115	-0.864990	0.117432	-0.149658	-0.571197	18.305575	111.480907
28921		-3.186668	-0.045652	9.470532	0.052871	0.032234	-0.040353	-0.859375	0.110352	-0.149170	-0.546920	18.324265	111.454125
28922		-3.192048	-0.079220	9.490914	0.037018	0.020890	-0.044639	-0.861328	0.113770	-0.159180	-0.532798	18.337751	111.424869
28923		-3.196384	-0.113818	9.511657	0.033304	0.010761	-0.047557	-0.861816	0.114014	-0.150391	-0.521072	18.344115	111.393863
28924		-3.250032	-0.119306	9.520196	0.032002	-0.005187	-0.041981	-0.863770	0.107910	-0.145996	-0.509282	18.342688	111.366356
28925		-3.214546	-0.117627	9.525314	0.027332	-0.020693	-0.031814	-0.860107	0.106201	-0.152344	-0.497932	18.331122	111.345023
28926		-3.170929	-0.065700	9.478337	0.018515	-0.028267	-0.028055	-0.849121	0.111572	-0.154053	-0.491185	18.316555	111.326041
28927		-3.147558	-0.080370	9.456055	0.010463	-0.029696	-0.029906	-0.858398	0.117676	-0.148926	-0.489113	18.299844	111.305907
28928		-3.114881	-0.094433	9.492769	0.010370	-0.025896	-0.030318	-0.863770	0.109619	-0.147949	-0.487454	18.286627	111.285549
28929		-3.127042	-0.087619	9.475793	0.003176	-0.033764	-0.025818	-0.856201	0.119873	-0.158691	-0.488767	18.267607	111.267906
28930		-3.191568	-0.088749	9.467852	-0.006205	-0.048263	-0.023910	-0.864014	0.107910	-0.143066	-0.495344	18.241601	111.251533
28931		-3.170966	-0.097589	9.487604	-0.016205	-0.068765	-0.022442	-0.856445	0.113037	-0.149170	-0.507047	18.202541	111.236121
28932		-3.213833	-0.071249	9.477682	-0.027528	-0.095508	-0.025510	-0.861572	0.114502	-0.150146	-0.526037	18.149455	111.219060
28933		-3.129167	-0.082944	9.449181	-0.036087	-0.130645	-0.030352	-0.855957	0.112305	-0.156982	-0.550465	18.074889	111.199267
28934		-3.103437	-0.050418	9.491329	-0.044917	-0.152409	-0.039656	-0.869873	0.112793	-0.156006	-0.581890	17.989113	111.174086
28935		-3.084018	-0.042005	9.465134	-0.048004	-0.172666	-0.051936	-0.857178	0.114258	-0.159424	-0.616980	17.890323	111.141662
28936		-2.978234	-0.063784	9.455874	-0.064433	-0.182241	-0.063396	-0.855225	0.112305	-0.151855	-0.663773	17.787271	111.102541
28937		-2.994073	-0.072248	9.457304	-0.063032	-0.206135	-0.087823	-0.856934	0.110352	-0.152832	-0.713797	17.669011	111.048975
28938		-3.007657	-0.081623	9.459535	-0.067283	-0.229507	-0.112427	-0.862305	0.114014	-0.147461	-0.770794	17.538442	110.980999
