// General information: 
//  MT Manager version: 2022.2.0 
//  XDA version: 2022.2.0 build 7381 rev 124627 built on 2023-07-19
// Device information: 
//  DeviceId: 00B4C3A0
//  ProductCode: MTW2-3A7G6
//  Firmware Version: 4.6.0
//  Hardware Version: 2.0.0
// Device settings: 
//  Filter Profile: human(46.1)
//  Option Flags: Orientation Smoother Disabled, Position/Velocity Smoother Disabled, Continuous Zero Rotation Update Disabled, AHS Disabled, ICC Disabled
// Coordinate system: ENU
PacketCounter	SampleTimeFine	Acc_X	Acc_Y	Acc_Z	Gyr_X	Gyr_Y	Gyr_Z	Mag_X	Mag_Y	Mag_Z	Roll	Pitch	Yaw
24149		9.368750	-0.737411	-1.888147	-0.017771	0.005827	0.006427	-0.285645	-0.124268	0.726074	-155.984593	-77.307327	-10.473510
24150		9.369428	-0.791077	-1.914644	-0.018766	0.004384	0.005832	-0.293701	-0.120361	0.729980	-155.982021	-77.307804	-10.481605
24151		9.377291	-0.771348	-1.887117	-0.017757	0.008186	0.006297	-0.295898	-0.127930	0.720215	-155.971156	-77.309652	-10.497833
24152		9.381650	-0.752708	-1.901509	-0.012934	0.008009	0.002497	-0.291748	-0.120361	0.712402	-155.969116	-77.312936	-10.504232
24153		9.382384	-0.806375	-1.927736	-0.012202	0.007616	0.007783	-0.295898	-0.124512	0.723877	-155.952197	-77.314138	-10.523403
24154		9.369873	-0.791846	-1.912148	-0.013903	0.011283	0.001634	-0.285645	-0.107422	0.718262	-155.949114	-77.319373	-10.530666
24155		9.320041	-0.786412	-1.878968	-0.010956	0.008541	0.003831	-0.295654	-0.127197	0.718506	-155.939700	-77.321981	-10.541412
24156		9.344871	-0.762538	-1.880950	-0.011938	0.009456	0.003100	-0.289063	-0.116943	0.724609	-155.933831	-77.325792	-10.547520
24157		9.361202	-0.776128	-1.852914	-0.012934	0.008014	0.002502	-0.293213	-0.119385	0.724854	-155.929181	-77.328435	-10.554543
24158		9.369801	-0.738544	-1.882480	-0.013943	0.004214	0.002037	-0.297607	-0.119873	0.730713	-155.932547	-77.329696	-10.552675
24159		9.340920	-0.781477	-1.864363	-0.013198	0.006177	0.007191	-0.286865	-0.120605	0.717529	-155.919047	-77.330281	-10.568925
24160		9.378323	-0.772418	-1.881542	-0.002581	0.002546	0.000448	-0.295898	-0.124756	0.722656	-155.921396	-77.331091	-10.562526
24161		9.382643	-0.754050	-1.896069	-0.008246	0.008677	0.010453	-0.301025	-0.123535	0.727539	-155.894864	-77.332220	-10.589225
24162		9.391154	-0.787938	-1.895165	-0.005148	0.007452	0.000765	-0.291992	-0.118896	0.722168	-155.892664	-77.335696	-10.591510
24163		9.378640	-0.773243	-1.879624	-0.006747	0.009084	0.001946	-0.292725	-0.121582	0.726074	-155.884638	-77.339028	-10.598362
24164		9.374510	-0.792087	-1.863929	-0.009356	0.006915	0.002659	-0.297363	-0.129150	0.720703	-155.881182	-77.341601	-10.601893
24165		9.321077	-0.787808	-1.873232	-0.010352	0.005473	0.002059	-0.295410	-0.119385	0.722412	-155.878717	-77.343017	-10.605162
24166		9.378969	-0.773299	-1.877959	-0.011334	0.006388	0.001329	-0.296631	-0.119385	0.721924	-155.879975	-77.345783	-10.607402
24167		9.366996	-0.812071	-1.889733	-0.012595	0.003106	0.005415	-0.300049	-0.122803	0.719482	-155.873447	-77.345176	-10.616152
24168		9.354384	-0.797420	-1.874641	-0.012329	0.004947	0.000731	-0.290527	-0.124756	0.716064	-155.877741	-77.347363	-10.614575
24169		9.363052	-0.759832	-1.903981	-0.008346	0.010719	0.003132	-0.300049	-0.121338	0.725586	-155.866152	-77.351272	-10.626018
24170		9.351149	-0.798738	-1.915372	-0.008991	0.006719	0.005306	-0.284912	-0.120117	0.721924	-155.856440	-77.353237	-10.637317
24171		9.375974	-0.774871	-1.917399	-0.008724	0.008561	0.000622	-0.284180	-0.122070	0.718262	-155.853162	-77.356605	-10.640462
24172		9.334479	-0.802953	-1.884197	-0.005765	0.008172	0.002684	-0.299805	-0.124268	0.719971	-155.846901	-77.359655	-10.644166
24173		9.355831	-0.780041	-1.928334	-0.001935	0.006549	-0.001721	-0.291504	-0.126709	0.718018	-155.847296	-77.362521	-10.639561
24174		9.364362	-0.813417	-1.927534	-0.002553	0.007266	0.000192	-0.289063	-0.126953	0.727295	-155.845361	-77.366010	-10.640273
24175		9.359645	-0.778674	-1.884690	-0.008078	0.012563	-0.001548	-0.295898	-0.117188	0.725098	-155.842583	-77.371980	-10.642528
24176		9.393003	-0.787924	-1.885987	-0.001893	0.013627	-0.002108	-0.293457	-0.121338	0.722168	-155.839122	-77.379146	-10.642403
24177		9.380601	-0.772997	-1.869910	-0.004488	0.013817	-0.001526	-0.297852	-0.119141	0.722900	-155.832915	-77.385766	-10.646062
24178		9.385142	-0.754022	-1.883671	-0.006101	0.013092	-0.000214	-0.294678	-0.119873	0.721680	-155.827527	-77.392317	-10.649906
24179		9.372700	-0.739322	-1.867685	-0.008333	0.013083	0.003010	-0.295166	-0.119873	0.729004	-155.813681	-77.397488	-10.663652
24180		9.369459	-0.740569	-1.908692	-0.009946	0.012357	0.004322	-0.289307	-0.117432	0.724854	-155.800759	-77.402533	-10.677215
24181		9.344956	-0.764761	-1.904980	-0.012541	0.012548	0.004904	-0.292969	-0.120117	0.714111	-155.785434	-77.406978	-10.694945
24182		9.335905	-0.749189	-1.847030	-0.013537	0.011107	0.004304	-0.300049	-0.115479	0.721924	-155.776025	-77.411326	-10.706095
24183		9.353770	-0.798444	-1.902656	-0.016466	0.016218	0.001988	-0.288818	-0.116943	0.725586	-155.765887	-77.418373	-10.720814
24184		9.371081	-0.794147	-1.930896	-0.014837	0.019306	0.000553	-0.291504	-0.118896	0.724121	-155.756968	-77.427906	-10.731391
24185		9.374804	-0.792632	-1.887494	-0.010429	0.009889	-0.005384	-0.292236	-0.122314	0.726318	-155.767299	-77.433380	-10.721593
24186		9.346233	-0.763856	-1.899066	-0.012285	0.012038	0.000357	-0.299072	-0.117676	0.723877	-155.765641	-77.439098	-10.724863
24187		9.349860	-0.762584	-1.855970	-0.013281	0.010596	-0.000245	-0.288574	-0.114746	0.720703	-155.764817	-77.443733	-10.728169
24188		9.371326	-0.739499	-1.899920	-0.010338	0.007844	0.001944	-0.287842	-0.114746	0.726563	-155.762176	-77.446941	-10.729575
24189		9.329706	-0.767604	-1.867134	-0.007771	0.002933	0.001616	-0.303955	-0.121582	0.720947	-155.761921	-77.447134	-10.729064
24190		9.391864	-0.734340	-1.886893	-0.010367	0.003125	0.002198	-0.299805	-0.124512	0.729492	-155.763716	-77.447864	-10.727046
24191		9.420756	-0.762708	-1.873876	-0.006747	0.009097	0.001969	-0.297119	-0.122070	0.719971	-155.755532	-77.451195	-10.734056
24192		9.380091	-0.773052	-1.897896	-0.015528	0.008229	0.003109	-0.292480	-0.116943	0.716064	-155.752976	-77.454461	-10.742102
24193		9.367527	-0.758703	-1.882300	-0.010219	0.010519	0.009023	-0.298584	-0.127197	0.718750	-155.728710	-77.456875	-10.767625
24194		9.346343	-0.782032	-1.836749	-0.011937	0.009482	0.003135	-0.290527	-0.116943	0.726074	-155.722700	-77.460780	-10.776402
24195		9.363461	-0.778051	-1.865902	-0.012586	0.005478	0.005299	-0.291260	-0.119873	0.720947	-155.713861	-77.461436	-10.787510
24196		9.354909	-0.815867	-1.835535	-0.009356	0.006931	0.002680	-0.295654	-0.128662	0.720947	-155.710360	-77.463901	-10.789777
24197		9.372033	-0.811707	-1.864747	-0.008737	0.006216	0.000767	-0.299316	-0.126221	0.729248	-155.709176	-77.466010	-10.790785
24198		9.362825	-0.795801	-1.807340	-0.012688	0.005169	-0.001899	-0.294922	-0.121826	0.721680	-155.720413	-77.468842	-10.784707
24199		9.355209	-0.815460	-1.834186	-0.014562	0.004956	0.003970	-0.298828	-0.126709	0.722412	-155.716378	-77.469538	-10.792054
24200		9.375946	-0.739138	-1.851394	-0.012327	0.004968	0.000746	-0.302002	-0.122314	0.719482	-155.721125	-77.471638	-10.790930
24201		9.363988	-0.777870	-1.863331	-0.014201	0.004754	0.006615	-0.298096	-0.122070	0.726074	-155.710880	-77.471606	-10.804427
24202		9.355696	-0.744637	-1.862901	-0.016147	0.008954	0.005037	-0.291016	-0.123291	0.722412	-155.703085	-77.474836	-10.817735
24203		9.355791	-0.744857	-1.862334	-0.015182	0.005675	0.005889	-0.293457	-0.125732	0.719238	-155.694125	-77.475455	-10.830491
24204		9.381288	-0.774313	-1.891456	-0.020717	0.008627	0.004290	-0.291504	-0.117188	0.718994	-155.691847	-77.478515	-10.840961
24205		9.389123	-0.754498	-1.863533	-0.019102	0.009355	0.002982	-0.296631	-0.118652	0.719971	-155.688056	-77.481741	-10.850723
24206		9.364547	-0.778389	-1.860300	-0.019102	0.009357	0.002984	-0.288818	-0.124023	0.721191	-155.686418	-77.485510	-10.856665
24207		9.364697	-0.778559	-1.859477	-0.015771	0.011117	0.007568	-0.299072	-0.120605	0.718994	-155.668048	-77.488573	-10.879405
24208		9.348806	-0.764784	-1.885986	-0.018841	0.008850	-0.001570	-0.292236	-0.122803	0.723633	-155.677891	-77.493164	-10.875428
24209		9.353346	-0.745676	-1.899992	-0.020686	0.013359	0.004059	-0.298828	-0.120605	0.718750	-155.668197	-77.498226	-10.892165
24210		9.352543	-0.763625	-1.841973	-0.020702	0.010999	0.004182	-0.298096	-0.123047	0.720215	-155.663112	-77.502601	-10.904375
24211		9.369756	-0.759380	-1.870898	-0.021697	0.009560	0.003579	-0.293945	-0.119629	0.718506	-155.659159	-77.505792	-10.915824
24212		9.385946	-0.773152	-1.842831	-0.022317	0.010276	0.005498	-0.301025	-0.123535	0.718506	-155.652548	-77.509505	-10.930362
24213		9.341300	-0.731137	-1.881841	-0.023933	0.009552	0.006811	-0.295654	-0.125977	0.720947	-155.642257	-77.511928	-10.949615
24214		9.369174	-0.777846	-1.811437	-0.018351	0.013682	0.008052	-0.295166	-0.124268	0.725830	-155.623797	-77.516886	-10.975725
24215		9.378073	-0.740449	-1.840062	-0.020326	0.013165	0.006721	-0.297363	-0.125732	0.719971	-155.607772	-77.521213	-10.998733
24216		9.357895	-0.745662	-1.851407	-0.018089	0.013179	0.003497	-0.289063	-0.122070	0.717285	-155.600681	-77.526887	-11.012788
24217		9.346037	-0.784418	-1.862901	-0.019362	0.009885	0.007571	-0.291748	-0.124268	0.720215	-155.585589	-77.529300	-11.034275
24218		9.341137	-0.750431	-1.819873	-0.019346	0.012249	0.007456	-0.291992	-0.121826	0.719971	-155.571114	-77.533422	-11.055006
24219		9.387067	-0.774960	-1.836350	-0.021974	0.007722	0.008278	-0.292725	-0.121826	0.721924	-155.558154	-77.534537	-11.075842
24220		9.366777	-0.780442	-1.848176	-0.020978	0.009164	0.008889	-0.298096	-0.118408	0.719238	-155.544288	-77.536725	-11.096426
24221		9.350873	-0.766987	-1.874808	-0.022953	0.008649	0.007559	-0.296875	-0.130859	0.713623	-155.532582	-77.538492	-11.116551
24222		9.346600	-0.786237	-1.859308	-0.023573	0.009365	0.009481	-0.298096	-0.122314	0.716553	-155.518263	-77.540846	-11.141010
24223		9.390715	-0.775784	-1.791654	-0.015803	0.006413	0.007843	-0.300293	-0.129639	0.717529	-155.504184	-77.541378	-11.159370
24224		9.354389	-0.767251	-1.831061	-0.018152	0.003744	0.003984	-0.298340	-0.117432	0.712402	-155.505740	-77.542147	-11.165115
24225		9.383065	-0.796011	-1.818665	-0.017471	-0.001399	0.009504	-0.295166	-0.123535	0.727295	-155.497101	-77.538211	-11.178883
24226		9.382997	-0.796533	-1.818783	-0.015837	0.001691	0.008080	-0.301514	-0.131592	0.713867	-155.489683	-77.536799	-11.189442
24227		9.365823	-0.801306	-1.789285	-0.015871	-0.003034	0.008312	-0.293701	-0.127197	0.722656	-155.484707	-77.532293	-11.198520
24228		9.407565	-0.773402	-1.821799	-0.019819	-0.004064	0.005647	-0.298828	-0.122314	0.714844	-155.492133	-77.528558	-11.200622
24229		9.420178	-0.788086	-1.837130	-0.019181	-0.002414	0.003615	-0.295898	-0.126465	0.725586	-155.499460	-77.525493	-11.199042
24230		9.387039	-0.778747	-1.834889	-0.015836	0.001694	0.008087	-0.294434	-0.128418	0.722412	-155.492279	-77.524119	-11.211207
24231		9.386988	-0.778971	-1.835059	-0.016586	-0.002610	0.003030	-0.288818	-0.122070	0.717285	-155.499707	-77.521091	-11.208001
24232		9.370912	-0.765524	-1.862585	-0.013521	-0.000363	0.012181	-0.288086	-0.125732	0.720215	-155.484331	-77.517523	-11.226903
24233		9.391195	-0.761053	-1.850380	-0.011037	-0.003216	0.004501	-0.287598	-0.124268	0.725830	-155.485771	-77.513829	-11.226574
24234		9.354719	-0.752364	-1.890570	-0.014629	-0.004455	0.004480	-0.299805	-0.122803	0.725830	-155.493933	-77.509817	-11.221506
24235		9.361178	-0.751278	-1.806729	-0.013275	-0.003227	0.007735	-0.298584	-0.125000	0.717041	-155.489055	-77.505349	-11.228961
24236		9.386483	-0.780862	-1.836835	-0.012636	-0.001576	0.005701	-0.298096	-0.120605	0.720459	-155.488947	-77.502881	-11.231923
24237		9.370455	-0.767287	-1.864158	-0.009027	0.002026	0.005609	-0.295898	-0.120850	0.722168	-155.481007	-77.501656	-11.240021
24238		9.361679	-0.805400	-1.834380	-0.010984	0.003876	0.004164	-0.300537	-0.115723	0.723633	-155.477639	-77.502315	-11.243505
24239		9.353386	-0.771869	-1.834239	-0.008161	-0.001551	-0.000763	-0.295166	-0.126465	0.724609	-155.488027	-77.500741	-11.232322
24240		9.348954	-0.790698	-1.819670	-0.007804	-0.001763	0.001881	-0.289307	-0.125977	0.723389	-155.494273	-77.498996	-11.224430
24241		9.406813	-0.776371	-1.824417	-0.005173	0.002763	0.001066	-0.290283	-0.118896	0.719482	-155.494020	-77.499235	-11.222393
24242		9.427217	-0.771377	-1.811838	-0.005190	0.000400	0.001179	-0.293701	-0.125000	0.714111	-155.498878	-77.498601	-11.214097
24243		9.385801	-0.728348	-1.809446	-0.006825	-0.002687	0.002604	-0.295166	-0.124756	0.723145	-155.501796	-77.495634	-11.209782
24244		9.409418	-0.722759	-1.755084	-0.007804	-0.001762	0.001882	-0.291504	-0.129395	0.720703	-155.508534	-77.493891	-11.202905
24245		9.386298	-0.781684	-1.837433	-0.002255	-0.002375	0.003347	-0.298096	-0.138184	0.716309	-155.506750	-77.490910	-11.200724
24246		9.411033	-0.757942	-1.839904	-0.004212	-0.000524	0.001902	-0.293457	-0.119141	0.715576	-155.510795	-77.489885	-11.199016
24247		9.357566	-0.753540	-1.849881	-0.007410	0.002752	0.004301	-0.288818	-0.125000	0.726563	-155.504234	-77.489350	-11.204753
24248		9.320700	-0.816200	-1.860042	-0.003216	0.000914	0.002512	-0.295654	-0.128418	0.722168	-155.504084	-77.488716	-11.200417
24249		9.341151	-0.811114	-1.847273	-0.003895	0.006064	-0.003002	-0.299072	-0.126465	0.719482	-155.509126	-77.491643	-11.192207
24250		9.366003	-0.787017	-1.849310	-0.005190	0.000401	0.001180	-0.293945	-0.117676	0.714844	-155.513683	-77.491277	-11.187708
24251		9.357223	-0.824800	-1.819683	-0.001956	0.001851	-0.001444	-0.297363	-0.128906	0.725586	-155.518466	-77.491638	-11.178625
24252		9.378733	-0.801318	-1.864162	-0.002971	-0.001950	-0.001942	-0.294434	-0.125732	0.717285	-155.531373	-77.490716	-11.161932
24253		9.332925	-0.777028	-1.847037	0.005172	-0.002764	-0.001068	-0.295898	-0.127930	0.710449	-155.536121	-77.488579	-11.148701
24254		9.349978	-0.772678	-1.876936	0.005172	-0.002764	-0.001067	-0.290771	-0.116455	0.720703	-155.543381	-77.487113	-11.134640
24255		9.348858	-0.790902	-1.820074	0.004212	0.000524	-0.001902	-0.294434	-0.119141	0.719971	-155.547122	-77.486889	-11.123004
24256		9.357558	-0.753011	-1.850140	0.005100	-0.012215	-0.000616	-0.293701	-0.119141	0.718018	-155.563039	-77.480173	-11.095443
24257		9.353028	-0.771960	-1.836023	0.002577	-0.002563	-0.000477	-0.294678	-0.128662	0.721436	-155.567657	-77.478000	-11.083868
24258		9.357314	-0.753049	-1.851355	0.002523	-0.009651	-0.000138	-0.291748	-0.124512	0.724854	-155.581557	-77.472610	-11.063361
24259		9.365445	-0.786636	-1.852293	0.003520	-0.008213	0.000472	-0.295654	-0.120850	0.716064	-155.589417	-77.467264	-11.047911
24260		9.368593	-0.786088	-1.810883	0.000925	-0.008013	0.001062	-0.301758	-0.122314	0.718262	-155.599595	-77.462418	-11.031577
24261		9.382213	-0.782613	-1.883438	-0.002291	-0.007099	0.003574	-0.290771	-0.135010	0.724609	-155.602302	-77.456918	-11.024816
24262		9.373303	-0.820621	-1.854436	0.002559	-0.004925	-0.000363	-0.291504	-0.124756	0.723389	-155.611901	-77.454130	-11.011592
24263		9.382010	-0.782572	-1.884466	0.000226	-0.005226	-0.004339	-0.300537	-0.126709	0.719482	-155.629719	-77.451479	-10.987873
24264		9.327340	-0.796317	-1.838133	0.003258	-0.007712	0.005039	-0.301758	-0.115479	0.720947	-155.628947	-77.445934	-10.983362
24265		9.370065	-0.749907	-1.928049	0.003745	-0.013438	-0.003865	-0.283936	-0.119873	0.719482	-155.652328	-77.438884	-10.951879
24266		9.368839	-0.768119	-1.871919	-0.000656	-0.004012	0.002149	-0.293945	-0.121826	0.720459	-155.656165	-77.435824	-10.940417
24267		9.385221	-0.710831	-1.874576	-0.004247	-0.005249	0.002132	-0.297607	-0.124268	0.723877	-155.661374	-77.431629	-10.932241
24268		9.381314	-0.783023	-1.887739	-0.005846	-0.003611	0.003331	-0.289063	-0.124512	0.718994	-155.665251	-77.428605	-10.927108
24269		9.348165	-0.773634	-1.885551	-0.008422	-0.001048	0.003808	-0.287354	-0.124512	0.720947	-155.664475	-77.426208	-10.927516
24270		9.371818	-0.768266	-1.831191	-0.006465	-0.002897	0.005253	-0.295898	-0.118408	0.721191	-155.664219	-77.422920	-10.926810
24271		9.363972	-0.788199	-1.859066	-0.015265	-0.006094	0.006533	-0.293213	-0.121094	0.726318	-155.666329	-77.417246	-10.928277
24272		9.360579	-0.789017	-1.901454	-0.010361	0.003166	0.002252	-0.291992	-0.117188	0.718506	-155.667970	-77.417944	-10.926318
24273		9.371673	-0.768645	-1.831776	-0.006527	0.001540	-0.002183	-0.294678	-0.124023	0.719482	-155.677386	-77.418312	-10.915169
24274		9.360620	-0.788880	-1.901306	-0.011637	-0.000133	0.006325	-0.296875	-0.127686	0.717041	-155.673794	-77.416357	-10.919517
24275		9.356214	-0.807968	-1.886550	-0.008763	0.001529	0.001054	-0.296387	-0.125977	0.716309	-155.676932	-77.415955	-10.916114
24276		9.372724	-0.750504	-1.888677	-0.007784	0.000604	0.001776	-0.293701	-0.125000	0.723877	-155.681193	-77.415625	-10.913758
24277		9.310423	-0.783799	-1.869347	-0.007821	-0.004120	0.002002	-0.289307	-0.122314	0.721924	-155.687541	-77.412050	-10.906512
24278		9.352185	-0.755644	-1.901770	-0.011035	-0.003206	0.004518	-0.287354	-0.119629	0.718262	-155.691606	-77.408833	-10.904102
24279		9.368109	-0.769690	-1.874924	-0.011394	-0.002993	0.001874	-0.299072	-0.125977	0.723389	-155.699105	-77.405878	-10.897775
24280		9.367936	-0.769803	-1.875744	-0.013703	-0.012452	0.005564	-0.299805	-0.125488	0.729248	-155.711702	-77.397659	-10.887884
24281		9.339045	-0.741592	-1.888931	-0.014267	-0.004652	0.007150	-0.297607	-0.129883	0.720703	-155.710267	-77.392593	-10.892398
24282		9.375251	-0.751005	-1.850139	-0.011728	-0.011939	0.006896	-0.298096	-0.128662	0.729980	-155.718081	-77.384478	-10.889557
24283		9.362850	-0.789842	-1.864013	-0.013704	-0.012448	0.005568	-0.289551	-0.130615	0.718506	-155.728216	-77.375713	-10.881885
24284		9.349898	-0.775664	-1.850350	-0.013344	-0.012661	0.008214	-0.294678	-0.114746	0.717285	-155.735207	-77.366792	-10.881268
24285		9.316511	-0.766416	-1.849306	-0.012125	-0.016445	0.004482	-0.291260	-0.125977	0.723389	-155.751139	-77.356195	-10.866727
24286		9.358505	-0.791536	-1.910591	-0.013381	-0.017381	0.008445	-0.299072	-0.122803	0.725830	-155.761645	-77.344718	-10.857268
24287		9.358107	-0.791908	-1.912387	-0.017333	-0.018397	0.005790	-0.288574	-0.125000	0.712402	-155.779513	-77.332791	-10.843800
24288		9.378184	-0.787024	-1.901577	-0.015061	-0.013661	0.002327	-0.294678	-0.125244	0.718018	-155.801452	-77.324768	-10.825565
24289		9.349222	-0.758559	-1.915130	-0.021485	-0.011830	0.007370	-0.288574	-0.122314	0.717285	-155.811125	-77.315901	-10.822935
24290		9.364965	-0.772730	-1.889325	-0.021865	-0.013974	0.004841	-0.284180	-0.119873	0.715332	-155.831531	-77.307079	-10.809827
24291		9.352009	-0.758424	-1.875804	-0.022121	-0.013475	0.009414	-0.286377	-0.124512	0.723877	-155.838515	-77.296873	-10.810326
24292		9.351686	-0.758644	-1.877325	-0.025457	-0.015198	0.004839	-0.290771	-0.129150	0.721924	-155.862664	-77.287192	-10.793961
24293		9.371777	-0.753819	-1.866519	-0.030283	-0.015003	0.008684	-0.290527	-0.122070	0.718506	-155.877574	-77.276358	-10.791129
24294		9.367052	-0.773048	-1.853431	-0.032877	-0.014794	0.009289	-0.290283	-0.119141	0.718262	-155.894979	-77.266032	-10.788445
24295		9.375464	-0.735424	-1.884474	-0.028306	-0.014488	0.010022	-0.296631	-0.127197	0.722656	-155.905099	-77.255154	-10.789362
24296		9.328891	-0.783040	-1.839531	-0.028706	-0.018988	0.007607	-0.292236	-0.119873	0.722412	-155.927780	-77.243097	-10.777718
24297		9.362522	-0.774471	-1.900687	-0.022119	-0.013459	0.009439	-0.291016	-0.122070	0.722900	-155.934616	-77.232894	-10.778368
24298		9.386461	-0.822421	-1.875515	-0.017333	-0.018370	0.005820	-0.303223	-0.123535	0.725586	-155.954200	-77.221487	-10.761857
24299		9.423534	-0.813137	-1.894568	-0.009895	-0.016407	0.001262	-0.287354	-0.129639	0.718750	-155.975899	-77.211649	-10.740084
24300		9.365379	-0.827440	-1.891079	-0.001713	-0.012521	0.001879	-0.286865	-0.131592	0.725342	-155.989677	-77.204383	-10.723731
24301		9.419615	-0.813622	-1.938971	-0.002017	-0.005224	-0.001101	-0.289551	-0.122559	0.720947	-156.000784	-77.200947	-10.708190
24302		9.386481	-0.803883	-1.936793	0.001575	-0.003997	-0.001096	-0.296631	-0.121094	0.726563	-156.011460	-77.198619	-10.692587
24303		9.340797	-0.779477	-1.919356	-0.004934	-0.000081	-0.003367	-0.302734	-0.123291	0.726807	-156.024178	-77.198401	-10.677107
24304		9.365645	-0.755541	-1.921498	-0.003806	0.003985	0.004343	-0.292236	-0.122559	0.724609	-156.015805	-77.199256	-10.683146
24305		9.353461	-0.794064	-1.934096	-0.007164	-0.000093	-0.000120	-0.292969	-0.122314	0.720703	-156.022333	-77.198276	-10.675324
24306		9.336526	-0.798361	-1.904211	-0.001938	0.004215	-0.001548	-0.292480	-0.121826	0.727295	-156.026822	-77.200458	-10.666212
24307		9.316154	-0.803006	-1.916389	-0.003935	0.001352	-0.002760	-0.292969	-0.129883	0.725830	-156.036106	-77.200849	-10.653668
24308		9.336633	-0.797814	-1.903919	-0.002956	0.000424	-0.002042	-0.289551	-0.128418	0.723633	-156.046598	-77.201139	-10.641049
24309		9.369721	-0.807317	-1.906415	-0.002574	0.002566	0.000491	-0.294434	-0.118164	0.715820	-156.046367	-77.201409	-10.637462
24310		9.386751	-0.802762	-1.935954	-0.001958	0.001856	-0.001436	-0.286865	-0.121582	0.725342	-156.053096	-77.202352	-10.626342
24311		9.382048	-0.768669	-1.893140	-0.006127	0.006059	0.000264	-0.289063	-0.112305	0.724365	-156.051848	-77.204504	-10.625885
24312		9.399066	-0.764328	-1.922654	-0.001252	-0.000941	0.003965	-0.286377	-0.134766	0.712891	-156.048509	-77.202497	-10.621132
24313		9.370360	-0.736134	-1.934694	-0.007035	0.002541	0.006985	-0.293457	-0.121338	0.721436	-156.035891	-77.201244	-10.632868
24314		9.345554	-0.760328	-1.932254	0.000999	0.001432	0.000607	-0.290283	-0.118652	0.723877	-156.037236	-77.201496	-10.627948
24315		9.300366	-0.789111	-1.942066	-0.003533	0.005854	-0.000338	-0.286865	-0.122070	0.724854	-156.036097	-77.203681	-10.625856
24316		9.367564	-0.789605	-2.003414	-0.002878	0.009864	-0.002486	-0.287354	-0.126221	0.729248	-156.037750	-77.208884	-10.618920
24317		9.355213	-0.774777	-1.987263	-0.002838	0.014585	-0.002708	-0.285645	-0.116211	0.724121	-156.032729	-77.216192	-10.620401
24318		9.355523	-0.774475	-1.985922	-0.010619	0.015204	-0.000900	-0.283936	-0.128418	0.722900	-156.030017	-77.223735	-10.622813
24319		9.322753	-0.764551	-1.982095	-0.005451	0.012433	-0.001992	-0.292969	-0.123779	0.720459	-156.027047	-77.229749	-10.623725
24320		9.346793	-0.759006	-1.926771	-0.007125	0.004629	-0.000341	-0.289795	-0.126953	0.720947	-156.032058	-77.231777	-10.618823
24321		9.329901	-0.763397	-1.896539	-0.007722	0.007700	0.001476	-0.286133	-0.117188	0.723145	-156.027238	-77.234506	-10.622966
24322		9.326580	-0.763595	-1.938267	-0.004913	0.002282	-0.003477	-0.293701	-0.130127	0.722412	-156.040330	-77.235986	-10.606304
24323		9.326649	-0.763343	-1.938030	-0.006146	0.003701	0.000377	-0.291992	-0.124023	0.719971	-156.041256	-77.236878	-10.603630
24324		9.347138	-0.758331	-1.925366	-0.009738	0.002476	0.000372	-0.295898	-0.119629	0.725098	-156.048009	-77.237755	-10.599499
24325		9.355389	-0.791666	-1.925739	-0.005569	-0.001729	-0.001330	-0.286865	-0.119873	0.731445	-156.058128	-77.236200	-10.587060
24326		9.347137	-0.758026	-1.925491	-0.002594	0.000206	0.000602	-0.296143	-0.130859	0.721436	-156.062217	-77.235652	-10.577632
24327		9.347101	-0.758006	-1.925673	-0.008799	-0.003173	0.001309	-0.291260	-0.124023	0.722168	-156.069564	-77.232726	-10.569933
24328		9.334898	-0.796233	-1.938599	-0.003934	0.001355	-0.002759	-0.290527	-0.119873	0.719971	-156.081347	-77.233765	-10.557555
24329		9.310087	-0.819640	-1.936546	-0.000146	-0.004991	-0.006997	-0.292969	-0.132080	0.718018	-156.104793	-77.231815	-10.528266
24330		9.339251	-0.776360	-1.953766	-0.000998	-0.001432	-0.000608	-0.287842	-0.120361	0.724365	-156.112746	-77.230857	-10.516983
24331		9.375676	-0.785476	-1.914539	0.000578	-0.005430	-0.001708	-0.293457	-0.129395	0.718018	-156.123991	-77.227448	-10.499779
24332		9.342506	-0.775629	-1.912586	-0.001419	-0.008293	-0.002923	-0.297119	-0.125732	0.723633	-156.144590	-77.223365	-10.475172
24333		9.359347	-0.771003	-1.943133	-0.002671	-0.009235	0.001041	-0.294434	-0.128174	0.722656	-156.155211	-77.217323	-10.460516
24334		9.326126	-0.761425	-1.941302	-0.005245	-0.006669	0.001535	-0.292236	-0.124512	0.724365	-156.165780	-77.213204	-10.450233
24335		9.366845	-0.751644	-1.917174	-0.003650	-0.008306	0.000325	-0.282471	-0.118652	0.718262	-156.177647	-77.207814	-10.434873
24336		9.341859	-0.775639	-1.915742	-0.005881	-0.008319	0.003573	-0.292725	-0.124512	0.724121	-156.185769	-77.202093	-10.423611
24337		9.346024	-0.756766	-1.931381	-0.005284	-0.011388	0.001756	-0.294434	-0.126221	0.717773	-156.198386	-77.194755	-10.408442
24338		9.354091	-0.790218	-1.932626	-0.005608	-0.006447	-0.001107	-0.292236	-0.116211	0.714355	-156.214979	-77.191321	-10.391084
24339		9.378798	-0.766228	-1.935420	-0.007819	-0.004101	0.002031	-0.291260	-0.123779	0.721191	-156.220984	-77.187739	-10.384184
24340		9.374377	-0.785194	-1.921003	-0.009758	0.000117	0.000489	-0.286133	-0.119629	0.723145	-156.229197	-77.187325	-10.374658
24341		9.378749	-0.766030	-1.935738	-0.007164	-0.000089	-0.000115	-0.291504	-0.119873	0.726074	-156.235697	-77.186342	-10.366865
24342		9.350480	-0.790403	-1.975609	-0.006419	0.001830	0.005064	-0.284180	-0.125000	0.716553	-156.230110	-77.185598	-10.369441
24343		9.345632	-0.756582	-1.933346	-0.010795	-0.006033	0.000102	-0.291748	-0.124023	0.723389	-156.244221	-77.181448	-10.355978
24344		9.344677	-0.775151	-1.876750	-0.010354	0.003187	0.002309	-0.288330	-0.122803	0.718018	-156.246261	-77.182117	-10.355329
24345		9.336802	-0.794401	-1.904515	-0.006607	-0.007876	-0.001714	-0.296387	-0.122803	0.715820	-156.264016	-77.177419	-10.335667
24346		9.361511	-0.770421	-1.907299	-0.012007	-0.002255	0.003850	-0.288330	-0.126465	0.726318	-156.268332	-77.175038	-10.333158
24347		9.324904	-0.761278	-1.947222	-0.009434	-0.004821	0.003355	-0.292969	-0.124512	0.711670	-156.272922	-77.170772	-10.328658
24348		9.369583	-0.804037	-1.908479	-0.008163	-0.001518	-0.000719	-0.287109	-0.115967	0.719727	-156.285247	-77.169774	-10.316963
24349		9.353073	-0.736890	-1.907886	-0.010393	-0.001531	0.002531	-0.285156	-0.125488	0.736328	-156.288951	-77.167424	-10.313936
24350		9.365634	-0.751344	-1.923200	-0.012370	-0.002032	0.001208	-0.282715	-0.128662	0.722412	-156.299933	-77.165434	-10.303360
24351		9.373855	-0.784946	-1.923653	-0.009990	0.002968	0.004958	-0.290039	-0.120605	0.716064	-156.293265	-77.164884	-10.310734
24352		9.348646	-0.756027	-1.893453	-0.012350	0.000329	0.001101	-0.286621	-0.117920	0.719238	-156.302213	-77.164305	-10.304039
24353		9.353391	-0.790003	-1.936098	-0.014218	0.000094	0.006996	-0.293701	-0.123779	0.728760	-156.296182	-77.161778	-10.313243
24354		9.390789	-0.780804	-1.953440	-0.015559	0.001247	0.003638	-0.290527	-0.125000	0.716309	-156.299612	-77.161127	-10.312661
24355		9.348993	-0.809241	-1.921476	-0.011352	0.001762	0.001711	-0.291992	-0.125732	0.721436	-156.302423	-77.160693	-10.311114
24356		9.349001	-0.809229	-1.921444	-0.012966	0.001040	0.003033	-0.287842	-0.119629	0.725098	-156.306153	-77.160198	-10.311051
24357		9.336369	-0.794614	-1.906547	-0.011754	-0.002735	-0.000716	-0.294434	-0.130615	0.724854	-156.319321	-77.157963	-10.299118
24358		9.361143	-0.770590	-1.909039	-0.010393	-0.001527	0.002536	-0.293457	-0.124023	0.723389	-156.325425	-77.156154	-10.295063
24359		9.344145	-0.775144	-1.879400	-0.011351	0.001763	0.001714	-0.284912	-0.118652	0.723389	-156.328226	-77.155720	-10.293525
24360		9.361136	-0.770656	-1.909044	-0.013582	0.001749	0.004966	-0.293213	-0.122559	0.721680	-156.327045	-77.155008	-10.296549
24361		9.344126	-0.775186	-1.879477	-0.014347	-0.002524	-0.000107	-0.291748	-0.125244	0.722656	-156.340075	-77.152743	-10.286280
24362		9.337191	-0.775651	-1.963869	-0.014560	0.002681	0.004254	-0.292969	-0.121582	0.718018	-156.340055	-77.152816	-10.290358
24363		9.378123	-0.766073	-1.938752	-0.014540	0.005042	0.004148	-0.291992	-0.126709	0.713867	-156.335777	-77.153543	-10.297956
24364		9.349918	-0.790286	-1.978310	-0.010332	0.005556	0.002219	-0.289307	-0.125000	0.721436	-156.335000	-77.155666	-10.300229
24365		9.373920	-0.785229	-1.923219	-0.006740	0.006776	0.002219	-0.293701	-0.125732	0.731689	-156.328941	-77.157747	-10.305070
24366		9.366187	-0.804411	-1.950297	-0.006507	0.003933	-0.002248	-0.287598	-0.123779	0.715820	-156.338333	-77.159890	-10.295462
24367		9.353686	-0.789721	-1.934790	-0.003531	0.005860	-0.000318	-0.287354	-0.119873	0.734863	-156.337201	-77.162075	-10.293363
24368		9.361599	-0.770370	-1.906890	-0.007759	0.002987	0.001718	-0.293457	-0.127441	0.725586	-156.339149	-77.162678	-10.289797
24369		9.336817	-0.794109	-1.904562	-0.006527	0.001574	-0.002142	-0.289551	-0.122070	0.730957	-156.348259	-77.163032	-10.278954
24370		9.336782	-0.793930	-1.904807	-0.008819	-0.005522	0.001429	-0.290771	-0.121826	0.722900	-156.360027	-77.159342	-10.268016
24371		9.320643	-0.779703	-1.932264	-0.010393	-0.001523	0.002540	-0.288086	-0.117920	0.720703	-156.363691	-77.156994	-10.265030
24372		9.348883	-0.755648	-1.892437	-0.009394	-0.000094	0.003148	-0.290039	-0.120850	0.718750	-156.365946	-77.155744	-10.261219
24373		9.361475	-0.770268	-1.907542	-0.008395	0.001335	0.003757	-0.288330	-0.124023	0.727783	-156.362784	-77.154617	-10.264060
24374		9.381903	-0.765508	-1.895139	-0.008778	-0.000800	0.001219	-0.290771	-0.122559	0.717285	-156.370123	-77.153435	-10.256065
24375		9.366227	-0.804201	-1.950194	-0.009990	0.002974	0.004975	-0.288330	-0.120117	0.725830	-156.363422	-77.152888	-10.263473
24376		9.349264	-0.808944	-1.920285	-0.005166	0.002780	0.001113	-0.289307	-0.119141	0.725830	-156.365156	-77.153635	-10.258563
24377		9.316214	-0.799320	-1.917635	-0.005207	-0.001941	0.001324	-0.291992	-0.123535	0.721680	-156.369068	-77.151347	-10.252275
24378		9.353640	-0.789693	-1.935021	-0.002340	-0.000272	-0.003965	-0.294189	-0.125977	0.735352	-156.383894	-77.151664	-10.232485
24379		9.365342	-0.822795	-1.893289	0.000020	0.002360	-0.000105	-0.288086	-0.111328	0.715088	-156.383768	-77.151962	-10.227266
24380		9.382000	-0.765280	-1.894750	-0.001957	0.001863	-0.001427	-0.289795	-0.124756	0.728271	-156.390135	-77.152796	-10.214679
24381		9.374165	-0.784488	-1.922328	-0.002613	-0.002151	0.000714	-0.294189	-0.130371	0.731445	-156.394170	-77.150538	-10.206740
24382		9.328464	-0.760328	-1.904825	-0.004591	-0.002647	-0.000607	-0.292725	-0.125732	0.717041	-156.405526	-77.148847	-10.195301
24383		9.353213	-0.736428	-1.907377	-0.009435	-0.004813	0.003361	-0.292725	-0.125000	0.724121	-156.410049	-77.144583	-10.190871
24384		9.349703	-0.736969	-1.949689	-0.012220	0.002959	0.008231	-0.289063	-0.126709	0.717529	-156.399328	-77.143933	-10.205486
24385		9.324844	-0.761144	-1.947559	-0.010393	-0.001520	0.002544	-0.286133	-0.122803	0.722656	-156.402972	-77.141586	-10.202520
24386		9.320428	-0.780330	-1.933049	-0.008395	0.001337	0.003761	-0.291992	-0.123291	0.728516	-156.402363	-77.140955	-10.203556
24387		9.324839	-0.761356	-1.947499	-0.010352	0.003202	0.002336	-0.288818	-0.126709	0.720215	-156.401719	-77.141135	-10.204965
24388		9.345723	-0.809266	-1.962831	-0.007122	0.004645	-0.000310	-0.290771	-0.122314	0.720215	-156.406279	-77.143209	-10.200460
24389		9.353619	-0.789962	-1.935013	-0.004187	0.001849	0.001829	-0.288086	-0.125488	0.728760	-156.404628	-77.142795	-10.199278
24390		9.374095	-0.785114	-1.922413	-0.004550	0.002075	-0.000815	-0.291748	-0.127930	0.723877	-156.411449	-77.143595	-10.190263
24391		9.353711	-0.789721	-1.934667	-0.008121	0.003218	-0.000917	-0.291504	-0.123535	0.721924	-156.416996	-77.144530	-10.184011
24392		9.345465	-0.755920	-1.934413	-0.004016	-0.008072	-0.002330	-0.291748	-0.124023	0.723389	-156.437113	-77.140445	-10.162201
24393		9.364891	-0.769960	-1.865596	-0.005802	0.001127	0.003152	-0.286377	-0.125977	0.719482	-156.434067	-77.139349	-10.163400
24394		9.348817	-0.755628	-1.892770	-0.006568	-0.003141	-0.001927	-0.289063	-0.127441	0.720459	-156.449883	-77.137699	-10.146790
24395		9.324858	-0.760387	-1.947789	-0.004611	-0.005005	-0.000502	-0.288818	-0.124023	0.729248	-156.460705	-77.134219	-10.133064
24396		9.324740	-0.760343	-1.948370	-0.007841	-0.006449	0.002145	-0.293213	-0.124268	0.729736	-156.471330	-77.129861	-10.123012
24397		9.345043	-0.755581	-1.936582	-0.005248	-0.006659	0.001534	-0.291748	-0.124756	0.723145	-156.479478	-77.125045	-10.112403
24398		9.356557	-0.788957	-1.895714	-0.008840	-0.007876	0.001538	-0.284424	-0.120605	0.717529	-156.493085	-77.120158	-10.099712
24399		9.335925	-0.793979	-1.908983	-0.000335	-0.008961	0.004992	-0.296387	-0.119873	0.729248	-156.492761	-77.113342	-10.094906
24400		9.348348	-0.808664	-1.924856	0.002531	-0.007291	-0.000299	-0.291748	-0.121582	0.721680	-156.503193	-77.109132	-10.076245
24401		9.343823	-0.827775	-1.910941	-0.000062	-0.007080	0.000313	-0.297363	-0.127441	0.732178	-156.511565	-77.104373	-10.062357
24402		9.352400	-0.789594	-1.941049	0.004084	-0.013648	-0.001309	-0.293701	-0.121094	0.723389	-156.529832	-77.097166	-10.037658
24403		9.369167	-0.784905	-1.971777	0.001532	-0.008717	-0.000906	-0.281738	-0.118408	0.723633	-156.541692	-77.091823	-10.019253
24404		9.380341	-0.765686	-1.902784	0.002279	-0.006811	0.004278	-0.284668	-0.123535	0.718018	-156.541442	-77.086744	-10.011335
24405		9.343666	-0.756521	-1.942847	0.004509	-0.006795	0.001022	-0.283203	-0.122070	0.723633	-156.545249	-77.081971	-9.999443
24406		9.334763	-0.794954	-1.914253	0.006487	-0.006299	0.002342	-0.286133	-0.123291	0.735352	-156.547054	-77.077550	-9.988155
24407		9.355022	-0.790464	-1.902649	0.005446	-0.012445	0.001946	-0.289795	-0.123779	0.725342	-156.553810	-77.069596	-9.972685
24408		9.371793	-0.786136	-1.933190	0.014265	-0.006931	0.000508	-0.278809	-0.122314	0.725586	-156.555883	-77.065281	-9.957806
24409		9.367301	-0.805288	-1.919121	0.010944	-0.006267	-0.004167	-0.293945	-0.120361	0.725098	-156.567332	-77.061968	-9.934289
24410		9.368069	-0.786300	-1.976432	0.012902	-0.008130	-0.002741	-0.288086	-0.120850	0.719482	-156.578628	-77.057769	-9.909434
24411		9.338425	-0.776416	-1.932099	0.011944	-0.004839	-0.003559	-0.287354	-0.124756	0.723877	-156.586678	-77.055066	-9.888815
24412		9.359689	-0.752705	-1.976744	0.011329	-0.004132	-0.001627	-0.293457	-0.125488	0.719727	-156.592289	-77.052818	-9.871677
24413		9.330413	-0.795824	-1.960237	0.010715	-0.003425	0.000305	-0.288330	-0.123047	0.727295	-156.590800	-77.049978	-9.861569
24414		9.375625	-0.767241	-1.950336	0.005144	-0.005139	-0.001010	-0.289795	-0.118164	0.717285	-156.599438	-77.047146	-9.846269
24415		9.362938	-0.752843	-1.935697	-0.004247	-0.005229	0.002149	-0.281738	-0.120605	0.726074	-156.604083	-77.042938	-9.838662
24416		9.342418	-0.757641	-1.948406	-0.004571	-0.000286	-0.000708	-0.288086	-0.122070	0.722168	-156.612769	-77.042427	-9.825923
24417		9.370782	-0.733485	-1.908366	-0.010350	0.003200	0.002340	-0.283203	-0.124023	0.729492	-156.612138	-77.042608	-9.827317
24418		9.375491	-0.767369	-1.950931	-0.012599	0.000826	0.005703	-0.284912	-0.125488	0.723145	-156.610101	-77.041199	-9.832389
24419		9.329843	-0.743474	-1.933147	-0.014577	0.000331	0.004384	-0.286377	-0.123291	0.728027	-156.610057	-77.039406	-9.835667
24420		9.334537	-0.777228	-1.975823	-0.013942	0.001985	0.002348	-0.289063	-0.122559	0.718750	-156.615413	-77.039383	-9.834608
24421		9.358537	-0.772310	-1.921083	-0.010964	0.003908	0.004275	-0.282715	-0.127197	0.724854	-156.610016	-77.039497	-9.841256
24422		9.350674	-0.791755	-1.948466	-0.008392	0.001339	0.003769	-0.295166	-0.127197	0.724365	-156.609510	-77.038868	-9.843051
24423		9.334600	-0.777531	-1.975406	-0.006164	0.001354	0.000512	-0.292236	-0.126709	0.726563	-156.612483	-77.038494	-9.838287
24424		9.355095	-0.772698	-1.962833	-0.007757	0.002992	0.001732	-0.286621	-0.117676	0.724854	-156.614205	-77.039404	-9.839504
24425		9.355142	-0.772540	-1.962675	-0.006528	0.001581	-0.002131	-0.287842	-0.118896	0.721436	-156.623205	-77.039751	-9.828770
24426		9.346963	-0.738848	-1.962072	-0.005185	0.000422	0.001225	-0.288574	-0.120850	0.723389	-156.626890	-77.039192	-9.821009
24427		9.330301	-0.796288	-1.960583	-0.007799	-0.001726	0.001943	-0.292725	-0.124023	0.726807	-156.630572	-77.036873	-9.816479
24428		9.350724	-0.791477	-1.948341	-0.008777	-0.000793	0.001232	-0.285156	-0.127930	0.724121	-156.637619	-77.035785	-9.810119
24429		9.350698	-0.791502	-1.948454	-0.006799	-0.000299	0.002551	-0.285400	-0.119629	0.722656	-156.637929	-77.034079	-9.808462
24430		9.355053	-0.772349	-1.963172	-0.005570	-0.001710	-0.001313	-0.295654	-0.124023	0.725342	-156.650408	-77.032952	-9.794688
24431		9.334542	-0.777333	-1.975758	-0.006070	-0.000752	0.007840	-0.283936	-0.123535	0.722168	-156.638668	-77.029806	-9.804967
24432		9.317523	-0.782297	-1.946213	-0.005206	-0.001936	0.001332	-0.291992	-0.128906	0.721191	-156.644718	-77.028096	-9.798102
24433		9.370951	-0.787276	-1.936805	-0.008434	-0.003378	0.003982	-0.291260	-0.128174	0.718994	-156.645732	-77.024445	-9.796683
24434		9.354878	-0.773119	-1.963702	-0.009329	0.006992	0.002852	-0.286865	-0.119141	0.720947	-156.642053	-77.027221	-9.804773
24435		9.334508	-0.778074	-1.975629	-0.007371	0.005127	0.004276	-0.290527	-0.124756	0.723145	-156.633402	-77.027977	-9.812647
24436		9.347116	-0.792737	-1.990533	-0.010984	0.001553	0.004387	-0.288818	-0.124023	0.728516	-156.632232	-77.027378	-9.815292
24437		9.355011	-0.773581	-1.962889	-0.011349	0.001781	0.001744	-0.285645	-0.127930	0.724609	-156.634942	-77.026950	-9.813847
24438		9.362928	-0.754345	-1.935161	-0.012941	0.003420	0.002966	-0.286377	-0.112061	0.726807	-156.636901	-77.027582	-9.816823
24439		9.326354	-0.745050	-1.974672	-0.010663	-0.003392	0.007242	-0.297852	-0.124023	0.722656	-156.631770	-77.023183	-9.823021
24440		9.334480	-0.778753	-1.975493	-0.014941	0.000569	0.001753	-0.291260	-0.118164	0.722656	-156.639233	-77.022710	-9.817492
24441		9.309330	-0.749591	-1.945310	-0.016304	-0.000628	-0.001497	-0.286865	-0.126709	0.734375	-156.654554	-77.021750	-9.806020
24442		9.342340	-0.758967	-1.948262	-0.017554	-0.001576	0.002474	-0.288330	-0.124023	0.719238	-156.664748	-77.019872	-9.801609
24443		9.337903	-0.778045	-1.933964	-0.015576	-0.001083	0.003794	-0.289551	-0.121094	0.724365	-156.668021	-77.017472	-9.802073
24444		9.362727	-0.754137	-1.936217	-0.017533	0.000785	0.002374	-0.287354	-0.128662	0.729736	-156.675955	-77.016941	-9.799428
24445		9.342215	-0.758876	-1.948901	-0.018190	-0.003227	0.004515	-0.294922	-0.126221	0.723633	-156.681187	-77.013249	-9.799417
24446		9.375187	-0.768643	-1.951891	-0.019761	0.000772	0.005638	-0.288818	-0.117432	0.720215	-156.683319	-77.012013	-9.807305
24447		9.342078	-0.759124	-1.949459	-0.014619	-0.004372	0.004612	-0.290283	-0.126221	0.732422	-156.687408	-77.007697	-9.806368
24448		9.362434	-0.754390	-1.937532	-0.014983	-0.004142	0.001970	-0.281250	-0.130127	0.720703	-156.699589	-77.004621	-9.797731
24449		9.317019	-0.782912	-1.948377	-0.017575	-0.003927	0.002588	-0.285889	-0.122803	0.729004	-156.709545	-77.000998	-9.792511
24450		9.341754	-0.759111	-1.951019	-0.018825	-0.004877	0.006560	-0.285645	-0.119385	0.731445	-156.715101	-76.996359	-9.794724
24451		9.337243	-0.778226	-1.937076	-0.016961	-0.004629	0.000656	-0.289063	-0.119873	0.724121	-156.729787	-76.992804	-9.784289
24452		9.337124	-0.778128	-1.937689	-0.015618	-0.005793	0.004012	-0.295166	-0.131592	0.720947	-156.739252	-76.988298	-9.777369
24453		9.381398	-0.768674	-1.871522	-0.016640	-0.009575	0.003507	-0.289063	-0.117432	0.730957	-156.752088	-76.981493	-9.768643
24454		9.365078	-0.754171	-1.899708	-0.014456	-0.014276	0.000450	-0.283691	-0.130615	0.727295	-156.777227	-76.973542	-9.747979
24455		9.356831	-0.773451	-1.928919	-0.005606	-0.017970	0.006631	-0.287109	-0.123779	0.723145	-156.784800	-76.961610	-9.738166
24456		9.360026	-0.773817	-1.888275	-0.000744	-0.013449	0.002547	-0.286621	-0.116943	0.727051	-156.797280	-76.953440	-9.723142
24457		9.357349	-0.807896	-2.016293	0.012399	-0.007204	0.006370	-0.288818	-0.122314	0.724365	-156.784619	-76.947236	-9.723508
24458		9.419829	-0.827856	-2.063906	0.015369	0.006262	0.000559	-0.289063	-0.118652	0.717041	-156.772238	-76.949917	-9.720608
24459		9.352179	-0.846777	-1.944568	0.015209	0.001303	-0.006458	-0.284912	-0.118652	0.727783	-156.778824	-76.951091	-9.699564
24460		9.303151	-0.822290	-1.968491	0.009659	0.001963	-0.007864	-0.288330	-0.119629	0.720947	-156.792974	-76.953423	-9.672045
24461		9.369931	-0.769292	-2.002033	0.004497	0.004750	-0.006730	-0.285156	-0.121338	0.723877	-156.802966	-76.956472	-9.653806
24462		9.357506	-0.754724	-1.986282	0.000430	0.006846	0.002337	-0.281494	-0.129395	0.718994	-156.794685	-76.959079	-9.655948
24463		9.362010	-0.735655	-2.000224	0.001657	0.005438	-0.001532	-0.282227	-0.118164	0.727539	-156.793823	-76.961317	-9.650521
24464		9.287310	-0.754507	-1.965066	0.000065	0.007077	-0.000307	-0.279053	-0.122559	0.725098	-156.792337	-76.964497	-9.647409
24465		9.361516	-0.754645	-1.941863	-0.002441	0.016727	-0.000098	-0.285156	-0.116211	0.719971	-156.779547	-76.972356	-9.656636
24466		9.344854	-0.759433	-1.910730	0.000495	0.013924	0.002032	-0.292236	-0.129639	0.725830	-156.765355	-76.978599	-9.663857
24467		9.354172	-0.773950	-1.966738	-0.005054	0.014584	0.000624	-0.282471	-0.122070	0.727295	-156.754490	-76.985164	-9.672643
24468		9.362651	-0.807359	-1.965994	-0.004418	0.016240	-0.001411	-0.288818	-0.119873	0.719727	-156.748920	-76.993567	-9.678483
24469		9.370863	-0.787951	-1.936956	-0.005418	0.014816	-0.002018	-0.287354	-0.125488	0.727051	-156.744042	-77.000852	-9.681339
24470		9.375516	-0.768620	-1.950318	-0.006076	0.010802	0.000120	-0.297852	-0.113525	0.720703	-156.740817	-77.006080	-9.683779
24471		9.342762	-0.758752	-1.946322	-0.007989	0.017391	-0.001499	-0.291016	-0.112793	0.719238	-156.733694	-77.014603	-9.690451
24472		9.360376	-0.806368	-2.002812	-0.003804	0.015539	-0.003340	-0.276123	-0.118164	0.725342	-156.730855	-77.023280	-9.686175
24473		9.365116	-0.787018	-2.015839	-0.007625	0.017163	0.001148	-0.288330	-0.113037	0.721191	-156.717684	-77.031084	-9.698838
24474		9.351954	-0.791433	-1.942445	-0.003166	0.017197	-0.005372	-0.289063	-0.131836	0.724609	-156.718978	-77.040663	-9.690405
24475		9.323619	-0.762132	-1.953031	-0.004846	0.009397	-0.003745	-0.279785	-0.125977	0.725098	-156.723033	-77.045487	-9.683757
24476		9.328249	-0.742678	-1.966597	-0.007054	0.011740	-0.000584	-0.287109	-0.121094	0.725098	-156.722095	-77.051255	-9.687685
24477		9.328461	-0.742573	-1.965634	-0.007691	0.010084	0.001452	-0.286133	-0.127930	0.719238	-156.715212	-77.055265	-9.693935
24478		9.320792	-0.761616	-1.992424	-0.012261	0.009810	0.000751	-0.284912	-0.122803	0.727295	-156.715406	-77.059785	-9.697365
24479		9.303965	-0.766308	-1.961940	-0.009306	0.009365	0.002779	-0.286377	-0.113770	0.719971	-156.707111	-77.063115	-9.706012
24480		9.341591	-0.756778	-1.978325	-0.009668	0.009597	0.000136	-0.286865	-0.123535	0.716797	-156.706968	-77.067562	-9.704741
24481		9.362246	-0.752113	-1.964821	-0.008901	0.013855	0.005228	-0.288818	-0.117676	0.721191	-156.688386	-77.072699	-9.723704
24482		9.403731	-0.795242	-1.966932	-0.007393	0.014338	-0.003319	-0.290039	-0.124023	0.722412	-156.690101	-77.080567	-9.720528
24483		9.337915	-0.775555	-1.960460	-0.008053	0.010320	-0.001187	-0.286865	-0.105713	0.722412	-156.689223	-77.085298	-9.720828
24484		9.350738	-0.789797	-1.974630	-0.005077	0.012235	0.000744	-0.292236	-0.121582	0.723145	-156.681870	-77.091066	-9.722732
24485		9.330524	-0.794460	-1.986087	-0.008669	0.011025	0.000750	-0.301758	-0.126221	0.718262	-156.676195	-77.095729	-9.728315
24486		9.338535	-0.775204	-1.957644	-0.007097	0.007025	-0.000379	-0.286377	-0.123779	0.715820	-156.677793	-77.099358	-9.728139
24487		9.338663	-0.775073	-1.957083	-0.006119	0.006089	0.000330	-0.291016	-0.124268	0.726563	-156.676509	-77.101519	-9.727719
24488		9.317332	-0.798938	-1.912356	-0.007713	0.007729	0.001558	-0.287354	-0.128174	0.721680	-156.674110	-77.104800	-9.731057
24489		9.322878	-0.760608	-1.983027	-0.012943	0.003437	0.002986	-0.298340	-0.117188	0.728760	-156.673260	-77.104964	-9.734202
24490		9.321939	-0.779737	-1.925989	-0.012282	0.007457	0.000857	-0.291748	-0.126221	0.725342	-156.674953	-77.108325	-9.735866
24491		9.340089	-0.755659	-2.011922	-0.016535	0.002229	0.002993	-0.288574	-0.120605	0.721191	-156.677342	-77.107852	-9.737800
24492		9.318630	-0.779586	-1.967760	-0.018151	0.001508	0.004319	-0.286133	-0.118652	0.720703	-156.680602	-77.107237	-9.741235
24493		9.326453	-0.760536	-1.940079	-0.015558	0.001294	0.003704	-0.288818	-0.127686	0.720215	-156.681724	-77.106111	-9.743894
24494		9.331204	-0.794132	-1.983023	-0.016196	-0.000364	0.005737	-0.284180	-0.120605	0.720947	-156.682597	-77.104137	-9.747980
24495		9.367231	-0.751346	-1.915405	-0.013986	-0.002706	0.002573	-0.277588	-0.124512	0.729004	-156.689379	-77.101163	-9.743909
24496		9.338837	-0.775239	-1.956189	-0.013670	-0.007662	0.005409	-0.287354	-0.127686	0.725830	-156.697373	-77.095168	-9.738384
24497		9.334282	-0.794544	-1.942253	-0.010394	-0.001497	0.002569	-0.291504	-0.133057	0.720947	-156.700907	-77.092831	-9.735535
24498		9.354654	-0.790088	-1.929950	-0.008056	-0.001244	0.006532	-0.286865	-0.117432	0.723877	-156.696634	-77.090295	-9.744076
24499		9.359380	-0.823771	-1.972928	-0.010371	0.000866	0.002474	-0.297363	-0.119385	0.727295	-156.698036	-77.089223	-9.743400
24500		9.346390	-0.756962	-1.929531	-0.012648	-0.003875	0.005928	-0.293213	-0.123291	0.719482	-156.699124	-77.085410	-9.743297
24501		9.309111	-0.819332	-1.941364	-0.011055	-0.005515	0.004699	-0.287842	-0.119873	0.723877	-156.702118	-77.080476	-9.741389
24502		9.342748	-0.757382	-1.972626	-0.015218	-0.001295	0.006455	-0.293457	-0.114502	0.724609	-156.701258	-77.077922	-9.746058
24503		9.333775	-0.795953	-1.944114	-0.012032	-0.004575	0.003994	-0.290039	-0.124756	0.728271	-156.705499	-77.073642	-9.743446
24504		9.354056	-0.791621	-1.932223	-0.012309	-0.006469	0.008671	-0.290283	-0.121826	0.729248	-156.702830	-77.067828	-9.747665
24505		9.316394	-0.801520	-1.915843	-0.008485	-0.008090	0.004177	-0.288574	-0.119873	0.723633	-156.708084	-77.061657	-9.741928
24506		9.358182	-0.773140	-1.947888	-0.009032	-0.000304	0.005831	-0.290771	-0.123047	0.722900	-156.704260	-77.059675	-9.745810
24507		9.349240	-0.811837	-1.919182	-0.012625	-0.001509	0.005841	-0.285645	-0.123047	0.721680	-156.701585	-77.056591	-9.750642
24508		9.365887	-0.754697	-1.920652	-0.011032	-0.003149	0.004610	-0.290039	-0.130615	0.726318	-156.704706	-77.053417	-9.749352
24509		9.345628	-0.812217	-1.962068	-0.015240	-0.003651	0.006558	-0.289795	-0.117920	0.730225	-156.704001	-77.049043	-9.753700
24510		9.353384	-0.793414	-1.934735	-0.014601	-0.001991	0.004527	-0.280029	-0.125488	0.721680	-156.708286	-77.046488	-9.754345
24511		9.349917	-0.793390	-1.977074	-0.017171	0.000589	0.005055	-0.289307	-0.118164	0.725342	-156.707952	-77.044686	-9.759448
24512		9.316895	-0.783953	-1.974229	-0.016763	0.005076	0.007513	-0.293213	-0.123535	0.723145	-156.699787	-77.045063	-9.772132
24513		9.349893	-0.793945	-1.976964	-0.018810	-0.002490	0.006479	-0.296143	-0.110107	0.729492	-156.700170	-77.041318	-9.777462
24514		9.312355	-0.803715	-1.960030	-0.017786	0.001295	0.006999	-0.291992	-0.117432	0.725098	-156.696314	-77.040040	-9.784962
24515		9.349739	-0.794482	-1.977477	-0.016240	-0.005067	0.005953	-0.289551	-0.122559	0.714844	-156.698968	-77.035058	-9.786452
24516		9.312129	-0.804262	-1.960875	-0.017833	-0.003425	0.007189	-0.285400	-0.119141	0.725586	-156.699817	-77.031231	-9.790063
24517		9.332464	-0.799724	-1.948851	-0.017578	-0.003888	0.002607	-0.280518	-0.124268	0.722168	-156.709721	-77.027628	-9.784899
24518		9.324203	-0.766210	-1.948642	-0.017240	-0.006486	0.005346	-0.287598	-0.119385	0.724854	-156.718285	-77.022355	-9.780460
24519		9.357060	-0.775984	-1.952143	-0.014033	-0.007406	0.002784	-0.287842	-0.122803	0.718018	-156.729199	-77.016860	-9.772175
24520		9.331983	-0.799948	-1.951061	-0.016263	-0.007423	0.006054	-0.292969	-0.121094	0.723145	-156.735990	-77.011097	-9.769067
24521		9.344363	-0.814367	-1.967191	-0.017625	-0.008605	0.002800	-0.288086	-0.123779	0.725342	-156.750089	-77.004966	-9.759626
24522		9.311186	-0.804530	-1.965241	-0.015986	-0.005523	0.001380	-0.291992	-0.119629	0.716553	-156.765430	-77.001318	-9.748564
24523		9.311043	-0.804267	-1.966025	-0.017987	-0.008364	0.000159	-0.289063	-0.120117	0.728760	-156.785501	-76.995910	-9.733206
24524		9.320017	-0.818039	-2.024280	-0.019579	-0.006721	0.001397	-0.286377	-0.125732	0.735596	-156.803755	-76.991627	-9.719963
24525		9.340347	-0.813228	-2.012424	-0.020170	-0.003658	0.003248	-0.287598	-0.119873	0.725830	-156.813416	-76.987998	-9.716572
24526		9.377725	-0.803641	-2.030000	-0.016577	-0.002457	0.003236	-0.278320	-0.119873	0.730713	-156.822241	-76.985376	-9.712423
24527		9.348026	-0.794038	-1.985737	-0.023171	-0.007916	0.001418	-0.289307	-0.125977	0.730469	-156.841937	-76.979917	-9.700498
24528		9.347893	-0.793823	-1.986450	-0.017577	-0.003875	0.002628	-0.282715	-0.118896	0.723145	-156.854320	-76.976601	-9.692972
24529		9.352217	-0.774249	-2.001521	-0.023533	-0.007672	-0.001222	-0.282227	-0.121582	0.725098	-156.879975	-76.971863	-9.675142
24530		9.352119	-0.773906	-2.002109	-0.022737	-0.001070	0.003796	-0.288574	-0.121094	0.725830	-156.889643	-76.969787	-9.671856
24531		9.322711	-0.816849	-1.986237	-0.023738	-0.002488	0.003187	-0.291504	-0.124512	0.732178	-156.900323	-76.966788	-9.669517
24532		9.306633	-0.802076	-2.013452	-0.022737	-0.001066	0.003801	-0.284912	-0.130127	0.722168	-156.909651	-76.964885	-9.668523
24533		9.347728	-0.845094	-2.017445	-0.023099	-0.000823	0.001160	-0.290527	-0.116211	0.722168	-156.922959	-76.963219	-9.663111
24534		9.335117	-0.830449	-2.002536	-0.028307	-0.002738	0.002511	-0.285889	-0.125488	0.727295	-156.940094	-76.960736	-9.657152
24535		9.355529	-0.825100	-1.990562	-0.027803	-0.003649	-0.006658	-0.288330	-0.119141	0.723389	-156.976624	-76.959333	-9.630669
24536		9.343875	-0.790144	-2.032541	-0.032671	-0.008165	-0.002571	-0.284180	-0.120850	0.719238	-157.013067	-76.955065	-9.606925
24537		9.373046	-0.746223	-2.049795	-0.035901	-0.009601	0.000097	-0.284424	-0.121338	0.725586	-157.044580	-76.949004	-9.590354
24538		9.352350	-0.749962	-2.063678	-0.038903	-0.013850	-0.001730	-0.287598	-0.126465	0.724121	-157.088135	-76.941491	-9.561969
24539		9.348642	-0.748611	-2.107225	-0.040470	-0.009844	-0.000567	-0.286377	-0.122314	0.724121	-157.123959	-76.935444	-9.543659
24540		9.335899	-0.733568	-2.093017	-0.045266	-0.007276	0.003261	-0.281738	-0.126221	0.727051	-157.153479	-76.930360	-9.535077
24541		9.306160	-0.723691	-2.049167	-0.040106	-0.010076	0.002093	-0.283936	-0.124023	0.730225	-157.183223	-76.923595	-9.522794
24542		9.315214	-0.789317	-2.136676	-0.037127	-0.008180	0.004023	-0.277832	-0.124268	0.726807	-157.207598	-76.917702	-9.514426
24543		9.323134	-0.822476	-2.138723	-0.028351	-0.007430	0.002738	-0.291260	-0.122803	0.725098	-157.226580	-76.912190	-9.506277
24544		9.294598	-0.845757	-2.179740	-0.026576	-0.001784	0.008466	-0.287354	-0.130859	0.734863	-157.228337	-76.908757	-9.514203
24545		9.299138	-0.878574	-2.223390	-0.026075	-0.002681	-0.000706	-0.286377	-0.126221	0.726318	-157.249299	-76.906516	-9.502681
24546		9.293720	-0.916935	-2.153174	-0.023847	-0.002655	-0.003981	-0.291260	-0.132568	0.724121	-157.278873	-76.905418	-9.482860
24547		9.265183	-0.887078	-2.164756	-0.015024	0.002810	-0.005447	-0.285156	-0.124756	0.723389	-157.299046	-76.907126	-9.465647
24548		9.290404	-0.914496	-2.195374	-0.004409	0.001466	-0.012577	-0.281006	-0.128418	0.722168	-157.332852	-76.910210	-9.430134
24549		9.301985	-0.894984	-2.125152	0.003389	0.003154	-0.014570	-0.290039	-0.129150	0.717285	-157.362913	-76.914109	-9.391940
24550		9.298790	-0.893023	-2.166623	0.013462	0.009589	-0.020010	-0.291748	-0.125244	0.717773	-157.395866	-76.923082	-9.346501
24551		9.325411	-0.899844	-2.252098	0.013852	0.023306	-0.025108	-0.283203	-0.130127	0.722900	-157.424917	-76.939952	-9.303192
24552		9.351218	-0.874294	-2.250699	0.022901	0.040781	-0.019764	-0.282715	-0.126709	0.729736	-157.422225	-76.965395	-9.288500
24553		9.344596	-0.891738	-2.273887	0.030814	0.054289	-0.022162	-0.294189	-0.125732	0.726074	-157.405502	-76.998006	-9.282207
24554		9.317604	-0.861265	-2.279351	0.030590	0.068722	-0.025289	-0.284424	-0.120605	0.719238	-157.384426	-77.039357	-9.281499
24555		9.338851	-0.874781	-2.203373	0.030658	0.075830	-0.025510	-0.289551	-0.130615	0.725342	-157.354757	-77.084099	-9.288582
24556		9.304342	-0.863142	-2.235374	0.032019	0.077026	-0.022218	-0.285889	-0.124023	0.719971	-157.317652	-77.129147	-9.303033
24557		9.276519	-0.852735	-2.183077	0.032379	0.076803	-0.019540	-0.291992	-0.128662	0.730957	-157.271914	-77.173081	-9.325584
24558		9.281626	-0.852149	-2.133598	0.034334	0.074940	-0.018106	-0.293701	-0.125732	0.718018	-157.225649	-77.216097	-9.348791
24559		9.242659	-0.860562	-2.151244	0.032164	0.082031	-0.015050	-0.282959	-0.124756	0.730469	-157.163944	-77.261787	-9.387834
24560		9.289693	-0.831381	-2.132803	0.030483	0.074238	-0.013444	-0.291504	-0.122559	0.711914	-157.109203	-77.303337	-9.421507
24561		9.262002	-0.873808	-2.109970	0.034277	0.067915	-0.017753	-0.287109	-0.122314	0.725830	-157.065988	-77.342164	-9.440343
24562		9.272602	-0.834463	-2.131771	0.037269	0.072204	-0.015865	-0.298340	-0.124756	0.720459	-157.014255	-77.383205	-9.465668
24563		9.290676	-0.900710	-2.126768	0.036875	0.067739	-0.018311	-0.292725	-0.125977	0.718994	-156.970636	-77.422057	-9.483388
24564		9.281009	-0.865713	-2.161231	0.039784	0.071825	-0.023637	-0.293457	-0.120850	0.722656	-156.935676	-77.464783	-9.492257
24565		9.295481	-0.878727	-2.169473	0.039140	0.070180	-0.021582	-0.285645	-0.127197	0.724365	-156.895703	-77.505652	-9.504906
24566		9.239319	-0.891789	-2.158404	0.036217	0.073034	-0.023651	-0.285645	-0.119873	0.725586	-156.861887	-77.548758	-9.513760
24567		9.267366	-0.847039	-2.209673	0.031336	0.068507	-0.019591	-0.299561	-0.121338	0.727051	-156.823015	-77.588293	-9.529857
24568		9.276520	-0.826665	-2.175474	0.024413	0.063282	-0.024082	-0.291016	-0.124023	0.718506	-156.806359	-77.626355	-9.526961
24569		9.270679	-0.844009	-2.196896	0.026443	0.070894	-0.022962	-0.295898	-0.121826	0.721436	-156.775671	-77.667905	-9.537544
24570		9.261177	-0.808654	-2.231684	0.017642	0.067762	-0.021648	-0.291992	-0.122803	0.726318	-156.752355	-77.707855	-9.546529
24571		9.275741	-0.821222	-2.240173	0.013118	0.072253	-0.022492	-0.297119	-0.121826	0.720703	-156.726509	-77.750012	-9.559968
24572		9.248974	-0.790520	-2.245478	0.002368	0.071002	-0.022592	-0.297363	-0.123779	0.720947	-156.710694	-77.791826	-9.570190
24573		9.233351	-0.793499	-2.209422	-0.004429	0.073092	-0.020115	-0.291260	-0.124023	0.718262	-156.688000	-77.833884	-9.590685
24574		9.210256	-0.815650	-2.201426	-0.009317	0.068549	-0.016087	-0.291260	-0.124023	0.712646	-156.665534	-77.872938	-9.615101
24575		9.237721	-0.842265	-2.225112	-0.008989	0.072859	-0.020782	-0.291504	-0.121094	0.713867	-156.647050	-77.915022	-9.633957
24576		9.230356	-0.878600	-2.189917	-0.017773	0.072090	-0.019567	-0.296875	-0.114502	0.718018	-156.634022	-77.956665	-9.652361
24577		9.249540	-0.871076	-2.213107	-0.023071	0.065204	-0.025326	-0.301514	-0.116699	0.718506	-156.642804	-77.995754	-9.651583
24578		9.246605	-0.887523	-2.193025	-0.024695	0.064491	-0.023994	-0.292969	-0.118896	0.729004	-156.651582	-78.034480	-9.649084
24579		9.192228	-0.879685	-2.240271	-0.030882	0.063506	-0.023392	-0.286621	-0.126709	0.720703	-156.661917	-78.072236	-9.651293
24580		9.201077	-0.857920	-2.206816	-0.032506	0.062792	-0.022061	-0.291992	-0.118164	0.716309	-156.673977	-78.109282	-9.652583
24581		9.196545	-0.926378	-2.258204	-0.037439	0.058033	-0.025267	-0.290771	-0.118408	0.719971	-156.698743	-78.144583	-9.643884
24582		9.209895	-0.884856	-2.239506	-0.037775	0.058301	-0.027875	-0.295410	-0.119141	0.713867	-156.732696	-78.180641	-9.623423
24583		9.226919	-0.895995	-2.207624	-0.043023	0.051611	-0.026449	-0.293457	-0.125977	0.718506	-156.770835	-78.212827	-9.604332
24584		9.182195	-0.868762	-2.186046	-0.047901	0.053987	-0.029852	-0.298828	-0.124268	0.716553	-156.820692	-78.247159	-9.575612
24585		9.216652	-0.874176	-2.184212	-0.051267	0.040451	-0.034114	-0.293213	-0.125732	0.719238	-156.895477	-78.275184	-9.523922
24586		9.217792	-0.870041	-2.181051	-0.053548	0.038050	-0.030790	-0.296875	-0.128174	0.719238	-156.968862	-78.301315	-9.475409
24587		9.211737	-0.884685	-2.206334	-0.062059	0.032075	-0.034041	-0.294678	-0.124023	0.724609	-157.059304	-78.324877	-9.414054
24588		9.206701	-0.847135	-2.161259	-0.068292	0.023950	-0.033264	-0.295898	-0.125977	0.714844	-157.163442	-78.344003	-9.342800
24589		9.191900	-0.827751	-2.187212	-0.074215	0.015390	-0.037056	-0.304688	-0.126709	0.717773	-157.287152	-78.359373	-9.254597
24590		9.186437	-0.789748	-2.143802	-0.085659	0.005314	-0.035010	-0.292725	-0.127441	0.719238	-157.425651	-78.369146	-9.158453
24591		9.197333	-0.797907	-2.201715	-0.090938	-0.003925	-0.040728	-0.290039	-0.131836	0.718506	-157.589488	-78.375008	-9.039072
24592		9.189346	-0.779251	-2.103802	-0.104977	-0.013778	-0.038058	-0.292480	-0.134277	0.711426	-157.768534	-78.374923	-8.912930
24593		9.169163	-0.778029	-2.119307	-0.113493	-0.022091	-0.041209	-0.295898	-0.128662	0.720703	-157.965779	-78.371097	-8.772635
24594		9.184425	-0.786408	-2.095841	-0.120086	-0.037054	-0.042858	-0.296387	-0.125977	0.719238	-158.189595	-78.359613	-8.610023
24595		9.164709	-0.733201	-2.042638	-0.132539	-0.055649	-0.041225	-0.289063	-0.132568	0.721191	-158.431812	-78.337705	-8.434939
24596		9.169233	-0.656105	-1.992197	-0.145304	-0.076183	-0.034945	-0.291748	-0.130859	0.708252	-158.687948	-78.303311	-8.252012
24597		9.148687	-0.603612	-1.942568	-0.159047	-0.098115	-0.029263	-0.288330	-0.137939	0.709717	-158.954935	-78.255925	-8.067099
24598		9.133708	-0.584127	-1.938159	-0.170812	-0.117166	-0.022263	-0.293213	-0.135986	0.721680	-159.230490	-78.196784	-7.880591
24599		9.160440	-0.535343	-1.965665	-0.180609	-0.135718	-0.013895	-0.291748	-0.130615	0.719971	-159.502719	-78.125777	-7.702864
24600		9.224469	-0.476747	-2.010417	-0.189350	-0.138570	-0.005145	-0.292725	-0.138672	0.722656	-159.760243	-78.051326	-7.544137
24601		9.266384	-0.443877	-2.012712	-0.206259	-0.149976	0.003119	-0.280762	-0.131104	0.709229	-160.011999	-77.968967	-7.402265
24602		9.280643	-0.434407	-2.056981	-0.209158	-0.153894	0.008745	-0.287354	-0.140625	0.712646	-160.254776	-77.883227	-7.269418
24603		9.255689	-0.413668	-2.183150	-0.209377	-0.153179	0.020836	-0.287109	-0.143311	0.724609	-160.461654	-77.795487	-7.175191
24604		9.331608	-0.443494	-2.218442	-0.207635	-0.140270	0.026803	-0.282227	-0.147461	0.713379	-160.642140	-77.713544	-7.107347
24605		9.396100	-0.511328	-2.266943	-0.199099	-0.115333	0.022700	-0.281006	-0.146484	0.728760	-160.801953	-77.645797	-7.055211
24606		9.419036	-0.609189	-2.283973	-0.179896	-0.105833	0.018805	-0.274658	-0.147949	0.716553	-160.954499	-77.583789	-7.000297
24607		9.597268	-0.689148	-2.226019	-0.143285	-0.090320	-0.002348	-0.281006	-0.144531	0.718262	-161.120544	-77.534198	-6.909007
24608		9.747681	-0.666027	-2.201770	-0.103348	-0.049706	-0.026695	-0.281494	-0.140625	0.715820	-161.291724	-77.510935	-6.788581
24609		9.802692	-0.688608	-2.097842	-0.060517	-0.019120	-0.048993	-0.281738	-0.141602	0.713623	-161.464178	-77.508421	-6.642137
24610		9.799806	-0.680427	-2.140688	-0.013415	0.009674	-0.066085	-0.286621	-0.142334	0.732178	-161.630146	-77.524570	-6.471928
24611		9.868509	-0.743112	-2.173468	0.048701	0.059137	-0.085559	-0.275146	-0.140137	0.723145	-161.766724	-77.571028	-6.298160
24612		9.991273	-0.977793	-2.082873	0.128246	0.136667	-0.096323	-0.280762	-0.142578	0.716553	-161.824855	-77.661379	-6.154865
24613		10.155253	-1.224697	-1.901586	0.217422	0.207072	-0.114494	-0.281982	-0.141602	0.719971	-161.818637	-77.793458	-6.028422
24614		10.281497	-1.283740	-1.714855	0.296839	0.280426	-0.131498	-0.276611	-0.139404	0.716553	-161.752529	-77.968460	-5.915084
24615		10.322506	-1.131846	-1.507309	0.377810	0.326520	-0.148675	-0.278564	-0.135498	0.717773	-161.643002	-78.171724	-5.800468
24616		10.146736	-0.843707	-1.561553	0.413850	0.346182	-0.166271	-0.283691	-0.139404	0.723389	-161.544993	-78.388661	-5.650686
24617		9.985626	-0.404360	-1.741072	0.415848	0.373912	-0.163799	-0.287598	-0.133789	0.720215	-161.412200	-78.620514	-5.537752
24618		9.756897	0.008696	-1.763901	0.395059	0.402845	-0.157666	-0.293213	-0.136963	0.720215	-161.250482	-78.866852	-5.465856
24619		9.594073	0.474776	-1.820456	0.350510	0.417202	-0.141401	-0.295410	-0.133057	0.717773	-161.049690	-79.118156	-5.460523
24620		9.469758	0.846791	-2.038289	0.299741	0.432640	-0.132075	-0.293213	-0.126221	0.715332	-160.834827	-79.376087	-5.499946
24621		9.527074	0.891837	-2.309707	0.237825	0.475586	-0.126305	-0.299561	-0.131104	0.714600	-160.584593	-79.656107	-5.610563
24622		9.672228	0.760083	-2.452725	0.162421	0.541466	-0.113555	-0.304688	-0.126709	0.708252	-160.261511	-79.969081	-5.838769
24623		9.773521	0.559272	-2.402880	0.070730	0.597153	-0.102430	-0.302490	-0.133545	0.708984	-159.871309	-80.309675	-6.188410
24624		9.902754	0.455966	-2.289828	-0.015085	0.642391	-0.094173	-0.315918	-0.135254	0.708008	-159.426521	-80.672494	-6.643818
24625		10.027584	0.406980	-2.184317	-0.092012	0.681444	-0.093814	-0.317871	-0.131104	0.705322	-158.933565	-81.055511	-7.191235
24626		10.021671	0.392788	-1.818445	-0.117302	0.700970	-0.118994	-0.315674	-0.124756	0.697998	-158.475580	-81.453584	-7.718966
24627		9.928730	0.267872	-1.467494	-0.109154	0.680352	-0.142037	-0.330566	-0.125244	0.692871	-158.076127	-81.844826	-8.180653
24628		9.582317	0.146603	-1.164672	-0.081208	0.618379	-0.175630	-0.337891	-0.129150	0.689453	-157.850076	-82.210086	-8.449448
24629		9.344317	-0.028246	-1.210092	-0.032932	0.567539	-0.211818	-0.330078	-0.135742	0.695068	-157.798599	-82.556020	-8.515175
24630		9.195090	-0.283479	-1.388125	0.013560	0.554612	-0.236846	-0.332764	-0.129883	0.686768	-157.848347	-82.900691	-8.452395
24631		9.223672	-0.470541	-1.410091	0.072795	0.538833	-0.259826	-0.339600	-0.134766	0.687744	-157.995218	-83.241737	-8.257191
24632		9.061895	-0.480362	-1.254219	0.150435	0.472735	-0.253489	-0.335693	-0.131836	0.693359	-158.215440	-83.546270	-7.943420
24633		8.966319	-0.651397	-1.823415	0.186283	0.423893	-0.255886	-0.337158	-0.135742	0.679199	-158.541205	-83.825066	-7.503054
24634		9.286941	-0.540600	-1.972716	0.186501	0.395010	-0.235819	-0.343750	-0.133789	0.689453	-158.864579	-84.083882	-7.065257
24635		9.190725	-0.231166	-2.037277	0.180163	0.369786	-0.208616	-0.351318	-0.134766	0.677734	-159.123153	-84.323492	-6.696374
24636		9.138267	-0.037663	-2.118787	0.175731	0.342467	-0.180268	-0.350342	-0.133057	0.677734	-159.317644	-84.542610	-6.395123
24637		9.162073	-0.039123	-2.144634	0.173905	0.310411	-0.164868	-0.348389	-0.134521	0.684326	-159.506009	-84.741280	-6.100633
24638		9.086845	-0.181346	-2.276172	0.173645	0.282013	-0.162882	-0.353516	-0.127686	0.679688	-159.773165	-84.924175	-5.727741
24639		8.969902	-0.192448	-2.369540	0.181032	0.267961	-0.161995	-0.353027	-0.126953	0.666260	-160.077632	-85.099181	-5.312781
24640		8.910198	-0.259214	-2.433618	0.186846	0.250094	-0.147905	-0.359131	-0.128906	0.676025	-160.362635	-85.261636	-4.913934
24641		8.819866	-0.228850	-2.501719	0.197827	0.227262	-0.137410	-0.353760	-0.129395	0.674805	-160.640526	-85.409587	-4.516181
24642		8.786588	-0.111168	-2.596891	0.193175	0.233746	-0.113464	-0.354736	-0.131592	0.666016	-160.770282	-85.556318	-4.269981
24643		8.795464	0.055751	-2.605792	0.187694	0.233742	-0.090426	-0.355469	-0.124023	0.670410	-160.740734	-85.698756	-4.186547
24644		8.716256	0.229869	-2.592227	0.178918	0.236719	-0.062540	-0.356201	-0.118896	0.668213	-160.513266	-85.837385	-4.306787
24645		8.621425	0.415221	-2.566438	0.165985	0.238677	-0.030624	-0.361328	-0.125244	0.670166	-160.021113	-85.970965	-4.699642
24646		8.575516	0.505691	-2.523434	0.144488	0.226998	0.001396	-0.363037	-0.118164	0.677246	-159.304591	-86.091420	-5.329635
24647		8.490362	0.582355	-2.470339	0.112586	0.208256	0.034737	-0.364990	-0.121582	0.665039	-158.344374	-86.194473	-6.222168
24648		8.401716	0.658642	-2.377560	0.072794	0.175819	0.051534	-0.361084	-0.127197	0.666748	-157.341316	-86.275455	-7.180379
24649		8.227765	0.793714	-2.408204	0.024370	0.129236	0.080439	-0.358643	-0.117432	0.670166	-156.241552	-86.324382	-8.263239
24650		8.103110	0.794713	-2.564239	-0.025363	0.079815	0.088579	-0.358643	-0.128418	0.672119	-155.274880	-86.344101	-9.241288
24651		8.001215	0.729311	-2.763198	-0.070819	0.042647	0.112763	-0.364746	-0.121826	0.669922	-154.259917	-86.337754	-10.293774
24652		7.936354	0.624945	-2.876435	-0.123199	0.015055	0.129544	-0.364990	-0.129150	0.669434	-153.269984	-86.311592	-11.351301
24653		7.880086	0.600639	-2.879654	-0.165026	-0.022622	0.142014	-0.366699	-0.124023	0.664795	-152.361811	-86.262037	-12.350926
24654		7.871889	0.555251	-2.895924	-0.189600	-0.057328	0.148594	-0.361816	-0.120117	0.668945	-151.600059	-86.192005	-13.217997
24655		8.057813	0.464210	-2.816391	-0.204814	-0.103819	0.159640	-0.366211	-0.116211	0.674561	-150.972010	-86.095086	-13.959877
24656		8.278899	0.447290	-3.007793	-0.227584	-0.147437	0.165047	-0.364014	-0.124756	0.665039	-150.541708	-85.974137	-14.516607
24657		8.463030	0.510886	-3.191516	-0.242526	-0.173743	0.160230	-0.364258	-0.120361	0.667236	-150.271356	-85.841460	-14.921751
24658		8.686727	0.554061	-3.261487	-0.239674	-0.188376	0.159964	-0.356445	-0.121582	0.671631	-150.091793	-85.701197	-15.234242
24659		8.933362	0.484923	-3.006405	-0.206252	-0.193418	0.141986	-0.359131	-0.122559	0.679199	-150.028991	-85.563798	-15.410531
24660		8.987343	0.155424	-2.934469	-0.143504	-0.200790	0.124292	-0.364746	-0.125000	0.667236	-150.088002	-85.427458	-15.428496
24661		9.061868	-0.136025	-3.060223	-0.083430	-0.193530	0.109819	-0.355225	-0.125000	0.673096	-150.160631	-85.299198	-15.398372
24662		9.307006	-0.209894	-2.765942	-0.050686	-0.172620	0.126237	-0.354980	-0.127930	0.671875	-150.058180	-85.176271	-15.525039
24663		9.712503	-0.466730	-1.969928	-0.046866	-0.196756	0.150620	-0.357666	-0.122070	0.669678	-149.886696	-85.034719	-15.718885
24664		9.928161	-0.844966	-1.813230	-0.065126	-0.291050	0.150826	-0.346436	-0.117432	0.671875	-150.049502	-84.845926	-15.587598
24665		10.320107	-1.030756	-2.151714	-0.060147	-0.373722	0.071498	-0.353027	-0.122314	0.670898	-150.858041	-84.638660	-14.805032
24666		10.958325	-1.269562	-1.670387	-0.045244	-0.425803	-0.045415	-0.343506	-0.120361	0.672607	-152.361267	-84.435094	-13.315625
24667		11.432533	-1.727459	-1.504394	-0.002152	-0.483863	-0.162622	-0.346924	-0.127930	0.681885	-154.464230	-84.227975	-11.198350
24668		11.887413	-1.965134	-1.755923	0.040568	-0.502107	-0.285595	-0.344482	-0.121826	0.673828	-157.062791	-84.031243	-8.557396
24669		11.926092	-1.523128	-2.305727	0.051876	-0.498034	-0.350628	-0.341309	-0.119629	0.678711	-159.789304	-83.838679	-5.780429
24670		11.494163	-0.405105	-2.809295	0.030083	-0.475281	-0.349928	-0.330078	-0.123535	0.677734	-162.325812	-83.644353	-3.205995
24671		11.018714	1.151635	-2.785002	-0.121090	-0.465601	-0.276255	-0.335693	-0.131348	0.683105	-164.416920	-83.432849	-1.166118
24672		10.495950	1.910846	-2.667424	-0.285307	-0.415523	-0.163011	-0.325684	-0.134277	0.680420	-165.889874	-83.224620	0.157653
24673		10.440613	1.863330	-1.954150	-0.391269	-0.332252	-0.097576	-0.333008	-0.126709	0.686768	-166.944231	-83.051471	0.999053
24674		10.665054	1.222395	-1.109557	-0.452173	-0.274679	-0.088522	-0.324219	-0.147217	0.690674	-167.898399	-82.906794	1.704771
24675		10.801264	0.387731	-0.522843	-0.461093	-0.211522	-0.120682	-0.322266	-0.137695	0.690918	-168.903419	-82.800693	2.456642
24676		11.053118	-0.428276	-0.090520	-0.413258	-0.131478	-0.169203	-0.324219	-0.140625	0.691162	-170.014312	-82.742180	3.343083
24677		11.327301	-1.240087	0.485455	-0.368185	-0.034997	-0.205013	-0.321533	-0.149170	0.688232	-171.166479	-82.740265	4.297138
24678		11.105570	-1.353707	0.870727	-0.380107	0.039632	-0.217349	-0.323486	-0.154053	0.689941	-172.341686	-82.778379	5.267626
24679		10.506481	-1.094550	1.031720	-0.390442	0.085853	-0.210172	-0.317383	-0.146240	0.682129	-173.469769	-82.840674	6.184409
24680		10.059611	-0.619021	0.910817	-0.405669	0.119009	-0.173394	-0.322754	-0.155518	0.677734	-174.447904	-82.916699	6.941277
24681		9.801171	-0.249379	0.750429	-0.421048	0.139346	-0.113309	-0.321533	-0.161133	0.680176	-175.159227	-83.000655	7.420166
24682		9.972000	-0.104590	0.446664	-0.413279	0.140366	-0.021136	-0.329834	-0.165527	0.689697	-175.453256	-83.079588	7.483108
24683		10.681023	-0.259879	0.007822	-0.368113	0.113263	0.091043	-0.329834	-0.171631	0.684814	-175.195502	-83.138568	7.016267
24684		10.707502	-0.640137	-0.126356	-0.330194	0.124685	0.185647	-0.324951	-0.175049	0.683350	-174.459472	-83.197987	6.089635
24685		10.094522	-0.873217	-0.148556	-0.313724	0.142967	0.225158	-0.320801	-0.165527	0.677490	-173.491633	-83.264495	4.939225
24686		9.667643	-1.139274	-0.158358	-0.300581	0.128929	0.258383	-0.334717	-0.175293	0.677734	-172.351140	-83.317494	3.622721
24687		9.370967	-1.372773	-0.351472	-0.258220	0.107741	0.287742	-0.328369	-0.174805	0.685059	-171.032993	-83.353393	2.151883
24688		9.208177	-1.478225	-0.480997	-0.215034	0.077946	0.324384	-0.331787	-0.166504	0.672363	-169.532300	-83.364132	0.522191
24689		9.160711	-1.695502	-0.603017	-0.168335	0.073015	0.367316	-0.335693	-0.170898	0.689453	-167.791585	-83.362483	-1.322132
24690		8.971267	-1.828372	-0.497681	-0.144451	0.039700	0.419648	-0.329102	-0.175781	0.688232	-165.837837	-83.328011	-3.367050
24691		8.990504	-1.756328	-0.688433	-0.140121	-0.004056	0.447101	-0.325928	-0.172852	0.681641	-163.828406	-83.257540	-5.465929
24692		9.449311	-1.343690	-0.863264	-0.120829	-0.034795	0.492421	-0.325439	-0.172119	0.682617	-161.700766	-83.153226	-7.673046
24693		9.310888	-1.062473	-0.961281	-0.081412	-0.053575	0.522951	-0.331787	-0.167480	0.676270	-159.507792	-83.023664	-9.923819
24694		8.773298	-0.887997	-0.877496	-0.059742	-0.064359	0.511070	-0.332275	-0.172852	0.682129	-157.462948	-82.880496	-12.013388
24695		8.456768	-0.688891	-0.957626	-0.039047	-0.075630	0.475794	-0.333008	-0.171875	0.675537	-155.648416	-82.731298	-13.859626
24696		8.339106	-0.684789	-0.991563	-0.008351	-0.075574	0.442877	-0.331787	-0.162354	0.692383	-154.028574	-82.582954	-15.492571
24697		8.084453	-0.788412	-0.979038	0.019413	-0.072641	0.408020	-0.340332	-0.157471	0.684326	-152.578676	-82.439864	-16.938479
24698		7.982326	-0.917151	-0.993693	0.037983	-0.080204	0.377750	-0.332520	-0.162109	0.686035	-151.306860	-82.296348	-18.194168
24699		8.176770	-0.940090	-1.137728	0.043861	-0.097284	0.358301	-0.331055	-0.159912	0.684082	-150.177675	-82.146589	-19.303229
24700		8.243656	-0.905006	-1.295701	0.052904	-0.114978	0.330046	-0.330322	-0.154053	0.685547	-149.227677	-81.993248	-20.226459
24701		8.148556	-0.809060	-1.339198	0.052507	-0.095407	0.290273	-0.323486	-0.158447	0.685303	-148.401470	-81.859631	-21.025302
24702		7.961980	-0.778869	-1.487113	0.060665	-0.099686	0.248409	-0.330811	-0.150146	0.684082	-147.751680	-81.734879	-21.641275
24703		8.039592	-0.892954	-1.372774	0.057723	-0.099992	0.210641	-0.329834	-0.156494	0.683105	-147.240354	-81.621019	-22.119366
24704		8.182212	-1.020927	-1.584332	0.035154	-0.112183	0.182786	-0.330811	-0.160400	0.686035	-146.876053	-81.509186	-22.461938
24705		8.477564	-1.052093	-1.859422	0.035493	-0.120992	0.141697	-0.328613	-0.150635	0.687256	-146.663365	-81.406042	-22.651193
24706		8.651243	-1.194072	-1.944180	0.020413	-0.059733	0.118347	-0.335449	-0.144531	0.691650	-146.415780	-81.339170	-22.884548
24707		8.618594	-1.244055	-1.979649	0.012220	-0.040176	0.086074	-0.328857	-0.147705	0.690918	-146.230337	-81.292015	-23.059801
24708		8.470267	-1.200258	-1.924722	0.006636	-0.040872	0.058272	-0.327148	-0.149902	0.685059	-146.142875	-81.253022	-23.138877
24709		8.461233	-1.168047	-1.968752	-0.003588	-0.054251	0.038950	-0.317627	-0.145508	0.690186	-146.143632	-81.214129	-23.134932
24710		8.344824	-1.071268	-2.011113	-0.038623	-0.071597	0.038031	-0.329346	-0.158203	0.694824	-146.208589	-81.166920	-23.086121
24711		8.053081	-0.833657	-2.103897	-0.067163	-0.095465	0.025294	-0.334473	-0.152100	0.689697	-146.370918	-81.112725	-22.955519
24712		7.615505	-0.715765	-2.223085	-0.072822	-0.160654	0.005893	-0.323730	-0.151123	0.690674	-146.729644	-81.033066	-22.629422
24713		7.289657	-0.740055	-2.708704	-0.021713	-0.243171	-0.035638	-0.318359	-0.150635	0.692871	-147.333795	-80.926610	-22.025040
24714		7.169791	-1.082417	-3.274728	0.100751	-0.292340	-0.072457	-0.324463	-0.145020	0.698975	-148.062657	-80.806092	-21.222901
24715		7.419244	-1.759650	-3.679056	0.256762	-0.317674	-0.097004	-0.317627	-0.157959	0.698730	-148.796516	-80.679392	-20.325038
24716		8.131921	-2.310449	-3.579344	0.363697	-0.323490	-0.096623	-0.318115	-0.143066	0.703613	-149.461872	-80.547456	-19.433999
24717		8.919217	-2.179489	-3.595157	0.402489	-0.351070	-0.088045	-0.310303	-0.143066	0.703369	-150.099600	-80.398267	-18.548250
24718		9.667307	-1.719327	-3.954185	0.423936	-0.392401	-0.061352	-0.309570	-0.136719	0.698730	-150.696173	-80.218738	-17.691012
24719		10.179984	-1.499710	-4.278391	0.459113	-0.425390	-0.052207	-0.297607	-0.138184	0.711426	-151.266949	-80.019311	-16.839356
24720		10.319367	-1.403538	-4.356244	0.448978	-0.450247	-0.039700	-0.306152	-0.132324	0.709473	-151.822404	-79.801794	-16.008297
24721		10.095133	-1.321554	-4.868801	0.443277	-0.481984	-0.029623	-0.305420	-0.131592	0.716797	-152.365227	-79.564856	-15.193121
24722		10.215180	-1.435822	-5.608891	0.480973	-0.453472	-0.027566	-0.300537	-0.127441	0.712158	-152.815982	-79.339827	-14.448719
24723		10.225053	-1.395546	-5.319028	0.541212	-0.392131	-0.034049	-0.298828	-0.123779	0.726807	-153.138623	-79.147683	-13.799382
24724		10.208005	-1.441478	-4.770116	0.592855	-0.331831	-0.054372	-0.290771	-0.115723	0.720703	-153.394052	-78.990107	-13.187642
24725		10.475472	-1.006557	-3.539675	0.577472	-0.300450	-0.080248	-0.290527	-0.111328	0.725342	-153.668912	-78.855622	-12.565121
24726		10.837728	-0.141289	-3.032814	0.563436	-0.321468	-0.100994	-0.286133	-0.113525	0.724854	-154.025295	-78.713899	-11.866977
24727		11.306354	0.499595	-3.068338	0.618645	-0.317021	-0.076597	-0.282227	-0.104736	0.730225	-154.265067	-78.568683	-11.255576
24728		11.467188	0.340186	-2.448674	0.727742	-0.243040	-0.049979	-0.283936	-0.095459	0.734619	-154.280035	-78.453736	-10.809164
24729		11.653559	0.007695	-0.696261	0.821126	-0.268084	-0.087929	-0.273682	-0.083496	0.727783	-154.357907	-78.336239	-10.244074
24730		12.514199	0.363757	0.051095	0.710977	-0.318265	-0.053895	-0.272217	-0.090088	0.741211	-154.470760	-78.183184	-9.707070
24731		13.396800	0.809653	0.265857	0.620382	-0.231680	0.097693	-0.275391	-0.089600	0.727295	-154.151946	-78.038398	-9.664318
24732		13.520636	0.000078	0.121948	0.711025	-0.139913	0.234592	-0.273193	-0.068115	0.733643	-153.352263	-77.905250	-10.059860
24733		12.510894	-1.505960	-0.129568	0.816979	0.019455	0.270968	-0.269775	-0.063965	0.734131	-152.220682	-77.843309	-10.733171
24734		12.000021	-2.388239	-0.082548	0.873324	0.159331	0.268509	-0.278320	-0.060059	0.742920	-150.897384	-77.848664	-11.569402
24735		11.870026	-2.825632	-0.052156	0.910321	0.239915	0.311673	-0.269287	-0.041748	0.739502	-149.340376	-77.878112	-12.623189
24736		11.349711	-2.604239	0.142113	0.814916	0.265619	0.351512	-0.275146	-0.033447	0.733398	-147.709741	-77.901265	-13.807862
24737		10.527807	-2.185206	0.302320	0.700231	0.254355	0.393209	-0.282471	-0.038574	0.738281	-146.060133	-77.899574	-15.079313
24738		10.213631	-1.453504	0.131154	0.523024	0.233601	0.364450	-0.279785	-0.024414	0.736816	-144.611919	-77.889581	-16.248455
24739		10.556383	-0.839232	-0.048483	0.327350	0.197321	0.290033	-0.277100	-0.020752	0.735596	-143.491723	-77.882968	-17.197018
24740		10.898592	-0.064926	-0.290354	0.134758	0.167878	0.197418	-0.284424	-0.010010	0.731934	-142.731207	-77.890832	-17.890385
24741		10.990823	0.492230	-0.463751	-0.037821	0.155896	0.088276	-0.281006	-0.015625	0.737793	-142.315215	-77.930411	-18.332660
24742		10.780681	0.855777	-0.635879	-0.178783	0.146065	-0.027429	-0.277100	-0.012451	0.737305	-142.243200	-78.005156	-18.505575
24743		10.399747	0.977808	-0.623616	-0.268359	0.169457	-0.131102	-0.273682	-0.008545	0.729248	-142.401064	-78.127386	-18.496066
24744		9.532306	0.778188	-0.509295	-0.324552	0.183791	-0.177335	-0.284424	-0.011230	0.736816	-142.674312	-78.271762	-18.401485
24745		8.809424	0.519663	-0.413496	-0.355079	0.195428	-0.179886	-0.288574	-0.017578	0.737793	-142.951535	-78.422719	-18.320849
24746		8.501716	0.309671	-0.382032	-0.403689	0.205033	-0.157976	-0.285889	-0.017334	0.725830	-143.199855	-78.570034	-18.298113
24747		8.258218	0.016924	-0.462611	-0.444222	0.220488	-0.148637	-0.282715	-0.019775	0.728027	-143.422603	-78.721661	-18.325219
24748		8.249205	-0.232897	-0.371986	-0.474728	0.230159	-0.150515	-0.283203	-0.026611	0.714844	-143.657766	-78.878022	-18.357436
24749		8.281408	-0.406774	-0.373805	-0.487912	0.219097	-0.167330	-0.291260	-0.024170	0.730713	-143.958216	-79.035370	-18.330851
24750		8.278112	-0.518906	-0.436631	-0.483885	0.205623	-0.180919	-0.292725	-0.032227	0.725586	-144.322427	-79.190641	-18.236978
24751		8.272151	-0.644116	-0.401218	-0.445370	0.213670	-0.195084	-0.288574	-0.020752	0.726563	-144.687259	-79.354617	-18.120085
24752		8.137008	-0.659861	-0.438178	-0.406737	0.217532	-0.188883	-0.299072	-0.037598	0.715088	-145.019416	-79.517895	-18.013963
24753		8.003821	-0.673150	-0.391434	-0.369001	0.207040	-0.191120	-0.293457	-0.030273	0.723145	-145.356463	-79.677184	-17.880957
24754		7.939978	-0.570688	-0.576002	-0.336236	0.211188	-0.196431	-0.295654	-0.025146	0.716064	-145.693232	-79.839704	-17.729217
24755		7.824548	-0.583565	-0.642533	-0.288955	0.220769	-0.184228	-0.308838	-0.034180	0.720459	-145.955417	-80.003007	-17.625799
24756		7.640252	-0.649605	-0.678206	-0.260468	0.232684	-0.153527	-0.303223	-0.033447	0.716553	-146.105964	-80.161783	-17.619193
24757		7.631263	-0.675302	-0.674768	-0.247488	0.242582	-0.137685	-0.303467	-0.040039	0.718994	-146.183864	-80.320504	-17.678758
24758		7.810033	-0.675588	-0.729559	-0.241653	0.244659	-0.132783	-0.301758	-0.036377	0.705811	-146.245869	-80.478386	-17.751026
24759		8.149834	-0.617931	-0.771854	-0.230119	0.230643	-0.147568	-0.300293	-0.036621	0.703613	-146.365640	-80.634584	-17.758002
24760		8.578062	-0.502268	-0.871680	-0.223456	0.202194	-0.149156	-0.302002	-0.038818	0.699219	-146.548804	-80.777435	-17.696871
24761		8.854564	-0.104182	-1.115844	-0.207952	0.181996	-0.144778	-0.312256	-0.031738	0.708984	-146.748238	-80.909477	-17.610285
24762		9.008865	0.123809	-1.258221	-0.187405	0.166516	-0.134156	-0.309814	-0.038330	0.702148	-146.943749	-81.030458	-17.515789
24763		9.027380	0.194306	-1.328755	-0.172775	0.152053	-0.124092	-0.308594	-0.037354	0.699463	-147.127196	-81.141561	-17.425043
24764		9.087187	0.345372	-1.400730	-0.178276	0.140862	-0.108906	-0.311279	-0.041016	0.697754	-147.297879	-81.242270	-17.350445
24765		9.083324	0.461871	-1.458473	-0.198784	0.140017	-0.089117	-0.307861	-0.039795	0.701172	-147.416567	-81.336676	-17.340339
24766		9.041771	0.441935	-1.585327	-0.214846	0.151910	-0.054607	-0.315918	-0.037598	0.696289	-147.416966	-81.425939	-17.459212
24767		9.016097	0.280183	-1.809167	-0.217910	0.172671	-0.012232	-0.315918	-0.037354	0.692871	-147.231931	-81.512311	-17.767313
24768		8.994653	0.062913	-2.017432	-0.215102	0.202152	0.030920	-0.321533	-0.043945	0.686768	-146.843812	-81.598955	-18.279063
24769		8.899983	-0.157376	-2.000119	-0.213150	0.215261	0.059448	-0.318359	-0.045410	0.693115	-146.317347	-81.682476	-18.929367
24770		8.614455	-0.232066	-2.028560	-0.222104	0.197640	0.093481	-0.318848	-0.043701	0.679199	-145.718934	-81.745584	-19.657472
24771		8.151525	-0.299597	-2.077818	-0.229273	0.153442	0.134802	-0.317383	-0.031982	0.677979	-145.074028	-81.773460	-20.436590
24772		7.627024	-0.384705	-2.008069	-0.247110	0.073159	0.190203	-0.315186	-0.037354	0.676514	-144.448380	-81.744009	-21.206604
24773		6.993321	-0.532846	-2.034165	-0.300107	-0.045041	0.253384	-0.319092	-0.043213	0.674316	-143.925056	-81.637542	-21.904001
24774		6.614324	-0.434657	-2.568581	-0.384053	-0.148177	0.302374	-0.323486	-0.040283	0.677734	-143.556671	-81.465843	-22.493653
24775		6.742441	-0.247284	-2.942717	-0.462213	-0.194758	0.329032	-0.309570	-0.041504	0.682617	-143.269703	-81.263311	-23.046520
24776		7.382414	-0.026380	-3.227832	-0.515750	-0.248954	0.324962	-0.313477	-0.038330	0.669922	-143.169415	-81.036807	-23.441827
24777		8.628026	0.291959	-3.198498	-0.516813	-0.283221	0.287856	-0.308350	-0.045898	0.674561	-143.253483	-80.807523	-23.651299
24778		9.757983	-0.246069	-2.866118	-0.405344	-0.294421	0.221459	-0.307861	-0.049316	0.671387	-143.491357	-80.595633	-23.640332
24779		10.262972	-0.809391	-2.901786	-0.289410	-0.318345	0.126875	-0.312012	-0.039063	0.660156	-143.957739	-80.405002	-23.330323
24780		10.757143	-1.272244	-3.167645	-0.197943	-0.344281	0.038593	-0.305908	-0.045654	0.665039	-144.652776	-80.231021	-22.735021
24781		10.702385	-1.114615	-3.311041	-0.145938	-0.304286	-0.005731	-0.311768	-0.050049	0.668701	-145.333942	-80.089486	-22.123277
24782		10.370100	-0.625994	-3.531374	-0.105328	-0.255224	0.009697	-0.303223	-0.053711	0.666748	-145.849930	-79.964717	-21.655350
24783		10.149748	-0.181326	-3.846004	-0.086870	-0.222572	0.038783	-0.295654	-0.052734	0.668945	-146.201540	-79.845898	-21.343490
24784		10.171042	0.094935	-3.982674	-0.105418	-0.202861	0.062600	-0.292969	-0.045410	0.660400	-146.465438	-79.728220	-21.131400
24785		10.129858	0.102212	-4.002849	-0.120933	-0.213490	0.085907	-0.299561	-0.058105	0.656738	-146.683706	-79.598352	-20.974682
24786		10.163974	-0.365354	-3.752373	-0.117236	-0.251704	0.069231	-0.302490	-0.052490	0.650635	-147.009288	-79.454799	-20.706565
24787		10.324943	-0.993982	-3.560940	-0.125801	-0.316421	0.023438	-0.302002	-0.056152	0.658691	-147.547986	-79.294326	-20.226520
24788		10.370624	-1.447497	-3.989766	-0.132819	-0.390116	-0.093855	-0.286865	-0.057861	0.649170	-148.495819	-79.131976	-19.333759
24789		10.255615	-1.310864	-4.266789	-0.164480	-0.444985	-0.214860	-0.297119	-0.055176	0.641357	-149.816486	-78.975438	-18.079316
24790		10.178371	-0.987834	-4.045211	-0.214877	-0.477212	-0.285977	-0.293457	-0.065674	0.648682	-151.361348	-78.816287	-16.625062
24791		10.362496	-0.791977	-3.598597	-0.206597	-0.452957	-0.317833	-0.284912	-0.063721	0.645264	-152.901741	-78.671134	-15.169857
24792		10.768678	-1.063815	-2.548178	-0.163171	-0.401961	-0.332161	-0.282715	-0.074219	0.645020	-154.359046	-78.547692	-13.773226
24793		11.223362	-1.752789	-1.213824	-0.033213	-0.414312	-0.405891	-0.287842	-0.069336	0.639648	-155.907434	-78.429170	-12.207175
24794		11.702594	-1.983516	-0.423517	0.000995	-0.417233	-0.492939	-0.284424	-0.082031	0.637207	-157.635508	-78.319089	-10.436898
24795		11.993187	-2.064989	0.044113	0.044216	-0.385673	-0.591553	-0.280762	-0.086426	0.634521	-159.522538	-78.236123	-8.478502
24796		12.090802	-1.852793	-0.349529	-0.029467	-0.333509	-0.689570	-0.277832	-0.087891	0.645752	-161.637005	-78.185344	-6.330296
24797		11.552686	0.214395	-0.817641	-0.434256	-0.202951	-0.717531	-0.277832	-0.087646	0.639893	-163.930917	-78.194806	-4.235671
24798		10.937871	2.228864	-0.303651	-0.755044	-0.078466	-0.713795	-0.271484	-0.102539	0.623535	-166.322046	-78.254269	-2.229637
24799		10.537137	2.635169	-0.131307	-0.786024	-0.030110	-0.654134	-0.281006	-0.108887	0.624023	-168.556755	-78.317674	-0.402037
24800		10.536882	1.594740	0.182973	-0.736028	0.014402	-0.545784	-0.279053	-0.121338	0.627686	-170.469144	-78.380538	1.125346
24801		10.537043	0.049847	0.485173	-0.654559	0.029439	-0.480285	-0.281738	-0.126465	0.627197	-172.159572	-78.437405	2.473424
24802		10.793217	-1.197954	0.442095	-0.574927	0.074535	-0.454061	-0.281006	-0.136963	0.631836	-173.735643	-78.509505	3.751045
24803		10.735547	-1.779655	0.389825	-0.490288	0.119481	-0.451063	-0.275391	-0.146484	0.615479	-175.256054	-78.601000	5.020985
24804		10.573215	-1.878049	0.249584	-0.356445	0.121468	-0.407237	-0.283691	-0.148438	0.614014	-176.600139	-78.684727	6.188894
24805		10.379418	-1.926130	0.003664	-0.196824	0.091163	-0.309535	-0.278076	-0.148926	0.606445	-177.588214	-78.744385	7.086752
24806		10.625041	-1.968352	-0.324219	-0.063283	0.072227	-0.156169	-0.280518	-0.155029	0.608398	-178.071905	-78.786855	7.548212
24807		10.846987	-1.820870	-0.599260	0.022230	0.078610	0.005102	-0.282227	-0.153076	0.604492	-178.037579	-78.830250	7.531499
24808		10.421301	-1.644939	-0.644076	0.050401	0.099549	0.149858	-0.283936	-0.155518	0.609131	-177.567010	-78.881729	7.086609
24809		9.771369	-1.395131	-0.609530	0.076449	0.105691	0.248609	-0.276123	-0.159424	0.605225	-176.783391	-78.933691	6.338002
24810		9.417869	-1.181349	-0.779769	0.091845	0.121034	0.322644	-0.293457	-0.162842	0.599121	-175.767185	-78.988750	5.361543
24811		9.147943	-1.057852	-0.778509	0.104293	0.135605	0.374022	-0.292480	-0.158447	0.606445	-174.574742	-79.046675	4.213018
24812		8.797514	-1.148315	-0.722825	0.120946	0.151228	0.416657	-0.297607	-0.155273	0.596680	-173.233335	-79.105461	2.922714
24813		8.847637	-1.306241	-0.793157	0.132151	0.161145	0.444123	-0.294678	-0.152832	0.600098	-171.782373	-79.162429	1.527654
24814		8.790820	-1.417027	-0.768027	0.128579	0.146392	0.448838	-0.288818	-0.155029	0.590332	-170.316768	-79.203380	0.115819
24815		8.613636	-1.332446	-0.847662	0.121210	0.121884	0.429438	-0.295166	-0.153076	0.598633	-168.912947	-79.226391	-1.237258
24816		8.229599	-1.090404	-0.891205	0.115356	0.107829	0.401831	-0.289063	-0.158447	0.592773	-167.601677	-79.238247	-2.499472
24817		7.983776	-0.778460	-1.022573	0.122779	0.085207	0.366147	-0.292480	-0.156250	0.584473	-166.400698	-79.237368	-3.645057
24818		7.742523	-0.540660	-1.092345	0.133492	0.092393	0.335162	-0.296143	-0.158691	0.579102	-165.282902	-79.240053	-4.699734
24819		7.422493	-0.417217	-1.099895	0.113250	0.087680	0.311150	-0.294678	-0.151611	0.583740	-164.246197	-79.240473	-5.683653
24820		7.445751	-0.338755	-1.153934	0.104764	0.123401	0.299163	-0.301758	-0.161377	0.586182	-163.222001	-79.258753	-6.659779
24821		7.301324	-0.316811	-1.077948	0.080310	0.124863	0.294753	-0.298584	-0.150879	0.583008	-162.216161	-79.275751	-7.631407
24822		7.276141	-0.404985	-1.186679	0.073703	0.132336	0.279896	-0.298584	-0.155273	0.581787	-161.250563	-79.295992	-8.565897
24823		7.398765	-0.545621	-1.276377	0.102730	0.144288	0.258292	-0.301270	-0.159180	0.583984	-160.310557	-79.324245	-9.457318
24824		7.662459	-0.755636	-1.375790	0.122630	0.149115	0.217698	-0.299072	-0.157227	0.578369	-159.469216	-79.360169	-10.236675
24825		7.970240	-1.013658	-1.394679	0.126889	0.146130	0.163195	-0.302490	-0.155029	0.581543	-158.774858	-79.404028	-10.863875
24826		8.414799	-1.204008	-1.538556	0.129455	0.137805	0.095855	-0.299805	-0.157227	0.583740	-158.279529	-79.456033	-11.287039
24827		8.694813	-1.390274	-1.747414	0.138686	0.124459	0.050694	-0.304932	-0.153320	0.571777	-157.915335	-79.510343	-11.571354
24828		8.845847	-1.509151	-2.044800	0.154656	0.137817	0.018745	-0.305420	-0.155518	0.574219	-157.618701	-79.578023	-11.777614
24829		8.842327	-1.530369	-2.059074	0.178942	0.149511	0.004355	-0.304199	-0.165771	0.573242	-157.328390	-79.655195	-11.963245
24830		8.757088	-1.388417	-2.128389	0.209305	0.140183	-0.000947	-0.310059	-0.171143	0.565674	-157.047900	-79.728092	-12.121150
24831		8.735819	-1.259714	-2.287787	0.245152	0.095897	0.000331	-0.312500	-0.166016	0.573242	-156.791400	-79.777580	-12.233790
24832		8.593559	-1.228475	-2.513177	0.288502	0.029599	-0.014265	-0.303711	-0.168945	0.566650	-156.638556	-79.795029	-12.215816
24833		8.088028	-1.103178	-2.601564	0.329470	-0.038934	-0.032187	-0.312744	-0.162598	0.565918	-156.597030	-79.780897	-12.060921
24834		7.498848	-0.905967	-2.985523	0.368231	-0.112372	-0.047047	-0.299072	-0.166992	0.569092	-156.672191	-79.731085	-11.764799
24835		6.844566	-0.835327	-4.371710	0.423666	-0.231818	-0.066740	-0.307861	-0.164795	0.570313	-156.913775	-79.623097	-11.267224
24836		6.766558	-1.020807	-5.580962	0.570091	-0.315644	-0.084024	-0.297119	-0.167969	0.574219	-157.217199	-79.473813	-10.621142
24837		7.195047	-1.588501	-5.470183	0.730020	-0.354003	-0.102505	-0.296143	-0.166992	0.579346	-157.508833	-79.308215	-9.893609
24838		7.753332	-2.024480	-4.932018	0.777759	-0.421994	-0.093413	-0.293945	-0.167725	0.568115	-157.812126	-79.103274	-9.125733
24839		8.621850	-1.905474	-4.897694	0.735574	-0.489817	-0.065471	-0.289307	-0.165527	0.573975	-158.113248	-78.856189	-8.384292
24840		9.474398	-1.590886	-4.477158	0.640577	-0.513815	-0.025595	-0.302246	-0.160889	0.575439	-158.368275	-78.586426	-7.744442
24841		9.944054	-1.249248	-4.307611	0.535117	-0.537790	-0.022659	-0.288574	-0.152832	0.591309	-158.675453	-78.303411	-7.112667
24842		10.199682	-0.798150	-4.035519	0.432486	-0.519918	-0.039333	-0.281250	-0.160645	0.586182	-159.046633	-78.031807	-6.474646
24843		10.033375	-0.593658	-4.764951	0.372039	-0.520630	-0.050001	-0.282227	-0.158691	0.587891	-159.453679	-77.761950	-5.835027
24844		10.280508	-0.733333	-4.814932	0.404393	-0.418567	-0.081692	-0.278076	-0.156982	0.592529	-159.809297	-77.551435	-5.228166
24845		10.277410	-0.863876	-4.175627	0.425654	-0.360779	-0.112849	-0.273682	-0.161377	0.592529	-160.158983	-77.378265	-4.614783
24846		10.536878	-0.311507	-2.883754	0.352416	-0.345128	-0.126013	-0.277100	-0.157471	0.591064	-160.558535	-77.214221	-3.992532
24847		10.804170	1.009528	-2.942363	0.251595	-0.397657	-0.074567	-0.269287	-0.165283	0.590332	-160.920996	-77.012129	-3.467500
24848		11.726840	1.662511	-2.621406	0.305451	-0.301925	0.051413	-0.269775	-0.162109	0.594727	-160.874605	-76.836924	-3.329778
24849		12.621477	1.715345	-0.952436	0.355611	-0.245801	0.209549	-0.271973	-0.155029	0.597412	-160.389812	-76.663152	-3.613170
24850		13.586632	1.760964	-0.353431	0.281947	-0.281643	0.452534	-0.271484	-0.157959	0.595703	-159.447006	-76.420547	-4.410876
24851		13.987361	0.482141	-0.579682	0.451519	-0.345318	0.692570	-0.263428	-0.155273	0.604492	-157.971895	-76.091059	-5.657786
24852		13.657467	-1.726765	-0.696569	0.612642	-0.184311	0.808824	-0.268066	-0.155518	0.602051	-156.085320	-75.811143	-7.235151
24853		12.069567	-3.703862	-0.872951	0.804483	0.051333	0.755214	-0.263672	-0.143066	0.604736	-154.034127	-75.654405	-8.870649
24854		11.280235	-4.252032	0.267404	0.935632	0.246764	0.594296	-0.264648	-0.140381	0.598877	-152.067000	-75.624518	-10.342329
24855		10.631379	-3.606422	0.829855	0.844190	0.255875	0.507717	-0.270996	-0.133545	0.601807	-150.315401	-75.611983	-11.645893
24856		11.058059	-2.379087	0.220867	0.730957	0.251654	0.532355	-0.270264	-0.128418	0.608643	-148.593136	-75.579731	-12.986119
24857		11.477184	-1.561015	0.128033	0.606104	0.298537	0.566340	-0.277344	-0.127686	0.602783	-146.827038	-75.550278	-14.445827
24858		11.628472	-1.004071	-0.093050	0.419596	0.256627	0.549944	-0.285400	-0.118896	0.605469	-145.260959	-75.495029	-15.809463
24859		11.458323	-0.596427	-0.345530	0.226565	0.224465	0.447305	-0.279297	-0.116943	0.606201	-144.039195	-75.451038	-16.932109
24860		11.300674	-0.127556	-0.438142	0.011002	0.204561	0.267632	-0.279297	-0.119385	0.598633	-143.294041	-75.453565	-17.689977
24861		10.864955	0.503488	-0.548288	-0.169972	0.202587	0.082210	-0.286621	-0.120361	0.609375	-142.978894	-75.517616	-18.110745
24862		9.795638	1.161960	-0.567303	-0.291860	0.224022	-0.053817	-0.280273	-0.121094	0.602783	-142.946154	-75.637716	-18.311823
24863		8.928113	1.414007	-0.533470	-0.352665	0.252835	-0.131843	-0.286865	-0.120850	0.601563	-143.044824	-75.798315	-18.413154
24864		8.408087	1.179858	-0.329862	-0.372781	0.252238	-0.185705	-0.283691	-0.127930	0.599609	-143.257679	-75.976915	-18.408593
24865		8.145834	0.671630	-0.361915	-0.422621	0.227051	-0.226958	-0.282715	-0.127930	0.602539	-143.610739	-76.158302	-18.288964
24866		7.918399	0.154242	-0.402137	-0.467045	0.220071	-0.253349	-0.291504	-0.133057	0.604248	-144.058888	-76.344942	-18.097834
24867		7.885018	-0.220847	-0.522168	-0.505819	0.221241	-0.262485	-0.287842	-0.132568	0.608154	-144.550944	-76.535043	-17.884449
24868		7.926540	-0.332618	-0.616760	-0.533356	0.221358	-0.264867	-0.299805	-0.149170	0.593506	-145.076873	-76.725336	-17.652758
24869		8.091127	-0.332408	-0.849407	-0.565251	0.229033	-0.260654	-0.287354	-0.146729	0.592529	-145.609362	-76.917575	-17.433158
24870		8.288661	-0.356901	-0.983790	-0.565056	0.221394	-0.247876	-0.298340	-0.150635	0.593994	-146.140547	-77.101438	-17.215091
24871		8.297930	-0.418879	-0.994446	-0.543825	0.221959	-0.225305	-0.300781	-0.156982	0.589600	-146.618077	-77.278151	-17.039587
24872		8.133352	-0.502071	-1.095789	-0.503984	0.215771	-0.193944	-0.297607	-0.157227	0.595947	-147.026455	-77.441605	-16.911836
24873		8.304455	-0.728209	-1.214357	-0.449125	0.207744	-0.175864	-0.297119	-0.162598	0.586426	-147.378193	-77.595550	-16.809823
24874		8.292641	-0.905761	-1.339506	-0.371371	0.217274	-0.161010	-0.300537	-0.162842	0.586426	-147.647924	-77.749269	-16.746380
24875		8.124996	-1.118551	-1.485701	-0.286846	0.232113	-0.137694	-0.295166	-0.165527	0.597168	-147.795472	-77.903133	-16.758255
24876		8.133389	-1.315297	-1.499213	-0.208824	0.216419	-0.118555	-0.312012	-0.166748	0.588867	-147.882315	-78.043415	-16.786648
24877		8.337386	-1.399853	-1.620112	-0.132772	0.192512	-0.105105	-0.302490	-0.168701	0.582275	-147.925768	-78.168144	-16.814676
24878		8.682415	-1.436090	-1.788250	-0.057171	0.180523	-0.111467	-0.299805	-0.165039	0.584717	-147.962142	-78.288844	-16.805826
24879		8.982179	-1.270329	-1.993724	0.033792	0.187420	-0.105162	-0.307129	-0.168457	0.584961	-147.917594	-78.411120	-16.826240
24880		9.045370	-1.072621	-2.033091	0.115129	0.194752	-0.091670	-0.303223	-0.166504	0.582275	-147.786095	-78.532676	-16.887957
24881		9.104064	-0.896180	-2.015656	0.169978	0.182550	-0.089879	-0.310791	-0.173340	0.591553	-147.631347	-78.647898	-16.941172
24882		9.048932	-0.496610	-2.079519	0.196072	0.184756	-0.109221	-0.306885	-0.158691	0.583496	-147.507082	-78.769937	-16.948161
24883		8.977473	0.023888	-2.116164	0.192146	0.188734	-0.121841	-0.308594	-0.169678	0.585205	-147.404441	-78.897950	-16.935273
24884		9.050793	0.365163	-2.045057	0.180345	0.198546	-0.128847	-0.313232	-0.158691	0.586426	-147.313552	-79.032696	-16.917435
24885		9.189223	0.527821	-2.186088	0.159820	0.212749	-0.124425	-0.319092	-0.172119	0.585205	-147.195224	-79.173091	-16.939394
24886		9.161090	0.421870	-2.037621	0.148319	0.244860	-0.113921	-0.310303	-0.157959	0.575928	-147.006449	-79.325491	-17.039901
24887		8.805456	0.381236	-2.136376	0.119322	0.219084	-0.090364	-0.310303	-0.173828	0.579834	-146.808307	-79.458244	-17.166649
24888		8.655761	0.136693	-2.465229	0.091858	0.218564	-0.070442	-0.315186	-0.159668	0.574219	-146.575766	-79.584238	-17.344486
24889		8.407314	0.081557	-2.499623	0.040033	0.188916	-0.048094	-0.320557	-0.173584	0.573975	-146.356279	-79.689020	-17.539015
24890		7.965525	0.051450	-2.664136	-0.043790	0.101167	-0.016613	-0.320068	-0.169922	0.579590	-146.257860	-79.741707	-17.659420
24891		7.461948	0.021915	-3.358112	-0.116567	-0.007562	0.027323	-0.316406	-0.179932	0.574707	-146.270985	-79.728750	-17.708678
24892		7.170927	-0.080293	-3.779535	-0.161979	-0.080536	0.063914	-0.313477	-0.165039	0.575684	-146.347268	-79.669195	-17.720344
24893		7.273234	-0.019064	-3.958170	-0.249736	-0.126818	0.108357	-0.324219	-0.181885	0.569092	-146.432471	-79.573651	-17.773912
24894		7.701772	0.153106	-3.820842	-0.326221	-0.155334	0.132259	-0.318115	-0.170898	0.572510	-146.553750	-79.456701	-17.835506
24895		8.033645	0.248393	-3.740715	-0.342036	-0.184557	0.159732	-0.313721	-0.174561	0.574707	-146.657127	-79.317373	-17.924428
24896		8.357296	-0.085800	-3.736010	-0.299636	-0.212711	0.173085	-0.314209	-0.170166	0.573242	-146.754892	-79.160109	-17.994498
24897		8.535826	-0.420923	-3.705350	-0.262742	-0.235143	0.191977	-0.307373	-0.178223	0.576904	-146.815320	-78.986464	-18.080985
24898		8.898603	-0.754879	-3.555701	-0.204780	-0.236184	0.171711	-0.305176	-0.170166	0.575439	-146.899860	-78.818365	-18.109213
24899		9.057759	-0.994544	-3.359337	-0.164018	-0.224630	0.145596	-0.308350	-0.171387	0.582764	-146.999179	-78.664309	-18.098470
24900		9.345911	-1.043429	-3.319065	-0.140189	-0.205823	0.105563	-0.320068	-0.179199	0.568848	-147.155297	-78.531392	-18.015938
24901		9.436453	-0.972478	-3.284479	-0.121086	-0.190480	0.032761	-0.314697	-0.182617	0.569092	-147.440233	-78.428719	-17.790648
24902		9.333088	-0.752057	-2.915885	-0.087961	-0.189473	-0.025688	-0.313477	-0.182861	0.570313	-147.843347	-78.343773	-17.425326
24903		9.406261	-1.069593	-2.025729	-0.028675	-0.200225	-0.055478	-0.306885	-0.177246	0.575684	-148.286751	-78.262511	-16.983994
24904		9.383644	-2.038314	-1.993239	-0.012871	-0.269915	-0.124149	-0.310303	-0.175049	0.576416	-148.980284	-78.166296	-16.277817
24905		9.827913	-2.536555	-2.172575	0.027775	-0.284087	-0.274479	-0.311523	-0.174805	0.576172	-150.006020	-78.105128	-15.208124
24906		10.357727	-2.543247	-1.507481	0.015973	-0.356696	-0.443315	-0.303711	-0.189209	0.575195	-151.528080	-78.049497	-13.637878
24907		10.914371	-2.294537	-0.826080	-0.066763	-0.471782	-0.587291	-0.308838	-0.187744	0.583252	-153.561757	-77.963900	-11.592626
24908		12.144748	-2.222409	-0.073605	-0.138000	-0.551909	-0.755217	-0.301270	-0.180908	0.575439	-156.105429	-77.860157	-9.066853
24909		13.372717	-1.969976	0.085044	-0.191041	-0.537105	-0.977973	-0.295898	-0.198242	0.582031	-159.162068	-77.787757	-6.046567
24910		13.845313	-1.009944	-0.109301	-0.199824	-0.430511	-1.177385	-0.293945	-0.201416	0.576904	-162.599979	-77.773897	-2.640856
24911		13.030159	0.655740	-0.736995	-0.440101	-0.278641	-1.201589	-0.285400	-0.201172	0.577637	-166.117008	-77.804595	0.704855
24912		12.138356	2.941735	-0.681359	-0.760544	-0.117751	-1.034246	-0.287842	-0.218750	0.574707	-169.310955	-77.862830	3.531648
24913		11.920292	2.905747	-0.591826	-0.753889	-0.085682	-0.757969	-0.276611	-0.226074	0.584717	-171.775641	-77.884404	5.616079
24914		13.188827	1.183642	-0.520053	-0.622052	-0.065531	-0.539064	-0.281494	-0.227051	0.582275	-173.586769	-77.884437	7.109100
24915		13.696325	-0.568059	-0.214845	-0.475873	-0.019487	-0.411704	-0.288330	-0.229004	0.577881	-174.959453	-77.895420	8.239475
24916		13.233926	-1.781105	-0.230531	-0.343641	0.036424	-0.320449	-0.282959	-0.237061	0.581299	-176.008265	-77.928585	9.115828
24917		12.527725	-2.357232	-0.307508	-0.206686	0.075484	-0.236411	-0.284912	-0.234619	0.575928	-176.748061	-77.978811	9.756502
24918		11.631844	-2.539002	-0.344568	-0.011132	0.099927	-0.138779	-0.286621	-0.238770	0.580811	-177.118324	-78.038157	10.133618
24919		10.556835	-2.903030	-0.357359	0.213029	0.122304	-0.001992	-0.293213	-0.234619	0.578613	-176.985285	-78.106690	10.127701
24920		9.947767	-3.107428	-0.514882	0.403104	0.128724	0.153127	-0.286621	-0.242432	0.571777	-176.320991	-78.173176	9.690052
24921		9.312671	-2.933100	-0.703744	0.572513	0.137272	0.303465	-0.288330	-0.232910	0.577637	-175.135473	-78.237179	8.819371
24922		8.658588	-2.465038	-0.624401	0.654514	0.151365	0.398868	-0.296875	-0.228760	0.575928	-173.628630	-78.299204	7.668561
24923		8.367230	-2.008161	-0.688115	0.681900	0.146043	0.445602	-0.295166	-0.216309	0.582275	-171.962761	-78.348792	6.371754
24924		8.505913	-1.551269	-0.771624	0.640514	0.155182	0.454184	-0.290039	-0.218750	0.572998	-170.284159	-78.394703	5.037852
24925		8.476622	-0.973631	-0.692845	0.574182	0.155234	0.455160	-0.300293	-0.208008	0.574219	-168.626997	-78.433091	3.687349
24926		8.285837	-0.403987	-0.683289	0.492056	0.137107	0.442744	-0.297607	-0.201904	0.569580	-167.056181	-78.454806	2.376990
24927		8.257061	-0.106762	-0.764910	0.411870	0.109287	0.409816	-0.305664	-0.210693	0.579834	-165.632762	-78.458966	1.170344
24928		8.338609	0.115449	-0.801135	0.323665	0.097844	0.356189	-0.294922	-0.207031	0.575195	-164.416104	-78.458859	0.123027
24929		8.411130	0.250104	-0.924268	0.274884	0.083703	0.324182	-0.305420	-0.193115	0.582764	-163.322238	-78.452138	-0.827376
24930		8.234966	0.227522	-0.922617	0.215344	0.070308	0.291525	-0.303711	-0.200439	0.573486	-162.365564	-78.439937	-1.672757
24931		8.205080	0.106413	-1.014657	0.190607	0.063330	0.265734	-0.305664	-0.204834	0.572998	-161.496737	-78.426076	-2.442820
24932		8.092533	-0.051956	-1.102171	0.134292	0.060879	0.236845	-0.311523	-0.197266	0.571045	-160.743841	-78.413836	-3.127700
24933		7.818015	-0.108537	-1.024420	0.083865	0.097787	0.203531	-0.307861	-0.195557	0.577881	-160.070657	-78.426425	-3.760521
24934		7.783130	-0.167661	-1.127373	0.035385	0.104153	0.172265	-0.315674	-0.191162	0.573242	-159.502873	-78.447059	-4.314274
24935		7.799316	-0.246574	-1.161489	-0.012392	0.121502	0.131453	-0.308838	-0.198730	0.575195	-159.046932	-78.484458	-4.781560
24936		7.884069	-0.393428	-1.225725	-0.056884	0.140787	0.102378	-0.309326	-0.205322	0.569580	-158.673375	-78.537326	-5.190930
24937		8.014929	-0.580496	-1.206301	-0.106269	0.153336	0.084455	-0.317383	-0.203613	0.573975	-158.355448	-78.600316	-5.572113
24938		8.179522	-0.703589	-1.217092	-0.154796	0.138960	0.075110	-0.315918	-0.198242	0.566895	-158.104921	-78.657118	-5.913048
24939		8.336052	-0.826072	-1.398367	-0.184509	0.120790	0.081465	-0.315918	-0.197754	0.572998	-157.868024	-78.702764	-6.257163
24940		8.543818	-0.952793	-1.611621	-0.204771	0.110177	0.091873	-0.311035	-0.197998	0.574951	-157.627625	-78.740105	-6.616858
24941		8.685227	-1.008718	-1.751706	-0.210669	0.109328	0.102522	-0.316650	-0.204590	0.574951	-157.357943	-78.774482	-7.009588
24942		8.726058	-1.108336	-1.859558	-0.214812	0.111179	0.097340	-0.316406	-0.205322	0.572021	-157.103572	-78.810501	-7.389293
24943		8.761778	-1.154005	-2.023002	-0.202211	0.117963	0.092513	-0.320801	-0.202393	0.559814	-156.841810	-78.850977	-7.768911
24944		8.824443	-1.154431	-2.284585	-0.186057	0.135573	0.084380	-0.322754	-0.205566	0.568359	-156.572948	-78.902084	-8.146468
24945		8.897076	-1.260473	-2.474322	-0.149509	0.176285	0.083790	-0.333984	-0.206299	0.562744	-156.230232	-78.974448	-8.577665
24946		8.841602	-1.401934	-2.501166	-0.109090	0.205387	0.057700	-0.320557	-0.207764	0.566650	-155.897672	-79.067471	-8.974975
24947		8.628597	-1.548835	-2.380901	-0.061020	0.190262	0.019280	-0.323486	-0.204346	0.560547	-155.651331	-79.161395	-9.256144
24948		8.273434	-1.600050	-2.440825	0.018733	0.135663	-0.027858	-0.317871	-0.210693	0.562744	-155.555474	-79.237641	-9.337655
24949		7.864814	-1.644836	-2.517608	0.126636	0.067074	-0.079893	-0.322510	-0.211670	0.553955	-155.622821	-79.290604	-9.189973
24950		7.482723	-1.572321	-2.767395	0.244935	-0.014111	-0.123381	-0.320068	-0.197998	0.560059	-155.848165	-79.311103	-8.812635
24951		7.166723	-1.729195	-3.350196	0.395071	-0.095230	-0.153468	-0.320557	-0.208496	0.565918	-156.168385	-79.296043	-8.251107
24952		7.315066	-2.170603	-3.766513	0.548796	-0.135434	-0.174865	-0.326660	-0.202148	0.565918	-156.510019	-79.263907	-7.578142
24953		7.711804	-2.650476	-3.467970	0.608593	-0.160002	-0.171202	-0.326172	-0.206299	0.562988	-156.830093	-79.217591	-6.892117
24954		8.269611	-2.693373	-3.077133	0.572301	-0.194525	-0.161669	-0.326660	-0.201904	0.572266	-157.182858	-79.149791	-6.193816
24955		8.909625	-2.066572	-3.029020	0.465574	-0.243424	-0.140692	-0.329346	-0.193359	0.564209	-157.584599	-79.051039	-5.507752
24956		9.436113	-1.270025	-3.345906	0.355146	-0.262982	-0.130880	-0.331299	-0.197021	0.562500	-158.036747	-78.938361	-4.834449
24957		9.811760	-0.617870	-3.662945	0.303131	-0.239786	-0.126866	-0.319580	-0.199951	0.566406	-158.469239	-78.836653	-4.211402
24958		10.029549	-0.558929	-3.821702	0.305480	-0.207834	-0.123121	-0.321533	-0.200928	0.565918	-158.850262	-78.749847	-3.639118
24959		9.816870	-0.758339	-4.036645	0.283030	-0.187306	-0.110392	-0.320557	-0.199219	0.564697	-159.179523	-78.671245	-3.132703
24960		9.573570	-0.949351	-4.203854	0.281437	-0.161369	-0.109528	-0.320801	-0.191895	0.568848	-159.478436	-78.605250	-2.657882
24961		9.304294	-1.260676	-4.645826	0.286681	-0.173493	-0.116676	-0.305664	-0.194092	0.567383	-159.798145	-78.534247	-2.158828
24962		9.261095	-1.484878	-4.548835	0.293533	-0.151766	-0.133592	-0.317627	-0.191162	0.567627	-160.135444	-78.477030	-1.637489
24963		9.368028	-1.172002	-3.939128	0.248887	-0.116023	-0.149577	-0.318604	-0.194336	0.574463	-160.500468	-78.442212	-1.114090
24964		9.657539	-0.508067	-2.930716	0.155817	-0.129909	-0.131216	-0.316650	-0.200439	0.572754	-160.882673	-78.394982	-0.627242
24965		10.300587	0.309300	-2.507979	0.094063	-0.214976	-0.018557	-0.313965	-0.200195	0.570068	-161.074605	-78.280892	-0.370933
24966		10.958818	0.838167	-2.506859	0.080241	-0.209364	0.166616	-0.318604	-0.196533	0.570313	-160.789199	-78.134463	-0.609959
24967		11.017487	0.843488	-1.840682	0.112000	-0.163273	0.315663	-0.322754	-0.195068	0.582275	-160.069842	-77.984641	-1.274326
24968		11.091535	0.923402	-0.710475	0.040488	-0.172447	0.404392	-0.319580	-0.189209	0.580078	-159.199174	-77.809574	-2.135533
24969		11.587480	1.082771	-0.996035	-0.014793	-0.157097	0.520523	-0.320313	-0.197021	0.578125	-158.085281	-77.616079	-3.278897
24970		11.801203	0.450895	-0.820374	0.119819	-0.149836	0.617063	-0.318604	-0.189941	0.577148	-156.697717	-77.399243	-4.624332
24971		11.911885	-0.737304	-0.823931	0.209081	-0.120066	0.664018	-0.320068	-0.190918	0.577148	-155.164496	-77.180290	-6.067934
24972		11.849176	-1.932294	-0.742414	0.306266	0.054070	0.683675	-0.315430	-0.187988	0.576904	-153.393659	-77.036714	-7.699133
24973		12.517505	-2.335195	-0.695146	0.452136	0.179624	0.683762	-0.320068	-0.176270	0.582031	-151.427744	-76.945623	-9.445616
24974		13.261739	-2.434612	-0.263206	0.576195	0.313523	0.720174	-0.322754	-0.174561	0.575439	-149.177028	-76.895958	-11.411938
24975		13.010985	-2.528374	0.643788	0.592475	0.340275	0.758432	-0.333008	-0.176270	0.579834	-146.818389	-76.830273	-13.480030
24976		12.340755	-1.958873	0.824495	0.473536	0.325119	0.766996	-0.326416	-0.166504	0.575195	-144.559722	-76.735383	-15.516067
24977		11.647894	-1.159665	0.581703	0.367801	0.309572	0.729917	-0.341064	-0.163086	0.579834	-142.485579	-76.628790	-17.425627
24978		11.328729	-0.649576	0.568934	0.275621	0.315397	0.650636	-0.344727	-0.155762	0.576904	-140.637796	-76.537794	-19.157561
24979		11.150930	-0.409152	0.394779	0.125322	0.317571	0.534696	-0.344727	-0.153320	0.574463	-139.103602	-76.479004	-20.656108
24980		11.048529	-0.107788	0.183504	-0.035659	0.323172	0.394386	-0.341309	-0.155762	0.572510	-137.915725	-76.467433	-21.893615
24981		10.599520	0.048556	0.071491	-0.183460	0.340618	0.232921	-0.348877	-0.158691	0.581787	-137.065020	-76.520749	-22.871277
24982		9.987537	0.323690	0.043531	-0.297229	0.347407	0.064514	-0.347168	-0.156738	0.567871	-136.556728	-76.640164	-23.563713
24983		9.619603	0.532582	-0.061702	-0.362163	0.336689	-0.100125	-0.356689	-0.160645	0.567383	-136.380204	-76.819196	-23.952942
24984		9.375653	0.389906	-0.193190	-0.381983	0.320887	-0.219580	-0.360107	-0.167236	0.568604	-136.451319	-77.038790	-24.099490
24985		9.236106	-0.070890	-0.242502	-0.397784	0.303892	-0.310079	-0.355225	-0.171143	0.563965	-136.723743	-77.287027	-24.048514
24986		8.862242	-0.519831	-0.389692	-0.417220	0.294546	-0.391950	-0.366211	-0.166016	0.557861	-137.188294	-77.563370	-23.812405
24987		8.399301	-0.765513	-0.424116	-0.416928	0.286967	-0.448170	-0.366943	-0.180420	0.564697	-137.789713	-77.857716	-23.436054
24988		8.511455	-0.885994	-0.554052	-0.423799	0.273692	-0.483278	-0.364502	-0.183350	0.559326	-138.517765	-78.158971	-22.934967
24989		8.490300	-0.866740	-0.575709	-0.419384	0.260510	-0.490552	-0.366211	-0.193848	0.555908	-139.311781	-78.455767	-22.364208
24990		8.371000	-0.815299	-0.597536	-0.421773	0.261094	-0.466824	-0.368652	-0.192139	0.559814	-140.092440	-78.742523	-21.809352
24991		8.381830	-0.812198	-0.662818	-0.420520	0.253633	-0.422872	-0.367432	-0.197998	0.553223	-140.817479	-79.008375	-21.310692
24992		8.272960	-0.733177	-0.799716	-0.415726	0.256632	-0.388906	-0.372070	-0.200195	0.556396	-141.487012	-79.262291	-20.866494
24993		8.019197	-0.544962	-0.810749	-0.410526	0.265007	-0.325136	-0.377686	-0.212646	0.559326	-142.005917	-79.496351	-20.572576
24994		8.065554	-0.668620	-0.845029	-0.397376	0.266832	-0.270978	-0.373535	-0.208496	0.558594	-142.399826	-79.711913	-20.398602
24995		8.206323	-0.670934	-1.009825	-0.397135	0.259062	-0.226017	-0.376709	-0.209717	0.547852	-142.702497	-79.907952	-20.316995
24996		8.100942	-0.711407	-1.074799	-0.370495	0.255890	-0.180111	-0.380371	-0.221680	0.548828	-142.886878	-80.086717	-20.340363
24997		8.028863	-0.766505	-1.182255	-0.343389	0.269332	-0.131688	-0.383057	-0.219727	0.547852	-142.899246	-80.254753	-20.522220
24998		8.153273	-0.832577	-1.218287	-0.319592	0.275680	-0.101790	-0.382324	-0.217041	0.550537	-142.804461	-80.415467	-20.799164
24999		8.549074	-0.786417	-1.408290	-0.289980	0.253317	-0.079646	-0.372559	-0.223877	0.545166	-142.668967	-80.558062	-21.099746
25000		8.811071	-0.646294	-1.528059	-0.279600	0.243099	-0.077851	-0.388428	-0.229492	0.537109	-142.541104	-80.695413	-21.386751
25001		8.741961	-0.404219	-1.522764	-0.246994	0.244423	-0.079712	-0.383301	-0.225586	0.543945	-142.387010	-80.833752	-21.680984
25002		8.717202	-0.312006	-1.530963	-0.216270	0.235240	-0.073795	-0.394287	-0.231689	0.533691	-142.215469	-80.965869	-21.975252
25003		8.745182	-0.225778	-1.566766	-0.188435	0.231442	-0.076377	-0.389404	-0.231934	0.535156	-142.033219	-81.096881	-22.263804
25004		8.800094	-0.115172	-1.685683	-0.172150	0.242166	-0.079817	-0.390869	-0.237305	0.540039	-141.823861	-81.233947	-22.570549
25005		8.738187	0.038134	-1.579701	-0.172219	0.247562	-0.072261	-0.392578	-0.231445	0.536865	-141.567386	-81.370405	-22.924578
25006		8.498592	0.131329	-1.634448	-0.195666	0.217464	-0.036758	-0.384277	-0.240967	0.531982	-141.284994	-81.480609	-23.318601
25007		8.207437	0.173743	-1.651639	-0.233845	0.197625	0.012601	-0.399414	-0.241943	0.539795	-140.911770	-81.563701	-23.826163
25008		7.807116	0.082584	-1.819732	-0.271271	0.119499	0.065830	-0.391602	-0.240723	0.529297	-140.589423	-81.592553	-24.304220
25009		7.445734	-0.068382	-2.194419	-0.317384	-0.001704	0.090371	-0.402100	-0.247314	0.538086	-140.513145	-81.558425	-24.559913
25010		7.089413	-0.388179	-2.863769	-0.363608	-0.092807	0.123719	-0.399414	-0.245850	0.533936	-140.593218	-81.472019	-24.684665
25011		6.872239	-0.625298	-3.139572	-0.405661	-0.150537	0.151697	-0.398193	-0.243652	0.529785	-140.749831	-81.349738	-24.756088
25012		6.860911	-0.696176	-3.128340	-0.450202	-0.197996	0.190721	-0.397461	-0.246094	0.525879	-140.934440	-81.192410	-24.825326
25013		6.958351	-0.585920	-3.069974	-0.500092	-0.242027	0.238406	-0.393555	-0.255859	0.534180	-141.106908	-80.998196	-24.935526
25014		7.319658	-0.503505	-3.151288	-0.534878	-0.286729	0.288394	-0.393799	-0.254150	0.539795	-141.264224	-80.766198	-25.081586
25015		7.910759	-0.606093	-2.761364	-0.521371	-0.319753	0.306948	-0.396729	-0.263184	0.537842	-141.430252	-80.512776	-25.210810
25016		9.029957	-0.882241	-2.464580	-0.432068	-0.353537	0.282620	-0.395508	-0.253662	0.533691	-141.683378	-80.252976	-25.200137
25017		9.625159	-1.266608	-2.402076	-0.295722	-0.380531	0.224309	-0.398682	-0.253662	0.534424	-142.051200	-80.001601	-24.993501
25018		10.201077	-1.648529	-2.444676	-0.168468	-0.378041	0.132364	-0.398438	-0.257813	0.535645	-142.564072	-79.783301	-24.565545
25019		10.621789	-1.655254	-2.738726	-0.083408	-0.383192	0.045367	-0.402344	-0.255615	0.534912	-143.230980	-79.591959	-23.930986
25020		10.242375	-1.441671	-2.948316	0.000901	-0.338278	0.006044	-0.396973	-0.254639	0.546143	-143.847128	-79.433395	-23.298769
25021		10.234334	-1.199489	-3.207461	0.027656	-0.314287	0.008229	-0.395996	-0.255859	0.541260	-144.377527	-79.284147	-22.737684
25022		10.416160	-0.997110	-3.340568	0.060956	-0.292453	0.018881	-0.397217	-0.261719	0.544189	-144.814905	-79.140586	-22.251776
25023		10.766658	-0.829799	-2.899205	0.084195	-0.307089	0.009692	-0.391357	-0.250488	0.548584	-145.269427	-78.992576	-21.734432
25024		11.030428	-1.165259	-2.900161	0.086985	-0.356932	-0.020334	-0.388672	-0.252197	0.553223	-145.867398	-78.829692	-21.069171
25025		11.012072	-1.711849	-3.222994	0.073121	-0.359098	-0.091456	-0.386230	-0.259033	0.557373	-146.623975	-78.687078	-20.249787
25026		11.075846	-1.888347	-3.061152	0.035572	-0.348593	-0.201181	-0.392334	-0.263184	0.556885	-147.632883	-78.580984	-19.194755
25027		11.185773	-1.633817	-2.937501	-0.037626	-0.394142	-0.292494	-0.381592	-0.268311	0.554443	-148.945733	-78.476225	-17.871848
25028		11.261013	-1.283012	-2.575931	-0.145310	-0.449639	-0.370676	-0.389404	-0.272705	0.558594	-150.565335	-78.359571	-16.298385
25029		11.443792	-0.758047	-2.201981	-0.278472	-0.504686	-0.428912	-0.383545	-0.268311	0.564697	-152.436086	-78.221862	-14.545525
25030		11.469069	-0.444261	-1.500052	-0.321725	-0.526130	-0.459231	-0.374512	-0.275879	0.563477	-154.391468	-78.068794	-12.730694
25031		11.094655	-0.175883	-0.978058	-0.307893	-0.485021	-0.470191	-0.372314	-0.282227	0.553223	-156.268040	-77.927747	-10.987238
25032		11.042537	-0.361752	0.087294	-0.317055	-0.456627	-0.456093	-0.371582	-0.284912	0.563965	-158.047692	-77.786705	-9.347512
25033		11.252436	-0.328462	0.001386	-0.396253	-0.336870	-0.481871	-0.373779	-0.290039	0.562744	-159.782956	-77.704879	-7.798812
25034		11.485152	-0.215451	0.188518	-0.545445	-0.174425	-0.546730	-0.366455	-0.298828	0.556641	-161.610128	-77.712674	-6.243511
25035		11.472849	0.235695	0.220079	-0.686017	-0.051927	-0.617343	-0.371094	-0.297363	0.559814	-163.601027	-77.788876	-4.603141
25036		11.297712	0.500632	0.516554	-0.718211	0.019948	-0.646648	-0.362793	-0.305664	0.561768	-165.662586	-77.896585	-2.910186
25037		11.026957	0.586086	0.698149	-0.684899	0.052917	-0.605730	-0.367676	-0.319336	0.553467	-167.605942	-78.005056	-1.319007
25038		10.726026	0.284481	0.635108	-0.615157	0.085645	-0.525392	-0.365234	-0.332764	0.550781	-169.312082	-78.111804	0.069584
25039		10.536640	-0.276055	0.481184	-0.498134	0.109663	-0.432313	-0.364990	-0.326172	0.555420	-170.711106	-78.215301	1.212693
25040		10.121459	-1.011390	0.403816	-0.351482	0.114317	-0.326962	-0.360596	-0.334473	0.553467	-171.760774	-78.306997	2.084005
25041		9.697782	-1.691434	0.188426	-0.196680	0.119229	-0.215395	-0.365967	-0.341553	0.556152	-172.422162	-78.390240	2.649547
25042		9.830163	-2.077558	-0.053478	-0.043075	0.117389	-0.093969	-0.366943	-0.344727	0.554443	-172.669982	-78.462350	2.882205
25043		10.196768	-2.218830	-0.362690	0.082862	0.107210	0.039232	-0.374756	-0.331299	0.555908	-172.475549	-78.518942	2.737531
25044		10.054056	-2.151909	-0.560002	0.196694	0.100614	0.148448	-0.369385	-0.333496	0.559570	-171.913414	-78.562995	2.283850
25045		9.719661	-1.994086	-0.550511	0.277550	0.097456	0.232771	-0.375000	-0.328613	0.552002	-171.062190	-78.597090	1.582966
25046		9.410099	-1.717310	-0.615741	0.318652	0.078820	0.280394	-0.372803	-0.331055	0.550537	-170.061349	-78.613874	0.753160
25047		9.232920	-1.472180	-0.736305	0.335016	0.071984	0.296022	-0.375732	-0.331787	0.559326	-169.005603	-78.622281	-0.122668
25048		9.092847	-1.239946	-0.819197	0.333004	0.079721	0.285340	-0.378418	-0.327148	0.551514	-167.977877	-78.633097	-0.971436
25049		8.952178	-1.179338	-0.807352	0.328963	0.065751	0.269647	-0.383545	-0.332275	0.559814	-167.000654	-78.635121	-1.770658
25050		8.888159	-1.064286	-0.923482	0.327984	0.060812	0.241303	-0.383301	-0.326904	0.557861	-166.108349	-78.635623	-2.484205
25051		8.853529	-1.050936	-1.008963	0.336797	0.057652	0.219150	-0.387207	-0.317871	0.565430	-165.271805	-78.635355	-3.135354
25052		8.856972	-0.979201	-1.034349	0.340593	0.068765	0.215965	-0.387207	-0.321045	0.558838	-164.436049	-78.639891	-3.783845
25053		8.724571	-0.969375	-0.972740	0.326860	0.092775	0.222968	-0.382080	-0.312744	0.559570	-163.566739	-78.654584	-4.474194
25054		8.502120	-0.890945	-0.928534	0.297226	0.116259	0.227731	-0.388428	-0.309814	0.569092	-162.682037	-78.679359	-5.197879
25055		8.374139	-0.734326	-0.868382	0.246013	0.123529	0.214598	-0.389893	-0.309570	0.569580	-161.850277	-78.708175	-5.897062
25056		8.390778	-0.640162	-1.089995	0.202779	0.100817	0.204812	-0.385498	-0.306641	0.559326	-161.089624	-78.724635	-6.549312
25057		8.328938	-0.543070	-1.153598	0.170053	0.115531	0.189738	-0.390625	-0.308594	0.567871	-160.370142	-78.750140	-7.178282
25058		8.276226	-0.525352	-1.294160	0.138382	0.114607	0.177926	-0.387451	-0.306641	0.554443	-159.701052	-78.776097	-7.774699
25059		8.281963	-0.567942	-1.370766	0.105018	0.120366	0.150071	-0.393555	-0.304199	0.560303	-159.115365	-78.809349	-8.305139
25060		8.428759	-0.679587	-1.457335	0.069267	0.121252	0.125478	-0.398926	-0.301514	0.567871	-158.614773	-78.847320	-8.770036
25061		8.569068	-0.806249	-1.573170	0.045087	0.112618	0.097906	-0.403809	-0.310547	0.556396	-158.206545	-78.885641	-9.154475
25062		8.702891	-0.948261	-1.718768	0.031629	0.102488	0.080858	-0.400391	-0.306641	0.565186	-157.862949	-78.921894	-9.481237
25063		8.805115	-1.081959	-1.820965	0.009587	0.096383	0.061128	-0.399902	-0.311279	0.559570	-157.587965	-78.958704	-9.750539
25064		8.843622	-1.120965	-1.942697	-0.006846	0.108748	0.043398	-0.400391	-0.303223	0.569092	-157.356976	-79.005865	-9.984936
25065		8.808562	-1.105190	-2.057178	-0.004908	0.126492	0.017595	-0.400635	-0.308838	0.568848	-157.170724	-79.067809	-10.172227
25066		8.784110	-1.172094	-2.204738	0.010488	0.137444	0.008109	-0.400391	-0.309570	0.568115	-156.988953	-79.137663	-10.346273
25067		8.764116	-1.167818	-2.331589	0.034428	0.163934	-0.004516	-0.415771	-0.307373	0.559814	-156.792461	-79.224077	-10.520953
25068		8.641850	-1.157242	-2.396107	0.062371	0.193611	-0.014571	-0.411133	-0.307861	0.564941	-156.571286	-79.328372	-10.704719
25069		8.586928	-1.165723	-2.461202	0.108813	0.218900	-0.033335	-0.414063	-0.307617	0.561035	-156.338874	-79.450002	-10.872463
25070		8.558395	-1.231487	-2.373329	0.159269	0.230558	-0.064255	-0.414551	-0.307861	0.561035	-156.148332	-79.584842	-10.968438
25071		8.290197	-1.239734	-2.389850	0.206496	0.211735	-0.107935	-0.420410	-0.315430	0.562744	-156.074812	-79.719840	-10.917627
25072		7.951852	-1.170499	-2.460477	0.266428	0.155750	-0.169035	-0.409912	-0.311768	0.558105	-156.219783	-79.839692	-10.610176
25073		7.598919	-1.005937	-2.672718	0.336156	0.072580	-0.214230	-0.413330	-0.305176	0.558105	-156.568553	-79.925973	-10.054980
25074		7.313151	-0.915453	-2.883732	0.420365	-0.027643	-0.252691	-0.413330	-0.314209	0.558350	-157.120304	-79.967345	-9.244954
25075		7.231643	-1.083278	-3.358062	0.529954	-0.126712	-0.273205	-0.420654	-0.308350	0.563965	-157.795141	-79.959293	-8.245997
25076		7.492776	-1.471367	-3.526014	0.630764	-0.174796	-0.272383	-0.408203	-0.309326	0.564697	-158.467058	-79.923371	-7.191435
25077		7.954685	-1.704670	-3.253351	0.633208	-0.207171	-0.250187	-0.412598	-0.304932	0.576416	-159.099112	-79.863544	-6.175627
25078		8.484219	-1.436527	-2.898409	0.542812	-0.240070	-0.220394	-0.421387	-0.299316	0.567139	-159.722015	-79.777956	-5.221597
25079		8.949825	-0.878313	-2.995216	0.453545	-0.274551	-0.183806	-0.406738	-0.300537	0.566650	-160.308253	-79.665029	-4.356422
25080		9.294230	-0.595024	-3.317166	0.394209	-0.295935	-0.150270	-0.408691	-0.298584	0.581543	-160.837709	-79.532438	-3.583252
25081		9.687170	-0.535733	-3.550719	0.360414	-0.275642	-0.121121	-0.406982	-0.309326	0.580322	-161.263658	-79.404487	-2.934685
25082		9.896090	-0.759324	-3.810636	0.342693	-0.245163	-0.103921	-0.405762	-0.298584	0.579102	-161.610527	-79.288878	-2.376675
25083		9.898847	-1.095274	-4.031885	0.338008	-0.201391	-0.090009	-0.400146	-0.300537	0.580322	-161.868168	-79.194327	-1.912012
25084		9.903771	-1.237765	-4.188691	0.349017	-0.161378	-0.086857	-0.398682	-0.296143	0.583496	-162.069895	-79.120322	-1.497695
25085		10.178582	-1.211777	-3.688106	0.380633	-0.137101	-0.097851	-0.407471	-0.297852	0.585449	-162.256665	-79.061574	-1.080102
25086		10.872362	-0.678839	-2.795209	0.366690	-0.139613	-0.101936	-0.402588	-0.297363	0.590576	-162.463831	-79.001474	-0.649700
25087		11.530818	0.213013	-2.442438	0.331596	-0.113419	-0.059402	-0.402588	-0.293213	0.592773	-162.543705	-78.948575	-0.369473
