// General information: 
//  MT Manager version: 2022.2.0 
//  XDA version: 2022.2.0 build 7381 rev 124627 built on 2023-07-19
// Device information: 
//  DeviceId: 00B4BCF6
//  ProductCode: MTW2-3A7G6
//  Firmware Version: 4.6.0
//  Hardware Version: 2.0.0
// Device settings: 
//  Filter Profile: human(46.1)
//  Option Flags: Orientation Smoother Disabled, Position/Velocity Smoother Disabled, Continuous Zero Rotation Update Disabled, AHS Disabled, ICC Disabled
// Coordinate system: ENU
PacketCounter	SampleTimeFine	Acc_X	Acc_Y	Acc_Z	Gyr_X	Gyr_Y	Gyr_Z	Mag_X	Mag_Y	Mag_Z	Roll	Pitch	Yaw
12130		-3.574333	0.205725	9.193075	0.003037	0.015476	-0.000875	-0.597656	-0.168213	-0.509766	1.327174	21.484533	154.222835
12131		-3.626382	0.264265	9.191099	0.007613	0.010614	-0.000500	-0.590576	-0.174805	-0.510254	1.334207	21.487456	154.226269
12132		-3.594414	0.221047	9.166438	0.002527	0.011465	-0.004692	-0.580078	-0.174561	-0.500732	1.337433	21.490468	154.226316
12133		-3.598520	0.219123	9.190169	0.004065	0.009835	-0.002070	-0.586426	-0.168213	-0.505859	1.342076	21.492966	154.228773
12134		-3.599323	0.271381	9.219092	0.000516	0.009055	-0.003640	-0.589844	-0.169922	-0.503662	1.344343	21.495105	154.230621
12135		-3.585148	0.242161	9.168720	0.000834	0.011749	-0.006091	-0.590820	-0.171875	-0.499268	1.346238	21.498753	154.230631
12136		-3.607194	0.254059	9.166674	-0.006699	0.011163	-0.005520	-0.592773	-0.170410	-0.504150	1.343833	21.501644	154.230881
12137		-3.599187	0.220030	9.164589	-0.003660	0.007931	-0.007765	-0.593262	-0.167480	-0.498779	1.342755	21.503127	154.229804
12138		-3.599952	0.219531	9.164301	-0.000740	0.008367	-0.008750	-0.597412	-0.172852	-0.507813	1.342894	21.504291	154.228186
12139		-3.600709	0.218991	9.164016	-0.005950	0.007841	-0.004227	-0.580566	-0.167969	-0.504150	1.341302	21.505675	154.229285
12140		-3.589318	0.239190	9.167166	-0.005512	0.006869	-0.007939	-0.583740	-0.163574	-0.504150	1.339079	21.506318	154.228063
12141		-3.572280	0.224082	9.192633	-0.001644	0.010344	-0.008819	-0.593994	-0.164795	-0.501953	1.338930	21.509197	154.226372
12142		-3.570089	0.225611	9.168160	-0.004563	0.009909	-0.007836	-0.589600	-0.176025	-0.497803	1.336907	21.511524	154.226648
12143		-3.549978	0.264677	9.198765	-0.005788	0.009190	-0.005454	-0.585205	-0.177490	-0.502197	1.335137	21.513697	154.227012
12144		-3.596192	0.234392	9.189893	-0.004082	0.013954	-0.011513	-0.589844	-0.166992	-0.500244	1.333226	21.518414	154.222623
12145		-3.597445	0.233473	9.189426	-0.008227	0.012799	-0.008149	-0.588135	-0.171875	-0.508057	1.329469	21.522689	154.221379
12146		-3.598564	0.232364	9.189016	-0.009012	0.011108	-0.009479	-0.591797	-0.170654	-0.513184	1.324837	21.525732	154.219494
12147		-3.620452	0.191449	9.157730	-0.009331	0.008412	-0.007029	-0.587402	-0.165039	-0.505371	1.320678	21.527480	154.218877
12148		-3.600402	0.230304	9.188348	-0.004397	0.011262	-0.009064	-0.588623	-0.169189	-0.504883	1.318789	21.530673	154.217357
12149		-3.580391	0.165220	9.160322	-0.001636	0.010351	-0.008821	-0.590820	-0.175537	-0.492432	1.318643	21.533555	154.215663
12150		-3.590245	0.250086	9.191059	-0.004716	0.008566	-0.006614	-0.591553	-0.172852	-0.504150	1.317169	21.534935	154.214941
12151		-3.554905	0.208087	9.142387	-0.002701	0.010980	-0.007665	-0.589844	-0.170166	-0.503662	1.316677	21.538162	154.213967
12152		-3.565574	0.201129	9.214287	-0.003445	0.014306	-0.008961	-0.587646	-0.168701	-0.496094	1.315469	21.542911	154.211824
12153		-3.593624	0.248139	9.189791	-0.007592	0.013148	-0.005598	-0.588379	-0.174561	-0.512939	1.312653	21.547352	154.212154
12154		-3.600616	0.230534	9.137650	-0.007430	0.014498	-0.006825	-0.587646	-0.171875	-0.506348	1.309689	21.552361	154.211515
12155		-3.557449	0.167454	9.186913	-0.004346	0.016286	-0.009032	-0.580811	-0.169678	-0.499512	1.307972	21.558644	154.209774
12156		-3.618876	0.205930	9.157160	-0.004626	0.018607	-0.006547	-0.584229	-0.166992	-0.502686	1.306659	21.566199	154.209909
12157		-3.596343	0.195221	9.134088	-0.000798	0.017069	-0.007458	-0.588135	-0.166748	-0.498047	1.307335	21.572910	154.209148
12158		-3.630933	0.238413	9.157718	-0.001120	0.014371	-0.005008	-0.586426	-0.168457	-0.505615	1.308076	21.577826	154.210876
12159		-3.611208	0.225844	9.158904	0.001015	0.013117	-0.007319	-0.593262	-0.176025	-0.513672	1.309802	21.582272	154.210145
12160		-3.612314	0.225600	9.158474	-0.000999	0.010703	-0.006269	-0.584717	-0.169922	-0.500000	1.310738	21.585061	154.209299
12161		-3.616643	0.275161	9.211520	-0.002689	0.010988	-0.007671	-0.580566	-0.172363	-0.505615	1.310250	21.588292	154.208321
12162		-3.602292	0.245499	9.161161	-0.005609	0.010550	-0.006692	-0.582764	-0.164063	-0.511230	1.308328	21.591305	154.208287
12163		-3.609511	0.188201	9.179696	-0.006853	0.009865	-0.011806	-0.583252	-0.171631	-0.512207	1.304512	21.593946	154.204746
12164		-3.619578	0.220634	9.181048	-0.004659	0.013594	-0.006587	-0.586914	-0.174316	-0.502441	1.303149	21.598862	154.205206
12165		-3.629419	0.201071	9.153095	-0.005323	0.008232	-0.009179	-0.589600	-0.166504	-0.506104	1.300796	21.600533	154.203260
12166		-3.633321	0.198046	9.176945	-0.006107	0.006540	-0.010511	-0.581543	-0.170410	-0.502197	1.297637	21.600955	154.200392
12167		-3.618559	0.220271	9.156138	-0.005364	0.003212	-0.009215	-0.585693	-0.166992	-0.505615	1.295226	21.599751	154.198354
12168		-3.600599	0.296740	9.140638	-0.005985	0.002871	-0.011772	-0.588867	-0.166748	-0.504150	1.291777	21.598378	154.195432
12169		-3.607195	0.239350	9.159394	-0.005821	0.004222	-0.012999	-0.584717	-0.167236	-0.504150	1.288252	21.597802	154.191078
12170		-3.635020	0.246248	9.205782	-0.008740	0.003783	-0.012021	-0.587891	-0.168457	-0.507568	1.283059	21.596759	154.188089
12171		-3.590123	0.222658	9.184968	-0.005982	0.002873	-0.011774	-0.586670	-0.160156	-0.507568	1.279713	21.595393	154.184471
12172		-3.599398	0.254677	9.186671	-0.011211	0.002377	-0.014756	-0.587646	-0.166504	-0.507813	1.272394	21.593626	154.180204
12173		-3.611750	0.232101	9.183102	-0.012114	0.004355	-0.014827	-0.588867	-0.179199	-0.510010	1.264849	21.593148	154.174726
12174		-3.624005	0.209566	9.179561	-0.010302	0.000402	-0.014687	-0.583008	-0.166260	-0.501709	1.258559	21.590219	154.168493
12175		-3.641829	0.222649	9.153787	-0.009844	-0.000608	-0.010904	-0.581299	-0.163574	-0.509766	1.253180	21.586847	154.165364
12176		-3.599467	0.196755	9.157331	-0.010047	-0.006980	-0.009715	-0.586426	-0.172607	-0.508057	1.247690	21.579958	154.164404
12177		-3.610899	0.174639	9.154092	-0.005894	-0.005812	-0.013075	-0.594971	-0.170166	-0.506348	1.244058	21.573632	154.159870
12178		-3.625628	0.202528	9.204401	-0.007001	-0.010206	-0.011957	-0.586914	-0.171143	-0.516846	1.240107	21.564415	154.155316
12179		-3.600486	0.191329	9.182364	-0.006999	-0.010205	-0.011958	-0.588623	-0.163330	-0.506104	1.236074	21.555557	154.151412
12180		-3.590521	0.157084	9.180943	-0.005310	-0.010490	-0.010556	-0.584229	-0.164795	-0.502686	1.233289	21.546462	154.148761
12181		-3.583672	0.212726	9.162419	-0.004652	-0.005129	-0.007960	-0.584229	-0.173584	-0.512695	1.231532	21.540463	154.147389
12182		-3.589627	0.207553	9.210820	-0.006339	-0.004843	-0.009363	-0.584961	-0.174561	-0.504639	1.228533	21.534748	154.145525
12183		-3.586005	0.208815	9.186902	-0.006338	-0.004843	-0.009364	-0.592285	-0.171631	-0.500488	1.225495	21.528930	154.143293
12184		-3.606534	0.220124	9.185446	-0.007119	-0.006534	-0.010697	-0.582275	-0.169189	-0.499756	1.221829	21.521876	154.139511
12185		-3.563942	0.194603	9.189019	-0.005268	-0.005466	-0.010520	-0.580078	-0.175537	-0.508545	1.219140	21.515714	154.136559
12186		-3.596464	0.184999	9.184069	-0.007567	-0.005569	-0.006983	-0.589600	-0.165771	-0.505127	1.216122	21.509696	154.135833
12187		-3.583891	0.205227	9.187807	-0.002672	-0.007727	-0.009049	-0.583008	-0.171143	-0.501709	1.215243	21.502222	154.133758
12188		-3.616721	0.247693	9.212269	-0.008930	-0.002578	-0.010837	-0.591309	-0.168701	-0.504883	1.210313	21.497624	154.131147
12189		-3.579731	0.205259	9.164130	-0.009744	-0.009288	-0.012211	-0.584717	-0.171631	-0.499756	1.204663	21.489294	154.127106
12190		-3.540199	0.177317	9.191833	-0.006951	-0.005177	-0.011925	-0.587891	-0.175781	-0.508789	1.200678	21.483098	154.123301
12191		-3.551929	0.155370	9.188450	-0.005229	-0.000443	-0.010483	-0.586914	-0.172852	-0.501221	1.198047	21.479813	154.120440
12192		-3.599893	0.214594	9.162880	-0.004610	-0.000105	-0.007924	-0.590576	-0.173340	-0.503418	1.196622	21.476586	154.118238
12193		-3.590916	0.232471	9.190578	-0.008018	-0.004552	-0.010770	-0.590820	-0.175537	-0.505127	1.192309	21.470950	154.115148
12194		-3.614635	0.189671	9.183687	-0.002922	-0.000390	-0.006522	-0.586670	-0.172852	-0.502441	1.192129	21.467322	154.113540
12195		-3.578302	0.199774	9.164809	-0.007854	-0.003198	-0.011996	-0.591553	-0.172607	-0.505859	1.187642	21.462476	154.109713
12196		-3.569215	0.217577	9.192554	-0.006780	-0.003876	-0.005652	-0.589355	-0.166504	-0.497070	1.185348	21.456954	154.109131
12197		-3.550459	0.190189	9.118460	-0.003377	0.000627	-0.010307	-0.589111	-0.171387	-0.504395	1.183825	21.454278	154.106393
12198		-3.548205	0.204020	9.194222	-0.001981	0.002655	-0.006413	-0.588867	-0.172607	-0.503418	1.183867	21.452433	154.106352
12199		-3.569461	0.215782	9.192500	-0.003829	0.001588	-0.006591	-0.586426	-0.165771	-0.501465	1.182926	21.450263	154.105913
12200		-3.578222	0.196171	9.164918	-0.008303	-0.002236	-0.008281	-0.589844	-0.171631	-0.502686	1.178966	21.445784	154.104696
12201		-3.569521	0.214061	9.192518	-0.003052	0.003335	-0.012758	-0.587158	-0.169434	-0.502930	1.177091	21.444688	154.100485
12202		-3.557340	0.182459	9.166534	-0.000780	-0.001633	-0.008837	-0.592529	-0.169434	-0.508789	1.177400	21.440520	154.098550
12203		-3.560748	0.179688	9.190561	-0.004413	0.006271	-0.009110	-0.584717	-0.166748	-0.507080	1.175579	21.441063	154.096621
12204		-3.570414	0.212196	9.192214	-0.005644	0.005541	-0.006728	-0.592773	-0.167725	-0.505859	1.173564	21.441090	154.096453
12205		-3.561784	0.178317	9.190186	-0.002887	0.004632	-0.006482	-0.592529	-0.165039	-0.501709	1.173201	21.440663	154.096120
12206		-3.562234	0.177894	9.190020	-0.002271	0.004969	-0.003922	-0.584961	-0.168945	-0.510742	1.173538	21.439973	154.097808
12207		-3.604823	0.201936	9.186535	-0.003957	0.005255	-0.005325	-0.582520	-0.171387	-0.511963	1.172826	21.439890	154.098195
12208		-3.559866	0.179167	9.165618	-0.003210	0.001926	-0.004032	-0.594238	-0.168457	-0.507324	1.173029	21.438214	154.099496
12209		-3.581303	0.191149	9.163821	0.001880	0.006146	-0.007282	-0.586914	-0.172852	-0.499023	1.175225	21.438664	154.098690
12210		-3.552119	0.197503	9.192853	-0.002563	0.007282	-0.001430	-0.591309	-0.168213	-0.500977	1.176217	21.439388	154.101196
12211		-3.552695	0.197405	9.192633	0.002334	0.005129	-0.003497	-0.582031	-0.174805	-0.502686	1.179519	21.439211	154.102707
12212		-3.565505	0.228276	9.218402	-0.003340	0.005592	-0.002766	-0.587646	-0.173340	-0.507813	1.179817	21.439209	154.104574
12213		-3.586741	0.188092	9.187062	-0.002107	0.006324	-0.005148	-0.588623	-0.177002	-0.504395	1.180209	21.439736	154.105084
12214		-3.557637	0.194289	9.216078	-0.002400	0.008636	-0.002656	-0.592041	-0.167969	-0.500977	1.181360	21.441472	154.105987
12215		-3.588116	0.187501	9.186537	-0.000421	0.006038	-0.003744	-0.591553	-0.171875	-0.503906	1.183032	21.441819	154.107357
12216		-3.573654	0.210589	9.165697	-0.000714	0.008351	-0.001252	-0.588623	-0.170898	-0.505127	1.185054	21.443047	154.110075
12217		-3.568578	0.174935	9.187615	0.000067	0.010101	-0.007420	-0.593994	-0.174072	-0.501953	1.186199	21.445764	154.109234
12218		-3.590529	0.187002	9.185605	0.000520	0.009083	-0.003635	-0.585449	-0.177246	-0.500488	1.188567	21.447495	154.109940
12219		-3.603717	0.218017	9.211224	0.001134	0.009420	-0.001074	-0.588623	-0.177002	-0.508545	1.191748	21.449746	154.112997
12220		-3.580312	0.207817	9.188464	-0.001778	0.009034	-0.007600	-0.598145	-0.168213	-0.502441	1.192229	21.451800	154.110615
12221		-3.566066	0.230661	9.167552	-0.002234	0.009993	-0.003884	-0.586670	-0.169922	-0.502930	1.192851	21.454413	154.111950
12222		-3.590797	0.188428	9.160161	0.000522	0.009085	-0.003635	-0.585449	-0.171143	-0.502686	1.194985	21.456042	154.113355
12223		-3.549864	0.215850	9.192696	-0.000255	0.007395	-0.004971	-0.591553	-0.168457	-0.506836	1.196484	21.457179	154.113987
12224		-3.559240	0.196922	9.164814	-0.000875	0.006998	-0.000029	-0.585205	-0.171143	-0.508789	1.198739	21.457877	154.117734
12225		-3.581106	0.209059	9.162824	0.000686	0.010440	-0.004861	-0.591797	-0.164795	-0.503174	1.200816	21.460758	154.118473
12226		-3.609407	0.216568	9.209030	-0.003172	0.006949	-0.003995	-0.589844	-0.171875	-0.506104	1.200777	21.461499	154.120140
12227		-3.585873	0.206303	9.186329	0.000524	0.009086	-0.003636	-0.587158	-0.172119	-0.510986	1.203031	21.463589	154.121615
12228		-3.589873	0.203833	9.210128	-0.001936	0.007682	-0.006377	-0.590576	-0.162598	-0.503418	1.203452	21.464833	154.120834
12229		-3.572261	0.228863	9.165185	-0.003007	0.008304	-0.005222	-0.594238	-0.171387	-0.502686	1.203322	21.466494	154.121324
12230		-3.542667	0.182990	9.164793	-0.002263	0.004973	-0.003926	-0.591553	-0.172363	-0.510010	1.203656	21.465761	154.122945
12231		-3.600551	0.183797	9.181745	-0.003006	0.008305	-0.005222	-0.590576	-0.165039	-0.489014	1.203526	21.467423	154.123434
12232		-3.592609	0.202325	9.209094	0.000361	0.007733	-0.002411	-0.586670	-0.172852	-0.505615	1.205766	21.468263	154.125890
12233		-3.553921	0.215313	9.165847	-0.003005	0.008306	-0.005222	-0.591553	-0.165771	-0.508545	1.205637	21.469925	154.126379
12234		-3.582115	0.222763	9.212095	-0.000414	0.006043	-0.003747	-0.587646	-0.174805	-0.505859	1.207327	21.470120	154.127778
12235		-3.567228	0.193651	9.161778	-0.002840	0.009661	-0.006449	-0.592529	-0.168213	-0.502197	1.207022	21.472573	154.127530
12236		-3.571367	0.191149	9.185527	0.001763	0.009823	-0.006019	-0.589355	-0.172363	-0.502686	1.209527	21.474821	154.127093
12237		-3.593403	0.203259	9.183454	-0.000380	0.011067	-0.003708	-0.581055	-0.167969	-0.508545	1.211256	21.478046	154.128551
12238		-3.573255	0.190841	9.184799	-0.000083	0.008755	-0.006199	-0.593262	-0.171387	-0.505371	1.212652	21.480050	154.128724
12239		-3.591820	0.205177	9.158717	0.001435	0.007113	-0.003568	-0.588135	-0.165039	-0.502197	1.215435	21.481008	154.130217
12240		-3.574619	0.190542	9.184275	-0.002095	0.006330	-0.005154	-0.588379	-0.176270	-0.500000	1.215693	21.481185	154.130967
12241		-3.584555	0.223461	9.185826	0.000083	0.010111	-0.007426	-0.591553	-0.167725	-0.507080	1.216845	21.483907	154.130124
12242		-3.572989	0.192054	9.159566	-0.005310	0.008195	-0.001689	-0.589600	-0.172119	-0.507568	1.216279	21.485153	154.132255
12243		-3.544108	0.198182	9.188603	-0.002224	0.010000	-0.003890	-0.584473	-0.172363	-0.497070	1.216906	21.487768	154.133588
12244		-3.620247	0.213315	9.179529	-0.004813	0.012264	-0.005368	-0.583984	-0.169434	-0.506348	1.215834	21.491559	154.133781
12245		-3.591146	0.167451	9.178957	-0.000210	0.012426	-0.004935	-0.580811	-0.169678	-0.506592	1.217391	21.495577	154.134501
12246		-3.580274	0.188305	9.182118	-0.000541	0.009715	-0.002484	-0.589111	-0.172363	-0.510742	1.219371	21.498282	154.137354
12247		-3.569313	0.209203	9.185315	0.000698	0.010450	-0.004865	-0.586914	-0.173340	-0.506104	1.221454	21.501167	154.138092
12248		-3.594543	0.219041	9.207342	-0.001778	0.008980	-0.000103	-0.590820	-0.176025	-0.499756	1.223436	21.503067	154.141008
12249		-3.568299	0.263006	9.190068	-0.002996	0.008311	-0.005228	-0.596191	-0.170166	-0.506348	1.223311	21.504732	154.141495
12250		-3.593060	0.220529	9.182573	-0.001888	0.012715	-0.006344	-0.591553	-0.173096	-0.507568	1.223691	21.508332	154.140203
12251		-3.564409	0.226661	9.211556	-0.002828	0.009668	-0.006455	-0.587402	-0.171631	-0.500977	1.223392	21.510788	154.139952
12252		-3.597577	0.165363	9.176477	-0.003161	0.006955	-0.004003	-0.585938	-0.171143	-0.515137	1.223562	21.511368	154.140564
12253		-3.595664	0.219230	9.181585	-0.002219	0.010004	-0.003893	-0.585938	-0.171631	-0.512695	1.224192	21.513985	154.141895
12254		-3.584127	0.187896	9.155300	-0.002218	0.010004	-0.003893	-0.584229	-0.172119	-0.508545	1.225109	21.516783	154.142840
12255		-3.618461	0.230744	9.179195	-0.000847	0.007070	-0.007539	-0.583008	-0.169434	-0.503174	1.225688	21.517765	154.141887
12256		-3.594838	0.220418	9.156560	-0.000680	0.008428	-0.008766	-0.598145	-0.171875	-0.495850	1.226199	21.519682	154.140502
12257		-3.592214	0.222268	9.132223	-0.003326	0.005599	-0.002778	-0.590576	-0.170166	-0.505859	1.226427	21.519763	154.142461
12258		-3.587520	0.238263	9.183744	-0.005912	0.007864	-0.004258	-0.588379	-0.167236	-0.504395	1.224760	21.520424	154.142848
12259		-3.578957	0.204527	9.181668	-0.001012	0.005715	-0.006313	-0.585938	-0.169922	-0.507813	1.225515	21.520614	154.142632
12260		-3.597281	0.218432	9.155648	-0.005612	0.005552	-0.006750	-0.592773	-0.166016	-0.505615	1.223479	21.520617	154.142570
12261		-3.604331	0.213315	9.203649	-0.002859	0.004645	-0.006496	-0.586426	-0.178467	-0.504150	1.223130	21.520197	154.142228
12262		-3.577214	0.205072	9.157017	-0.003764	0.006623	-0.006568	-0.584717	-0.178223	-0.498779	1.222377	21.520610	154.141231
12263		-3.589550	0.183519	9.153264	-0.003025	0.003288	-0.005270	-0.595947	-0.166260	-0.504883	1.222202	21.519397	154.141626
12264		-3.584588	0.199704	9.204898	-0.000105	0.003738	-0.006242	-0.589355	-0.174072	-0.510498	1.223536	21.518031	154.140838
12265		-3.593552	0.180658	9.177083	-0.001178	0.004359	-0.005088	-0.589111	-0.168945	-0.508545	1.224466	21.517429	154.141358
12266		-3.612325	0.246829	9.180641	-0.001345	0.003002	-0.003862	-0.588379	-0.172119	-0.503174	1.225743	21.515878	154.142023
12267		-3.582343	0.200948	9.180426	-0.004704	0.003575	-0.006679	-0.584717	-0.170898	-0.503174	1.224290	21.514847	154.141553
12268		-3.615651	0.191725	9.174965	0.000503	0.004073	-0.003679	-0.591064	-0.168457	-0.504395	1.226570	21.513948	154.142899
12269		-3.592292	0.233632	9.181997	-0.000103	0.003739	-0.006243	-0.593018	-0.174561	-0.497803	1.227853	21.513005	154.142701
12270		-3.568150	0.223316	9.159572	-0.002724	0.000977	-0.007762	-0.594971	-0.172363	-0.507568	1.227249	21.509943	154.140983
12271		-3.586868	0.197266	9.204062	-0.002856	0.004647	-0.006497	-0.588867	-0.176514	-0.501221	1.226901	21.509523	154.140639
12272		-3.608352	0.209085	9.202171	-0.000103	0.003740	-0.006243	-0.594238	-0.173584	-0.503418	1.228405	21.508122	154.139113
12273		-3.584271	0.198790	9.179720	-0.004264	0.002552	-0.002891	-0.583496	-0.170898	-0.500977	1.228054	21.506457	154.140962
12274		-3.602312	0.212774	9.153803	-0.001949	0.002669	-0.006426	-0.582275	-0.161865	-0.505371	1.228302	21.504616	154.140265
12275		-3.551964	0.206758	9.184828	-0.001613	0.005385	-0.008879	-0.592285	-0.172363	-0.505615	1.228132	21.504647	154.138464
12276		-3.603011	0.211692	9.153553	-0.006716	0.001147	-0.005638	-0.580322	-0.169678	-0.499268	1.225586	21.502121	154.139458
12277		-3.594633	0.229818	9.181177	-0.004264	0.002552	-0.002891	-0.584473	-0.170898	-0.502441	1.225235	21.500456	154.141307
12278		-3.582225	0.198260	9.155207	-0.004567	-0.000093	-0.007947	-0.584961	-0.167480	-0.503174	1.223551	21.497487	154.140855
12279		-3.594844	0.228572	9.181126	-0.003794	0.001599	-0.006609	-0.582520	-0.172852	-0.503418	1.222626	21.495322	154.140402
12280		-3.603503	0.209263	9.153415	-0.001646	0.000359	-0.008918	-0.588867	-0.176270	-0.504395	1.222431	21.492589	154.139118
12281		-3.564709	0.182230	9.180961	-0.002115	0.001312	-0.005200	-0.588623	-0.175293	-0.503174	1.222784	21.490243	154.139529
12282		-3.549802	0.205011	9.160394	-0.004700	0.003578	-0.006682	-0.588867	-0.172607	-0.503662	1.221669	21.488980	154.137784
12283		-3.574339	0.214261	9.182692	-0.003491	-0.000711	-0.009102	-0.595459	-0.173340	-0.497070	1.220344	21.485522	154.135766
12284		-3.607332	0.204769	9.177340	-0.003793	0.001600	-0.006610	-0.593750	-0.171143	-0.513428	1.219474	21.482801	154.134475
12285		-3.583164	0.194268	9.154925	-0.003625	0.002959	-0.007837	-0.587158	-0.167236	-0.503906	1.218376	21.481430	154.133284
12286		-3.562319	0.181477	9.156584	-0.004866	0.002220	-0.005456	-0.584473	-0.173828	-0.499756	1.217107	21.479387	154.133448
12287		-3.575236	0.212042	9.182395	0.000672	0.005435	-0.004906	-0.585205	-0.173828	-0.504395	1.219143	21.479398	154.134094
12288		-3.611889	0.200642	9.200971	-0.000703	0.003412	-0.008808	-0.590576	-0.167236	-0.505127	1.219723	21.478327	154.132050
12289		-3.576028	0.211460	9.182100	-0.001174	0.004364	-0.005089	-0.587891	-0.176758	-0.498047	1.220656	21.477726	154.132569
12290		-3.573117	0.213324	9.157874	-0.004094	0.003911	-0.004119	-0.593262	-0.167969	-0.506348	1.220178	21.476552	154.133380
12291		-3.564900	0.231637	9.185453	-0.001945	0.002673	-0.006428	-0.588623	-0.172852	-0.507324	1.220359	21.475000	154.133053
12292		-3.577130	0.210225	9.181699	-0.001005	0.005723	-0.006316	-0.589844	-0.164795	-0.505859	1.221158	21.474899	154.132488
12293		-3.610527	0.200809	9.176172	-0.005771	0.004199	-0.005530	-0.586914	-0.168701	-0.510254	1.219357	21.474209	154.132734
12294		-3.578030	0.209165	9.181373	-0.002247	0.004984	-0.003936	-0.588867	-0.176758	-0.498779	1.219798	21.473875	154.134728
12295		-3.575177	0.211018	9.157124	-0.002850	0.004652	-0.006500	-0.584717	-0.165527	-0.506592	1.219454	21.473457	154.134382
12296		-3.590875	0.187169	9.177383	-0.002512	0.007371	-0.008954	-0.595215	-0.174316	-0.499023	1.218810	21.474533	154.132690
12297		-3.591469	0.186617	9.177162	-0.003924	0.005271	-0.005347	-0.585449	-0.169922	-0.505371	1.218113	21.474456	154.133062
12298		-3.580163	0.207235	9.180585	-0.001003	0.005725	-0.006317	-0.587891	-0.168701	-0.505859	1.218934	21.474286	154.132356
12299		-3.601776	0.219270	9.178636	0.002352	0.005151	-0.003496	-0.587402	-0.169678	-0.497803	1.222250	21.474117	154.133866
12300		-3.581133	0.206919	9.180214	-0.002848	0.004653	-0.006502	-0.591797	-0.173584	-0.502686	1.221800	21.473524	154.134058
12301		-3.584886	0.204147	9.204134	-0.002847	0.004653	-0.006502	-0.583740	-0.167725	-0.500244	1.221457	21.473107	154.133712
12302		-3.603287	0.218093	9.178071	-0.002983	0.008323	-0.005236	-0.589600	-0.167236	-0.502197	1.221319	21.474583	154.134382
12303		-3.571050	0.226585	9.183189	-0.002076	0.006345	-0.005164	-0.587402	-0.171387	-0.504639	1.221727	21.475119	154.134881
12304		-3.562351	0.193010	9.181104	-0.002076	0.006345	-0.005164	-0.585449	-0.167480	-0.498291	1.222064	21.475454	154.135717
12305		-3.568981	0.228277	9.158638	0.000371	0.007750	-0.002414	-0.593018	-0.169189	-0.508301	1.224501	21.476760	154.137928
12306		-3.551962	0.213715	9.184183	-0.000060	0.008778	-0.006206	-0.588623	-0.165527	-0.501465	1.225698	21.478443	154.138305
12307		-3.573943	0.225572	9.182089	-0.002210	0.010016	-0.003899	-0.592285	-0.163330	-0.507568	1.226332	21.481066	154.139632
12308		-3.596068	0.237296	9.179938	-0.001396	0.011787	-0.010072	-0.582764	-0.169922	-0.503906	1.225670	21.484455	154.138414
12309		-3.608914	0.215936	9.175911	0.000712	0.010471	-0.004868	-0.582275	-0.171387	-0.500732	1.227761	21.487350	154.139150
12310		-3.588699	0.203630	9.177332	-0.000057	0.008780	-0.006207	-0.594238	-0.168701	-0.503662	1.229162	21.489498	154.139730
12311		-3.610564	0.215551	9.175270	-0.000227	0.007420	-0.004981	-0.588867	-0.170654	-0.504395	1.230676	21.490646	154.140356
12312		-3.574983	0.226589	9.156339	0.000849	0.006802	-0.006135	-0.592773	-0.174561	-0.500977	1.232477	21.491023	154.140127
12313		-3.566322	0.193150	9.154233	-0.000826	0.007090	-0.007547	-0.589844	-0.165771	-0.505371	1.233067	21.492014	154.139170
12314		-3.567116	0.192807	9.153931	-0.002207	0.010018	-0.003901	-0.587158	-0.168945	-0.505371	1.233651	21.494203	154.140311
12315		-3.592578	0.202415	9.175841	0.000885	0.011835	-0.006097	-0.590088	-0.169922	-0.508057	1.235572	21.497893	154.140309
12316		-3.593437	0.202232	9.175509	-0.001471	0.006679	-0.002601	-0.596191	-0.180664	-0.505371	1.236909	21.498441	154.142536
12317		-3.573118	0.189934	9.176983	0.000716	0.010475	-0.004870	-0.585693	-0.170166	-0.503418	1.239003	21.501337	154.143271
12318		-3.574849	0.241726	9.206220	-0.001300	0.008041	-0.003829	-0.583008	-0.169922	-0.511719	1.240480	21.502441	154.143137
12319		-3.605220	0.234802	9.176412	-0.001128	0.009402	-0.005056	-0.590576	-0.178711	-0.503662	1.241471	21.504724	154.143743
12320		-3.588213	0.220176	9.201982	0.000854	0.006805	-0.006136	-0.587158	-0.170166	-0.500732	1.243694	21.505542	154.142783
12321		-3.564327	0.210064	9.179476	-0.003315	0.005606	-0.002788	-0.585938	-0.164551	-0.507080	1.243926	21.505624	154.144736
12322		-3.586113	0.221873	9.177433	-0.000051	0.008785	-0.006210	-0.582275	-0.168213	-0.499268	1.245085	21.507492	154.145657
12323		-3.577590	0.188381	9.175273	-0.000648	0.008454	-0.008777	-0.584229	-0.167725	-0.503662	1.245507	21.509280	154.143961
12324		-3.592672	0.204804	9.125073	-0.000392	0.006063	-0.003756	-0.587646	-0.168945	-0.507568	1.247035	21.509741	154.146674
12325		-3.612600	0.230917	9.198945	0.000087	0.005114	-0.007476	-0.588867	-0.173584	-0.498291	1.248154	21.509599	154.145734
12326		-3.588457	0.220881	9.176541	0.000822	0.001774	-0.006174	-0.587646	-0.159424	-0.504150	1.250005	21.507288	154.145451
12327		-3.597937	0.253733	9.178344	-0.002698	0.000987	-0.007774	-0.589355	-0.170166	-0.502197	1.249441	21.504785	154.144272
12328		-3.598139	0.253162	9.178281	-0.003603	0.002966	-0.007848	-0.595215	-0.170410	-0.502441	1.247961	21.503170	154.144560
12329		-3.610018	0.231344	9.174613	-0.006387	-0.001161	-0.008146	-0.587891	-0.175537	-0.499756	1.245189	21.499441	154.143123
12330		-3.616615	0.226055	9.222825	-0.001311	-0.001939	-0.011420	-0.590088	-0.172607	-0.512207	1.244663	21.494781	154.138847
12331		-3.597901	0.251151	9.178430	-0.003807	-0.003427	-0.006659	-0.587891	-0.171387	-0.507080	1.243694	21.489736	154.138296
12332		-3.561475	0.261400	9.159894	-0.010330	-0.000916	-0.013540	-0.587158	-0.172607	-0.496338	1.237680	21.486121	154.132932
12333		-3.624526	0.204384	9.195367	-0.007578	-0.001820	-0.013281	-0.588867	-0.173340	-0.502441	1.233065	21.482078	154.128326
12334		-3.587998	0.214435	9.176873	-0.008515	-0.004873	-0.013394	-0.586914	-0.168945	-0.505615	1.227963	21.476013	154.123292
12335		-3.608645	0.225288	9.175304	-0.008685	-0.006234	-0.012167	-0.578125	-0.176025	-0.498047	1.222945	21.469427	154.119314
12336		-3.589318	0.157826	9.171820	-0.005933	-0.007137	-0.011908	-0.584717	-0.166992	-0.501953	1.219735	21.462549	154.115815
12337		-3.618973	0.202023	9.172265	-0.007636	-0.011881	-0.013362	-0.587402	-0.167969	-0.504395	1.215024	21.452743	154.111031
12338		-3.569891	0.233454	9.157730	-0.006018	-0.012255	-0.004433	-0.594482	-0.171875	-0.505615	1.213087	21.442621	154.112879
12339		-3.566146	0.194907	9.204426	-0.004117	-0.011091	-0.011763	-0.588623	-0.170898	-0.499756	1.210757	21.433247	154.109090
12340		-3.592102	0.241535	9.180958	-0.008143	-0.015964	-0.009682	-0.585693	-0.163818	-0.498291	1.206607	21.420648	154.106083
12341		-3.602498	0.219457	9.177861	-0.005050	-0.014142	-0.011878	-0.587158	-0.166992	-0.504883	1.203704	21.409527	154.102186
12342		-3.580853	0.258393	9.209843	-0.006154	-0.018556	-0.010766	-0.583496	-0.172607	-0.503174	1.200080	21.395855	154.100642
12343		-3.599345	0.217407	9.179147	-0.008420	-0.018594	-0.014748	-0.586670	-0.168457	-0.505127	1.194584	21.382218	154.094925
12344		-3.485281	0.160546	9.140456	-0.005071	-0.019168	-0.011923	-0.583984	-0.165527	-0.500244	1.191750	21.368412	154.091402
12345		-3.484474	0.119611	9.211314	-0.005837	-0.010887	-0.005664	-0.591797	-0.177490	-0.511963	1.189809	21.359081	154.091374
12346		-3.559224	0.225739	9.162075	-0.011764	-0.008046	-0.009975	-0.582275	-0.172119	-0.502197	1.183715	21.351482	154.088580
12347		-3.561965	0.222389	9.186398	-0.002239	-0.004977	-0.011541	-0.592285	-0.164063	-0.501709	1.182547	21.345606	154.085013
12348		-3.537023	0.211938	9.164268	-0.004081	-0.006051	-0.011727	-0.585205	-0.170898	-0.499756	1.180165	21.339122	154.082287
12349		-3.582030	0.232932	9.185115	-0.006572	-0.007546	-0.006964	-0.591064	-0.177734	-0.499756	1.177528	21.331721	154.081503
12350		-3.568667	0.201261	9.159394	-0.005325	-0.006797	-0.009346	-0.593506	-0.172607	-0.507568	1.175333	21.324671	154.078615
12351		-3.559495	0.219158	9.187433	-0.006257	-0.009849	-0.009462	-0.583496	-0.166260	-0.508057	1.172308	21.315980	154.076267
12352		-3.589262	0.263532	9.187954	-0.005492	-0.008159	-0.008121	-0.592529	-0.174072	-0.502686	1.170135	21.308342	154.075047
12353		-3.658000	0.359756	9.336690	-0.018054	-0.002992	-0.004271	-0.582275	-0.167969	-0.507568	1.161543	21.303518	154.075979
12354		-3.591892	0.257125	9.212408	-0.038404	-0.001085	-0.004963	-0.594971	-0.168945	-0.498535	1.141326	21.299925	154.076598
12355		-3.630384	0.279679	9.185203	-0.041785	-0.010560	-0.007883	-0.585938	-0.178467	-0.506592	1.118298	21.290807	154.075220
12356		-3.534919	0.193974	9.190773	-0.044085	-0.020647	-0.011964	-0.590820	-0.169434	-0.506348	1.093311	21.275790	154.070256
12357		-3.610587	0.150392	9.177113	-0.040507	-0.019753	-0.017888	-0.587402	-0.167969	-0.507568	1.068750	21.261513	154.062630
12358		-3.461978	0.363097	9.244256	-0.051340	-0.019793	-0.020197	-0.597656	-0.161377	-0.500732	1.037601	21.247331	154.053800
12359		-3.521352	0.197553	9.220824	-0.056912	-0.014204	-0.026963	-0.591797	-0.166992	-0.501953	1.001652	21.236318	154.040675
12360		-3.483204	0.150764	9.172820	-0.061291	-0.007966	-0.028590	-0.597900	-0.164551	-0.498047	0.962553	21.228426	154.027486
12361		-3.521228	0.079239	9.185962	-0.045073	-0.001028	-0.024450	-0.589844	-0.175537	-0.504883	0.934003	21.224922	154.016055
12362		-3.501864	0.008252	9.182021	-0.038508	-0.008468	-0.025154	-0.591064	-0.166748	-0.502930	0.909198	21.216800	154.003367
12363		-3.571518	0.035140	9.225362	-0.038207	-0.000818	-0.020029	-0.596924	-0.168945	-0.501221	0.885570	21.213367	153.994659
12364		-3.592049	0.241192	9.219374	-0.042093	-0.004440	-0.011669	-0.598633	-0.170166	-0.493652	0.861624	21.207459	153.990740
12365		-3.518425	0.167251	9.222540	-0.050013	-0.009039	-0.015008	-0.596924	-0.173584	-0.508301	0.832323	21.199266	153.985047
12366		-3.499549	0.188123	9.178513	-0.050744	-0.005686	-0.016303	-0.589111	-0.165283	-0.512207	0.802646	21.192372	153.976713
12367		-3.653598	0.285798	9.391498	-0.070689	-0.001016	-0.019458	-0.592041	-0.166260	-0.502686	0.760540	21.188805	153.968363
12368		-3.705923	0.268983	9.284826	-0.097636	-0.007934	-0.025963	-0.597656	-0.161865	-0.501465	0.701719	21.181463	153.956052
12369		-3.506768	0.103502	9.221647	-0.113298	-0.010825	-0.026313	-0.592285	-0.164307	-0.510742	0.633659	21.172305	153.943428
12370		-3.522475	0.055360	9.166399	-0.107918	-0.013965	-0.024610	-0.587646	-0.164795	-0.491211	0.569085	21.161120	153.931852
12371		-3.469447	-0.012315	9.167730	-0.101722	-0.010265	-0.029004	-0.595459	-0.160889	-0.504883	0.507075	21.152272	153.917603
12372		-3.460228	-0.003637	9.195949	-0.092270	-0.007316	-0.023036	-0.596436	-0.163818	-0.503662	0.451791	21.144956	153.907502
12373		-3.479982	-0.051926	9.164215	-0.082826	0.000647	-0.016984	-0.586670	-0.168457	-0.494629	0.403298	21.142283	153.900706
12374		-3.524867	0.066863	9.221710	-0.084774	0.003258	-0.015903	-0.592285	-0.159912	-0.500488	0.354257	21.141039	153.893810
12375		-3.475157	-0.011326	9.146201	-0.078354	0.004506	-0.015265	-0.595703	-0.167725	-0.501953	0.308715	21.140560	153.888088
12376		-3.490613	-0.042212	9.166075	-0.068357	0.007723	-0.006698	-0.596924	-0.161621	-0.505127	0.271071	21.141718	153.886798
12377		-3.504137	-0.017984	9.192268	-0.059808	0.007745	-0.008367	-0.586914	-0.155029	-0.505615	0.237687	21.143070	153.885324
12378		-3.438081	-0.056389	9.172423	-0.048758	0.010338	-0.000946	-0.590088	-0.161865	-0.503662	0.212362	21.145997	153.888779
12379		-3.542324	-0.039324	9.210001	-0.046329	0.016738	0.001911	-0.593018	-0.163818	-0.498535	0.188986	21.152480	153.893637
12380		-3.587627	0.031998	9.236850	-0.044816	0.020092	0.004626	-0.595947	-0.155029	-0.505859	0.167422	21.160889	153.899392
12381		-3.480848	-0.134474	9.182638	-0.039675	0.015523	0.007570	-0.590088	-0.153809	-0.500244	0.149111	21.166670	153.907719
12382		-3.467558	-0.113335	9.161964	-0.026168	0.019632	0.010258	-0.589111	-0.161865	-0.495850	0.138980	21.174732	153.918634
12383		-3.474924	-0.171474	9.178681	-0.010422	0.023726	0.016943	-0.587891	-0.159668	-0.504639	0.139517	21.185202	153.932731
12384		-3.477300	-0.170929	9.177792	0.008704	0.027373	0.018943	-0.597412	-0.165283	-0.503418	0.151739	21.197937	153.947860
12385		-3.498283	0.002386	9.218889	0.009894	0.033002	0.024180	-0.595459	-0.158936	-0.501221	0.165539	21.213706	153.966427
12386		-3.470467	0.023439	9.323275	0.015554	0.042608	0.023660	-0.599121	-0.154297	-0.501465	0.182796	21.234540	153.983077
12387		-3.389054	-0.051587	9.473404	0.002544	0.057560	0.025093	-0.593018	-0.157227	-0.496582	0.192625	21.264370	154.002269
12388		-3.074564	-0.057933	9.613624	0.008259	0.112128	0.040383	-0.590820	-0.156006	-0.504150	0.208995	21.324871	154.031151
12389		-2.099220	-0.351404	9.912399	0.016930	0.209955	0.050333	-0.588623	-0.158203	-0.503174	0.232916	21.441949	154.066272
12390		-1.280053	-0.801962	10.124928	0.070016	0.390686	0.116115	-0.587646	-0.160889	-0.503418	0.302501	21.662236	154.142701
12391		-0.099468	-0.629742	10.569961	0.142886	0.705919	0.200014	-0.586426	-0.160889	-0.506348	0.434169	22.062839	154.272635
12392		0.335706	-2.063534	11.264987	0.304661	1.173727	0.302597	-0.570313	-0.160889	-0.510254	0.685831	22.729864	154.469755
12393		0.918247	-1.781706	14.774285	0.614321	1.835716	0.160945	-0.551025	-0.160645	-0.510742	1.087297	23.776953	154.591483
12394		-1.892230	-2.337924	12.870600	0.696404	2.268341	0.304196	-0.546387	-0.166748	-0.529053	1.581921	25.068765	154.820553
12395		-2.008229	-1.594023	13.969983	0.715218	2.385363	0.435787	-0.521973	-0.181152	-0.530273	2.136484	26.423457	155.150508
12396		2.277116	-2.079392	16.772864	0.584748	2.073138	0.414839	-0.506836	-0.175049	-0.541260	2.620970	27.595996	155.474349
12397		2.720129	-4.257476	17.420431	0.384958	1.472319	0.175617	-0.489014	-0.177246	-0.549316	2.919849	28.430470	155.638064
12398		1.726690	-2.969749	17.441547	0.227040	0.838947	-0.114268	-0.482422	-0.180176	-0.545654	3.030665	28.909720	155.595410
12399		4.687582	-2.757712	16.004900	0.096239	0.065189	-0.341502	-0.484131	-0.182129	-0.545654	2.982091	28.954014	155.378095
12400		7.039140	-1.959344	12.864333	0.123888	-0.408218	-0.502931	-0.487061	-0.174561	-0.549072	2.890775	28.730894	155.039514
12401		8.008687	0.496228	11.152435	0.114618	-0.577379	-0.535450	-0.479004	-0.184570	-0.544678	2.783850	28.412413	154.675670
12402		7.269438	1.939210	11.146863	-0.075090	-0.687336	-0.414286	-0.495117	-0.179932	-0.550537	2.605970	28.026644	154.391289
12403		6.061582	1.676598	11.449321	-0.240883	-0.855470	-0.212646	-0.505127	-0.186279	-0.540771	2.395695	27.539040	154.233235
12404		5.177056	1.198442	11.641720	-0.288094	-1.088863	0.006428	-0.507080	-0.176758	-0.545166	2.222314	26.910957	154.213317
12405		4.260478	0.960650	11.595090	-0.291744	-1.299691	0.176782	-0.509766	-0.177979	-0.542969	2.094752	26.159783	154.298782
12406		3.149314	0.461285	11.469197	-0.305673	-1.474340	0.277640	-0.521973	-0.178955	-0.534180	1.984533	25.306151	154.447006
12407		2.021079	0.047734	11.321550	-0.317585	-1.611125	0.317629	-0.527100	-0.175781	-0.529541	1.875320	24.374233	154.616819
12408		0.795445	-0.262464	11.147292	-0.357999	-1.719789	0.301497	-0.539063	-0.168213	-0.522705	1.735885	23.379590	154.775840
12409		-0.266710	-0.533111	10.797043	-0.428347	-1.792953	0.242789	-0.544922	-0.165283	-0.518555	1.539522	22.345559	154.898488
12410		-1.270205	-0.709603	10.380994	-0.538455	-1.822085	0.158093	-0.556885	-0.154541	-0.512939	1.259410	21.294364	154.972597
12411		-2.457678	-1.007580	10.240224	-0.655117	-1.806494	0.048566	-0.569580	-0.150391	-0.516846	0.889923	20.255824	154.985178
12412		-3.740613	-1.713796	10.111352	-0.726812	-1.805181	-0.069961	-0.591553	-0.152100	-0.515381	0.456904	19.216162	154.933221
12413		-4.669824	-2.161534	9.939946	-0.701507	-1.819545	-0.187777	-0.599121	-0.145264	-0.508057	0.019653	18.170989	154.818657
12414		-5.053593	-2.301905	9.462431	-0.641536	-1.796653	-0.310519	-0.621582	-0.143555	-0.501221	-0.401456	17.135120	154.639053
12415		-5.352346	-2.165791	9.214143	-0.600504	-1.711750	-0.424138	-0.624756	-0.138916	-0.495117	-0.812615	16.148781	154.399875
12416		-6.546635	-1.782882	9.492228	-0.613741	-1.615591	-0.524671	-0.638916	-0.142090	-0.491699	-1.242151	15.212126	154.108445
12417		-8.423825	-1.230126	10.145746	-0.688045	-1.627098	-0.598247	-0.656738	-0.133057	-0.483643	-1.717867	14.268319	153.782641
12418		-9.599150	-0.694360	10.047711	-0.786987	-1.775162	-0.638479	-0.680420	-0.130859	-0.477539	-2.247935	13.233646	153.446030
12419		-9.501389	-0.922156	8.893282	-0.824283	-1.898063	-0.682953	-0.687500	-0.120117	-0.465576	-2.795213	12.127030	153.098015
12420		-8.945878	-0.898130	7.369256	-0.721269	-1.893915	-0.671116	-0.704346	-0.117188	-0.453613	-3.273748	11.017835	152.768291
12421		-9.076465	0.272253	6.348309	-0.619661	-1.765107	-0.629006	-0.721924	-0.124512	-0.452637	-3.682025	9.983618	152.468489
12422		-10.027383	1.661090	5.850315	-0.638176	-1.619950	-0.574325	-0.736816	-0.119141	-0.433838	-4.090624	9.030367	152.203018
12423		-11.253463	2.186925	5.476410	-0.727384	-1.541572	-0.476581	-0.748535	-0.118408	-0.426270	-4.536484	8.126244	151.998515
12424		-11.427782	2.005676	4.119628	-0.730116	-1.503884	-0.321370	-0.757568	-0.105957	-0.420410	-4.968465	7.247749	151.889060
12425		-10.589959	1.875129	2.834751	-0.623005	-1.374071	-0.100934	-0.779785	-0.102783	-0.405273	-5.322007	6.455673	151.905863
12426		-10.227801	2.501749	1.911944	-0.533509	-1.113960	0.126258	-0.778076	-0.095703	-0.406250	-5.611941	5.823076	152.043151
12427		-10.400492	3.170377	1.916922	-0.570877	-0.833101	0.345982	-0.774658	-0.082275	-0.402344	-5.913241	5.365320	152.293206
12428		-13.904409	-4.780486	-5.051725	0.183012	0.493398	0.261601	-0.775879	-0.091064	-0.404053	-5.795262	5.658059	152.417760
12429		-8.494166	4.588730	-13.738315	1.163404	2.068945	0.228847	-0.765625	-0.103516	-0.419189	-5.124896	6.847809	152.439310
12430		-1.813601	9.877888	8.083257	0.509470	2.941451	-0.446818	-0.749512	-0.101318	-0.434814	-4.885537	8.500958	152.037291
12431		-2.973511	5.352275	20.322061	0.041929	2.652352	-0.448852	-0.729980	-0.100586	-0.450684	-4.922362	9.990306	151.649789
12432		0.377626	0.524200	12.710996	0.332033	2.558511	0.564328	-0.707031	-0.095947	-0.459717	-4.692204	11.474743	151.856427
12433		-7.269908	3.427714	11.793993	0.452835	2.809658	1.016640	-0.697021	-0.097168	-0.480225	-4.331525	13.122579	152.324857
12434		-12.485094	-4.013589	14.302015	0.047597	2.562586	0.291239	-0.682373	-0.096924	-0.491455	-4.288002	14.595799	152.386385
12435		-9.747311	-6.481743	13.318156	0.398308	2.097656	0.115496	-0.656006	-0.100830	-0.503906	-4.063224	15.796453	152.367853
12436		-4.809050	1.888764	11.031524	0.450171	1.824750	0.078091	-0.649902	-0.100586	-0.515625	-3.810803	16.839359	152.343332
12437		-2.166907	3.210868	9.472731	0.229924	1.898456	0.043947	-0.635498	-0.105469	-0.520020	-3.690929	17.923542	152.298880
12438		-4.775410	0.544779	10.298772	0.130112	1.914672	0.122134	-0.620605	-0.106445	-0.526123	-3.613702	19.019593	152.302664
12439		-7.550251	-2.965766	10.430108	0.233259	1.740809	0.117379	-0.608643	-0.102783	-0.539551	-3.475426	20.016370	152.312273
12440		-11.592126	-5.772817	12.920290	0.717959	1.432136	0.161388	-0.590576	-0.111816	-0.543701	-3.044252	20.837705	152.364846
12441		-9.628354	1.050999	11.807237	0.688108	0.503451	0.198698	-0.589111	-0.119385	-0.541748	-2.609061	21.128497	152.475208
12442		-3.062552	1.617952	9.854408	0.717052	0.413299	0.141886	-0.588379	-0.119873	-0.552979	-2.167696	21.365465	152.555561
12443		-5.833922	0.782382	10.955006	0.497931	0.230028	0.091233	-0.593506	-0.116211	-0.550049	-1.860920	21.496040	152.610486
12444		-3.849459	0.327008	9.660192	0.421251	0.128033	0.057052	-0.585449	-0.121826	-0.554688	-1.604701	21.567308	152.647014
12445		-4.047886	0.005631	9.576384	0.367516	0.082234	0.042799	-0.586914	-0.129883	-0.552490	-1.382120	21.612038	152.675812
12446		-3.623124	-0.220308	9.351549	0.337521	0.047876	0.039386	-0.580566	-0.136230	-0.555420	-1.177177	21.636899	152.703193
12447		-3.481474	0.025873	9.300986	0.316568	0.052981	0.041871	-0.589111	-0.133545	-0.556152	-0.983711	21.664667	152.732118
12448		-3.772189	0.369938	9.447817	0.286953	0.034110	0.034055	-0.577637	-0.138184	-0.560547	-0.808812	21.681418	152.756535
12449		-3.576885	0.179328	9.322407	0.268023	0.026682	0.027761	-0.583740	-0.142090	-0.560303	-0.646211	21.693851	152.777157
12450		-3.667816	0.034412	9.286620	0.259526	0.017860	0.025175	-0.590332	-0.143066	-0.557373	-0.488950	21.701110	152.796311
12451		-3.796307	-0.030247	9.231367	0.269317	0.003362	0.035904	-0.590576	-0.138428	-0.555420	-0.323681	21.700107	152.822133
12452		-3.769563	-0.171866	9.165645	0.279733	-0.018164	0.036462	-0.584717	-0.147217	-0.556641	-0.152218	21.686652	152.848383
12453		-3.666115	-0.112044	9.160832	0.289791	-0.031178	0.045960	-0.592285	-0.147217	-0.554199	0.027066	21.665722	152.880417
12454		-3.552363	-0.138006	9.147507	0.303528	-0.036910	0.055931	-0.581055	-0.153564	-0.564697	0.216525	21.641352	152.918545
12455		-3.425404	-0.020189	9.226548	0.301225	-0.024409	0.061869	-0.586426	-0.161377	-0.558594	0.405903	21.624057	152.960250
12456		-3.502316	0.234055	9.289604	0.283385	-0.014838	0.059827	-0.592529	-0.154785	-0.564697	0.584655	21.612079	153.000715
12457		-3.293938	-0.033591	9.239098	0.256877	-0.010498	0.059403	-0.585449	-0.152100	-0.555176	0.748038	21.602530	153.040876
12458		-3.557922	0.125326	9.263867	0.237934	0.012241	0.063746	-0.582520	-0.153320	-0.562744	0.901689	21.605808	153.083918
12459		-3.686865	0.231775	9.327121	0.206118	0.015936	0.060345	-0.590820	-0.159912	-0.559082	1.036285	21.611196	153.124881
12460		-3.676605	0.113234	9.289353	0.189637	0.014916	0.059792	-0.581543	-0.157471	-0.558838	1.161393	21.615857	153.165537
12461		-3.764093	0.339438	9.320486	0.174758	0.023689	0.060734	-0.590576	-0.159180	-0.562256	1.278165	21.625515	153.206870
12462		-3.707602	0.571577	9.347954	0.139050	0.023806	0.050724	-0.582031	-0.164795	-0.561523	1.372296	21.635240	153.242091
12463		-3.595135	0.600018	9.389118	0.108223	0.050847	0.032484	-0.577393	-0.162354	-0.561035	1.444711	21.660725	153.266468
12464		-3.597549	0.597669	9.286560	0.087494	0.067496	0.021551	-0.580322	-0.167236	-0.553711	1.502971	21.695818	153.284445
12465		-3.590100	0.428796	9.294183	0.069888	0.082216	0.014710	-0.581787	-0.162354	-0.562012	1.549610	21.739494	153.298448
12466		-3.517906	0.156727	9.203191	0.061494	0.093606	0.015096	-0.581543	-0.159424	-0.563232	1.591724	21.789611	153.312963
12467		-3.577313	0.167834	9.167592	0.074649	0.104011	0.029007	-0.576416	-0.168701	-0.562500	1.644564	21.845517	153.336252
12468		-3.601848	0.312127	9.223282	0.054836	0.104781	0.024422	-0.581787	-0.159912	-0.564697	1.685141	21.901853	153.356822
12469		-3.617225	0.407115	9.201450	0.044600	0.117600	0.027104	-0.580566	-0.167236	-0.568848	1.720503	21.965542	153.379293
12470		-3.751165	0.552718	9.240033	0.028490	0.123109	0.022871	-0.579102	-0.164063	-0.565674	1.745833	22.032375	153.399339
12471		-3.704345	0.769959	9.263180	-0.003077	0.137021	0.009440	-0.586426	-0.162354	-0.565918	1.749992	22.107478	153.411336
12472		-3.625217	0.594929	9.331516	-0.034297	0.161225	-0.009076	-0.579102	-0.160889	-0.568359	1.732244	22.196693	153.412383
12473		-3.644666	0.412796	9.234746	-0.047056	0.182642	-0.009305	-0.581055	-0.161133	-0.568359	1.707160	22.298252	153.413604
12474		-3.770786	0.357380	9.206159	-0.052229	0.188397	-0.011244	-0.572998	-0.159668	-0.570557	1.678798	22.403061	153.413730
12475		-3.796127	0.118212	9.127225	-0.046224	0.186999	-0.000609	-0.573730	-0.163086	-0.567871	1.656245	22.506971	153.420320
12476		-3.831862	0.165947	9.047397	-0.030087	0.167651	0.004896	-0.580322	-0.160400	-0.562500	1.644233	22.599633	153.430000
12477		-3.857521	0.142807	9.037509	-0.018596	0.151858	0.016237	-0.577637	-0.159668	-0.564453	1.641297	22.683143	153.446378
12478		-3.835814	0.260478	9.048469	-0.012567	0.139081	0.020680	-0.568115	-0.161133	-0.570068	1.642933	22.759186	153.465346
12479		-3.839059	0.242329	9.117684	-0.007182	0.136033	0.027545	-0.564697	-0.165039	-0.574707	1.649200	22.833446	153.488491
12480		-3.972183	0.354525	9.002722	-0.004729	0.121086	0.026584	-0.564209	-0.161133	-0.575928	1.656685	22.899083	153.510841
12481		-3.881947	0.400851	9.069323	-0.008886	0.109743	0.022354	-0.574707	-0.161377	-0.564453	1.660598	22.958368	153.530325
12482		-3.771455	0.165602	9.089487	-0.010735	0.102337	0.023419	-0.556885	-0.170898	-0.566895	1.663800	23.013320	153.550400
12483		-3.827560	0.187383	9.104256	-0.001421	0.105471	0.037043	-0.564697	-0.154541	-0.572998	1.675585	23.069909	153.578977
12484		-3.790274	0.167983	9.081612	0.009983	0.103451	0.037048	-0.560059	-0.157227	-0.573730	1.694042	23.125261	153.607598
12485		-3.814107	0.201684	9.102722	0.017823	0.109472	0.046697	-0.561768	-0.165039	-0.581787	1.719323	23.183960	153.642326
12486		-3.784621	0.234193	9.132928	0.023157	0.112707	0.052287	-0.561035	-0.152832	-0.570801	1.749221	23.244323	153.680694
12487		-3.832241	0.318480	9.104079	0.027116	0.123950	0.056387	-0.560303	-0.162842	-0.565186	1.782432	23.311108	153.721839
12488		-3.904825	0.466813	9.100982	0.023610	0.131966	0.055855	-0.551270	-0.160400	-0.570801	1.813746	23.382394	153.762921
12489		-3.871339	0.394695	9.072221	0.010707	0.136827	0.046680	-0.552734	-0.158691	-0.573975	1.835389	23.456692	153.798383
12490		-3.941159	0.328950	9.000312	0.023444	0.138142	0.049349	-0.559326	-0.165527	-0.576904	1.865186	23.531600	153.835646
12491		-3.930588	0.123029	9.005303	0.021855	0.134708	0.051657	-0.557373	-0.155762	-0.575439	1.894575	23.604559	153.874293
12492		-3.913071	0.189380	9.035887	0.030197	0.130982	0.063972	-0.556885	-0.168457	-0.572510	1.931983	23.675049	153.920678
12493		-3.927565	0.246872	9.059776	0.030146	0.124669	0.065235	-0.561035	-0.163818	-0.577881	1.969594	23.741952	153.967742
12494		-3.868838	0.236498	9.091353	0.040293	0.134555	0.070042	-0.547363	-0.159180	-0.574463	2.014511	23.814308	154.018156
12495		-3.720350	0.359509	9.201312	0.038429	0.154984	0.075792	-0.548096	-0.163086	-0.572998	2.059991	23.898288	154.072669
12496		-3.737751	0.472495	9.228529	0.039364	0.194644	0.074011	-0.550781	-0.162598	-0.572021	2.106158	24.004885	154.127132
12497		-3.743625	0.356545	9.237360	0.042456	0.231893	0.078753	-0.546875	-0.157471	-0.574951	2.155717	24.132756	154.185537
12498		-3.672269	0.245917	9.286130	0.044877	0.277600	0.084457	-0.540771	-0.166260	-0.581299	2.208900	24.286524	154.248856
12499		-3.667752	0.263275	9.282112	0.058252	0.328551	0.090030	-0.539795	-0.164551	-0.572266	2.271873	24.469379	154.317136
12500		-3.721109	0.284327	9.265731	0.060993	0.373425	0.106846	-0.534180	-0.159912	-0.580566	2.341752	24.677347	154.397529
12501		-3.704752	0.254601	9.308339	0.063539	0.429500	0.119459	-0.530273	-0.163086	-0.579102	2.417403	24.917140	154.487730
12502		-3.747097	0.265392	9.291074	0.068272	0.488152	0.130794	-0.534424	-0.172607	-0.579834	2.500175	25.189982	154.587289
12503		-3.788048	0.313624	9.350946	0.073967	0.556164	0.137972	-0.530518	-0.162109	-0.586182	2.589630	25.501568	154.693951
12504		-3.792208	0.410093	9.471756	0.078799	0.635833	0.124208	-0.519043	-0.157227	-0.585205	2.680098	25.858811	154.795090
12505		-3.729386	0.421866	9.524925	0.081464	0.743342	0.112665	-0.517334	-0.161865	-0.592773	2.771237	26.277904	154.893049
12506		-3.587599	0.493784	9.727750	0.082033	0.863821	0.108500	-0.503174	-0.152832	-0.593994	2.864504	26.765741	154.993326
12507		-3.523608	0.673548	9.972277	0.084916	1.012100	0.096409	-0.496826	-0.166260	-0.587158	2.959450	27.338807	155.091999
12508		-3.584239	0.661995	10.044562	0.074267	1.197357	0.061816	-0.489502	-0.157715	-0.595215	3.042612	28.018551	155.176217
12509		-3.383811	0.406473	10.143969	0.073488	1.398554	0.049937	-0.480469	-0.169434	-0.606934	3.126676	28.813884	155.261412
12510		-3.311148	0.426694	10.260292	0.071993	1.618448	0.054679	-0.463867	-0.166016	-0.604492	3.217558	29.734469	155.359868
12511		-3.361398	0.293311	10.281183	0.062407	1.855704	0.076653	-0.448975	-0.165771	-0.608154	3.317561	30.790189	155.484537
12512		-3.329828	0.317759	10.343318	0.071932	2.102228	0.106311	-0.435303	-0.161865	-0.614502	3.442681	31.985341	155.642793
12513		-3.386222	0.399540	10.411615	0.073030	2.361363	0.144204	-0.416992	-0.163818	-0.617920	3.594076	33.327380	155.843178
12514		-3.186320	0.509418	10.455634	0.086999	2.648670	0.206304	-0.385742	-0.171387	-0.617432	3.793544	34.830434	156.107560
12515		-2.980862	0.671994	10.554357	0.111961	2.992610	0.296183	-0.360596	-0.166748	-0.630615	4.067366	36.526087	156.464587
12516		-2.866361	0.763644	10.797852	0.162079	3.414303	0.391972	-0.335938	-0.162598	-0.626953	4.447391	38.456372	156.933929
12517		-2.815536	0.740183	11.067134	0.216199	3.908085	0.499355	-0.295898	-0.174316	-0.638184	4.962615	40.661182	157.546056
12518		-2.867255	-0.217450	10.457331	0.338503	4.556177	0.605682	-0.260498	-0.173096	-0.627930	5.689188	43.224121	158.340543
12519		-4.536173	-1.462168	10.745685	0.505233	5.239281	0.646416	-0.223877	-0.173340	-0.633545	6.667297	46.165349	159.317204
12520		-7.393551	-1.385249	12.120516	0.624256	5.723806	0.665838	-0.164551	-0.170654	-0.634766	7.904927	49.365743	160.503239
12521		-9.966890	-1.244120	12.406298	0.630330	5.892505	0.693196	-0.115967	-0.187012	-0.625488	9.383166	52.640496	161.938026
12522		-10.211209	0.510289	11.820837	0.539453	5.910945	0.732295	-0.079590	-0.188965	-0.614990	11.109007	55.894266	163.680907
12523		-11.638649	1.141659	12.527144	0.352805	5.751624	0.680713	-0.022461	-0.190186	-0.603516	12.993734	59.032326	165.674193
12524		-14.395423	2.818775	11.957120	-0.128504	5.386176	0.579459	0.019287	-0.200439	-0.587158	14.804921	61.943812	167.837870
12525		-13.200209	0.897909	12.709151	-0.600130	5.009147	0.524470	0.067627	-0.198975	-0.578369	16.585160	64.622167	170.213612
12526		-8.606143	-1.012913	11.011076	-0.808676	4.698271	0.623260	0.096191	-0.189941	-0.559570	18.706568	67.074667	173.044365
12527		-4.514221	-2.253774	8.917401	-0.736579	4.564809	0.836322	0.131592	-0.190430	-0.539551	21.676808	69.360992	176.695120
12528		-1.618799	-3.704755	6.336442	-0.424558	4.495769	1.095179	0.163330	-0.180664	-0.521973	25.976720	71.460103	-178.484849
12529		0.804189	-4.565937	4.316561	0.089461	4.490995	1.321978	0.204590	-0.183838	-0.508057	32.061099	73.341199	-172.158408
12530		-7.617327	-2.404954	9.453192	0.438546	4.034222	1.512768	0.239746	-0.196533	-0.484375	39.494700	74.706853	-164.689956
12531		-16.892186	-1.599892	19.735188	0.302426	2.151786	1.222055	0.242676	-0.204346	-0.472412	44.670807	75.148454	-159.510639
12532		-13.158945	-2.733385	18.042255	-0.032450	0.066993	0.769170	0.239746	-0.205566	-0.477783	45.906319	74.856527	-158.213226
12533		-8.078003	-3.873000	14.458016	-0.087533	-1.489073	0.402729	0.234131	-0.217041	-0.478516	44.270062	74.086070	-159.860843
12534		-3.495244	-3.941529	10.127687	-0.005547	-2.396154	0.175642	0.220703	-0.211182	-0.483643	41.352173	73.004130	-162.900568
12535		-0.799828	-3.366014	7.515319	0.163653	-2.689880	0.067427	0.186279	-0.211182	-0.508789	38.426863	71.791809	-166.069180
12536		0.458600	-2.531505	5.824524	0.301920	-2.659494	0.011635	0.170898	-0.197510	-0.518311	35.910368	70.566833	-168.910971
12537		0.405612	-1.569518	5.186112	0.343163	-2.535535	-0.036731	0.150879	-0.203369	-0.531494	33.786025	69.381866	-171.382628
12538		-0.170849	-0.704113	5.275228	0.251382	-2.471671	-0.098731	0.134277	-0.209717	-0.535156	31.827030	68.215407	-173.638687
12539		-0.954450	-0.074059	5.911813	0.032990	-2.504432	-0.183298	0.101074	-0.205566	-0.552002	29.844725	67.032533	-175.804222
12540		-1.916167	0.201307	6.835324	-0.271139	-2.644919	-0.284130	0.085205	-0.197021	-0.565918	27.691744	65.775447	-177.984361
12541		-3.023399	0.220683	7.458746	-0.577918	-2.927440	-0.394206	0.062012	-0.187988	-0.567871	25.319796	64.370694	179.763863
12542		-3.541574	-0.147732	7.753266	-0.804597	-3.294498	-0.505935	0.036377	-0.188965	-0.572021	22.778896	62.757710	177.441046
12543		-3.520099	-0.531055	7.692196	-0.900616	-3.645584	-0.615382	0.003418	-0.172852	-0.581787	20.223947	60.939058	175.127373
12544		-3.351341	-0.721849	7.484547	-0.901015	-3.927468	-0.707473	-0.033203	-0.154541	-0.592773	17.780259	58.935828	172.900527
12545		-3.155027	-0.618629	7.447824	-0.846466	-4.113023	-0.782629	-0.065430	-0.145020	-0.603516	15.540321	56.802459	170.827004
12546		-3.092875	-0.089668	7.419252	-0.796598	-4.209217	-0.848424	-0.102051	-0.135742	-0.602295	13.509073	54.582132	168.920723
12547		-3.086258	0.316089	7.467296	-0.805000	-4.264714	-0.888538	-0.143555	-0.123535	-0.607422	11.664319	52.304296	167.197070
12548		-3.171880	0.753415	7.878061	-0.869112	-4.282243	-0.895134	-0.194580	-0.109131	-0.611816	9.971123	49.982990	165.662420
12549		-3.583948	1.007789	8.507463	-0.966847	-4.271076	-0.883732	-0.229980	-0.101807	-0.604980	8.403819	47.644339	164.314462
12550		-4.179872	0.982617	9.228686	-1.093200	-4.254725	-0.855858	-0.258789	-0.079834	-0.607422	6.925628	45.286122	163.139593
12551		-5.115974	0.816202	9.789591	-1.204095	-4.251195	-0.850688	-0.301514	-0.074463	-0.595215	5.514586	42.913987	162.101696
12552		-6.255247	0.708305	10.030709	-1.264748	-4.254734	-0.882441	-0.332764	-0.059570	-0.593506	4.159501	40.519894	161.154400
12553		-7.196825	0.640041	9.935896	-1.250395	-4.227688	-0.953946	-0.387451	-0.045166	-0.582275	2.878189	38.132363	160.261188
12554		-8.144177	0.534672	10.264961	-1.163906	-4.119002	-1.035088	-0.423096	-0.031006	-0.574219	1.696483	35.790322	159.404920
12555		-9.678758	0.681663	11.403331	-1.072535	-3.987188	-1.109430	-0.453613	-0.009521	-0.551025	0.614406	33.515899	158.580472
12556		-12.010048	0.828032	12.999198	-1.019034	-3.937753	-1.155396	-0.485352	-0.006348	-0.540283	-0.390188	31.253575	157.794727
12557		-13.958693	0.609364	13.965658	-0.982224	-4.067244	-1.201722	-0.517578	0.005371	-0.527100	-1.328237	28.910062	157.043542
12558		-15.074198	-0.009813	14.124401	-0.910822	-4.280600	-1.265143	-0.561768	0.012939	-0.506836	-2.188700	26.429141	156.313967
12559		-15.274421	-0.456190	13.539296	-0.766125	-4.436103	-1.342702	-0.598633	0.020020	-0.489014	-2.932106	23.852622	155.594405
12560		-14.684562	-0.777637	12.350337	-0.579515	-4.473874	-1.394510	-0.636719	0.031250	-0.455322	-3.533639	21.241402	154.890798
12561		-14.140915	-0.852613	11.161897	-0.393806	-4.396112	-1.395810	-0.680664	0.034180	-0.434814	-3.986429	18.672677	154.221422
12562		-14.431713	-0.787877	10.279239	-0.307794	-4.256805	-1.335844	-0.724365	0.033691	-0.404297	-4.345266	16.178031	153.610687
12563		-15.066911	-0.645171	9.280032	-0.323987	-4.075083	-1.230147	-0.753174	0.027344	-0.376709	-4.667531	13.792164	153.077030
12564		-15.199508	-0.386307	7.994899	-0.433876	-3.835199	-1.088844	-0.781006	0.031494	-0.357422	-5.012899	11.543898	152.633580
12565		-14.435041	0.066049	6.636590	-0.618639	-3.484064	-0.908464	-0.802734	0.035400	-0.317139	-5.427861	9.505800	152.294859
12566		-13.279864	1.257869	5.322088	-0.868649	-3.017066	-0.701617	-0.830566	0.037109	-0.295166	-5.959140	7.740286	152.067417
12567		-12.629858	3.608341	4.151447	-1.236397	-2.474650	-0.532164	-0.845459	0.042236	-0.270752	-6.683798	6.294750	151.923140
12568		-13.012268	4.457644	3.084242	-1.647777	-1.984279	-0.383939	-0.848389	0.055908	-0.245361	-7.634541	5.134346	151.849953
12569		-13.618624	4.074909	1.959390	-1.834941	-1.569303	-0.232901	-0.858887	0.056152	-0.214600	-8.684550	4.222774	151.849296
12570		-14.263193	3.181555	0.960926	-1.704242	-1.171274	-0.128194	-0.864258	0.061279	-0.192627	-9.657563	3.544241	151.887701
12571		-14.794779	2.164962	0.224545	-1.291321	-0.806252	-0.081368	-0.865234	0.063232	-0.175537	-10.393806	3.078756	151.926180
12572		-15.466975	1.653427	-0.130637	-0.701816	-0.480459	-0.085867	-0.868652	0.074707	-0.168457	-10.794645	2.795457	151.932370
12573		-12.281467	-0.486572	-0.466860	-0.010144	-0.085734	-0.149186	-0.854736	0.075684	-0.161865	-10.802463	2.728765	151.861464
12574		-17.888855	-1.378665	-4.983367	1.610420	1.880420	-0.335658	-0.874023	0.073486	-0.180176	-9.900206	3.750927	151.481990
12575		3.900462	6.452347	2.565405	1.681225	2.114827	-0.150929	-0.861816	0.079346	-0.194824	-8.956735	4.929569	151.201265
12576		1.671396	0.021848	14.108092	1.411326	2.349346	-0.312431	-0.852539	0.072266	-0.213379	-8.183523	6.230945	150.825704
12577		3.711165	-3.307152	11.516142	1.528327	2.356191	0.278236	-0.847900	0.071045	-0.222412	-7.308852	7.587467	150.805362
12578		1.446048	5.081841	7.596523	1.490132	2.808786	0.692139	-0.825928	0.079590	-0.249512	-6.423623	9.229372	151.012627
12579		-4.799080	9.736546	11.755203	0.661520	3.357377	0.176578	-0.811768	0.088623	-0.272217	-6.062006	11.149869	150.906074
12580		-10.262345	4.886548	15.716684	0.229031	3.202119	0.005812	-0.804199	0.083252	-0.294678	-5.968933	12.971481	150.716682
12581		-10.923012	6.279229	16.366877	0.161937	2.596232	0.392328	-0.790283	0.091797	-0.299805	-5.856647	14.471503	150.792925
12582		-8.693049	1.540156	13.502860	-0.152553	2.197617	0.288869	-0.772217	0.098877	-0.311279	-5.931795	15.737938	150.833462
12583		-8.073531	-5.200391	12.145759	-0.117003	1.977947	0.050456	-0.763672	0.098145	-0.314209	-6.022441	16.865321	150.744341
12584		-7.957838	-5.125978	11.285129	0.128019	1.691971	-0.004189	-0.747070	0.100586	-0.332275	-5.978624	17.826333	150.639665
12585		-7.073301	-1.828449	10.775356	0.318227	1.374629	0.052047	-0.742920	0.111572	-0.344482	-5.810516	18.610083	150.589650
12586		-6.619474	-2.079962	10.740893	0.417846	1.105858	0.121012	-0.740723	0.106445	-0.342773	-5.566107	19.244723	150.600177
12587		-7.891445	-3.185418	10.813797	0.601884	0.808433	0.166818	-0.737305	0.100830	-0.352539	-5.200248	19.712058	150.658932
12588		-5.802000	-0.034572	10.157090	0.614400	0.456833	0.162153	-0.732422	0.108887	-0.351563	-4.820209	19.978287	150.736968
12589		-3.407740	0.148245	9.656090	0.532259	0.357486	0.133014	-0.721924	0.102539	-0.355713	-4.490808	20.185788	150.804035
12590		-4.081094	-0.665099	9.572037	0.504723	0.314983	0.131138	-0.727051	0.107178	-0.356689	-4.176060	20.368787	150.873302
12591		-3.532061	0.336502	9.539282	0.472461	0.258232	0.124439	-0.728271	0.103516	-0.362549	-3.879961	20.518513	150.941980
12592		-3.529336	0.559347	9.664097	0.419149	0.248772	0.111504	-0.723389	0.098633	-0.371094	-3.616399	20.662260	151.004046
12593		-3.695683	0.490902	9.814712	0.337510	0.239748	0.092820	-0.718750	0.095459	-0.366943	-3.403340	20.799719	151.055658
12594		-3.777240	0.232927	9.746019	0.262208	0.228572	0.066063	-0.714600	0.096924	-0.365479	-3.238572	20.929965	151.091903
12595		-3.813296	-0.291970	9.516067	0.208530	0.206035	0.050564	-0.716797	0.097656	-0.369629	-3.107718	21.046511	151.119720
12596		-3.879248	-0.419887	9.527430	0.171465	0.184316	0.048754	-0.725098	0.097656	-0.378174	-2.997824	21.150753	151.147517
12597		-3.869678	-0.253818	9.425285	0.147353	0.145339	0.040275	-0.721436	0.094971	-0.374512	-2.903330	21.232164	151.171463
12598		-3.681605	-0.396527	9.323553	0.132716	0.126297	0.032520	-0.717529	0.099121	-0.375977	-2.818376	21.302663	151.191480
12599		-3.631339	-0.385494	9.203429	0.124172	0.104389	0.031851	-0.717041	0.093262	-0.373535	-2.738443	21.360337	151.211757
12600		-3.620426	-0.505037	9.131591	0.129674	0.102700	0.032382	-0.715820	0.090332	-0.381104	-2.654885	21.417276	151.232608
12601		-3.582332	-0.334004	9.186194	0.136228	0.096378	0.037998	-0.716064	0.093506	-0.377686	-2.566472	21.470470	151.257086
12602		-3.662348	-0.349221	9.217998	0.133180	0.085616	0.035895	-0.715576	0.094482	-0.378174	-2.479834	21.517660	151.280761
12603		-3.638834	-0.446463	9.152562	0.139324	0.074022	0.038751	-0.712402	0.094727	-0.374512	-2.389155	21.558005	151.306480
12604		-3.644373	-0.485883	9.142321	0.145021	0.064630	0.044187	-0.712402	0.089355	-0.379395	-2.293565	21.593307	151.335962
12605		-3.664964	-0.441870	9.168070	0.152751	0.052708	0.048523	-0.711670	0.096680	-0.375977	-2.192700	21.621588	151.368369
12606		-3.680873	-0.393657	9.170264	0.151738	0.041810	0.050544	-0.709717	0.096191	-0.381592	-2.091548	21.643867	151.402434
12607		-3.667443	-0.118906	9.211569	0.153675	0.035512	0.045404	-0.705811	0.094238	-0.383789	-1.990656	21.662131	151.433415
12608		-3.657883	-0.013831	9.275982	0.142856	0.030227	0.040021	-0.708496	0.091553	-0.391846	-1.896839	21.677464	151.461330
12609		-3.678502	0.014573	9.249411	0.130566	0.024235	0.026796	-0.714600	0.098145	-0.387451	-1.813300	21.688832	151.481139
12610		-3.585538	-0.020052	9.131330	0.129129	0.019563	0.025164	-0.711426	0.087646	-0.386963	-1.730612	21.697718	151.500160
12611		-3.617642	-0.125901	9.108590	0.135396	0.016050	0.015560	-0.715576	0.086914	-0.381104	-1.646791	21.704155	151.513229
12612		-3.560211	-0.163828	9.085007	0.139326	0.007161	0.009370	-0.709473	0.090088	-0.389893	-1.561758	21.705632	151.522761
12613		-3.440253	-0.248790	9.014569	0.147765	0.008471	0.014188	-0.704346	0.088623	-0.383301	-1.471108	21.707671	151.535129
12614		-3.508595	-0.312931	9.017901	0.164178	0.014835	0.014958	-0.712646	0.080811	-0.388184	-1.370599	21.713591	151.547994
12615		-3.529693	-0.217156	9.075914	0.177060	0.019021	0.015227	-0.713379	0.086426	-0.388184	-1.262977	21.721647	151.560863
12616		-3.515435	-0.326184	9.110528	0.178811	0.018822	0.016609	-0.707520	0.080322	-0.388184	-1.153716	21.729823	151.574718
12617		-3.598028	-0.204277	9.062241	0.194102	0.028411	0.013407	-0.710449	0.085205	-0.387207	-1.036770	21.743191	151.586389
12618		-3.744373	-0.010402	9.212602	0.189548	0.024415	0.008842	-0.701660	0.081055	-0.383789	-0.923138	21.754442	151.595429
12619		-3.695478	-0.050061	9.236939	0.194195	0.022304	0.004128	-0.709961	0.083008	-0.394531	-0.808213	21.764189	151.601492
12620		-3.767047	0.051036	9.261323	0.176859	0.016651	0.004436	-0.715088	0.087646	-0.387939	-0.702809	21.770928	151.607928
12621		-3.856768	0.177121	9.335909	0.165267	0.009572	-0.002237	-0.706543	0.080566	-0.390381	-0.605866	21.773318	151.610194
12622		-3.774394	0.008603	9.225415	0.148163	-0.004862	-0.003257	-0.712158	0.079590	-0.393555	-0.518595	21.767673	151.612042
12623		-3.669773	0.059764	9.196838	0.136106	-0.007256	-0.002202	-0.714600	0.078613	-0.394287	-0.438317	21.760414	151.614423
12624		-3.691796	0.094925	9.271066	0.119337	-0.002291	-0.006677	-0.716553	0.087891	-0.394531	-0.368348	21.756227	151.614135
12625		-3.534421	-0.035410	9.178473	0.101264	0.004308	-0.003602	-0.704102	0.083496	-0.395996	-0.308376	21.755584	151.615592
12626		-3.491688	-0.102633	9.175458	0.095705	0.030311	-0.010316	-0.710205	0.076660	-0.390625	-0.252815	21.770064	151.612952
12627		-3.542285	-0.075306	9.194085	0.092113	0.043280	-0.000383	-0.705566	0.080078	-0.394775	-0.197384	21.791755	151.616299
12628		-3.448071	-0.155985	9.122351	0.091741	0.062192	0.001042	-0.710938	0.072266	-0.400146	-0.141505	21.824519	151.620639
12629		-3.500631	-0.004143	9.204635	0.093479	0.081097	0.006520	-0.697266	0.077393	-0.405029	-0.083702	21.867879	151.628249
12630		-3.602213	0.029393	9.164857	0.088751	0.092147	0.012429	-0.709717	0.071289	-0.398193	-0.026889	21.917797	151.639674
12631		-3.551700	0.110488	9.204225	0.080278	0.108589	0.012838	-0.704346	0.069336	-0.396240	0.024857	21.976895	151.651283
12632		-3.580825	0.090461	9.243553	0.068559	0.130700	0.010346	-0.706543	0.079102	-0.400879	0.069692	22.048878	151.661549
12633		-3.619825	-0.019912	9.195872	0.053417	0.137873	0.012414	-0.705322	0.066650	-0.396240	0.106028	22.124739	151.673034
12634		-3.690647	-0.017400	9.205898	0.047369	0.145592	0.015529	-0.707031	0.078613	-0.398438	0.140009	22.205230	151.686642
12635		-3.652363	0.095278	9.221486	0.035589	0.156164	0.014147	-0.700684	0.072021	-0.405518	0.166619	22.291555	151.699336
12636		-3.567044	-0.044806	9.140798	0.034707	0.173513	0.014063	-0.701172	0.073730	-0.392578	0.193099	22.388031	151.712195
12637		-3.593325	-0.116821	9.123919	0.037764	0.192018	0.018250	-0.699463	0.073975	-0.404785	0.222036	22.494879	151.727620
12638		-3.697093	-0.122849	9.101070	0.043906	0.198380	0.026552	-0.697021	0.077881	-0.403076	0.256871	22.605552	151.748418
12639		-3.587510	-0.198828	9.056534	0.058694	0.205028	0.033327	-0.697510	0.081299	-0.412354	0.301543	22.719795	151.773413
12640		-3.543948	-0.240171	9.004549	0.080123	0.222191	0.044750	-0.701904	0.074463	-0.406982	0.361696	22.844013	151.805831
12641		-3.728758	-0.162309	9.050160	0.089325	0.229216	0.052083	-0.693848	0.069336	-0.401367	0.428714	22.971993	151.842891
12642		-3.678440	-0.040655	9.141728	0.099871	0.233253	0.060840	-0.694824	0.081299	-0.408203	0.504392	23.102396	151.885758
12643		-3.577077	0.011029	9.184642	0.101898	0.260109	0.065949	-0.689453	0.073975	-0.413330	0.582416	23.247912	151.932076
12644		-3.664857	0.142971	9.276189	0.101247	0.291717	0.077016	-0.687988	0.082031	-0.413086	0.663424	23.411588	151.985913
12645		-3.501621	0.015585	9.360577	0.090914	0.335219	0.086706	-0.685547	0.074463	-0.406494	0.741024	23.599871	152.046330
12646		-3.566460	0.033307	9.392448	0.090489	0.393886	0.103771	-0.682129	0.082031	-0.418457	0.823541	23.821713	152.118434
12647		-3.328826	0.058513	9.608217	0.095995	0.456310	0.123861	-0.680908	0.072510	-0.412109	0.914730	24.078883	152.204100
12648		-3.139401	0.180293	9.850904	0.098796	0.563223	0.155593	-0.684814	0.077393	-0.416504	1.017152	24.396986	152.311633
12649		-2.944016	0.573841	10.325162	0.066893	0.716236	0.162314	-0.676270	0.082764	-0.425781	1.104477	24.802386	152.425943
12650		-2.752716	0.753993	10.679609	-0.010688	0.968604	0.142110	-0.662354	0.082031	-0.428711	1.144853	25.352519	152.531691
12651		-2.312936	0.635737	11.092062	-0.085752	1.264798	0.102124	-0.658447	0.083496	-0.434326	1.133856	26.072703	152.616333
12652		-2.204261	0.806304	11.167862	-0.089742	1.623836	0.079996	-0.649658	0.087402	-0.435791	1.117894	26.998761	152.691899
12653		-2.562763	1.284950	11.239684	-0.163052	1.991907	0.031176	-0.625732	0.083008	-0.453369	1.048219	28.136316	152.740163
12654		-2.289444	1.177483	11.553217	-0.214628	2.366647	-0.002417	-0.618896	0.080811	-0.454102	0.941102	29.488731	152.769490
12655		-2.061597	0.803937	11.155753	-0.183862	2.765410	0.002597	-0.587891	0.083008	-0.458984	0.854492	31.069804	152.803856
12656		-2.141872	0.633764	11.030512	-0.127952	3.165657	0.042989	-0.568115	0.086670	-0.477051	0.817061	32.879468	152.868313
12657		-1.794841	1.050411	11.228797	-0.059845	3.637916	0.056685	-0.538086	0.086426	-0.474121	0.828416	34.959992	152.947570
12658		-2.333024	0.780253	11.262323	-0.014252	4.184214	0.076047	-0.514404	0.089844	-0.489014	0.882669	37.352654	153.050368
12659		-2.468879	-1.443313	11.054602	0.108898	4.709195	0.092977	-0.479980	0.089844	-0.515381	1.027906	40.046387	153.180552
12660		-2.950178	-2.648709	10.558644	0.349499	5.318781	0.190004	-0.436279	0.090576	-0.515381	1.386629	43.086788	153.416679
12661		-5.424818	-2.937744	10.239402	0.494884	5.836632	0.284799	-0.394531	0.088867	-0.519531	1.932783	46.421597	153.787385
12662		-6.980177	-2.089512	10.896690	0.526647	6.198325	0.446003	-0.342773	0.082275	-0.535645	2.685658	49.955489	154.390146
12663		-10.842681	-1.159900	12.471991	0.454151	6.382982	0.556176	-0.291504	0.081299	-0.541260	3.610587	53.586430	155.233994
12664		-12.511799	-1.061491	14.038739	0.367572	6.300747	0.607727	-0.240967	0.072510	-0.542236	4.709874	57.157239	156.311622
12665		-13.987445	0.441380	14.188866	0.091421	6.082667	0.653819	-0.193115	0.069824	-0.536621	5.921564	60.589452	157.663620
12666		-14.875951	0.919582	13.971328	-0.328035	5.696466	0.613535	-0.146973	0.070068	-0.534668	7.105009	63.787628	159.212014
12667		-12.110959	-0.349894	13.930525	-0.749066	5.256108	0.650882	-0.120850	0.069580	-0.518311	8.365055	66.718366	161.069978
12668		-7.972457	-1.617326	12.420951	-0.984807	4.896600	0.805683	-0.072998	0.080566	-0.496094	10.055642	69.408965	163.498831
12669		-4.396158	-2.695160	10.356276	-1.063460	4.594910	1.044701	-0.046631	0.063721	-0.486328	12.598235	71.870078	166.837409
12670		0.306832	-3.241566	6.605830	-0.957630	4.369687	1.222358	-0.008301	0.067383	-0.465820	16.319350	74.115150	171.300313
12671		0.344022	-1.151749	6.304280	-0.850192	4.161995	1.446574	0.013184	0.072266	-0.451172	21.713318	76.098258	177.383174
12672		-17.768068	-1.948354	17.540935	-0.832649	2.838236	1.567975	0.036621	0.065430	-0.434570	27.538648	77.197402	-176.141020
12673		-13.308224	-5.511408	18.517695	-0.922305	0.631803	1.216161	0.035889	0.061523	-0.438477	30.469276	77.171741	-172.595078
12674		-7.273302	-6.998975	13.837808	-0.475750	-0.941953	0.994065	0.024658	0.056885	-0.426514	31.101496	76.409555	-171.666536
12675		-2.759187	-6.654389	10.044524	0.146930	-1.900930	0.894884	0.002930	0.043701	-0.431152	30.719422	75.207263	-172.148907
12676		-0.290508	-4.705871	7.754842	0.705794	-2.285290	0.908926	-0.027588	0.040039	-0.435547	30.337935	73.807519	-172.964947
12677		0.460985	-2.187473	6.550456	0.886330	-2.375262	0.931122	-0.042725	0.023193	-0.447998	30.114708	72.358609	-173.730512
12678		0.274868	-0.409388	6.046961	0.705151	-2.413254	0.887669	-0.071777	0.008057	-0.440186	29.763370	70.898945	-174.526730
12679		-0.061942	0.251598	5.849117	0.310550	-2.504004	0.780970	-0.099365	0.004883	-0.446289	29.073712	69.425023	-175.450489
12680		-0.278920	0.144355	5.665941	-0.134422	-2.644573	0.638161	-0.139893	0.007080	-0.440674	27.963153	67.911042	-176.560088
12681		-0.397881	-0.432170	5.596173	-0.495596	-2.783073	0.487113	-0.174316	-0.006836	-0.423340	26.541106	66.361233	-177.796616
12682		-0.747936	-1.182964	5.723921	-0.721617	-2.930070	0.310820	-0.213623	0.001953	-0.401123	24.875377	64.762966	-179.171916
12683		-1.380952	-1.653125	6.064861	-0.797044	-3.096433	0.139629	-0.248291	-0.017578	-0.382324	23.098709	63.105170	179.357267
12684		-2.064234	-1.655356	6.633413	-0.801207	-3.301393	-0.032975	-0.282959	-0.016113	-0.360596	21.248771	61.351927	177.785790
12685		-2.658810	-1.320248	7.247782	-0.809738	-3.530091	-0.226404	-0.314941	-0.019531	-0.315918	19.339276	59.495589	176.122344
12686		-3.114223	-0.983808	7.754021	-0.849819	-3.763537	-0.421655	-0.346436	-0.030762	-0.283691	17.368523	57.515962	174.382936
12687		-3.360987	-0.799091	7.951220	-0.899222	-3.999814	-0.584617	-0.359619	-0.049561	-0.249268	15.398006	55.407594	172.635688
12688		-3.181698	-0.611957	8.098550	-0.950582	-4.183941	-0.700696	-0.380127	-0.061279	-0.211914	13.480195	53.176864	170.945651
12689		-3.108565	-0.189256	8.443863	-1.023634	-4.307617	-0.764524	-0.381348	-0.084961	-0.176758	11.662590	50.859321	169.382425
12690		-3.389149	0.270333	9.071223	-1.139054	-4.370778	-0.780731	-0.376465	-0.106689	-0.155762	9.939612	48.473714	167.979516
12691		-3.972201	0.675929	9.645284	-1.299247	-4.439669	-0.758508	-0.366699	-0.122070	-0.141113	8.299088	46.027271	166.757751
12692		-4.657968	0.961351	10.139641	-1.483370	-4.500248	-0.697195	-0.355713	-0.137939	-0.129883	6.722221	43.513475	165.726871
12693		-5.092998	1.203422	10.054816	-1.645594	-4.515684	-0.615731	-0.355957	-0.159424	-0.129150	5.220243	40.973423	164.893550
12694		-5.475538	1.219827	10.001841	-1.752069	-4.418364	-0.514965	-0.358887	-0.158936	-0.137451	3.807005	38.463209	164.254326
12695		-5.991843	0.919949	10.372893	-1.778293	-4.211480	-0.394952	-0.359863	-0.166992	-0.139160	2.518621	36.063073	163.807246
12696		-7.247470	0.607477	12.261878	-1.809204	-3.961857	-0.288062	-0.347900	-0.169189	-0.153076	1.314419	33.790141	163.515953
12697		-10.103786	0.789992	14.531651	-1.925889	-3.847309	-0.270174	-0.359131	-0.167480	-0.159180	0.097640	31.584728	163.303792
12698		-12.647459	0.263211	15.524175	-2.040175	-3.939059	-0.409830	-0.367920	-0.161133	-0.166260	-1.196085	29.316024	163.059275
12699		-13.487827	-0.627984	15.123566	-2.002887	-4.063656	-0.624448	-0.382568	-0.143799	-0.171875	-2.491769	26.974425	162.742699
12700		-13.800871	-0.646588	14.313217	-1.837370	-4.051662	-0.838139	-0.402588	-0.147217	-0.176270	-3.715115	24.621081	162.352725
12701		-14.470338	0.056386	13.945018	-1.673698	-3.900605	-1.020207	-0.419434	-0.150391	-0.185547	-4.851964	22.345926	161.903186
12702		-15.835858	0.862158	14.119672	-1.616905	-3.764415	-1.167104	-0.435059	-0.143066	-0.187744	-5.957762	20.126843	161.410195
12703		-17.250888	1.170604	13.960827	-1.625050	-3.781101	-1.301161	-0.459961	-0.136719	-0.180176	-7.056866	17.887181	160.890453
12704		-17.783385	0.950700	12.551544	-1.585827	-3.884937	-1.445067	-0.476074	-0.132324	-0.186279	-8.123364	15.563308	160.344024
12705		-17.027210	0.340150	10.089515	-1.394784	-3.920813	-1.541917	-0.502686	-0.140869	-0.174805	-9.058240	13.207495	159.792649
12706		-16.363728	-0.301932	7.451237	-1.050293	-3.780248	-1.550784	-0.525635	-0.133545	-0.171143	-9.771230	10.918188	159.262322
12707		-16.278916	-0.508263	4.988393	-0.665523	-3.492070	-1.449465	-0.541016	-0.133301	-0.160645	-10.232263	8.801045	158.788899
12708		-16.711140	0.855496	3.239721	-0.438597	-3.094764	-1.258268	-0.555664	-0.140381	-0.151367	-10.537033	6.920693	158.399529
12709		-17.027661	3.456123	1.588796	-0.575799	-2.590838	-1.057826	-0.571289	-0.146484	-0.151611	-10.899462	5.346980	158.082220
12710		-16.520691	5.051763	-0.511090	-0.977903	-1.976431	-0.913266	-0.583496	-0.136963	-0.145264	-11.483790	4.129317	157.791602
12711		-16.083463	5.010190	-2.268557	-1.287263	-1.289506	-0.840369	-0.597412	-0.144043	-0.141846	-12.240430	3.304922	157.475585
12712		-16.746258	4.261149	-2.989582	-1.249809	-0.611230	-0.850607	-0.588379	-0.136475	-0.132568	-12.977475	2.852629	157.079846
12713		-17.755487	2.426804	-3.075805	-0.778354	-0.064756	-0.920314	-0.595947	-0.138428	-0.135742	-13.446292	2.693717	156.578435
12714		-17.514043	1.148682	-2.912388	0.077846	0.368397	-1.038631	-0.590820	-0.140137	-0.135254	-13.430907	2.757666	155.953890
12715		-16.621485	1.686083	-1.850250	0.975695	0.776574	-1.198912	-0.596680	-0.147949	-0.145996	-12.909202	3.032122	155.186717
12716		-12.630048	3.255659	1.443041	1.542756	1.171253	-1.390464	-0.593750	-0.159424	-0.146973	-12.077254	3.512865	154.266194
12717		11.306319	1.541492	22.235448	1.665150	2.202291	-1.703693	-0.589355	-0.170166	-0.157959	-11.206768	4.549386	153.056514
12718		4.303486	-2.977398	14.025692	1.460430	1.666578	-1.286177	-0.573730	-0.185791	-0.167969	-10.447008	5.346591	152.153874
12719		9.124789	-4.472926	4.943598	2.285897	1.971147	-0.129773	-0.567139	-0.186279	-0.170410	-9.162857	6.444283	151.890793
12720		5.511711	4.877817	2.392022	2.716727	2.689953	0.835405	-0.553711	-0.192139	-0.181641	-7.573318	8.035834	152.145813
12721		-2.699193	12.337877	10.466291	1.892716	3.192559	0.549839	-0.544189	-0.195557	-0.202148	-6.472735	9.887105	152.239743
12722		-6.258103	6.487849	12.833605	0.829060	3.192647	-0.021139	-0.524414	-0.196777	-0.220947	-6.035979	11.701002	152.028407
12723		-6.415680	4.042572	13.273804	0.803998	3.132860	0.210110	-0.515625	-0.197266	-0.209961	-5.586900	13.496182	151.968697
12724		-8.139710	6.851683	14.112779	0.699528	2.898977	0.527214	-0.497803	-0.200439	-0.225098	-5.146287	15.175163	152.122645
12725		-9.188677	2.302693	12.883507	0.366986	2.644411	0.395583	-0.487061	-0.197510	-0.231689	-4.906980	16.701504	152.223209
12726		-9.068860	-4.147342	12.262746	0.465790	2.345528	0.284674	-0.468750	-0.205811	-0.241455	-4.620975	18.051566	152.280598
12727		-8.576276	-5.031073	11.520291	0.683570	2.012841	0.165940	-0.467773	-0.197266	-0.250244	-4.224692	19.205869	152.290625
12728		-8.012415	-2.746553	11.321700	0.913151	1.734385	0.207645	-0.460938	-0.212646	-0.245605	-3.680410	20.202915	152.347909
12729		-15.380175	-1.049283	14.523527	1.267330	1.135659	0.427886	-0.452881	-0.215332	-0.257813	-2.873780	20.863609	152.573381
12730		-3.721623	1.914885	9.885455	0.943160	0.357477	0.292568	-0.449951	-0.220947	-0.252930	-2.269646	21.073500	152.746779
12731		-4.574771	0.440758	10.545002	0.855681	0.484013	0.259974	-0.443604	-0.220215	-0.259521	-1.722569	21.352822	152.899876
12732		-5.720698	1.555904	10.704918	0.697842	0.260558	0.197795	-0.442383	-0.223389	-0.250732	-1.276614	21.502708	153.021273
12733		-4.362968	2.904846	10.246737	0.507872	0.080593	0.093102	-0.433105	-0.226074	-0.262939	-0.962166	21.546847	153.081368
12734		-4.005357	0.444302	9.630550	0.337416	0.056942	0.042911	-0.445557	-0.225098	-0.261963	-0.755989	21.577512	153.111188
12735		-3.743864	0.227790	9.510531	0.307294	0.051586	0.033681	-0.443848	-0.220459	-0.262207	-0.569647	21.604191	153.135282
12736		-3.915212	0.458029	9.483866	0.257012	0.022537	0.022900	-0.434814	-0.228516	-0.261230	-0.413896	21.614852	153.153174
12737		-3.666266	0.045440	9.364138	0.235392	0.026053	0.016336	-0.439453	-0.225342	-0.261475	-0.272583	21.626718	153.166836
12738		-3.660513	0.235849	9.336786	0.216514	0.031128	0.015246	-0.434326	-0.231934	-0.254639	-0.141749	21.642186	153.180049
12739		-3.584183	0.354088	9.335947	0.192763	0.042186	0.009883	-0.441406	-0.227539	-0.265869	-0.026304	21.663232	153.189780
12740		-3.544897	0.282821	9.254479	0.181413	0.054387	0.007312	-0.438477	-0.229248	-0.256348	0.082652	21.691954	153.198179
12741		-3.421770	0.231017	9.264385	0.167543	0.073956	0.003268	-0.432129	-0.233154	-0.264404	0.182197	21.731178	153.203965
12742		-3.645846	0.263831	9.302260	0.157577	0.089494	0.003435	-0.442139	-0.235107	-0.256836	0.276692	21.779967	153.210171
12743		-3.693730	0.087245	9.243489	0.151583	0.084620	0.001296	-0.435791	-0.232910	-0.261719	0.366716	21.825289	153.214921
12744		-3.748797	-0.041475	9.239886	0.150195	0.077408	0.004775	-0.436523	-0.227783	-0.261475	0.457333	21.867109	153.222067
12745		-3.873379	0.062107	9.228212	0.151393	0.061659	0.003418	-0.432373	-0.238037	-0.265137	0.547755	21.899251	153.228159
12746		-3.773418	0.057620	9.191722	0.143999	0.045743	0.003594	-0.434326	-0.232666	-0.261719	0.634515	21.922903	153.234510
12747		-3.536966	0.057981	9.204098	0.152402	0.050829	0.009641	-0.436035	-0.233887	-0.264893	0.726968	21.948781	153.244476
12748		-3.655266	0.247306	9.302701	0.143648	0.074767	0.002328	-0.435303	-0.234131	-0.257324	0.813342	21.989031	153.250359
12749		-3.726495	0.402400	9.304937	0.124777	0.078511	0.005109	-0.436035	-0.238037	-0.262695	0.889058	22.030779	153.257867
12750		-3.708922	0.296058	9.267511	0.104398	0.086452	0.000120	-0.444580	-0.241455	-0.264893	0.952523	22.077709	153.262618
12751		-3.760648	0.219311	9.246718	0.093109	0.094841	-0.003787	-0.436035	-0.234131	-0.261963	1.008141	22.128883	153.264905
12752		-3.703603	0.179769	9.174233	0.081387	0.100414	-0.005221	-0.433838	-0.236084	-0.258301	1.057272	22.183840	153.266606
12753		-3.670317	0.163881	9.175173	0.068860	0.110562	-0.001664	-0.431885	-0.234619	-0.258301	1.099602	22.243993	153.270486
12754		-3.667896	0.207401	9.227085	0.061051	0.124870	-0.003900	-0.424316	-0.241211	-0.255859	1.137526	22.312924	153.273387
12755		-3.789488	0.252935	9.157364	0.052163	0.132162	0.000059	-0.433105	-0.243408	-0.255615	1.170841	22.385426	153.278693
12756		-3.758561	0.234714	9.157447	0.043255	0.130552	0.002732	-0.426025	-0.239502	-0.266602	1.200193	22.457512	153.285863
12757		-3.759962	0.259988	9.156613	0.035828	0.136200	0.006852	-0.430176	-0.237061	-0.262695	1.225827	22.532240	153.295521
12758		-3.757501	0.287154	9.131716	0.026701	0.140810	0.005673	-0.427246	-0.234619	-0.264160	1.246484	22.610144	153.304726
12759		-3.834900	0.323727	9.118182	0.024802	0.144751	0.007913	-0.428467	-0.242188	-0.262451	1.266150	22.689750	153.315230
12760		-3.837513	0.238897	9.105081	0.018580	0.144778	0.005809	-0.423828	-0.237549	-0.259766	1.282249	22.769904	153.324639
12761		-3.893350	0.263254	9.094052	0.014338	0.139661	0.005232	-0.431641	-0.238281	-0.265625	1.295297	22.846624	153.333468
12762		-3.886290	0.237251	9.039355	0.015755	0.136735	0.009171	-0.431152	-0.233154	-0.268066	1.310581	22.922111	153.344905
12763		-3.918133	0.158064	9.071660	0.015170	0.128755	0.006527	-0.426025	-0.245850	-0.265137	1.324401	22.992563	153.354435
12764		-3.931082	0.251801	9.026343	0.010893	0.123632	0.011043	-0.422852	-0.239258	-0.263428	1.337314	23.060504	153.366896
12765		-3.941776	0.253206	9.021638	0.011686	0.113944	0.008599	-0.430420	-0.244629	-0.271240	1.349596	23.122441	153.377543
12766		-3.876846	0.242223	9.030251	0.013131	0.111039	0.012570	-0.427002	-0.238525	-0.266113	1.364126	23.183135	153.390812
12767		-3.917261	0.304297	9.076554	0.010535	0.108197	0.013487	-0.430420	-0.235840	-0.263428	1.376953	23.241708	153.404463
12768		-3.890268	0.264101	9.049982	0.008655	0.107057	0.013217	-0.420654	-0.243164	-0.267090	1.389088	23.300095	153.418114
12769		-3.915417	0.295542	9.070972	0.004703	0.111031	0.016462	-0.426025	-0.242432	-0.260498	1.399366	23.360244	153.433701
12770		-3.855404	0.226924	9.097957	-0.000036	0.114479	0.011975	-0.419922	-0.242676	-0.269775	1.406291	23.422883	153.446723
12771		-3.866273	0.227470	9.093329	0.000811	0.125192	0.014512	-0.416504	-0.234619	-0.272461	1.413986	23.491167	153.461344
12772		-3.814314	0.139850	9.091479	0.000258	0.142701	0.019348	-0.420410	-0.241699	-0.269531	1.423124	23.569848	153.479438
12773		-3.821830	0.159700	9.114061	0.002867	0.154498	0.022076	-0.416504	-0.241455	-0.271973	1.434127	23.654806	153.499285
12774		-3.794121	0.084379	9.108170	0.010753	0.174668	0.033043	-0.417236	-0.242188	-0.265625	1.452985	23.751574	153.526507
12775		-3.827068	0.155226	9.080094	0.018728	0.189751	0.036410	-0.417236	-0.241211	-0.264893	1.477022	23.856502	153.555980
12776		-3.855615	0.245737	9.079509	0.023689	0.209370	0.040578	-0.413086	-0.241699	-0.270020	1.505566	23.972994	153.588617
12777		-3.789373	0.274731	9.141737	0.025221	0.235792	0.042904	-0.418213	-0.231934	-0.271240	1.535471	24.104168	153.623095
12778		-3.720868	0.252202	9.173795	0.030219	0.260457	0.039303	-0.419189	-0.239746	-0.272217	1.567996	24.249888	153.656000
12779		-3.761854	0.357702	9.245845	0.029890	0.308780	0.051145	-0.410889	-0.236816	-0.272217	1.603498	24.422698	153.697172
12780		-3.775388	0.364549	9.312636	0.020804	0.345321	0.052892	-0.409912	-0.232178	-0.273193	1.635094	24.616740	153.740419
12781		-3.575628	0.312845	9.395011	0.001235	0.406126	0.060294	-0.405518	-0.239502	-0.272949	1.657727	24.845111	153.789455
12782		-3.744779	0.312925	9.299506	-0.002169	0.480605	0.065676	-0.407959	-0.239502	-0.266602	1.681082	25.116348	153.843620
12783		-3.714204	0.424087	9.486113	-0.017024	0.564599	0.062529	-0.412842	-0.244629	-0.272217	1.695716	25.435408	153.897433
12784		-3.770343	0.390420	9.359386	-0.042734	0.650749	0.045815	-0.394043	-0.239014	-0.273438	1.692480	25.804366	153.942599
12785		-3.777377	0.404989	9.374488	-0.052527	0.741817	0.040985	-0.391602	-0.236572	-0.274658	1.682981	26.225285	153.986340
12786		-3.695262	0.483195	9.494437	-0.064299	0.843128	0.028590	-0.394043	-0.237305	-0.280029	1.664760	26.704684	154.024269
12787		-3.780745	0.422816	9.455210	-0.084633	0.961255	0.022475	-0.387939	-0.240479	-0.274902	1.633992	27.251611	154.060228
12788		-3.801613	0.490742	9.522011	-0.104881	1.082031	0.007542	-0.369873	-0.237061	-0.277588	1.588784	27.868163	154.088690
12789		-3.843605	0.554513	9.607853	-0.107699	1.224365	0.006348	-0.374756	-0.237549	-0.278320	1.542507	28.566083	154.118343
12790		-3.897641	0.492010	9.624727	-0.127761	1.357628	-0.005483	-0.372314	-0.237549	-0.281982	1.482577	29.340668	154.142215
12791		-3.974882	0.425416	9.555985	-0.141175	1.492978	-0.015350	-0.370605	-0.234375	-0.291016	1.412336	30.192809	154.160819
12792		-3.981832	0.474503	9.522361	-0.149582	1.634034	-0.007174	-0.356201	-0.228027	-0.284668	1.341327	31.125724	154.186280
12793		-4.004061	0.414699	9.575925	-0.133920	1.799282	-0.006403	-0.341309	-0.242432	-0.281738	1.280335	32.153238	154.213597
12794		-3.779098	0.533257	9.640847	-0.108182	1.997666	-0.002650	-0.333252	-0.237549	-0.288574	1.237516	33.294359	154.245887
12795		-3.704855	0.287892	9.641390	-0.065638	2.219758	0.006581	-0.319092	-0.229980	-0.299316	1.224485	34.562603	154.287391
12796		-3.721637	0.426424	9.685365	-0.012123	2.492423	0.043221	-0.313965	-0.236572	-0.290039	1.261181	35.986466	154.360008
12797		-3.867521	0.483903	9.694473	0.022449	2.776158	0.063698	-0.292480	-0.234375	-0.302246	1.332140	37.572643	154.454672
12798		-3.831470	0.287924	9.681558	0.071895	3.089161	0.094353	-0.280518	-0.235840	-0.300781	1.454971	39.337312	154.583201
12799		-3.776407	-0.508242	9.424073	0.173070	3.475951	0.143411	-0.256592	-0.240234	-0.301514	1.674287	41.322673	154.766634
12800		-3.958949	-0.748326	9.370311	0.316001	3.915972	0.197019	-0.233154	-0.241943	-0.301514	2.029761	43.557919	155.022559
12801		-4.210250	-0.399695	9.354718	0.404507	4.360942	0.247900	-0.213135	-0.240967	-0.304443	2.505404	46.045717	155.366517
12802		-5.028869	-0.031088	9.575366	0.408142	4.842262	0.274462	-0.185791	-0.236084	-0.298584	3.062374	48.805391	155.802944
12803		-6.893761	0.071140	10.157693	0.376820	5.299593	0.247547	-0.157715	-0.242676	-0.300049	3.669195	51.824962	156.308839
12804		-8.971796	-0.945500	11.162048	0.296161	5.637926	0.197212	-0.126953	-0.257324	-0.290771	4.299683	55.035558	156.880381
12805		-12.161387	-2.368466	11.882558	0.271819	5.764867	0.212943	-0.096924	-0.256348	-0.281250	5.056485	58.314281	157.597689
12806		-14.050172	-2.793395	11.698580	0.447718	5.579552	0.401381	-0.070557	-0.253662	-0.282227	6.258395	61.468701	158.688347
12807		-13.146471	-0.570027	11.595005	0.641825	5.354089	0.569038	-0.044189	-0.261963	-0.270264	8.014916	64.468813	160.245209
12808		-14.734856	0.837675	12.790444	0.348892	5.111939	0.553500	-0.019287	-0.275879	-0.255615	9.944238	67.308068	162.137796
12809		-13.669153	-0.298884	13.174615	-0.075178	4.755551	0.580183	0.004395	-0.273193	-0.242188	12.071687	69.915975	164.466699
12810		-10.010401	-1.501078	12.384111	-0.303240	4.482262	0.656916	0.026855	-0.276367	-0.241699	14.716910	72.322739	167.443895
12811		-6.605485	-2.139459	11.314340	-0.420525	4.266178	0.823287	0.053467	-0.281494	-0.224854	18.342823	74.529199	171.476061
12812		-2.709739	-2.439867	8.932052	-0.488120	4.113400	0.996544	0.076660	-0.290771	-0.219727	23.391737	76.524577	176.976990
12813		2.453985	-2.213856	5.596030	-0.480472	4.160686	1.121152	0.091064	-0.295166	-0.201904	30.554946	78.357424	-175.405068
12814		-5.212445	2.168041	8.005553	-0.629595	4.134646	1.501719	0.109863	-0.290527	-0.187988	40.994126	79.776858	-164.408649
12815		-17.079256	-0.410564	19.151199	-1.170952	2.543109	1.528898	0.119629	-0.302979	-0.187500	49.683235	80.174718	-154.905631
12816		-12.904936	-5.078156	17.607213	-1.436217	0.578447	1.337415	0.129395	-0.301025	-0.187988	53.019877	79.777033	-150.682690
12817		-8.992900	-7.476128	14.390972	-0.951619	-0.923591	1.197416	0.124512	-0.310791	-0.184814	52.443588	78.905998	-150.715711
12818		-4.998331	-7.704061	10.782649	-0.217861	-1.956927	1.093512	0.124512	-0.309326	-0.196045	49.977168	77.708931	-153.107549
12819		-2.248690	-5.875191	8.787022	0.466936	-2.445740	1.067568	0.119629	-0.344727	-0.210938	47.430318	76.319515	-155.997020
12820		-0.971528	-3.018043	7.726503	0.783864	-2.641901	1.002546	0.103271	-0.332275	-0.216309	45.154134	74.851546	-158.811204
12821		-0.485266	-0.928036	6.830216	0.695990	-2.712954	0.867308	0.090820	-0.352295	-0.224854	43.008868	73.384223	-161.457454
12822		-0.528527	-0.197499	6.387500	0.371930	-2.758153	0.694920	0.090332	-0.364990	-0.239258	40.782169	71.934842	-164.013528
12823		-0.953777	-0.177534	6.448024	-0.017095	-2.838603	0.524138	0.075439	-0.361572	-0.251709	38.408687	70.485265	-166.511527
12824		-1.375390	-0.485413	6.671098	-0.358664	-2.958728	0.361600	0.063477	-0.367676	-0.259277	35.870668	69.001193	-168.997724
12825		-2.091067	-0.953478	7.078240	-0.600298	-3.147395	0.192426	0.060059	-0.370361	-0.270752	33.198536	67.448268	-171.506005
12826		-2.625542	-1.287719	7.371215	-0.718969	-3.404653	0.037399	0.040771	-0.371338	-0.284668	30.445963	65.771413	-174.055839
12827		-2.982438	-1.399164	7.714336	-0.768866	-3.707311	-0.114734	0.034424	-0.386230	-0.292480	27.688359	63.941924	-176.616542
12828		-3.250409	-1.228284	7.963353	-0.788396	-4.008858	-0.241860	0.013184	-0.381836	-0.310059	24.995417	61.936568	-179.132594
12829		-3.298070	-0.908844	8.079420	-0.815890	-4.292880	-0.354581	-0.003662	-0.380371	-0.325195	22.425417	59.761559	178.458931
12830		-3.447032	-0.430861	8.370983	-0.890833	-4.540053	-0.430620	-0.020996	-0.379150	-0.341797	19.995391	57.417079	176.210684
12831		-3.623167	0.055845	8.426354	-1.013723	-4.771706	-0.478992	-0.046875	-0.371826	-0.369141	17.713259	54.914057	174.161507
12832		-3.430913	0.290996	8.441982	-1.153710	-4.934858	-0.483491	-0.072021	-0.372070	-0.374268	15.592647	52.275751	172.349199
12833		-3.133486	0.797441	8.204512	-1.310968	-5.006697	-0.453899	-0.099365	-0.376953	-0.392822	13.644279	49.561530	170.805723
12834		-3.245558	1.134097	8.207739	-1.489125	-4.939332	-0.383486	-0.120361	-0.368652	-0.409424	11.852702	46.840927	169.548255
12835		-3.823890	1.734971	8.303531	-1.649535	-4.767437	-0.318929	-0.143311	-0.355469	-0.423584	10.197007	44.190955	168.550823
12836		-4.853803	2.120278	8.985632	-1.804227	-4.546870	-0.287708	-0.174805	-0.356445	-0.439697	8.616442	41.638953	167.749001
12837		-5.949041	2.035338	9.925245	-1.904507	-4.350915	-0.277247	-0.208496	-0.342529	-0.449463	7.104649	39.187637	167.098483
12838		-5.977409	1.296178	11.249689	-1.905871	-4.139260	-0.257580	-0.231934	-0.331055	-0.462402	5.691962	36.838469	166.578960
12839		-7.423492	1.147401	14.030981	-1.920252	-3.932638	-0.244948	-0.261719	-0.318359	-0.472168	4.352835	34.602766	166.167671
12840		-10.811968	1.875625	16.408394	-2.059127	-3.934139	-0.314267	-0.298828	-0.297607	-0.482666	2.959699	32.356025	165.782297
12841		-12.666531	1.667417	16.431212	-2.183974	-4.112250	-0.455854	-0.328613	-0.282227	-0.487061	1.498162	30.008582	165.374004
12842		-11.909404	1.152370	14.607829	-2.151730	-4.161994	-0.541743	-0.360107	-0.269043	-0.481934	0.077118	27.619941	164.985111
12843		-11.203531	1.522148	13.149380	-1.999694	-3.886339	-0.593631	-0.393311	-0.247803	-0.477783	-1.224143	25.386861	164.633845
12844		-11.864123	1.904664	12.639353	-1.820255	-3.459778	-0.580405	-0.431396	-0.230469	-0.474121	-2.388787	23.386914	164.340520
12845		-14.064221	2.206727	13.210616	-1.761539	-3.117567	-0.560327	-0.458252	-0.219727	-0.464111	-3.490073	21.583623	164.096530
12846		-16.869382	2.096896	13.718956	-1.882577	-3.001599	-0.593267	-0.484131	-0.205078	-0.455322	-4.650041	19.836409	163.867789
12847		-18.866661	0.967218	13.285179	-2.068066	-3.067987	-0.720699	-0.508301	-0.201660	-0.442871	-5.917934	18.045237	163.608140
12848		-20.250891	-0.964980	12.036753	-2.128988	-3.249891	-0.880458	-0.533691	-0.185303	-0.423584	-7.225609	16.130873	163.310271
12849		-19.439956	-1.955676	9.952111	-1.970099	-3.424980	-1.056407	-0.567627	-0.177246	-0.412842	-8.441808	14.101696	162.970175
12850		-16.890202	-0.479740	7.973967	-1.778485	-3.377106	-1.255767	-0.598389	-0.164795	-0.387939	-9.555135	12.072209	162.554942
12851		-15.342801	1.455004	6.122493	-1.734664	-3.110787	-1.514136	-0.624268	-0.169189	-0.373779	-10.653342	10.162816	162.007221
12852		-15.044628	1.738610	4.198867	-1.658826	-2.795944	-1.786129	-0.635254	-0.168945	-0.345459	-11.716531	8.387822	161.308674
12853		-15.742741	1.337053	2.518017	-1.329284	-2.449696	-2.007167	-0.657227	-0.177246	-0.337891	-12.586570	6.771248	160.476631
12854		-16.374773	1.736614	0.690963	-0.786638	-2.096531	-2.139030	-0.674805	-0.179443	-0.329590	-13.135052	5.323266	159.547944
12855		-16.682175	3.055353	-1.164927	-0.213262	-1.709519	-2.172452	-0.690918	-0.186279	-0.313477	-13.336742	4.082500	158.561289
12856		-16.945270	4.560739	-2.608295	0.245577	-1.277962	-2.107115	-0.688477	-0.198486	-0.306885	-13.258588	3.089013	157.556818
12857		-16.264794	5.879194	-3.405775	0.562263	-0.766372	-1.970202	-0.701416	-0.209473	-0.299805	-12.982769	2.402822	156.560022
12858		-14.720305	6.874644	-3.039945	0.682626	-0.178665	-1.721327	-0.700195	-0.223633	-0.298828	-12.627744	2.082063	155.624270
12859		-13.510936	7.217312	-1.393950	0.596865	0.423166	-1.401431	-0.704590	-0.230469	-0.295166	-12.315055	2.143064	154.791343
12860		-11.278806	0.502885	0.379777	1.144284	1.652404	-1.229286	-0.689209	-0.255127	-0.308105	-11.697557	2.920968	153.908588
12861		2.325194	5.697328	5.718764	1.665698	2.502131	-1.156797	-0.689209	-0.257324	-0.321533	-10.799281	4.195352	152.981080
12862		-4.094643	4.285672	16.281871	1.431627	2.133850	-0.924322	-0.677246	-0.275635	-0.334229	-10.039267	5.300498	152.240467
12863		4.440832	0.426216	10.853882	1.248293	2.012308	-0.400941	-0.658447	-0.284180	-0.343018	-9.365310	6.395732	151.821444
12864		4.334600	2.412573	7.739588	1.514961	2.416506	0.560936	-0.640625	-0.287842	-0.356201	-8.482706	7.811660	151.928822
12865		-1.552759	9.203674	9.115422	1.120127	2.869883	0.690647	-0.630371	-0.291992	-0.362549	-7.814740	9.492833	152.093154
12866		-5.269146	6.211428	12.825204	0.470221	3.106061	0.298781	-0.613770	-0.286865	-0.371582	-7.555462	11.277450	152.027587
12867		-8.081037	1.193558	14.670703	0.369669	2.988448	0.394264	-0.593750	-0.293945	-0.382324	-7.340979	13.001864	152.033542
12868		-9.943262	1.851879	14.163303	0.285348	2.555079	0.505429	-0.582764	-0.287354	-0.390625	-7.149454	14.488909	152.143236
12869		-8.464947	-2.542728	11.954791	0.184121	2.260774	0.288400	-0.573486	-0.298340	-0.400391	-7.040447	15.792029	152.151275
12870		-8.054733	-5.925775	11.610319	0.370293	2.034081	0.097720	-0.558350	-0.308594	-0.403809	-6.850179	16.954247	152.066420
12871		-8.033885	-4.250518	11.280494	0.677753	1.735216	0.084452	-0.546143	-0.301514	-0.409668	-6.480422	17.944620	151.999772
12872		-6.345283	0.225897	10.662975	0.711137	1.430980	0.131609	-0.537354	-0.303711	-0.412109	-6.074754	18.766591	151.988346
12873		-5.589169	-0.678975	10.606994	0.686772	1.253564	0.193900	-0.527344	-0.317871	-0.416016	-5.665706	19.489647	152.031501
12874		-9.232477	-3.093246	11.512055	0.941212	0.981445	0.364829	-0.520020	-0.310791	-0.422363	-5.067264	20.067874	152.200849
12875		-5.764533	1.224941	9.973468	0.826382	0.508513	0.264768	-0.518799	-0.316895	-0.425293	-4.544339	20.368067	152.339834
12876		-3.336432	0.170332	9.565129	0.750775	0.512875	0.255490	-0.514160	-0.324707	-0.426270	-4.064516	20.671017	152.476192
12877		-4.504878	-0.209916	9.757983	0.685364	0.448345	0.240468	-0.511719	-0.320557	-0.419189	-3.623364	20.933650	152.608692
12878		-4.731390	1.717341	10.373488	0.592771	0.367542	0.187300	-0.514893	-0.332520	-0.429443	-3.244020	21.149175	152.713989
12879		-4.802381	1.480854	10.388757	0.421316	0.186276	0.118589	-0.507813	-0.331543	-0.428467	-2.975753	21.256478	152.784389
12880		-3.712103	-0.232524	9.554355	0.364052	0.122920	0.093409	-0.514893	-0.336426	-0.430176	-2.744200	21.328379	152.842051
12881		-4.026488	0.369931	9.778567	0.325734	0.123274	0.072416	-0.511719	-0.337402	-0.427002	-2.539830	21.397864	152.886876
12882		-4.061837	0.460830	9.805123	0.244281	0.070627	0.042400	-0.500244	-0.338623	-0.427734	-2.387489	21.438204	152.915139
12883		-3.739504	0.007946	9.496815	0.201152	0.057544	0.025663	-0.513428	-0.335693	-0.431641	-2.264191	21.468741	152.933288
12884		-3.805286	0.064128	9.465965	0.168012	0.046193	0.024461	-0.500488	-0.336670	-0.421143	-2.159238	21.494580	152.951304
12885		-3.807881	-0.081833	9.436688	0.143722	0.036786	0.013107	-0.511475	-0.344238	-0.420166	-2.071442	21.512904	152.962324
12886		-3.786909	-0.196805	9.342435	0.122364	0.027578	0.011120	-0.504883	-0.334961	-0.426270	-1.995442	21.527762	152.972629
12887		-3.657443	-0.315724	9.266772	0.111602	0.019723	0.010638	-0.510986	-0.341309	-0.432373	-1.926450	21.536239	152.982544
12888		-3.662006	-0.264931	9.222589	0.101704	0.014937	0.010387	-0.511230	-0.338623	-0.422852	-1.862339	21.543819	152.992692
12889		-3.537110	-0.228047	9.198192	0.101959	0.016414	0.009159	-0.504395	-0.340576	-0.433105	-1.799172	21.550353	153.001784
12890		-3.540065	-0.393318	9.118225	0.103100	0.020978	0.008145	-0.510986	-0.347656	-0.421875	-1.734801	21.561325	153.010452
12891		-3.449900	-0.433722	9.024934	0.107240	0.020732	0.016307	-0.507324	-0.350830	-0.428223	-1.667010	21.570435	153.023883
12892		-3.515434	-0.321518	9.080418	0.130070	0.038739	0.010933	-0.502930	-0.353027	-0.428467	-1.586666	21.591594	153.033980
12893		-3.569486	-0.402113	9.105840	0.135969	0.037182	0.014170	-0.501465	-0.340332	-0.429443	-1.502982	21.610059	153.045852
12894		-3.490103	-0.339337	9.077036	0.147426	0.045422	0.017140	-0.512695	-0.349365	-0.427734	-1.411301	21.635102	153.059730
12895		-3.596910	-0.143595	9.112219	0.156183	0.052158	0.014589	-0.506836	-0.347168	-0.427490	-1.315987	21.662115	153.071707
12896		-3.677212	-0.116519	9.099383	0.158306	0.054780	0.013581	-0.498047	-0.351074	-0.429199	-1.218887	21.692422	153.083352
12897		-3.677590	-0.020000	9.211505	0.156804	0.047676	0.006746	-0.504883	-0.347412	-0.421875	-1.124936	21.716740	153.090652
12898		-3.793591	-0.007308	9.215178	0.149998	0.044844	0.004419	-0.505127	-0.348633	-0.430908	-1.034590	21.741218	153.096870
12899		-3.778378	0.035089	9.171229	0.146476	0.035187	-0.001443	-0.511963	-0.360352	-0.428223	-0.948341	21.758278	153.099337
12900		-3.704088	0.103609	9.242076	0.131120	0.029727	-0.007485	-0.506104	-0.347412	-0.432861	-0.871438	21.773974	153.098439
12901		-3.659166	0.042239	9.213137	0.123794	0.031715	-0.012288	-0.511475	-0.361572	-0.427246	-0.800636	21.788948	153.094298
12902		-3.642574	-0.026528	9.153296	0.118303	0.037260	-0.011671	-0.511719	-0.352295	-0.431641	-0.732033	21.808925	153.090797
12903		-3.602238	-0.146607	9.140243	0.117022	0.044184	-0.014297	-0.505859	-0.351563	-0.431152	-0.665595	21.831039	153.085359
12904		-3.679362	-0.163784	9.171909	0.119589	0.052113	-0.012580	-0.503662	-0.357666	-0.430420	-0.596488	21.859521	153.081242
12905		-3.605246	-0.107753	9.165647	0.118194	0.057476	-0.003793	-0.509521	-0.358154	-0.427979	-0.526977	21.889321	153.082264
12906		-3.667259	-0.031208	9.238233	0.114927	0.066980	-0.005380	-0.502930	-0.359375	-0.426025	-0.458894	21.926360	153.082581
12907		-3.691112	-0.007047	9.209641	0.096663	0.073597	-0.005168	-0.501465	-0.363037	-0.435059	-0.402037	21.965388	153.082752
12908		-3.680945	-0.013091	9.232832	0.092060	0.082236	-0.004402	-0.508545	-0.358398	-0.437256	-0.346821	22.011165	153.083693
12909		-3.744757	0.035031	9.175334	0.083156	0.081884	-0.005624	-0.504883	-0.362061	-0.440430	-0.297788	22.054939	153.083633
12910		-3.788610	0.028612	9.188817	0.079622	0.079725	-0.006164	-0.498779	-0.362061	-0.430664	-0.250070	22.099266	153.083578
12911		-3.812618	-0.004208	9.152165	0.072056	0.077603	-0.004680	-0.503906	-0.358398	-0.429688	-0.207145	22.140590	153.084190
12912		-3.778056	-0.034876	9.101590	0.071641	0.069669	-0.002327	-0.502441	-0.361816	-0.438232	-0.163068	22.179164	153.086602
12913		-3.741085	-0.050559	9.103821	0.075271	0.066805	-0.001916	-0.498047	-0.358643	-0.431885	-0.117621	22.214304	153.089010
12914		-3.709204	-0.014916	9.137229	0.080998	0.074108	0.002728	-0.500732	-0.363525	-0.434082	-0.066976	22.255421	153.094612
12915		-3.661512	0.060592	9.203881	0.073511	0.084726	0.009479	-0.501709	-0.368408	-0.431152	-0.019838	22.300831	153.104132
12916		-3.724062	0.122045	9.197990	0.065279	0.096358	-0.000449	-0.498535	-0.362305	-0.432617	0.021091	22.354679	153.107841
12917		-3.630072	0.068684	9.230358	0.056217	0.109914	-0.000277	-0.496338	-0.369385	-0.430176	0.056068	22.414512	153.111404
12918		-3.733331	0.099667	9.187238	0.045168	0.126065	0.000915	-0.490723	-0.353027	-0.431885	0.085845	22.485365	153.116058
12919		-3.693125	0.087654	9.139909	0.038333	0.133367	-0.001263	-0.494629	-0.367676	-0.431641	0.110386	22.558632	153.119105
12920		-3.687708	-0.031274	9.146700	0.042135	0.145927	-0.000703	-0.495850	-0.371094	-0.427979	0.138095	22.640854	153.122859
12921		-3.666367	-0.028757	9.072422	0.045069	0.157915	0.004820	-0.490723	-0.368408	-0.431885	0.168007	22.728174	153.129805
12922		-3.787680	-0.076346	9.038836	0.059461	0.165510	0.008020	-0.494629	-0.370117	-0.430176	0.207800	22.821584	153.139122
12923		-3.853304	-0.027297	8.953208	0.068143	0.163204	0.011645	-0.492188	-0.372559	-0.435059	0.252660	22.911911	153.150461
12924		-3.811450	-0.044745	9.055155	0.077521	0.162599	0.016656	-0.494629	-0.370605	-0.437012	0.304981	23.003614	153.165314
12925		-3.805341	0.006471	9.058753	0.087847	0.165137	0.021815	-0.492188	-0.363770	-0.441895	0.363721	23.094994	153.183186
12926		-3.771249	-0.112064	9.020488	0.090715	0.164377	0.022098	-0.488525	-0.370361	-0.432861	0.425061	23.187660	153.201655
12927		-3.673116	-0.070715	9.116559	0.090393	0.178219	0.030915	-0.494385	-0.374512	-0.432617	0.487672	23.286459	153.225503
12928		-3.733238	0.030592	9.162984	0.089570	0.200704	0.038368	-0.499268	-0.373535	-0.432861	0.552604	23.399800	153.254573
12929		-3.869579	0.089580	9.187606	0.079501	0.214951	0.044471	-0.487549	-0.373779	-0.430420	0.612634	23.519517	153.287398
12930		-3.751556	0.091817	9.156653	0.075182	0.227649	0.053897	-0.485352	-0.373047	-0.436279	0.673518	23.648123	153.326682
12931		-3.871142	0.301947	9.202652	0.076562	0.254075	0.051304	-0.481445	-0.369385	-0.444824	0.733978	23.790143	153.364426
12932		-3.915855	0.283327	9.234630	0.073089	0.273688	0.049245	-0.482178	-0.374023	-0.429443	0.792977	23.945067	153.401563
12933		-3.739226	0.266613	9.264044	0.063623	0.301129	0.052612	-0.476074	-0.378662	-0.432861	0.846882	24.113963	153.440956
12934		-3.667432	0.269369	9.298745	0.054084	0.342598	0.057066	-0.480469	-0.367920	-0.431396	0.897664	24.308208	153.484094
12935		-3.530961	0.217868	9.416783	0.044787	0.404731	0.068905	-0.480957	-0.374023	-0.444092	0.945882	24.536242	153.535237
12936		-3.566702	0.073503	9.560198	0.046919	0.484133	0.074355	-0.473145	-0.372803	-0.434570	0.998288	24.811286	153.591327
12937		-3.558608	0.081903	9.529872	0.033309	0.576878	0.074350	-0.470703	-0.369385	-0.438721	1.042927	25.137801	153.648510
12938		-3.475081	0.287696	9.768840	0.017926	0.683908	0.068221	-0.458496	-0.372314	-0.445068	1.078970	25.527214	153.703834
12939		-3.358491	0.152054	9.823179	0.021406	0.842361	0.064758	-0.466797	-0.374512	-0.440186	1.116634	26.005846	153.759017
12940		-3.574963	0.365190	9.861042	-0.010456	1.001200	0.065844	-0.447510	-0.374512	-0.449951	1.138771	26.576899	153.817782
12941		-3.286558	0.452960	10.041574	-0.031182	1.171958	0.043862	-0.434082	-0.374023	-0.447266	1.143557	27.244540	153.864713
12942		-3.603540	0.584625	10.038708	-0.075276	1.371031	0.018943	-0.438232	-0.372314	-0.450928	1.118268	28.027870	153.898640
12943		-3.365540	0.463405	10.138432	-0.110182	1.563810	0.000771	-0.430176	-0.375977	-0.449951	1.067877	28.920491	153.922402
12944		-3.595253	0.812196	10.082251	-0.144382	1.778439	-0.018512	-0.409424	-0.376221	-0.454590	0.993732	29.937521	153.935568
12945		-3.686114	0.937054	10.040006	-0.170865	1.982449	-0.033134	-0.395508	-0.368164	-0.462158	0.899092	31.070343	153.939213
12946		-3.547004	0.742911	10.013633	-0.172389	2.202363	-0.070384	-0.386230	-0.371582	-0.465088	0.791399	32.330565	153.918172
12947		-3.257325	0.646352	9.964157	-0.121934	2.472293	-0.068386	-0.362793	-0.369629	-0.463867	0.711740	33.744292	153.897624
12948		-3.275883	0.460163	9.740195	-0.083666	2.772172	-0.047945	-0.354004	-0.370117	-0.471436	0.662821	35.330571	153.892110
12949		-3.401035	0.401160	9.840694	-0.025055	3.103588	0.004755	-0.331543	-0.363770	-0.459717	0.669487	37.105464	153.925297
12950		-3.558149	0.079316	9.896224	0.035897	3.441375	0.071351	-0.295166	-0.368164	-0.470459	0.746413	39.074074	154.013182
12951		-3.521839	-0.133116	9.549740	0.092365	3.819592	0.136329	-0.284180	-0.376221	-0.472168	0.896003	41.258007	154.160831
12952		-3.893851	-0.316662	9.262717	0.203361	4.281410	0.171314	-0.245850	-0.375488	-0.467285	1.148210	43.706158	154.358596
12953		-4.421050	-0.809399	9.664693	0.312290	4.765137	0.179621	-0.211670	-0.383789	-0.468506	1.498296	46.430061	154.598252
12954		-5.581279	-1.498469	9.987091	0.387266	5.237078	0.235282	-0.175781	-0.385254	-0.467285	1.976681	49.422133	154.940953
12955		-8.329700	-1.799719	10.575135	0.367626	5.618347	0.268686	-0.147705	-0.390381	-0.466309	2.539856	52.629391	155.392359
12956		-10.852218	-3.284086	11.159046	0.351002	5.746332	0.382700	-0.100342	-0.387451	-0.447266	3.285175	55.903026	156.060204
12957		-12.085497	-1.263016	11.820139	0.410833	5.680262	0.549626	-0.067383	-0.400635	-0.447998	4.361626	59.126081	157.055130
12958		-13.389052	-0.832640	12.518100	0.375356	5.531779	0.627666	-0.025879	-0.396484	-0.435547	5.718933	62.248104	158.362670
12959		-14.662359	-0.405522	12.472709	0.282852	5.280219	0.649523	0.001709	-0.399658	-0.414063	7.334668	65.208305	159.981620
12960		-13.481146	-0.343224	13.215807	0.090083	4.965736	0.673563	0.031982	-0.405762	-0.395752	9.223674	67.964321	161.981605
12961		-10.438881	-1.286387	12.488764	-0.084805	4.663170	0.754173	0.055908	-0.409424	-0.393311	11.577844	70.511118	164.549050
12962		-7.155452	-1.882564	11.062949	-0.221284	4.472320	0.890522	0.092041	-0.414307	-0.376221	14.726220	72.886194	167.996422
12963		-3.907673	-2.303034	9.619001	-0.313343	4.347118	1.038130	0.109619	-0.415527	-0.357178	19.064511	75.094348	172.694031
12964		0.097599	-1.829841	6.735672	-0.382513	4.291525	1.148284	0.135254	-0.422607	-0.343018	25.055516	77.123245	179.088682
12965		-0.317252	1.293095	7.286836	-0.559068	4.196700	1.372397	0.151123	-0.417480	-0.323730	33.497185	78.836862	-171.956092
12966		-17.591590	0.218965	17.474576	-0.978332	2.885434	1.584491	0.158203	-0.422607	-0.301514	42.022564	79.583901	-162.708628
12967		-14.092620	-4.152318	19.147051	-1.344004	0.600122	1.431165	0.173584	-0.432129	-0.302734	45.698110	79.258768	-158.187676
12968		-8.632290	-6.444172	14.900202	-1.022562	-1.105892	1.306524	0.157227	-0.422119	-0.320801	45.458789	78.273745	-157.835170
12969		-3.931411	-6.754769	10.668429	-0.443903	-2.205198	1.261578	0.142822	-0.432129	-0.326416	43.529005	76.861098	-159.552144
12970		-0.991205	-5.372041	8.203411	0.116321	-2.657363	1.301514	0.127930	-0.438721	-0.334717	41.645328	75.227966	-161.562023
12971		-0.231487	-3.144923	6.918315	0.415871	-2.777767	1.300827	0.107910	-0.448730	-0.343994	40.173509	73.532274	-163.338976
12972		-0.091990	-1.449648	6.173891	0.397179	-2.809141	1.224287	0.084473	-0.453369	-0.345459	38.841255	71.836320	-164.972749
12973		-0.377444	-0.434980	5.888869	0.138451	-2.860173	1.070950	0.072998	-0.459961	-0.365723	37.388454	70.163502	-166.594475
12974		-0.852449	-0.081226	5.948227	-0.236704	-2.953154	0.877239	0.043945	-0.463379	-0.366699	35.645407	68.496131	-168.312038
12975		-1.297889	-0.433679	6.099237	-0.596021	-3.084934	0.665567	0.026367	-0.455811	-0.373291	33.626636	66.820375	-170.126720
12976		-1.709415	-1.209027	6.453285	-0.843425	-3.243745	0.443881	0.005127	-0.448975	-0.389648	31.377696	65.107270	-172.059223
12977		-2.616929	-1.780659	7.117664	-0.952591	-3.459061	0.223536	-0.011963	-0.457764	-0.398438	29.001898	63.325096	-174.092783
12978		-3.525916	-1.978079	7.799997	-0.960527	-3.765808	0.002378	-0.041992	-0.444580	-0.408691	26.528061	61.405610	-176.262648
12979		-4.060160	-1.796390	8.197438	-0.919773	-4.136833	-0.213595	-0.071777	-0.444336	-0.419678	24.031914	59.309965	-178.529395
12980		-3.712689	-1.365050	7.920302	-0.877502	-4.480086	-0.405138	-0.097656	-0.432861	-0.430420	21.577153	57.023440	179.174937
12981		-2.684381	-0.808214	7.526354	-0.877169	-4.681145	-0.516859	-0.129639	-0.430908	-0.430908	19.291286	54.608996	177.018196
12982		-2.093649	0.047571	7.767289	-0.972483	-4.709917	-0.553358	-0.161865	-0.409424	-0.437500	17.189333	52.134614	175.095602
12983		-2.854469	1.358982	8.372180	-1.207152	-4.683292	-0.520914	-0.203125	-0.403320	-0.437744	15.227989	49.637078	173.457944
12984		-3.448759	2.009492	8.380709	-1.508533	-4.671057	-0.431523	-0.235596	-0.397461	-0.431885	13.348565	47.093627	172.102294
12985		-3.851020	1.970272	8.317720	-1.756776	-4.577116	-0.266564	-0.264893	-0.376221	-0.431641	11.609069	44.562230	171.078966
12986		-4.719873	1.878425	8.478766	-1.885153	-4.395302	-0.132659	-0.300293	-0.360352	-0.427246	10.011286	42.091729	170.327191
12987		-5.630852	1.589236	9.178242	-1.883442	-4.174086	-0.031438	-0.331299	-0.335449	-0.423828	8.585572	39.730849	169.796171
12988		-6.672431	1.158778	11.137160	-1.833830	-3.971166	-0.004651	-0.362061	-0.322510	-0.414795	7.280767	37.466472	169.391772
12989		-8.772602	1.303481	13.697149	-1.876253	-3.895738	-0.068384	-0.386963	-0.306641	-0.394531	5.990706	35.250365	169.026947
12990		-11.181006	1.256056	15.207993	-2.057371	-3.992514	-0.273525	-0.418701	-0.284424	-0.384521	4.562505	32.975698	168.585672
12991		-12.585583	0.023636	15.064460	-2.183742	-4.123046	-0.604638	-0.443604	-0.275146	-0.366943	3.003437	30.638030	167.999325
12992		-13.006360	-1.029186	14.319732	-2.095094	-4.131422	-0.975598	-0.468750	-0.258545	-0.354980	1.434611	28.283313	167.254389
12993		-14.304962	-0.754646	14.175068	-1.890756	-4.000159	-1.345700	-0.501465	-0.244873	-0.332275	-0.055145	25.997635	166.360881
12994		-16.314463	0.248658	14.450985	-1.721711	-3.916964	-1.679206	-0.523438	-0.233398	-0.317139	-1.474625	23.730212	165.335897
12995		-17.557449	1.130822	14.311031	-1.642229	-3.962247	-1.948082	-0.544434	-0.237305	-0.293213	-2.841038	21.416529	164.224458
12996		-17.553839	1.606903	13.256368	-1.581320	-4.058182	-2.155426	-0.557129	-0.231934	-0.264893	-4.149600	19.010739	163.064759
12997		-16.542461	1.319339	11.528185	-1.425363	-4.065980	-2.271686	-0.590088	-0.231201	-0.242432	-5.318520	16.578711	161.908310
12998		-15.678725	0.919402	9.751860	-1.142923	-3.950422	-2.292538	-0.592773	-0.245117	-0.221680	-6.270569	14.185673	160.793179
12999		-15.314407	0.636880	8.291608	-0.816648	-3.732896	-2.222725	-0.606934	-0.255859	-0.208740	-6.972332	11.911508	159.751698
13000		-15.587393	0.502218	6.748772	-0.539183	-3.468336	-2.066210	-0.613281	-0.266846	-0.196533	-7.458850	9.783935	158.813473
13001		-15.503371	1.454119	4.998556	-0.416106	-3.135118	-1.835121	-0.621094	-0.278809	-0.179688	-7.819985	7.861114	158.004421
13002		-14.984772	3.381730	3.156184	-0.558821	-2.664059	-1.568673	-0.624512	-0.284424	-0.163330	-8.224056	6.218119	157.325936
13003		-14.348183	4.883474	1.267407	-0.915211	-2.047345	-1.328095	-0.625732	-0.295898	-0.162109	-8.803238	4.942736	156.748159
13004		-14.017889	5.419371	-0.414884	-1.211434	-1.349099	-1.146823	-0.626221	-0.295166	-0.156006	-9.538745	4.070151	156.224819
13005		-14.563999	5.385528	-1.218458	-1.291353	-0.678416	-1.012222	-0.633545	-0.297119	-0.154541	-10.310711	3.584794	155.723323
13006		-15.772769	4.698929	-1.099348	-1.123627	-0.134550	-0.937242	-0.634277	-0.291992	-0.162598	-10.985419	3.406418	155.212737
13007		-16.475193	3.607978	-0.811838	-0.711971	0.225629	-0.875567	-0.622314	-0.300293	-0.156738	-11.422613	3.433331	154.698561
13008		-15.644561	2.898966	-0.477865	-0.139219	0.482334	-0.794783	-0.620850	-0.315918	-0.162109	-11.532426	3.611678	154.200275
13009		-12.685507	-0.765110	-1.274520	0.828739	1.005169	-0.803520	-0.604248	-0.307617	-0.162109	-11.093871	4.083679	153.638560
13010		-4.056781	1.122828	1.629381	2.285709	2.365080	-0.825877	-0.604492	-0.325439	-0.157715	-9.841836	5.329578	152.928531
13011		-3.997624	4.944453	13.954859	1.952658	2.110375	-0.793202	-0.588867	-0.339600	-0.165527	-8.787626	6.446671	152.284843
13012		0.027116	-1.415193	13.940859	1.692720	1.848297	-0.757790	-0.576416	-0.358398	-0.161377	-7.887284	7.431002	151.701198
13013		3.227985	-1.198526	8.555650	1.850971	1.926662	-0.165396	-0.571777	-0.363770	-0.158936	-6.857777	8.510915	151.467098
13014		3.008410	4.827602	6.478985	1.668770	2.427252	0.048692	-0.560059	-0.361328	-0.161621	-5.920611	9.895149	151.342119
13015		-0.890607	8.240683	9.497145	0.973738	2.932468	-0.256684	-0.545410	-0.375244	-0.169922	-5.419699	11.549782	151.028000
13016		-5.371595	7.568636	13.005815	0.338077	3.060878	-0.392947	-0.522949	-0.373779	-0.177979	-5.308947	13.273599	150.634437
13017		-8.246703	7.772568	14.362196	0.242224	2.832067	0.065319	-0.518555	-0.363770	-0.182129	-5.195733	14.890046	150.523520
13018		-9.127470	6.479146	14.146440	0.063945	2.424624	0.406754	-0.494141	-0.373291	-0.183350	-5.125656	16.293704	150.638867
13019		-8.521668	-1.859501	12.223627	-0.096168	2.128065	0.261791	-0.492432	-0.366943	-0.187256	-5.166062	17.518707	150.684553
13020		-8.001933	-7.557613	11.034452	0.151866	1.890304	0.084402	-0.482422	-0.369873	-0.184814	-5.090837	18.601334	150.637694
13021		-7.434398	-4.883101	10.536649	0.474989	1.642855	0.060743	-0.473145	-0.376221	-0.181885	-4.832160	19.539263	150.592131
13022		-9.023651	-2.280235	11.823800	0.810592	1.340003	0.233738	-0.466553	-0.376953	-0.180664	-4.337894	20.315171	150.673035
13023		-10.692922	0.196990	11.716907	0.826367	0.693430	0.278221	-0.468018	-0.375732	-0.190918	-3.812712	20.719904	150.816535
13024		-2.987312	-0.008431	7.174150	0.873784	0.465566	0.212050	-0.463135	-0.385010	-0.187500	-3.268415	20.993968	150.932845
13025		-4.543354	-0.103402	10.149839	0.668894	0.454121	0.200541	-0.464600	-0.388428	-0.189453	-2.843402	21.256955	151.044813
13026		-5.214030	1.716497	10.419425	0.528760	0.290467	0.150890	-0.462402	-0.385254	-0.190674	-2.505928	21.427534	151.133359
13027		-4.492155	1.511894	10.104587	0.406827	0.162945	0.094861	-0.461670	-0.388428	-0.187500	-2.250192	21.520068	151.191356
13028		-4.067143	0.185126	9.505363	0.331401	0.086263	0.059407	-0.452881	-0.392822	-0.195068	-2.043579	21.571076	151.230162
13029		-3.585933	-0.031532	9.393920	0.294709	0.077502	0.044643	-0.460449	-0.382568	-0.172607	-1.862402	21.613299	151.259812
13030		-3.745220	0.319470	9.468818	0.253339	0.073458	0.029475	-0.451904	-0.396973	-0.188477	-1.706993	21.656218	151.280789
13031		-3.724180	0.156686	9.389443	0.220283	0.069566	0.012979	-0.458984	-0.391113	-0.180176	-1.575477	21.693226	151.291328
13032		-3.682560	0.159619	9.367155	0.197692	0.069584	0.003246	-0.455322	-0.388184	-0.183838	-1.457750	21.733435	151.296431
13033		-3.850113	0.323825	9.510166	0.160322	0.051066	-0.005051	-0.459961	-0.394775	-0.188477	-1.364531	21.759553	151.296297
13034		-3.787499	-0.081686	9.302708	0.136519	0.032279	-0.017865	-0.460449	-0.393799	-0.191162	-1.286380	21.778097	151.289066
13035		-3.824188	-0.027314	9.302401	0.129078	0.022230	-0.011431	-0.461914	-0.393066	-0.186523	-1.212350	21.787618	151.285464
13036		-3.812478	-0.116705	9.238247	0.118104	0.012621	-0.010613	-0.455322	-0.390137	-0.178955	-1.142968	21.795010	151.283003
13037		-3.729673	-0.152129	9.270991	0.103502	0.005853	-0.010214	-0.452148	-0.397461	-0.186523	-1.083232	21.795171	151.280373
13038		-3.693012	-0.196409	9.194089	0.099286	0.004386	-0.006984	-0.460205	-0.396973	-0.189941	-1.023759	21.797893	151.280255
13039		-3.717141	-0.235049	9.207728	0.094458	0.003943	-0.010262	-0.462891	-0.400879	-0.177490	-0.969209	21.796965	151.277616
13040		-3.688885	-0.287316	9.178561	0.096687	0.005323	-0.007382	-0.460205	-0.400879	-0.186279	-0.911328	21.800220	151.277240
13041		-3.689199	-0.278787	9.178697	0.091291	0.001696	0.002109	-0.458740	-0.398438	-0.178955	-0.855750	21.798118	151.282253
13042		-3.728035	-0.231443	9.202863	0.089710	0.007164	0.000677	-0.455322	-0.393555	-0.183105	-0.800042	21.802494	151.286826
13043		-3.709440	-0.179885	9.212690	0.082515	0.012894	-0.000221	-0.458740	-0.396484	-0.182129	-0.750062	21.806781	151.290304
13044		-3.688937	0.054804	9.250001	0.073950	0.017703	0.001263	-0.452637	-0.395020	-0.178223	-0.703288	21.817191	151.295156
13045		-3.657833	0.086963	9.309119	0.055823	0.022962	-0.004982	-0.456055	-0.403564	-0.186035	-0.669717	21.827209	151.295629
13046		-3.692836	0.191048	9.291968	0.035113	0.032952	-0.007624	-0.458740	-0.392334	-0.185791	-0.647251	21.846284	151.294906
13047		-3.733402	0.163329	9.254465	0.016239	0.038953	-0.010083	-0.460938	-0.402100	-0.183838	-0.637571	21.865431	151.292127
13048		-3.677673	0.099580	9.179029	0.002600	0.036670	-0.010679	-0.452148	-0.405273	-0.179688	-0.634413	21.886613	151.289511
13049		-3.712647	-0.023869	9.178803	-0.004056	0.049165	-0.010099	-0.458984	-0.401855	-0.182373	-0.636392	21.911610	151.286654
13050		-3.716218	-0.219983	9.073167	-0.007375	0.048356	-0.011861	-0.452881	-0.399414	-0.180176	-0.639242	21.939476	151.283232
13051		-3.710344	-0.198507	9.076559	0.007511	0.037192	-0.007436	-0.458740	-0.397461	-0.177979	-0.633950	21.957631	151.282101
13052		-3.728458	-0.111735	9.085226	0.009481	0.037103	-0.003303	-0.456299	-0.394043	-0.182617	-0.625152	21.979105	151.284041
13053		-3.748572	-0.208341	9.066470	0.016944	0.032865	-0.003646	-0.464355	-0.401611	-0.175781	-0.613566	21.994805	151.285287
13054		-3.695732	-0.147847	9.059074	0.025510	0.025402	-0.000013	-0.455322	-0.387207	-0.186035	-0.594797	22.009597	151.289342
13055		-3.717081	-0.062594	9.091931	0.029766	0.024235	0.001836	-0.457764	-0.399414	-0.182861	-0.574571	22.020384	151.294041
13056		-3.707052	-0.091939	9.088565	0.030181	0.024464	0.004472	-0.454590	-0.402100	-0.188965	-0.552081	22.034660	151.300883
13057		-3.702350	-0.139107	9.056510	0.040062	0.023044	0.005794	-0.454102	-0.402832	-0.186035	-0.525029	22.044783	151.308046
13058		-3.711162	0.041725	9.130379	0.036534	0.027113	0.014397	-0.460205	-0.393066	-0.181396	-0.496598	22.060619	151.321020
13059		-3.700559	0.027773	9.179355	0.029972	0.030837	0.000641	-0.454102	-0.402832	-0.178467	-0.476532	22.075175	151.324966
13060		-3.718636	-0.009818	9.144456	0.025626	0.034457	0.003963	-0.449707	-0.397461	-0.189453	-0.456767	22.095156	151.331471
13061		-3.721648	-0.007536	9.143233	0.022812	0.031419	-0.000339	-0.451660	-0.403809	-0.180420	-0.441026	22.110039	151.334820
13062		-3.724626	-0.005606	9.142021	0.020349	0.033732	-0.001941	-0.460449	-0.402588	-0.179443	-0.425644	22.129570	151.337691
13063		-3.739914	0.028192	9.143171	0.017022	0.032912	-0.003702	-0.460693	-0.400146	-0.181885	-0.414001	22.145293	151.338962
13064		-3.728075	-0.056678	9.132254	0.016393	0.031236	-0.005104	-0.450684	-0.399170	-0.181152	-0.401608	22.163375	151.339900
13065		-3.758300	-0.063120	9.099760	0.024040	0.033583	-0.006613	-0.450195	-0.407471	-0.183838	-0.386621	22.179470	151.339375
13066		-3.739272	-0.071749	9.101149	0.017959	0.030934	-0.003613	-0.459229	-0.396484	-0.184082	-0.372981	22.197382	151.341246
13067		-3.710168	-0.058335	9.107652	0.025600	0.025471	-0.000053	-0.451660	-0.405762	-0.180176	-0.355550	22.208854	151.344822
13068		-3.753987	0.037206	9.137369	0.028315	0.032435	-0.004765	-0.454834	-0.403076	-0.183105	-0.336246	22.227616	151.345982
13069		-3.752466	0.042931	9.112396	0.026541	0.031300	-0.005028	-0.451904	-0.402344	-0.179932	-0.319445	22.242409	151.346467
13070		-3.748494	-0.005330	9.080126	0.030349	0.035046	-0.005759	-0.459961	-0.405762	-0.177979	-0.299198	22.262659	151.347019
13071		-3.734723	-0.031349	9.052853	0.036040	0.029672	-0.006334	-0.456787	-0.403076	-0.191406	-0.277255	22.276516	151.346711
13072		-3.737475	-0.027875	9.051728	0.046403	0.031179	-0.007483	-0.453125	-0.401611	-0.184570	-0.248204	22.294542	151.346222
13073		-3.701220	-0.063058	9.027367	0.047146	0.022607	-0.006190	-0.455078	-0.397949	-0.179688	-0.219851	22.304352	151.346035
13074		-3.676469	-0.176592	9.014804	0.064317	0.029704	0.000105	-0.457764	-0.404541	-0.176758	-0.178748	22.321544	151.350266
13075		-3.616089	-0.146948	9.028904	0.080467	0.034899	0.002356	-0.456055	-0.400879	-0.184326	-0.129294	22.338410	151.355367
13076		-3.607496	-0.170929	9.025383	0.096248	0.046257	0.011055	-0.459717	-0.400146	-0.185303	-0.067328	22.365078	151.366386
13077		-3.628356	-0.117507	9.101951	0.098648	0.059413	0.012750	-0.455322	-0.402344	-0.180664	-0.004989	22.395984	151.377957
13078		-3.604467	-0.027015	9.166677	0.098800	0.068526	0.016672	-0.455811	-0.398438	-0.177002	0.059785	22.435368	151.392519
13079		-3.529119	-0.077386	9.146333	0.096419	0.090230	0.019033	-0.448242	-0.404785	-0.187256	0.122392	22.483901	151.408097
13080		-3.497261	-0.161101	9.112941	0.098693	0.116191	0.025902	-0.447510	-0.398193	-0.181396	0.189382	22.550521	151.428562
13081		-3.531181	-0.140640	9.105658	0.102896	0.146012	0.027848	-0.446533	-0.401855	-0.179932	0.257939	22.630962	151.449882
13082		-3.822089	-0.015523	9.136989	0.104449	0.158624	0.034464	-0.456055	-0.405518	-0.173828	0.330431	22.721788	151.475984
13083		-3.792872	0.101248	9.178660	0.098423	0.159964	0.028352	-0.457031	-0.412109	-0.175537	0.396721	22.810172	151.497912
13084		-3.742189	0.079876	9.181264	0.085988	0.168769	0.035565	-0.447510	-0.397949	-0.181396	0.459095	22.906739	151.525005
13085		-3.806626	-0.036434	9.098455	0.078040	0.176604	0.034345	-0.442627	-0.410156	-0.177734	0.515354	23.004584	151.550988
13086		-3.835044	0.004231	9.093405	0.076680	0.179630	0.037904	-0.442383	-0.404541	-0.181396	0.573167	23.107292	151.579850
13087		-3.749467	0.011963	9.132248	0.076123	0.183175	0.041568	-0.449951	-0.404297	-0.188721	0.630298	23.208811	151.610629
13088		-3.645594	-0.047625	9.191489	0.077713	0.202315	0.049367	-0.445557	-0.409912	-0.174561	0.691784	23.324367	151.647070
13089		-3.437324	-0.231350	9.231637	0.087832	0.233397	0.057001	-0.441650	-0.406006	-0.180420	0.759836	23.454486	151.688172
13090		-3.407013	-0.210033	9.436803	0.092044	0.289204	0.086826	-0.442383	-0.409668	-0.180420	0.839460	23.619386	151.749144
