// General information: 
//  MT Manager version: 2022.2.0 
//  XDA version: 2022.2.0 build 7381 rev 124627 built on 2023-07-19
// Device information: 
//  DeviceId: 00B4BCF6
//  ProductCode: MTW2-3A7G6
//  Firmware Version: 4.6.0
//  Hardware Version: 2.0.0
// Device settings: 
//  Filter Profile: human(46.1)
//  Option Flags: Orientation Smoother Disabled, Position/Velocity Smoother Disabled, Continuous Zero Rotation Update Disabled, AHS Disabled, ICC Disabled
// Coordinate system: ENU
PacketCounter	SampleTimeFine	Acc_X	Acc_Y	Acc_Z	Gyr_X	Gyr_Y	Gyr_Z	Mag_X	Mag_Y	Mag_Z	Roll	Pitch	Yaw
04209		-4.201998	1.083275	8.860726	-0.000444	0.002880	-0.003774	-0.655518	-0.430908	-0.419434	7.196251	25.017692	127.121581
04210		-4.199793	1.059491	8.866495	-0.000212	-0.001997	-0.003186	-0.651123	-0.427246	-0.424316	7.198040	25.013361	127.122234
04211		-4.204225	1.106705	8.854989	0.002634	-0.001618	-0.002107	-0.651123	-0.419434	-0.427734	7.201276	25.009669	127.123031
04212		-4.167434	1.085953	8.859232	-0.002769	-0.002006	-0.000884	-0.652344	-0.430176	-0.417969	7.202210	25.005167	127.125126
04213		-4.203932	1.106493	8.855155	0.001211	-0.001808	-0.002646	-0.652344	-0.426514	-0.426270	7.204460	25.001426	127.125877
04214		-4.152622	1.106736	8.836067	0.001855	-0.003524	-0.003872	-0.648926	-0.422363	-0.421387	7.207200	24.996276	127.125977
04215		-4.182144	1.056598	8.849385	0.001289	-0.003433	-0.002451	-0.652100	-0.422607	-0.419922	7.209495	24.991610	127.126770
04216		-4.185561	1.112042	8.871460	0.000432	-0.003714	-0.004411	-0.640137	-0.422607	-0.420898	7.211270	24.986390	127.126516
04217		-4.184086	1.080054	8.843781	0.000489	0.001535	-0.001617	-0.655518	-0.418213	-0.422119	7.213492	24.984509	127.128328
04218		-4.168696	1.109264	8.853965	0.001856	-0.003524	-0.003872	-0.651123	-0.425781	-0.415283	7.216232	24.979359	127.128428
04219		-4.166213	1.085730	8.859833	0.002634	-0.001617	-0.002107	-0.647461	-0.422607	-0.420410	7.219425	24.975653	127.129651
04220		-4.186129	1.103715	8.838106	-0.001501	0.001436	-0.000736	-0.645996	-0.429443	-0.425293	7.221239	24.973096	127.132111
04221		-4.185251	1.111932	8.871620	0.000644	-0.001717	-0.001225	-0.644531	-0.431152	-0.425293	7.223568	24.969342	127.133706
04222		-4.202810	1.106310	8.855711	0.001134	-0.000182	-0.002842	-0.646973	-0.423584	-0.424316	7.226278	24.966017	127.134716
04223		-4.166089	1.085556	8.859913	-0.000779	-0.001907	-0.001765	-0.661377	-0.422852	-0.414795	7.227656	24.962210	127.135906
04224		-4.166902	1.077175	8.826449	0.001701	-0.000272	-0.004264	-0.650879	-0.417969	-0.425293	7.230312	24.958936	127.136017
04225		-4.168266	1.109060	8.854193	0.001778	-0.001898	-0.004068	-0.655273	-0.417969	-0.416504	7.232468	24.955190	127.136125
04226		-4.185683	1.103446	8.838350	0.000722	-0.003342	-0.001029	-0.645996	-0.427490	-0.417480	7.235316	24.949938	127.138019
04227		-4.150376	1.114602	8.870268	-0.000367	0.001254	-0.003578	-0.641846	-0.417480	-0.418945	7.236511	24.947981	127.138500
04228		-4.167211	1.117252	8.887794	0.003124	-0.000082	-0.003724	-0.653564	-0.427734	-0.418213	7.240131	24.944777	127.138964
04229		-4.133885	1.111784	8.852602	-0.001868	0.002690	-0.004313	-0.651855	-0.427979	-0.422119	7.240331	24.943719	127.139149
04230		-4.150261	1.122392	8.903480	-0.002101	0.007567	-0.004901	-0.654785	-0.417969	-0.427002	7.240904	24.944947	127.139484
04231		-4.216645	1.052326	8.851101	-0.001868	0.002690	-0.004314	-0.655518	-0.430420	-0.423096	7.241098	24.943866	127.139700
04232		-4.184734	1.078770	8.843632	0.002557	0.000009	-0.002303	-0.645264	-0.425537	-0.419434	7.244772	24.940611	127.141062
04233		-4.169640	1.107888	8.853693	-0.002512	0.004406	-0.003088	-0.647217	-0.423096	-0.412354	7.245013	24.940424	127.141781
04234		-4.205005	1.096402	8.821778	-0.001345	-0.001816	-0.000344	-0.649170	-0.427734	-0.420410	7.246907	24.935989	127.144225
04235		-4.167472	1.083882	8.859468	-0.000367	0.001254	-0.003578	-0.646973	-0.428955	-0.420166	7.248129	24.934043	127.144529
04236		-4.169853	1.107389	8.853655	0.001134	-0.000181	-0.002842	-0.646484	-0.424561	-0.418701	7.250838	24.930718	127.145537
04237		-4.187470	1.101603	8.837734	-0.002279	-0.000471	-0.002501	-0.656494	-0.414063	-0.421387	7.251204	24.927738	127.146352
04238		-4.169839	1.106842	8.853730	-0.003135	-0.000752	-0.004462	-0.648438	-0.423340	-0.421875	7.251021	24.924206	127.146299
04239		-4.168889	1.114750	8.887321	-0.001067	-0.002278	-0.005147	-0.653320	-0.426758	-0.422852	7.251258	24.920359	127.145904
04240		-4.186430	1.108892	8.871444	-0.000856	-0.000281	-0.001961	-0.653564	-0.424316	-0.413574	7.253056	24.916913	127.147456
04241		-4.152061	1.111694	8.869844	-0.001423	-0.000190	-0.000540	-0.648438	-0.429199	-0.428467	7.254418	24.913890	127.149532
04242		-4.187287	1.100208	8.837994	-0.001145	-0.000652	-0.005343	-0.643799	-0.425537	-0.427002	7.255145	24.910478	127.148934
04243		-4.152122	1.111057	8.869896	-0.003213	0.000874	-0.004657	-0.654297	-0.423340	-0.411133	7.254468	24.908463	127.148588
04244		-4.150745	1.078761	8.842194	-0.001712	-0.000561	-0.003922	-0.643066	-0.416992	-0.420898	7.255248	24.905000	127.148889
04245		-4.186465	1.107392	8.871615	-0.001634	-0.002187	-0.003726	-0.650635	-0.424072	-0.419189	7.255559	24.901098	127.149216
04246		-4.188683	1.130542	8.865933	-0.004558	-0.000942	-0.005001	-0.654053	-0.423584	-0.418213	7.254411	24.897497	127.148810
04247		-4.168175	1.071985	8.826480	-0.000289	-0.000371	-0.003382	-0.652832	-0.426270	-0.420654	7.255663	24.894584	127.149231
04248		-4.117567	1.112240	8.868585	-0.001634	-0.002187	-0.003726	-0.649170	-0.416748	-0.413330	7.256485	24.890183	127.149524
04249		-4.168525	1.111633	8.887882	-0.001067	-0.002277	-0.005147	-0.646240	-0.427246	-0.418701	7.256751	24.886319	127.148842
04250		-4.169460	1.103021	8.854385	-0.002435	0.002780	-0.002892	-0.653320	-0.425049	-0.419189	7.257501	24.884681	127.150054
04251		-4.169608	1.102682	8.854358	-0.000011	-0.000831	-0.008186	-0.648438	-0.419678	-0.418213	7.257654	24.881874	127.147268
04252		-4.151926	1.107991	8.870371	-0.001633	-0.002187	-0.003726	-0.650146	-0.430664	-0.421875	7.258476	24.877473	127.147561
04253		-4.151860	1.107749	8.870432	0.000845	-0.000550	-0.006225	-0.651123	-0.425781	-0.419922	7.259643	24.874692	127.146136
04254		-4.169409	1.101955	8.854542	-0.000777	-0.001906	-0.001765	-0.649414	-0.420898	-0.429688	7.261481	24.870308	127.147679
04255		-4.183612	1.080790	8.878020	-0.001555	-0.003813	-0.003531	-0.646973	-0.424805	-0.426025	7.261863	24.865493	127.147903
04256		-4.168007	1.109673	8.888370	-0.003545	-0.003913	-0.002649	-0.653564	-0.424316	-0.427979	7.261815	24.860032	127.148733
04257		-4.168795	1.101162	8.854930	0.000488	0.001536	-0.001617	-0.651855	-0.427246	-0.417480	7.264060	24.858126	127.150518
04258		-4.116692	1.109849	8.869291	0.002792	-0.004866	-0.001716	-0.657959	-0.437012	-0.420654	7.267856	24.852057	127.151855
04259		-4.168179	1.101342	8.855197	0.002015	-0.006773	-0.003481	-0.648193	-0.427002	-0.421875	7.270235	24.845477	127.151046
04260		-4.099336	1.107374	8.851985	0.001833	0.003352	-0.001273	-0.655273	-0.423096	-0.421631	7.273874	24.844046	127.153317
04261		-4.120951	1.157210	8.857893	-0.000935	0.001345	-0.002157	-0.647461	-0.420410	-0.427246	7.275150	24.842028	127.154655
04262		-4.153208	1.130438	8.865223	-0.000446	0.002881	-0.003774	-0.651855	-0.422852	-0.420166	7.276808	24.840511	127.155322
04263		-4.136825	1.127512	8.847521	-0.002515	0.004406	-0.003087	-0.653564	-0.433105	-0.418945	7.277027	24.840326	127.156652
04264		-4.169433	1.100635	8.854695	-0.001816	0.007938	-0.001518	-0.649170	-0.416260	-0.421143	7.278664	24.841520	127.159137
04265		-4.169938	1.100267	8.854503	-0.002158	0.002320	-0.007696	-0.657471	-0.430420	-0.420410	7.277820	24.840446	127.157072
04266		-4.152693	1.105542	8.870317	-0.000525	0.004507	-0.003969	-0.648438	-0.425781	-0.420166	7.279437	24.839867	127.157747
04267		-4.136523	1.102519	8.852529	-0.003528	0.007377	-0.005440	-0.656250	-0.430420	-0.412109	7.278588	24.841489	127.157211
04268		-4.153771	1.104646	8.869924	-0.002725	0.002410	-0.006274	-0.656494	-0.416016	-0.422852	7.278268	24.839885	127.156274
04269		-4.156600	1.127811	8.863968	-0.002673	0.007658	-0.003479	-0.659668	-0.428711	-0.429932	7.278392	24.841483	127.157338
04270		-4.173928	1.130084	8.881307	-0.001948	0.004317	-0.004509	-0.652832	-0.424072	-0.418701	7.279045	24.840835	127.157659
04271		-4.155274	1.103399	8.869375	-0.003370	0.004126	-0.005049	-0.650635	-0.424316	-0.411133	7.278267	24.840574	127.157313
04272		-4.155770	1.102962	8.869197	-0.002594	0.006032	-0.003283	-0.648438	-0.424072	-0.422607	7.278931	24.840812	127.158539
04273		-4.175501	1.128835	8.880726	-0.002673	0.007659	-0.003479	-0.653076	-0.420898	-0.421875	7.279085	24.842465	127.159566
04274		-4.141797	1.131451	8.878860	-0.001459	0.005854	-0.006126	-0.655518	-0.421875	-0.414795	7.279645	24.842808	127.158997
04275		-4.177358	1.119740	8.846845	-0.003212	0.000874	-0.004658	-0.640625	-0.421631	-0.418213	7.278925	24.840657	127.158973
04276		-4.140184	1.107062	8.884397	-0.000604	0.006134	-0.004164	-0.645264	-0.429688	-0.421875	7.280500	24.841017	127.159655
04277		-4.142880	1.130395	8.878489	-0.002357	0.001155	-0.002697	-0.657715	-0.425049	-0.414795	7.280859	24.838984	127.160616
04278		-4.160761	1.124334	8.862458	-0.002802	0.004037	-0.006470	-0.657959	-0.428223	-0.425049	7.280497	24.838320	127.159686
04279		-4.178712	1.118186	8.846402	-0.003291	0.002501	-0.004854	-0.653564	-0.423096	-0.425293	7.279763	24.837076	127.159219
04280		-4.144563	1.120863	8.844744	-0.000934	0.001346	-0.002157	-0.648682	-0.427490	-0.422119	7.281516	24.834569	127.160776
04281		-4.144844	1.120444	8.844666	-0.004225	0.003847	-0.007011	-0.650391	-0.423828	-0.422363	7.279741	24.834325	127.159312
04282		-4.163521	1.154220	8.889862	-0.006215	0.003745	-0.006130	-0.652100	-0.430176	-0.418213	7.277504	24.833470	127.158572
04283		-4.140152	1.080112	8.889505	-0.003370	0.004127	-0.005049	-0.652100	-0.421143	-0.412354	7.276756	24.833221	127.158150
04284		-4.162840	1.121104	8.861890	-0.005360	0.004025	-0.004169	-0.652832	-0.419922	-0.417480	7.275534	24.832383	127.158661
04285		-4.145655	1.126094	8.877741	-0.004792	0.003936	-0.005590	-0.651367	-0.426514	-0.417969	7.273774	24.832031	127.158343
04286		-4.127176	1.099106	8.865756	-0.005885	0.008535	-0.008137	-0.659180	-0.425781	-0.425781	7.271359	24.834043	127.156729
04287		-4.108698	1.072195	8.853759	-0.003370	0.004128	-0.005049	-0.646973	-0.415039	-0.426270	7.270598	24.833765	127.156370
04288		-4.167559	1.141770	8.855384	-0.008241	0.009691	-0.010835	-0.653564	-0.426270	-0.418457	7.266162	24.836630	127.153159
04289		-4.178213	1.072852	8.889876	-0.001899	0.009566	-0.001712	-0.657471	-0.424072	-0.420898	7.267285	24.839248	127.155855
04290		-4.151763	1.146387	8.870641	-0.002753	0.009287	-0.003673	-0.648682	-0.417236	-0.418701	7.267863	24.841364	127.157097
04291		-4.164623	1.101168	8.899423	-0.006373	0.006999	-0.006522	-0.649902	-0.426758	-0.419922	7.265064	24.842831	127.156486
04292		-4.182973	1.094676	8.883198	-0.006452	0.008625	-0.006717	-0.650879	-0.427002	-0.411133	7.262700	24.844792	127.155768
04293		-4.166900	1.091376	8.865408	-0.003449	0.005755	-0.005245	-0.653809	-0.424072	-0.418457	7.261917	24.845454	127.155215
04294		-4.149967	1.096565	8.881134	-0.002106	0.007573	-0.004899	-0.652588	-0.426270	-0.411865	7.262486	24.846685	127.155552
04295		-4.170613	1.114066	8.859123	-0.004096	0.007470	-0.004019	-0.654785	-0.424561	-0.428711	7.261690	24.848208	127.156046
04296		-4.171177	1.113547	8.858923	-0.003369	0.004129	-0.005050	-0.651611	-0.427490	-0.415039	7.261381	24.847492	127.156013
04297		-4.186115	1.092332	8.882006	0.001103	0.006697	-0.000239	-0.653320	-0.420654	-0.417236	7.264546	24.848336	127.158874
04298		-4.169842	1.089517	8.864253	-0.003369	0.004129	-0.005050	-0.652344	-0.429932	-0.414551	7.264236	24.847621	127.158841
04299		-4.155065	1.118561	8.874293	0.002320	0.004894	-0.002886	-0.655762	-0.424805	-0.422363	7.267332	24.847605	127.159857
04300		-4.153086	1.094906	8.879880	-0.001582	0.003062	-0.000931	-0.650635	-0.420166	-0.428955	7.269094	24.845985	127.162319
04301		-4.150949	1.071117	8.885558	-0.000365	0.001259	-0.003578	-0.643311	-0.426270	-0.420166	7.270335	24.844002	127.163076
04302		-4.143870	1.162762	8.844883	-0.001661	0.004688	-0.001126	-0.647705	-0.424316	-0.415039	7.272055	24.843320	127.165546
04303		-4.136453	1.099910	8.895503	-0.001946	0.004321	-0.004509	-0.648926	-0.422119	-0.418457	7.272286	24.843164	127.165583
04304		-4.142444	1.138441	8.850297	-0.004017	0.005844	-0.003825	-0.654785	-0.426514	-0.421143	7.271986	24.843335	127.166455
04305		-4.167101	1.048920	8.908187	0.000329	0.004792	-0.002006	-0.654297	-0.422852	-0.416016	7.274172	24.843216	127.168193
04306		-4.175394	1.111364	8.857210	-0.000524	0.004512	-0.003968	-0.645996	-0.430176	-0.416504	7.275790	24.842640	127.168869
04307		-4.158169	1.116600	8.873086	-0.006416	0.002576	-0.001135	-0.653076	-0.426514	-0.421387	7.274282	24.841193	127.170698
04308		-4.140880	1.121997	8.888974	0.001831	0.003357	-0.001269	-0.659180	-0.423584	-0.425781	7.277920	24.839764	127.172971
04309		-4.158811	1.116230	8.872832	-0.003083	0.004497	-0.001668	-0.654541	-0.426025	-0.422852	7.278223	24.839431	127.174878
04310		-4.161448	1.139582	8.866979	-0.000933	0.001347	-0.002157	-0.654297	-0.419678	-0.427246	7.279977	24.836925	127.176434
04311		-4.156949	1.092105	8.878418	-0.001866	0.002695	-0.004314	-0.662842	-0.428955	-0.415283	7.280216	24.835785	127.176810
04312		-4.146742	1.168163	8.877067	-0.003288	0.002503	-0.004856	-0.655273	-0.425781	-0.422363	7.279948	24.834131	127.176769
04313		-4.157505	1.091192	8.878269	-0.003288	0.002504	-0.004856	-0.652100	-0.422119	-0.418457	7.279240	24.832837	127.176147
04314		-4.162420	1.137933	8.866735	-0.004346	0.001052	-0.001820	-0.653320	-0.425293	-0.419922	7.279117	24.830139	127.177891
04315		-4.145831	1.134935	8.849161	-0.001297	0.002607	-0.005735	-0.657471	-0.424072	-0.419678	7.279317	24.829035	127.177184
04316		-4.160685	1.113328	8.872317	-0.006292	0.005374	-0.006329	-0.646729	-0.412842	-0.422607	7.277038	24.829120	127.176450
04317		-4.141241	1.094631	8.893926	-0.004790	0.003939	-0.005593	-0.653320	-0.424805	-0.425293	7.275289	24.828783	127.176542
04318		-4.161577	1.111931	8.872075	-0.004790	0.003939	-0.005593	-0.651855	-0.433350	-0.424316	7.274016	24.827999	127.176155
04319		-4.179402	1.105715	8.856027	-0.003777	0.000965	-0.003241	-0.653809	-0.429199	-0.416260	7.273446	24.825805	127.176399
04320		-4.161204	1.119131	8.905544	-0.003777	0.000965	-0.003241	-0.654785	-0.426514	-0.424316	7.273272	24.823159	127.177246
04321		-4.142314	1.092528	8.893685	-0.002515	0.004410	-0.003088	-0.650391	-0.425293	-0.415527	7.273563	24.822869	127.177885
04322		-4.162599	1.110134	8.871820	-0.001297	0.002608	-0.005735	-0.656494	-0.420410	-0.416504	7.274209	24.821339	127.177301
04323		-4.147834	1.138888	8.881938	-0.005439	0.005654	-0.004367	-0.655273	-0.430664	-0.418457	7.272492	24.821836	127.177711
04324		-4.146510	1.106780	8.854058	0.002560	0.000017	-0.002300	-0.655029	-0.423340	-0.418213	7.276164	24.818584	127.179072
04325		-4.148274	1.138524	8.881779	-0.003004	0.002871	-0.001473	-0.644043	-0.428467	-0.421387	7.276539	24.817280	127.180644
04326		-4.164491	1.100693	8.837914	-0.001866	0.002696	-0.004314	-0.649414	-0.424316	-0.420166	7.277236	24.815697	127.180957
04327		-4.164166	1.108489	8.871290	-0.003448	0.005758	-0.005246	-0.649414	-0.426025	-0.417480	7.276491	24.816409	127.180621
04328		-4.130225	1.111068	8.869634	-0.004426	0.002679	-0.002015	-0.647949	-0.427979	-0.422363	7.276324	24.814649	127.182372
04329		-4.150362	1.128610	8.847846	-0.000078	0.000808	-0.008382	-0.648438	-0.416748	-0.418945	7.276517	24.812746	127.179568
04330		-4.145161	1.089185	8.892769	-0.003368	0.004132	-0.005051	-0.653076	-0.421387	-0.416260	7.276207	24.812032	127.179534
04331		-4.150944	1.127834	8.847672	-0.000364	0.001261	-0.003578	-0.655029	-0.428467	-0.419189	7.277443	24.810008	127.180634
04332		-4.148106	1.112110	8.886847	-0.003937	0.004219	-0.003630	-0.645508	-0.427002	-0.426270	7.277183	24.809241	127.181498
04333		-4.182739	1.108606	8.888289	-0.001785	0.001070	-0.004120	-0.658203	-0.427979	-0.429932	7.277533	24.807173	127.181329
04334		-4.166886	1.097481	8.837185	-0.002435	0.002784	-0.002894	-0.651611	-0.429443	-0.420898	7.278279	24.805537	127.182539
04335		-4.165607	1.113599	8.904179	-0.002354	0.001157	-0.002699	-0.646240	-0.423584	-0.417236	7.278672	24.803382	127.183174
04336		-4.148945	1.110860	8.886612	0.000489	0.001540	-0.001615	-0.648926	-0.424072	-0.421875	7.281388	24.800946	127.185084
04337		-4.149235	1.110673	8.886499	-0.002515	0.004411	-0.003088	-0.654053	-0.424561	-0.421875	7.281677	24.800715	127.186278
04338		-4.150255	1.102193	8.852875	-0.001502	0.001435	-0.000737	-0.650391	-0.425781	-0.419189	7.283479	24.798155	127.188729
04339		-4.151975	1.133931	8.880637	0.001708	-0.000261	-0.004262	-0.646240	-0.430664	-0.415771	7.285719	24.795306	127.188615
04340		-4.149679	1.110143	8.886359	-0.001785	0.001070	-0.004120	-0.657227	-0.423828	-0.413574	7.286458	24.792785	127.188920
04341		-4.133018	1.107404	8.868792	0.000489	0.001540	-0.001615	-0.655518	-0.428223	-0.423828	7.288769	24.790731	127.190210
04342		-4.149976	1.109869	8.886254	-0.000933	0.001348	-0.002157	-0.650391	-0.430664	-0.424805	7.290521	24.788225	127.191765
04343		-4.135481	1.130759	8.863048	0.000448	-0.003706	-0.004415	-0.645264	-0.421143	-0.420654	7.291921	24.783439	127.190848
04344		-4.149700	1.109560	8.886421	0.000368	-0.002079	-0.004610	-0.661133	-0.425781	-0.418213	7.293659	24.779164	127.190593
04345		-4.135433	1.130503	8.863103	0.000327	0.004794	-0.002004	-0.652344	-0.420166	-0.420654	7.295853	24.779004	127.192525
04346		-4.134915	1.138545	8.896550	-0.002274	-0.000470	-0.002505	-0.649902	-0.428711	-0.417969	7.296683	24.775490	127.193715
04347		-4.150008	1.109194	8.886323	0.002641	-0.001609	-0.002105	-0.664795	-0.419189	-0.411377	7.299981	24.771718	127.194968
04348		-4.135583	1.130166	8.863076	-0.003493	0.001330	0.000142	-0.645996	-0.422363	-0.421143	7.300867	24.769034	127.197959
04349		-4.133332	1.106314	8.868781	-0.000363	0.001262	-0.003578	-0.657715	-0.417480	-0.418945	7.302104	24.766934	127.198868
04350		-4.152611	1.132384	8.880537	0.001139	-0.000173	-0.002841	-0.649902	-0.425537	-0.420166	7.304811	24.763613	127.199872
04351		-4.133501	1.106196	8.868717	0.000489	0.001540	-0.001615	-0.656006	-0.422607	-0.419189	7.307079	24.761569	127.202031
04352		-4.150533	1.108648	8.886146	-0.001014	0.002976	-0.002352	-0.648682	-0.422607	-0.413818	7.308786	24.760001	127.203594
04353		-4.133138	1.114135	8.902106	-0.000282	-0.000365	-0.003384	-0.648682	-0.427002	-0.419434	7.310098	24.756997	127.204270
04354		-4.136263	1.129281	8.862872	-0.001134	-0.000644	-0.005347	-0.651367	-0.435547	-0.421387	7.310830	24.753591	127.203668
04355		-4.153068	1.131523	8.880433	-0.002273	-0.000470	-0.002505	-0.658691	-0.426758	-0.430908	7.311318	24.750505	127.203858
04356		-4.133798	1.105122	8.868713	0.000938	-0.002165	-0.006031	-0.661621	-0.425293	-0.414307	7.313006	24.746285	127.202705
04357		-4.135461	1.136708	8.896531	-0.002354	0.001157	-0.002700	-0.658936	-0.428467	-0.413574	7.313368	24.744040	127.203582
04358		-4.105024	1.146602	8.822252	-0.003125	-0.000749	-0.004468	-0.653809	-0.433350	-0.422607	7.313185	24.740510	127.203520
04359		-4.148200	1.083119	8.892092	0.000368	-0.002078	-0.004610	-0.651855	-0.425537	-0.416992	7.314555	24.736575	127.202225
04360		-4.138569	1.151162	8.857398	-0.002924	0.001243	-0.001279	-0.665039	-0.421631	-0.412842	7.315390	24.733944	127.204319
04361		-4.165790	1.076828	8.876139	-0.003125	-0.000749	-0.004468	-0.660400	-0.426758	-0.423584	7.314765	24.730721	127.204125
04362		-4.152667	1.129439	8.880886	0.000123	-0.008500	-0.002412	-0.651123	-0.417725	-0.416992	7.316721	24.722636	127.204727
04363		-4.120352	1.156119	8.873810	0.000569	-0.000086	-0.001421	-0.653320	-0.418213	-0.418213	7.319039	24.719640	127.206843
04364		-4.147363	1.082029	8.892616	-0.002111	-0.003724	-0.002117	-0.656982	-0.423584	-0.414307	7.319952	24.714247	127.208013
04365		-4.137373	1.150039	8.858103	-0.001460	-0.005438	-0.003343	-0.655029	-0.425781	-0.411621	7.320414	24.708333	127.208557
04366		-4.132137	1.102704	8.869787	0.000813	-0.004967	-0.000838	-0.657715	-0.426758	-0.413818	7.323296	24.702140	127.210427
04367		-4.153295	1.152285	8.876079	-0.003451	-0.005543	-0.002465	-0.646729	-0.419678	-0.417969	7.322886	24.696062	127.210686
04368		-4.145864	1.081168	8.893419	-0.000283	-0.000365	-0.003384	-0.655273	-0.429199	-0.411621	7.324628	24.692671	127.211333
04369		-4.101019	1.160493	8.890810	-0.002963	-0.004002	-0.004080	-0.651611	-0.431885	-0.410156	7.324134	24.687666	127.211084
04370		-4.147593	1.104218	8.888070	0.000124	-0.008499	-0.002413	-0.656250	-0.425049	-0.424316	7.326090	24.679581	127.211684
04371		-4.095403	1.112724	8.902715	-0.002069	0.000706	-0.007504	-0.659912	-0.423340	-0.418945	7.325399	24.677480	127.209189
04372		-4.118368	1.145668	8.841840	0.000248	-0.005695	-0.007606	-0.657715	-0.427490	-0.426270	7.326164	24.671368	127.206767
04373		-4.129326	1.108830	8.904537	-0.002475	-0.002462	-0.005694	-0.652588	-0.430420	-0.421143	7.325570	24.667316	127.205647
04374		-4.099704	1.158728	8.891646	-0.003695	-0.000663	-0.003047	-0.659912	-0.425293	-0.419434	7.325435	24.663731	127.206481
04375		-4.129220	1.107990	8.904690	-0.001705	-0.000556	-0.003926	-0.651611	-0.421875	-0.420166	7.325837	24.660643	127.206289
04376		-4.117158	1.152210	8.875801	-0.003327	-0.002739	-0.007657	-0.656982	-0.425049	-0.423584	7.324640	24.656214	127.204072
04377		-4.114724	1.127986	8.881617	-0.005198	0.000772	-0.003783	-0.658203	-0.423828	-0.420654	7.323097	24.653905	127.204714
04378		-4.112295	1.103993	8.887399	-0.000201	-0.001991	-0.003190	-0.648926	-0.429199	-0.417725	7.324881	24.649576	127.205352
04379		-4.134068	1.153418	8.893453	-0.003371	0.004132	-0.005050	-0.650391	-0.425293	-0.422607	7.324193	24.649254	127.205012
04380		-4.095908	1.100641	8.869779	-0.003208	0.000879	-0.004662	-0.657959	-0.431152	-0.417236	7.323967	24.646663	127.204959
04381		-4.149681	1.123153	8.883079	-0.003290	0.002506	-0.004856	-0.650391	-0.430908	-0.418945	7.323335	24.645396	127.204412
04382		-4.118100	1.149409	8.875727	-0.003371	0.004133	-0.005050	-0.658203	-0.431152	-0.414795	7.323024	24.644682	127.204378
04383		-4.132906	1.127744	8.898859	-0.004793	0.003940	-0.005592	-0.654053	-0.427490	-0.413574	7.321408	24.644260	127.203066
04384		-4.079681	1.104180	8.885439	-0.002720	0.002420	-0.006277	-0.666504	-0.420898	-0.415771	7.321093	24.642663	127.202127
04385		-4.119362	1.147661	8.875367	-0.005526	0.007280	-0.004559	-0.657471	-0.428711	-0.413086	7.319359	24.643988	127.202497
04386		-4.101283	1.112907	8.829891	-0.001503	0.001435	-0.000736	-0.652588	-0.426270	-0.426758	7.321152	24.641426	127.204944
04387		-4.117782	1.123122	8.880816	-0.005239	0.006832	-0.009364	-0.660889	-0.421143	-0.411621	7.318368	24.642937	127.202050
04388		-4.135160	1.124962	8.898164	-0.003371	0.004133	-0.005050	-0.656494	-0.419434	-0.417969	7.318057	24.642223	127.202016
04389		-4.118764	1.121865	8.880520	-0.005362	0.004026	-0.004171	-0.649902	-0.426514	-0.415283	7.316387	24.641693	127.202902
04390		-4.116675	1.097688	8.886152	-0.003859	0.002592	-0.003435	-0.647705	-0.428467	-0.423584	7.316165	24.639986	127.203755
04391		-4.136254	1.123322	8.897862	-0.003941	0.004219	-0.003629	-0.658447	-0.427734	-0.415527	7.315557	24.639657	127.204284
04392		-4.102339	1.126208	8.896184	0.000323	0.004796	-0.002002	-0.656006	-0.423096	-0.426025	7.318179	24.639098	127.206210
04393		-4.103696	1.117573	8.862412	-0.007599	0.008801	-0.003874	-0.656982	-0.428467	-0.420410	7.315519	24.641303	127.207153
04394		-4.122856	1.151365	8.907524	-0.000528	0.004519	-0.003965	-0.657227	-0.429443	-0.419678	7.317133	24.640729	127.207829
04395		-4.124227	1.142715	8.873746	-0.004469	0.008738	-0.007594	-0.655762	-0.424072	-0.414551	7.315326	24.643161	127.205958
04396		-4.105049	1.124088	8.895202	-0.005526	0.007281	-0.004559	-0.651367	-0.420410	-0.418701	7.314014	24.644201	127.206484
04397		-4.140883	1.112119	8.862884	-0.004187	0.009101	-0.004210	-0.658203	-0.418945	-0.421387	7.313218	24.646614	127.207618
04398		-4.123430	1.125366	8.912153	-0.004956	0.007197	-0.005980	-0.656982	-0.425781	-0.409912	7.311858	24.647709	127.207249
04399		-4.124140	1.124756	8.911901	-0.004105	0.007474	-0.004017	-0.651123	-0.427246	-0.419678	7.311093	24.649130	127.208260
04400		-4.110542	1.145397	8.888369	-0.002196	0.009210	-0.005088	-0.659424	-0.430176	-0.419189	7.311615	24.651304	127.208610
04401		-4.126638	1.115463	8.877670	-0.006624	0.011887	-0.007104	-0.654785	-0.423096	-0.420410	7.308818	24.655500	127.207313
04402		-4.141951	1.093647	8.900550	-0.004675	0.007560	-0.002596	-0.650391	-0.427246	-0.415527	7.308514	24.656555	127.209089
04403		-4.113169	1.143374	8.887415	-0.006376	0.007006	-0.006524	-0.657227	-0.419434	-0.422852	7.305824	24.657957	127.208244
04404		-4.129037	1.113462	8.876806	-0.002196	0.009211	-0.005088	-0.648926	-0.426758	-0.417480	7.306346	24.660132	127.208594
04405		-4.112387	1.118667	8.892495	-0.004187	0.009103	-0.004210	-0.652588	-0.430908	-0.418945	7.305567	24.662565	127.209692
04406		-4.118188	1.165261	8.880736	-0.005120	0.010454	-0.006368	-0.650635	-0.432129	-0.418457	7.304121	24.665540	127.209341
04407		-4.095050	1.091367	8.879950	-0.002849	0.010924	-0.003860	-0.655518	-0.421387	-0.415283	7.304342	24.668977	127.209611
04408		-4.135361	1.134979	8.869556	-0.002361	0.012467	-0.005474	-0.656738	-0.424805	-0.416504	7.304778	24.673030	127.209981
04409		-4.118849	1.139869	8.885234	-0.009299	0.008250	-0.007806	-0.656494	-0.422119	-0.417969	7.300090	24.675167	127.208624
04410		-4.117180	1.115412	8.890686	-0.003534	0.007392	-0.005438	-0.654785	-0.424316	-0.419189	7.299693	24.676334	127.208609
04411		-4.135537	1.109029	8.874335	-0.006540	0.010263	-0.006912	-0.657959	-0.425049	-0.408936	7.296894	24.679571	127.208024
04412		-4.122125	1.129370	8.850777	-0.005120	0.010456	-0.006368	-0.652832	-0.425537	-0.415039	7.295448	24.682547	127.207672
04413		-4.136804	1.115688	8.907170	-0.005037	0.008828	-0.006175	-0.653564	-0.428711	-0.413574	7.293670	24.684870	127.206949
04414		-4.089624	1.131081	8.848664	-0.005969	0.010180	-0.008333	-0.653564	-0.423096	-0.426025	7.291215	24.687831	127.205347
04415		-4.106820	1.140929	8.899342	-0.006262	0.010625	-0.003528	-0.654053	-0.424561	-0.415527	7.289508	24.691055	127.206577
04416		-4.108586	1.131905	8.865390	-0.008697	0.013412	-0.006422	-0.653320	-0.428223	-0.411621	7.286097	24.695715	127.206427
04417		-4.144214	1.127798	8.866340	-0.004713	0.013630	-0.008175	-0.647949	-0.423096	-0.428711	7.284164	24.700934	127.204736
04418		-4.125571	1.109039	8.887593	-0.006705	0.013522	-0.007299	-0.657715	-0.424805	-0.413086	7.281669	24.705719	127.204046
04419		-4.144264	1.102388	8.871090	-0.007471	0.011618	-0.009071	-0.648193	-0.423096	-0.420898	7.277842	24.709922	127.202211
04420		-4.147919	1.125114	8.864948	-0.005856	0.013799	-0.005334	-0.661133	-0.423584	-0.418945	7.276355	24.714723	127.202772
04421		-4.079888	1.138810	8.895189	-0.008125	0.013331	-0.007844	-0.651611	-0.421631	-0.426025	7.272519	24.719778	127.201864
04422		-4.161984	1.086677	8.926309	-0.005451	0.016973	-0.007140	-0.655518	-0.430664	-0.416504	7.270898	24.726514	127.201548
04423		-4.129767	1.081220	8.890715	-0.002251	0.016090	-0.002473	-0.652344	-0.423096	-0.420898	7.271958	24.732762	127.203837
04424		-4.151218	1.098763	8.868288	-0.003182	0.017443	-0.004631	-0.658203	-0.428955	-0.418945	7.272310	24.739583	127.205129
04425		-4.135200	1.103989	8.883746	-0.003016	0.014187	-0.004245	-0.655762	-0.423340	-0.422119	7.272393	24.744843	127.206107
04426		-4.138876	1.127177	8.877543	-0.004077	0.012725	-0.001213	-0.651611	-0.430908	-0.418701	7.272970	24.748734	127.209162
04427		-4.140247	1.126655	8.876970	-0.004029	0.017169	-0.006596	-0.649902	-0.424072	-0.415527	7.271975	24.755879	127.208770
04428		-4.158882	1.120530	8.860391	-0.000118	0.007701	-0.005769	-0.657959	-0.431396	-0.424316	7.273458	24.757245	127.208572
04429		-4.142223	1.125818	8.876155	-0.004186	0.009110	-0.004213	-0.652588	-0.424072	-0.420654	7.272734	24.759626	127.208916
04430		-4.157519	1.104099	8.898965	-0.003613	0.009027	-0.005633	-0.653809	-0.423584	-0.416748	7.272295	24.761737	127.208909
04431		-4.143870	1.124725	8.875524	-0.004103	0.007482	-0.004020	-0.647217	-0.425049	-0.421143	7.271578	24.763182	127.209840
04432		-4.130140	1.145288	8.852133	-0.004949	0.007206	-0.005986	-0.655518	-0.424316	-0.411865	7.270219	24.764283	127.209467
04433		-4.127827	1.129119	8.891125	-0.005522	0.007289	-0.004566	-0.656738	-0.426270	-0.419434	7.268557	24.765663	127.209859
04434		-4.194162	1.106600	8.932836	-0.000308	0.005715	-0.008961	-0.656982	-0.426758	-0.418701	7.269028	24.766133	127.207504
04435		-4.226762	1.079862	8.939523	0.007828	0.008943	-0.001073	-0.645752	-0.422607	-0.422363	7.275985	24.768140	127.209911
04436		-4.153978	1.040091	8.947682	0.011787	0.009963	0.005370	-0.657715	-0.419678	-0.419678	7.287286	24.769983	127.216866
04437		-4.145433	1.110063	8.912525	0.015580	0.014242	0.011427	-0.648926	-0.423584	-0.420654	7.302103	24.774185	127.228559
04438		-4.198129	1.111339	8.930384	0.018361	0.021504	0.015132	-0.665527	-0.430664	-0.418213	7.320121	24.781872	127.242553
04439		-4.185539	1.126966	8.872745	0.024538	0.012505	0.018475	-0.646729	-0.420410	-0.426270	7.341901	24.784464	127.257408
04440		-4.136771	1.162180	8.881195	0.019191	0.005219	0.017063	-0.654785	-0.425781	-0.426758	7.360355	24.782747	127.271302
04441		-4.211074	1.196979	8.838530	0.017308	0.002677	0.009940	-0.652344	-0.426758	-0.420898	7.375412	24.780526	127.281054
04442		-4.111857	1.101511	8.913926	0.024712	-0.008119	0.010641	-0.660156	-0.417236	-0.414063	7.394888	24.771696	127.289845
04443		-4.162407	1.103255	8.932723	0.021708	-0.005246	0.009160	-0.659668	-0.429688	-0.420166	7.411947	24.764875	127.298299
04444		-4.270876	1.127235	8.858131	0.030800	-0.004170	0.011017	-0.656006	-0.421143	-0.420898	7.435140	24.758256	127.307639
04445		-4.170892	1.032929	8.933838	0.033808	-0.018354	0.015275	-0.654541	-0.433105	-0.420166	7.460311	24.743535	127.318384
04446		-4.398403	1.099261	8.976296	0.041129	-0.027517	0.015785	-0.653076	-0.425293	-0.415039	7.489860	24.723288	127.328782
04447		-4.299692	1.013563	8.980189	0.049708	-0.044540	0.019234	-0.655029	-0.422363	-0.421631	7.524303	24.693432	127.339197
04448		-4.258895	0.990460	8.952618	0.055609	-0.053889	0.019198	-0.649902	-0.427246	-0.419434	7.562105	24.657938	127.349514
04449		-4.133513	1.165944	8.875035	0.056759	-0.065357	0.019143	-0.654297	-0.429443	-0.406738	7.599751	24.616324	127.359095
04450		-4.004937	1.325547	8.836551	0.047829	-0.058368	0.014896	-0.654541	-0.423584	-0.419678	7.631786	24.578601	127.366295
04451		-4.088698	1.332864	8.786019	0.037216	-0.064074	0.001329	-0.652832	-0.428955	-0.417969	7.653633	24.538983	127.364357
04452		-4.086591	1.399530	8.843606	0.028610	-0.063603	-0.002128	-0.659180	-0.425781	-0.416992	7.670040	24.499584	127.360455
04453		-4.029596	1.401908	8.827007	0.019492	-0.070746	-0.014947	-0.658691	-0.430908	-0.418213	7.677311	24.457452	127.347882
04454		-3.984398	1.358567	8.839707	0.012594	-0.070538	-0.022661	-0.660645	-0.424805	-0.411377	7.679003	24.415688	127.330581
04455		-3.963417	1.338793	8.757816	0.000328	-0.066317	-0.034549	-0.664795	-0.423828	-0.412109	7.670429	24.377504	127.306037
04456		-4.009210	1.506609	8.754935	-0.018281	-0.061165	-0.047373	-0.652832	-0.428223	-0.413330	7.648432	24.342944	127.274143
04457		-3.889238	1.564424	8.757349	-0.042866	-0.056338	-0.057550	-0.655762	-0.427002	-0.419434	7.609603	24.312170	127.236490
04458		-3.864974	1.377003	8.839879	-0.061451	-0.045936	-0.067569	-0.660889	-0.423828	-0.416992	7.558270	24.287748	127.193340
04459		-3.965455	1.187963	8.871495	-0.064771	-0.032123	-0.075219	-0.653809	-0.422363	-0.412598	7.503278	24.272054	127.147064
04460		-3.894165	1.145560	8.808893	-0.069087	-0.025820	-0.074240	-0.660645	-0.427490	-0.414063	7.446587	24.259482	127.101464
04461		-3.989274	1.047429	8.799080	-0.073577	-0.016267	-0.073647	-0.664307	-0.426514	-0.410156	7.387519	24.252568	127.057353
04462		-4.041118	0.898244	8.871484	-0.070244	-0.013508	-0.065997	-0.652100	-0.428467	-0.410400	7.332708	24.246304	127.017915
04463		-3.981513	0.998949	8.880070	-0.065209	-0.011001	-0.062612	-0.659912	-0.424316	-0.413330	7.281465	24.241456	126.980426
04464		-4.059793	0.907663	8.885369	-0.060065	-0.004887	-0.056226	-0.655273	-0.427490	-0.407959	7.235279	24.239321	126.947778
04465		-4.122246	0.855032	8.934282	-0.047481	-0.008747	-0.040984	-0.662354	-0.424072	-0.413818	7.199784	24.234159	126.924196
04466		-3.985587	1.033920	8.904746	-0.044903	-0.003471	-0.040480	-0.658447	-0.429199	-0.419189	7.166366	24.231661	126.901480
04467		-4.015710	0.969984	8.884595	-0.037688	0.001120	-0.034777	-0.651855	-0.425049	-0.421631	7.138383	24.231649	126.882524
04468		-3.943544	1.096209	8.869222	-0.034152	0.010274	-0.029304	-0.655518	-0.429199	-0.418213	7.114425	24.236151	126.867849
04469		-3.871947	1.174687	8.758546	-0.036962	0.019566	-0.032954	-0.662842	-0.426270	-0.415039	7.087946	24.246618	126.851516
04470		-3.486825	1.065877	8.667381	-0.042178	0.047338	-0.031045	-0.655273	-0.426270	-0.411377	7.060113	24.272305	126.838617
04471		-3.373678	1.311462	8.815306	-0.056566	0.110779	-0.044411	-0.661621	-0.422607	-0.415283	7.022296	24.335245	126.821933
04472		-4.048683	1.379903	8.913825	-0.067442	0.141489	-0.058245	-0.650879	-0.436035	-0.423340	6.975914	24.416358	126.799220
04473		-4.294898	0.940780	8.910117	-0.079404	0.119904	-0.064259	-0.659912	-0.427002	-0.423096	6.920155	24.485880	126.770254
04474		-4.195274	1.049845	8.929022	-0.085227	0.107412	-0.050510	-0.658203	-0.419434	-0.417480	6.864390	24.547040	126.749611
04475		-4.346045	1.088911	8.987549	-0.091335	0.089328	-0.042975	-0.657227	-0.431641	-0.416016	6.806154	24.597608	126.732507
04476		-4.411703	0.651216	9.016157	-0.085368	0.064988	-0.026755	-0.658691	-0.421875	-0.422607	6.755092	24.632986	126.723426
04477		-4.361849	0.768297	8.983838	-0.076816	0.050376	-0.015379	-0.653076	-0.422363	-0.418701	6.711152	24.659504	126.719661
04478		-4.348850	0.759670	8.965012	-0.059094	0.035215	-0.001956	-0.658936	-0.423584	-0.416748	6.680679	24.676271	126.723859
04479		-4.369238	0.618660	9.031908	-0.027682	0.025655	0.021378	-0.658936	-0.430908	-0.419189	6.673672	24.686293	126.741786
04480		-4.320976	0.791342	8.990043	-0.002520	0.015380	0.043946	-0.652588	-0.423340	-0.425537	6.687013	24.688714	126.773273
04481		-4.255636	0.833030	9.014725	0.030250	0.016708	0.040331	-0.650391	-0.418701	-0.415039	6.717923	24.692421	126.801633
04482		-4.342470	0.949878	8.882572	0.058916	0.009718	0.040815	-0.651611	-0.427002	-0.416992	6.765474	24.691801	126.830744
04483		-4.222053	1.036781	9.056630	0.066423	-0.007153	0.047026	-0.657715	-0.423340	-0.424561	6.818062	24.681475	126.862256
04484		-4.322950	1.183864	9.042553	0.124593	0.004748	0.022740	-0.657715	-0.430664	-0.417969	6.898355	24.679210	126.879673
04485		-4.344523	0.758163	9.110171	0.167022	-0.002680	0.038687	-0.648926	-0.421631	-0.418945	7.006549	24.671859	126.905683
04486		-4.278970	0.970753	9.043941	0.199376	-0.008251	0.066999	-0.656494	-0.427246	-0.417236	7.140816	24.659021	126.949771
04487		-4.118013	0.956520	9.030834	0.203769	-0.009264	0.085385	-0.650146	-0.428955	-0.421631	7.281941	24.644537	127.005326
04488		-3.994603	1.133322	8.989548	0.194226	-0.006576	0.087925	-0.652344	-0.431152	-0.415283	7.418714	24.630924	127.062552
04489		-4.075268	1.256056	8.928035	0.172523	-0.001307	0.078746	-0.657959	-0.418213	-0.414307	7.540471	24.621244	127.113860
04490		-4.128231	1.288620	8.905576	0.166577	-0.007639	0.070365	-0.649902	-0.427979	-0.416748	7.656744	24.608132	127.159952
04491		-4.171005	1.396268	8.881969	0.146716	-0.010352	0.062719	-0.660889	-0.429443	-0.414551	7.759060	24.594292	127.202129
04492		-4.172254	1.313268	8.994196	0.146439	-0.015925	0.056533	-0.651855	-0.427246	-0.419678	7.859860	24.577399	127.238814
04493		-4.308039	1.128523	8.956973	0.159855	-0.026306	0.054627	-0.649658	-0.427002	-0.418701	7.967039	24.554984	127.273754
04494		-4.023243	1.262323	8.903948	0.143732	-0.029146	0.058439	-0.648438	-0.433594	-0.411621	8.066240	24.530317	127.310386
04495		-3.817688	1.473214	8.796093	0.127994	-0.023632	0.046638	-0.650146	-0.423096	-0.421387	8.153168	24.510093	127.340476
04496		-3.928459	1.407540	8.834560	0.108273	-0.001800	0.036527	-0.656982	-0.431885	-0.416748	8.227346	24.502623	127.365811
04497		-4.087853	1.275699	8.837015	0.100243	-0.001444	0.031641	-0.653320	-0.438721	-0.416748	8.295235	24.496093	127.389509
04498		-4.062180	1.390935	8.843740	0.080821	-0.001843	0.030600	-0.659180	-0.434082	-0.415039	8.352137	24.489036	127.411126
04499		-4.077323	1.360438	8.799416	0.067591	-0.000775	0.021922	-0.659424	-0.432861	-0.415283	8.398933	24.483561	127.426946
04500		-4.197124	1.189454	8.846953	0.056287	-0.003136	0.025971	-0.651367	-0.432617	-0.409668	8.440523	24.476127	127.445546
04501		-4.046155	1.261204	8.844591	0.054136	-0.011275	0.029297	-0.661621	-0.438965	-0.413330	8.481037	24.464050	127.465790
04502		-4.110907	1.246217	8.886540	0.058480	-0.000998	0.028262	-0.658691	-0.436035	-0.418213	8.524545	24.457608	127.486000
04503		-4.024739	1.256049	8.865584	0.056653	-0.004350	0.029552	-0.662354	-0.441406	-0.412354	8.566861	24.449348	127.506213
04504		-3.912024	1.339285	8.824560	0.053268	0.011907	0.029771	-0.664307	-0.441650	-0.410645	8.608265	24.450061	127.528564
04505		-4.025572	1.429289	8.803183	0.046211	0.015293	0.021636	-0.660645	-0.434326	-0.412842	8.643356	24.453461	127.544700
04506		-3.986344	1.357464	8.785294	0.034872	0.030239	0.017178	-0.653320	-0.438721	-0.412598	8.671699	24.465619	127.560953
04507		-3.997201	1.472308	8.825818	0.025413	0.030356	0.011756	-0.654541	-0.440186	-0.415527	8.692882	24.478533	127.573745
04508		-4.099589	1.239090	8.834527	0.022542	0.035968	0.005034	-0.659180	-0.435059	-0.418213	8.711267	24.494977	127.583001
04509		-4.126581	1.314448	8.831782	0.016148	0.032497	0.009502	-0.655273	-0.434326	-0.416504	8.726674	24.509328	127.594615
04510		-4.093982	1.337168	8.895482	0.017683	0.036352	0.013006	-0.658691	-0.435791	-0.410645	8.744359	24.525290	127.608882
04511		-4.166464	1.163187	8.923758	0.030365	0.034530	0.014927	-0.658447	-0.438721	-0.421143	8.769358	24.540266	127.624518
04512		-4.052272	1.188157	8.860819	0.039823	0.034426	0.020355	-0.655518	-0.436523	-0.416748	8.801566	24.554483	127.643193
04513		-3.915095	1.351711	8.831972	0.035303	0.050887	0.023383	-0.662109	-0.432373	-0.420898	8.832278	24.578011	127.665418
04514		-3.973898	1.379074	8.841561	0.039404	0.072060	0.016055	-0.654541	-0.428467	-0.415039	8.864675	24.613895	127.685088
04515		-3.934461	1.421503	8.773444	0.040845	0.083569	0.013699	-0.654541	-0.438721	-0.411865	8.897288	24.656697	127.706116
04516		-3.946774	1.480740	8.790166	0.025221	0.104836	0.010090	-0.657959	-0.437500	-0.416992	8.921394	24.711644	127.725327
04517		-4.030246	1.514990	8.742119	0.022059	0.116975	0.002502	-0.653076	-0.431641	-0.421631	8.941881	24.774291	127.740856
04518		-4.047794	1.586705	8.718291	0.007389	0.124736	-0.004235	-0.650146	-0.438965	-0.415527	8.952904	24.841765	127.753148
04519		-4.071453	1.542485	8.742830	-0.003202	0.131083	-0.012512	-0.648926	-0.440918	-0.422607	8.955599	24.913837	127.761660
04520		-4.076277	1.479803	8.789505	-0.010500	0.140275	-0.013152	-0.657959	-0.446533	-0.418945	8.954708	24.990900	127.769938
04521		-4.020417	1.484108	8.781683	-0.016239	0.147147	-0.021217	-0.656250	-0.436035	-0.411621	8.948457	25.072763	127.772704
04522		-3.979898	1.619155	8.702824	-0.032350	0.167673	-0.031667	-0.650879	-0.436279	-0.416504	8.931295	25.166984	127.772092
04523		-3.916401	1.705626	8.725494	-0.049729	0.179465	-0.045003	-0.647217	-0.435547	-0.421387	8.900737	25.269112	127.764413
04524		-3.814157	1.714004	8.732289	-0.063352	0.214635	-0.061090	-0.647705	-0.436523	-0.420654	8.859845	25.392519	127.749858
04525		-4.091735	1.492130	8.781016	-0.073895	0.240077	-0.078196	-0.653809	-0.437012	-0.419678	8.808984	25.531999	127.727394
04526		-4.048351	1.511689	8.764334	-0.081112	0.256181	-0.092935	-0.646240	-0.443848	-0.411133	8.750833	25.681693	127.696599
04527		-4.037013	1.497662	8.827073	-0.081354	0.277365	-0.113714	-0.646973	-0.444092	-0.426270	8.687352	25.845092	127.653449
04528		-4.127092	1.426026	8.902801	-0.081574	0.309208	-0.128996	-0.645752	-0.439453	-0.422607	8.620869	26.027870	127.604573
04529		-4.190329	1.403876	8.964109	-0.082175	0.330249	-0.136598	-0.640137	-0.438232	-0.430664	8.552341	26.223158	127.551445
04530		-4.145921	1.321796	9.041586	-0.059794	0.354152	-0.139968	-0.638428	-0.442627	-0.422363	8.496573	26.432234	127.499266
04531		-4.079172	1.332251	9.165970	-0.050939	0.397967	-0.147764	-0.635742	-0.432617	-0.432861	8.445002	26.666782	127.445134
04532		-4.062402	1.270130	9.217792	-0.031269	0.445678	-0.146414	-0.626221	-0.436523	-0.428467	8.406953	26.928193	127.396853
04533		-3.728060	1.087647	9.451365	-0.021432	0.529205	-0.146361	-0.623291	-0.438232	-0.434814	8.377478	27.236998	127.356898
04534		-3.929951	0.445754	9.660528	0.061891	0.653658	-0.136162	-0.610840	-0.441895	-0.429932	8.404164	27.615414	127.334303
04535		-3.446197	0.374634	10.176610	0.207073	0.796599	-0.129722	-0.613525	-0.446777	-0.441162	8.522166	28.074472	127.329535
04536		-2.979954	0.622857	10.400524	0.312670	1.032264	-0.123544	-0.598145	-0.441406	-0.443359	8.714343	28.666356	127.353516
04537		-2.742702	0.568915	10.750222	0.409848	1.310946	-0.134513	-0.591064	-0.440918	-0.454102	8.973688	29.416980	127.400999
04538		-2.353657	0.614670	11.162903	0.479186	1.669438	-0.157580	-0.586426	-0.449707	-0.454102	9.287290	30.372194	127.476053
04539		-2.311446	0.785297	11.520879	0.592720	2.119473	-0.192928	-0.565674	-0.449463	-0.456299	9.684072	31.584583	127.586244
04540		-2.329070	0.517750	11.893053	0.647505	2.667063	-0.223808	-0.545410	-0.457031	-0.461914	10.144862	33.108412	127.750969
04541		-1.465876	3.111559	12.321362	0.513696	3.244771	-0.264793	-0.530518	-0.466797	-0.472412	10.566476	34.960827	127.978111
04542		-2.311869	2.670855	12.022293	0.281611	3.894916	-0.353216	-0.496338	-0.468506	-0.480225	10.888965	37.187547	128.248908
04543		-2.862449	4.329274	11.772747	0.087207	4.427269	-0.508153	-0.466064	-0.469482	-0.493164	11.099182	39.728925	128.504357
04544		-4.166612	3.937807	11.806563	-0.180028	4.931438	-0.655108	-0.430176	-0.468506	-0.503906	11.154344	42.570167	128.742418
04545		-5.063287	4.069447	10.938329	-0.254741	5.337607	-0.861306	-0.386963	-0.474854	-0.508789	11.114675	45.661991	128.894369
04546		-7.480545	2.465726	11.441653	-0.130611	5.687252	-1.032521	-0.341064	-0.468994	-0.521729	11.095039	48.969887	128.967234
04547		-10.831703	4.917741	12.729700	-0.123464	5.762209	-1.199282	-0.288086	-0.473633	-0.522705	10.977239	52.337806	128.903959
04548		-12.226725	5.324050	12.965791	-0.211427	5.621867	-1.358686	-0.251465	-0.474609	-0.531982	10.639843	55.644167	128.634755
04549		-13.614318	3.745363	11.648147	-0.158619	5.305686	-1.543377	-0.209229	-0.477783	-0.525879	10.051098	58.787845	128.040838
04550		-12.741769	4.564853	11.819431	-0.085254	4.958022	-1.690935	-0.166260	-0.476563	-0.517334	9.165545	61.747010	127.075740
04551		-10.182460	4.787387	11.214420	-0.116789	4.576360	-1.843002	-0.124512	-0.477051	-0.514893	7.808451	64.490429	125.627790
04552		-6.971557	4.627794	9.467337	-0.169458	4.292849	-1.943802	-0.093262	-0.467529	-0.516357	5.913675	67.062433	123.655299
04553		-4.100666	3.921798	7.177345	-0.200855	4.035478	-1.958287	-0.065186	-0.467285	-0.508057	3.478965	69.452997	121.156646
04554		-1.049387	3.381102	4.627772	-0.271718	3.841086	-1.928987	-0.029541	-0.461182	-0.492432	0.412569	71.687637	118.069123
04555		-4.628508	0.459487	9.023708	-0.269169	3.346590	-1.897974	0.000732	-0.463135	-0.485352	-3.359873	73.571313	114.276607
04556		-16.377505	2.588380	17.793252	-0.006212	1.566824	-1.555220	0.020996	-0.452881	-0.490234	-6.716858	74.384872	110.786129
04557		-10.297309	4.812162	16.090374	0.282213	-0.357275	-1.076517	0.014160	-0.452637	-0.486084	-8.604073	74.093305	108.655039
04558		-3.692113	6.082737	11.383212	0.114500	-1.676336	-0.760571	0.011475	-0.453613	-0.486328	-9.473867	73.073686	107.678223
04559		0.791725	5.318832	7.872567	-0.225744	-2.254356	-0.589229	-0.004883	-0.458984	-0.502930	-9.944447	71.736575	107.317807
04560		1.973456	4.174925	5.911903	-0.512483	-2.302181	-0.502596	-0.016846	-0.449219	-0.497803	-10.374411	70.384901	107.171969
04561		1.637654	2.637640	4.728063	-0.637530	-2.236868	-0.383942	-0.031006	-0.437988	-0.505371	-10.671490	69.077236	107.241891
04562		0.863573	1.420832	4.521307	-0.565429	-2.235737	-0.182730	-0.044922	-0.441162	-0.516602	-10.645856	67.796505	107.616036
04563		-0.353476	0.998902	5.158504	-0.329009	-2.337484	0.069419	-0.058350	-0.427490	-0.515869	-10.150013	66.478587	108.355653
04564		-1.662032	1.281632	5.834874	-0.078098	-2.551346	0.343523	-0.075439	-0.445801	-0.525391	-9.208067	65.068076	109.435762
04565		-2.086427	1.873712	6.083596	0.020587	-2.851267	0.598634	-0.092773	-0.432861	-0.532959	-7.969455	63.495528	110.794088
04566		-2.073284	1.993917	6.157326	0.012728	-3.128133	0.801511	-0.113037	-0.430420	-0.537109	-6.633814	61.773323	112.287794
04567		-1.780070	1.417856	5.586409	-0.023850	-3.341385	0.952283	-0.140869	-0.439453	-0.536865	-5.303813	59.916859	113.822691
04568		-1.243729	0.504059	5.026758	-0.006359	-3.413432	1.033514	-0.162842	-0.431641	-0.550781	-4.054329	58.012959	115.283041
04569		-1.283547	-0.444980	5.000878	0.103214	-3.344677	1.021408	-0.192383	-0.434814	-0.557861	-2.901879	56.126019	116.581759
04570		-2.168313	-1.087845	5.500509	0.318103	-3.217029	0.920152	-0.210938	-0.439209	-0.567139	-1.845237	54.303188	117.644244
04571		-3.662037	-1.109054	6.232561	0.556082	-3.137304	0.803220	-0.239014	-0.433594	-0.555420	-0.840164	52.506923	118.495291
04572		-4.830540	-0.843687	6.870208	0.713050	-3.108242	0.739158	-0.266113	-0.444336	-0.565918	0.122567	50.725631	119.200058
04573		-5.406671	-0.143541	7.362388	0.749417	-3.087383	0.739672	-0.283203	-0.439697	-0.575928	1.041491	48.942171	119.836581
04574		-6.010062	0.185370	8.089327	0.694534	-3.058034	0.786795	-0.311523	-0.451660	-0.578857	1.895894	47.175894	120.447928
04575		-6.590451	0.167248	8.733045	0.650265	-3.050937	0.850536	-0.344727	-0.460449	-0.575684	2.712022	45.399096	121.057284
04576		-7.474868	0.161487	9.561371	0.675810	-3.092294	0.907985	-0.371826	-0.455322	-0.583984	3.519499	43.598431	121.654444
04577		-8.580945	0.441249	10.199710	0.740279	-3.192489	0.953559	-0.401367	-0.461914	-0.575195	4.337334	41.725375	122.230854
04578		-9.292453	0.880238	10.536851	0.757623	-3.334003	0.984160	-0.441162	-0.471680	-0.574463	5.123907	39.771808	122.768213
04579		-9.344699	1.082356	10.428664	0.723427	-3.436240	1.009568	-0.469482	-0.479980	-0.555420	5.855564	37.745840	123.269975
04580		-9.261486	0.851894	10.279933	0.684926	-3.446072	1.024063	-0.507324	-0.486816	-0.552490	6.528022	35.716228	123.735317
04581		-9.405281	0.520727	10.167398	0.685932	-3.407525	1.011462	-0.547852	-0.481934	-0.548096	7.163844	33.697900	124.156509
04582		-9.270050	0.476048	9.849773	0.714089	-3.355782	0.964721	-0.581299	-0.488525	-0.525146	7.767819	31.716215	124.513923
04583		-8.655081	0.560721	9.223276	0.741639	-3.213762	0.884317	-0.601074	-0.486816	-0.506104	8.342677	29.811388	124.801359
04584		-8.595524	1.005101	8.875217	0.745160	-2.964683	0.776669	-0.627197	-0.485596	-0.487061	8.875334	28.061789	125.016370
04585		-8.804638	1.507956	8.688539	0.708468	-2.663869	0.666844	-0.649414	-0.488770	-0.480713	9.355545	26.483831	125.172303
04586		-9.234455	1.808790	8.541079	0.643424	-2.352423	0.592178	-0.672363	-0.488037	-0.460205	9.780427	25.094817	125.297733
04587		-9.459944	1.947008	8.271767	0.592373	-2.036513	0.543985	-0.681641	-0.493164	-0.452881	10.171793	23.881541	125.416253
04588		-10.581472	1.774729	8.989553	0.609983	-1.741588	0.532658	-0.701904	-0.491699	-0.445557	10.576006	22.841477	125.550092
04589		-12.862280	1.022437	9.778612	0.790861	-1.636409	0.619629	-0.709229	-0.489502	-0.434082	11.104019	21.844205	125.739595
04590		-13.533515	1.286110	9.317166	1.025000	-1.695102	0.789134	-0.716797	-0.491699	-0.416992	11.791576	20.798961	126.010822
04591		-12.619578	1.961349	7.760919	1.112566	-1.725502	0.971520	-0.736816	-0.495605	-0.412109	12.556645	19.706196	126.371491
04592		-11.364747	2.163953	6.159545	1.011895	-1.556984	1.102077	-0.754639	-0.494385	-0.400635	13.283694	18.691843	126.814296
04593		-11.373281	1.839894	5.240234	0.796708	-1.257019	1.166774	-0.760010	-0.500244	-0.388184	13.902297	17.826374	127.323019
04594		-12.079964	1.051940	4.665414	0.582938	-0.979217	1.199856	-0.758057	-0.496338	-0.381592	14.405206	17.110536	127.880231
04595		-12.457905	0.458646	4.071290	0.382913	-0.758737	1.204249	-0.770264	-0.493896	-0.386230	14.796619	16.508347	128.465837
04596		-11.974630	-0.154717	3.171379	0.183845	-0.557470	1.149026	-0.786865	-0.483398	-0.373535	15.065800	16.026352	129.044897
04597		-11.647635	-0.950912	2.506213	0.012287	-0.311663	1.009969	-0.786133	-0.481689	-0.363037	15.221505	15.696089	129.579549
04598		-12.551679	-1.619711	2.902802	-0.036895	-0.098648	0.797945	-0.780762	-0.479248	-0.382080	15.321611	15.517390	130.024138
04599		-14.266279	-2.939497	3.484065	0.103355	-0.078777	0.593183	-0.790527	-0.475830	-0.370117	15.471045	15.377804	130.354022
04600		-14.046008	-2.850085	3.052492	0.346295	-0.191002	0.423736	-0.791260	-0.472168	-0.368896	15.727530	15.203349	130.568028
04601		-12.776453	-2.065173	2.484667	0.481271	-0.205060	0.222680	-0.786377	-0.475342	-0.374023	16.030390	15.050636	130.664067
04602		-11.867986	-1.511298	2.289401	0.489946	-0.095529	0.005913	-0.801270	-0.479004	-0.361816	16.310058	14.993340	130.653704
04603		-12.615805	8.969975	3.240866	-1.196908	0.976737	-0.521225	-0.788086	-0.474121	-0.378418	15.590214	15.609614	130.517590
04604		-3.815377	-3.086670	3.840856	-1.775902	1.431551	-1.018523	-0.776611	-0.478516	-0.394043	14.473760	16.549367	130.154581
04605		-5.759910	4.660809	13.847282	-2.009912	1.120484	-0.907729	-0.771484	-0.462646	-0.405029	13.217935	17.293912	129.789698
04606		-1.699331	5.777377	11.237614	-1.858338	1.083913	-0.881213	-0.760986	-0.451660	-0.398682	12.041950	18.006657	129.417506
04607		3.952396	-1.014003	7.360560	-1.582423	1.574109	-0.907489	-0.761719	-0.455322	-0.417969	11.028129	18.991122	129.073082
04608		-1.866785	-3.334855	9.517759	-1.330225	2.340847	-1.010758	-0.737305	-0.443604	-0.431396	10.152817	20.412339	128.732750
04609		-11.802541	-4.943367	13.643965	-0.867718	2.211336	-0.776475	-0.728516	-0.437744	-0.449707	9.573173	21.733415	128.498268
04610		-11.157936	-0.342857	12.507030	-0.557335	1.714665	-0.488589	-0.716064	-0.429688	-0.442139	9.209073	22.744833	128.375681
04611		-9.323350	2.605611	12.069437	-0.533897	1.451077	-0.316873	-0.702393	-0.436768	-0.454834	8.884897	23.591561	128.325432
04612		-13.540111	-0.567814	13.018019	-0.585723	0.890615	-0.286362	-0.699219	-0.436279	-0.464600	8.514435	24.117297	128.235176
04613		-4.785339	-3.390926	9.830845	-0.270476	0.254538	-0.109579	-0.701904	-0.429199	-0.460938	8.343659	24.268346	128.193115
04614		-3.807694	1.029066	9.425918	-0.162650	0.394963	-0.056061	-0.690674	-0.421631	-0.458496	8.253624	24.493432	128.196802
04615		-5.137952	2.029176	9.013110	-0.147255	0.317236	-0.038675	-0.695068	-0.433350	-0.468994	8.173391	24.674086	128.203748
04616		-5.242035	0.561854	9.073150	-0.121320	0.226775	-0.024016	-0.694580	-0.426758	-0.467041	8.108864	24.801188	128.211751
04617		-4.976267	1.260454	8.962247	-0.074287	0.134566	0.004381	-0.688721	-0.433105	-0.473389	8.074784	24.874829	128.228968
04618		-4.412865	1.609756	8.852871	-0.072950	0.082489	-0.003121	-0.688965	-0.425537	-0.471924	8.038032	24.918410	128.237069
04619		-4.251842	1.461898	8.831358	-0.088317	0.070260	-0.011481	-0.680420	-0.428955	-0.471436	7.989346	24.956887	128.238609
04620		-4.354526	1.559258	8.786696	-0.100192	0.052251	-0.031140	-0.680664	-0.418213	-0.470947	7.928442	24.985544	128.226448
04621		-4.120924	1.770580	8.679993	-0.133948	0.033152	-0.057978	-0.687256	-0.425781	-0.471680	7.839936	25.006623	128.195574
04622		-4.219115	1.651104	8.705910	-0.158042	0.028050	-0.087264	-0.695313	-0.429932	-0.477539	7.730091	25.025864	128.146081
04623		-4.210527	1.327088	8.797663	-0.185864	0.014556	-0.097334	-0.687744	-0.419189	-0.465820	7.600728	25.039281	128.088901
04624		-4.067975	1.060213	8.875060	-0.200868	0.015001	-0.113503	-0.685791	-0.425293	-0.472412	7.458854	25.052881	128.021770
04625		-4.016780	1.021848	8.897947	-0.216209	0.015908	-0.124877	-0.684326	-0.424805	-0.474121	7.304775	25.068829	127.947344
04626		-4.076396	1.221900	8.812512	-0.243214	0.000029	-0.144439	-0.687988	-0.428223	-0.471191	7.129840	25.075813	127.859513
04627		-4.355401	1.221984	8.950153	-0.258430	-0.009280	-0.141542	-0.685059	-0.417480	-0.467041	6.946242	25.078187	127.772565
04628		-4.313582	1.102503	8.868304	-0.258778	-0.026229	-0.128556	-0.675293	-0.422119	-0.474121	6.765754	25.068646	127.692680
04629		-4.221495	1.217682	8.911660	-0.258249	-0.035879	-0.127516	-0.688232	-0.417236	-0.472900	6.585192	25.054455	127.612594
04630		-4.349498	1.268642	8.881034	-0.255212	-0.043846	-0.128934	-0.683838	-0.415039	-0.472656	6.406187	25.034455	127.531298
04631		-4.392581	0.849155	8.953277	-0.238295	-0.056470	-0.122616	-0.689209	-0.415039	-0.464600	6.237878	25.007781	127.452999
04632		-4.210047	0.948650	8.984225	-0.217750	-0.051888	-0.112967	-0.679688	-0.412354	-0.467041	6.084479	24.981788	127.381354
04633		-4.286966	0.857541	8.949545	-0.209562	-0.054558	-0.116064	-0.684814	-0.415039	-0.473633	5.934567	24.955424	127.307499
04634		-4.045895	0.904846	9.044986	-0.189774	-0.045716	-0.113703	-0.692627	-0.411621	-0.473145	5.797303	24.932658	127.235969
04635		-4.097388	0.884244	8.959784	-0.178481	-0.031780	-0.120195	-0.677246	-0.405762	-0.472412	5.664828	24.919182	127.161125
04636		-3.910000	0.918572	9.004363	-0.159044	-0.021618	-0.121378	-0.683838	-0.412354	-0.464844	5.543853	24.910290	127.086389
04637		-3.919565	0.837996	9.071691	-0.132301	0.004701	-0.115853	-0.692627	-0.411377	-0.474609	5.439963	24.917079	127.016557
04638		-4.076779	0.815719	9.125790	-0.113644	0.033150	-0.115429	-0.685059	-0.409912	-0.476807	5.347945	24.938858	126.948844
04639		-4.117527	0.962116	9.074805	-0.107899	0.047263	-0.112518	-0.693848	-0.411621	-0.471924	5.259903	24.969519	126.883552
04640		-4.242865	0.910839	8.957465	-0.100035	0.054670	-0.113194	-0.687012	-0.411133	-0.475586	5.176692	25.003273	126.818378
04641		-4.306845	0.638629	8.954367	-0.115092	0.059525	-0.118088	-0.683838	-0.412354	-0.468262	5.083219	25.041028	126.750140
04642		-4.375189	0.555104	8.895589	-0.100063	0.051232	-0.116294	-0.683105	-0.407227	-0.478027	4.998947	25.072793	126.682669
04643		-4.374866	0.494239	8.903221	-0.091564	0.054878	-0.101461	-0.690430	-0.415771	-0.472900	4.923134	25.106894	126.624491
04644		-4.297281	0.512535	8.878212	-0.084859	0.056144	-0.093825	-0.681152	-0.417969	-0.475098	4.853574	25.140203	126.571323
04645		-4.408585	0.513222	8.873044	-0.075083	0.059088	-0.090025	-0.684326	-0.406250	-0.470215	4.790228	25.176034	126.520451
04646		-4.314276	0.539070	8.864627	-0.066880	0.058881	-0.081654	-0.686035	-0.407227	-0.479492	4.734194	25.210221	126.474995
04647		-4.331907	0.483633	8.888679	-0.062772	0.069830	-0.074109	-0.685791	-0.410645	-0.478027	4.682299	25.251354	126.434613
04648		-4.375235	0.481847	8.813828	-0.056378	0.075995	-0.066931	-0.685547	-0.413818	-0.477051	4.636529	25.294555	126.399237
04649		-4.373480	0.550973	8.813895	-0.054303	0.063647	-0.056892	-0.677246	-0.411377	-0.478027	4.593886	25.331309	126.369307
04650		-4.382354	0.574237	8.840861	-0.054525	0.056070	-0.046481	-0.677979	-0.406982	-0.473877	4.554198	25.362149	126.345756
04651		-4.324808	0.629912	8.862885	-0.051826	0.044739	-0.046231	-0.677734	-0.410645	-0.484863	4.515385	25.387590	126.321541
04652		-4.277659	0.633079	8.877761	-0.049073	0.040492	-0.039808	-0.686035	-0.400879	-0.479736	4.480256	25.409203	126.301378
04653		-4.331315	0.604920	8.792301	-0.043921	0.029815	-0.033603	-0.679199	-0.400391	-0.479492	4.449045	25.425530	126.284369
04654		-4.252040	0.508623	8.915247	-0.040680	0.027161	-0.028750	-0.681152	-0.412354	-0.474854	4.421423	25.439018	126.270516
04655		-4.273893	0.368005	8.869238	-0.039381	0.044800	-0.016132	-0.681152	-0.402344	-0.489258	4.397850	25.463120	126.265265
04656		-4.270388	0.447669	8.904491	-0.027801	0.044873	-0.008001	-0.679688	-0.410156	-0.478760	4.383608	25.485806	126.265385
04657		-4.272308	0.569720	8.896728	-0.019036	0.044580	-0.001011	-0.686035	-0.416260	-0.483643	4.375776	25.509114	126.269669
04658		-4.296680	0.728019	8.829072	-0.023335	0.049226	0.000205	-0.683105	-0.414307	-0.474609	4.366418	25.533929	126.275186
04659		-4.215846	0.745822	8.877526	-0.026186	0.041787	-0.007126	-0.671875	-0.406006	-0.480469	4.352761	25.555906	126.275456
04660		-4.288543	0.734289	8.876297	-0.036413	0.050640	-0.008669	-0.685059	-0.410645	-0.484375	4.333512	25.581916	126.275410
04661		-4.234584	0.673167	8.798224	-0.039746	0.054961	-0.013684	-0.674805	-0.404785	-0.480469	4.310567	25.611697	126.272145
04662		-4.273840	0.664633	8.796354	-0.042876	0.055999	-0.018391	-0.676514	-0.407715	-0.477539	4.285051	25.641187	126.266170
04663		-4.312535	0.649181	8.760525	-0.046715	0.055179	-0.024934	-0.684082	-0.407471	-0.482666	4.255017	25.671565	126.255755
04664		-4.274236	0.576898	8.771860	-0.043917	0.052012	-0.026880	-0.680176	-0.409668	-0.478760	4.226470	25.699131	126.244175
04665		-4.341822	0.381130	8.857086	-0.031329	0.052539	-0.013330	-0.678223	-0.399902	-0.482910	4.208364	25.727502	126.240960
04666		-4.322292	0.602055	8.831189	-0.021808	0.055201	-0.012854	-0.673828	-0.402588	-0.481934	4.196392	25.756295	126.238401
04667		-4.340888	0.712311	8.772802	-0.023099	0.043554	-0.010948	-0.679199	-0.409424	-0.482422	4.183457	25.779429	126.236258
04668		-4.297738	0.755563	8.851496	-0.023231	0.034586	-0.020391	-0.684326	-0.406738	-0.480225	4.168164	25.796754	126.227944
04669		-4.312482	0.705699	8.876184	-0.025869	0.033697	-0.029764	-0.679443	-0.404785	-0.474365	4.148248	25.815034	126.213394
04670		-4.291817	0.788702	8.789139	-0.031000	0.031054	-0.036737	-0.681641	-0.411621	-0.479004	4.123901	25.831011	126.194524
04671		-4.260096	0.925289	8.850581	-0.031640	0.026780	-0.050045	-0.680908	-0.407715	-0.476563	4.094923	25.846154	126.166765
04672		-4.197459	0.810296	8.888739	-0.042286	0.038688	-0.055312	-0.678467	-0.411865	-0.487793	4.059096	25.867233	126.136422
04673		-4.313137	0.583374	8.855110	-0.049532	0.047393	-0.063934	-0.682129	-0.412842	-0.482666	4.016410	25.894673	126.100745
04674		-4.309610	0.374555	8.837848	-0.044508	0.051700	-0.057111	-0.669189	-0.408691	-0.484619	3.979017	25.923224	126.069789
04675		-4.287687	0.154250	8.875357	-0.044086	0.066345	-0.037906	-0.664795	-0.405518	-0.481445	3.946984	25.960419	126.051429
04676		-4.221440	0.121795	8.808680	-0.042580	0.089641	-0.015470	-0.675293	-0.408936	-0.482666	3.922963	26.008990	126.048557
04677		-4.180663	0.133720	8.855337	-0.037410	0.120958	-0.003667	-0.671631	-0.398926	-0.483643	3.905271	26.076040	126.054289
04678		-4.228630	0.548646	8.966084	-0.015996	0.140346	0.004118	-0.671875	-0.401123	-0.481201	3.902921	26.152829	126.066058
04679		-4.384076	0.713837	8.873163	-0.002278	0.146378	-0.002144	-0.670898	-0.404297	-0.479248	3.906266	26.234333	126.073850
04680		-4.443745	0.674413	8.819939	0.010861	0.142588	-0.004669	-0.672119	-0.408936	-0.496338	3.916908	26.312746	126.080142
04681		-4.417900	0.503271	8.933865	0.035914	0.144883	-0.009189	-0.675293	-0.408691	-0.477539	3.940164	26.393667	126.083427
04682		-4.207627	0.521659	8.984338	0.067234	0.160393	-0.000207	-0.664795	-0.401855	-0.485596	3.984779	26.482075	126.093442
04683		-4.142370	0.419935	9.139531	0.101442	0.207030	-0.005384	-0.662109	-0.403076	-0.483643	4.047978	26.598343	126.102083
04684		-4.012600	0.312695	9.332182	0.129979	0.270755	0.002563	-0.672607	-0.404053	-0.487793	4.131750	26.749689	126.119157
04685		-3.993657	0.501349	9.288581	0.153858	0.345103	-0.000595	-0.663574	-0.416748	-0.490479	4.229483	26.944587	126.137710
04686		-4.049090	0.512051	9.395131	0.160357	0.430901	-0.008762	-0.660889	-0.411377	-0.490723	4.331241	27.187867	126.155833
04687		-4.032453	0.550893	9.584484	0.173149	0.523124	-0.009740	-0.661621	-0.410156	-0.496826	4.441885	27.484745	126.178143
04688		-3.854942	0.737304	9.769003	0.178109	0.634078	-0.023978	-0.659180	-0.416992	-0.503418	4.554743	27.844699	126.197904
04689		-3.881451	0.772604	9.932941	0.188336	0.778817	-0.050297	-0.644043	-0.422119	-0.502441	4.668958	28.289307	126.208774
04690		-3.782646	0.602259	10.194636	0.310841	0.964986	-0.073675	-0.648193	-0.420166	-0.505615	4.852236	28.840483	126.216184
04691		-3.589412	0.557656	10.209115	0.386502	1.190088	-0.072328	-0.629883	-0.423828	-0.504639	5.086149	29.520749	126.239302
04692		-3.716362	0.238648	10.232918	0.466484	1.442930	-0.053004	-0.623535	-0.427734	-0.502686	5.382611	30.343471	126.294509
04693		-3.709906	0.245356	10.341860	0.553015	1.690036	-0.023929	-0.612061	-0.435059	-0.517822	5.749938	31.305742	126.390716
04694		-3.361736	0.703116	10.325449	0.592612	1.958092	-0.011112	-0.598877	-0.435059	-0.521729	6.161169	32.418879	126.523399
04695		-3.355191	1.027270	9.990377	0.578679	2.260085	-0.042501	-0.578369	-0.443359	-0.532959	6.573084	33.705484	126.668559
04696		-3.325592	1.117645	9.939919	0.540171	2.576837	-0.091710	-0.557373	-0.436768	-0.535400	6.969590	35.174391	126.819482
04697		-3.734329	1.124617	9.639627	0.464215	2.895159	-0.130547	-0.537354	-0.450928	-0.543701	7.334468	36.826301	126.985717
04698		-4.095558	1.234060	9.537131	0.383846	3.182138	-0.201776	-0.520508	-0.451904	-0.553223	7.653330	38.645596	127.144647
04699		-4.243094	1.281250	9.340016	0.295516	3.460380	-0.289211	-0.483643	-0.453125	-0.563721	7.912014	40.628883	127.282830
04700		-4.897314	0.930257	9.150699	0.266854	3.718612	-0.395695	-0.453857	-0.456543	-0.561523	8.133712	42.766816	127.383758
04701		-5.245390	0.684908	9.055718	0.321876	4.028930	-0.479106	-0.427246	-0.465332	-0.571777	8.378978	45.086947	127.469669
04702		-6.293501	1.227037	9.600790	0.405240	4.330720	-0.547734	-0.395264	-0.460938	-0.581543	8.675752	47.583884	127.556623
04703		-7.427220	2.731304	10.454773	0.472046	4.543853	-0.560636	-0.349365	-0.475098	-0.589111	9.045583	50.201725	127.686777
04704		-9.150835	3.774869	11.019905	0.423378	4.657101	-0.559177	-0.329590	-0.473877	-0.579590	9.434211	52.883354	127.871093
04705		-10.812895	4.863927	11.399494	0.290558	4.620252	-0.635873	-0.277344	-0.485352	-0.585693	9.717369	55.549996	128.013193
04706		-10.967120	4.287338	10.908391	0.136830	4.427653	-0.843773	-0.249023	-0.476074	-0.591553	9.727464	58.128524	127.929655
04707		-10.482452	2.485904	8.786872	0.232882	4.356015	-1.040175	-0.211182	-0.475342	-0.580811	9.580147	60.684369	127.601833
04708		-11.668753	2.150616	9.736979	0.619837	4.208908	-1.134332	-0.176758	-0.486328	-0.583740	9.488636	63.166727	127.093821
04709		-10.657543	2.800617	9.187437	1.022383	3.964484	-1.255301	-0.142578	-0.501709	-0.576660	9.378557	65.520618	126.320209
04710		-8.267454	3.483813	8.165929	1.284883	3.825432	-1.414870	-0.115723	-0.512451	-0.565186	9.082045	67.810654	125.193864
04711		-6.458998	3.294419	7.103642	1.413161	3.731245	-1.595718	-0.084229	-0.519043	-0.562988	8.396841	70.057674	123.590376
04712		-5.144397	2.599764	5.917416	1.475978	3.654764	-1.737745	-0.052734	-0.520996	-0.547363	7.192390	72.264292	121.422790
04713		-4.109191	2.252591	4.731771	1.500692	3.565044	-1.850637	-0.022705	-0.522461	-0.535156	5.283404	74.405333	118.531225
04714		-5.715354	1.315241	8.979022	1.590957	3.153457	-1.938043	-0.003174	-0.545166	-0.512695	2.435081	76.280534	114.643699
04715		-16.368175	5.818868	15.582631	1.466090	1.850654	-1.811271	0.004883	-0.545166	-0.510498	-1.084966	77.348394	110.164026
04716		-12.259806	8.704157	15.564307	0.938145	0.263296	-1.395176	0.008057	-0.558838	-0.513184	-4.137048	77.459791	106.484281
04717		-7.398242	8.437584	12.424772	0.058856	-0.929489	-0.985682	0.000977	-0.553223	-0.519775	-6.335439	76.871894	104.192993
04718		-3.435971	6.158253	9.920087	-0.693128	-1.620114	-0.686730	-0.007324	-0.549805	-0.520020	-7.856037	75.899402	103.035422
04719		-1.579658	3.628903	7.996714	-1.095492	-1.840322	-0.503142	-0.032715	-0.544678	-0.515137	-8.960499	74.807827	102.540361
04720		-0.837560	1.837876	6.635244	-1.209673	-1.856652	-0.359244	-0.046387	-0.539307	-0.530029	-9.747034	73.722180	102.441607
04721		-1.103702	0.694918	6.075455	-1.126459	-1.863871	-0.197993	-0.060547	-0.539795	-0.520996	-10.129549	72.643996	102.713749
04722		-1.867650	0.402916	6.085337	-0.948683	-1.967169	-0.036951	-0.080566	-0.521973	-0.528564	-10.112555	71.528185	103.301130
04723		-2.388787	0.402522	6.010155	-0.757001	-2.150327	0.116949	-0.113281	-0.522705	-0.534180	-9.721501	70.318881	104.171144
04724		-2.082863	0.714054	5.735910	-0.610900	-2.321306	0.237252	-0.140869	-0.532715	-0.543457	-9.111231	69.026427	105.193414
04725		-2.119741	1.050359	5.705161	-0.517509	-2.449327	0.313027	-0.163574	-0.526123	-0.544922	-8.405402	67.658985	106.269004
04726		-2.356143	1.132587	5.778816	-0.468761	-2.554161	0.348196	-0.193359	-0.525879	-0.543945	-7.717992	66.235307	107.306116
04727		-2.982375	1.091908	6.214433	-0.394751	-2.686347	0.354437	-0.227783	-0.535400	-0.547852	-7.053263	64.726764	108.282253
04728		-3.476548	0.784207	6.366266	-0.267238	-2.877015	0.366857	-0.265137	-0.534668	-0.544189	-6.377671	63.111481	109.203008
04729		-3.254843	0.681634	6.216116	-0.085554	-3.059840	0.398889	-0.309082	-0.535889	-0.540771	-5.632486	61.383117	110.097142
04730		-2.658368	0.949768	5.914566	0.097466	-3.111150	0.464149	-0.341553	-0.553711	-0.533691	-4.814123	59.629324	110.971198
04731		-2.762962	1.257015	6.070697	0.234957	-3.061778	0.586365	-0.379150	-0.552246	-0.521973	-3.895561	57.896432	111.884503
04732		-3.481835	1.706080	6.757649	0.307488	-2.999748	0.764889	-0.429688	-0.559326	-0.529053	-2.881149	56.203650	112.881336
04733		-4.509582	2.058375	7.720750	0.330444	-3.016152	0.991856	-0.479004	-0.566650	-0.505859	-1.758514	54.490244	114.012075
04734		-5.340190	2.154463	8.396627	0.315526	-3.089544	1.229644	-0.533203	-0.570068	-0.486572	-0.567337	52.731615	115.264995
04735		-5.905461	2.206825	8.748872	0.292188	-3.180292	1.432209	-0.580078	-0.573486	-0.457031	0.651151	50.898609	116.598090
04736		-6.445560	1.979798	9.156868	0.279029	-3.261902	1.575789	-0.638916	-0.585938	-0.430176	1.841807	49.007220	117.942244
04737		-7.178041	1.597204	9.714585	0.301660	-3.349868	1.678891	-0.689941	-0.583496	-0.394043	3.000987	47.038274	119.264650
04738		-7.577260	1.303164	10.248206	0.352147	-3.471476	1.729373	-0.751221	-0.576416	-0.349854	4.104273	44.988325	120.515098
04739		-7.974954	1.078210	10.718480	0.402691	-3.602448	1.742631	-0.800293	-0.563721	-0.304443	5.140127	42.839505	121.671345
04740		-8.314654	1.018045	11.087976	0.433320	-3.728553	1.700724	-0.860107	-0.557861	-0.252197	6.071293	40.614804	122.694630
04741		-8.393993	0.989085	11.183812	0.425901	-3.840287	1.614005	-0.901611	-0.548828	-0.173096	6.873661	38.313040	123.568306
04742		-8.300434	0.803086	11.136918	0.405700	-3.925287	1.492555	-0.924805	-0.522217	-0.094238	7.538714	35.971042	124.281862
04743		-8.095950	0.604368	10.951888	0.402231	-3.950272	1.332305	-0.943115	-0.513428	-0.013672	8.086099	33.613659	124.832225
04744		-8.050299	0.708858	10.775719	0.423048	-3.916679	1.152775	-0.959961	-0.502441	0.072021	8.541037	31.294160	125.225119
04745		-8.201557	1.130050	10.753597	0.440465	-3.835191	0.987278	-0.939209	-0.483643	0.136719	8.928945	29.025100	125.489426
04746		-8.665952	1.615549	11.034057	0.478233	-3.747788	0.864351	-0.911865	-0.475342	0.195557	9.284955	26.822945	125.660936
04747		-9.206353	2.104554	11.550729	0.517110	-3.681971	0.808886	-0.892822	-0.467773	0.253418	9.638584	24.654771	125.786742
04748		-9.609545	2.542180	11.988985	0.575478	-3.660630	0.834593	-0.847900	-0.457275	0.296875	10.020397	22.502997	125.912750
04749		-9.540689	3.234034	12.068876	0.603663	-3.654250	0.905349	-0.819092	-0.467041	0.330811	10.424628	20.339660	126.065018
04750		-9.313271	3.447483	11.976972	0.610802	-3.607131	0.992377	-0.780273	-0.465820	0.353271	10.839155	18.199926	126.255538
04751		-9.188577	3.284943	11.569854	0.640911	-3.516336	1.083243	-0.750732	-0.467773	0.377686	11.278724	16.093152	126.491399
04752		-8.927955	3.035214	10.830894	0.698027	-3.381600	1.170142	-0.720703	-0.473633	0.388184	11.753725	14.057179	126.773503
04753		-8.666198	3.040942	10.293071	0.743092	-3.180516	1.255263	-0.693848	-0.462402	0.400146	12.258342	12.115142	127.109202
04754		-8.598922	3.167682	9.948789	0.729003	-2.947754	1.326523	-0.654541	-0.469482	0.409668	12.752703	10.298043	127.495059
04755		-8.579340	3.059590	9.500493	0.667797	-2.692104	1.378980	-0.626709	-0.469971	0.413330	13.209066	8.608019	127.926778
04756		-8.444852	2.600326	8.935820	0.591146	-2.417010	1.408118	-0.606445	-0.474854	0.390625	13.613554	7.070117	128.396907
04757		-8.454595	2.080925	8.726302	0.546496	-2.145968	1.416017	-0.579102	-0.474854	0.393555	13.984961	5.673590	128.896933
04758		-8.519489	1.812845	8.497790	0.499744	-1.895328	1.431316	-0.559814	-0.481445	0.377197	14.319892	4.416371	129.430780
04759		-8.945307	1.764864	8.663021	0.417596	-1.707246	1.449677	-0.549316	-0.487793	0.348633	14.599526	3.253433	129.994290
04760		-9.373179	1.050040	8.559092	0.325576	-1.604849	1.485248	-0.550049	-0.487549	0.333984	14.815605	2.144252	130.586665
04761		-9.010712	0.176688	7.962390	0.272359	-1.537450	1.542052	-0.538330	-0.491455	0.328613	14.991768	1.058116	131.216284
04762		-8.758498	0.117445	7.228934	0.183410	-1.438849	1.539384	-0.539307	-0.500488	0.312012	15.104566	0.029233	131.856075
04763		-7.932003	0.058420	6.352250	0.010361	-1.279645	1.452580	-0.543945	-0.503418	0.289551	15.108100	-0.902421	132.470602
04764		-7.306021	-0.691741	5.765757	-0.155158	-1.057782	1.301274	-0.541016	-0.505615	0.287842	15.008085	-1.685130	133.035315
04765		-7.181368	-1.560929	5.580305	-0.186485	-0.821969	1.108471	-0.539795	-0.498047	0.268066	14.886061	-2.310207	133.529835
04766		-7.163540	-1.538772	5.585419	-0.147976	-0.624220	0.876676	-0.542969	-0.502930	0.257813	14.785280	-2.788291	133.926272
04767		-6.837215	-0.866526	5.720778	-0.151980	-0.469575	0.623225	-0.550781	-0.501953	0.256104	14.685527	-3.144924	134.205635
04768		-6.387752	-0.251347	5.973889	-0.211679	-0.334733	0.388120	-0.542969	-0.509277	0.241943	14.556240	-3.390367	134.374756
04769		-6.113226	0.082133	6.214553	-0.269018	-0.232533	0.205377	-0.553223	-0.514648	0.244385	14.398685	-3.553796	134.457639
04770		-5.812278	0.442960	6.420440	-0.315944	-0.159693	0.073973	-0.554443	-0.522705	0.230713	14.218003	-3.656651	134.478238
04771		-5.369433	0.640783	6.528291	-0.334040	-0.112304	-0.004142	-0.558105	-0.512939	0.226318	14.029121	-3.722927	134.462328
04772		-4.807202	0.813862	6.386181	-0.352670	-0.065870	-0.046249	-0.550293	-0.516602	0.220947	13.830829	-3.756887	134.429581
04773		-4.130678	0.948379	6.103905	-0.370238	0.018836	-0.060824	-0.551758	-0.516357	0.215332	13.622017	-3.742104	134.400376
04774		-3.488339	0.947657	5.874971	-0.373552	0.155132	-0.077286	-0.554932	-0.514404	0.208252	13.410925	-3.649025	134.380207
04775		-3.262539	0.964932	5.907652	-0.347669	0.309304	-0.083932	-0.538574	-0.520752	0.210449	13.213329	-3.469093	134.376384
04776		-3.405976	1.093780	6.083725	-0.297462	0.449719	-0.083265	-0.544678	-0.516846	0.206299	13.043700	-3.210999	134.390653
04777		-3.653375	1.285046	6.207751	-0.247966	0.550414	-0.100393	-0.551758	-0.516357	0.197754	12.902057	-2.894040	134.407614
04778		-3.976400	1.308481	6.269527	-0.205358	0.633661	-0.119107	-0.539551	-0.513184	0.195801	12.785257	-2.528560	134.423999
04779		1.109322	-2.733097	11.192479	0.106708	1.314021	-0.332339	-0.541016	-0.518555	0.183105	12.848335	-1.755110	134.407527
04780		7.577553	5.089654	3.211790	0.226762	1.993268	-0.433460	-0.533447	-0.510986	0.185791	12.979586	-0.590104	134.422886
04781		3.703997	1.112239	9.552216	0.092668	2.156100	-0.835762	-0.528564	-0.523438	0.177979	13.033762	0.718057	134.236528
04782		2.947556	2.604609	8.155905	0.087026	2.581726	-1.033281	-0.521729	-0.530273	0.165039	13.078954	2.289108	133.996084
04783		-1.703120	2.428254	10.438295	-0.083936	2.835685	-1.189756	-0.508057	-0.534668	0.154785	13.015859	4.022213	133.700513
04784		-5.169681	1.553328	11.058254	-0.090135	2.873142	-1.102082	-0.512939	-0.539063	0.139648	12.945012	5.764502	133.456274
04785		-4.992990	2.261237	11.680377	-0.009556	2.923282	-0.920131	-0.500000	-0.528564	0.133057	12.924852	7.511583	133.318589
04786		-6.554275	4.052593	12.781348	-0.001519	2.885484	-0.804298	-0.493652	-0.534424	0.133057	12.914243	9.222355	133.240430
04787		-9.189374	4.270604	13.555892	-0.062098	2.579705	-0.728662	-0.487549	-0.541748	0.123291	12.866696	10.753309	133.164157
04788		-8.642982	3.710170	12.760668	-0.094958	2.213821	-0.575222	-0.480225	-0.538574	0.104736	12.806390	12.059590	133.126069
04789		-7.007772	3.738314	11.952901	-0.114829	1.945641	-0.427631	-0.484375	-0.530762	0.105225	12.744111	13.198489	133.135987
04790		-6.139544	2.736496	11.262896	-0.097122	1.712190	-0.295570	-0.474365	-0.533447	0.095459	12.703034	14.189048	133.190619
04791		-4.919689	1.655683	10.427089	-0.052562	1.520751	-0.221463	-0.477051	-0.540283	0.095459	12.692554	15.064818	133.262827
04792		-4.737173	1.554987	10.287289	-0.016718	1.389490	-0.204424	-0.477295	-0.541016	0.089600	12.702022	15.863551	133.328121
04793		-5.700500	2.009489	10.598984	-0.013941	1.208030	-0.202372	-0.462402	-0.538574	0.092285	12.707367	16.562282	133.371041
04794		-6.246881	2.665931	10.785430	-0.032072	0.996856	-0.162556	-0.462646	-0.540039	0.086426	12.701821	17.136277	133.409659
04795		-5.209626	2.748524	10.083669	-0.066491	0.801350	-0.112407	-0.461426	-0.535889	0.083984	12.677620	17.596599	133.451699
04796		-3.949763	2.422931	9.644856	-0.084132	0.726132	-0.066193	-0.463867	-0.537842	0.083496	12.649166	18.007177	133.510947
04797		-4.038800	1.993428	9.486647	-0.101633	0.674669	-0.072041	-0.468506	-0.534912	0.076172	12.607553	18.391765	133.559728
04798		-3.967015	1.923183	9.427833	-0.100859	0.622560	-0.064922	-0.464111	-0.530029	0.075928	12.566062	18.744342	133.605766
04799		-4.055920	2.118996	9.422752	-0.093448	0.591219	-0.038606	-0.461182	-0.532959	0.074707	12.532436	19.078221	133.662971
04800		-3.774119	1.715527	9.334427	-0.090958	0.554876	-0.034602	-0.456055	-0.534424	0.071045	12.500016	19.389228	133.717793
04801		-3.158816	1.785243	9.016489	-0.082221	0.556223	-0.044812	-0.463623	-0.541260	0.071777	12.470583	19.704402	133.766534
04802		-3.380727	2.031482	9.015450	-0.086155	0.587437	-0.047210	-0.458740	-0.529541	0.068115	12.440349	20.035239	133.818000
04803		-3.414699	1.837715	9.063899	-0.093633	0.606238	-0.055838	-0.456055	-0.533691	0.066650	12.404846	20.379795	133.866571
04804		-3.537071	2.158793	9.065576	-0.130914	0.624876	-0.103471	-0.451172	-0.539551	0.069580	12.339362	20.738562	133.889033
04805		-3.923973	2.335837	9.033068	-0.173085	0.612261	-0.137474	-0.451172	-0.537598	0.060059	12.241496	21.096536	133.888843
04806		-3.594707	2.467770	8.823347	-0.213957	0.603747	-0.153602	-0.451904	-0.532715	0.054932	12.116335	21.449598	133.877243
04807		-3.673786	2.544323	8.726758	-0.278653	0.613618	-0.196223	-0.443115	-0.536133	0.062500	11.944394	21.815337	133.840087
04808		-4.462312	2.645565	8.978011	-0.364483	0.580869	-0.241779	-0.444824	-0.529541	0.060059	11.710902	22.165852	133.769868
04809		-4.637816	2.158612	8.923447	-0.417960	0.476534	-0.241293	-0.446533	-0.541748	0.054688	11.440699	22.459544	133.685059
04810		-3.944832	2.057993	8.774391	-0.461901	0.420777	-0.238524	-0.440918	-0.531494	0.054199	11.142521	22.719119	133.593518
04811		-4.560713	2.015601	9.139142	-0.483135	0.386468	-0.246173	-0.448242	-0.537109	0.060547	10.827591	22.961871	133.491486
04812		-4.569860	1.229011	9.223041	-0.485599	0.299421	-0.218726	-0.437500	-0.539063	0.051758	10.513094	23.150084	133.394700
04813		-4.164678	1.146196	9.266640	-0.446514	0.258315	-0.198439	-0.426514	-0.531738	0.050293	10.223136	23.314671	133.304446
04814		-3.907576	1.493900	9.002526	-0.422186	0.236434	-0.189588	-0.449219	-0.531250	0.051270	9.947907	23.463510	133.216353
04815		-4.110914	1.716039	8.869800	-0.416308	0.231904	-0.178514	-0.443115	-0.535400	0.050293	9.677792	23.610390	133.133620
04816		-3.952201	1.309429	9.018109	-0.414935	0.221618	-0.171942	-0.439697	-0.529053	0.042236	9.409369	23.748410	133.053150
04817		-3.890227	1.335628	8.980261	-0.393805	0.228736	-0.167514	-0.433838	-0.531738	0.048828	9.153724	23.891731	132.975251
04818		-4.268628	1.099844	9.146308	-0.348077	0.218855	-0.147933	-0.443115	-0.530518	0.048340	8.928569	24.025375	132.907880
04819		-4.056271	1.311787	8.873902	-0.307363	0.202440	-0.139622	-0.436279	-0.526367	0.036865	8.727557	24.150740	132.843352
04820		-4.000622	1.712954	8.900274	-0.290340	0.225237	-0.123378	-0.437256	-0.520264	0.043213	8.541226	24.285447	132.790660
04821		-4.239053	0.736243	9.165386	-0.262756	0.227995	-0.114011	-0.437744	-0.530762	0.037354	8.372643	24.422700	132.743423
04822		-4.232246	0.927626	9.006583	-0.237069	0.220826	-0.102751	-0.429199	-0.523193	0.046631	8.221361	24.552915	132.702197
04823		-4.430633	1.102944	9.028441	-0.229304	0.210904	-0.091972	-0.427002	-0.530762	0.040771	8.076424	24.678406	132.666266
04824		-4.441499	0.802831	9.007714	-0.203343	0.180620	-0.078343	-0.434814	-0.524902	0.044678	7.948874	24.783673	132.635960
04825		-4.427864	0.956898	9.002055	-0.191908	0.158480	-0.074846	-0.432373	-0.529541	0.037842	7.827521	24.877882	132.605504
04826		-4.360713	1.127638	8.942665	-0.175442	0.130912	-0.078725	-0.424072	-0.524658	0.037354	7.713753	24.954841	132.570178
04827		-4.390849	1.152977	8.912874	-0.166268	0.109988	-0.077967	-0.432617	-0.523193	0.035156	7.604265	25.021601	132.533230
04828		-4.372924	1.385284	8.791650	-0.177215	0.079992	-0.091472	-0.430420	-0.521240	0.032715	7.484078	25.070471	132.485312
04829		-4.367076	1.516253	8.674263	-0.201293	0.054192	-0.105913	-0.434570	-0.524414	0.033691	7.344968	25.107411	132.425946
04830		-4.338397	1.500131	8.709800	-0.234017	0.031660	-0.116006	-0.429932	-0.526123	0.025146	7.183878	25.130376	132.358468
04831		-4.321360	1.375354	8.713717	-0.249410	0.010315	-0.123954	-0.433594	-0.519775	0.039551	7.010822	25.143309	132.284121
04832		-4.381088	0.993817	8.957732	-0.242159	-0.012256	-0.122317	-0.436279	-0.519775	0.041748	6.841864	25.141369	132.209165
04833		-4.374848	0.800408	8.991499	-0.213528	-0.019154	-0.106399	-0.430176	-0.526611	0.020752	6.693100	25.135919	132.143588
04834		-4.332394	0.587569	9.029000	-0.181603	-0.019340	-0.091322	-0.427979	-0.520508	0.027588	6.566914	25.127547	132.087617
04835		-4.328904	0.497303	9.043511	-0.143410	-0.008969	-0.072812	-0.425049	-0.525635	0.031738	6.467607	25.125404	132.043919
04836		-4.247619	0.627465	9.002256	-0.110183	-0.004170	-0.057585	-0.424805	-0.515381	0.031982	6.391828	25.123328	132.010275
04837		-4.183414	0.733107	8.947865	-0.089651	0.011295	-0.045220	-0.428223	-0.519043	0.026367	6.331267	25.130813	131.985350
04838		-4.204576	0.786394	8.883900	-0.074922	0.022665	-0.038278	-0.430176	-0.522461	0.026855	6.281637	25.142738	131.965718
04839		-4.126998	0.929099	8.875532	-0.066871	0.033042	-0.039043	-0.429443	-0.523926	0.032959	6.236391	25.162130	131.946160
04840		-4.150964	1.008174	8.806601	-0.063614	0.041474	-0.040002	-0.432617	-0.527588	0.033203	6.193304	25.184848	131.926706
04841		-4.082322	0.859997	8.971009	-0.049091	0.062730	-0.033900	-0.427979	-0.515381	0.036377	6.160464	25.220753	131.912376
04842		-4.242884	0.845685	8.809779	-0.040211	0.083491	-0.030123	-0.424072	-0.526855	0.023926	6.134616	25.266779	131.901953
04843		-4.204649	0.524320	8.967250	-0.024276	0.093057	-0.025814	-0.430908	-0.513428	0.026611	6.119010	25.319403	131.894727
04844		-4.271751	0.666993	8.954398	-0.010469	0.111735	-0.009801	-0.427002	-0.513184	0.035645	6.116471	25.380274	131.898987
04845		-4.240791	0.929666	8.887065	-0.001014	0.122265	-0.009951	-0.427246	-0.518066	0.026367	6.119295	25.448518	131.903716
04846		-4.221061	1.008731	8.903682	0.002908	0.127350	-0.012017	-0.422119	-0.520020	0.020752	6.124287	25.518419	131.907644
04847		-4.284332	1.021546	8.842199	0.005425	0.132314	-0.014669	-0.435303	-0.524902	0.033936	6.129840	25.592627	131.910097
04848		-4.253497	1.260244	8.778569	-0.008608	0.129446	-0.020418	-0.426025	-0.520264	0.024414	6.126014	25.664236	131.908872
04849		-4.300789	1.298773	8.730223	-0.013666	0.129655	-0.035915	-0.427246	-0.519287	0.021484	6.114754	25.738183	131.897718
04850		-4.344066	1.203028	8.775107	-0.038170	0.127635	-0.044557	-0.425537	-0.523193	0.028809	6.087276	25.810230	131.881060
04851		-4.384950	1.111985	8.714166	-0.045128	0.113547	-0.049776	-0.426270	-0.521240	0.025879	6.053664	25.875791	131.859977
04852		-4.388188	0.937117	8.739045	-0.056004	0.104583	-0.050413	-0.415283	-0.517822	0.030029	6.013590	25.935038	131.837954
04853		-4.389681	0.701134	8.844624	-0.058675	0.097751	-0.051037	-0.423828	-0.524414	0.018555	5.971329	25.991614	131.814910
04854		-4.425963	0.972809	8.739865	-0.057129	0.091291	-0.049882	-0.421387	-0.518311	0.023438	5.930283	26.043226	131.792228
04855		-4.340546	1.210320	8.697902	-0.062314	0.080278	-0.059612	-0.416504	-0.522949	0.024902	5.882956	26.090284	131.762483
04856		-4.363063	1.112933	8.762347	-0.081966	0.078553	-0.067950	-0.423340	-0.520996	0.025146	5.822181	26.135656	131.727388
04857		-4.353613	1.106310	8.777498	-0.080303	0.067912	-0.078111	-0.421631	-0.515625	0.031738	5.758947	26.176643	131.684984
04858		-4.243512	1.194436	8.745282	-0.088366	0.070175	-0.086771	-0.416504	-0.521240	0.025879	5.688883	26.218245	131.637257
04859		-4.348726	1.057191	8.760901	-0.095099	0.067344	-0.097818	-0.421387	-0.519531	0.022705	5.611524	26.259887	131.582163
04860		-4.396333	0.761709	8.856789	-0.093519	0.070245	-0.105699	-0.425293	-0.520752	0.014160	5.533047	26.302467	131.522245
04861		-4.384252	0.662389	8.921572	-0.083847	0.086347	-0.099354	-0.426758	-0.517090	0.015137	5.462076	26.354864	131.467178
04862		-4.328723	0.769398	8.866002	-0.072354	0.102254	-0.097197	-0.418945	-0.533447	0.017090	5.398819	26.415108	131.414440
04863		-4.280860	0.559570	8.983983	-0.055595	0.125051	-0.096573	-0.419189	-0.517578	0.022217	5.345662	26.489289	131.363276
04864		-4.327748	0.506520	9.019001	-0.048265	0.161266	-0.087628	-0.416504	-0.514160	0.021973	5.300288	26.582601	131.319950
04865		-4.240945	0.826029	9.015418	-0.048184	0.191401	-0.088074	-0.417236	-0.515625	0.012207	5.255300	26.694069	131.277897
04866		-4.287082	1.048328	8.916092	-0.066478	0.219683	-0.099761	-0.416016	-0.525391	0.017090	5.197270	26.821280	131.229972
04867		-4.212204	1.145054	8.929045	-0.076410	0.250436	-0.107971	-0.413330	-0.519775	0.007324	5.131586	26.967342	131.178268
04868		-4.155400	1.169290	8.969319	-0.101553	0.291187	-0.128602	-0.417236	-0.518066	0.016357	5.046478	27.136723	131.115475
04869		-4.171878	1.186357	9.005543	-0.125674	0.335013	-0.155724	-0.412598	-0.515137	0.012695	4.940170	27.333252	131.037227
04870		-4.224066	1.063988	9.129680	-0.151522	0.386945	-0.187558	-0.413818	-0.519043	0.022705	4.810558	27.559961	130.940829
04871		-4.240487	0.900640	9.154335	-0.155607	0.452307	-0.217329	-0.417236	-0.518555	0.010254	4.670419	27.826017	130.827838
04872		-4.330086	0.372475	9.244553	-0.140923	0.524781	-0.237447	-0.413086	-0.514404	0.009277	4.533519	28.133329	130.704655
04873		-4.340081	0.329610	9.384318	-0.089610	0.606343	-0.261679	-0.409668	-0.514648	0.001221	4.419207	28.488835	130.568671
04874		-4.223831	0.471217	9.363246	-0.051483	0.715866	-0.290211	-0.399658	-0.514404	0.007080	4.319172	28.907171	130.418374
04875		-4.239879	-0.025704	9.706159	-0.010564	0.841700	-0.261064	-0.402588	-0.526611	0.005371	4.253004	29.396658	130.291873
04876		-4.357457	0.024927	9.742616	0.035783	0.999928	-0.219416	-0.400635	-0.518555	0.000977	4.229377	29.974008	130.199464
04877		-4.165836	0.062011	9.826660	0.103206	1.171943	-0.188790	-0.403320	-0.517822	-0.003662	4.257498	30.648962	130.135098
04878		-4.138405	0.016472	9.852254	0.187322	1.371365	-0.172057	-0.405029	-0.523438	0.009277	4.344396	31.436579	130.092309
04879		-4.076434	-0.132211	9.914801	0.282140	1.586722	-0.140701	-0.397705	-0.521973	-0.008057	4.502726	32.346419	130.083275
04880		-4.122620	-0.254783	9.940510	0.379623	1.807463	-0.101282	-0.388184	-0.522217	-0.003418	4.740157	33.380014	130.116963
04881		-4.059964	-0.163210	9.789877	0.492047	2.035125	-0.054517	-0.385986	-0.522949	-0.011719	5.071396	34.541513	130.202704
04882		-3.754822	0.105063	9.658231	0.564784	2.316889	-0.047761	-0.390381	-0.527100	-0.014404	5.465290	35.862554	130.321778
04883		-3.623422	0.223600	9.543264	0.595575	2.642838	-0.048526	-0.374756	-0.523438	-0.022705	5.900613	37.368979	130.477155
04884		-3.813077	0.205314	9.432787	0.574264	3.005243	-0.059949	-0.365967	-0.541748	-0.026367	6.351193	39.081306	130.670897
04885		-3.942013	0.271970	9.258686	0.442425	3.413604	-0.111436	-0.362793	-0.538818	-0.032471	6.742213	41.028358	130.882417
04886		-4.268863	0.290691	9.058537	0.346890	3.680857	-0.201300	-0.351318	-0.531494	-0.041748	7.070554	43.132483	131.073275
04887		-4.163145	0.548199	8.894553	0.320284	3.995096	-0.309497	-0.344482	-0.545898	-0.044434	7.366591	45.422119	131.232446
04888		-4.357277	0.898648	8.638862	0.305208	4.420167	-0.404854	-0.328125	-0.549805	-0.047607	7.652993	47.959838	131.383394
04889		-5.456553	1.212476	8.959814	0.319395	4.869073	-0.447985	-0.315674	-0.537598	-0.059814	7.985920	50.754858	131.579064
04890		-6.986036	1.329356	9.299016	0.433440	5.179084	-0.356640	-0.294678	-0.541748	-0.059570	8.528306	53.717374	131.948752
04891		-9.247176	1.949142	9.849091	0.609263	5.369282	-0.198691	-0.282715	-0.557129	-0.063477	9.411232	56.769952	132.596476
04892		-11.029742	3.395858	9.882803	0.710430	5.423020	-0.176561	-0.263428	-0.558594	-0.063965	10.534168	59.844203	133.435486
04893		-10.919719	2.266581	9.490856	0.944297	5.395492	-0.234492	-0.256836	-0.559082	-0.067871	11.942999	62.898388	134.421963
04894		-12.836985	2.729860	9.884824	1.130097	5.220287	-0.407526	-0.235107	-0.569336	-0.081543	13.495422	65.863835	135.423233
04895		-14.117305	1.709530	8.601191	1.403471	5.152913	-0.499292	-0.215576	-0.575195	-0.072510	15.406242	68.789846	136.620391
04896		-14.648806	1.820046	10.197984	1.838019	4.858786	-0.605568	-0.192627	-0.576660	-0.064209	17.747295	71.553362	137.987141
04897		-11.892084	3.703516	9.579768	2.099765	4.617787	-0.813931	-0.187256	-0.584473	-0.075439	20.327234	74.201892	139.425654
04898		-10.098463	4.928726	9.687472	2.067367	4.403118	-1.153622	-0.167969	-0.593994	-0.079346	22.721040	76.787418	140.672541
04899		-8.142039	5.866421	9.625100	1.864029	4.158481	-1.509417	-0.150879	-0.606934	-0.073730	24.567620	79.311582	141.466407
04900		-6.356505	5.636085	8.988795	1.644456	3.928275	-1.804226	-0.122314	-0.599609	-0.060547	25.631676	81.784218	141.588102
04901		-4.553154	5.307259	8.263503	1.544101	3.702338	-1.985050	-0.103760	-0.614014	-0.066162	25.654062	84.182950	140.717734
04902		-4.701466	0.131186	9.910139	1.539645	3.241831	-2.239575	-0.091064	-0.611084	-0.067383	21.234914	86.395922	135.397729
04903		-23.894113	2.655626	19.528441	1.620034	1.299344	-2.416318	-0.069824	-0.610596	-0.062988	-0.569363	87.390315	112.631785
04904		-18.894183	7.086568	20.560423	1.486492	-1.737455	-2.142563	-0.072754	-0.624023	-0.064941	-18.397603	86.187645	93.922314
04905		-10.298293	7.810530	15.272325	0.997972	-3.897586	-2.096993	-0.075195	-0.616699	-0.080078	-21.821393	83.671486	89.910094
04906		-2.591630	7.618353	10.159689	0.226485	-4.898296	-2.140169	-0.084961	-0.616699	-0.102051	-22.265147	80.608124	89.329660
04907		0.877784	5.854531	6.734884	-0.489367	-4.986849	-2.303910	-0.084717	-0.601074	-0.114746	-23.107218	77.458128	88.755610
04908		1.091665	3.429482	5.349229	-0.853639	-4.805395	-2.395563	-0.097168	-0.610107	-0.132813	-24.188899	74.383812	88.143332
04909		0.147273	1.530121	4.334499	-0.794789	-4.729818	-2.225147	-0.110596	-0.601563	-0.145508	-24.742719	71.384518	88.037790
04910		0.372461	0.828260	3.460986	-0.468665	-4.761487	-1.899590	-0.119629	-0.591797	-0.157959	-24.589896	68.449511	88.484590
04911		1.437828	1.060855	2.760725	-0.059817	-4.705170	-1.511504	-0.134521	-0.584961	-0.174805	-23.857948	65.630794	89.313345
04912		2.336839	2.087907	2.343395	0.271254	-4.433056	-1.123752	-0.148193	-0.579346	-0.173828	-22.828263	63.041870	90.281200
04913		2.069666	2.872393	2.533368	0.455668	-4.062629	-0.715790	-0.164795	-0.585693	-0.178467	-21.614190	60.726691	91.357857
04914		0.765865	3.005540	3.585235	0.548036	-3.793681	-0.243792	-0.181396	-0.579834	-0.175293	-20.188660	58.644327	92.643274
04915		-0.779139	2.673063	4.673777	0.644739	-3.699623	0.282676	-0.201172	-0.563721	-0.170410	-18.455740	56.691848	94.252679
04916		-1.708528	2.615803	5.626516	0.740505	-3.678869	0.738554	-0.216797	-0.569336	-0.167725	-16.501494	54.806158	96.101300
04917		-2.123723	2.461423	6.162777	0.816603	-3.671166	1.047751	-0.233154	-0.569580	-0.166504	-14.459712	52.932919	98.045250
04918		-2.468999	1.520820	6.791552	0.932425	-3.644314	1.220711	-0.256348	-0.559814	-0.160645	-12.427068	51.062165	99.944336
04919		-3.290863	0.671001	7.457125	1.089884	-3.600761	1.325050	-0.264404	-0.559082	-0.149414	-10.412056	49.183333	101.751240
04920		-4.613629	0.263014	8.492359	1.231621	-3.566051	1.443944	-0.274902	-0.547363	-0.138428	-8.412207	47.300205	103.483555
04921		-5.703293	0.014659	9.269395	1.269406	-3.579762	1.562492	-0.288574	-0.542480	-0.125977	-6.466932	45.374916	105.161766
04922		-5.798657	-0.289856	9.549318	1.220576	-3.554270	1.598158	-0.288086	-0.540039	-0.125244	-4.676294	43.434072	106.718653
04923		-5.927922	-0.938353	9.886229	1.196742	-3.431601	1.485429	-0.292480	-0.537354	-0.126709	-3.083025	41.522210	108.056995
04924		-7.005800	-1.337368	10.938506	1.285310	-3.278765	1.280132	-0.299561	-0.529785	-0.109619	-1.647666	39.672473	109.128262
04925		-9.400547	-0.827740	12.855815	1.444794	-3.269085	1.105213	-0.297119	-0.533691	-0.104004	-0.279432	37.802308	109.986087
04926		-11.123887	0.099054	13.971028	1.517110	-3.455390	1.018025	-0.281982	-0.536133	-0.104980	1.020683	35.815667	110.702230
04927		-10.976097	0.615919	13.672433	1.486912	-3.621460	1.015479	-0.290039	-0.535156	-0.112061	2.241783	33.716851	111.343297
04928		-10.982137	0.834277	13.243896	1.441012	-3.607066	1.060382	-0.282715	-0.534668	-0.122070	3.394926	31.619549	111.946722
04929		-12.108140	1.171837	13.235466	1.380217	-3.522827	1.118188	-0.281738	-0.546143	-0.132080	4.487331	29.553700	112.532427
04930		-13.531430	1.589952	13.697566	1.301497	-3.500782	1.225078	-0.288574	-0.541504	-0.142090	5.521166	27.490977	113.132135
04931		-14.226511	1.938256	13.972192	1.206767	-3.577840	1.386375	-0.289551	-0.550781	-0.157227	6.503744	25.361103	113.778381
04932		-13.658718	1.942791	13.411618	1.064047	-3.690822	1.591714	-0.301514	-0.562744	-0.164795	7.408797	23.148089	114.493152
04933		-11.996553	1.570515	12.274940	0.912564	-3.745871	1.779124	-0.321289	-0.563232	-0.184570	8.226693	20.875438	115.270981
04934		-10.512540	1.065087	11.418948	0.796244	-3.685630	1.912345	-0.336182	-0.580078	-0.201904	8.961181	18.620178	116.089359
04935		-10.092208	0.748263	11.334328	0.726976	-3.579899	1.985174	-0.360107	-0.585205	-0.211182	9.631642	16.404808	116.921989
04936		-9.969641	0.725893	11.361724	0.682252	-3.497394	2.015740	-0.387451	-0.593018	-0.217773	10.241777	14.228127	117.745389
04937		-9.522576	0.736481	11.149822	0.621992	-3.411843	2.019993	-0.411621	-0.597168	-0.218994	10.784621	12.087798	118.550442
04938		-9.051247	0.724356	10.580823	0.539610	-3.277138	1.987650	-0.439453	-0.600830	-0.226563	11.244263	10.023517	119.326233
04939		-8.729121	0.597980	9.863074	0.460873	-3.088149	1.931150	-0.459473	-0.613281	-0.230225	11.628510	8.063105	120.071641
04940		-8.618740	0.444437	9.333086	0.404290	-2.872507	1.838779	-0.490723	-0.601318	-0.220215	11.949270	6.233101	120.774405
04941		-8.670873	0.177963	9.087744	0.395103	-2.630941	1.714293	-0.510742	-0.611816	-0.219238	12.239535	4.546969	121.424201
04942		-9.014916	-0.369822	8.715154	0.457619	-2.410366	1.591871	-0.528809	-0.610840	-0.215332	12.542738	2.998722	122.022184
04943		-8.797759	-0.455213	7.951992	0.542112	-2.217686	1.461530	-0.552490	-0.616699	-0.205322	12.877536	1.569054	122.562166
04944		-8.117518	-0.482117	6.912165	0.592528	-1.980745	1.304001	-0.568115	-0.617920	-0.209229	13.226373	0.291079	123.035942
04945		-7.551000	-0.785595	6.041507	0.602977	-1.656734	1.128137	-0.588867	-0.620361	-0.190186	13.572574	-0.787569	123.446910
04946		-7.320652	-0.930028	5.760898	0.631644	-1.304753	0.964956	-0.598389	-0.625732	-0.178711	13.928436	-1.648832	123.808467
04947		-7.158584	-0.848808	5.969692	0.630618	-0.976571	0.835709	-0.614014	-0.616943	-0.176514	14.280673	-2.313225	124.138799
04948		-7.138657	-0.532200	6.558179	0.580309	-0.755968	0.746298	-0.620361	-0.627441	-0.176270	14.600929	-2.843040	124.447275
04949		-6.909424	-0.007943	6.915330	0.464633	-0.641564	0.677796	-0.635498	-0.627441	-0.159424	14.854078	-3.301907	124.731876
04950		-6.048437	0.467191	6.892319	0.299691	-0.571120	0.606708	-0.635010	-0.624023	-0.159180	15.011884	-3.711407	124.985968
04951		-5.269920	0.599327	6.797161	0.167030	-0.492652	0.531971	-0.633789	-0.628174	-0.162842	15.094504	-4.067384	125.209540
04952		-4.752167	0.471898	6.826059	0.137415	-0.412023	0.466979	-0.645752	-0.625000	-0.159424	15.160217	-4.368852	125.408810
04953		-4.458921	0.599422	6.822760	0.190284	-0.351013	0.397139	-0.655029	-0.627441	-0.150635	15.257966	-4.626533	125.578164
04954		-4.146512	0.893038	6.753884	0.258252	-0.293965	0.321928	-0.643066	-0.627686	-0.153809	15.396357	-4.841487	125.714032
04955		-3.957509	1.016871	6.710763	0.297046	-0.220874	0.240565	-0.653809	-0.622314	-0.147217	15.559784	-5.003870	125.815473
04956		-3.952081	0.821207	6.663718	0.326408	-0.133416	0.159011	-0.661133	-0.631592	-0.149170	15.742325	-5.105827	125.884864
04957		-4.180404	0.652579	6.671392	0.362226	-0.052639	0.093104	-0.660156	-0.615967	-0.157715	15.947701	-5.152787	125.930111
04958		-4.393969	0.522816	6.541821	0.376834	0.031046	0.031690	-0.663818	-0.636230	-0.136230	16.163053	-5.144500	125.954566
04959		-4.704040	0.485901	6.356869	0.348339	0.130941	-0.036185	-0.657471	-0.627441	-0.146484	16.364167	-5.069779	125.957648
04960		-5.201846	0.204092	6.097037	0.296743	0.242287	-0.104222	-0.659424	-0.637451	-0.141357	16.537223	-4.923530	125.941592
04961		-5.672670	-0.070531	5.783045	0.242309	0.371336	-0.177043	-0.664063	-0.628662	-0.141357	16.680671	-4.693446	125.907025
04962		-6.210566	-0.140050	5.592300	0.183929	0.529233	-0.231508	-0.663086	-0.634521	-0.146973	16.790684	-4.368674	125.869141
04963		-6.727341	-0.171811	5.435194	0.109622	0.681937	-0.267461	-0.652344	-0.635498	-0.148682	16.857404	-3.952743	125.837400
04964		-4.183263	1.271973	6.992476	-0.003429	0.854988	-0.254383	-0.648438	-0.632813	-0.156494	16.856785	-3.445468	125.841912
04965		11.530796	2.993517	18.274779	-0.705000	1.703432	-0.005856	-0.651855	-0.628906	-0.163574	16.439890	-2.511489	126.120643
04966		3.768990	3.222413	7.711587	-0.621960	1.600716	-0.326641	-0.645752	-0.640137	-0.174072	16.082334	-1.582424	126.199816
04967		8.778218	5.636303	4.442469	-1.004746	2.097113	-0.776356	-0.637695	-0.631348	-0.192383	15.509761	-0.307636	126.100871
04968		3.878875	2.465086	6.959887	-1.399839	2.600360	-1.331668	-0.617432	-0.625977	-0.202881	14.706215	1.325869	125.754630
04969		-1.990688	-3.387091	8.930049	-1.115649	2.900582	-1.105332	-0.607422	-0.625488	-0.215576	14.060926	3.090179	125.555971
04970		-2.776099	-0.447085	9.024666	-0.671768	3.195018	-0.716007	-0.594971	-0.631592	-0.224365	13.680640	4.962045	125.598785
04971		-3.069698	0.821018	10.885214	-0.496876	3.309915	-0.676399	-0.570313	-0.625000	-0.243652	13.404521	6.893832	125.668592
04972		-5.927617	-0.484233	12.670892	-0.344102	3.252311	-0.656860	-0.572021	-0.626465	-0.257568	13.217932	8.790170	125.734165
04973		-7.939804	1.197891	12.818961	-0.287719	3.009436	-0.715597	-0.548096	-0.624023	-0.261230	13.053395	10.560037	125.728772
04974		-7.636325	2.417033	12.356903	-0.277656	2.734425	-0.723833	-0.522949	-0.623291	-0.273926	12.885815	12.176184	125.677433
04975		-7.686246	4.882716	11.805539	-0.318827	2.478507	-0.609890	-0.527344	-0.628174	-0.282959	12.698745	13.636257	125.652556
04976		-7.768953	4.569680	11.534826	-0.384911	2.162883	-0.471167	-0.498779	-0.633301	-0.289551	12.482092	14.900885	125.661715
04977		-6.909602	3.327665	10.960401	-0.409941	1.888582	-0.317867	-0.496338	-0.621582	-0.296143	12.264014	15.995023	125.719918
04978		-5.783940	2.097735	10.314586	-0.448834	1.685643	-0.291495	-0.495117	-0.617920	-0.310059	12.020943	16.970707	125.763836
04979		-4.986018	1.338318	10.058091	-0.448584	1.549929	-0.293022	-0.481934	-0.618652	-0.307861	11.771823	17.872661	125.785783
04980		-4.406298	1.129043	9.696208	-0.410132	1.463978	-0.282398	-0.482178	-0.617676	-0.302246	11.542863	18.723229	125.799785
04981		-4.936060	0.997300	9.835414	-0.404460	1.406371	-0.324243	-0.477539	-0.612305	-0.316895	11.305357	19.548330	125.778267
04982		-5.355779	1.307570	9.856049	-0.412953	1.310220	-0.353558	-0.460693	-0.610840	-0.317871	11.051928	20.320458	125.724133
04983		-5.300970	1.913722	9.690147	-0.452061	1.205066	-0.350474	-0.457275	-0.608887	-0.329590	10.769881	21.035024	125.655386
04984		-6.329344	2.288803	9.968143	-0.547191	1.125979	-0.383577	-0.448486	-0.604248	-0.336182	10.420797	21.705995	125.553304
04985		-6.481858	1.647972	10.224095	-0.600788	0.929029	-0.359977	-0.434082	-0.616211	-0.333740	10.034926	22.265175	125.438719
04986		-6.442563	0.227673	10.274936	-0.570912	0.689284	-0.286266	-0.431396	-0.609131	-0.337891	9.671550	22.678800	125.339559
04987		-4.745879	-0.025860	9.953541	-0.479088	0.534394	-0.213883	-0.429688	-0.601074	-0.335449	9.369614	22.999914	125.265779
04988		-5.182484	0.887432	9.844917	-0.375934	0.388118	-0.144358	-0.428223	-0.601563	-0.342773	9.137308	23.229173	125.218532
04989		-4.717706	0.839591	9.601123	-0.304663	0.287510	-0.085559	-0.430420	-0.595947	-0.344482	8.955129	23.398497	125.196428
04990		-4.729092	0.599262	9.559144	-0.232775	0.211027	-0.048860	-0.428467	-0.596924	-0.353516	8.820560	23.518773	125.189306
04991		-4.461753	1.066677	9.298084	-0.182585	0.150930	-0.017549	-0.423340	-0.590820	-0.345947	8.719408	23.604743	125.195257
04992		-4.348249	1.114565	9.170715	-0.151793	0.119612	-0.005286	-0.430908	-0.594727	-0.348877	8.638365	23.669450	125.205960
04993		-4.029773	1.105482	9.080261	-0.122158	0.102899	0.005082	-0.420898	-0.600342	-0.352295	8.575547	23.726296	125.221151
04994		-4.023281	1.208434	9.012034	-0.107473	0.108886	0.012143	-0.428223	-0.594727	-0.353760	8.523800	23.783464	125.241495
04995		-4.090335	1.361704	9.073017	-0.078300	0.109565	0.013990	-0.425537	-0.600830	-0.344482	8.488569	23.843349	125.262725
04996		-4.104687	1.590921	8.901182	-0.076590	0.099334	0.009004	-0.422363	-0.589844	-0.347412	8.453383	23.895394	125.280174
04997		-4.054421	1.541077	8.892640	-0.076436	0.094114	0.006227	-0.414063	-0.592529	-0.351563	8.416719	23.947194	125.295114
04998		-4.099141	1.428994	8.898931	-0.073827	0.095116	-0.004482	-0.428955	-0.597412	-0.346924	8.379565	23.997996	125.303752
04999		-4.103223	1.390203	8.868883	-0.072954	0.088201	-0.008472	-0.416748	-0.590820	-0.349854	8.340978	24.047682	125.308978
05000		-4.178631	1.266858	8.948903	-0.067606	0.078723	-0.010373	-0.429932	-0.589355	-0.351563	8.305276	24.089689	125.312403
05001		-4.229174	1.202046	8.943057	-0.058877	0.073268	-0.009595	-0.425781	-0.585938	-0.347656	8.273905	24.131005	125.315520
05002		-4.161073	1.284392	8.937627	-0.044362	0.059005	-0.003916	-0.415771	-0.590088	-0.342773	8.252419	24.161304	125.321132
05003		-4.192336	1.219858	8.915224	-0.043861	0.052482	-0.003092	-0.425293	-0.593994	-0.356445	8.230529	24.190303	125.326385
05004		-4.090783	1.208431	8.917591	-0.031133	0.047362	-0.004021	-0.420654	-0.589844	-0.344238	8.216164	24.214012	125.330865
05005		-4.057568	1.294030	8.840651	-0.026658	0.049296	-0.007362	-0.415039	-0.593750	-0.344482	8.202919	24.241552	125.333161
05006		-4.110595	1.486037	8.735037	-0.029627	0.041250	-0.017848	-0.414063	-0.593018	-0.346191	8.185658	24.262927	125.328481
05007		-4.196024	1.450163	8.758417	-0.038349	0.029408	-0.025354	-0.421875	-0.599121	-0.343750	8.160389	24.280651	125.317794
05008		-4.130438	1.455368	8.756744	-0.050852	0.022060	-0.033187	-0.420410	-0.586670	-0.352783	8.126327	24.292382	125.301840
05009		-4.054305	1.397728	8.806913	-0.057720	0.020150	-0.044208	-0.419678	-0.586426	-0.356934	8.084795	24.306367	125.278582
05010		-4.134598	1.326448	8.803585	-0.064656	0.025477	-0.049260	-0.420166	-0.591064	-0.354248	8.038812	24.321308	125.252902
05011		-4.154208	1.320109	8.820780	-0.064256	0.007768	-0.060806	-0.430664	-0.593262	-0.364258	7.988820	24.329555	125.218202
05012		-4.067587	1.411696	8.762308	-0.084443	0.011058	-0.069503	-0.414551	-0.589111	-0.347412	7.925766	24.337877	125.178626
05013		-4.053333	1.290462	8.719888	-0.096153	0.012147	-0.077817	-0.420898	-0.593018	-0.355469	7.853276	24.349874	125.133693
05014		-3.939515	1.315777	8.696053	-0.117696	0.016292	-0.075473	-0.423584	-0.592285	-0.358154	7.769794	24.361540	125.090814
05015		-3.911530	1.439145	8.716675	-0.136512	0.037159	-0.076859	-0.420166	-0.598633	-0.359863	7.675267	24.387537	125.048553
05016		-4.105279	0.985518	9.016275	-0.129908	0.056065	-0.062469	-0.419189	-0.589844	-0.356934	7.589455	24.420678	125.017051
05017		-4.149657	0.665540	9.036110	-0.111458	0.053894	-0.057942	-0.417969	-0.583984	-0.341553	7.514655	24.454630	124.987878
05018		-4.133044	0.954156	8.997325	-0.093883	0.059666	-0.037771	-0.413818	-0.581787	-0.352051	7.455912	24.487899	124.971976
05019		-4.242267	0.721174	9.082942	-0.071666	0.066676	-0.029122	-0.422852	-0.588379	-0.355225	7.411711	24.526914	124.961740
05020		-4.210012	1.012135	8.920628	-0.052553	0.061849	-0.017374	-0.411621	-0.579834	-0.354980	7.381969	24.559897	124.958690
05021		-4.161270	0.995994	8.940415	-0.043321	0.063530	-0.011992	-0.415283	-0.580566	-0.355225	7.358300	24.595854	124.958842
05022		-4.100436	1.118413	8.891578	-0.039965	0.067558	-0.009272	-0.423584	-0.584717	-0.355225	7.338054	24.631485	124.961283
05023		-3.960229	1.290114	8.886290	-0.037870	0.078807	-0.017738	-0.413818	-0.594482	-0.365967	7.316505	24.676536	124.959041
05024		-3.927131	1.351621	8.815289	-0.048373	0.098089	-0.030519	-0.421875	-0.587158	-0.356201	7.286901	24.731067	124.950608
05025		-4.079581	1.255115	8.847017	-0.052798	0.115358	-0.037233	-0.417236	-0.588623	-0.358643	7.252902	24.798284	124.939038
05026		-4.234345	1.057285	8.884256	-0.059460	0.117474	-0.041905	-0.418457	-0.576172	-0.359375	7.214547	24.864646	124.924935
05027		-4.228636	0.948912	8.869343	-0.052396	0.110515	-0.036664	-0.415771	-0.586670	-0.347412	7.180703	24.929050	124.913237
05028		-4.184186	1.040131	8.914857	-0.050059	0.109415	-0.033919	-0.410156	-0.572510	-0.360352	7.149508	24.990244	124.903404
05029		-4.282798	1.040188	8.888509	-0.047187	0.111867	-0.029577	-0.412842	-0.581787	-0.352539	7.120506	25.054895	124.896167
05030		-4.337009	1.091749	8.833707	-0.043859	0.105798	-0.027656	-0.412354	-0.585449	-0.353760	7.094358	25.113579	124.889905
05031		-4.319700	1.139042	8.818390	-0.045079	0.095791	-0.025652	-0.413574	-0.577148	-0.362793	7.067031	25.168807	124.883804
05032		-4.233371	1.196904	8.803644	-0.053013	0.085909	-0.031540	-0.407959	-0.584717	-0.363281	7.033901	25.216450	124.873486
05033		-4.284238	1.131772	8.795128	-0.054959	0.087699	-0.027502	-0.408691	-0.579102	-0.359131	7.000119	25.267199	124.865528
05034		-4.304582	1.095179	8.781006	-0.061746	0.081332	-0.033214	-0.409424	-0.580078	-0.360596	6.961338	25.312344	124.853732
05035		-4.266334	1.023214	8.795410	-0.070171	0.075397	-0.031288	-0.417480	-0.582520	-0.357178	6.917376	25.356347	124.842372
05036		-4.255797	0.906838	8.854592	-0.060504	0.078676	-0.027441	-0.410156	-0.573730	-0.356934	6.880727	25.399569	124.833928
05037		-4.291149	1.072362	8.845920	-0.060450	0.080650	-0.024237	-0.406738	-0.580566	-0.363037	6.844360	25.446061	124.827333
05038		-4.274343	1.133869	8.792895	-0.063290	0.078263	-0.028615	-0.408203	-0.581543	-0.364746	6.805741	25.489118	124.818050
05039		-4.312005	1.097872	8.795580	-0.067695	0.082836	-0.027538	-0.407227	-0.578857	-0.353271	6.764363	25.537063	124.809468
05040		-4.301596	1.089149	8.776226	-0.077823	0.078005	-0.029817	-0.412842	-0.578613	-0.359131	6.717035	25.580042	124.799331
05041		-4.275931	1.094044	8.807799	-0.083059	0.070234	-0.034790	-0.405518	-0.572266	-0.361084	6.664428	25.621285	124.785152
05042		-4.247004	1.083203	8.772308	-0.082530	0.073818	-0.033187	-0.401855	-0.582275	-0.352783	6.613297	25.662088	124.772487
05043		-4.270062	0.951503	8.903687	-0.072871	0.079748	-0.037908	-0.417725	-0.574463	-0.364990	6.565924	25.708922	124.756950
05044		-4.255062	1.128281	8.806581	-0.068852	0.090302	-0.038718	-0.402832	-0.575684	-0.359131	6.521576	25.759450	124.741900
05045		-4.240828	0.979384	8.836493	-0.072633	0.097514	-0.047659	-0.404297	-0.576172	-0.362305	6.472152	25.816997	124.721383
05046		-4.198368	0.975739	8.816713	-0.069264	0.106175	-0.050268	-0.409424	-0.581299	-0.365234	6.424803	25.877283	124.700054
05047		-4.238167	1.038824	8.812772	-0.069566	0.117713	-0.053015	-0.401611	-0.578369	-0.354736	6.376185	25.946629	124.677454
05048		-4.204591	1.182200	8.776491	-0.076388	0.127798	-0.063515	-0.403564	-0.576904	-0.357422	6.321638	26.020034	124.649117
05049		-4.225042	1.219517	8.760735	-0.076172	0.143664	-0.076459	-0.397217	-0.576660	-0.367188	6.263384	26.105578	124.613302
05050		-4.267232	1.163735	8.799360	-0.087005	0.153393	-0.085333	-0.403809	-0.571533	-0.363525	6.197268	26.194865	124.572683
05051		-4.367078	1.033249	8.779511	-0.088943	0.168827	-0.100868	-0.401123	-0.572998	-0.368896	6.125401	26.296156	124.522828
05052		-4.359491	0.880139	8.805630	-0.086929	0.167194	-0.104935	-0.397705	-0.571289	-0.361816	6.053950	26.394408	124.470371
05053		-4.441825	0.831707	8.909106	-0.076639	0.171295	-0.114226	-0.396973	-0.575195	-0.364014	5.985102	26.497788	124.411818
05054		-4.360331	0.861674	8.899109	-0.060757	0.180191	-0.114684	-0.392578	-0.573242	-0.374023	5.925932	26.603916	124.353663
05055		-4.362376	0.858379	8.908568	-0.046737	0.200138	-0.121844	-0.395752	-0.579102	-0.362061	5.872524	26.724060	124.291798
05056		-4.306661	0.906055	8.981174	-0.038842	0.214846	-0.121194	-0.390625	-0.584473	-0.364746	5.824689	26.850223	124.231410
05057		-4.235748	0.953513	9.036594	-0.034178	0.255243	-0.132351	-0.386963	-0.577881	-0.373779	5.776628	27.002270	124.166030
05058		-4.180863	0.895127	8.971194	-0.037314	0.293507	-0.136706	-0.387939	-0.572021	-0.372803	5.726991	27.174075	124.100383
05059		-4.201595	0.797313	9.119565	-0.042136	0.354206	-0.155343	-0.379639	-0.574707	-0.361572	5.669920	27.383709	124.026077
05060		-4.137679	0.612044	9.149854	-0.027127	0.413350	-0.164980	-0.381348	-0.578613	-0.367920	5.620538	27.625331	123.949262
05061		-4.189807	0.515667	9.308859	-0.007949	0.488290	-0.177303	-0.379395	-0.577637	-0.375244	5.579481	27.912488	123.868527
05062		-4.193676	0.387835	9.494252	0.032976	0.580821	-0.179361	-0.377930	-0.564209	-0.366455	5.564089	28.250322	123.792217
05063		-4.135328	0.573014	9.527031	0.075687	0.698615	-0.170613	-0.371094	-0.577637	-0.365723	5.578138	28.656944	123.728418
05064		-4.105210	0.498260	9.735684	0.123579	0.840458	-0.154512	-0.372803	-0.571777	-0.372803	5.629359	29.141475	123.684507
05065		-3.937660	0.303692	9.825062	0.202793	1.015471	-0.131473	-0.354004	-0.579834	-0.371826	5.738128	29.726547	123.667251
05066		-4.064701	0.221819	9.799953	0.266306	1.206831	-0.108713	-0.347900	-0.578369	-0.376221	5.898577	30.417394	123.679683
05067		-4.270670	0.072299	9.809660	0.338446	1.402112	-0.054995	-0.347168	-0.577637	-0.368896	6.126356	31.218143	123.743790
05068		-4.239410	0.263558	9.933731	0.436183	1.605894	-0.013741	-0.335205	-0.589355	-0.369629	6.436804	32.130199	123.855944
05069		-3.980645	0.657889	9.851344	0.488816	1.835250	0.004137	-0.319336	-0.586914	-0.371094	6.798403	33.172807	124.005222
05070		-3.953090	0.824870	9.692689	0.548437	2.077016	-0.007745	-0.312256	-0.585938	-0.371826	7.210058	34.351086	124.177553
05071		-3.927828	1.001800	9.729016	0.560815	2.341419	-0.030461	-0.292969	-0.598633	-0.365479	7.643192	35.681784	124.370669
05072		-3.750027	0.993547	9.741262	0.526026	2.634592	-0.066146	-0.289795	-0.605957	-0.362793	8.072706	37.178842	124.583619
05073		-3.707648	1.241988	9.568423	0.443506	2.952889	-0.128954	-0.271484	-0.607178	-0.356689	8.462430	38.861676	124.802126
05074		-3.934355	1.571422	9.552988	0.296778	3.299202	-0.218513	-0.245605	-0.596191	-0.364746	8.769005	40.745913	125.012798
05075		-4.081580	1.993533	9.095114	0.133528	3.637882	-0.366503	-0.230225	-0.610596	-0.357666	8.949740	42.835369	125.167608
05076		-4.544230	1.520227	8.900345	0.024620	3.978839	-0.533934	-0.192383	-0.609131	-0.357178	9.019824	45.131373	125.245843
05077		-5.225716	1.114477	8.750682	0.002000	4.304206	-0.637404	-0.171143	-0.603271	-0.360596	9.051998	47.621618	125.287169
05078		-6.156192	0.752265	8.689575	0.034895	4.612267	-0.645487	-0.157227	-0.604492	-0.356201	9.136742	50.285977	125.370828
05079		-7.771366	1.924035	8.975657	0.154900	4.821597	-0.574228	-0.116455	-0.619385	-0.339600	9.380430	53.062630	125.566794
05080		-8.709276	2.564942	8.974774	0.274975	4.941347	-0.527279	-0.094482	-0.607666	-0.328613	9.786060	55.901073	125.869444
05081		-10.244471	1.483609	9.080865	0.487287	4.972166	-0.512273	-0.067139	-0.605957	-0.320801	10.397136	58.754181	126.262042
05082		-12.482871	2.481815	10.063105	0.796521	4.861304	-0.512784	-0.041992	-0.612793	-0.300293	11.268698	61.541516	126.738617
05083		-12.714262	2.522061	8.505652	0.963520	4.695473	-0.642062	-0.017334	-0.620605	-0.293213	12.190229	64.247071	127.151970
05084		-13.883387	2.073664	8.880900	1.200550	4.584151	-0.749353	0.005127	-0.620361	-0.270264	13.235247	66.900031	127.542197
05085		-12.697174	2.863823	9.189657	1.415590	4.314693	-0.899907	0.025146	-0.626221	-0.260010	14.268325	69.420222	127.779672
05086		-10.151674	4.330782	8.212586	1.442966	4.172260	-1.124409	0.052979	-0.632568	-0.234863	15.050676	71.892219	127.730749
05087		-8.598465	5.406765	7.769245	1.201370	4.034212	-1.439281	0.069824	-0.636230	-0.218506	15.103082	74.334531	127.064661
05088		-7.109033	5.921545	7.013095	0.814701	3.886706	-1.771505	0.093506	-0.632813	-0.188477	13.934212	76.741313	125.374095
05089		-5.498256	5.089639	6.395497	0.456511	3.775284	-2.047474	0.104248	-0.638428	-0.183594	11.038881	79.103260	122.144790
05090		-5.134606	4.014345	5.599824	0.316170	3.710370	-2.184197	0.125488	-0.627686	-0.162598	5.847998	81.388934	116.693474
05091		-4.343452	2.308765	5.086049	0.350688	3.593150	-2.197378	0.155029	-0.623047	-0.148193	-3.031413	83.480135	107.533526
05092		-4.354406	-2.259108	8.535895	0.621555	3.241723	-2.198381	0.159912	-0.611328	-0.129883	-18.513768	85.082243	91.616681
05093		-18.974036	0.965590	16.536403	1.191660	1.513159	-1.968585	0.171631	-0.611084	-0.126953	-34.519061	85.354443	74.869427
05094		-15.057347	6.936717	17.245407	1.500665	-0.688974	-1.539870	0.175537	-0.610107	-0.116455	-38.924377	84.508894	69.582137
05095		-10.071345	9.198105	13.583716	0.977438	-2.364727	-1.217227	0.165527	-0.612305	-0.112305	-35.844846	83.005885	72.114469
05096		-5.594972	9.684634	9.990572	0.017033	-3.494914	-0.938622	0.150879	-0.599121	-0.122803	-31.120455	81.036426	76.872780
05097		-2.511307	7.659377	7.255207	-0.897130	-3.983564	-0.840183	0.137939	-0.603271	-0.153809	-27.647397	78.806094	80.919302
05098		-0.654427	4.910787	5.547582	-1.452820	-4.031207	-0.770402	0.130615	-0.600586	-0.158691	-25.534266	76.540922	83.932169
05099		-0.244949	2.796909	4.745763	-1.591016	-3.867302	-0.641981	0.114746	-0.585693	-0.170654	-24.113798	74.370050	86.338370
05100		-1.487148	1.197878	4.689009	-1.381884	-3.774430	-0.417207	0.097656	-0.580322	-0.193359	-22.751069	72.288723	88.585385
05101		-2.749927	0.380627	4.990091	-0.971975	-3.829117	-0.086150	0.080811	-0.581543	-0.190186	-21.007340	70.228251	91.011380
05102		-2.962472	0.693696	4.995659	-0.550518	-3.957272	0.288353	0.076416	-0.570557	-0.210205	-18.867724	68.150721	93.635569
05103		-2.560472	1.841785	4.849944	-0.277058	-4.012761	0.641422	0.057861	-0.583740	-0.217529	-16.521488	66.064832	96.350820
05104		-2.475821	3.039747	4.922951	-0.234126	-3.946535	0.938748	0.029541	-0.579590	-0.226318	-14.242346	64.024594	99.010328
05105		-3.340887	3.192055	5.222057	-0.339177	-3.877393	1.173439	0.018799	-0.586670	-0.233643	-12.138253	62.007028	101.585378
05106		-4.002944	2.565402	5.465419	-0.460626	-3.877852	1.362610	0.001465	-0.585693	-0.249023	-10.235251	59.975975	104.060833
05107		-3.827930	1.353094	5.533800	-0.455202	-3.888727	1.447131	-0.017090	-0.589355	-0.249512	-8.520436	57.904109	106.362644
05108		-3.332713	-0.178345	5.440253	-0.226699	-3.796212	1.425600	-0.043457	-0.594971	-0.254395	-6.953807	55.855861	108.385952
05109		-3.579043	-1.047465	5.598923	0.161852	-3.597447	1.317056	-0.056641	-0.602051	-0.268066	-5.465909	53.879254	110.087292
05110		-4.768094	-0.949851	6.506291	0.574746	-3.378005	1.217202	-0.075928	-0.607422	-0.270752	-3.998705	52.004978	111.510872
05111		-6.789689	0.072002	8.033118	0.818714	-3.260388	1.201830	-0.096436	-0.618164	-0.274902	-2.535837	50.169615	112.783366
05112		-8.483840	1.287945	9.356883	0.821882	-3.297701	1.253580	-0.116455	-0.629639	-0.275146	-1.156294	48.301219	113.980649
05113		-8.917870	1.810075	9.984885	0.660031	-3.384214	1.316599	-0.132568	-0.632324	-0.276611	0.069158	46.359471	115.128026
05114		-8.775105	1.320265	10.147202	0.506899	-3.442197	1.329625	-0.143311	-0.651123	-0.277832	1.115287	44.376284	116.187428
05115		-8.801254	0.578559	10.062751	0.483913	-3.440361	1.283714	-0.175293	-0.662842	-0.281982	2.043913	42.375315	117.130538
05116		-9.048349	0.273200	10.030076	0.565676	-3.404566	1.196286	-0.197754	-0.671387	-0.274170	2.901471	40.393639	117.934783
05117		-9.280859	0.235899	10.075787	0.694032	-3.343873	1.100652	-0.216309	-0.679199	-0.281250	3.732508	38.434070	118.611712
05118		-10.122775	0.469895	10.598092	0.809749	-3.277912	1.035760	-0.242676	-0.691162	-0.276123	4.550048	36.514706	119.190036
05119		-10.991722	1.003764	11.158847	0.863086	-3.272682	1.010745	-0.262451	-0.694580	-0.258301	5.347617	34.586246	119.705202
05120		-11.223067	1.565214	11.234559	0.831376	-3.294842	1.005383	-0.282959	-0.714600	-0.256104	6.083489	32.647086	120.170867
05121		-11.050405	1.810232	11.011077	0.757265	-3.271867	0.999749	-0.306152	-0.719971	-0.244385	6.745191	30.709973	120.597991
05122		-11.092257	1.786609	11.023774	0.707495	-3.203240	1.017359	-0.330078	-0.725586	-0.238037	7.355690	28.813551	121.007809
05123		-11.499979	1.808713	11.091098	0.721964	-3.155107	1.086448	-0.349609	-0.728516	-0.230469	7.973454	26.929008	121.436870
05124		-11.575034	2.084776	11.010379	0.747699	-3.172062	1.226840	-0.356445	-0.739014	-0.216309	8.615922	25.025666	121.921693
05125		-10.785952	2.286407	10.513803	0.724622	-3.169293	1.405241	-0.396484	-0.758057	-0.201660	9.265208	23.097213	122.487221
05126		-9.883203	2.243444	10.043755	0.663713	-3.093571	1.586869	-0.407471	-0.748291	-0.200195	9.892999	21.194586	123.139272
05127		-9.404380	1.911641	9.746066	0.596615	-2.965808	1.743989	-0.419189	-0.760254	-0.176514	10.491546	19.336201	123.870298
05128		-9.030145	1.678460	9.559477	0.536670	-2.833323	1.872068	-0.441162	-0.764648	-0.169922	11.051633	17.537352	124.663631
05129		-8.565090	1.389723	9.373035	0.473025	-2.702974	1.955174	-0.457520	-0.773926	-0.155762	11.564789	15.790394	125.496180
05130		-8.180425	1.172244	9.214181	0.419054	-2.559885	1.996808	-0.474121	-0.767822	-0.148193	12.026207	14.117129	126.347344
05131		-7.833007	1.094051	8.947914	0.343112	-2.402374	1.995053	-0.504395	-0.779785	-0.131592	12.422101	12.521633	127.198535
05132		-7.471790	0.948120	8.646735	0.249400	-2.232059	1.960408	-0.503174	-0.779541	-0.124268	12.737553	11.025136	128.036073
05133		-7.334614	0.822902	8.463712	0.167478	-2.045094	1.898322	-0.516846	-0.784180	-0.119873	12.982678	9.632967	128.851288
05134		-7.507425	0.817100	8.390945	0.114195	-1.873015	1.826686	-0.530518	-0.772705	-0.108887	13.172969	8.347124	129.639780
05135		-7.737452	0.945953	8.266078	0.067149	-1.731721	1.748917	-0.548584	-0.766357	-0.098389	13.316301	7.144550	130.397087
05136		-7.842444	0.746533	8.013472	0.036266	-1.620444	1.673665	-0.562500	-0.768555	-0.099121	13.421827	6.015833	131.122290
05137		-7.648126	0.685309	7.531846	0.039761	-1.514480	1.608176	-0.565430	-0.767334	-0.091309	13.514052	4.950820	131.821718
05138		-7.151130	0.510013	6.952558	0.036930	-1.388202	1.529395	-0.579102	-0.776611	-0.079590	13.588924	3.968548	132.491399
05139		-6.679887	0.462329	6.513443	0.010674	-1.217171	1.450850	-0.577637	-0.776855	-0.078369	13.637319	3.089208	133.138605
05140		-6.367938	0.052924	6.300806	-0.026196	-1.019841	1.357452	-0.591797	-0.771729	-0.072754	13.653317	2.334186	133.759402
05141		-6.100784	-0.307461	6.212205	-0.052670	-0.842121	1.250375	-0.604492	-0.767334	-0.073242	13.645956	1.690969	134.344248
05142		-6.002988	-0.503549	6.215738	-0.059793	-0.689540	1.108504	-0.608154	-0.761719	-0.068604	13.626398	1.153592	134.870635
05143		-5.916848	-0.555554	6.222728	-0.076226	-0.559214	0.938107	-0.612305	-0.765137	-0.062012	13.592102	0.711015	135.319865
05144		-5.812101	-0.603622	6.283137	-0.092642	-0.453865	0.738352	-0.611816	-0.764404	-0.065674	13.543937	0.355285	135.672261
05145		-5.826241	-0.713667	6.439220	-0.092964	-0.371215	0.521498	-0.622559	-0.765625	-0.064209	13.493439	0.074534	135.915217
05146		-6.024263	-0.724617	6.622774	-0.053595	-0.327504	0.313019	-0.630127	-0.764893	-0.061768	13.464277	-0.153439	136.048043
05147		-5.868256	-0.476262	6.495692	-0.016496	-0.305464	0.108632	-0.616211	-0.758301	-0.061279	13.456358	-0.341639	136.069993
05148		-5.343382	-0.347544	6.247356	0.002002	-0.255957	-0.085739	-0.628418	-0.760498	-0.053223	13.459711	-0.476523	135.990241
05149		-5.153521	-0.338775	6.135184	0.030063	-0.174828	-0.244944	-0.618652	-0.768555	-0.054932	13.479774	-0.544172	135.832578
05150		-5.270169	-0.067560	6.257920	0.050452	-0.091188	-0.373028	-0.622314	-0.772705	-0.055908	13.512396	-0.548789	135.614702
05151		-5.413508	0.338515	6.248350	0.030818	-0.019633	-0.478794	-0.605469	-0.773438	-0.052002	13.533750	-0.497967	135.347491
05152		-5.419679	0.487334	6.062514	-0.015360	0.046049	-0.576224	-0.614258	-0.788574	-0.048340	13.529032	-0.398761	135.034820
05153		-5.347919	0.422451	5.853807	-0.054314	0.135999	-0.658328	-0.617920	-0.787842	-0.048340	13.500963	-0.236677	134.688429
05154		-5.632626	0.334860	5.880598	-0.052089	0.246075	-0.730618	-0.605713	-0.788818	-0.044678	13.473541	-0.005634	134.316399
05155		-5.951702	0.603709	5.847741	-0.050777	0.322248	-0.800131	-0.608154	-0.791016	-0.037354	13.444487	0.279367	133.915673
05156		-5.797775	0.828943	5.803902	-0.087816	0.392409	-0.880986	-0.598389	-0.789063	-0.045410	13.392413	0.611512	133.479007
05157		-5.595900	0.799215	5.845819	-0.112988	0.477942	-0.945935	-0.597168	-0.793945	-0.038574	13.322053	1.002490	133.017055
05158		9.172849	-1.912371	15.264878	0.075833	0.960234	-1.044592	-0.585938	-0.801514	-0.035645	13.356557	1.672223	132.563674
05159		4.348807	4.467154	9.484033	0.412389	1.470830	-0.947600	-0.577637	-0.807129	-0.042236	13.581029	2.617330	132.233837
05160		7.391414	3.089857	6.820934	0.191024	1.620308	-1.336867	-0.560791	-0.819092	-0.035645	13.663237	3.696293	131.709421
05161		8.408706	6.625510	2.737853	-0.114911	2.443048	-1.623575	-0.550293	-0.830078	-0.048828	13.553146	5.274055	131.134959
05162		0.041619	7.036575	9.633211	-0.400887	3.163744	-1.647488	-0.539795	-0.828125	-0.050049	13.270669	7.252580	130.636425
05163		-10.552317	5.193356	12.543927	-0.425144	3.101403	-1.115833	-0.528809	-0.831787	-0.049561	12.997079	9.126232	130.417492
05164		-9.805598	6.245691	12.839552	-0.560323	2.890745	-0.790076	-0.512695	-0.833740	-0.061523	12.665090	10.838009	130.345041
05165		-8.205533	1.977368	13.065132	-0.689172	2.696117	-0.795814	-0.504150	-0.836182	-0.072510	12.249063	12.443512	130.232916
05166		-9.881227	0.655138	13.735050	-0.533109	2.376771	-0.642296	-0.485107	-0.838623	-0.074707	11.928322	13.848533	130.158560
05167		-9.880660	1.540188	13.389590	-0.400534	1.934557	-0.530927	-0.489502	-0.837891	-0.082520	11.682451	14.995158	130.087510
05168		-7.232346	2.299352	11.795806	-0.310453	1.566920	-0.378986	-0.487061	-0.838135	-0.085693	11.497895	15.914639	130.056317
05169		-4.698837	3.051044	10.172983	-0.285565	1.409407	-0.262470	-0.478271	-0.836182	-0.089355	11.339816	16.735923	130.071574
05170		-3.478413	2.461425	9.205357	-0.332726	1.356348	-0.236180	-0.485352	-0.834473	-0.088135	11.157335	17.520916	130.093725
