// General information: 
//  MT Manager version: 2022.2.0 
//  XDA version: 2022.2.0 build 7381 rev 124627 built on 2023-07-19
// Device information: 
//  DeviceId: 00B4BCF6
//  ProductCode: MTW2-3A7G6
//  Firmware Version: 4.6.0
//  Hardware Version: 2.0.0
// Device settings: 
//  Filter Profile: human(46.1)
//  Option Flags: Orientation Smoother Disabled, Position/Velocity Smoother Disabled, Continuous Zero Rotation Update Disabled, AHS Disabled, ICC Disabled
// Coordinate system: ENU
PacketCounter	SampleTimeFine	Acc_X	Acc_Y	Acc_Z	Gyr_X	Gyr_Y	Gyr_Z	Mag_X	Mag_Y	Mag_Z	Roll	Pitch	Yaw
04041		-4.063907	1.083895	8.934674	-0.006309	0.004238	-0.007408	-0.652832	-0.413574	-0.410156	7.357299	24.321085	127.356025
04042		-4.064481	1.118790	8.911435	-0.000931	0.007201	-0.004233	-0.657227	-0.408936	-0.416992	7.358700	24.321968	127.356962
04043		-4.065192	1.118366	8.911164	-0.004104	0.007523	-0.005568	-0.656250	-0.410889	-0.413818	7.357036	24.323336	127.356566
04044		-4.099395	1.122058	8.917637	-0.004105	0.004356	-0.007945	-0.653320	-0.411865	-0.418701	7.355570	24.322875	127.354960
04045		-4.076268	1.135051	8.938534	-0.003603	0.005932	-0.009380	-0.655029	-0.408936	-0.418457	7.353166	24.323629	127.352092
04046		-4.052442	1.120693	8.891474	-0.004841	0.005372	-0.006975	-0.654785	-0.412598	-0.422607	7.351561	24.323674	127.351172
04047		-4.048438	1.106829	8.922933	-0.005809	0.005812	-0.008846	-0.653809	-0.415039	-0.415527	7.348028	24.324333	127.348693
04048		-4.087444	1.087924	8.920735	-0.005309	0.010555	-0.007906	-0.652832	-0.411865	-0.416504	7.346088	24.327391	127.347610
04049		-4.088107	1.087119	8.920529	-0.004841	0.002204	-0.009354	-0.652344	-0.418701	-0.416016	7.342876	24.326029	127.344402
04050		-4.093118	1.064051	8.911821	-0.002637	0.005490	-0.007513	-0.652588	-0.411377	-0.412842	7.342400	24.326180	127.343157
04051		-4.065395	1.135221	8.918268	-0.000701	0.004609	-0.003771	-0.654297	-0.412354	-0.423828	7.343082	24.325775	127.343565
04052		-4.070403	1.076759	8.932579	-0.006545	0.003660	-0.010256	-0.658447	-0.413086	-0.413086	7.339601	24.325088	127.340461
04053		-4.042648	1.147535	8.939105	-0.003875	0.004930	-0.005108	-0.648926	-0.410889	-0.412109	7.338111	24.324949	127.340180
04054		-4.076057	1.088416	8.900639	-0.004342	0.006946	-0.008415	-0.654785	-0.413574	-0.406494	7.336474	24.325993	127.338489
04055		-4.057642	1.079078	8.912894	-0.003374	0.006506	-0.006544	-0.651611	-0.409180	-0.422119	7.334961	24.326851	127.337371
04056		-4.091862	1.082804	8.919332	-0.004612	0.005945	-0.004139	-0.659180	-0.410400	-0.410645	7.334235	24.327014	127.338266
04057		-4.096996	1.095472	8.887505	-0.001438	0.005624	-0.002802	-0.655273	-0.413818	-0.405762	7.334741	24.327099	127.339578
04058		-4.054679	1.100113	8.920930	-0.002404	0.002898	-0.007051	-0.658203	-0.416504	-0.413330	7.334431	24.325743	127.338413
04059		-4.074227	1.108279	8.908297	-0.002639	0.005490	-0.007516	-0.650391	-0.408447	-0.406738	7.333066	24.326054	127.336477
04060		-4.089276	1.103337	8.927254	-0.003877	0.004929	-0.005110	-0.656494	-0.411377	-0.411377	7.332478	24.325710	127.336684
04061		-4.079718	1.120280	8.876392	-0.003642	0.002337	-0.004646	-0.656494	-0.408203	-0.419189	7.331144	24.324052	127.336521
04062		-4.022975	1.128977	8.890702	-0.007287	0.007840	-0.006914	-0.660400	-0.408936	-0.414307	7.328235	24.325495	127.335837
04063		-4.071996	1.127914	8.916183	-0.007524	0.010432	-0.007381	-0.653564	-0.419922	-0.409180	7.324230	24.328628	127.334751
04064		-4.043905	1.064642	8.923642	-0.009963	0.009736	-0.009691	-0.648193	-0.405273	-0.416504	7.319137	24.331351	127.332487
04065		-4.059363	1.094595	8.919478	-0.008026	0.008855	-0.005947	-0.658203	-0.407715	-0.410889	7.315209	24.333529	127.331980
04066		-4.075058	1.124830	8.915174	-0.004824	0.015294	-0.006975	-0.656982	-0.411865	-0.409180	7.313941	24.339212	127.331854
04067		-4.061936	1.128520	8.895503	-0.006062	0.014732	-0.004571	-0.657471	-0.411377	-0.420898	7.311650	24.344554	127.332727
04068		-4.077768	1.123240	8.914135	-0.007764	0.013021	-0.007852	-0.645020	-0.411621	-0.421143	7.308397	24.349009	127.331871
04069		-4.069054	1.104175	8.885952	-0.008734	0.013461	-0.009727	-0.651123	-0.408447	-0.411133	7.303246	24.354113	127.329541
04070		-4.099365	1.129659	8.900767	-0.009236	0.011884	-0.008293	-0.653809	-0.412598	-0.412598	7.298998	24.357955	127.328319
04071		-4.037954	1.097492	8.878493	-0.010443	0.014916	-0.010634	-0.652100	-0.416748	-0.415771	7.292672	24.363892	127.325436
04072		-4.078359	1.105264	8.944012	-0.010207	0.012324	-0.010170	-0.655029	-0.402100	-0.412842	7.287398	24.368120	127.323078
04073		-4.069698	1.085791	8.915844	-0.013622	0.015233	-0.011981	-0.659180	-0.415283	-0.416016	7.278907	24.374333	127.319455
04074		-4.033119	1.102526	8.917342	-0.009487	0.017638	-0.006389	-0.655762	-0.409180	-0.412598	7.275194	24.381306	127.319878
04075		-4.049427	1.132330	8.912833	-0.010188	0.019081	-0.012546	-0.650391	-0.406982	-0.420654	7.268662	24.389705	127.316061
04076		-4.079264	1.059241	8.905401	-0.012897	0.017381	-0.010582	-0.657715	-0.411865	-0.414795	7.261905	24.396835	127.313845
04077		-4.091233	1.111151	8.909480	-0.011170	0.022685	-0.012049	-0.650635	-0.405273	-0.413086	7.255048	24.407292	127.310813
04078		-4.059638	1.105455	8.902159	-0.010933	0.020093	-0.011586	-0.660400	-0.409668	-0.415283	7.249244	24.416036	127.308184
04079		-4.090618	1.059680	8.962604	-0.009967	0.019651	-0.009714	-0.654785	-0.402832	-0.415527	7.243563	24.424565	127.306383
04080		-4.120536	1.093267	8.886182	-0.009459	0.018064	-0.013531	-0.652100	-0.413086	-0.414551	7.238034	24.432296	127.302376
04081		-4.098783	1.105720	8.906685	-0.007764	0.019773	-0.010249	-0.657227	-0.407715	-0.419189	7.233490	24.440956	127.300238
04082		-4.119535	1.077624	8.916476	-0.011201	0.015921	-0.009694	-0.656494	-0.407715	-0.402588	7.227882	24.447191	127.298455
04083		-4.091860	1.049976	8.900718	-0.004850	0.015287	-0.007001	-0.657227	-0.417480	-0.411377	7.225691	24.453014	127.297912
04084		-4.084297	1.093708	8.917526	-0.009724	0.013894	-0.011636	-0.646973	-0.410156	-0.424561	7.220360	24.458236	127.294755
04085		-4.070990	1.097012	8.898018	-0.007048	0.011999	-0.008853	-0.651123	-0.407715	-0.419189	7.216385	24.462401	127.292640
04086		-4.105824	1.064670	8.927058	-0.007968	0.013093	-0.008231	-0.654785	-0.414551	-0.419678	7.212914	24.466922	127.291545
04087		-4.107011	1.098975	8.903729	-0.011149	0.010930	-0.009589	-0.650879	-0.417969	-0.417725	7.206340	24.470527	127.289038
04088		-4.078946	1.035768	8.911083	-0.004964	0.012177	-0.009619	-0.658447	-0.410156	-0.420166	7.204200	24.474628	127.287003
04089		-4.137178	1.061036	8.873057	-0.005521	0.009498	-0.003487	-0.658936	-0.413574	-0.412842	7.202397	24.476957	127.288040
04090		-4.086430	1.110100	8.923912	-0.006172	0.006637	-0.007154	-0.658447	-0.411865	-0.414063	7.200022	24.477731	127.287107
04091		-4.081826	1.068834	8.887132	-0.007958	0.014888	-0.010611	-0.648682	-0.410645	-0.411377	7.195134	24.483574	127.284091
04092		-4.121183	1.085292	8.861572	-0.004780	0.010963	-0.004452	-0.648682	-0.410400	-0.420166	7.194397	24.486613	127.285186
04093		-4.056191	1.138687	8.893277	-0.009438	0.011951	-0.008673	-0.651367	-0.411621	-0.420166	7.189078	24.490758	127.283349
04094		-4.076591	1.110484	8.903193	-0.011691	0.016129	-0.010633	-0.661133	-0.405762	-0.417969	7.182949	24.497177	127.280989
04095		-4.082622	1.086551	8.893972	-0.012658	0.016567	-0.012507	-0.649170	-0.412109	-0.427002	7.174918	24.504157	127.277215
04096		-4.107793	1.071341	8.872137	-0.010995	0.018288	-0.009277	-0.645752	-0.410156	-0.424805	7.169609	24.511707	127.275870
04097		-4.071369	1.052739	8.896628	-0.010027	0.017847	-0.007398	-0.649902	-0.408447	-0.420654	7.164497	24.519159	127.275405
04098		-4.102308	1.042544	8.934054	-0.009286	0.019312	-0.008362	-0.653320	-0.418701	-0.412598	7.160437	24.527225	127.274711
04099		-4.089478	1.010587	8.937202	-0.007445	0.019823	0.000027	-0.650879	-0.413818	-0.410400	7.158793	24.535173	127.278746
04100		-4.110101	1.018863	8.923958	-0.000669	0.015174	-0.001268	-0.648926	-0.402344	-0.412842	7.161375	24.540379	127.282160
04101		-4.121795	1.072188	8.928112	-0.000988	0.018471	0.000527	-0.645752	-0.406738	-0.424805	7.163472	24.547513	127.286594
04102		-4.165905	1.067238	8.893511	0.000945	0.017591	0.004281	-0.651123	-0.405273	-0.416992	7.168500	24.553697	127.293667
04103		-4.148281	1.058908	8.905384	0.002972	0.015320	0.003399	-0.645996	-0.414795	-0.413574	7.173507	24.558890	127.299873
04104		-4.096906	1.117634	8.865041	0.002925	0.016014	0.005719	-0.651123	-0.406006	-0.418701	7.179994	24.564073	127.307722
04105		-4.089267	1.126825	8.904800	-0.004822	0.011648	-0.002121	-0.647217	-0.406982	-0.420166	7.179014	24.567543	127.309897
04106		-4.128628	1.143549	8.879114	-0.005318	0.016155	-0.005484	-0.646729	-0.415771	-0.415771	7.177872	24.573608	127.310756
04107		-4.105163	1.093922	8.854727	-0.006801	0.013221	-0.003554	-0.647217	-0.405762	-0.418457	7.175457	24.578089	127.312158
04108		-4.087660	1.084220	8.866735	-0.010240	0.019739	-0.010226	-0.654541	-0.407959	-0.419434	7.170379	24.586532	127.310334
04109		-4.065938	1.061151	8.910296	-0.009002	0.016697	-0.007825	-0.645752	-0.410889	-0.416260	7.165671	24.593265	127.309527
04110		-4.078124	1.113341	8.914379	-0.009026	0.025269	-0.012668	-0.647705	-0.409424	-0.415039	7.160833	24.605025	127.306608
04111		-4.070389	1.094274	8.885660	-0.008381	0.028122	-0.008991	-0.649902	-0.412598	-0.419434	7.156583	24.618345	127.305781
04112		-4.149337	1.021070	8.902752	-0.009665	0.031852	-0.009065	-0.640381	-0.408203	-0.415771	7.152531	24.633590	127.305631
04113		-4.128652	1.033996	8.922904	-0.000217	0.027797	-0.007568	-0.651855	-0.398926	-0.414307	7.153322	24.646638	127.305689
04114		-4.145920	1.100233	8.894942	-0.002294	0.030755	-0.004361	-0.655273	-0.404785	-0.414307	7.154684	24.660923	127.308394
04115		-4.114976	1.059966	8.910267	-0.005705	0.028696	-0.006185	-0.653320	-0.412842	-0.419922	7.152649	24.674303	127.309667
04116		-4.127872	1.112833	8.913944	-0.001278	0.029615	-0.004794	-0.651611	-0.410889	-0.420654	7.154444	24.687972	127.312012
04117		-4.158146	1.076269	8.882744	-0.004417	0.024958	-0.006101	-0.649902	-0.401855	-0.420898	7.153121	24.699248	127.312687
04118		-4.160310	1.075645	8.881806	-0.004145	0.022358	-0.005579	-0.646729	-0.411377	-0.415771	7.152830	24.708846	127.313971
04119		-4.162207	1.110684	8.858084	-0.002116	0.020091	-0.006461	-0.642334	-0.406250	-0.416992	7.152550	24.717411	127.314254
04120		-4.163877	1.074706	8.880248	-0.001574	0.014893	-0.005424	-0.652832	-0.405518	-0.423584	7.153528	24.722755	127.315050
04121		-4.179751	1.105037	8.875846	-0.006637	0.011116	-0.010488	-0.649414	-0.411377	-0.424072	7.149311	24.726520	127.312163
04122		-4.185099	1.081658	8.866766	-0.008176	0.008878	-0.006250	-0.645264	-0.407715	-0.420898	7.146093	24.728504	127.311969
04123		-4.147843	1.063565	8.891804	-0.003427	0.006509	-0.006661	-0.657227	-0.406250	-0.421631	7.144597	24.729389	127.310977
04124		-4.120755	1.098766	8.921753	-0.008813	0.006023	-0.009925	-0.651123	-0.409180	-0.412354	7.139957	24.730011	127.308259
04125		-4.168169	1.034821	8.901639	-0.003374	0.005814	-0.008977	-0.647217	-0.405762	-0.423096	7.137834	24.730583	127.305736
04126		-4.173068	1.047302	8.869838	-0.005132	0.005480	-0.007575	-0.658936	-0.406006	-0.416016	7.135902	24.730728	127.304446
04127		-4.131250	1.051858	8.903695	-0.001504	0.005632	-0.002908	-0.651123	-0.406494	-0.412842	7.136424	24.730793	127.305835
04128		-4.150675	1.060147	8.890891	-0.003952	0.003139	-0.002865	-0.652100	-0.401367	-0.415527	7.136324	24.729273	127.307310
04129		-4.150942	1.095257	8.867944	-0.002141	0.002778	-0.006584	-0.642822	-0.413818	-0.420410	7.135416	24.727968	127.306179
04130		-4.151183	1.094911	8.867874	-0.000165	0.001209	-0.005152	-0.649414	-0.412354	-0.417236	7.136824	24.725513	127.306071
04131		-4.146992	1.081378	8.899467	-0.003681	0.000541	-0.002348	-0.646973	-0.412598	-0.422119	7.136156	24.722704	127.307064
04132		-4.136587	1.063118	8.871841	-0.003356	-0.002750	-0.004150	-0.648193	-0.409668	-0.410645	7.135868	24.717926	127.307273
04133		-4.146888	1.080532	8.899619	-0.001923	0.000875	-0.003750	-0.644287	-0.404785	-0.416504	7.135833	24.715383	127.307481
04134		-4.151268	1.057775	8.890896	-0.002612	-0.001285	-0.005108	-0.651123	-0.406738	-0.422119	7.135768	24.711507	127.307204
04135		-4.117520	1.053422	8.884646	0.000054	-0.000694	-0.002318	-0.647705	-0.412109	-0.428223	7.137152	24.707988	127.308518
04136		-4.132029	1.084242	8.880843	-0.002394	-0.003188	-0.002275	-0.652588	-0.411865	-0.422119	7.137891	24.702828	127.309865
04137		-4.146497	1.043791	8.922808	-0.002394	-0.003188	-0.002275	-0.650879	-0.412109	-0.407227	7.137846	24.697888	127.310771
04138		-4.165133	1.087828	8.887489	-0.000418	-0.004757	-0.000843	-0.655518	-0.406006	-0.419678	7.140040	24.691734	127.312892
04139		-4.130932	1.083615	8.881430	-0.001107	-0.006917	-0.002201	-0.652344	-0.413330	-0.419434	7.140594	24.684586	127.313492
04140		-4.153631	1.069688	8.860359	-0.001850	-0.008383	-0.001242	-0.656250	-0.411133	-0.416748	7.141743	24.676399	127.315078
04141		-4.153039	1.033998	8.883511	0.000597	-0.005889	-0.001285	-0.648193	-0.403076	-0.420166	7.143573	24.669788	127.316249
04142		-4.124787	1.070176	8.913908	0.001559	-0.006327	0.000590	-0.642578	-0.408691	-0.416748	7.147221	24.662640	127.319141
04143		-4.090609	1.066316	8.907785	0.002249	-0.004166	0.001948	-0.645020	-0.408691	-0.418213	7.150872	24.656876	127.322882
04144		-4.113734	1.088267	8.863625	0.000053	-0.000694	-0.002317	-0.644531	-0.408447	-0.410645	7.153082	24.653136	127.324397
04145		-4.185259	1.074283	8.867587	0.004968	-0.004270	0.002421	-0.645996	-0.409424	-0.425049	7.158435	24.647259	127.328198
04146		-4.146810	1.057489	8.893010	0.005021	-0.004964	0.000103	-0.647217	-0.405518	-0.423340	7.163981	24.640919	127.330890
04147		-4.146389	1.093479	8.870293	0.002196	-0.003472	0.004266	-0.651855	-0.413574	-0.416504	7.168243	24.635400	127.336144
04148		-4.145932	1.058122	8.893345	0.001612	-0.007022	-0.001727	-0.645508	-0.410400	-0.412109	7.171291	24.628021	127.337529
04149		-4.122016	1.072062	8.914964	0.003264	-0.005299	0.001506	-0.650146	-0.413330	-0.414795	7.175410	24.621585	127.340453
04150		-4.121479	1.072452	8.915165	0.004279	-0.006431	0.001064	-0.646729	-0.408203	-0.414307	7.180732	24.614342	127.343627
04151		-4.125084	1.086184	8.883834	0.005513	-0.009466	0.003456	-0.654785	-0.408691	-0.412354	7.186500	24.605403	127.347537
04152		-4.101001	1.100491	8.905475	0.006036	-0.006098	-0.000338	-0.652344	-0.412354	-0.415039	7.192473	24.598450	127.349860
04153		-4.109059	1.091602	8.865384	0.000869	-0.008489	-0.000765	-0.651611	-0.407471	-0.421875	7.194498	24.590313	127.351191
04154		-4.099681	1.100835	8.906040	0.001612	-0.007023	-0.001724	-0.652100	-0.404541	-0.408936	7.197544	24.582933	127.352573
04155		-4.118432	1.073991	8.916388	0.001757	0.000334	-0.001403	-0.650635	-0.414063	-0.422852	7.200175	24.579891	127.354530
04156		-4.107944	1.091808	8.865875	0.001340	-0.004425	-0.002242	-0.649902	-0.411133	-0.419434	7.203014	24.574024	127.355792
04157		-4.136927	1.082591	8.904003	-0.001380	-0.004322	-0.002714	-0.650391	-0.411377	-0.414795	7.203420	24.568476	127.356279
04158		-4.102864	1.078534	8.897829	0.004060	-0.004529	-0.001770	-0.654785	-0.408936	-0.416260	7.207937	24.562517	127.357828
04159		-4.106816	1.056398	8.889245	0.002302	-0.004863	-0.000367	-0.647705	-0.409668	-0.421631	7.211014	24.556439	127.359774
04160		-4.135762	1.083141	8.904477	0.004007	-0.003834	0.000548	-0.648193	-0.407227	-0.418457	7.216125	24.550707	127.362824
04161		-4.101612	1.079328	8.898310	0.001560	-0.006329	0.000594	-0.648193	-0.411865	-0.415039	7.218979	24.543809	127.365493
04162		-4.139006	1.097018	8.873304	0.006258	-0.008002	0.002499	-0.658447	-0.403564	-0.419678	7.225747	24.535567	127.369432
04163		-4.091563	1.124858	8.916302	0.001612	-0.007025	-0.001722	-0.654297	-0.413818	-0.410889	7.227983	24.528366	127.370556
04164		-4.110064	1.133759	8.903883	0.005022	-0.004967	0.000106	-0.651123	-0.415039	-0.408936	7.233522	24.522022	127.373238
04165		-4.099205	1.080711	8.899251	0.002575	-0.007462	0.000153	-0.652588	-0.402100	-0.416748	7.236847	24.514396	127.374901
04166		-4.113187	1.111916	8.895653	0.002627	-0.008158	-0.002163	-0.652588	-0.413086	-0.420166	7.240319	24.506401	127.375912
04167		-4.083177	1.085643	8.880850	0.002576	-0.007463	0.000154	-0.651123	-0.406006	-0.412354	7.243588	24.498837	127.378248
04168		-4.111689	1.076750	8.919167	0.001092	-0.010395	0.002076	-0.656738	-0.410400	-0.413086	7.247203	24.489264	127.381727
04169		-4.110806	1.112469	8.896684	0.003694	-0.009987	-0.004921	-0.650391	-0.405762	-0.416260	7.249715	24.480583	127.380516
04170		-4.105655	1.099415	8.928632	0.000819	-0.007797	0.001558	-0.657471	-0.412109	-0.413086	7.253124	24.472524	127.383877
04171		-4.113355	1.090477	8.888745	0.003395	-0.015261	0.001713	-0.646729	-0.416748	-0.414307	7.257020	24.460381	127.386389
04172		-4.088837	1.104597	8.910558	0.004606	-0.009730	-0.000728	-0.654053	-0.410645	-0.418213	7.261942	24.451389	127.388166
04173		-4.096671	1.095638	8.870617	0.001144	-0.011093	-0.000237	-0.644043	-0.409912	-0.408203	7.264243	24.441811	127.389515
04174		-4.101519	1.100544	8.930394	0.004880	-0.012330	-0.000207	-0.648438	-0.406494	-0.414307	7.269370	24.431303	127.391409
04175		-4.071181	1.110030	8.892832	0.003865	-0.011198	0.000235	-0.653076	-0.410400	-0.418457	7.273305	24.421659	127.393386
04176		-4.089202	1.083326	8.903534	0.001145	-0.011094	-0.000235	-0.657227	-0.406738	-0.412354	7.276324	24.411855	127.395360
04177		-4.007842	1.142623	8.917274	0.006312	-0.008703	0.000187	-0.654785	-0.414063	-0.422119	7.281707	24.403547	127.397508
04178		-4.087846	1.119523	8.881208	0.000274	-0.002600	0.000521	-0.647705	-0.410400	-0.416992	7.284700	24.398515	127.400629
04179		-4.073036	1.088623	8.885141	0.004578	-0.001163	-0.005565	-0.652344	-0.410400	-0.415527	7.287916	24.394985	127.399645
04180		-4.059836	1.120379	8.934192	0.000964	-0.000437	0.001875	-0.655762	-0.413818	-0.415527	7.291725	24.391084	127.403782
04181		-4.083266	1.106810	8.912838	0.003512	0.000666	-0.002808	-0.657471	-0.414307	-0.417969	7.295088	24.388327	127.404562
04182		-4.093596	1.160257	8.917652	0.000051	-0.000696	-0.002316	-0.649902	-0.407471	-0.416992	7.297284	24.384582	127.406063
04183		-4.087609	1.084348	8.904141	0.000101	-0.001393	-0.004632	-0.666016	-0.406494	-0.416504	7.298150	24.380809	127.405700
04184		-4.083262	1.106477	8.912881	-0.001929	0.000874	-0.003749	-0.657959	-0.409424	-0.416504	7.298895	24.378061	127.406432
04185		-4.068689	1.110865	8.893868	0.001807	-0.000363	-0.003720	-0.650391	-0.406006	-0.412598	7.300944	24.374688	127.406867
04186		-4.098057	1.101532	8.931861	-0.002893	0.001310	-0.005623	-0.656006	-0.412109	-0.417236	7.300667	24.372325	127.406465
04187		-4.083539	1.105755	8.912844	-0.000964	0.000437	-0.001874	-0.654785	-0.403809	-0.413330	7.301679	24.369387	127.408063
04188		-4.049812	1.136874	8.883643	-0.003309	-0.003452	-0.006456	-0.653076	-0.412842	-0.415283	7.300793	24.364378	127.406761
04189		-4.097980	1.100438	8.932031	-0.000914	-0.000260	-0.004190	-0.663086	-0.408936	-0.414307	7.301208	24.361199	127.406901
04190		-4.106756	1.090930	8.891740	-0.002670	-0.000593	-0.002786	-0.653320	-0.410889	-0.411865	7.301727	24.357547	127.408116
04191		-4.083345	1.104384	8.913102	-0.000914	-0.000260	-0.004190	-0.654541	-0.415527	-0.417969	7.302144	24.354298	127.408052
04192		-4.059984	1.117804	8.934448	-0.003685	0.000540	-0.002345	-0.650146	-0.410645	-0.410645	7.302232	24.351258	127.409633
04193		-4.073176	1.085750	8.885429	-0.003634	-0.000157	-0.004660	-0.654541	-0.409912	-0.414063	7.301039	24.348197	127.409094
04194		-4.064555	1.130144	8.902875	-0.000173	0.001207	-0.005152	-0.656006	-0.417236	-0.410400	7.302439	24.345741	127.408978
04195		-4.073483	1.085115	8.885365	-0.002995	0.002703	-0.000991	-0.650146	-0.411621	-0.414795	7.302644	24.343977	127.410836
04196		-4.088255	1.080279	8.904339	-0.000913	-0.000260	-0.004189	-0.650635	-0.399902	-0.410400	7.303819	24.340617	127.411203
04197		-4.064944	1.129392	8.902793	-0.000964	0.000436	-0.001874	-0.652100	-0.411133	-0.407715	7.304812	24.337718	127.413110
04198		-4.102957	1.110854	8.900508	-0.001654	-0.001727	-0.003227	-0.661865	-0.411621	-0.411133	7.305761	24.333454	127.413959
04199		-4.064894	1.128821	8.902888	-0.003685	0.000539	-0.002344	-0.652588	-0.408447	-0.414307	7.305121	24.330516	127.414901
04200		-4.031337	1.124305	8.896488	-0.002893	0.001309	-0.005621	-0.648682	-0.416260	-0.415527	7.304845	24.328151	127.414500
04201		-4.084120	1.100924	8.913176	-0.003634	-0.000158	-0.004659	-0.655273	-0.416016	-0.413818	7.303666	24.325130	127.414082
04202		-4.074236	1.082528	8.885336	-0.002650	0.007278	-0.009938	-0.656982	-0.413086	-0.411377	7.302617	24.326473	127.411466
04203		-4.085104	1.100060	8.912831	0.000415	0.004763	0.000834	-0.654541	-0.411377	-0.423828	7.305331	24.325739	127.414539
04204		-4.062124	1.149018	8.911172	-0.004821	0.002181	-0.009367	-0.654785	-0.410400	-0.408203	7.303018	24.324143	127.411870
04205		-4.056527	1.072549	8.897491	-0.004182	0.005040	-0.005698	-0.652100	-0.410156	-0.420654	7.301396	24.324101	127.411374
04206		-4.101033	1.129409	8.908599	-0.003167	0.003907	-0.006140	-0.650879	-0.408691	-0.415527	7.300916	24.323250	127.410857
04207		-4.063309	1.111549	8.933716	-0.004871	0.002876	-0.007051	-0.654053	-0.407715	-0.408447	7.298479	24.322148	127.409585
04208		-4.068027	1.124096	8.902055	-0.003907	0.002440	-0.005178	-0.649414	-0.403320	-0.418701	7.297774	24.320395	127.409551
04209		-4.077092	1.043020	8.907339	-0.006110	0.005911	-0.009443	-0.646973	-0.407715	-0.406738	7.294061	24.321150	127.407277
04210		-4.102813	1.126637	8.908130	-0.003441	0.006505	-0.006657	-0.663574	-0.402832	-0.415771	7.293376	24.321814	127.406645
04211		-4.078214	1.077306	8.884145	-0.002891	0.001307	-0.005619	-0.655518	-0.406006	-0.409424	7.292319	24.319596	127.406289
04212		-4.088910	1.094527	8.911767	-0.005198	0.006170	-0.005253	-0.656250	-0.415771	-0.412109	7.290978	24.319967	127.406506
04213		-4.055700	1.089971	8.905227	-0.002202	0.003470	-0.004264	-0.656982	-0.406982	-0.417725	7.290808	24.318863	127.406569
04214		-4.075058	1.098250	8.892519	-0.001187	0.002338	-0.004706	-0.646729	-0.404785	-0.411865	7.291779	24.317017	127.406821
04215		-4.085605	1.115701	8.920184	-0.002943	0.002003	-0.003303	-0.654541	-0.414551	-0.419678	7.291340	24.315120	127.408046
04216		-4.075669	1.133270	8.869483	0.000465	0.004065	-0.001479	-0.653076	-0.404297	-0.415283	7.294143	24.314020	127.410449
04217		-4.052478	1.111038	8.913624	-0.005558	0.000711	-0.008403	-0.656494	-0.405762	-0.416016	7.290901	24.311747	127.408080
04218		-4.057291	1.123527	8.881928	-0.003441	0.006504	-0.006654	-0.659424	-0.412354	-0.414307	7.290217	24.312409	127.407450
04219		-4.072630	1.118323	8.900677	-0.006266	0.007997	-0.002494	-0.652344	-0.414551	-0.411621	7.288304	24.313754	127.409272
04220		-4.054266	1.108921	8.913075	-0.006108	0.005907	-0.009438	-0.653564	-0.407959	-0.414795	7.285358	24.314280	127.406858
04221		-4.097342	1.067352	8.901721	-0.005473	0.008766	-0.005768	-0.657227	-0.412354	-0.407471	7.283140	24.316367	127.406453
04222		-4.055860	1.107550	8.912520	-0.002805	0.009362	-0.002983	-0.656006	-0.405273	-0.410156	7.283856	24.318387	127.408341
04223		-4.071406	1.102503	8.931150	-0.003768	0.009797	-0.004854	-0.649170	-0.411621	-0.407227	7.282829	24.320893	127.408672
04224		-4.038707	1.133366	8.901608	-0.006435	0.009200	-0.007638	-0.654541	-0.407715	-0.413086	7.280265	24.323159	127.407642
04225		-4.092168	1.109712	8.917923	-0.003493	0.007198	-0.004336	-0.649414	-0.407715	-0.415039	7.279484	24.324243	127.408091
04226		-4.059237	1.105100	8.911286	-0.005472	0.008763	-0.005765	-0.651611	-0.402832	-0.409912	7.277938	24.326125	127.408195
04227		-4.093930	1.108278	8.917292	-0.006709	0.011796	-0.008153	-0.652588	-0.403564	-0.417725	7.274435	24.330147	127.407179
04228		-4.071531	1.121129	8.938349	-0.007174	0.007730	-0.006676	-0.649902	-0.409424	-0.417969	7.271646	24.331508	127.406632
04229		-4.042989	1.093899	8.922957	-0.006487	0.009893	-0.005320	-0.655762	-0.412598	-0.413086	7.268958	24.334274	127.407246
04230		-4.082057	1.110408	8.897349	-0.004784	0.010924	-0.004406	-0.653076	-0.411133	-0.417480	7.268227	24.337286	127.408370
04231		-4.097798	1.105029	8.915918	-0.006708	0.011793	-0.008148	-0.652588	-0.412598	-0.420410	7.264807	24.341246	127.406667
04232		-4.084199	1.108828	8.896563	-0.004729	0.010226	-0.006718	-0.655273	-0.413086	-0.417236	7.263490	24.344029	127.406293
04233		-4.061950	1.121704	8.917572	-0.009481	0.012585	-0.006302	-0.660645	-0.406494	-0.417725	7.259003	24.348346	127.405822
04234		-4.067322	1.098254	8.908446	-0.007393	0.009628	-0.009501	-0.648926	-0.413818	-0.408691	7.255424	24.350990	127.403663
04235		-4.078900	1.114919	8.935766	-0.007944	0.014820	-0.010529	-0.646973	-0.413086	-0.421875	7.250759	24.356814	127.400830
04236		-4.088753	1.104669	8.894988	-0.009205	0.009985	-0.005783	-0.653809	-0.410889	-0.422607	7.247109	24.359392	127.401018
04237		-4.104589	1.099027	8.913536	-0.006982	0.014384	-0.008655	-0.654053	-0.402588	-0.408691	7.243521	24.364993	127.399455
04238		-4.072255	1.094079	8.906706	-0.006981	0.014383	-0.008653	-0.649658	-0.414063	-0.414063	7.240551	24.370279	127.398201
04239		-4.107224	1.097095	8.912560	-0.006705	0.011785	-0.008138	-0.643066	-0.407227	-0.416992	7.237100	24.374234	127.396779
04240		-4.089448	1.087542	8.924739	-0.006980	0.014380	-0.008650	-0.646729	-0.405029	-0.415527	7.234130	24.379517	127.395526
04241		-4.086431	1.108656	8.933103	-0.012086	0.011282	-0.011390	-0.657471	-0.414307	-0.415771	7.226750	24.383596	127.392504
04242		-4.081512	1.067368	8.896167	-0.006019	0.013944	-0.006775	-0.653564	-0.407715	-0.416748	7.224799	24.388497	127.392386
04243		-4.093480	1.119666	8.900553	-0.009974	0.017069	-0.009628	-0.657471	-0.402100	-0.416504	7.219292	24.395528	127.390243
04244		-4.094871	1.083004	8.922804	-0.006018	0.013942	-0.006772	-0.657227	-0.412109	-0.416016	7.217342	24.400427	127.390125
04245		-4.077199	1.109116	8.912186	-0.007719	0.012908	-0.007685	-0.657715	-0.404297	-0.411133	7.213428	24.404921	127.389284
04246		-4.068216	1.090303	8.883923	-0.008213	0.017402	-0.011021	-0.657959	-0.413818	-0.424316	7.209237	24.412092	127.386787
04247		-4.113929	1.110805	8.917365	-0.007937	0.014805	-0.010507	-0.646240	-0.404297	-0.410400	7.204563	24.417869	127.384144
04248		-4.100440	1.078804	8.920756	-0.006701	0.011776	-0.008125	-0.654053	-0.408691	-0.419922	7.201801	24.421633	127.383010
04249		-4.116376	1.108883	8.916476	-0.006758	0.012470	-0.005810	-0.651611	-0.401367	-0.415283	7.198940	24.425867	127.383383
04250		-4.106848	1.054764	8.911156	-0.005465	0.008746	-0.005742	-0.645996	-0.408936	-0.418701	7.197402	24.427738	127.383497
04251		-4.118297	1.071646	8.938531	-0.006700	0.011773	-0.008121	-0.650146	-0.410645	-0.418945	7.193944	24.431784	127.382580
04252		-4.081339	1.089444	8.940694	-0.000987	0.008988	-0.006668	-0.653809	-0.404297	-0.423584	7.194741	24.433860	127.382135
04253		-4.082393	1.089200	8.940243	0.000379	0.013310	-0.003948	-0.654053	-0.405762	-0.413574	7.196491	24.438453	127.383779
04254		-4.087950	1.066759	8.930837	0.001063	0.015470	-0.002587	-0.662354	-0.405029	-0.412109	7.199728	24.443920	127.386393
04255		-4.099977	1.049171	8.980561	0.006848	0.020730	0.001523	-0.652344	-0.413330	-0.415283	7.206773	24.452133	127.391927
04256		-4.165412	1.009354	9.046199	0.018319	0.031756	0.002294	-0.649658	-0.410400	-0.418945	7.221694	24.466505	127.398879
04257		-4.143142	1.034646	8.975144	0.036212	0.033601	0.010685	-0.654297	-0.404541	-0.418213	7.248489	24.481540	127.410614
04258		-4.139902	1.141134	8.845616	0.043509	0.033229	0.017702	-0.661865	-0.404053	-0.415039	7.281890	24.495628	127.427321
04259		-4.152800	1.163096	8.871643	0.038062	0.024674	0.011796	-0.655273	-0.404541	-0.416992	7.309594	24.505360	127.439906
04260		-4.215408	1.099025	8.869229	0.038659	0.010048	0.005542	-0.656494	-0.406982	-0.416504	7.336306	24.507147	127.447176
04261		-4.215522	1.066983	8.891574	0.034870	-0.005319	0.007660	-0.648438	-0.410889	-0.426270	7.360147	24.500177	127.454661
04262		-4.271345	0.953950	8.944955	0.035167	-0.016461	0.012979	-0.650146	-0.410645	-0.413330	7.385894	24.486348	127.464435
04263		-4.389235	0.978699	8.951477	0.043092	-0.031260	0.023518	-0.650879	-0.407715	-0.413330	7.417765	24.463633	127.479314
04264		-4.112920	1.072675	8.934281	0.048560	-0.057307	0.029149	-0.651611	-0.417480	-0.416016	7.453969	24.425388	127.495832
04265		-4.042397	1.203618	8.922827	0.045943	-0.050079	0.019260	-0.661377	-0.413818	-0.419922	7.485708	24.392216	127.506124
04266		-3.936696	1.338157	8.813921	0.035014	-0.048997	0.019687	-0.645020	-0.420410	-0.414063	7.511956	24.359384	127.517367
04267		-4.025227	1.327034	8.897286	0.024754	-0.038097	0.004556	-0.651367	-0.407715	-0.417480	7.528231	24.334103	127.519073
04268		-4.076816	1.221213	8.861311	0.021351	-0.040166	0.002733	-0.652100	-0.404541	-0.413818	7.542577	24.307554	127.520449
04269		-4.079086	1.263175	8.899202	0.016576	-0.046561	-0.001800	-0.649902	-0.411133	-0.419434	7.552093	24.277982	127.518824
04270		-4.055993	1.255553	8.913604	0.009271	-0.046203	-0.008803	-0.655273	-0.412598	-0.412842	7.556353	24.248873	127.512503
04271		-4.051603	1.220411	8.938468	0.006364	-0.052767	-0.007268	-0.659912	-0.415527	-0.414551	7.558510	24.216185	127.506315
04272		-4.007650	1.211556	8.874772	0.001966	-0.045854	-0.015791	-0.669678	-0.413086	-0.415039	7.556819	24.187801	127.495673
04273		-4.056130	1.152811	8.916254	0.005984	-0.049695	-0.015222	-0.660889	-0.420166	-0.415771	7.556828	24.157215	127.484399
04274		-3.966020	1.171183	8.895009	-0.003230	-0.039713	-0.021031	-0.655762	-0.402588	-0.410400	7.551047	24.132713	127.471010
04275		-4.072223	1.172817	8.875566	-0.000637	-0.047183	-0.020853	-0.658691	-0.409424	-0.414307	7.545919	24.104108	127.456834
04276		-4.009399	1.083549	8.870284	-0.002668	-0.044926	-0.019963	-0.659180	-0.414063	-0.410156	7.540571	24.076562	127.443690
04277		-4.026366	1.118276	8.927450	-0.000169	-0.043138	-0.022313	-0.656006	-0.418945	-0.412354	7.535498	24.050361	127.428904
04278		-3.974499	1.118187	8.903702	0.002450	-0.041842	-0.017209	-0.660156	-0.414063	-0.410645	7.533899	24.024359	127.417737
04279		-4.067391	1.081001	8.979192	0.003191	-0.040384	-0.018161	-0.663086	-0.409180	-0.408447	7.531987	23.999429	127.405219
04280		-4.246972	0.877930	8.979338	0.021278	-0.048513	-0.009572	-0.663086	-0.414307	-0.420410	7.542893	23.969064	127.398254
04281		-4.136187	0.855488	8.993778	0.038788	-0.068085	0.000220	-0.659180	-0.412109	-0.411865	7.564983	23.926983	127.395552
04282		-4.136136	0.935328	9.009631	0.051773	-0.071481	-0.001051	-0.658936	-0.409424	-0.406006	7.594738	23.882934	127.391961
04283		-4.158945	1.073846	8.958534	0.070273	-0.091519	0.010661	-0.663330	-0.415039	-0.405518	7.636658	23.826815	127.393787
04284		-4.038933	1.051000	8.914449	0.075947	-0.102457	0.009613	-0.662842	-0.419678	-0.412598	7.681871	23.764365	127.394166
04285		-4.048535	1.067263	8.905315	0.090251	-0.109651	0.008499	-0.669678	-0.413574	-0.403076	7.734111	23.698073	127.392336
04286		-4.029792	1.156660	8.902955	0.101484	-0.120609	0.018212	-0.660889	-0.416260	-0.407959	7.795428	23.624653	127.396384
04287		-3.892300	1.113687	8.771945	0.105128	-0.119820	0.025295	-0.670410	-0.414063	-0.411621	7.859884	23.551251	127.404284
04288		-3.857461	1.357330	8.847650	0.103918	-0.105701	0.044553	-0.660889	-0.417969	-0.411865	7.929528	23.484209	127.425729
04289		-3.978884	1.144477	8.948599	0.100250	-0.105253	0.042326	-0.661865	-0.422363	-0.410645	7.995806	23.417807	127.445515
04290		-3.984272	1.256917	8.901216	0.106152	-0.112095	0.039409	-0.673096	-0.418945	-0.412842	8.065122	23.347504	127.463028
04291		-3.800588	1.567086	8.792051	0.095849	-0.106731	0.048272	-0.670166	-0.423828	-0.407227	8.130218	23.279747	127.485760
04292		-3.907471	1.357751	8.874811	0.078686	-0.105784	0.043981	-0.676025	-0.418457	-0.404541	8.185019	23.212615	127.506465
04293		-3.885226	1.136622	8.990191	0.079347	-0.103261	0.038145	-0.665771	-0.412109	-0.405518	8.238201	23.147471	127.522939
04294		-4.098298	1.058481	8.993203	0.097255	-0.127766	0.041668	-0.669678	-0.416748	-0.404785	8.302199	23.068029	127.540084
04295		-3.541303	1.124723	8.765522	0.093257	-0.126477	0.041202	-0.673096	-0.418457	-0.406250	8.363055	22.989601	127.557202
04296		-3.279909	1.264168	8.705906	0.067269	-0.076498	0.029269	-0.668945	-0.416260	-0.396973	8.408595	22.940224	127.571175
04297		-3.476800	1.379926	8.951567	0.052807	-0.031844	0.029819	-0.661133	-0.426270	-0.404297	8.446843	22.916262	127.589374
04298		-3.680034	1.346026	9.099522	0.049503	-0.002309	0.025663	-0.667969	-0.420898	-0.403809	8.483941	22.909215	127.607841
04299		-3.943183	1.366417	9.277124	0.065378	0.009643	0.027402	-0.667480	-0.422119	-0.400635	8.530418	22.909097	127.627799
04300		-4.023637	1.286899	9.197649	0.083047	-0.005154	0.020960	-0.667480	-0.421143	-0.400635	8.585500	22.900812	127.643096
04301		-3.818589	1.404306	9.001592	0.073791	-0.004006	0.027005	-0.671631	-0.418701	-0.397949	8.636139	22.892861	127.661727
04302		-3.904174	1.393178	9.025706	0.062114	0.003554	0.021261	-0.674072	-0.416748	-0.403076	8.679607	22.889458	127.678008
04303		-3.863892	1.220359	8.985390	0.055982	-0.001614	0.016739	-0.670654	-0.421143	-0.401123	8.717569	22.883610	127.691082
04304		-3.716295	1.311304	8.957844	0.048220	0.004248	0.018462	-0.657959	-0.424561	-0.399170	8.752428	22.880824	127.705702
04305		-3.694437	1.428558	8.997605	0.038334	0.023497	0.015973	-0.669678	-0.414063	-0.402344	8.781133	22.889431	127.720175
04306		-3.733468	1.280642	8.998232	0.039570	0.030780	0.011140	-0.667969	-0.423340	-0.393799	8.810269	22.902294	127.732817
04307		-3.579932	1.351154	8.941835	0.031160	0.054722	0.004285	-0.669434	-0.426514	-0.401123	8.833137	22.929451	127.743555
04308		-3.800271	1.270990	9.070704	0.034175	0.076514	0.012158	-0.666748	-0.421387	-0.401611	8.861150	22.968107	127.761216
04309		-3.607699	1.388340	8.931305	0.027637	0.090015	0.001882	-0.663330	-0.420166	-0.404541	8.882855	23.015469	127.773372
04310		-3.847830	1.506906	9.027008	0.021859	0.112062	-0.002302	-0.680420	-0.428955	-0.397705	8.901714	23.075514	127.785605
04311		-4.045447	1.109758	9.137672	0.041706	0.103364	0.002578	-0.671387	-0.422852	-0.397705	8.932186	23.130228	127.799421
04312		-3.903330	1.362806	9.020041	0.064230	0.096340	0.005452	-0.659912	-0.430420	-0.410645	8.976653	23.180672	127.814982
04313		-3.883844	1.482059	8.905604	0.066609	0.097036	0.007661	-0.666992	-0.421387	-0.400635	9.022482	23.231478	127.831373
04314		-3.810444	1.413214	8.915736	0.060264	0.097990	-0.002146	-0.660400	-0.433105	-0.403564	9.062955	23.283517	127.842514
04315		-3.863973	1.616006	8.826210	0.053913	0.104980	-0.000116	-0.673828	-0.429932	-0.402344	9.099993	23.339479	127.854952
04316		-3.773114	1.711017	8.730294	0.025025	0.106547	-0.017603	-0.661133	-0.423340	-0.399658	9.116882	23.397750	127.857486
04317		-3.688378	1.773919	8.717757	-0.008454	0.123596	-0.032220	-0.660156	-0.427979	-0.405762	9.111074	23.467016	127.852090
04318		-3.829285	1.711287	8.727837	-0.044138	0.137323	-0.048684	-0.663330	-0.421875	-0.409180	9.081901	23.545514	127.838478
04319		-3.860001	1.543766	8.738437	-0.074790	0.143148	-0.057722	-0.666748	-0.422607	-0.408447	9.032543	23.628292	127.819696
04320		-4.099809	1.399517	8.937785	-0.082883	0.148706	-0.066211	-0.661377	-0.424316	-0.406982	8.977172	23.714783	127.796215
04321		-4.302648	1.228778	8.971812	-0.063070	0.116644	-0.056223	-0.656738	-0.417725	-0.402832	8.933717	23.782300	127.775620
04322		-4.116906	1.306973	8.917906	-0.053148	0.097424	-0.053582	-0.664307	-0.426270	-0.413574	8.896407	23.838608	127.754802
04323		-4.020512	1.310192	8.903956	-0.053237	0.090321	-0.044047	-0.654053	-0.432129	-0.412598	8.860504	23.890182	127.739197
04324		-4.045134	1.328403	8.987581	-0.044760	0.086624	-0.044343	-0.658203	-0.425049	-0.414307	8.829825	23.939538	127.722968
04325		-4.081112	1.356016	8.908183	-0.044078	0.082043	-0.040555	-0.652832	-0.423096	-0.408936	8.799801	23.986220	127.708011
04326		-4.011200	1.428916	8.794837	-0.046545	0.077767	-0.038095	-0.656982	-0.424072	-0.408447	8.769278	24.030000	127.694737
04327		-3.881700	1.492183	8.819533	-0.057767	0.086829	-0.045543	-0.657959	-0.420654	-0.407227	8.730210	24.079757	127.677471
04328		-3.957985	1.352908	8.923451	-0.062277	0.103207	-0.047118	-0.653076	-0.427979	-0.413330	8.689323	24.138711	127.660944
04329		-4.014483	1.317355	8.877766	-0.053075	0.105223	-0.050834	-0.651123	-0.420654	-0.411621	8.652267	24.199284	127.641920
04330		-4.041506	1.369928	8.937078	-0.051153	0.111740	-0.047029	-0.655273	-0.429199	-0.415283	8.618033	24.263045	127.626153
04331		-4.016689	1.366076	8.835972	-0.052532	0.118307	-0.054536	-0.656494	-0.426514	-0.407959	8.580792	24.331367	127.605932
04332		-3.996425	1.383277	8.893396	-0.055503	0.120931	-0.055476	-0.647217	-0.423340	-0.417480	8.542176	24.401038	127.585666
04333		-4.027332	1.314096	8.923172	-0.055615	0.130779	-0.055618	-0.653076	-0.422363	-0.409912	8.503285	24.476466	127.565726
04334		-3.991835	1.237303	8.940299	-0.048232	0.146896	-0.050669	-0.650391	-0.428711	-0.415283	8.470979	24.560419	127.550744
04335		-3.979192	1.268255	8.964400	-0.036496	0.164349	-0.051694	-0.643555	-0.423340	-0.414551	8.445260	24.654465	127.536084
04336		-3.953456	1.409752	8.898525	-0.032447	0.186120	-0.055666	-0.648438	-0.435303	-0.410156	8.422120	24.761057	127.521503
04337		-3.982545	1.422578	8.918522	-0.034435	0.205175	-0.064255	-0.651367	-0.422607	-0.417969	8.395860	24.879327	127.502213
04338		-4.017172	1.447937	8.905920	-0.028441	0.217279	-0.069262	-0.647461	-0.422119	-0.420410	8.372533	25.004705	127.481874
04339		-3.767113	1.601917	8.834283	-0.044642	0.251492	-0.091245	-0.647949	-0.422363	-0.414795	8.334798	25.151375	127.450714
04340		-3.811353	1.581702	8.934532	-0.059822	0.293607	-0.115967	-0.645508	-0.432861	-0.409912	8.283797	25.323869	127.407859
04341		-3.939705	1.464230	9.041903	-0.064532	0.331156	-0.136950	-0.645996	-0.417480	-0.415039	8.225251	25.519272	127.354020
04342		-3.890810	1.550166	9.152005	-0.071579	0.374068	-0.155036	-0.639648	-0.418213	-0.426270	8.159541	25.740507	127.293346
04343		-3.884916	1.566001	9.181336	-0.069519	0.425215	-0.171787	-0.636475	-0.419678	-0.417969	8.091433	25.991992	127.226674
04344		-3.720478	1.520822	9.297433	-0.063093	0.494842	-0.184017	-0.627686	-0.424072	-0.436279	8.026425	26.283942	127.157657
04345		-3.679807	1.016694	9.557142	-0.042140	0.589398	-0.193077	-0.618652	-0.422607	-0.431885	7.973581	26.630237	127.090867
04346		-3.536456	0.610714	9.933451	0.009832	0.697269	-0.190169	-0.620117	-0.425781	-0.428223	7.955538	27.037436	127.034990
04347		-3.033510	-0.137372	10.672074	0.209058	0.890458	-0.184381	-0.612793	-0.423828	-0.440186	8.060488	27.553865	127.000147
04348		-2.741689	0.593026	10.776928	0.309713	1.150506	-0.157941	-0.602051	-0.425781	-0.438232	8.242965	28.215668	127.007581
04349		-2.870168	0.084258	11.045858	0.362674	1.485349	-0.143962	-0.593750	-0.430664	-0.442383	8.476101	29.065985	127.058854
04350		-2.636205	0.733548	11.337457	0.507585	1.864513	-0.136896	-0.581299	-0.437744	-0.453857	8.817169	30.130340	127.157427
04351		-2.139056	1.169293	11.329260	0.359340	2.334391	-0.162935	-0.568359	-0.439941	-0.453125	9.094590	31.462170	127.295276
04352		-2.156824	1.074949	11.546013	0.426874	2.827089	-0.201373	-0.543457	-0.443359	-0.465088	9.435151	33.075808	127.472106
04353		-2.481294	1.492761	11.426755	0.341043	3.360648	-0.258105	-0.528564	-0.443359	-0.478760	9.751347	34.994811	127.686004
04354		-2.417103	2.861685	11.391372	0.144495	3.888363	-0.325447	-0.491943	-0.446777	-0.489990	9.982042	37.218046	127.934307
04355		-3.248627	2.794146	11.499181	-0.072590	4.407228	-0.416445	-0.462646	-0.452881	-0.489990	10.106237	39.741705	128.200036
04356		-4.241060	3.888715	10.879318	-0.268249	4.879051	-0.573286	-0.413574	-0.443115	-0.507568	10.102293	42.547821	128.425263
04357		-5.708994	3.987557	10.942072	-0.362221	5.278357	-0.739800	-0.377197	-0.443115	-0.515625	10.005197	45.595702	128.582409
04358		-7.109103	4.365512	11.474542	-0.360723	5.605414	-0.968491	-0.337891	-0.446289	-0.523193	9.809217	48.851308	128.594949
04359		-7.875085	4.137417	11.928535	-0.356061	5.841756	-1.240799	-0.295898	-0.442627	-0.527832	9.437315	52.264493	128.375918
04360		-10.469119	5.192809	13.035699	-0.483174	5.947952	-1.471568	-0.240723	-0.439697	-0.534912	8.761152	55.759296	127.880827
04361		-10.466335	4.384047	13.057503	-0.654789	5.906160	-1.687951	-0.200684	-0.432129	-0.523438	7.646619	59.240570	127.002789
04362		-12.270684	2.503555	12.742218	-0.607483	5.806902	-1.790866	-0.145752	-0.443115	-0.525391	6.192277	62.663751	125.736264
04363		-13.729515	2.688451	12.616436	-0.459556	5.502103	-1.809387	-0.104980	-0.432617	-0.520752	4.397407	65.892265	124.035039
04364		-11.825023	3.103451	12.416240	-0.321669	5.043983	-1.810622	-0.063965	-0.430420	-0.505127	2.132143	68.833868	121.779543
04365		-6.099713	4.525625	10.472266	-0.275646	4.728504	-1.819399	-0.023682	-0.425293	-0.493164	-0.822545	71.548939	118.805764
04366		-1.119898	4.334817	7.827557	-0.325846	4.586796	-1.890683	0.002686	-0.417969	-0.485596	-4.927645	74.117951	114.704264
04367		2.763528	4.197702	4.384936	-0.392916	4.733839	-2.024561	0.045898	-0.417725	-0.479492	-10.977111	76.640353	108.684604
04368		1.911364	0.247965	4.358199	-0.434716	4.849121	-2.171795	0.082520	-0.404785	-0.446777	-20.227949	78.986914	99.476602
04369		-17.130573	-0.199949	16.992567	0.188225	3.277539	-1.842927	0.104980	-0.406738	-0.454834	-29.635074	80.243944	89.802107
04370		-14.440009	4.237353	20.044070	0.918392	0.734647	-1.160194	0.115723	-0.399902	-0.443848	-33.661056	80.252468	85.181680
04371		-7.812538	7.411026	16.664792	0.912739	-1.291851	-0.563096	0.104492	-0.401123	-0.451172	-32.344764	79.450931	85.984852
04372		-1.805937	7.287776	12.383240	0.489761	-2.594093	-0.150209	0.096924	-0.414063	-0.465576	-28.611237	78.124623	89.503082
04373		1.302951	5.534563	9.329635	0.088510	-3.148100	0.043256	0.084473	-0.407959	-0.473389	-24.812233	76.516927	93.341431
04374		2.273378	3.494419	7.327140	-0.090994	-3.314359	0.127744	0.054199	-0.410645	-0.484131	-21.653123	74.798454	96.653962
04375		2.311744	1.831327	6.110462	-0.048656	-3.380147	0.213914	0.031006	-0.413086	-0.496582	-18.919547	73.015528	99.524082
04376		1.795667	0.962619	5.784641	0.161266	-3.464003	0.333236	0.007324	-0.412109	-0.505371	-16.386512	71.179678	102.086899
04377		0.568794	0.816569	6.207365	0.446145	-3.599716	0.472719	-0.008789	-0.406006	-0.512939	-13.879809	69.249412	104.474915
04378		-0.931166	1.265427	6.969091	0.743597	-3.844520	0.634262	-0.034668	-0.418213	-0.518066	-11.351498	67.176458	106.736759
04379		-2.494027	1.772262	7.900053	0.955260	-4.222864	0.810607	-0.064453	-0.427002	-0.533203	-8.802810	64.864349	108.922401
04380		-3.630699	2.113928	8.476925	1.071008	-4.706534	1.010421	-0.104248	-0.427246	-0.551025	-6.312274	62.264176	111.016027
04381		-3.892105	2.366837	8.464503	1.090218	-5.179464	1.197856	-0.142090	-0.442383	-0.561279	-3.970999	59.357751	112.976890
04382		-3.492978	2.546375	7.850643	1.031751	-5.508220	1.310352	-0.184326	-0.444336	-0.576904	-1.924140	56.241275	114.694515
04383		-2.436101	2.524505	7.072361	0.936277	-5.582200	1.306932	-0.233887	-0.457031	-0.581543	-0.234328	53.044629	116.102793
04384		-2.213866	1.799374	6.715133	0.879337	-5.424654	1.219432	-0.286133	-0.468994	-0.588867	1.122957	49.927925	117.190978
04385		-2.219984	1.008425	6.790241	0.953473	-5.143089	1.116641	-0.325195	-0.469971	-0.574707	2.302040	46.949934	118.030347
04386		-3.204603	0.307207	7.886469	1.182359	-4.819664	0.998844	-0.375977	-0.484131	-0.579346	3.426386	44.160005	118.653784
04387		-5.133504	0.266344	9.007527	1.525915	-4.531108	0.926239	-0.417236	-0.501953	-0.580322	4.631621	41.519194	119.133605
04388		-6.701690	1.241956	9.983256	1.803469	-4.268657	0.900615	-0.458740	-0.506592	-0.560303	5.914044	39.032962	119.516204
04389		-9.131962	2.522620	11.956933	1.981974	-4.036549	0.980584	-0.506348	-0.529297	-0.547119	7.284804	36.656880	119.891867
04390		-12.628322	3.364900	13.924901	2.038926	-3.960868	1.220183	-0.549072	-0.524170	-0.537354	8.724912	34.308696	120.357215
04391		-14.683211	4.025421	14.628028	1.910714	-4.007246	1.628626	-0.586426	-0.539551	-0.502197	10.181081	31.876502	121.010401
04392		-15.065274	3.450313	13.666560	1.624003	-4.005227	2.053361	-0.617188	-0.541748	-0.483887	11.543017	29.397379	121.853495
04393		-16.034501	2.017110	12.546446	1.347112	-3.819784	2.371974	-0.653564	-0.532471	-0.459473	12.785940	26.957680	122.841242
04394		-18.390002	1.109437	12.082465	1.082328	-3.576467	2.578287	-0.676514	-0.541748	-0.443359	13.875175	24.619267	123.915483
04395		-21.029016	0.478200	11.837901	0.758760	-3.474246	2.658496	-0.699951	-0.525391	-0.424072	14.742366	22.300812	124.991202
04396		-22.175859	-0.399696	10.288636	0.406737	-3.527010	2.658639	-0.726318	-0.515625	-0.406738	15.343661	19.949951	126.008321
04397		-20.767298	-1.225652	6.990730	0.049981	-3.475117	2.552178	-0.754150	-0.506348	-0.381348	15.674961	17.628579	126.936870
04398		-19.519214	-1.543619	3.684191	-0.272926	-3.149741	2.311093	-0.785400	-0.492188	-0.373291	15.754756	15.528795	127.759064
04399		-19.196022	-1.709006	1.720208	-0.486790	-2.671460	1.969014	-0.801025	-0.479004	-0.358887	15.654905	13.739785	128.455665
04400		-18.670939	-2.251217	0.571025	-0.519239	-2.166349	1.614984	-0.818115	-0.471680	-0.339600	15.488472	12.291831	129.030779
04401		-18.304858	-2.356251	0.272602	-0.348843	-1.688722	1.313289	-0.832031	-0.469727	-0.325439	15.388845	11.150412	129.510770
04402		-18.216893	-2.881662	-0.204157	-0.056307	-1.270533	1.111689	-0.830322	-0.459717	-0.322021	15.438117	10.275464	129.941037
04403		-17.085924	0.480450	0.166975	-0.296998	-0.311458	0.844409	-0.837646	-0.443848	-0.323730	15.345600	9.968197	130.369043
04404		-17.370899	-1.206485	-4.417343	-0.750960	0.533898	0.536393	-0.848145	-0.441895	-0.329590	14.984188	10.179184	130.753852
04405		-18.833628	-4.936960	-3.361545	-1.243964	1.335133	0.354677	-0.838379	-0.434570	-0.342285	14.346760	10.862591	131.153216
04406		-15.095302	-7.227043	-2.128919	-1.291812	1.967066	0.215661	-0.822510	-0.429443	-0.345215	13.687761	11.922325	131.556326
04407		-2.788521	-3.806486	10.947196	-1.206762	2.037087	-0.078274	-0.805176	-0.424316	-0.367920	13.048890	13.064670	131.790552
04408		-3.283049	-0.515066	17.449711	-1.134891	1.791123	-0.686480	-0.802246	-0.407959	-0.377930	12.362514	14.148516	131.630475
04409		-1.263282	1.237156	12.573958	-1.089739	1.691164	-1.209711	-0.791748	-0.410156	-0.392578	11.615183	15.236809	131.140144
04410		-3.353239	1.035916	7.982247	-0.915659	1.959956	-1.194786	-0.779785	-0.411621	-0.400391	10.964575	16.468367	130.673419
04411		-7.407379	1.670746	10.357979	-0.630090	2.145272	-0.652037	-0.763184	-0.416260	-0.404785	10.563353	17.742155	130.532175
04412		-8.327330	2.235467	11.979029	-0.532172	1.915884	-0.306160	-0.753174	-0.412109	-0.426758	10.269398	18.849832	130.562172
04413		-4.970005	-0.880617	10.155944	-0.530512	1.715012	-0.362723	-0.745361	-0.412842	-0.432617	9.956389	19.850573	130.530850
04414		-3.177147	-1.929154	9.525435	-0.314447	1.772661	-0.300656	-0.733887	-0.408936	-0.440430	9.780341	20.877086	130.538240
04415		-5.035347	-0.220335	10.103014	-0.193719	1.836577	-0.276225	-0.724609	-0.402832	-0.450195	9.679941	21.937935	130.564301
04416		-9.027299	2.647812	11.702838	-0.312315	1.740609	-0.377023	-0.707764	-0.414551	-0.459229	9.484199	22.953645	130.516260
04417		-15.121959	2.889025	12.630054	-0.482120	1.024099	-0.301204	-0.706543	-0.408447	-0.460449	9.177728	23.557819	130.437074
04418		-3.654221	-0.553724	8.831748	-0.410867	0.450826	-0.126173	-0.704346	-0.405518	-0.462402	8.931532	23.820676	130.406373
04419		-5.691971	0.660634	10.459814	-0.306609	0.471846	-0.090403	-0.698975	-0.397217	-0.462891	8.753640	24.093377	130.398495
04420		-4.907514	1.748681	9.057689	-0.243382	0.284781	-0.037412	-0.685059	-0.399658	-0.470703	8.618480	24.254322	130.405182
04421		-4.679281	0.887085	9.324193	-0.200155	0.236160	-0.023459	-0.695801	-0.401123	-0.470459	8.508956	24.387811	130.415375
04422		-4.615476	1.389277	9.116227	-0.171993	0.165076	-0.012176	-0.694336	-0.397705	-0.466797	8.416358	24.478811	130.426008
04423		-4.075496	1.075356	9.210593	-0.153279	0.149753	-0.006307	-0.688721	-0.396973	-0.474121	8.334658	24.561950	130.438490
04424		-4.216962	0.784386	9.230301	-0.124414	0.154660	0.002233	-0.684814	-0.396729	-0.465332	8.272587	24.645879	130.456897
04425		-4.361480	0.720390	9.232612	-0.081922	0.138383	0.021307	-0.687500	-0.394043	-0.481201	8.238461	24.720309	130.485390
04426		-4.430562	0.708005	9.210529	-0.046953	0.128481	0.025001	-0.685059	-0.398193	-0.478760	8.225740	24.787546	130.515556
04427		-4.459811	1.059873	9.077818	-0.020416	0.100024	0.029406	-0.693115	-0.391357	-0.475342	8.227521	24.839579	130.545605
04428		-4.192115	1.420579	8.902510	-0.002465	0.091445	0.028520	-0.687500	-0.395020	-0.480957	8.239869	24.885526	130.574649
04429		-4.238147	1.551658	8.864544	-0.004909	0.090242	0.013533	-0.682373	-0.387451	-0.479248	8.246045	24.933312	130.593926
04430		-4.272466	1.614730	8.853070	-0.004300	0.081912	0.002372	-0.687256	-0.397949	-0.471680	8.250134	24.975995	130.605787
04431		-4.162703	1.750160	8.784936	-0.002801	0.079327	-0.012114	-0.682129	-0.394043	-0.471191	8.250390	25.019698	130.608065
04432		-4.206158	1.374298	8.923881	-0.001903	0.088156	-0.022996	-0.675293	-0.401611	-0.479980	8.249392	25.068007	130.604626
04433		-4.249175	1.084550	8.985951	0.018161	0.095791	-0.019799	-0.685059	-0.390137	-0.472656	8.260289	25.121669	130.603605
04434		-4.164016	1.012878	8.978991	0.037165	0.103925	-0.008672	-0.689209	-0.392334	-0.484863	8.286101	25.177740	130.610593
04435		-4.093075	1.121609	8.936985	0.047404	0.124599	-0.013186	-0.685791	-0.385742	-0.472900	8.316636	25.247178	130.616385
04436		-4.099841	1.134735	8.840266	0.043921	0.144179	-0.007966	-0.679932	-0.391602	-0.474854	8.348133	25.326004	130.627584
04437		-4.188069	1.140579	8.802966	0.050673	0.154840	-0.006812	-0.684082	-0.392578	-0.477539	8.383492	25.412030	130.640248
04438		-4.204091	1.256582	8.787273	0.055618	0.170094	-0.004369	-0.680176	-0.397705	-0.481445	8.423778	25.505231	130.656233
04439		-4.243884	1.360106	8.748474	0.057148	0.174780	-0.008810	-0.680176	-0.393066	-0.476074	8.463203	25.602701	130.669643
04440		-4.363113	1.394074	8.723275	0.061370	0.174392	-0.012684	-0.680908	-0.396484	-0.482910	8.504819	25.699020	130.680975
04441		-4.387218	1.501325	8.665660	0.052724	0.171345	-0.020331	-0.676514	-0.397217	-0.486328	8.538545	25.795503	130.686985
04442		-4.309204	1.542047	8.648285	0.035502	0.158554	-0.032972	-0.679443	-0.395752	-0.480469	8.559215	25.884565	130.684185
04443		-4.364254	1.539484	8.604935	0.019959	0.157803	-0.039764	-0.668945	-0.402344	-0.482422	8.568335	25.975031	130.676765
04444		-4.378747	1.390989	8.629196	-0.002699	0.148409	-0.051108	-0.673096	-0.405518	-0.478516	8.561681	26.059894	130.661591
04445		-4.299688	1.327989	8.722134	-0.007018	0.145608	-0.049801	-0.674072	-0.397949	-0.485107	8.552040	26.144308	130.646666
04446		-4.381138	1.335412	8.724887	-0.009402	0.155330	-0.049713	-0.670410	-0.403076	-0.490967	8.542160	26.232968	130.632978
04447		-4.374927	1.358218	8.709372	-0.019557	0.154293	-0.055552	-0.667480	-0.390381	-0.489746	8.524028	26.322780	130.615182
04448		-4.472794	1.262258	8.706742	-0.017067	0.152323	-0.052795	-0.667969	-0.395508	-0.482910	8.508694	26.409992	130.599185
04449		-4.463186	1.369191	8.614933	-0.029608	0.143918	-0.058488	-0.660889	-0.402100	-0.493164	8.483452	26.494161	130.578458
04450		-4.481355	1.243120	8.708139	-0.029954	0.136086	-0.061686	-0.668701	-0.397705	-0.485840	8.457447	26.572910	130.555197
04451		-4.501634	1.389170	8.599326	-0.048930	0.124802	-0.065523	-0.667236	-0.403076	-0.490234	8.418230	26.646819	130.528091
04452		-4.473303	1.335696	8.685228	-0.056568	0.121282	-0.071284	-0.667236	-0.391602	-0.488281	8.373501	26.717952	130.497211
04453		-4.444435	1.330739	8.717324	-0.062765	0.118867	-0.076594	-0.661865	-0.398193	-0.493652	8.322822	26.789380	130.462365
04454		-4.379624	1.355985	8.722850	-0.067551	0.127928	-0.078933	-0.669678	-0.395996	-0.490967	8.269734	26.864866	130.427062
04455		-4.417161	1.150477	8.747728	-0.069510	0.139213	-0.080435	-0.671875	-0.400635	-0.490967	8.214772	26.948078	130.391458
04456		-4.500824	0.968254	8.803118	-0.054558	0.145609	-0.071889	-0.664551	-0.394287	-0.490479	8.171716	27.032959	130.362055
04457		-4.498490	0.965216	8.779052	-0.048192	0.151971	-0.058200	-0.660889	-0.395752	-0.487549	8.135743	27.121541	130.341571
04458		-4.449862	1.025196	8.778636	-0.030895	0.159695	-0.055013	-0.657471	-0.402588	-0.493896	8.111588	27.213014	130.324047
04459		-4.486251	1.092228	8.803496	-0.014349	0.174418	-0.045526	-0.649414	-0.396729	-0.503662	8.099509	27.313278	130.313560
04460		-4.444908	1.196670	8.707043	-0.001727	0.185715	-0.047055	-0.647705	-0.401855	-0.490967	8.095399	27.418861	130.303405
04461		-4.384577	1.215557	8.741043	0.005830	0.205645	-0.054144	-0.651123	-0.402100	-0.491943	8.093588	27.537517	130.290198
04462		-4.375307	1.221528	8.827247	0.013364	0.235845	-0.058528	-0.646484	-0.396484	-0.497070	8.096787	27.672461	130.277236
04463		-4.429532	1.114370	8.827583	0.035749	0.269490	-0.056998	-0.647705	-0.395752	-0.487549	8.113921	27.827537	130.268016
04464		-4.376778	1.123503	8.889122	0.061184	0.311289	-0.059193	-0.654785	-0.398682	-0.494385	8.147523	28.005335	130.261604
04465		-4.411273	1.042307	8.949816	0.089697	0.358053	-0.057099	-0.643311	-0.394531	-0.501221	8.199411	28.210623	130.260663
04466		-4.442132	0.924471	8.971685	0.127481	0.410912	-0.050345	-0.640869	-0.405762	-0.502197	8.278241	28.444195	130.269599
04467		-4.475446	0.993061	8.937638	0.156325	0.474595	-0.044115	-0.640625	-0.404541	-0.503174	8.377846	28.714437	130.288656
04468		-4.350444	1.054052	8.984948	0.190640	0.529318	-0.041656	-0.636963	-0.405273	-0.501709	8.501614	29.014356	130.315566
04469		-4.474918	1.231805	8.859301	0.216344	0.601808	-0.038857	-0.632568	-0.411133	-0.509277	8.644188	29.356098	130.351885
04470		-4.410189	1.185269	8.930556	0.204459	0.666011	-0.044297	-0.630127	-0.404785	-0.510010	8.782930	29.733546	130.392540
04471		-4.405580	1.193562	8.891871	0.238008	0.749581	-0.049976	-0.625977	-0.403809	-0.516357	8.943349	30.159706	130.438899
04472		-4.260470	1.345901	8.964239	0.252541	0.848470	-0.056961	-0.619873	-0.408447	-0.511963	9.116990	30.641337	130.493039
04473		-4.339001	1.375454	8.962955	0.266814	0.961248	-0.074739	-0.613525	-0.414795	-0.520020	9.299588	31.189152	130.549121
04474		-4.382424	1.343479	9.023991	0.279204	1.091295	-0.092947	-0.594482	-0.419434	-0.515869	9.493065	31.811103	130.610279
04475		-4.321355	1.410672	9.122197	0.297632	1.234523	-0.115344	-0.588867	-0.415283	-0.530762	9.699075	32.516744	130.675199
04476		-4.259751	1.070131	9.497758	0.327133	1.420772	-0.116755	-0.581299	-0.421875	-0.531006	9.936925	33.326632	130.765106
04477		-4.218149	0.937967	9.561089	0.328406	1.643018	-0.107840	-0.573975	-0.418945	-0.536865	10.196852	34.261356	130.892479
04478		-4.024920	0.890560	9.960085	0.426826	1.900176	-0.099834	-0.560059	-0.429443	-0.540039	10.541821	35.338927	131.065694
04479		-3.820545	1.047598	10.049671	0.391972	2.206282	-0.096829	-0.536377	-0.432373	-0.552490	10.899836	36.588104	131.291374
04480		-4.024500	0.709735	10.016177	0.380050	2.553102	-0.097268	-0.515137	-0.435059	-0.548096	11.293938	38.030607	131.579724
04481		-3.641385	1.071439	10.046382	0.333280	2.941115	-0.120046	-0.493164	-0.434082	-0.552734	11.703655	39.692158	131.926973
04482		-3.775049	0.796563	10.103512	0.222903	3.411965	-0.198855	-0.475098	-0.438721	-0.570068	12.085362	41.624857	132.314352
04483		-3.466598	1.433581	10.060996	0.131948	3.905202	-0.338401	-0.433105	-0.450439	-0.572266	12.427217	43.848715	132.705379
04484		-3.450449	0.896369	10.476447	0.066317	4.451816	-0.410310	-0.403564	-0.445313	-0.579346	12.798124	46.385456	133.172915
04485		-3.450746	2.027756	10.920297	0.087892	5.001289	-0.436727	-0.364502	-0.447021	-0.593262	13.295787	49.229257	133.775307
04486		-4.763360	2.827589	11.312287	0.064176	5.586812	-0.431209	-0.311768	-0.448486	-0.589355	13.968026	52.394588	134.592859
04487		-6.856779	4.506586	11.257517	0.179016	6.124322	-0.406960	-0.267578	-0.453613	-0.589355	14.973742	55.845802	135.705789
04488		-9.304894	5.502951	10.882600	0.420257	6.547040	-0.606829	-0.211426	-0.458252	-0.596924	16.289115	59.548247	136.974521
04489		-13.659716	2.243460	12.256986	0.820196	6.694559	-0.799928	-0.165283	-0.464600	-0.584473	18.038321	63.343244	138.428612
04490		-19.205500	3.693151	13.593662	1.145550	6.477737	-0.883829	-0.110352	-0.475342	-0.582031	20.302088	67.011572	140.196756
04491		-19.550018	4.575203	14.480187	1.265350	6.028904	-1.104411	-0.063965	-0.480713	-0.571045	22.776631	70.451490	142.071758
04492		-15.280502	6.310549	14.321458	1.217030	5.644457	-1.407694	-0.026611	-0.492432	-0.547852	25.276234	73.729966	143.963209
04493		-10.657319	7.030125	13.799840	0.959171	5.325666	-1.732362	0.021240	-0.489014	-0.536865	27.622825	76.897707	145.818677
04494		-4.808090	6.489167	12.655170	0.578503	5.038133	-2.008366	0.057861	-0.496338	-0.507324	29.809071	79.978334	147.709529
04495		0.021789	5.869629	10.384858	0.346597	4.851047	-2.170157	0.094727	-0.491943	-0.495361	32.504017	82.993004	150.231265
04496		4.771230	2.416996	7.323311	0.336336	4.892716	-2.273174	0.126465	-0.480225	-0.490723	38.663404	86.030462	156.221671
04497		-9.444498	-2.607573	10.030686	0.753351	5.038772	-2.828303	0.148193	-0.482910	-0.470947	76.632688	89.100019	-166.223460
04498		-17.982876	0.682154	19.572443	1.224094	3.149287	-2.567211	0.178467	-0.486084	-0.449463	-159.365261	88.295785	-42.913220
04499		-16.319854	3.657676	18.020169	1.765557	0.722943	-2.322437	0.170898	-0.480225	-0.435303	-135.277258	87.216807	-19.822580
04500		-11.450460	6.961471	16.199421	1.703508	-1.426485	-1.973292	0.164307	-0.495117	-0.439697	-109.709825	86.694619	4.800662
04501		-7.069310	8.371154	12.887748	1.140980	-2.926398	-1.572828	0.133789	-0.493164	-0.463867	-81.335176	85.942889	32.573648
04502		-4.171789	7.650555	10.110191	0.465213	-3.776316	-1.269991	0.104004	-0.502441	-0.473389	-59.415680	84.507078	54.296966
04503		-2.354558	6.117474	7.421735	-0.076156	-4.268446	-0.976557	0.058838	-0.508301	-0.485107	-45.251095	82.551865	68.590375
04504		-0.401192	4.874278	5.607195	-0.458722	-4.475277	-0.687013	0.014404	-0.509766	-0.499756	-36.314786	80.345679	77.889239
04505		0.845801	3.483889	4.337668	-0.721298	-4.410073	-0.432937	-0.028564	-0.512695	-0.510986	-30.447047	78.088783	84.278315
04506		1.033985	2.113869	3.909477	-0.748261	-4.228395	-0.224094	-0.066406	-0.519775	-0.525879	-26.355013	75.893587	88.915649
04507		-0.474508	1.053101	4.645271	-0.528166	-4.078435	-0.031115	-0.126709	-0.525635	-0.533936	-23.071895	73.753227	92.626395
04508		-2.417266	0.117102	5.439704	-0.145356	-4.174820	0.197139	-0.181641	-0.525635	-0.522705	-19.991437	71.566956	95.938468
04509		-3.440860	0.083674	6.050322	0.291615	-4.435621	0.452691	-0.236572	-0.541992	-0.523438	-16.847186	69.226229	99.093803
04510		-3.346621	0.589144	6.097860	0.654628	-4.725850	0.684970	-0.310303	-0.559082	-0.521973	-13.758443	66.715118	102.018655
04511		-2.888912	1.688701	5.954716	0.832042	-4.887450	0.851299	-0.377197	-0.572998	-0.497559	-10.911933	64.071081	104.619689
04512		-2.693878	2.445125	5.523990	0.784629	-4.895929	0.938383	-0.439941	-0.587158	-0.479248	-8.507085	61.393757	106.816914
04513		-2.829529	2.432164	5.582439	0.621883	-4.814168	0.972713	-0.508301	-0.601563	-0.442871	-6.546667	58.718960	108.662485
04514		-3.665356	1.267085	6.247208	0.541429	-4.743979	1.004851	-0.582520	-0.603027	-0.408447	-4.909496	56.068853	110.235342
04515		-4.385767	0.211473	7.218880	0.649274	-4.738594	1.045293	-0.648926	-0.619141	-0.343262	-3.400517	53.390538	111.621952
04516		-4.966502	-0.245275	8.229273	0.894662	-4.789800	1.068959	-0.714844	-0.618408	-0.279297	-1.934178	50.674538	112.829272
04517		-5.444239	-0.247089	8.926570	1.179558	-4.856170	1.046665	-0.775635	-0.625244	-0.194580	-0.481881	47.891049	113.847254
04518		-5.695411	-0.114872	9.281807	1.429551	-4.886263	0.993361	-0.818359	-0.613525	-0.115479	0.930325	45.086021	114.662481
04519		-6.004052	-0.197015	9.460604	1.615756	-4.817041	0.934719	-0.836670	-0.607666	-0.010498	2.302883	42.297240	115.302284
04520		-6.875366	-0.424878	9.808366	1.764416	-4.657101	0.916264	-0.833984	-0.599854	0.074707	3.652862	39.601949	115.816796
04521		-8.036806	-0.022625	10.713411	1.877328	-4.458548	0.920728	-0.818604	-0.587402	0.160400	5.000049	36.999763	116.247303
04522		-9.905969	1.019609	12.189437	1.913144	-4.307505	0.922433	-0.798828	-0.579590	0.227539	6.303603	34.488273	116.599303
04523		-12.204447	1.807394	13.635242	1.834595	-4.285535	0.920780	-0.763184	-0.569336	0.280273	7.511668	31.972014	116.877178
04524		-14.043726	1.677186	14.235660	1.741156	-4.374934	0.942589	-0.727295	-0.569580	0.340820	8.621216	29.410844	117.093072
04525		-14.600485	1.376045	13.824925	1.707889	-4.446936	0.989728	-0.682861	-0.556396	0.366211	9.688776	26.790234	117.272233
04526		-14.777471	1.310281	13.095180	1.736331	-4.381955	1.061576	-0.626953	-0.561279	0.394287	10.759512	24.207830	117.444485
04527		-16.015141	1.870707	12.805173	1.769225	-4.250507	1.170138	-0.568115	-0.553955	0.408447	11.855205	21.673953	117.643270
04528		-17.717190	2.328386	12.454239	1.713793	-4.182631	1.371254	-0.527100	-0.551270	0.398193	12.933925	19.160966	117.915750
04529		-17.833575	2.392460	11.224811	1.583807	-4.150691	1.673266	-0.497070	-0.551025	0.376709	13.969034	16.611646	118.317081
04530		-16.541343	2.197663	9.502440	1.377769	-4.001015	1.952854	-0.465088	-0.556396	0.360596	14.901443	14.108836	118.850479
04531		-15.503566	1.703162	8.006575	1.159921	-3.637901	2.134635	-0.450195	-0.568848	0.320068	15.715298	11.763335	119.498678
04532		-15.668562	1.090332	7.100048	0.975854	-3.189305	2.226594	-0.447510	-0.573486	0.299561	16.412658	9.650410	120.233887
04533		-16.112756	0.782439	6.450303	0.840881	-2.788773	2.278591	-0.449707	-0.579590	0.265869	17.019504	7.733613	121.036019
04534		-16.229566	-0.053107	5.386388	0.760500	-2.418213	2.338259	-0.460693	-0.587891	0.255127	17.561611	6.008521	121.911731
04535		-16.278332	-1.517369	4.051985	0.749117	-2.048420	2.370984	-0.471680	-0.584229	0.239258	18.080103	4.465871	122.851735
04536		-17.024504	-2.076784	2.488985	0.784329	-1.716413	2.299939	-0.487549	-0.584961	0.232178	18.593573	3.113783	123.797253
04537		-17.820641	-2.836312	1.711940	0.738698	-1.388668	2.117948	-0.490234	-0.589355	0.220459	19.059451	1.961091	124.691824
04538		-18.003592	-3.860373	0.398005	0.601590	-1.109003	1.875172	-0.501709	-0.582520	0.216797	19.426579	1.003050	125.498980
04539		-16.287839	-4.318828	-1.094117	0.340509	-0.777253	1.584322	-0.517334	-0.585449	0.210449	19.632143	0.273599	126.207541
04540		-15.404908	-4.562627	-1.166413	-0.022144	-0.296789	1.221710	-0.525391	-0.582764	0.200195	19.621786	-0.125729	126.811659
04541		-15.763109	-4.837234	-0.429352	-0.369631	0.170278	0.825283	-0.517578	-0.580322	0.190674	19.410811	-0.196463	127.291850
04542		-11.799157	-4.004663	3.742191	-0.891232	0.776882	0.354503	-0.519043	-0.572510	0.180664	18.901592	0.153340	127.631732
04543		3.139721	-6.578302	3.781189	-0.326022	2.233943	0.140254	-0.522705	-0.576416	0.176514	18.722856	1.335676	128.122585
04544		-3.994554	4.455031	11.972743	-0.917665	2.288565	-0.576259	-0.517090	-0.576172	0.163086	18.202248	2.680000	128.226721
04545		6.789907	11.858930	8.382970	-1.794190	2.291706	-1.575388	-0.505371	-0.570557	0.153076	17.147911	4.201828	127.766622
04546		9.109093	11.123159	3.784624	-2.574537	2.825130	-2.273531	-0.505371	-0.577148	0.140381	15.602738	6.118156	126.972161
04547		-2.100332	1.791580	7.062396	-2.187125	3.713386	-1.460626	-0.492432	-0.573975	0.111328	14.319000	8.385631	126.713206
04548		-13.029413	-0.174683	13.781758	-1.494590	3.990215	-0.298343	-0.490479	-0.568848	0.093994	13.528888	10.641975	127.105106
04549		-12.435321	-5.197875	16.241070	-1.285824	3.470308	-0.394251	-0.479980	-0.567627	0.089600	12.842771	12.626044	127.346167
04550		-9.220481	-11.445915	15.148791	-0.778144	3.011702	-0.689522	-0.478516	-0.564209	0.071289	12.396973	14.392475	127.339874
04551		-9.983832	-2.784768	14.302528	-0.225269	2.718209	-0.656425	-0.470215	-0.561279	0.067871	12.259960	15.991715	127.306076
04552		-10.519565	4.671677	13.156686	-0.206837	2.284131	-0.531634	-0.464844	-0.565918	0.066406	12.137379	17.331487	127.286485
04553		-7.723491	5.542275	10.673181	-0.297025	1.949248	-0.282271	-0.461914	-0.566162	0.049561	11.992951	18.455513	127.367938
04554		-6.224864	3.485812	10.001100	-0.496935	1.740278	-0.375184	-0.455322	-0.568848	0.046631	11.708683	19.471774	127.364590
04555		-6.401002	1.645231	9.973632	-0.568669	1.540457	-0.461483	-0.449463	-0.561279	0.043457	11.354686	20.387822	127.279171
04556		-8.591118	2.878208	10.478402	-0.660698	1.303444	-0.494325	-0.449951	-0.563721	0.035400	10.927935	21.171586	127.138963
04557		-7.830788	1.527236	10.586936	-0.686929	0.926834	-0.412856	-0.447998	-0.561523	0.032227	10.483671	21.736082	126.997778
04558		-5.839843	-0.263353	10.269295	-0.625065	0.667894	-0.345522	-0.440918	-0.562744	0.023438	10.077156	22.144275	126.864152
04559		-4.642294	0.001305	9.974383	-0.515657	0.550644	-0.267421	-0.441162	-0.558838	0.029541	9.743852	22.480475	126.762263
04560		-5.339832	0.616270	9.986138	-0.438923	0.432679	-0.205308	-0.435547	-0.558105	0.027100	9.463917	22.740894	126.684233
04561		-4.440796	0.911805	9.511926	-0.391952	0.309957	-0.153644	-0.428711	-0.555664	0.022705	9.216588	22.929561	126.623802
04562		-4.159676	1.082718	9.351291	-0.361435	0.277259	-0.135244	-0.440430	-0.557861	0.023682	8.990343	23.095062	126.570830
04563		-4.150865	1.083420	9.223165	-0.328878	0.241778	-0.120293	-0.445068	-0.553955	0.021729	8.783576	23.241756	126.522593
04564		-4.110485	1.055414	9.172753	-0.307543	0.224078	-0.107664	-0.432617	-0.553955	0.018066	8.592142	23.374392	126.480196
04565		-4.325978	0.839365	9.253321	-0.279138	0.192385	-0.086512	-0.440918	-0.553711	0.022705	8.419658	23.489943	126.447099
04566		-4.067173	0.902668	9.169826	-0.249008	0.168510	-0.066678	-0.438232	-0.566650	0.021484	8.269339	23.587434	126.424065
04567		-4.205367	1.052334	9.176683	-0.211954	0.146806	-0.050206	-0.435059	-0.552002	0.016846	8.142288	23.674017	126.408653
04568		-4.288471	1.144451	9.115267	-0.181381	0.118397	-0.037058	-0.424805	-0.561035	0.024902	8.036055	23.740598	126.399054
04569		-4.230451	1.285629	9.016934	-0.157575	0.085831	-0.027726	-0.430176	-0.552979	0.014404	7.943440	23.790753	126.391900
04570		-4.197873	1.134522	9.011188	-0.141374	0.071454	-0.023022	-0.434082	-0.553223	0.020508	7.861898	23.829559	126.386721
04571		-4.070502	1.230260	9.016844	-0.126139	0.065223	-0.027222	-0.430420	-0.561768	0.021729	7.786635	23.867970	126.377966
04572		-4.037555	1.281512	8.904568	-0.116189	0.065327	-0.027017	-0.435303	-0.556885	0.016357	7.718256	23.903594	126.369674
04573		-4.082202	1.285830	8.877390	-0.115858	0.070411	-0.033414	-0.427734	-0.555664	0.016113	7.647455	23.945402	126.357407
04574		-4.078323	1.127614	8.908615	-0.112013	0.068858	-0.042887	-0.434570	-0.557617	0.012451	7.577531	23.984216	126.339445
04575		-3.928095	0.989946	8.965472	-0.110773	0.081183	-0.037431	-0.422119	-0.555176	0.010498	7.508929	24.032418	126.325455
04576		-4.019120	0.980025	8.993157	-0.095536	0.097285	-0.030940	-0.437256	-0.553711	0.011230	7.452350	24.086453	126.317136
04577		-4.115643	0.984628	8.988268	-0.079808	0.109382	-0.028514	-0.425293	-0.552490	0.020020	7.404602	24.149976	126.310862
04578		-4.039628	1.163350	8.880894	-0.073622	0.110679	-0.028370	-0.427979	-0.546875	0.015625	7.361616	24.211419	126.305116
04579		-4.022634	1.286149	8.871197	-0.078994	0.118008	-0.028857	-0.421631	-0.551758	0.012695	7.314466	24.279855	126.299203
04580		-4.173065	1.266331	8.880781	-0.083531	0.126481	-0.039857	-0.428223	-0.547363	0.006836	7.263311	24.351105	126.287438
04581		-4.252253	1.084015	8.870223	-0.089278	0.114445	-0.042022	-0.425293	-0.557617	0.012939	7.206709	24.418453	126.272895
04582		-4.266582	1.087183	8.834863	-0.094592	0.106437	-0.045596	-0.425293	-0.556641	0.007080	7.146988	24.478699	126.255804
04583		-4.211127	1.213389	8.729995	-0.109505	0.095636	-0.048818	-0.427979	-0.548096	0.011719	7.076328	24.535818	126.235379
04584		-4.126942	1.268026	8.725153	-0.128054	0.085255	-0.054372	-0.434326	-0.547852	0.013672	6.994370	24.584596	126.210988
04585		-4.102669	1.500460	8.691531	-0.156794	0.077165	-0.060488	-0.426025	-0.553223	0.016846	6.892895	24.631968	126.181670
04586		-4.154317	1.453861	8.646823	-0.189781	0.067284	-0.070261	-0.422852	-0.545898	0.008789	6.770738	24.671526	126.145777
04587		-4.299099	1.219866	8.762793	-0.216197	0.055028	-0.074419	-0.427490	-0.557373	0.007813	6.630820	24.707120	126.105899
04588		-4.295290	0.992482	8.806925	-0.216699	0.036951	-0.071448	-0.425293	-0.554688	0.005859	6.491883	24.729336	126.066852
04589		-4.188146	0.733825	8.956648	-0.211650	0.032690	-0.068884	-0.431152	-0.547852	0.009033	6.355260	24.751693	126.028680
04590		-4.184539	0.555790	9.076953	-0.186309	0.039192	-0.062043	-0.419434	-0.558594	-0.000244	6.236190	24.774431	125.995559
04591		-4.192974	0.551580	9.044497	-0.154646	0.052591	-0.051987	-0.426514	-0.550537	0.008545	6.137125	24.806930	125.969218
04592		-4.100221	0.815410	8.981355	-0.131624	0.063239	-0.047073	-0.427002	-0.542236	0.008545	6.053933	24.842351	125.947003
04593		-4.081382	0.862812	8.889371	-0.129076	0.072274	-0.048708	-0.423828	-0.546387	0.006836	5.970820	24.885783	125.923891
04594		-4.112490	0.907113	8.820809	-0.132239	0.083895	-0.051712	-0.427246	-0.554443	-0.001465	5.886531	24.933192	125.899980
04595		-4.068632	1.191326	8.791378	-0.135285	0.087536	-0.057498	-0.424805	-0.546631	0.008057	5.797842	24.985761	125.872169
04596		-4.191124	1.094040	8.767466	-0.154646	0.084668	-0.064336	-0.433838	-0.540039	0.008545	5.697262	25.034266	125.840181
04597		-4.145116	0.864098	8.873152	-0.152278	0.088259	-0.069132	-0.422607	-0.544678	0.007080	5.595650	25.087807	125.804893
04598		-4.083613	0.971395	8.935461	-0.141200	0.108511	-0.070021	-0.426025	-0.545166	0.006348	5.501727	25.150123	125.770569
04599		-4.035904	0.823606	9.036251	-0.120321	0.137564	-0.075264	-0.422119	-0.545410	0.003174	5.417883	25.231999	125.734165
04600		-4.040872	0.840722	9.081483	-0.110117	0.171527	-0.071774	-0.425537	-0.542480	0.003906	5.342702	25.330264	125.702231
04601		-4.042312	0.798201	9.078313	-0.088977	0.199170	-0.081445	-0.429688	-0.541260	0.004883	5.276454	25.447492	125.665244
04602		-4.098363	0.695203	9.108581	-0.060843	0.243517	-0.092944	-0.423828	-0.541016	0.002197	5.225288	25.587877	125.623799
04603		-4.139319	0.884789	9.017706	-0.042200	0.280818	-0.081722	-0.426025	-0.545410	0.003174	5.187494	25.751609	125.591020
04604		-4.137840	0.828010	9.112741	-0.021742	0.321266	-0.088903	-0.418945	-0.543945	-0.000244	5.161442	25.936100	125.556280
04605		-4.015673	1.038126	9.236095	-0.019128	0.364008	-0.114620	-0.416260	-0.542236	0.006836	5.129465	26.148927	125.507063
04606		-3.960204	1.027371	9.265849	-0.020461	0.422240	-0.129275	-0.416260	-0.551025	-0.003906	5.094931	26.393069	125.452028
04607		-3.883530	1.001288	9.379712	-0.036533	0.492119	-0.150241	-0.411865	-0.538574	-0.011230	5.045479	26.680689	125.386819
04608		-3.768784	0.619720	9.613107	-0.051768	0.585767	-0.174493	-0.421387	-0.539307	-0.001953	4.983253	27.020346	125.311290
04609		-3.765091	0.527305	9.755399	-0.048161	0.711703	-0.204183	-0.415527	-0.551514	-0.005859	4.915679	27.435747	125.222565
04610		-3.710614	0.003406	10.071835	0.024732	0.859361	-0.246907	-0.408936	-0.549805	-0.002197	4.881014	27.934995	125.114123
04611		-3.720248	0.581492	9.911279	0.072254	1.048485	-0.251944	-0.405518	-0.555664	-0.013672	4.874467	28.544736	125.011598
04612		-3.705222	-0.102872	10.365895	0.142803	1.288570	-0.204250	-0.415527	-0.547852	-0.008301	4.929870	29.286922	124.953760
04613		-3.568627	-0.101900	10.406657	0.205173	1.557698	-0.166994	-0.398682	-0.554688	-0.016846	5.039143	30.183069	124.936004
04614		-3.542825	0.220641	10.658844	0.292348	1.874621	-0.133478	-0.395264	-0.553223	-0.013184	5.221715	31.256261	124.962459
04615		-3.251867	0.578434	10.868822	0.391058	2.205705	-0.128759	-0.397461	-0.553467	-0.020996	5.475242	32.519856	125.017326
04616		-3.073090	0.739052	10.896408	0.479146	2.568011	-0.148830	-0.385986	-0.555908	-0.030518	5.792267	33.989034	125.091964
04617		-2.893392	0.715603	10.751378	0.537422	2.977289	-0.179873	-0.379883	-0.559570	-0.031006	6.154397	35.694414	125.185949
04618		-2.390368	0.774766	10.971464	0.520924	3.460659	-0.228583	-0.368164	-0.560303	-0.042725	6.522640	37.676080	125.300084
04619		-2.129460	0.260529	10.688864	0.417271	4.038637	-0.352811	-0.359863	-0.562988	-0.047852	6.818620	39.995421	125.389925
04620		-2.338917	-0.809514	10.506885	0.277882	4.681441	-0.493279	-0.344482	-0.564209	-0.050781	7.019283	42.688692	125.450267
04621		-2.252939	0.381313	10.781076	0.108111	5.343579	-0.677570	-0.327881	-0.569336	-0.062500	7.073983	45.771816	125.439149
04622		-2.337533	1.304789	10.703877	-0.029379	6.119296	-0.876210	-0.318848	-0.566650	-0.072998	6.986109	49.309485	125.340812
04623		-7.256888	3.945126	11.429534	0.014116	6.771209	-0.985492	-0.284180	-0.573730	-0.077148	6.881844	53.225193	125.196064
04624		-9.340229	6.160652	12.070633	0.133659	6.929309	-1.089602	-0.269531	-0.572510	-0.084961	6.749681	57.237931	124.940185
04625		-12.932910	2.719165	14.044065	0.483608	7.054680	-1.137106	-0.242676	-0.580566	-0.085693	6.740955	61.324275	124.606610
04626		-18.312955	5.376858	15.593384	0.595325	6.737366	-1.280242	-0.221191	-0.575684	-0.093750	6.527499	65.239950	123.984254
04627		-20.243683	4.810359	13.103236	0.516683	6.379590	-1.539904	-0.192383	-0.577393	-0.091064	5.671846	68.963558	122.733198
04628		-18.960332	4.956301	15.310380	0.659567	5.790850	-1.733356	-0.169922	-0.591064	-0.091797	4.039986	72.350781	120.602399
04629		-11.898381	6.402748	14.505373	0.708592	5.158478	-1.940350	-0.147217	-0.586182	-0.089844	1.076077	75.348938	117.093607
04630		-3.104966	5.540863	12.885849	0.639228	4.767427	-2.160979	-0.121582	-0.596436	-0.092529	-4.084118	78.047216	111.414946
04631		3.801741	4.395393	8.710853	0.692273	4.587166	-2.298525	-0.104736	-0.593750	-0.088623	-12.539524	80.458869	102.405522
04632		2.959600	-3.013685	3.638069	0.950166	5.025197	-2.810840	-0.074463	-0.582764	-0.083740	-29.002413	82.601893	85.214734
04633		-13.912985	-2.426975	13.710178	1.535600	4.635971	-2.829577	-0.060059	-0.593018	-0.088867	-52.691109	83.570286	60.470319
04634		-15.252841	2.802639	16.371010	2.472873	2.668026	-2.511695	-0.042480	-0.600098	-0.084229	-68.686908	83.059070	42.938759
04635		-14.026726	8.182564	16.290807	2.614261	0.681345	-2.166054	-0.026123	-0.598633	-0.077637	-73.036577	82.014462	37.039036
04636		-9.817262	11.034008	14.686815	1.823534	-1.091662	-1.673139	-0.023926	-0.599365	-0.081055	-70.034149	80.908926	39.016898
04637		-6.534800	10.401712	11.846807	0.799476	-2.438556	-1.160088	-0.028076	-0.598633	-0.087891	-63.506049	79.746653	45.170825
04638		-3.796505	8.203992	9.500731	-0.054760	-3.292543	-0.756028	-0.030273	-0.594727	-0.111084	-56.177997	78.422722	52.663395
04639		-1.045600	5.673754	7.302907	-0.574984	-3.687792	-0.379949	-0.036621	-0.588379	-0.121338	-49.331186	76.966192	60.003576
04640		1.060878	3.787629	5.296198	-0.829938	-3.739554	-0.055745	-0.047119	-0.581787	-0.121338	-43.544619	75.464282	66.448898
04641		2.009329	2.061415	3.881491	-0.820085	-3.597905	0.207904	-0.067383	-0.572754	-0.142822	-38.668568	73.983123	71.985529
04642		1.560334	0.879312	3.742765	-0.580325	-3.419369	0.426274	-0.076416	-0.563477	-0.146729	-34.448795	72.553073	76.736879
04643		0.298905	-0.145093	4.103555	-0.174985	-3.353465	0.657434	-0.085938	-0.566895	-0.151611	-30.395387	71.125163	81.103004
04644		-0.580389	-0.346566	4.642388	0.300612	-3.429251	0.900892	-0.099121	-0.562988	-0.158936	-26.315938	69.639035	85.248778
04645		-1.238085	0.109030	5.243570	0.729715	-3.581555	1.133366	-0.119873	-0.557129	-0.157227	-22.158124	68.024278	89.253421
04646		-1.966761	0.773288	5.976086	1.021708	-3.758596	1.332872	-0.129150	-0.552002	-0.146729	-18.101276	66.262355	93.018266
04647		-2.634134	1.647571	6.554651	1.132204	-3.942831	1.489295	-0.155762	-0.555908	-0.151123	-14.275199	64.318717	96.509826
04648		-3.255435	2.483330	7.104520	1.059617	-4.114107	1.597975	-0.154541	-0.560303	-0.151855	-10.865500	62.214158	99.645306
04649		-3.942927	2.683925	7.604120	0.874723	-4.286964	1.675853	-0.177490	-0.551025	-0.140869	-7.903367	59.933887	102.450626
04650		-4.523506	1.964124	8.043322	0.703251	-4.478711	1.727486	-0.190186	-0.549316	-0.136719	-5.385945	57.496260	104.922317
04651		-4.828530	0.694992	8.370189	0.696184	-4.653978	1.777860	-0.193359	-0.545410	-0.129639	-3.155689	54.898414	107.119404
04652		-5.203916	-0.153698	8.662047	0.866588	-4.808846	1.813925	-0.194580	-0.545166	-0.128906	-1.108385	52.180354	109.044937
04653		-5.123353	-0.147154	8.632128	1.089672	-4.906517	1.801528	-0.201416	-0.538574	-0.134277	0.803173	49.356453	110.699501
04654		-4.815443	-0.000695	8.501535	1.273909	-4.887091	1.730985	-0.208008	-0.543701	-0.146240	2.546446	46.525166	112.061650
04655		-4.845894	-0.092447	8.492640	1.404604	-4.730959	1.628215	-0.200195	-0.542236	-0.143799	4.139321	43.748703	113.165978
04656		-5.628176	-0.336802	9.040240	1.525537	-4.493569	1.530409	-0.206787	-0.554443	-0.152100	5.616294	41.105388	114.056844
04657		-6.545674	-0.144033	9.763224	1.622569	-4.236595	1.442448	-0.200195	-0.552490	-0.164307	7.017779	38.585324	114.785321
04658		-7.658250	1.173703	11.738502	1.685198	-4.005847	1.305583	-0.206543	-0.555176	-0.189453	8.319732	36.207303	115.336326
04659		-11.174306	1.860421	14.740962	1.729737	-3.968554	1.169629	-0.211670	-0.578125	-0.200684	9.535373	33.840302	115.719138
04660		-14.002107	2.253956	16.147254	1.771980	-4.251231	1.127517	-0.227539	-0.590088	-0.216797	10.687176	31.325305	115.969430
04661		-14.528071	3.096361	15.894209	1.789951	-4.589685	1.168395	-0.242920	-0.602295	-0.229492	11.802698	28.598943	116.139803
04662		-14.414381	3.912479	15.207880	1.752415	-4.735134	1.279823	-0.273193	-0.622803	-0.246826	12.879881	25.788148	116.295930
04663		-15.425537	4.041794	14.623025	1.652757	-4.650630	1.516324	-0.306885	-0.636963	-0.264160	13.936276	22.978610	116.549086
04664		-16.829711	3.429184	13.887636	1.567786	-4.527765	1.858694	-0.353271	-0.658691	-0.269775	14.988877	20.196797	116.963707
04665		-17.762323	2.822473	12.894182	1.525267	-4.450944	2.189563	-0.385254	-0.662354	-0.261963	16.047785	17.388781	117.522859
04666		-17.584799	2.518756	11.275912	1.394086	-4.315693	2.472388	-0.430420	-0.679443	-0.254395	17.036408	14.611147	118.205271
04667		-16.974995	2.624464	9.405180	1.124451	-4.029100	2.644804	-0.468994	-0.676514	-0.233887	17.863496	11.940765	118.981760
04668		-16.433859	2.142861	7.844341	0.758479	-3.624303	2.687954	-0.508301	-0.682373	-0.225586	18.454509	9.483614	119.814433
04669		-16.386222	1.010678	6.496633	0.500770	-3.160062	2.623165	-0.531494	-0.678711	-0.214600	18.870248	7.275255	120.670212
04670		-16.551141	-0.684297	5.679315	0.447706	-2.701021	2.525679	-0.559326	-0.674072	-0.202148	19.223917	5.336100	121.540229
04671		-17.080606	-2.773499	4.529993	0.603832	-2.297435	2.393279	-0.572266	-0.677979	-0.187988	19.640713	3.628352	122.399952
04672		-18.151970	-3.480201	2.864939	0.811492	-1.970363	2.160890	-0.597412	-0.668701	-0.174805	20.146657	2.141423	123.182885
04673		-18.366926	-3.956713	0.934305	0.854328	-1.567733	1.829578	-0.609863	-0.674316	-0.161133	20.657088	0.925986	123.854288
04674		-18.612811	-4.760891	-0.738683	0.751775	-1.070571	1.443682	-0.625000	-0.674561	-0.150146	21.094142	0.054020	124.410425
04675		-18.942838	-5.319058	-1.758942	0.541781	-0.559757	1.043293	-0.626465	-0.670654	-0.147461	21.405347	-0.467440	124.853062
04676		-17.133166	-3.785730	-0.905151	0.194432	-0.100961	0.617363	-0.627686	-0.667725	-0.148193	21.515265	-0.654787	125.162900
04677		-19.441813	-0.907214	-1.833825	-1.228806	1.498737	-0.011642	-0.630859	-0.664307	-0.157959	20.811752	0.144667	125.468519
04678		-10.603626	-7.363143	-4.639017	-1.870162	2.386105	-0.783389	-0.620361	-0.656250	-0.172607	19.742545	1.578551	125.523159
04679		-1.422704	-1.658988	11.266830	-1.953572	2.461626	-1.103668	-0.610840	-0.650635	-0.194092	18.619340	3.116474	125.391206
04680		0.607092	8.947990	14.300275	-2.195213	2.263541	-1.470338	-0.587646	-0.650146	-0.205322	17.336120	4.606078	124.991328
04681		5.609290	11.116303	7.785002	-2.577015	2.486890	-1.963488	-0.579346	-0.638672	-0.224121	15.797067	6.290636	124.318491
04682		0.666401	0.810143	6.235290	-2.351390	3.190402	-1.524389	-0.566650	-0.637207	-0.243408	14.404593	8.279105	123.950747
04683		-8.039291	-3.008274	12.061676	-1.484792	3.748770	-0.426944	-0.552002	-0.628418	-0.259521	13.602568	10.420010	124.239368
04684		-13.881475	-5.484463	16.897020	-1.133179	3.356543	-0.305946	-0.537598	-0.629395	-0.277344	13.009996	12.328073	124.519240
04685		-10.257325	-11.103751	15.680502	-0.737992	2.696564	-0.707978	-0.516113	-0.628418	-0.278320	12.576259	13.923202	124.466747
04686		-6.855208	-3.587717	12.742186	-0.189006	2.436477	-0.771075	-0.500000	-0.616943	-0.287842	12.436412	15.377975	124.335888
04687		-7.209564	6.590990	10.969767	-0.132213	2.265414	-0.603546	-0.486572	-0.623779	-0.302979	12.344122	16.719135	124.276343
04688		-6.162432	8.120712	9.352640	-0.325338	2.118505	-0.315952	-0.478516	-0.619141	-0.304443	12.185276	17.939941	124.363678
04689		-6.391091	3.630996	9.782065	-0.605736	1.990060	-0.425812	-0.468994	-0.623291	-0.312988	11.839013	19.105463	124.364574
04690		-8.331285	0.826303	10.800707	-0.690045	1.712142	-0.572302	-0.460693	-0.618652	-0.322754	11.402015	20.128657	124.235988
04691		-9.956860	2.764233	10.882943	-0.762696	1.307479	-0.574828	-0.443848	-0.609375	-0.318848	10.899650	20.927167	124.048009
04692		-7.173402	2.355932	9.961832	-0.801791	0.938566	-0.458361	-0.443359	-0.612549	-0.331055	10.381141	21.500480	123.880363
04693		-4.935295	-0.744888	10.344417	-0.716395	0.770982	-0.381086	-0.442383	-0.614990	-0.330566	9.917549	21.974013	123.735247
04694		-5.724806	-1.262081	10.783906	-0.583120	0.595512	-0.292343	-0.436523	-0.607910	-0.330078	9.542307	22.334967	123.622047
04695		-5.167611	0.091580	10.066575	-0.477626	0.406361	-0.192537	-0.436279	-0.595703	-0.343506	9.240627	22.582940	123.547782
04696		-4.647335	0.328991	9.851820	-0.401321	0.318860	-0.133906	-0.433350	-0.599365	-0.337402	8.993776	22.771861	123.499898
04697		-4.441571	0.312721	9.771448	-0.312890	0.258521	-0.083771	-0.433838	-0.597656	-0.342773	8.805343	22.925872	123.475680
04698		-4.434784	0.608573	9.558831	-0.242674	0.209166	-0.053845	-0.428467	-0.592773	-0.339111	8.663759	23.045406	123.465200
04699		-4.248222	0.893614	9.350868	-0.191931	0.173992	-0.029652	-0.431152	-0.597168	-0.343262	8.554100	23.146692	123.465520
04700		-4.251525	1.094634	9.163186	-0.155314	0.141676	-0.015911	-0.428955	-0.601563	-0.345947	8.469085	23.224729	123.471676
04701		-4.088426	1.240895	9.021951	-0.129751	0.122549	-0.008324	-0.420654	-0.593018	-0.340332	8.398268	23.294976	123.480120
04702		-4.050900	1.290999	8.977863	-0.116567	0.107128	-0.002967	-0.419189	-0.594727	-0.334229	8.337307	23.352364	123.490921
04703		-3.750985	1.486586	8.890273	-0.118269	0.100339	-0.006725	-0.423096	-0.592041	-0.339600	8.272665	23.409803	123.498206
04704		-3.951001	1.719540	8.841781	-0.126740	0.096419	-0.013847	-0.424805	-0.601563	-0.339844	8.202786	23.462034	123.501193
04705		-4.083721	1.441212	8.891656	-0.139049	0.081473	-0.022088	-0.420166	-0.589355	-0.335693	8.121825	23.509921	123.497192
04706		-3.992929	1.336671	8.971487	-0.144169	0.073238	-0.025440	-0.423828	-0.596191	-0.340088	8.038227	23.549944	123.490815
04707		-3.990458	1.340272	8.919512	-0.137028	0.074480	-0.030585	-0.421143	-0.587402	-0.339600	7.956074	23.594429	123.480822
04708		-4.127397	1.204582	9.004652	-0.131249	0.066495	-0.039124	-0.428955	-0.595215	-0.344238	7.876191	23.631687	123.465260
04709		-4.151430	0.967720	9.051936	-0.106921	0.061957	-0.042477	-0.417480	-0.587158	-0.346680	7.807884	23.669871	123.446715
04710		-4.050387	0.883555	9.080068	-0.087443	0.071559	-0.037317	-0.423828	-0.591309	-0.345459	7.753661	23.709831	123.432598
04711		-4.062646	0.887618	9.045640	-0.061016	0.083110	-0.028041	-0.423340	-0.594727	-0.346191	7.715926	23.758784	123.424703
04712		-4.022565	0.944061	9.002749	-0.042149	0.090305	-0.017031	-0.419434	-0.586914	-0.346191	7.693316	23.807812	123.424678
04713		-4.086153	1.121788	8.946028	-0.026483	0.101022	-0.011967	-0.424805	-0.590332	-0.351807	7.679983	23.865600	123.428212
04714		-4.052514	1.250863	8.855306	-0.028480	0.102411	-0.013327	-0.421631	-0.593506	-0.350098	7.666535	23.921219	123.431471
04715		-4.127059	1.215357	8.886379	-0.027156	0.099502	-0.010956	-0.414307	-0.584473	-0.353271	7.653057	23.977979	123.435493
04716		-4.145342	1.178618	8.833900	-0.031834	0.101082	-0.019984	-0.421143	-0.584473	-0.340088	7.635954	24.033352	123.434475
04717		-4.047729	1.216874	8.830323	-0.035581	0.095593	-0.018125	-0.418945	-0.590088	-0.343262	7.615734	24.088359	123.433695
04718		-4.074242	1.299849	8.806883	-0.044175	0.099031	-0.025032	-0.419189	-0.595459	-0.341797	7.590187	24.142950	123.429321
04719		-4.065841	1.207097	8.823342	-0.050982	0.102804	-0.033238	-0.406982	-0.584717	-0.349121	7.557559	24.203109	123.419691
04720		-4.135416	1.198053	8.771756	-0.058326	0.097821	-0.040861	-0.415283	-0.589844	-0.352295	7.519779	24.258197	123.405286
04721		-4.086370	1.170758	8.808238	-0.066451	0.097706	-0.042317	-0.410645	-0.584717	-0.353271	7.475773	24.316049	123.389500
04722		-4.173296	1.089777	8.881408	-0.066570	0.098429	-0.040024	-0.412109	-0.586426	-0.343262	7.433437	24.371401	123.375565
04723		-4.122560	1.085232	8.926216	-0.059134	0.103526	-0.039405	-0.414795	-0.590576	-0.351563	7.394529	24.432248	123.361974
04724		-4.081558	1.048251	8.921699	-0.049802	0.120029	-0.033963	-0.412109	-0.585938	-0.352539	7.364025	24.499411	123.353475
04725		-4.109849	1.014477	8.927179	-0.039306	0.129124	-0.034190	-0.414551	-0.581543	-0.354736	7.338647	24.574328	123.345126
04726		-4.035145	1.058988	8.909969	-0.032889	0.140827	-0.030055	-0.409424	-0.585205	-0.348145	7.319496	24.653018	123.340668
04727		-4.071441	1.212541	8.837668	-0.029828	0.157777	-0.034518	-0.406494	-0.584961	-0.347412	7.300395	24.744157	123.334347
04728		-4.071493	1.213719	8.812864	-0.036877	0.169525	-0.040041	-0.410889	-0.582275	-0.355225	7.277260	24.839880	123.325868
04729		-4.128561	1.295131	8.863956	-0.040993	0.179517	-0.042318	-0.406006	-0.582520	-0.347168	7.250419	24.943859	123.316319
04730		-4.158576	1.326182	8.761018	-0.050780	0.192176	-0.053222	-0.404297	-0.586182	-0.356445	7.216510	25.053400	123.301260
04731		-4.208597	1.146050	8.803265	-0.064105	0.184618	-0.056029	-0.408447	-0.577148	-0.346680	7.172897	25.161181	123.283372
04732		-4.307714	0.960649	8.868500	-0.060586	0.191454	-0.053101	-0.408203	-0.583984	-0.354980	7.133242	25.270284	123.268135
04733		-4.264097	0.978935	8.918657	-0.051845	0.193616	-0.049990	-0.404297	-0.586670	-0.351318	7.098457	25.382670	123.254563
04734		-4.283764	0.949797	8.902175	-0.042064	0.195684	-0.052196	-0.404297	-0.578613	-0.356934	7.069674	25.494097	123.240054
04735		-4.268313	1.001155	8.874601	-0.036038	0.204295	-0.051389	-0.400391	-0.588379	-0.354248	7.043822	25.612578	123.226282
04736		-4.110830	1.256049	8.833557	-0.036543	0.215877	-0.061012	-0.397949	-0.584717	-0.348633	7.016356	25.736094	123.207636
04737		-3.982997	1.405428	8.867159	-0.045321	0.242010	-0.078418	-0.403564	-0.587402	-0.361328	6.978929	25.877829	123.179558
04738		-4.060202	1.346844	8.862712	-0.056745	0.280950	-0.099783	-0.398193	-0.586182	-0.350586	6.931169	26.041023	123.141184
04739		-4.127384	1.214002	8.975648	-0.055143	0.313272	-0.127686	-0.397461	-0.579590	-0.360352	6.876533	26.226559	123.087041
04740		-4.153152	1.155802	9.017733	-0.055272	0.354091	-0.138046	-0.393311	-0.583740	-0.355469	6.820890	26.433910	123.029496
04741		-4.246833	0.970313	9.127137	-0.039259	0.394245	-0.165391	-0.383057	-0.583252	-0.364990	6.766791	26.667894	122.956923
04742		-4.101220	0.850202	9.232012	0.009656	0.451588	-0.190540	-0.385010	-0.584961	-0.363037	6.735871	26.934168	122.872641
04743		-4.008480	0.935144	9.362810	0.040651	0.530786	-0.209412	-0.385498	-0.592285	-0.352783	6.718522	27.248636	122.781566
04744		-4.088775	0.489250	9.336320	0.064695	0.633672	-0.185822	-0.382324	-0.585693	-0.361572	6.725751	27.618164	122.713438
04745		-4.030456	0.541098	9.501361	0.125983	0.747287	-0.176245	-0.375000	-0.585449	-0.363525	6.773663	28.053505	122.659690
04746		-3.948447	0.631829	9.504454	0.183034	0.881478	-0.177053	-0.368164	-0.592285	-0.362793	6.859606	28.563515	122.616509
04747		-3.728066	0.284463	9.969590	0.243141	1.062663	-0.155618	-0.363770	-0.592041	-0.357666	6.992722	29.176824	122.602006
04748		-3.638775	0.639754	10.129630	0.308765	1.294115	-0.131316	-0.356201	-0.592285	-0.367188	7.182277	29.918392	122.624503
04749		-3.507932	0.561988	10.408386	0.343050	1.567713	-0.116848	-0.343262	-0.599854	-0.367920	7.408899	30.815791	122.682428
04750		-3.561051	0.587128	10.502522	0.386658	1.882138	-0.096125	-0.336182	-0.596924	-0.355713	7.686688	31.888522	122.787546
04751		-3.306221	0.766252	10.598471	0.437285	2.211112	-0.088426	-0.327637	-0.597168	-0.363037	8.017777	33.148117	122.935927
04752		-3.234837	0.594895	10.676997	0.455521	2.590683	-0.090626	-0.302979	-0.599609	-0.358398	8.389872	34.621113	123.132383
04753		-2.962837	0.874622	10.592714	0.469992	3.012850	-0.109065	-0.290771	-0.601807	-0.364502	8.801298	36.334656	123.375921
04754		-2.563008	0.845270	10.734820	0.385997	3.493674	-0.179027	-0.278320	-0.605713	-0.351563	9.187443	38.324196	123.645362
04755		-2.773019	0.270293	10.603403	0.278149	4.033989	-0.260325	-0.251953	-0.611328	-0.356445	9.537736	40.625937	123.944373
04756		-2.551276	1.162083	11.030386	0.112353	4.645408	-0.400586	-0.221436	-0.604492	-0.355469	9.804600	43.284655	124.244836
04757		-3.132684	1.899626	11.186080	-0.096125	5.282303	-0.568372	-0.190674	-0.614502	-0.353271	9.949114	46.318701	124.526879
04758		-5.099577	3.753705	11.430258	-0.182860	5.852353	-0.659863	-0.155273	-0.614990	-0.351807	10.082993	49.682855	124.845829
04759		-7.125926	7.907046	10.693103	-0.175895	6.204948	-0.784915	-0.117188	-0.612305	-0.332031	10.216283	53.257669	125.143730
04760		-9.856998	3.300408	11.294282	0.025938	6.466824	-1.087076	-0.083008	-0.599609	-0.321289	10.303948	57.010908	125.230520
04761		-14.592944	4.257673	13.558971	0.384949	6.445452	-1.266781	-0.043457	-0.610840	-0.311768	10.448183	60.769850	125.139901
04762		-17.973769	5.949726	13.932101	0.349618	6.111355	-1.558435	-0.011963	-0.605713	-0.294189	10.169535	64.371029	124.598718
04763		-18.346846	4.983769	13.770829	0.371114	5.762137	-1.831757	0.017578	-0.603271	-0.271484	9.315575	67.797916	123.430874
04764		-15.551417	5.660251	14.598552	0.537890	5.251999	-2.037309	0.057861	-0.602051	-0.246582	7.751603	70.943854	121.429485
04765		-10.003795	6.230037	13.388161	0.608684	4.852752	-2.235290	0.073486	-0.597168	-0.230469	5.077750	73.845850	118.257714
04766		-3.844058	5.341570	11.405614	0.633227	4.488750	-2.387972	0.096924	-0.601807	-0.211426	0.789404	76.483322	113.445939
04767		2.193976	4.503094	8.264314	0.679384	4.319026	-2.463516	0.131592	-0.605469	-0.195801	-5.759536	78.893502	106.344522
04768		0.444732	-1.717556	5.579372	0.835065	4.550078	-2.811787	0.149414	-0.593506	-0.165527	-17.197605	81.137665	94.246707
04769		-15.750705	0.817632	14.793187	1.204537	3.779691	-2.750439	0.167725	-0.585449	-0.142578	-32.761112	82.444615	77.826094
04770		-14.580004	6.419149	16.833182	1.637062	1.732098	-2.453615	0.181396	-0.586914	-0.131592	-44.674444	82.338459	64.859987
04771		-11.747279	9.137836	15.589850	1.344129	-0.089121	-2.065243	0.173584	-0.587646	-0.124268	-49.249162	81.436102	59.459126
04772		-7.311821	9.809461	12.880143	0.554953	-1.529721	-1.558852	0.168701	-0.585449	-0.126221	-48.455147	80.187118	59.939753
04773		-4.275148	8.974160	10.148361	-0.220654	-2.481953	-1.144359	0.166504	-0.584229	-0.131348	-45.352755	78.734482	63.221024
04774		-2.179538	6.825336	8.161640	-0.779327	-2.998777	-0.831214	0.162598	-0.575195	-0.139648	-41.841906	77.160690	67.265591
04775		-0.330667	4.683361	6.174397	-1.068573	-3.228615	-0.513936	0.143799	-0.569092	-0.152588	-38.423111	75.552544	71.410073
04776		0.922131	3.074464	4.623758	-1.100189	-3.259130	-0.227946	0.142090	-0.566895	-0.165527	-35.304970	73.978697	75.293084
04777		1.024455	1.780336	3.985481	-0.916266	-3.204071	0.015989	0.124268	-0.563965	-0.163818	-32.377466	72.453860	78.895264
04778		0.433137	1.004053	3.973518	-0.579699	-3.167730	0.254569	0.118164	-0.566650	-0.177979	-29.492536	70.970335	82.281486
04779		-0.375802	0.961649	4.417905	-0.167138	-3.200868	0.496648	0.103516	-0.564697	-0.190186	-26.465399	69.477874	85.595906
04780		-1.255707	1.392876	5.260346	0.201283	-3.310468	0.745494	0.092285	-0.567871	-0.196777	-23.295429	67.934727	88.872276
04781		-2.475010	1.981863	6.161260	0.476843	-3.519400	1.004810	0.076904	-0.582275	-0.200439	-19.969810	66.264792	92.181260
04782		-3.244210	2.647204	6.455321	0.590226	-3.809616	1.265309	0.055908	-0.594727	-0.217773	-16.628439	64.417321	95.483463
04783		-3.184780	3.217756	6.613282	0.541548	-4.080883	1.492783	0.035400	-0.595459	-0.218994	-13.437029	62.371894	98.700700
04784		-3.014830	2.992042	6.500059	0.413014	-4.266611	1.658370	0.019775	-0.607666	-0.234619	-10.568006	60.175217	101.700013
04785		-2.785850	2.150992	6.159871	0.329561	-4.360855	1.764018	0.002441	-0.615967	-0.240479	-8.028363	57.862694	104.436559
04786		-2.676410	1.202711	6.054404	0.354408	-4.359940	1.829121	-0.017822	-0.633545	-0.242920	-5.778144	55.505467	106.883794
04787		-2.886880	0.531258	6.319102	0.494683	-4.268015	1.854238	-0.049805	-0.645996	-0.252930	-3.723906	53.145760	109.058016
04788		-3.485486	0.286646	6.911970	0.688639	-4.153073	1.847448	-0.088867	-0.659180	-0.256348	-1.823568	50.816955	110.966844
04789		-4.431061	0.469124	7.643957	0.869312	-4.055161	1.822540	-0.104004	-0.668945	-0.262939	-0.040338	48.499588	112.647166
04790		-5.433503	0.639781	8.368557	0.990959	-3.992380	1.805640	-0.131592	-0.686035	-0.265381	1.621280	46.194710	114.131859
04791		-6.055131	0.815843	9.075719	1.043342	-3.925955	1.805077	-0.156738	-0.701416	-0.263672	3.169245	43.892408	115.468578
04792		-6.635163	0.989632	10.116419	1.061354	-3.845583	1.807267	-0.183594	-0.711670	-0.259277	4.599057	41.620509	116.676268
04793		-7.893657	1.055799	11.750989	1.103000	-3.802725	1.778711	-0.208740	-0.722168	-0.250977	5.934523	39.345408	117.753571
04794		-9.760629	1.293061	13.415135	1.170315	-3.903742	1.716394	-0.247559	-0.732666	-0.235596	7.176385	37.007532	118.675033
04795		-10.863688	1.572911	14.171414	1.228377	-4.130339	1.625242	-0.270020	-0.755859	-0.227783	8.321844	34.524954	119.423911
04796		-11.142021	1.825773	14.203882	1.290125	-4.328681	1.516931	-0.304932	-0.764404	-0.222900	9.377163	31.937002	119.997561
04797		-11.740736	2.150696	14.011017	1.389404	-4.414513	1.439722	-0.327148	-0.767578	-0.201416	10.403009	29.291516	120.441215
04798		-12.951355	2.719277	13.784134	1.462681	-4.398054	1.458341	-0.355469	-0.790283	-0.182373	11.426466	26.655297	120.832747
04799		-14.020179	3.301728	13.296850	1.458588	-4.297313	1.567576	-0.370361	-0.792236	-0.155518	12.442593	24.048851	121.245277
04800		-15.109214	3.462031	12.901330	1.368385	-4.137687	1.702192	-0.404053	-0.815918	-0.139404	13.405871	21.516271	121.703718
04801		-16.295032	3.243160	12.336361	1.255121	-3.940045	1.796855	-0.413818	-0.816162	-0.124512	14.299518	19.066835	122.196250
04802		-17.556365	3.083248	11.489983	1.110533	-3.744903	1.837704	-0.426758	-0.828125	-0.100830	15.091295	16.720382	122.696856
04803		-18.678928	3.122291	10.401131	0.898516	-3.567131	1.843340	-0.448486	-0.831055	-0.090088	15.742881	14.459240	123.192512
04804		-18.995092	3.068138	8.758150	0.632590	-3.387492	1.798833	-0.474609	-0.836670	-0.063721	16.216064	12.305694	123.663974
04805		-18.047206	1.946071	7.068633	0.423193	-3.139999	1.717341	-0.479004	-0.849121	-0.057617	16.549705	10.293413	124.111633
04806		-17.106584	-1.120479	5.565615	0.478409	-2.816616	1.704988	-0.496338	-0.845215	-0.054199	16.903549	8.462792	124.591233
04807		-17.009638	-3.728545	4.408241	0.804360	-2.458875	1.740131	-0.510742	-0.835938	-0.034180	17.439943	6.815128	125.134929
04808		-18.360481	-4.745349	3.140980	1.187805	-2.183488	1.662293	-0.521729	-0.848145	-0.025879	18.178076	5.328756	125.664083
04809		-19.064518	-5.743975	1.450707	1.386307	-1.960211	1.426252	-0.537598	-0.843506	-0.009277	19.009242	3.997932	126.083927
04810		-18.829081	-5.601656	-0.458643	1.289561	-1.693252	1.059933	-0.547363	-0.851563	0.005859	19.764865	2.877162	126.337129
04811		-17.702551	-5.436749	-2.020542	0.875032	-1.275418	0.567131	-0.543457	-0.857666	0.005859	20.270881	2.075184	126.394255
04812		-17.490088	-6.243492	-2.457874	0.370614	-0.738536	0.002610	-0.555908	-0.853027	0.019043	20.480064	1.673924	126.250116
04813		-17.350342	-6.726470	-2.235750	0.014517	-0.206541	-0.480828	-0.550537	-0.852295	0.030762	20.481481	1.656851	125.952386
04814		-14.570768	3.976608	1.836995	-1.840315	1.452891	-0.971854	-0.538818	-0.861572	0.017578	19.419704	2.625271	125.714744
04815		5.659321	-7.174103	3.911341	-2.054238	2.077629	-1.553872	-0.535156	-0.845947	-0.001709	18.217673	4.037997	125.257286
04816		-2.162600	1.425968	14.890441	-1.942909	2.021882	-1.512250	-0.522217	-0.845459	-0.010254	17.066948	5.400580	124.783146
04817		4.449417	11.074126	7.751963	-2.056366	2.078205	-1.567255	-0.499756	-0.857910	-0.021973	15.834001	6.795434	124.258309
04818		9.026795	9.337614	3.281531	-2.470334	2.855488	-1.880482	-0.492920	-0.862793	-0.036865	14.336973	8.651636	123.640475
04819		-0.933683	-3.066515	8.487122	-1.941896	3.861764	-1.209983	-0.473389	-0.849609	-0.049805	13.201014	10.963628	123.494002
04820		-15.843923	-5.249136	16.610904	-1.180174	3.862503	-0.428504	-0.466553	-0.853271	-0.057861	12.581194	13.171879	123.756567
04821		-16.261327	-9.487925	17.279004	-0.815151	2.974666	-0.669623	-0.453857	-0.854980	-0.062256	12.113308	14.917351	123.748341
04822		-9.054407	-6.370147	14.255918	-0.296356	2.467999	-0.797549	-0.448242	-0.857910	-0.068604	11.902919	16.391789	123.592222
04823		-8.726105	5.490409	12.400828	-0.117107	2.249904	-0.577908	-0.435059	-0.856934	-0.072754	11.818631	17.720615	123.532619
04824		-9.203270	8.758452	11.114757	-0.327746	1.962055	-0.314187	-0.436523	-0.865234	-0.070557	11.650512	18.854167	123.590367
04825		-7.743758	3.160086	10.196406	-0.552667	1.643622	-0.325046	-0.434814	-0.857422	-0.076416	11.337146	19.813628	123.598180
04826		-7.763567	0.747071	10.685873	-0.625371	1.368380	-0.487443	-0.424316	-0.859863	-0.079102	10.936135	20.633118	123.470192
04827		-8.105827	2.551548	10.064052	-0.632411	0.985369	-0.444400	-0.413086	-0.853027	-0.084229	10.519868	21.234976	123.317275
04828		-6.322715	2.374487	9.378145	-0.698723	0.713483	-0.394823	-0.414795	-0.857910	-0.077881	10.063309	21.673934	123.159337
04829		-4.642190	-0.216746	9.868863	-0.651556	0.546156	-0.337502	-0.410400	-0.845703	-0.091064	9.636787	22.015268	123.014248
04830		-5.303477	-0.681743	10.190063	-0.575035	0.393343	-0.274102	-0.410645	-0.846436	-0.089111	9.261952	22.259725	122.889754
04831		-4.879012	-0.020760	9.955075	-0.488816	0.264553	-0.193829	-0.410889	-0.855469	-0.093018	8.948243	22.426905	122.799615
04832		-4.579714	-0.414090	10.026113	-0.389379	0.189706	-0.131913	-0.414795	-0.840820	-0.095459	8.703779	22.542299	122.739692
04833		-4.511725	0.079438	9.729224	-0.284382	0.142294	-0.081069	-0.406738	-0.848145	-0.096924	8.528282	22.629764	122.705648
04834		-4.233168	0.620645	9.507657	-0.212534	0.108124	-0.047850	-0.406494	-0.852783	-0.103027	8.401656	22.691483	122.689030
04835		-4.039370	0.659912	9.360743	-0.159361	0.094199	-0.027466	-0.411377	-0.848389	-0.101074	8.308531	22.746999	122.683113
04836		-4.074263	0.802067	9.289228	-0.123089	0.089274	-0.012695	-0.405273	-0.851074	-0.109375	8.240748	22.795080	122.686192
04837		-4.064953	1.045369	9.153197	-0.087012	0.079593	0.001271	-0.405762	-0.843750	-0.107422	8.195350	22.839850	122.696508
04838		-4.091673	1.326774	9.000038	-0.078358	0.064948	0.002369	-0.404785	-0.844727	-0.101074	8.155931	22.872913	122.706618
04839		-3.976536	1.368702	8.978021	-0.081164	0.047936	0.000179	-0.403809	-0.833496	-0.104736	8.112557	22.899743	122.713425
04840		-3.919227	1.429288	8.917762	-0.083252	0.037974	0.000013	-0.398926	-0.837158	-0.098877	8.068839	22.917708	122.719674
04841		-3.989098	1.365194	8.945172	-0.091004	0.035434	-0.008027	-0.406250	-0.836182	-0.102051	8.017474	22.938022	122.720316
04842		-3.992289	1.275995	8.952682	-0.092564	0.022121	-0.009878	-0.408691	-0.843750	-0.109863	7.965502	22.947790	122.719066
04843		-3.811031	1.124735	9.018030	-0.086264	0.028253	-0.001884	-0.401855	-0.847900	-0.102539	7.918117	22.963458	122.722858
04844		-3.772476	0.988966	9.074431	-0.079978	0.052422	-0.004133	-0.400635	-0.843994	-0.105225	7.875743	22.989969	122.727723
04845		-3.799902	0.966008	9.051441	-0.059963	0.075820	0.001017	-0.403564	-0.847412	-0.101563	7.845726	23.032314	122.737340
04846		-3.993592	0.936784	9.088989	-0.039885	0.087082	0.005149	-0.406738	-0.841309	-0.102539	7.829713	23.077777	122.750847
04847		-3.897882	0.954853	9.076284	-0.023083	0.096061	0.007511	-0.400635	-0.841553	-0.097168	7.823091	23.131021	122.766171
04848		-4.045783	1.072486	9.065008	-0.003560	0.105072	0.010384	-0.399414	-0.844482	-0.100830	7.829785	23.186291	122.784437
04849		-4.108874	1.000033	9.060758	0.015275	0.094771	0.017256	-0.410889	-0.838379	-0.101563	7.847521	23.237956	122.805697
04850		-4.073608	1.019602	9.000193	0.029249	0.086800	0.017312	-0.404053	-0.837891	-0.107910	7.874138	23.282302	122.826735
04851		-4.077867	1.207748	8.990309	0.040080	0.081179	0.023480	-0.402344	-0.843262	-0.103516	7.907219	23.325678	122.850743
04852		-4.123752	1.225704	8.960270	0.052687	0.075898	0.028351	-0.405762	-0.850830	-0.102295	7.949652	23.362942	122.877736
04853		-4.041049	1.287575	8.851883	0.044758	0.068439	0.026602	-0.406250	-0.843018	-0.098877	7.985833	23.398744	122.902655
04854		-3.892563	1.340127	8.823480	0.033019	0.074315	0.018680	-0.414063	-0.843994	-0.108643	8.014624	23.435850	122.923597
04855		-3.824613	1.352350	8.848896	0.017823	0.090815	0.012223	-0.403809	-0.850830	-0.104248	8.032699	23.485406	122.941636
04856		-3.797082	1.237776	8.870288	0.013588	0.113166	0.003681	-0.403320	-0.846191	-0.094482	8.048059	23.545741	122.956737
04857		-3.948150	1.334784	8.848465	0.013620	0.125366	-0.002297	-0.405518	-0.839600	-0.108398	8.061428	23.615976	122.968871
04858		-3.971217	1.295278	8.885767	0.008697	0.133995	-0.003857	-0.407959	-0.840576	-0.108154	8.072899	23.688728	122.981178
04859		-4.004825	1.279506	8.858639	0.015096	0.140364	-0.009966	-0.396729	-0.836182	-0.100830	8.085812	23.768016	122.989934
04860		-4.045644	1.211596	8.905831	0.014745	0.142834	-0.010379	-0.401123	-0.843018	-0.113037	8.099480	23.846302	122.999027
04861		-4.031467	1.338835	8.831218	0.011828	0.144472	-0.013510	-0.400635	-0.845215	-0.102295	8.109845	23.928142	123.006001
04862		-4.112546	1.340665	8.835940	0.007659	0.142442	-0.017054	-0.409180	-0.849609	-0.103027	8.117797	24.006743	123.010959
04863		-4.126998	1.317533	8.821843	0.003716	0.138675	-0.017900	-0.405273	-0.849609	-0.109619	8.122256	24.085592	123.014735
04864		-4.055748	1.401578	8.779606	0.001182	0.137782	-0.020541	-0.403564	-0.850830	-0.108643	8.125463	24.161832	123.017133
04865		-3.867361	1.469804	8.826276	-0.007852	0.156604	-0.031699	-0.392334	-0.854980	-0.098145	8.120474	24.251914	123.013938
04866		-3.858614	1.548358	8.735030	-0.009800	0.176591	-0.040842	-0.399170	-0.845459	-0.104492	8.113611	24.351809	123.007140
04867		-4.048457	1.306945	8.775369	-0.021013	0.198468	-0.056030	-0.401611	-0.838379	-0.107910	8.096369	24.467534	122.992480
04868		-4.074443	1.250498	8.842022	-0.024527	0.203191	-0.050238	-0.394287	-0.846924	-0.114746	8.079562	24.583273	122.982112
04869		-4.151410	1.264933	8.793010	-0.029047	0.215620	-0.053009	-0.402344	-0.844727	-0.104004	8.059059	24.708423	122.970756
04870		-4.157218	1.166442	8.896279	-0.034063	0.219329	-0.055221	-0.391602	-0.853516	-0.106934	8.035994	24.833710	122.958590
04871		-4.146336	1.195455	8.858667	-0.029341	0.230741	-0.056713	-0.399414	-0.848145	-0.098145	8.014825	24.967678	122.946125
04872		-4.057842	1.302893	8.876505	-0.032947	0.249257	-0.059414	-0.391602	-0.846680	-0.102539	7.992296	25.110271	122.933836
04873		-4.131042	1.292490	8.889275	-0.029704	0.271598	-0.067595	-0.395508	-0.835938	-0.107178	7.969444	25.268225	122.917999
04874		-4.067736	1.382557	8.883896	-0.036745	0.296854	-0.081420	-0.387939	-0.846680	-0.103027	7.940478	25.439563	122.895903
04875		-4.098839	1.410350	8.848017	-0.041746	0.320645	-0.093717	-0.389648	-0.842529	-0.109863	7.905338	25.627341	122.867716
04876		-4.287989	1.364598	8.821724	-0.050087	0.331872	-0.111770	-0.383789	-0.843994	-0.109863	7.861494	25.820913	122.829249
04877		-4.224177	1.323521	8.878015	-0.060919	0.340349	-0.122767	-0.387939	-0.842285	-0.107422	7.807778	26.022054	122.784036
04878		-4.301733	1.237163	8.933787	-0.073595	0.359419	-0.126251	-0.383545	-0.850098	-0.112549	7.747003	26.232322	122.738260
04879		-4.481705	1.146862	8.868737	-0.077368	0.374499	-0.131912	-0.388184	-0.853027	-0.105713	7.682030	26.453419	122.689557
04880		-4.381341	0.917760	8.997810	-0.068686	0.384465	-0.132508	-0.381836	-0.847656	-0.106201	7.622626	26.678297	122.641259
04881		-4.392474	0.795974	9.066451	-0.044366	0.404421	-0.129554	-0.380127	-0.841064	-0.112549	7.577728	26.916079	122.595905
04882		-4.319642	0.670955	9.140545	0.006442	0.454662	-0.130581	-0.383545	-0.852295	-0.122070	7.564013	27.180619	122.554221
04883		-4.282421	0.482910	9.263559	0.083796	0.515191	-0.107117	-0.375244	-0.844482	-0.110352	7.602923	27.479547	122.532327
04884		-4.013447	0.543691	9.340806	0.155863	0.613502	-0.094265	-0.367676	-0.854248	-0.113037	7.691659	27.831567	122.527767
04885		-3.978154	0.688216	9.444775	0.229274	0.729193	-0.085721	-0.372314	-0.843262	-0.104248	7.829344	28.250308	122.539261
04886		-3.805345	0.582763	9.733162	0.252505	0.882798	-0.061915	-0.365967	-0.849854	-0.108643	7.995763	28.752617	122.581580
04887		-3.750046	0.561516	9.886987	0.342505	1.084038	-0.049995	-0.359375	-0.846924	-0.115479	8.227143	29.369560	122.652077
04888		-3.469228	0.617911	10.192111	0.420575	1.321828	-0.041267	-0.350830	-0.855713	-0.116943	8.520851	30.118694	122.755241
04889		-3.457826	0.828673	10.244884	0.480712	1.601935	-0.048106	-0.354004	-0.853760	-0.105225	8.864341	31.027979	122.887340
04890		-3.410593	0.837187	10.287596	0.508562	1.906468	-0.054230	-0.347412	-0.863281	-0.107422	9.245676	32.107964	123.056176
04891		-3.400402	0.435535	10.401985	0.525260	2.251707	-0.040562	-0.337646	-0.860107	-0.107666	9.670488	33.381967	123.283555
04892		-2.911681	1.554106	10.451338	0.534235	2.619203	-0.057882	-0.326416	-0.868652	-0.104736	10.132623	34.862355	123.558907
04893		-3.001059	0.727309	10.679636	0.421232	3.063756	-0.095338	-0.320068	-0.866943	-0.104492	10.564512	36.596320	123.883680
04894		-2.765737	0.995864	10.786986	0.394278	3.556787	-0.147960	-0.303711	-0.862793	-0.097656	11.023764	38.610340	124.263459
04895		-2.787137	1.588869	11.284620	0.251589	4.115225	-0.243778	-0.289063	-0.871338	-0.098633	11.438678	40.947202	124.685213
04896		-2.733378	2.408422	11.358066	0.035101	4.727465	-0.382487	-0.272949	-0.867432	-0.095947	11.762863	43.640865	125.134642
04897		-3.548587	2.806722	11.384214	-0.067350	5.318466	-0.475656	-0.247803	-0.876953	-0.098145	12.092212	46.675194	125.652120
04898		-5.381074	7.056745	11.458653	-0.126276	5.813077	-0.622720	-0.227783	-0.871338	-0.088379	12.427239	50.001922	126.195131
04899		-6.088094	3.811366	10.041839	-0.045944	6.256232	-0.903344	-0.197510	-0.872559	-0.083740	12.755638	53.609174	126.644866
04900		-11.439273	2.375001	12.112468	0.339684	6.530159	-1.053530	-0.176758	-0.866455	-0.085938	13.328308	57.386619	127.101385
04901		-15.879396	4.584582	13.907474	0.616683	6.437929	-1.166760	-0.152588	-0.878418	-0.073975	14.062346	61.124406	127.542563
04902		-19.093979	5.285594	14.004282	0.666780	6.080986	-1.388270	-0.122314	-0.872314	-0.062744	14.631882	64.693148	127.751187
04903		-16.592732	5.591509	14.466231	0.639047	5.679514	-1.691969	-0.097656	-0.872070	-0.044434	14.745813	68.082070	127.474481
04904		-12.354059	6.231799	13.787755	0.506165	5.313970	-1.932976	-0.065430	-0.864990	-0.035156	14.201924	71.303169	126.583933
04905		-6.956944	5.877235	11.944856	0.273409	5.007996	-2.122757	-0.042480	-0.858887	-0.023926	12.696889	74.371801	124.843877
04906		-1.338496	5.013710	9.692902	0.037090	4.780705	-2.236899	-0.002197	-0.844971	-0.004883	9.871498	77.306007	121.907417
04907		3.475121	3.781393	6.236819	-0.067587	4.780601	-2.283101	0.020508	-0.833252	0.010986	5.123941	80.189090	117.106309
04908		1.756252	-2.418581	3.906603	0.125114	5.208405	-2.681252	0.039063	-0.837891	0.028564	-5.349942	83.179931	106.451359
04909		-12.240388	-0.734030	13.381552	0.478352	4.763776	-2.788522	0.074219	-0.827148	0.060303	-28.328453	85.370290	83.087808
04910		-14.548595	1.303440	16.212302	1.141575	3.107684	-2.575301	0.087402	-0.815674	0.071777	-57.254806	85.684833	53.419474
04911		-14.924953	4.589572	16.521017	1.567591	1.188911	-2.301377	0.112305	-0.804199	0.086670	-70.604032	84.793292	39.121776
04912		-11.428208	8.076098	15.047253	1.286884	-0.787666	-1.796710	0.118896	-0.790283	0.097412	-69.137159	83.673289	39.853413
04913		-7.792473	9.108470	12.151504	0.568184	-2.434804	-1.269335	0.136719	-0.784180	0.095215	-60.879238	82.422403	47.841675
04914		-4.683306	8.118532	9.597222	-0.204320	-3.502826	-0.858338	0.137939	-0.781982	0.087646	-51.452053	80.891916	57.485119
04915		-2.276076	6.357268	7.279553	-0.755124	-4.074226	-0.548766	0.146729	-0.762939	0.068359	-43.299456	79.072464	66.199182
04916		-0.928480	4.644370	5.272364	-1.047743	-4.346998	-0.294144	0.152344	-0.752197	0.064697	-36.893345	77.054415	73.357460
04917		0.217199	3.252951	3.973519	-1.127247	-4.427682	-0.075564	0.150635	-0.749756	0.034424	-31.894390	74.929431	79.171157
04918		0.645615	1.570533	3.229543	-0.993285	-4.400207	0.128230	0.158936	-0.750732	0.014648	-27.885637	72.777296	83.934450
04919		0.531298	0.418485	3.105705	-0.648982	-4.327948	0.325497	0.163330	-0.739014	-0.001465	-24.415380	70.626208	87.977080
04920		-0.034603	0.183402	3.522212	-0.190487	-4.272436	0.519233	0.159912	-0.744873	-0.021729	-21.228529	68.482657	91.492279
04921		-1.132202	0.546491	4.305717	0.243898	-4.278701	0.718513	0.149414	-0.751221	-0.035156	-18.151046	66.305089	94.670287
04922		-2.346637	1.550534	5.213389	0.534668	-4.359562	0.921008	0.158936	-0.744629	-0.047852	-15.191132	64.060816	97.591406
04923		-3.182977	2.625635	5.767709	0.606390	-4.504916	1.091258	0.155518	-0.740479	-0.064453	-12.437025	61.694704	100.290911
04924		-3.646670	3.254750	6.206008	0.517261	-4.641261	1.228724	0.139404	-0.750977	-0.086914	-10.000644	59.220236	102.748212
04925		-4.099681	2.876013	6.471069	0.387181	-4.759322	1.349153	0.137695	-0.747070	-0.114746	-7.869597	56.636890	104.996418
04926		-4.254173	2.037268	6.440319	0.345045	-4.828528	1.469404	0.112793	-0.756104	-0.136963	-5.975434	53.988851	107.057005
04927		-4.133699	1.305080	6.633576	0.438969	-4.808994	1.579627	0.105713	-0.755615	-0.165039	-4.210120	51.314577	108.956032
04928		-4.533741	0.965480	7.222379	0.626240	-4.703311	1.659546	0.099609	-0.768555	-0.190674	-2.525705	48.677068	110.683960
04929		-5.435243	0.934729	8.130146	0.851257	-4.594680	1.706357	0.082031	-0.770264	-0.217285	-0.881401	46.064166	112.250379
04930		-6.518350	0.977678	9.039823	1.048716	-4.532340	1.742208	0.059082	-0.782959	-0.243164	0.718199	43.465441	113.665862
04931		-7.314608	0.963259	9.690631	1.180725	-4.479612	1.760563	0.046631	-0.800049	-0.259766	2.255900	40.862578	114.942887
04932		-7.923314	0.861535	10.323269	1.278556	-4.360942	1.786740	0.019531	-0.810547	-0.288574	3.730218	38.310487	116.103943
04933		-9.336361	0.954441	11.712009	1.358612	-4.198204	1.812689	-0.018799	-0.818115	-0.316162	5.157068	35.820711	117.173393
04934		-11.789176	1.332222	13.591591	1.395175	-4.142000	1.828941	-0.052490	-0.843750	-0.333740	6.512589	33.349768	118.149941
04935		-13.738333	1.919383	14.806594	1.345461	-4.274908	1.820336	-0.085449	-0.852539	-0.354004	7.747380	30.778736	119.016858
04936		-14.605577	2.545467	15.131011	1.230301	-4.465524	1.772932	-0.125000	-0.872559	-0.357910	8.814877	28.096940	119.750966
04937		-15.389241	2.630923	15.010296	1.115393	-4.567595	1.763023	-0.180908	-0.885010	-0.373291	9.748546	25.340355	120.398283
04938		-16.599602	2.503188	14.485887	1.016074	-4.556667	1.837410	-0.224609	-0.895996	-0.382324	10.589230	22.581034	121.030554
04939		-17.411329	2.441673	13.392749	0.932233	-4.470457	1.958641	-0.273193	-0.911377	-0.391113	11.366252	19.842539	121.692365
04940		-17.890980	2.395614	11.903860	0.837887	-4.314287	2.092753	-0.323486	-0.903320	-0.381104	12.073776	17.174839	122.403484
04941		-18.203404	2.668877	10.267397	0.693011	-4.063401	2.187637	-0.384766	-0.913818	-0.378174	12.681476	14.622810	123.160435
04942		-16.040649	2.928482	9.385052	0.478172	-3.704562	2.173062	-0.416748	-0.923096	-0.365723	13.134447	12.271936	123.923130
04943		-17.395053	2.602078	5.790074	0.360764	-2.804390	2.043724	-0.449951	-0.907715	-0.371826	13.499258	10.430476	124.710493
04944		-15.836965	-1.514121	6.315454	0.342086	-2.661181	1.893192	-0.497559	-0.907715	-0.348877	13.814117	8.688892	125.416653
04945		-18.450781	-5.687144	6.054339	0.959890	-2.487697	1.897695	-0.524414	-0.911621	-0.335693	14.464929	7.034258	126.131971
04946		-18.085194	-5.289344	4.269642	1.595629	-2.463763	1.803995	-0.553711	-0.918457	-0.312500	15.450119	5.399806	126.772193
04947		-16.407345	-4.875007	2.334773	1.817932	-2.341588	1.577864	-0.573486	-0.923340	-0.297363	16.534713	3.855661	127.275454
04948		-15.405416	-3.724458	0.084264	1.563981	-1.655874	1.210036	-0.593750	-0.926025	-0.284424	17.454744	2.741763	127.663909
04949		-14.449038	-3.477037	-2.606954	0.902743	-0.951974	0.732038	-0.604004	-0.916992	-0.274170	17.983840	2.090509	127.899700
04950		-15.888594	-5.441797	-2.127144	0.358277	-0.112054	0.257010	-0.609375	-0.929688	-0.268799	18.195006	1.979769	128.021844
04951		-15.730536	-6.438720	-2.613572	0.227211	0.702762	-0.097271	-0.607910	-0.931641	-0.265869	18.329656	2.376912	128.097175
04952		-13.723882	-3.930757	-1.935890	-0.043085	1.509034	-0.517452	-0.607422	-0.933838	-0.271240	18.306139	3.286896	128.089457
04953		-9.206976	-2.392307	-1.114789	-0.522862	2.167182	-0.978339	-0.585693	-0.928223	-0.279541	17.997807	4.640074	127.945321
04954		3.618465	-0.811856	12.752502	-0.682811	2.030739	-1.447012	-0.563232	-0.925049	-0.294434	17.567890	5.997244	127.511398
04955		-0.445515	12.537747	14.360472	-1.434038	2.321165	-1.727644	-0.551025	-0.929199	-0.303467	16.681429	7.558543	126.955187
04956		3.195025	17.791510	8.720276	-2.204992	1.957969	-2.380148	-0.520508	-0.919434	-0.314941	15.273902	9.008520	125.944617
04957		0.663547	2.280401	5.606238	-2.535889	2.376517	-2.335594	-0.504883	-0.919434	-0.336426	13.657377	10.659920	124.977156
04958		-3.866553	-4.655389	10.058341	-1.432218	3.297143	-0.916467	-0.484863	-0.907227	-0.358154	12.822569	12.615274	124.899444
04959		-12.575319	0.944233	14.472086	-1.132233	3.205942	-0.515806	-0.464355	-0.901611	-0.370850	12.202268	14.471269	125.014495
04960		-12.189335	-7.871667	15.877061	-0.956862	2.531969	-0.822274	-0.440674	-0.896240	-0.375244	11.612198	15.984221	124.849479
04961		-6.965730	-4.868391	12.310605	-0.464848	2.216136	-0.752079	-0.424072	-0.902588	-0.383789	11.296581	17.313811	124.674281
04962		-6.928035	3.059084	11.067719	-0.292215	2.117466	-0.601597	-0.417725	-0.897705	-0.379639	11.098305	18.567154	124.569126
04963		-8.488319	5.637757	11.369739	-0.393926	1.893357	-0.385869	-0.400391	-0.891357	-0.390381	10.870431	19.674081	124.560538
04964		-8.515807	2.847761	10.911155	-0.531845	1.588273	-0.360390	-0.397461	-0.885010	-0.395020	10.555806	20.602922	124.527300
04965		-9.535039	1.063069	11.315004	-0.577764	1.211980	-0.389051	-0.384521	-0.884033	-0.391357	10.190380	21.326379	124.428851
04966		-8.279278	1.248330	10.388892	-0.529191	0.750747	-0.282919	-0.390381	-0.874023	-0.399902	9.856263	21.774509	124.340477
04967		-4.177867	0.866947	9.306208	-0.474128	0.540203	-0.202552	-0.379395	-0.876465	-0.395996	9.561247	22.099843	124.275908
04968		-4.890064	0.497219	9.890832	-0.422127	0.486261	-0.176105	-0.372803	-0.876465	-0.401855	9.299961	22.387580	124.220500
04969		-4.552768	0.861083	9.330873	-0.361719	0.372614	-0.142632	-0.374756	-0.874268	-0.403320	9.075043	22.612126	124.172556
04970		-4.512728	0.808615	9.338786	-0.324340	0.310081	-0.114708	-0.368408	-0.878662	-0.406982	8.876297	22.794251	124.135083
04971		-4.487452	1.171163	9.227268	-0.290875	0.224187	-0.098938	-0.360840	-0.877930	-0.411621	8.695875	22.930653	124.098059
04972		-4.342447	1.163311	9.260855	-0.264709	0.181987	-0.086982	-0.364502	-0.868652	-0.407959	8.532608	23.037613	124.064382
04973		-4.357055	0.963539	9.302711	-0.227461	0.138446	-0.077679	-0.364258	-0.871094	-0.411133	8.390074	23.123462	124.031709
04974		-4.042140	1.103183	9.126392	-0.206506	0.125613	-0.071283	-0.363037	-0.866211	-0.413330	8.261618	23.197002	124.001996
04975		-4.155365	0.970611	9.170047	-0.182006	0.118862	-0.057389	-0.355469	-0.871826	-0.415771	8.149095	23.269957	123.979653
04976		-4.234534	0.700966	9.229356	-0.157293	0.103879	-0.038976	-0.357178	-0.866455	-0.420898	8.055770	23.328453	123.967639
04977		-4.144517	1.088281	9.105783	-0.131619	0.088845	-0.025987	-0.363037	-0.860107	-0.413574	7.978575	23.381804	123.961802
04978		-4.075977	1.323366	8.983044	-0.117709	0.080821	-0.025921	-0.357422	-0.867920	-0.419434	7.910253	23.426152	123.955685
04979		-3.962503	1.359369	8.963890	-0.121395	0.082043	-0.033070	-0.361084	-0.857666	-0.412598	7.836874	23.476184	123.944744
04980		-3.998231	1.262464	8.914485	-0.126023	0.090105	-0.043872	-0.357178	-0.861328	-0.420898	7.759610	23.527183	123.928174
04981		-3.999901	1.201889	8.967518	-0.121709	0.092171	-0.047256	-0.360107	-0.861816	-0.420410	7.682815	23.584020	123.909158
04982		-3.929506	1.343823	8.883853	-0.123395	0.098484	-0.054820	-0.362305	-0.862305	-0.420654	7.604523	23.640570	123.886335
04983		-4.026393	1.280925	8.893066	-0.131566	0.105810	-0.062955	-0.356201	-0.857666	-0.417969	7.518524	23.706275	123.858530
04984		-4.069541	1.151610	8.924501	-0.131156	0.103167	-0.062340	-0.349609	-0.864258	-0.418945	7.433933	23.765985	123.831220
04985		-4.044466	1.020163	8.945258	-0.136638	0.109254	-0.057879	-0.352051	-0.858398	-0.425049	7.346268	23.833189	123.806617
04986		-3.970403	0.815335	9.078650	-0.115432	0.124756	-0.050639	-0.356934	-0.857910	-0.424805	7.274180	23.904243	123.788083
04987		-4.287268	0.777209	9.142666	-0.085129	0.132543	-0.033366	-0.355957	-0.862305	-0.411377	7.222800	23.982841	123.780355
04988		-4.220439	0.807604	8.954805	-0.058227	0.128128	-0.029096	-0.347412	-0.867432	-0.408936	7.188943	24.054232	123.775330
04989		-4.151448	1.017454	8.987542	-0.036873	0.129904	-0.020503	-0.350098	-0.859375	-0.418945	7.168298	24.130405	123.775279
04990		-4.142914	0.833556	9.037964	-0.008704	0.141167	-0.014421	-0.343506	-0.861084	-0.420654	7.166941	24.208156	123.780362
04991		-4.145657	0.910398	8.967720	0.020712	0.144083	-0.009175	-0.352051	-0.862549	-0.411865	7.182627	24.291571	123.788471
04992		-4.125227	1.166621	8.908759	0.031027	0.153955	-0.007025	-0.351563	-0.863037	-0.426025	7.206384	24.376059	123.799221
04993		-4.199124	1.028544	8.871934	0.048135	0.155818	-0.011828	-0.352295	-0.858887	-0.425537	7.237532	24.466321	123.806680
04994		-4.195599	1.002756	8.869701	0.047786	0.152773	-0.015294	-0.345947	-0.860107	-0.426025	7.268785	24.550725	123.812281
04995		-4.245822	1.100723	8.830368	0.046219	0.144076	-0.009454	-0.342285	-0.854736	-0.424072	7.299123	24.634130	123.820391
04996		-4.271301	1.004740	8.879204	0.042091	0.148563	-0.014803	-0.342529	-0.860107	-0.424805	7.327158	24.716101	123.826065
04997		-4.328154	1.069706	8.790440	0.050020	0.131939	-0.015425	-0.344238	-0.862061	-0.419189	7.357759	24.793039	123.829555
04998		-4.368355	1.084512	8.829442	0.056328	0.127162	-0.020517	-0.341064	-0.862549	-0.420166	7.391778	24.863265	123.830022
04999		-4.423419	1.150395	8.740962	0.069107	0.115917	-0.028109	-0.341553	-0.856934	-0.425537	7.429467	24.932041	123.824356
05000		-4.282487	1.331282	8.656418	0.055776	0.101959	-0.029410	-0.342773	-0.871582	-0.421631	7.459988	24.988607	123.817282
05001		-4.289242	1.298290	8.674831	0.030014	0.093202	-0.035578	-0.338135	-0.864990	-0.414795	7.472542	25.045050	123.805134
