// General information: 
//  MT Manager version: 2022.2.0 
//  XDA version: 2022.2.0 build 7381 rev 124627 built on 2023-07-19
// Device information: 
//  DeviceId: 00B4C3A0
//  ProductCode: MTW2-3A7G6
//  Firmware Version: 4.6.0
//  Hardware Version: 2.0.0
// Device settings: 
//  Filter Profile: human(46.1)
//  Option Flags: Orientation Smoother Disabled, Position/Velocity Smoother Disabled, Continuous Zero Rotation Update Disabled, AHS Disabled, ICC Disabled
// Coordinate system: ENU
PacketCounter	SampleTimeFine	Acc_X	Acc_Y	Acc_Z	Gyr_X	Gyr_Y	Gyr_Z	Mag_X	Mag_Y	Mag_Z	Roll	Pitch	Yaw
58947		9.692144	-0.548672	-0.908494	0.008739	-0.080289	-0.012170	-0.339844	-0.130371	0.673096	-170.017811	-82.444007	53.729596
58948		9.683674	-0.496271	-1.012495	0.006679	-0.084074	-0.012500	-0.336914	-0.135498	0.683105	-170.124082	-82.395852	53.844267
58949		9.642688	-0.520728	-1.030936	0.006400	-0.082514	-0.014101	-0.332520	-0.136719	0.679443	-170.203298	-82.354442	53.929936
58950		9.595647	-0.491117	-1.044604	0.012229	-0.080828	-0.013431	-0.343750	-0.131104	0.687012	-170.305482	-82.308162	54.043715
58951		9.623052	-0.559782	-1.104318	0.020652	-0.083226	-0.010982	-0.339600	-0.136963	0.682129	-170.361911	-82.266034	54.112504
58952		9.639866	-0.577204	-1.135027	0.032227	-0.068700	-0.009376	-0.335449	-0.135498	0.676758	-170.425215	-82.226181	54.198632
58953		9.628179	-0.584615	-1.192984	0.043439	-0.041461	-0.009099	-0.339844	-0.137451	0.690918	-170.430670	-82.207480	54.228432
58954		9.598782	-0.602347	-1.152823	0.051292	-0.015308	-0.004421	-0.335449	-0.136963	0.680420	-170.424801	-82.197314	54.255775
58955		9.588090	-0.551041	-1.125470	0.062952	-0.011939	-0.003086	-0.335938	-0.134277	0.679199	-170.373440	-82.194714	54.236569
58956		9.601053	-0.572113	-1.125990	0.068182	-0.013621	-0.002569	-0.338379	-0.136230	0.679199	-170.349130	-82.185327	54.255066
58957		9.609848	-0.568081	-1.174757	0.076314	-0.016173	0.003033	-0.336914	-0.126953	0.682129	-170.268182	-82.179716	54.216889
58958		9.649933	-0.543591	-1.165187	0.081030	-0.005222	0.003784	-0.334229	-0.131348	0.681396	-170.204578	-82.174460	54.203155
58959		9.636794	-0.524374	-1.165338	0.080626	0.001019	0.005471	-0.339355	-0.127686	0.675781	-170.098920	-82.178170	54.145807
58960		9.641331	-0.523542	-1.188064	0.086372	0.013866	0.006363	-0.333496	-0.141602	0.685791	-170.008013	-82.183425	54.107602
58961		9.610904	-0.486593	-1.162299	0.088078	0.033429	0.011757	-0.336426	-0.120361	0.685059	-169.848515	-82.204822	53.994999
58962		9.582771	-0.446088	-1.034593	0.095268	0.043638	0.006338	-0.331299	-0.123535	0.683105	-169.730144	-82.226843	53.934224
58963		9.579135	-0.422786	-1.078007	0.104599	0.047843	0.012203	-0.325928	-0.137695	0.682373	-169.546888	-82.256005	53.815390
58964		9.559526	-0.437902	-1.077671	0.097656	0.055426	0.011593	-0.338379	-0.126953	0.677490	-169.394922	-82.284070	53.722099
58965		9.604967	-0.411979	-1.084540	0.091835	0.080907	0.011448	-0.335693	-0.121094	0.679443	-169.194536	-82.331811	53.569412
58966		9.560505	-0.468976	-0.989836	0.092645	0.092518	0.002144	-0.344238	-0.125977	0.682861	-169.052847	-82.381691	53.483613
58967		9.546184	-0.420281	-0.929184	0.096112	0.087200	-0.000801	-0.338135	-0.124512	0.676758	-168.891850	-82.434447	53.380076
58968		9.539936	-0.454517	-0.925274	0.095486	0.079067	-0.002636	-0.331299	-0.126465	0.681885	-168.777060	-82.477239	53.323072
58969		9.519095	-0.411599	-0.943058	0.088004	0.067345	-0.005270	-0.339844	-0.114258	0.683105	-168.654462	-82.519016	53.250233
58970		9.519694	-0.412094	-0.936777	0.090697	0.056893	-0.001973	-0.345459	-0.116211	0.678223	-168.556822	-82.549248	53.207768
58971		9.516441	-0.387706	-0.979578	0.072357	0.054772	-0.004020	-0.334229	-0.127197	0.683350	-168.446193	-82.584038	53.145956
58972		9.590353	-0.369647	-0.957932	0.058285	0.060304	-0.007078	-0.333740	-0.130371	0.688477	-168.385014	-82.616753	53.121539
58973		9.640508	-0.339390	-0.989091	0.042624	0.070118	-0.007052	-0.339844	-0.119629	0.671143	-168.290654	-82.660137	53.043903
58974		9.643708	-0.368425	-1.033302	0.028764	0.090046	-0.006683	-0.343018	-0.117432	0.682373	-168.216636	-82.709481	52.989492
58975		9.660105	-0.357098	-0.994727	0.022323	0.107384	-0.008750	-0.342041	-0.124512	0.679932	-168.104538	-82.774176	52.893893
58976		9.649507	-0.392151	-0.964383	0.020025	0.114693	-0.007317	-0.342041	-0.123779	0.687500	-168.012946	-82.837388	52.816737
58977		9.680375	-0.374519	-0.994395	0.016255	0.143981	-0.007343	-0.335205	-0.117676	0.673340	-167.859129	-82.922336	52.668231
58978		9.636971	-0.402110	-0.966357	0.010900	0.155159	-0.003020	-0.345215	-0.125000	0.684814	-167.709309	-83.007640	52.527164
58979		9.590784	-0.400388	-0.886324	0.008830	0.146597	-0.005004	-0.339844	-0.118164	0.675537	-167.539607	-83.093493	52.361213
58980		9.586660	-0.406828	-0.949305	0.005856	0.139303	-0.002271	-0.345947	-0.123779	0.679443	-167.398233	-83.169739	52.225792
58981		9.588963	-0.467490	-1.014836	0.007895	0.165520	-0.003325	-0.352295	-0.125244	0.672363	-167.192998	-83.265868	52.024065
58982		9.582870	-0.439680	-0.921671	-0.002237	0.196218	-0.007338	-0.348877	-0.123779	0.674316	-167.010269	-83.374444	51.842391
58983		9.528485	-0.414804	-0.863038	-0.006946	0.185270	-0.008076	-0.353271	-0.121582	0.674561	-166.801969	-83.482274	51.627926
58984		9.528097	-0.445294	-0.875175	-0.019608	0.152798	-0.010003	-0.346924	-0.123047	0.676758	-166.680799	-83.566850	51.498264
58985		9.537352	-0.466858	-0.837219	-0.047572	0.126976	-0.007241	-0.349365	-0.123047	0.675781	-166.550114	-83.641783	51.338953
58986		9.573216	-0.441803	-0.791594	-0.056215	0.108483	-0.010118	-0.360107	-0.119629	0.666992	-166.497937	-83.701628	51.257640
58987		9.539254	-0.464225	-0.816758	-0.065618	0.096107	-0.008212	-0.353027	-0.120850	0.665039	-166.414994	-83.759537	51.138653
58988		9.494879	-0.490692	-0.796686	-0.079554	0.063262	-0.011915	-0.351563	-0.120117	0.673584	-166.438820	-83.794421	51.120359
58989		9.525641	-0.471621	-0.834022	-0.085021	0.044068	-0.012836	-0.351318	-0.123291	0.669922	-166.453919	-83.823786	51.089944
58990		9.533981	-0.492422	-0.805545	-0.087931	0.043226	-0.013211	-0.358154	-0.123291	0.671631	-166.514220	-83.847684	51.103512
58991		9.554348	-0.477733	-0.796116	-0.089728	0.047444	-0.008582	-0.353027	-0.124268	0.677979	-166.505514	-83.878407	51.044630
58992		9.554784	-0.476072	-0.791869	-0.095209	0.050677	-0.010817	-0.350586	-0.129639	0.673340	-166.548514	-83.906136	51.036603
58993		9.558786	-0.503498	-0.839581	-0.100943	0.052144	-0.006707	-0.349609	-0.133057	0.677979	-166.530243	-83.939071	50.957797
58994		9.607032	-0.498852	-0.799007	-0.101890	0.056727	-0.009975	-0.349121	-0.120850	0.666260	-166.565038	-83.970059	50.937670
58995		9.612740	-0.494977	-0.817956	-0.106339	0.053765	-0.005782	-0.356445	-0.125000	0.669678	-166.542517	-84.003635	50.852984
58996		9.597465	-0.500475	-0.742357	-0.116263	0.049257	-0.005492	-0.356201	-0.129639	0.669922	-166.571045	-84.029864	50.818278
58997		9.597844	-0.499022	-0.738431	-0.106502	0.044157	-0.007598	-0.355469	-0.124268	0.672363	-166.569210	-84.058532	50.756540
58998		9.554622	-0.494617	-0.694413	-0.099729	0.031727	-0.006989	-0.363281	-0.128906	0.666992	-166.618569	-84.075191	50.752305
58999		9.569482	-0.482712	-0.663114	-0.085505	0.016715	-0.008705	-0.351318	-0.124512	0.676025	-166.645294	-84.088766	50.733276
59000		9.582687	-0.501923	-0.661751	-0.073336	0.002677	-0.009056	-0.354980	-0.131836	0.667236	-166.727924	-84.089502	50.777693
59001		9.619486	-0.536962	-0.707634	-0.065636	0.003320	-0.008095	-0.361572	-0.126953	0.676270	-166.757675	-84.095280	50.771181
59002		9.597078	-0.523436	-0.761391	-0.059744	0.008150	-0.002474	-0.355957	-0.129883	0.663574	-166.790142	-84.098198	50.772996
59003		9.575093	-0.476024	-0.685028	-0.063182	0.019962	-0.002686	-0.354492	-0.132324	0.670166	-166.767590	-84.112726	50.716975
59004		9.577975	-0.447586	-0.755157	-0.053350	0.022762	0.001790	-0.356689	-0.135986	0.660645	-166.754695	-84.123235	50.676871
59005		9.636382	-0.439628	-0.764179	-0.052417	0.031073	0.000460	-0.361328	-0.133789	0.666260	-166.694683	-84.143426	50.585798
59006		9.627574	-0.413069	-0.685087	-0.051303	0.034695	-0.004141	-0.357178	-0.135986	0.673340	-166.697191	-84.161366	50.562359
59007		9.598282	-0.486823	-0.621427	-0.045386	0.025208	-0.003591	-0.356201	-0.137451	0.668457	-166.661641	-84.178902	50.499172
59008		9.585313	-0.465644	-0.620596	-0.031760	0.011587	-0.003757	-0.354492	-0.143799	0.668945	-166.680609	-84.183907	50.503533
59009		9.605285	-0.452057	-0.614256	-0.021983	0.001715	-0.007533	-0.360840	-0.130371	0.666748	-166.683804	-84.188731	50.488049
59010		9.585408	-0.464290	-0.620144	-0.015226	-0.001190	-0.003539	-0.360107	-0.135254	0.666748	-166.708683	-84.186583	50.507874
59011		9.572303	-0.443099	-0.621329	-0.008192	-0.007055	-0.007580	-0.352295	-0.129150	0.666260	-166.715432	-84.186654	50.512353
59012		9.588217	-0.434701	-0.692892	-0.003062	-0.002329	-0.008442	-0.360840	-0.130371	0.672607	-166.761637	-84.184513	50.560620
59013		9.538159	-0.410881	-0.776880	-0.002734	0.007375	-0.008204	-0.357910	-0.135498	0.665527	-166.750438	-84.192553	50.551440
59014		9.571306	-0.417492	-0.769208	-0.001281	0.015934	-0.014256	-0.354248	-0.135010	0.673828	-166.804057	-84.201357	50.608185
59015		9.574001	-0.441673	-0.719391	0.004453	0.019268	-0.016672	-0.358887	-0.131592	0.666260	-166.819958	-84.217125	50.625364
59016		9.621803	-0.437395	-0.681449	0.016269	0.017967	-0.018416	-0.351074	-0.137451	0.670654	-166.884209	-84.227598	50.702899
59017		9.621987	-0.435949	-0.679774	0.023027	0.015065	-0.014421	-0.358643	-0.134766	0.673584	-166.882981	-84.240666	50.714344
59018		9.594415	-0.424719	-0.709015	0.020725	0.004689	-0.010113	-0.360107	-0.137451	0.675537	-166.916175	-84.242645	50.763227
59019		9.584213	-0.375060	-0.780979	0.007373	0.007208	-0.011746	-0.350342	-0.128906	0.661865	-166.918623	-84.251124	50.766460
59020		9.591042	-0.340700	-0.775451	-0.004524	0.002013	-0.006939	-0.356445	-0.138672	0.669189	-166.952223	-84.251195	50.801211
59021		9.618799	-0.350169	-0.744658	-0.022856	0.009422	-0.005898	-0.358643	-0.135254	0.675049	-166.937983	-84.259910	50.774392
59022		9.644159	-0.333945	-0.760902	-0.037354	0.025989	-0.005794	-0.355469	-0.130615	0.668213	-166.953213	-84.273215	50.771775
59023		9.638054	-0.279000	-0.753425	-0.045001	0.041383	-0.006453	-0.353271	-0.133301	0.667480	-166.912765	-84.299941	50.705311
59024		9.651538	-0.298612	-0.748512	-0.045272	0.047714	-0.006364	-0.357178	-0.128906	0.666016	-166.907318	-84.325442	50.677355
59025		9.621333	-0.315659	-0.702547	-0.048610	0.048346	-0.006782	-0.347412	-0.131592	0.673828	-166.861581	-84.355977	50.606984
59026		9.643933	-0.327357	-0.644533	-0.045242	0.038183	-0.009775	-0.348877	-0.134277	0.676514	-166.887551	-84.376603	50.610618
59027		9.618941	-0.341539	-0.623755	-0.043501	0.027512	-0.011383	-0.361572	-0.134521	0.669922	-166.892206	-84.395859	50.588260
59028		9.587167	-0.389307	-0.608893	-0.049413	0.024088	-0.007406	-0.356934	-0.126953	0.676758	-166.925891	-84.408311	50.597243
59029		9.617952	-0.370009	-0.648541	-0.058117	0.016783	-0.010282	-0.360596	-0.134277	0.668457	-166.946314	-84.421783	50.587386
59030		9.579707	-0.363636	-0.630207	-0.062654	0.015430	-0.009295	-0.356934	-0.136719	0.666748	-167.010034	-84.429644	50.618925
59031		9.630344	-0.331256	-0.664171	-0.065402	0.019439	-0.009567	-0.359863	-0.136719	0.669189	-167.027339	-84.444478	50.599627
59032		9.631834	-0.299322	-0.633224	-0.068091	0.026563	-0.004953	-0.364990	-0.128174	0.667236	-167.054724	-84.457995	50.591528
59033		9.641044	-0.290698	-0.577974	-0.069939	0.018090	-0.008594	-0.355957	-0.133789	0.663086	-167.070896	-84.472032	50.572562
59034		9.626718	-0.299783	-0.606215	-0.072769	0.015594	-0.005818	-0.359619	-0.138184	0.665039	-167.120564	-84.479535	50.584158
59035		9.587123	-0.324288	-0.617274	-0.083177	0.009439	-0.010519	-0.363770	-0.133057	0.671875	-167.167528	-84.488819	50.586120
59036		9.594944	-0.346124	-0.592523	-0.083945	0.005978	-0.009107	-0.360352	-0.134277	0.666748	-167.255479	-84.491363	50.629743
59037		9.582889	-0.380982	-0.574300	-0.087188	0.000195	-0.008072	-0.363037	-0.141846	0.670898	-167.302537	-84.495290	50.631826
59038		9.567194	-0.420539	-0.633551	-0.086503	-0.002844	-0.006466	-0.370605	-0.134033	0.660645	-167.388217	-84.492561	50.671695
59039		9.548631	-0.401554	-0.611303	-0.083577	-0.006756	-0.007798	-0.358887	-0.137207	0.666016	-167.440220	-84.492704	50.679367
59040		9.541922	-0.433740	-0.617977	-0.080829	-0.010759	-0.007553	-0.360596	-0.144775	0.673828	-167.539023	-84.485673	50.735687
59041		9.560421	-0.450256	-0.642868	-0.078237	-0.019614	-0.007454	-0.354736	-0.131836	0.663086	-167.602544	-84.478346	50.753772
59042		9.568079	-0.472249	-0.621259	-0.065785	-0.027040	-0.012454	-0.355713	-0.138184	0.670410	-167.741219	-84.462784	50.858811
59043		9.586518	-0.488366	-0.647325	-0.054140	-0.028418	-0.012590	-0.358643	-0.149170	0.665771	-167.832206	-84.450959	50.925244
59044		9.571929	-0.497008	-0.679942	-0.038920	-0.027242	-0.008986	-0.358643	-0.147217	0.671631	-167.934653	-84.434830	51.009355
59045		9.553241	-0.478133	-0.659707	-0.023150	-0.030540	-0.011844	-0.364258	-0.140869	0.665283	-168.003932	-84.421859	51.059720
59046		9.611328	-0.468835	-0.673617	-0.010915	-0.028543	-0.011811	-0.357178	-0.150146	0.667969	-168.107165	-84.405311	51.160746
59047		9.598011	-0.447124	-0.676953	-0.005691	-0.030229	-0.011183	-0.366699	-0.138184	0.674805	-168.161760	-84.392463	51.210469
59048		9.583343	-0.455930	-0.709911	-0.001899	-0.037092	-0.012487	-0.357666	-0.142334	0.668457	-168.272799	-84.371171	51.324535
59049		9.637166	-0.506322	-0.682534	0.007449	-0.040695	-0.014589	-0.358887	-0.139648	0.669678	-168.350887	-84.352865	51.409883
59050		9.617105	-0.517987	-0.692493	0.015406	-0.041629	-0.011989	-0.358154	-0.141113	0.659668	-168.452948	-84.328934	51.524898
59051		9.615669	-0.460215	-0.714999	0.012149	-0.042662	-0.009233	-0.358643	-0.135986	0.675049	-168.499761	-84.308747	51.582714
59052		9.608718	-0.493063	-0.724791	0.020798	-0.046642	-0.005030	-0.358643	-0.144287	0.672607	-168.563857	-84.281182	51.662689
59053		9.666762	-0.397535	-0.729164	0.023491	-0.036377	0.000404	-0.354980	-0.144775	0.671387	-168.541835	-84.263456	51.655678
59054		9.663924	-0.371561	-0.779942	0.025512	-0.027822	0.002497	-0.358398	-0.145752	0.669678	-168.539322	-84.245601	51.671429
59055		9.663742	-0.371924	-0.782014	0.024109	-0.016972	0.001010	-0.353516	-0.138184	0.670166	-168.491630	-84.238643	51.634063
59056		9.606848	-0.349492	-0.742763	0.014158	-0.008566	-0.003237	-0.357910	-0.139160	0.663086	-168.505801	-84.232256	51.660045
59057		9.619992	-0.369928	-0.742895	0.016026	-0.004862	-0.001296	-0.352783	-0.140381	0.672363	-168.462959	-84.232283	51.630283
59058		9.608059	-0.405857	-0.724703	0.010782	0.005000	-0.008109	-0.352295	-0.141357	0.674316	-168.490787	-84.234071	51.668048
59059		9.608131	-0.405302	-0.724048	0.009569	0.007764	-0.004983	-0.355957	-0.146729	0.666748	-168.457466	-84.241534	51.639219
59060		9.590988	-0.443858	-0.681333	0.007597	0.010481	-0.008368	-0.356934	-0.131348	0.666016	-168.482400	-84.246429	51.672239
59061		9.564685	-0.402014	-0.681632	0.006855	0.002255	-0.008684	-0.358154	-0.145508	0.667236	-168.477852	-84.251293	51.675089
59062		9.621533	-0.423834	-0.721923	0.012341	-0.000997	-0.006469	-0.348633	-0.140625	0.668457	-168.502567	-84.249526	51.710621
59063		9.629585	-0.359082	-0.687241	0.014315	-0.000293	-0.011009	-0.355713	-0.145752	0.672119	-168.509334	-84.253139	51.723774
59064		9.609781	-0.371116	-0.693073	0.008308	0.002678	-0.008489	-0.355225	-0.138184	0.673096	-168.543473	-84.253663	51.766454
59065		9.629679	-0.357311	-0.686838	0.000782	0.002130	-0.011066	-0.363770	-0.136475	0.668457	-168.555420	-84.258712	51.777170
59066		9.635055	-0.353387	-0.709851	-0.010125	0.011726	-0.010597	-0.360840	-0.137451	0.681641	-168.601751	-84.264552	51.821489
59067		9.621994	-0.331755	-0.708955	-0.011859	0.017629	-0.010660	-0.354492	-0.128418	0.674316	-168.601398	-84.278441	51.818451
59068		9.622151	-0.330884	-0.707219	-0.011361	0.019248	-0.005744	-0.357422	-0.133789	0.672119	-168.612903	-84.287954	51.827055
59069		9.569417	-0.335500	-0.718006	-0.013834	0.016925	-0.006123	-0.354736	-0.136963	0.661377	-168.590245	-84.300698	51.805939
59070		9.590676	-0.378758	-0.691702	-0.011362	0.019249	-0.005745	-0.359863	-0.134521	0.664551	-168.601769	-84.310213	51.814562
59071		9.643720	-0.372666	-0.677308	-0.006480	0.020802	-0.009890	-0.362549	-0.138428	0.665527	-168.591644	-84.325547	51.807733
59072		9.616163	-0.361275	-0.705533	-0.004767	0.019656	-0.008099	-0.362549	-0.147461	0.665039	-168.612284	-84.335557	51.829314
59073		9.615022	-0.391002	-0.732990	0.001068	0.016595	-0.009037	-0.357178	-0.133789	0.660400	-168.596582	-84.348587	51.813942
59074		9.668057	-0.384752	-0.718782	-0.008952	0.018479	-0.010273	-0.357422	-0.133057	0.674805	-168.633426	-84.358181	51.849396
59075		9.631138	-0.435956	-0.681265	-0.006396	0.019139	-0.006720	-0.363525	-0.130127	0.671875	-168.607284	-84.372191	51.827579
59076		9.656482	-0.419469	-0.696643	-0.009000	0.027994	-0.006817	-0.353027	-0.144531	0.674561	-168.613648	-84.386739	51.832377
59077		9.610478	-0.390608	-0.700598	-0.003297	0.036113	-0.007469	-0.355957	-0.144775	0.660889	-168.569408	-84.410406	51.789258
59078		9.597568	-0.369484	-0.697174	0.001620	0.045520	-0.004981	-0.354980	-0.138672	0.671631	-168.538615	-84.434587	51.762835
59079		9.620219	-0.382282	-0.638985	0.008651	0.044455	-0.007313	-0.352783	-0.134277	0.660645	-168.476185	-84.462787	51.704125
59080		9.606088	-0.391620	-0.664447	0.019022	0.042762	-0.009228	-0.359131	-0.139648	0.671143	-168.462714	-84.485902	51.705125
59081		9.639398	-0.398651	-0.654125	0.024615	0.033092	-0.005557	-0.358398	-0.142334	0.669434	-168.394201	-84.507498	51.654117
59082		9.601197	-0.393526	-0.634199	0.023881	0.024865	-0.005872	-0.362793	-0.138672	0.667236	-168.379483	-84.520182	51.656661
59083		9.606728	-0.390423	-0.655838	0.018260	0.015081	-0.002047	-0.358887	-0.139648	0.669922	-168.314448	-84.531377	51.602005
59084		9.617595	-0.384756	-0.701887	0.014851	0.009192	0.000564	-0.359619	-0.138184	0.672119	-168.286014	-84.534521	51.585572
59085		9.605678	-0.333882	-0.671369	0.011931	0.029136	0.002308	-0.358887	-0.139160	0.666260	-168.181656	-84.553035	51.488417
59086		9.625671	-0.321447	-0.662249	0.015065	0.033175	0.006027	-0.360352	-0.132080	0.670898	-168.091076	-84.568978	51.409681
59087		9.610265	-0.275346	-0.707234	0.015826	0.036646	0.004609	-0.363037	-0.133301	0.665771	-167.960762	-84.591368	51.291880
59088		9.651347	-0.306656	-0.672604	0.003665	0.041149	0.001535	-0.354004	-0.142822	0.669189	-167.892020	-84.612289	51.228523
59089		9.580185	-0.294488	-0.657968	0.002945	0.048955	0.001638	-0.361084	-0.140625	0.667236	-167.769121	-84.641838	51.107881
59090		9.561918	-0.363974	-0.640932	-0.007525	0.044456	-0.006265	-0.361816	-0.139160	0.677979	-167.747893	-84.665542	51.085813
59091		9.556755	-0.366205	-0.613315	-0.002883	0.039402	-0.005789	-0.359131	-0.137939	0.666748	-167.683218	-84.690696	51.018246
59092		9.564764	-0.388748	-0.585725	-0.003077	0.031452	-0.010832	-0.358154	-0.129150	0.669434	-167.703634	-84.707676	51.040562
59093		9.583651	-0.405307	-0.606313	0.000579	0.019736	-0.012257	-0.360107	-0.138916	0.660889	-167.702835	-84.722490	51.045185
59094		9.603568	-0.391306	-0.598684	0.004459	0.011211	-0.010360	-0.356445	-0.133301	0.678223	-167.742985	-84.728079	51.091653
59095		9.615693	-0.353991	-0.615715	0.006525	0.010253	-0.011718	-0.355957	-0.138184	0.659424	-167.747829	-84.737505	51.102489
59096		9.603617	-0.301960	-0.586273	0.008487	0.007539	-0.008320	-0.363281	-0.139404	0.667236	-167.778272	-84.740787	51.141525
59097		9.603679	-0.301437	-0.585537	0.007947	0.007260	-0.003585	-0.360840	-0.135742	0.675293	-167.736793	-84.747546	51.104891
59098		9.626848	-0.346559	-0.660817	0.014223	0.002724	-0.004479	-0.356934	-0.138672	0.668213	-167.746976	-84.747666	51.126882
59099		9.640151	-0.366534	-0.659511	0.009069	0.010917	-0.008159	-0.358643	-0.141602	0.664795	-167.727798	-84.757038	51.113556
59100		9.635810	-0.337998	-0.605863	0.015345	0.006382	-0.009053	-0.357422	-0.136963	0.665771	-167.760450	-84.759762	51.158756
59101		9.622806	-0.403924	-0.616639	0.028257	-0.002502	-0.013996	-0.363525	-0.137939	0.666992	-167.783925	-84.762268	51.197787
59102		9.621594	-0.345951	-0.635711	0.034533	-0.007036	-0.014891	-0.361328	-0.137451	0.668945	-167.858974	-84.758177	51.296602
59103		9.587557	-0.367706	-0.672111	0.036345	-0.006424	-0.017849	-0.349609	-0.136719	0.668701	-167.906428	-84.759048	51.366070
59104		9.593071	-0.363398	-0.696006	0.040009	-0.002101	-0.018869	-0.357910	-0.129883	0.673096	-167.996070	-84.758178	51.482689
59105		9.628192	-0.308339	-0.631105	0.045712	-0.002146	-0.013310	-0.360352	-0.134033	0.668945	-168.005866	-84.760686	51.521580
59106		9.614966	-0.286823	-0.631801	0.042373	-0.001522	-0.013736	-0.360596	-0.134521	0.671631	-168.062055	-84.759515	51.605966
59107		9.681003	-0.301156	-0.618463	0.032583	-0.004629	-0.005468	-0.358398	-0.141602	0.672607	-168.034359	-84.759849	51.599485
59108		9.657883	-0.318590	-0.701977	0.027868	-0.006091	-0.002913	-0.359619	-0.134033	0.669189	-168.038610	-84.754831	51.623370
59109		9.646901	-0.324232	-0.655245	0.040609	-0.007194	0.000332	-0.355469	-0.141846	0.665283	-167.973943	-84.752997	51.580165
59110		9.712893	-0.339349	-0.642265	0.045939	-0.007116	-0.003785	-0.358398	-0.140869	0.668945	-167.974519	-84.747512	51.610757
59111		9.697553	-0.380196	-0.701365	0.046698	-0.003646	-0.005213	-0.359131	-0.130615	0.669922	-167.935530	-84.748255	51.593103
59112		9.666900	-0.398235	-0.659900	0.044622	0.005479	-0.010091	-0.368408	-0.140137	0.668457	-167.958932	-84.750582	51.645859
59113		9.651407	-0.351650	-0.707306	0.047751	0.017409	0.000217	-0.354980	-0.137451	0.664795	-167.859069	-84.762621	51.574032
59114		9.613099	-0.347236	-0.687788	0.045859	0.034497	0.000352	-0.360352	-0.132324	0.672607	-167.779684	-84.779948	51.524280
59115		9.594590	-0.330181	-0.661203	0.045102	0.038909	0.008370	-0.356934	-0.134521	0.670166	-167.601963	-84.802834	51.371453
59116		9.614586	-0.318090	-0.651099	0.049561	0.041935	0.004201	-0.357422	-0.140381	0.666748	-167.485284	-84.823826	51.286389
59117		9.613845	-0.349537	-0.676098	0.048146	0.036744	0.002292	-0.361816	-0.132568	0.674316	-167.343715	-84.846162	51.168159
59118		9.620579	-0.316537	-0.667036	0.042920	0.038415	0.001637	-0.361328	-0.126953	0.668457	-167.249980	-84.865475	51.102316
59119		9.606613	-0.327170	-0.692904	0.033521	0.038890	-0.001196	-0.359863	-0.130615	0.667969	-167.134432	-84.889501	51.008955
59120		9.625698	-0.345122	-0.711558	0.024919	0.045948	-0.000578	-0.366943	-0.127441	0.666016	-167.052711	-84.913284	50.944824
59121		9.659981	-0.321663	-0.671025	0.028947	0.050446	-0.004774	-0.364746	-0.135742	0.666504	-166.944058	-84.944187	50.857308
59122		9.681282	-0.365154	-0.640900	0.021143	0.048048	-0.001042	-0.361572	-0.138916	0.664307	-166.862743	-84.969183	50.791417
59123		9.676955	-0.336790	-0.583421	0.011891	0.053376	-0.003764	-0.357422	-0.139160	0.667725	-166.749864	-85.001523	50.680884
59124		9.655457	-0.323694	-0.632343	0.011638	0.054940	-0.005376	-0.360596	-0.131836	0.664307	-166.689601	-85.030914	50.630664
59125		9.675573	-0.310072	-0.620475	0.002966	0.063648	-0.007961	-0.354004	-0.128174	0.663330	-166.591319	-85.069385	50.530252
59126		9.648638	-0.299271	-0.644643	0.006010	0.069364	-0.007449	-0.362793	-0.123535	0.662598	-166.523661	-85.107078	50.469379
59127		9.624602	-0.283481	-0.591431	0.001431	0.072766	-0.004788	-0.358887	-0.122314	0.664307	-166.390184	-85.150113	50.343555
59128		9.592880	-0.244493	-0.562674	-0.004003	0.071229	-0.008763	-0.366455	-0.126465	0.661133	-166.331383	-85.189003	50.285822
59129		9.592495	-0.274568	-0.585109	-0.013221	0.063631	-0.006944	-0.367188	-0.125244	0.665039	-166.231902	-85.227287	50.187470
59130		9.573920	-0.256091	-0.556792	-0.017216	0.054366	-0.004457	-0.364746	-0.131348	0.675293	-166.177412	-85.256192	50.126471
59131		9.581049	-0.309594	-0.556307	-0.020446	0.048567	-0.003405	-0.361328	-0.128906	0.659180	-166.079559	-85.285670	50.020011
59132		9.581318	-0.309073	-0.551945	-0.020401	0.043798	-0.005102	-0.360840	-0.128174	0.666504	-166.047396	-85.308775	49.979589
59133		9.619527	-0.344011	-0.593008	-0.024423	0.047459	-0.007183	-0.365479	-0.133545	0.674316	-165.978387	-85.337965	49.900002
59134		9.604063	-0.327810	-0.665923	-0.035978	0.058432	-0.005325	-0.355957	-0.136230	0.661621	-165.930600	-85.369229	49.834952
59135		9.664678	-0.344486	-0.621787	-0.043491	0.073908	-0.007652	-0.366699	-0.136719	0.655273	-165.826698	-85.413144	49.701718
59136		9.637998	-0.333347	-0.645159	-0.052536	0.082447	-0.007120	-0.367920	-0.132324	0.658203	-165.756298	-85.457984	49.604474
59137		9.659947	-0.345245	-0.582958	-0.076216	0.084963	-0.003899	-0.371826	-0.138672	0.658936	-165.621172	-85.507539	49.425569
59138		9.666833	-0.310645	-0.569924	-0.097777	0.078636	-0.008616	-0.365234	-0.134277	0.658691	-165.590360	-85.550452	49.342045
59139		9.699660	-0.347161	-0.584440	-0.129398	0.078946	-0.012997	-0.370117	-0.126465	0.661621	-165.556807	-85.597930	49.232858
59140		9.661411	-0.340329	-0.561177	-0.134135	0.074387	-0.015391	-0.372803	-0.132324	0.663330	-165.601841	-85.639449	49.204521
59141		9.673569	-0.332561	-0.601360	-0.133753	0.077694	-0.013695	-0.370850	-0.131104	0.659912	-165.577450	-85.686373	49.110970
59142		9.627400	-0.333146	-0.631523	-0.130857	0.078566	-0.013306	-0.363037	-0.139648	0.656250	-165.596728	-85.729914	49.058690
59143		9.616175	-0.336568	-0.577567	-0.120654	0.073709	-0.018448	-0.363037	-0.143066	0.660156	-165.605951	-85.775123	49.001133
59144		9.623002	-0.300598	-0.565092	-0.101370	0.074705	-0.020559	-0.374268	-0.138916	0.660889	-165.670000	-85.817555	49.010692
59145		9.603846	-0.311363	-0.565025	-0.074440	0.068162	-0.015323	-0.372559	-0.144043	0.656982	-165.638184	-85.859248	48.933682
59146		9.596888	-0.286059	-0.583446	-0.058520	0.058483	-0.016529	-0.370605	-0.135742	0.662109	-165.678980	-85.892103	48.944542
59147		9.629102	-0.234789	-0.589401	-0.061751	0.052676	-0.015533	-0.378662	-0.144531	0.660156	-165.671657	-85.925256	48.902337
59148		9.611203	-0.272629	-0.543939	-0.066912	0.039712	-0.008560	-0.369629	-0.139160	0.657227	-165.692778	-85.946560	48.888650
59149		9.623363	-0.265385	-0.587226	-0.068604	0.040865	-0.010390	-0.371582	-0.142578	0.661865	-165.672095	-85.972447	48.828392
59150		9.599452	-0.306574	-0.518554	-0.061421	0.047768	-0.007589	-0.367676	-0.135498	0.658203	-165.665870	-85.998086	48.790447
59151		9.593441	-0.338843	-0.520062	-0.057692	0.047347	-0.010289	-0.375488	-0.138672	0.649414	-165.625106	-86.027414	48.718995
59152		9.593721	-0.337307	-0.515886	-0.059124	0.043840	-0.015418	-0.375977	-0.142334	0.657959	-165.687791	-86.051983	48.751447
59153		9.595300	-0.362010	-0.464304	-0.056602	0.041415	-0.016734	-0.371582	-0.136719	0.658691	-165.710052	-86.079024	48.745451
59154		9.582249	-0.339566	-0.461290	-0.052871	0.040996	-0.019430	-0.372070	-0.145752	0.662109	-165.808695	-86.102575	48.817534
59155		9.588494	-0.334466	-0.481471	-0.043571	0.030885	-0.018358	-0.373535	-0.138672	0.652588	-165.859234	-86.123894	48.844915
59156		9.569355	-0.315148	-0.456165	-0.048686	0.026121	-0.017622	-0.373291	-0.147705	0.655518	-165.973000	-86.138912	48.934555
59157		9.563273	-0.346718	-0.460179	-0.041709	0.018537	-0.016818	-0.375000	-0.137451	0.658691	-166.036542	-86.153134	48.976019
59158		9.587939	-0.271987	-0.493347	-0.037563	0.019719	-0.014578	-0.373047	-0.141846	0.656738	-166.133148	-86.164155	49.054845
59159		9.601583	-0.260692	-0.461389	-0.029642	0.018799	-0.011845	-0.373291	-0.145996	0.654785	-166.149392	-86.177841	49.059847
59160		9.626046	-0.216771	-0.523736	-0.024926	0.023363	-0.009426	-0.371094	-0.141357	0.654053	-166.189071	-86.190176	49.088874
59161		9.613929	-0.252319	-0.504106	-0.036779	0.024600	-0.007905	-0.375244	-0.143799	0.654297	-166.164457	-86.206467	49.044680
59162		9.660270	-0.279138	-0.493705	-0.035942	0.023330	-0.011039	-0.369141	-0.138184	0.661865	-166.224368	-86.219003	49.087657
59163		9.660254	-0.308082	-0.521308	-0.035874	0.018573	-0.012772	-0.373535	-0.142822	0.661133	-166.253330	-86.232598	49.100544
59164		9.661748	-0.303120	-0.442557	-0.038770	0.017720	-0.013223	-0.380615	-0.152832	0.657959	-166.345556	-86.242302	49.174280
59165		9.648374	-0.311465	-0.471672	-0.039030	0.007998	-0.013536	-0.368164	-0.148682	0.648682	-166.403355	-86.250203	49.207714
59166		9.634981	-0.319866	-0.501319	-0.037343	0.006844	-0.011715	-0.369873	-0.146729	0.666748	-166.504908	-86.253634	49.291616
59167		9.654577	-0.305727	-0.493926	-0.029863	0.007400	-0.008996	-0.368164	-0.147949	0.651123	-166.521484	-86.260360	49.288235
59168		9.648573	-0.307785	-0.470025	-0.025248	0.004031	-0.011635	-0.366211	-0.152832	0.656982	-166.621466	-86.262202	49.377505
59169		9.629096	-0.319580	-0.476635	-0.026456	0.002021	-0.010262	-0.368652	-0.148438	0.647705	-166.658067	-86.266018	49.393781
59170		9.615680	-0.328030	-0.506934	-0.031409	-0.000956	-0.014295	-0.372803	-0.144043	0.653564	-166.794540	-86.265413	49.516082
59171		9.615821	-0.296485	-0.477580	-0.020153	-0.002502	-0.011079	-0.370850	-0.151855	0.650635	-166.844929	-86.266871	49.557004
59172		9.602379	-0.304850	-0.508381	-0.011362	-0.007757	-0.016379	-0.378662	-0.150146	0.659424	-167.001174	-86.262713	49.710629
59173		9.609675	-0.327018	-0.485183	-0.003001	-0.010158	-0.013613	-0.375244	-0.152588	0.663086	-167.076937	-86.260307	49.781315
59174		9.596302	-0.305482	-0.486877	0.003272	-0.011615	-0.009516	-0.369629	-0.138916	0.655273	-167.173178	-86.253083	49.883212
59175		9.603588	-0.328223	-0.463762	0.002391	-0.008659	-0.009559	-0.364990	-0.145508	0.649658	-167.209286	-86.250933	49.922161
59176		9.570797	-0.289692	-0.442586	0.003272	-0.011614	-0.009517	-0.374512	-0.144043	0.664063	-167.305021	-86.243694	50.023552
59177		9.603636	-0.296535	-0.436385	0.003355	-0.014994	-0.003166	-0.377441	-0.142334	0.660645	-167.298890	-86.237109	50.021950
59178		9.570805	-0.258741	-0.415653	-0.000380	-0.014584	-0.000483	-0.380127	-0.143799	0.657227	-167.325204	-86.227066	50.051674
59179		9.623135	-0.253116	-0.403061	0.006366	-0.020583	-0.001281	-0.369873	-0.144287	0.656738	-167.311783	-86.217347	50.048041
59180		9.629070	-0.249964	-0.428826	0.008170	-0.028183	0.001978	-0.368896	-0.144287	0.660156	-167.338015	-86.199393	50.082593
59181		9.648462	-0.237013	-0.424916	0.005104	-0.032210	-0.001809	-0.373535	-0.153076	0.664551	-167.352200	-86.182999	50.102246
59182		9.622783	-0.253182	-0.411349	0.001370	-0.031799	0.000875	-0.371338	-0.148193	0.665039	-167.397759	-86.163159	50.152266
59183		9.648187	-0.237044	-0.431106	-0.001526	-0.032655	0.000426	-0.369141	-0.147461	0.658447	-167.395620	-86.146327	50.143424
59184		9.653896	-0.264148	-0.487148	-0.001157	-0.029376	0.002184	-0.368164	-0.148438	0.660889	-167.426655	-86.127676	50.177436
59185		9.647751	-0.267373	-0.466598	-0.005106	-0.030448	-0.001642	-0.372803	-0.146729	0.659668	-167.440826	-86.112225	50.186515
59186		9.628083	-0.280057	-0.476334	-0.001374	-0.030857	-0.004331	-0.366455	-0.147949	0.655762	-167.527531	-86.093551	50.276204
59187		9.608594	-0.262253	-0.456645	-0.002995	-0.034455	-0.007893	-0.364746	-0.154785	0.658691	-167.598596	-86.076642	50.345261
59188		9.602280	-0.295087	-0.466200	0.001836	-0.036337	-0.004032	-0.372559	-0.147705	0.662598	-167.689190	-86.054848	50.440695
59189		9.602325	-0.264528	-0.440057	0.003284	-0.035908	-0.003811	-0.372070	-0.145264	0.650146	-167.723920	-86.036596	50.471253
59190		9.615539	-0.284525	-0.443105	0.004802	-0.040233	-0.005332	-0.372803	-0.147217	0.649414	-167.828378	-86.012763	50.582293
59191		9.615362	-0.284278	-0.447094	0.006543	-0.043076	-0.000341	-0.377686	-0.145020	0.658936	-167.846827	-85.990140	50.609632
59192		9.607723	-0.260532	-0.475564	0.012034	-0.049393	-0.002958	-0.368408	-0.148926	0.661865	-167.941829	-85.960875	50.715352
59193		9.613418	-0.257289	-0.503664	0.007670	-0.047610	0.001289	-0.370605	-0.143555	0.662598	-167.952438	-85.935561	50.730860
59194		9.647627	-0.291685	-0.453773	0.014853	-0.055081	0.000486	-0.367432	-0.145264	0.659668	-168.026135	-85.902685	50.816848
59195		9.659187	-0.285207	-0.505834	0.019342	-0.052000	-0.003610	-0.364502	-0.155762	0.660889	-168.075432	-85.875397	50.879867
59196		9.652739	-0.318556	-0.516990	0.014413	-0.053599	0.000459	-0.373047	-0.146484	0.666504	-168.144972	-85.843343	50.961441
59197		9.664534	-0.282176	-0.539227	0.017243	-0.047987	0.002635	-0.363037	-0.143799	0.664307	-168.137919	-85.817560	50.957502
59198		9.644717	-0.295560	-0.550166	0.011949	-0.041562	0.003677	-0.365967	-0.148438	0.666992	-168.163587	-85.791872	50.993675
59199		9.658180	-0.286189	-0.524177	0.006401	-0.044856	0.004395	-0.367676	-0.139893	0.670166	-168.145414	-85.767541	50.976699
59200		9.636686	-0.272951	-0.582455	-0.000093	-0.040442	0.006818	-0.363037	-0.141846	0.659424	-168.152066	-85.742112	50.986887
59201		9.642303	-0.270119	-0.609424	-0.008395	-0.031501	0.001081	-0.375732	-0.139404	0.658203	-168.147649	-85.725682	50.982421
59202		9.688813	-0.267693	-0.575076	-0.010533	-0.028870	-0.000753	-0.366943	-0.148438	0.660889	-168.198589	-85.707631	51.031024
59203		9.649869	-0.263363	-0.561662	-0.006754	-0.030966	-0.000282	-0.372559	-0.135986	0.662598	-168.202154	-85.691785	51.035374
59204		9.676452	-0.303952	-0.563467	0.006045	-0.028597	-0.004835	-0.371094	-0.144775	0.662109	-168.272855	-85.674360	51.113323
59205		9.670901	-0.276513	-0.513031	0.008503	-0.026264	-0.004418	-0.356934	-0.142822	0.659424	-168.291384	-85.661649	51.145047
59206		9.637439	-0.298986	-0.551804	0.012096	-0.017168	-0.003637	-0.370117	-0.143066	0.659668	-168.331520	-85.650490	51.195822
59207		9.676111	-0.303127	-0.569736	0.016061	-0.016093	0.000171	-0.368408	-0.149170	0.674072	-168.296297	-85.642730	51.173384
59208		9.690214	-0.263361	-0.511629	0.019018	-0.016923	0.003778	-0.364990	-0.142090	0.661133	-168.277410	-85.630848	51.168945
59209		9.682117	-0.270755	-0.566642	0.015484	-0.013340	0.009820	-0.365479	-0.152344	0.660156	-168.166608	-85.623594	51.065144
59210		9.694014	-0.234962	-0.585593	-0.000266	-0.017945	0.005856	-0.375244	-0.137451	0.661621	-168.145507	-85.610894	51.047402
59211		9.672534	-0.221589	-0.641064	-0.010404	-0.009645	0.003071	-0.364014	-0.143311	0.666504	-168.094347	-85.606554	50.992108
59212		9.692127	-0.208932	-0.634334	-0.034025	0.013711	0.006884	-0.368652	-0.143066	0.660400	-168.036536	-85.611475	50.918148
59213		9.653059	-0.235256	-0.645683	-0.047123	0.025910	0.005406	-0.362061	-0.144287	0.661865	-167.934572	-85.626662	50.791286
59214		9.628686	-0.191088	-0.567074	-0.047622	0.029076	0.002211	-0.365479	-0.145508	0.661865	-167.894105	-85.640737	50.726909
59215		9.622201	-0.254658	-0.600212	-0.036976	0.025843	0.002003	-0.366211	-0.154541	0.665039	-167.810358	-85.656180	50.622284
59216		9.630316	-0.248025	-0.544206	-0.027018	0.025668	0.000186	-0.363525	-0.142822	0.673096	-167.777661	-85.668581	50.577542
59217		9.616688	-0.257461	-0.572004	-0.022665	0.023889	-0.004079	-0.368164	-0.153076	0.658203	-167.731801	-85.683673	50.512927
59218		9.618572	-0.283994	-0.521944	-0.030229	0.031149	-0.000103	-0.361572	-0.143799	0.665527	-167.693691	-85.699174	50.460913
59219		9.612867	-0.287202	-0.496167	-0.029989	0.018268	0.002745	-0.363281	-0.142578	0.659912	-167.610425	-85.710236	50.357359
59220		9.630833	-0.247649	-0.535157	-0.039764	0.021612	0.007891	-0.359375	-0.142090	0.666992	-167.532980	-85.719405	50.260421
59221		9.636784	-0.244815	-0.556435	-0.045680	0.026347	0.005587	-0.374512	-0.143555	0.658936	-167.424557	-85.734522	50.129256
59222		9.689464	-0.239743	-0.539584	-0.048138	0.038377	0.008828	-0.360107	-0.141602	0.664795	-167.315562	-85.752921	49.995874
59223		9.676303	-0.219829	-0.536244	-0.049266	0.042919	0.007196	-0.371582	-0.143311	0.660889	-167.166733	-85.777177	49.824202
59224		9.637725	-0.215954	-0.515791	-0.046423	0.045470	0.004461	-0.370117	-0.151123	0.657471	-167.075068	-85.800052	49.709191
59225		9.645418	-0.239893	-0.487759	-0.043654	0.041467	0.004723	-0.371094	-0.154053	0.661133	-166.940463	-85.823807	49.551132
59226		9.672303	-0.281038	-0.483278	-0.046435	0.034172	0.005692	-0.369141	-0.148926	0.663086	-166.857093	-85.840184	49.444436
59227		9.619968	-0.286493	-0.494091	-0.048558	0.033758	-0.001066	-0.371094	-0.143799	0.657715	-166.780333	-85.860311	49.335471
59228		9.678511	-0.277628	-0.500636	-0.044923	0.029852	0.004152	-0.366455	-0.143311	0.652832	-166.714327	-85.874461	49.247058
59229		9.672747	-0.281217	-0.474213	-0.046438	0.034177	0.005679	-0.369385	-0.146973	0.661621	-166.584245	-85.893859	49.098404
59230		9.659267	-0.291165	-0.500899	-0.052171	0.042083	0.006714	-0.366699	-0.142822	0.654541	-166.478123	-85.914458	48.965614
59231		9.657993	-0.264406	-0.543823	-0.060234	0.052519	0.007492	-0.365967	-0.144043	0.665527	-166.303775	-85.943737	48.761919
59232		9.657997	-0.294749	-0.568683	-0.071892	0.053865	0.007443	-0.373291	-0.143066	0.660400	-166.177267	-85.970745	48.597371
59233		9.639206	-0.248294	-0.511101	-0.062842	0.048386	0.011783	-0.369873	-0.147705	0.656982	-165.973522	-85.997072	48.363880
59234		9.639171	-0.279026	-0.536664	-0.056541	0.043868	0.010931	-0.372314	-0.145508	0.664795	-165.826065	-86.017968	48.187161
59235		9.658901	-0.266976	-0.526150	-0.044332	0.034598	0.012394	-0.369629	-0.146973	0.656982	-165.629691	-86.036443	47.969272
59236		9.639702	-0.251041	-0.500284	-0.047314	0.027187	0.014917	-0.371094	-0.146484	0.660889	-165.476084	-86.047440	47.791694
59237		9.652016	-0.215582	-0.514509	-0.044045	0.031308	0.017142	-0.372070	-0.146973	0.654541	-165.245454	-86.063259	47.540053
59238		9.620364	-0.266813	-0.501568	-0.038008	0.031417	0.019637	-0.362305	-0.153564	0.652588	-165.037029	-86.075816	47.312879
59239		9.607130	-0.247917	-0.499320	-0.035856	0.025733	0.016535	-0.368896	-0.153564	0.660400	-164.815417	-86.088388	47.071043
59240		9.593659	-0.258659	-0.527664	-0.026591	0.017310	0.014385	-0.373291	-0.152588	0.658936	-164.671538	-86.093831	46.915129
59241		9.575472	-0.300263	-0.485225	-0.033837	0.029541	0.016960	-0.369873	-0.154541	0.654541	-164.433394	-86.108408	46.654452
59242		9.589088	-0.292277	-0.452263	-0.031312	0.027124	0.015635	-0.363770	-0.144531	0.658203	-164.258271	-86.118998	46.464514
59243		9.616012	-0.304623	-0.418816	-0.033879	0.031252	0.013789	-0.364258	-0.152344	0.650635	-164.040379	-86.134778	46.228381
59244		9.622120	-0.302610	-0.439590	-0.026487	0.025210	0.019494	-0.373535	-0.141846	0.658447	-163.833137	-86.143611	46.009027
59245		9.622159	-0.304139	-0.437672	-0.024707	0.016260	0.014612	-0.371338	-0.144287	0.660889	-163.636710	-86.150938	45.803710
59246		9.641925	-0.262848	-0.399528	-0.024602	0.009807	0.016007	-0.364746	-0.147461	0.661621	-163.492448	-86.151775	45.648565
59247		9.608858	-0.286365	-0.436135	-0.018541	0.006870	0.013583	-0.366699	-0.148193	0.662109	-163.322911	-86.154019	45.473786
59248		9.577182	-0.307359	-0.395797	-0.017903	0.005507	0.012019	-0.374268	-0.149902	0.657959	-163.217751	-86.153101	45.361678
59249		9.590455	-0.328927	-0.395161	-0.006819	0.000765	0.011886	-0.371094	-0.151855	0.651611	-163.069614	-86.152259	45.211932
59250		9.602741	-0.293025	-0.412032	-0.011778	-0.002174	0.007827	-0.373047	-0.152832	0.656494	-163.014316	-86.147802	45.153316
59251		9.590590	-0.301044	-0.365472	-0.004694	-0.001886	0.013715	-0.369385	-0.153564	0.660400	-162.856634	-86.145169	44.992276
59252		9.608925	-0.261756	-0.406039	0.000754	-0.006495	0.007924	-0.375244	-0.155273	0.655273	-162.804572	-86.138316	44.944099
59253		9.641719	-0.270284	-0.399551	0.005204	-0.011681	0.010008	-0.375732	-0.145752	0.660400	-162.695988	-86.130918	44.834802
59254		9.628347	-0.250871	-0.401248	0.006318	-0.016234	0.011619	-0.378906	-0.151367	0.662109	-162.635955	-86.118098	44.781831
59255		9.628257	-0.251910	-0.402763	0.003182	-0.015484	0.009571	-0.371094	-0.150146	0.656006	-162.543200	-86.108824	44.694969
59256		9.646303	-0.242558	-0.474256	0.009591	-0.012124	0.013858	-0.376953	-0.144531	0.659180	-162.453768	-86.097853	44.614408
59257		9.672786	-0.284751	-0.474446	0.008677	-0.007455	0.010671	-0.370850	-0.145752	0.657959	-162.330570	-86.092670	44.501404
59258		9.639901	-0.278167	-0.481752	0.015521	0.007448	0.010607	-0.371338	-0.150879	0.656250	-162.214575	-86.092927	44.397622
59259		9.653196	-0.300041	-0.480169	0.019983	0.016610	0.016418	-0.368896	-0.146484	0.659912	-161.977524	-86.099728	44.174722
59260		9.627616	-0.318157	-0.461623	0.024843	0.026003	0.019077	-0.366455	-0.149170	0.662842	-161.739530	-86.108524	43.954015
59261		9.620208	-0.325876	-0.512910	0.032350	0.023483	0.016882	-0.368896	-0.149658	0.660400	-161.471922	-86.118761	43.706172
59262		9.626083	-0.354214	-0.563822	0.042732	0.024845	0.020074	-0.374023	-0.144531	0.647461	-161.216610	-86.126611	43.478384
59263		9.664883	-0.390314	-0.606183	0.054667	0.046219	0.016148	-0.375977	-0.147949	0.659180	-160.876683	-86.149200	43.172805
59264		9.726311	-0.378933	-0.454632	0.060459	0.078326	0.021318	-0.379395	-0.143555	0.662598	-160.445663	-86.185544	42.779108
59265		9.728243	-0.319233	-0.310362	0.074566	0.066266	0.026210	-0.376953	-0.141113	0.651611	-159.943100	-86.216805	42.322750
59266		9.686907	-0.323060	-0.444129	0.072265	0.023667	0.029253	-0.374512	-0.142334	0.647705	-159.590712	-86.221777	42.014659
59267		9.739091	-0.351188	-0.456985	0.055221	0.024923	0.033180	-0.366211	-0.137695	0.656494	-159.161166	-86.228963	41.624624
59268		9.779774	-0.443645	-0.404729	0.038166	0.042246	0.037630	-0.375488	-0.137207	0.655029	-158.699701	-86.241846	41.187646
59269		9.772691	-0.423779	-0.424322	0.048978	0.042131	0.040840	-0.374756	-0.146484	0.663818	-158.153086	-86.256050	40.678662
59270		9.772688	-0.428130	-0.420007	0.048572	0.041914	0.043981	-0.381836	-0.135010	0.659668	-157.628604	-86.266864	40.184521
59271		9.889991	-0.385899	-0.403383	0.032512	0.046788	0.044942	-0.370361	-0.143066	0.656006	-157.032636	-86.282107	39.612318
59272		9.883003	-0.366746	-0.422160	0.019728	0.055779	0.048127	-0.378662	-0.142578	0.659912	-156.435503	-86.298628	39.028829
59273		9.915244	-0.322785	-0.426329	-0.001293	0.060424	0.061190	-0.374023	-0.145996	0.656738	-155.668171	-86.316261	38.260823
59274		9.855948	-0.310148	-0.459490	-0.036059	0.049996	0.066885	-0.371582	-0.145996	0.653320	-154.961734	-86.324343	37.535795
59275		9.842766	-0.296225	-0.456130	-0.085301	0.033685	0.073415	-0.375732	-0.139404	0.651367	-154.236286	-86.323779	36.756399
59276		9.783186	-0.314297	-0.521522	-0.114184	0.034580	0.081922	-0.363770	-0.136719	0.662842	-153.511651	-86.318964	35.968280
59277		9.724034	-0.389515	-0.569126	-0.141326	0.045990	0.079753	-0.377686	-0.139404	0.655518	-152.722046	-86.321730	35.102291
59278		9.645789	-0.416888	-0.563171	-0.158079	0.057407	0.072715	-0.384766	-0.137695	0.646973	-152.002183	-86.329616	34.293757
59279		9.567375	-0.560354	-0.598787	-0.160984	0.076083	0.066411	-0.381104	-0.144531	0.650146	-151.193675	-86.349911	33.400459
59280		9.456360	-0.694674	-0.639877	-0.152446	0.114431	0.052884	-0.374268	-0.146973	0.650146	-150.362419	-86.390424	32.483582
59281		9.366496	-0.724051	-0.503818	-0.135049	0.140648	0.046755	-0.378906	-0.140625	0.654785	-149.368807	-86.446429	31.411233
59282		9.326909	-0.784137	-0.613939	-0.073796	0.125246	0.033132	-0.381348	-0.149170	0.646973	-148.551244	-86.496225	30.553324
59283		9.346186	-0.922348	-0.746431	-0.040052	0.117628	0.026824	-0.375488	-0.147461	0.650635	-147.718558	-86.545003	29.699682
59284		9.295135	-0.954620	-0.626139	-0.054719	0.131178	0.023376	-0.380127	-0.147217	0.650391	-146.889058	-86.599133	28.840857
59285		9.322058	-0.938285	-0.552813	-0.050006	0.139134	0.019538	-0.378174	-0.145752	0.658447	-145.954116	-86.658759	27.875764
59286		9.296593	-0.898405	-0.541007	-0.036111	0.143341	0.015410	-0.378418	-0.145996	0.655518	-145.051390	-86.719576	26.954373
59287		9.264692	-0.774689	-0.492978	-0.051147	0.131096	0.010961	-0.383301	-0.143555	0.648438	-144.166914	-86.776420	26.041673
59288		9.304369	-0.720498	-0.437114	-0.061939	0.110477	0.005277	-0.381348	-0.144775	0.651855	-143.498321	-86.823884	25.340061
59289		9.285300	-0.675323	-0.452877	-0.056190	0.080390	-0.006145	-0.383789	-0.143799	0.632568	-143.022627	-86.862104	24.836875
59290		9.285845	-0.558986	-0.480916	-0.034538	0.042203	-0.021736	-0.375244	-0.146484	0.657227	-142.966543	-86.887066	24.764458
59291		9.351665	-0.546339	-0.587143	-0.022870	0.002546	-0.032540	-0.379883	-0.145996	0.642334	-143.179061	-86.898521	24.968064
59292		9.364984	-0.535483	-0.634683	-0.023602	-0.023085	-0.041621	-0.393555	-0.150635	0.646729	-143.700008	-86.900253	25.479800
59293		9.436964	-0.515458	-0.691653	-0.021754	-0.033341	-0.054571	-0.380371	-0.145264	0.649414	-144.325483	-86.902392	26.095624
59294		9.502304	-0.498125	-0.726253	-0.015408	-0.040935	-0.060271	-0.382080	-0.143799	0.649414	-145.113038	-86.901329	26.879059
59295		9.547946	-0.548765	-0.675335	-0.014056	-0.050128	-0.062007	-0.383789	-0.142578	0.641602	-145.902378	-86.896982	27.668027
59296		9.554446	-0.539038	-0.704053	-0.009960	-0.063355	-0.063455	-0.385010	-0.148926	0.656494	-146.842119	-86.885011	28.607007
59297		9.626128	-0.573249	-0.671761	-0.005148	-0.086136	-0.061927	-0.378662	-0.147217	0.646484	-147.819292	-86.861960	29.588904
59298		9.619429	-0.600443	-0.687873	0.004597	-0.102559	-0.062610	-0.379395	-0.155273	0.644531	-148.935176	-86.828832	30.712688
59299		9.677955	-0.614052	-0.658866	0.013349	-0.104798	-0.062936	-0.373047	-0.155273	0.648193	-149.973789	-86.794742	31.759404
59300		9.697081	-0.565933	-0.631877	0.027015	-0.118477	-0.062919	-0.381104	-0.153809	0.642334	-151.110943	-86.751447	32.917436
59301		9.741841	-0.503089	-0.698596	0.035112	-0.117620	-0.064860	-0.370117	-0.147217	0.658447	-152.165236	-86.709155	33.988953
59302		9.728587	-0.474236	-0.632911	0.034268	-0.114212	-0.076159	-0.385986	-0.149170	0.659912	-153.336403	-86.669026	35.185314
59303		9.689642	-0.520034	-0.611539	0.034894	-0.113835	-0.080906	-0.371094	-0.142822	0.654297	-154.460771	-86.630401	36.335809
59304		9.690519	-0.567411	-0.528429	0.045093	-0.113484	-0.095435	-0.372559	-0.145752	0.653564	-155.735788	-86.592504	37.642510
59305		9.664667	-0.574321	-0.522897	0.053352	-0.109045	-0.105293	-0.375000	-0.148193	0.653809	-156.993081	-86.559048	38.940017
59306		9.679440	-0.640184	-0.438163	0.066891	-0.096701	-0.112440	-0.370605	-0.150879	0.657227	-158.289896	-86.530361	40.281159
59307		9.640756	-0.624877	-0.430867	0.070900	-0.086936	-0.125988	-0.375488	-0.142578	0.657227	-159.596083	-86.509565	41.632277
59308		9.595895	-0.582978	-0.369632	0.079656	-0.089125	-0.126383	-0.382568	-0.148926	0.657471	-160.943250	-86.483985	43.031261
59309		9.517278	-0.535187	-0.394316	0.078163	-0.113474	-0.132393	-0.375977	-0.145264	0.655273	-162.340192	-86.446243	44.483000
59310		9.527665	-0.430222	-0.516744	0.071736	-0.140754	-0.142489	-0.371338	-0.148438	0.656738	-163.917497	-86.390797	46.108144
59311		9.631128	-0.407650	-0.577790	0.056461	-0.136745	-0.155989	-0.360840	-0.155029	0.662842	-165.513897	-86.338928	47.744996
59312		9.683314	-0.357133	-0.545849	0.057740	-0.129422	-0.168482	-0.362793	-0.153564	0.664795	-167.202696	-86.287673	49.474019
59313		9.797222	-0.266978	-0.671034	0.083706	-0.143515	-0.184536	-0.360107	-0.150146	0.661621	-168.944721	-86.229155	51.264101
59314		9.874677	-0.255881	-0.716318	0.094134	-0.129827	-0.206745	-0.362793	-0.146729	0.665039	-170.836955	-86.174765	53.218125
59315		9.882014	-0.288730	-0.734319	0.121932	-0.113992	-0.231173	-0.360596	-0.146729	0.662109	-172.805139	-86.129299	55.263430
59316		9.916660	-0.299741	-0.689664	0.165728	-0.092855	-0.266011	-0.350098	-0.144531	0.660889	-175.012952	-86.090640	57.575086
59317		9.909161	-0.249543	-0.720806	0.257385	-0.066792	-0.297007	-0.360107	-0.153076	0.659668	-177.331852	-86.064297	60.051607
59318		9.958292	-0.190905	-0.834864	0.383515	-0.022280	-0.316101	-0.357422	-0.151367	0.662598	-179.734019	-86.054286	62.683295
59319		9.911124	-0.252977	-0.781072	0.505739	0.058256	-0.330056	-0.358643	-0.149658	0.660400	177.842439	-86.085386	65.400109
59320		9.767937	-0.227066	-0.526953	0.645598	0.144339	-0.333724	-0.362793	-0.143555	0.658691	175.338989	-86.154758	68.283629
59321		9.526610	-0.111403	-0.075501	0.759674	0.209222	-0.314850	-0.365723	-0.136475	0.670410	172.930019	-86.256760	71.132906
59322		9.192934	0.102093	-0.014146	0.807617	0.222336	-0.273260	-0.355225	-0.142090	0.656982	170.726938	-86.358861	73.807830
59323		8.837828	0.253727	-0.146342	0.770250	0.216001	-0.202314	-0.358643	-0.132080	0.665039	169.049435	-86.461717	75.929048
59324		8.613490	0.359043	-0.405520	0.626876	0.198277	-0.122210	-0.359131	-0.117920	0.660889	167.931102	-86.557357	77.412869
59325		8.790675	0.480856	-0.893211	0.473732	0.124067	-0.050250	-0.372803	-0.129883	0.659912	167.523640	-86.622050	78.096151
59326		9.284292	0.547009	-1.387659	0.372292	0.019672	0.011507	-0.367920	-0.127930	0.659668	167.825431	-86.632766	78.011083
59327		9.764768	0.569916	-1.491890	0.301690	-0.063371	0.070123	-0.362793	-0.121338	0.667969	168.834512	-86.606924	77.169327
59328		10.076692	0.558764	-1.594381	0.180751	-0.034744	0.127397	-0.359619	-0.122314	0.660645	170.227193	-86.598878	75.881508
59329		10.127577	0.619644	-1.453130	0.123686	-0.064674	0.175668	-0.360352	-0.113525	0.659668	172.108521	-86.578785	74.064614
59330		10.182143	0.658116	-1.568379	0.122589	-0.081213	0.186664	-0.369629	-0.118896	0.661377	174.055950	-86.543683	72.187607
59331		10.363413	0.744652	-1.798692	0.138585	-0.063049	0.169509	-0.351807	-0.106689	0.662354	175.828869	-86.517235	70.491950
59332		10.562261	0.911713	-1.965380	0.161195	-0.036144	0.096754	-0.351074	-0.109863	0.674561	176.864461	-86.498270	69.550530
59333		10.818219	1.015087	-2.042780	0.168822	0.049021	-0.013474	-0.360107	-0.109863	0.661377	176.854258	-86.526228	69.659584
59334		10.687038	0.969670	-1.892888	0.141157	0.189091	-0.123789	-0.360352	-0.106445	0.668457	175.648775	-86.627879	70.951811
59335		10.224031	0.791852	-1.723514	0.086714	0.372263	-0.199338	-0.367920	-0.106689	0.669678	173.398079	-86.829941	73.258185
59336		9.696659	0.533477	-1.337177	0.041853	0.508443	-0.236832	-0.363525	-0.108398	0.667236	170.122379	-87.097147	76.566061
59337		9.289860	0.297573	-1.268349	0.016497	0.528013	-0.239425	-0.365723	-0.110352	0.658203	166.117443	-87.365882	80.587333
59338		9.142276	0.116559	-1.255022	0.026262	0.495800	-0.223872	-0.373047	-0.106201	0.655029	161.556527	-87.601575	85.171264
59339		9.052862	0.072402	-1.167029	0.018479	0.461147	-0.183260	-0.370361	-0.116455	0.653564	156.826588	-87.812450	89.918847
59340		8.958737	0.087637	-1.027174	-0.011293	0.437168	-0.128086	-0.375244	-0.122803	0.652588	152.087184	-88.005533	94.658488
59341		8.871099	0.237151	-1.027777	-0.070713	0.439207	-0.062972	-0.379395	-0.108643	0.645996	147.327724	-88.206010	99.375113
59342		8.867411	0.432443	-1.100428	-0.135171	0.468817	-0.003761	-0.378662	-0.115479	0.645508	141.963369	-88.422884	104.667860
59343		8.937780	0.591230	-1.124611	-0.207889	0.513569	0.034348	-0.388184	-0.115479	0.654541	134.817669	-88.657967	111.699838
59344		9.156369	0.770824	-1.070021	-0.284733	0.561939	0.069824	-0.382324	-0.122803	0.645264	124.303642	-88.894092	122.056614
59345		9.210578	0.790582	-1.100468	-0.377040	0.587408	0.076438	-0.399414	-0.123535	0.638916	108.067902	-89.085740	138.077384
59346		9.103762	0.743353	-1.238722	-0.459077	0.578962	0.077950	-0.402100	-0.116699	0.644287	86.521877	-89.174022	159.366331
59347		8.729826	0.718818	-1.387439	-0.518979	0.561564	0.071538	-0.394287	-0.122559	0.633789	64.269269	-89.133964	-178.673520
59348		8.709825	0.599051	-1.437016	-0.503829	0.514925	0.044011	-0.391846	-0.132568	0.630127	48.166970	-88.991043	-162.854253
59349		8.791432	0.416991	-1.387666	-0.444771	0.469503	-0.003153	-0.400146	-0.121582	0.627441	38.367488	-88.795052	-153.307469
59350		9.037573	0.281224	-1.204244	-0.311600	0.410633	-0.065767	-0.413086	-0.133789	0.625000	33.515201	-88.584133	-148.628939
59351		9.050100	0.276365	-1.091928	-0.171929	0.306328	-0.082898	-0.407959	-0.136230	0.624756	31.299534	-88.411922	-146.506880
59352		9.021715	0.146628	-1.280270	-0.097564	0.164116	-0.042032	-0.415771	-0.137207	0.622559	30.300291	-88.320724	-145.559591
59353		9.225349	0.048272	-1.549117	-0.097875	0.092153	-0.011535	-0.409180	-0.134766	0.630127	29.500725	-88.273086	-144.814656
59354		9.220613	0.107777	-1.770502	-0.154115	0.080232	0.021704	-0.412842	-0.130371	0.623047	28.340702	-88.240782	-143.738875
59355		9.442680	0.187986	-1.884632	-0.156842	0.051530	0.042156	-0.406250	-0.135986	0.623291	27.064085	-88.227463	-142.548584
59356		9.483435	0.303973	-1.876420	-0.102437	0.049578	0.050869	-0.414795	-0.135498	0.617676	25.770750	-88.216925	-141.309783
59357		9.511654	0.381657	-1.851854	-0.025247	0.038748	0.049247	-0.412109	-0.135986	0.620117	24.588057	-88.210471	-140.138567
59358		9.437113	0.499929	-1.885630	-0.009330	0.025986	0.047308	-0.408203	-0.139893	0.622314	23.607275	-88.209893	-139.159091
59359		9.381661	0.678574	-1.774661	-0.032692	0.031457	0.049382	-0.406250	-0.132080	0.623047	22.486216	-88.206114	-138.054511
59360		9.431263	0.841739	-1.654063	-0.067636	0.029903	0.055692	-0.410156	-0.135254	0.620117	21.307277	-88.204071	-136.910202
59361		9.438719	0.879018	-1.591497	-0.072116	0.012147	0.057945	-0.411621	-0.124512	0.620117	20.151648	-88.211139	-135.792549
59362		9.453710	0.900608	-1.452139	-0.047880	-0.019171	0.060723	-0.407471	-0.136475	0.621338	19.193472	-88.235153	-134.857795
59363		9.505953	0.874986	-1.178556	-0.049596	-0.060339	0.045385	-0.407471	-0.132568	0.617188	18.682097	-88.278156	-134.371153
59364		9.668002	0.700018	-1.334717	0.006536	-0.123463	0.011629	-0.412598	-0.132568	0.629639	19.258347	-88.349179	-134.940343
59365		10.000532	0.507789	-1.411469	0.052639	-0.140778	-0.038378	-0.402588	-0.128906	0.621338	20.961713	-88.419340	-136.611430
59366		10.716758	0.037388	-1.073712	0.099310	-0.033862	-0.113337	-0.411377	-0.128906	0.630127	23.469201	-88.414701	-139.059390
59367		11.371429	-0.476728	-1.061843	0.238621	0.155380	-0.215767	-0.406738	-0.124756	0.624756	26.170325	-88.284148	-141.621788
59368		11.413465	-0.643692	-1.590126	0.462490	0.347586	-0.271608	-0.410400	-0.124023	0.627197	27.944126	-88.037915	-143.127812
59369		11.058028	-0.419837	-1.227990	0.713804	0.457603	-0.212434	-0.417236	-0.124023	0.626221	27.916228	-87.751604	-142.687548
59370		10.918248	-0.163624	0.028504	0.923403	0.442348	-0.096688	-0.414063	-0.120850	0.616699	26.831879	-87.502971	-141.069182
59371		10.916771	0.343153	0.591804	0.951532	0.275116	0.017408	-0.416260	-0.114014	0.616943	25.603758	-87.368288	-139.291746
59372		10.931382	1.199823	0.612933	0.817740	-0.007753	0.094345	-0.418457	-0.108154	0.619873	25.054477	-87.397371	-138.269306
59373		10.819634	1.786468	0.837652	0.644948	-0.213905	0.149721	-0.421143	-0.110352	0.615967	24.813152	-87.546931	-137.655474
59374		10.685105	1.816951	1.275067	0.420843	-0.286891	0.192654	-0.413574	-0.099121	0.624756	24.282722	-87.744258	-136.879703
59375		10.742204	1.622651	1.059750	0.137428	-0.314852	0.195042	-0.416748	-0.091309	0.629150	23.567633	-87.956589	-136.082995
59376		10.785067	1.523378	0.770550	-0.004468	-0.338418	0.201476	-0.415771	-0.100830	0.638916	22.684281	-88.182202	-135.198141
59377		10.692772	1.438383	0.774809	-0.104521	-0.312020	0.219778	-0.407471	-0.099609	0.626709	20.903800	-88.397028	-133.473932
59378		10.639494	1.120495	1.039446	-0.207093	-0.278182	0.239245	-0.404297	-0.097656	0.629883	17.882169	-88.594910	-130.566399
59379		10.379352	0.705619	1.432625	-0.353080	-0.308834	0.255231	-0.416992	-0.105957	0.633789	13.542462	-88.806868	-126.425350
59380		10.053331	0.530203	1.375947	-0.519725	-0.404688	0.250391	-0.406006	-0.097900	0.626221	7.980327	-89.063665	-121.156539
59381		9.885779	0.545821	1.047561	-0.596556	-0.456763	0.228239	-0.407227	-0.095215	0.638184	-0.597939	-89.335398	-112.916600
59382		9.707560	0.390387	0.987068	-0.545276	-0.389757	0.203399	-0.397461	-0.100098	0.639893	-16.137718	-89.542971	-97.684983
59383		9.326108	0.252212	1.410421	-0.488546	-0.306544	0.183056	-0.396973	-0.104248	0.633789	-41.995729	-89.648657	-72.102806
59384		9.077193	0.000599	1.640027	-0.476873	-0.263700	0.150380	-0.395752	-0.109375	0.629395	-71.679705	-89.660085	-42.687984
59385		8.996816	-0.542447	1.667517	-0.428225	-0.155719	0.095225	-0.390381	-0.119141	0.636963	-87.750246	-89.620780	-26.859534
59386		8.957067	-1.032545	1.590348	-0.355514	-0.056384	0.020343	-0.397217	-0.114258	0.637451	-93.019642	-89.608298	-21.790156
59387		9.054303	-1.305526	1.507398	-0.309764	-0.019045	-0.030034	-0.394775	-0.119141	0.629639	-95.160517	-89.623151	-19.824271
59388		9.175832	-1.374469	1.481481	-0.283607	-0.018709	-0.059632	-0.395020	-0.110840	0.634033	-97.912473	-89.655089	-17.231197
59389		9.204746	-1.331206	1.411796	-0.259556	-0.033811	-0.058882	-0.395752	-0.120605	0.640869	-102.525080	-89.683137	-12.764304
59390		9.233203	-1.149134	1.254269	-0.215249	-0.057348	-0.038416	-0.398926	-0.117676	0.640381	-109.885609	-89.694042	-5.523436
59391		9.286728	-0.895006	1.061329	-0.170240	-0.080756	-0.012958	-0.397949	-0.125977	0.641602	-118.311478	-89.679974	2.807825
59392		9.584909	-0.619403	0.924600	-0.143466	-0.080802	0.019265	-0.398193	-0.131104	0.637207	-124.350748	-89.644953	8.768560
59393		9.856053	-0.445950	0.872267	-0.135257	-0.047903	0.061584	-0.399902	-0.136230	0.643555	-124.781284	-89.598426	9.123720
59394		10.058009	-0.422947	0.704052	-0.126039	-0.039161	0.113522	-0.390137	-0.125488	0.638184	-122.713037	-89.530341	6.986759
59395		10.159949	-0.505654	0.490118	-0.103557	-0.063616	0.167336	-0.386963	-0.126221	0.639893	-120.626095	-89.427676	4.842391
59396		10.193233	-0.714706	0.416806	-0.092086	-0.091444	0.215877	-0.392578	-0.122314	0.635010	-119.324341	-89.292905	3.491354
59397		9.987903	-0.669756	0.401196	-0.126124	-0.105756	0.259804	-0.394531	-0.121582	0.638672	-118.054445	-89.131273	2.151713
59398		9.858288	-0.715526	0.500593	-0.063143	-0.130766	0.313983	-0.397217	-0.131592	0.638672	-117.162825	-88.935745	1.227345
59399		9.807710	-0.702120	0.373564	-0.072895	-0.147138	0.352283	-0.397461	-0.118896	0.634521	-116.427473	-88.715616	0.452417
59400		9.675842	-0.651776	0.301985	-0.115373	-0.156970	0.372012	-0.384521	-0.117188	0.637939	-115.997589	-88.483310	-0.040155
59401		9.607167	-0.627753	0.117883	-0.171598	-0.154438	0.374994	-0.395264	-0.124023	0.645508	-115.602961	-88.249373	-0.530177
59402		9.588307	-0.680191	0.018604	-0.201262	-0.122562	0.360438	-0.392334	-0.123047	0.638672	-114.996279	-88.031323	-1.248989
59403		9.552096	-0.732031	0.045994	-0.201965	-0.080128	0.328518	-0.389648	-0.113281	0.639648	-114.095757	-87.839032	-2.263582
59404		9.560364	-0.778895	0.116021	-0.215830	-0.064184	0.297182	-0.382813	-0.116943	0.647461	-113.365096	-87.667063	-3.114998
59405		9.567000	-0.776295	0.037938	-0.218199	-0.054512	0.266141	-0.390869	-0.121826	0.634521	-112.750506	-87.512467	-3.851938
59406		9.518960	-0.828737	0.038339	-0.224854	-0.059010	0.237352	-0.388672	-0.129883	0.647705	-112.438478	-87.372662	-4.289671
59407		9.379656	-0.877695	0.035534	-0.232850	-0.060707	0.211633	-0.386719	-0.117432	0.648926	-112.271434	-87.245245	-4.588559
59408		9.318912	-0.903703	0.034320	-0.234413	-0.055641	0.183963	-0.385498	-0.119141	0.642334	-112.221127	-87.134368	-4.769831
59409		9.189742	-0.976747	-0.096302	-0.226560	-0.015856	0.165173	-0.388672	-0.123779	0.636230	-111.815905	-87.041122	-5.302424
59410		9.092877	-1.054779	-0.215258	-0.221006	0.007533	0.131178	-0.390137	-0.123047	0.635986	-111.362560	-86.971591	-5.879622
59411		9.116697	-1.223845	-0.255714	-0.204484	0.041822	0.109042	-0.395020	-0.115967	0.644043	-110.637346	-86.919737	-6.720630
59412		9.116544	-1.398217	-0.147066	-0.181009	0.076573	0.083345	-0.388916	-0.123535	0.646729	-109.700311	-86.888843	-7.759330
59413		9.096966	-1.476616	-0.209202	-0.129793	0.099700	0.065419	-0.400391	-0.127930	0.642090	-108.557417	-86.869958	-8.975075
59414		9.115799	-1.469788	-0.193333	-0.076062	0.107125	0.058832	-0.399902	-0.122559	0.648438	-107.371636	-86.855689	-10.202715
59415		9.177528	-1.519902	-0.119185	-0.047230	0.112056	0.060750	-0.393066	-0.129395	0.643066	-106.099372	-86.838608	-11.501371
59416		9.276418	-1.603656	-0.011508	-0.045615	0.110610	0.072229	-0.395996	-0.127441	0.639648	-104.850842	-86.814570	-12.774427
59417		9.280938	-1.644857	-0.185853	-0.032639	0.118756	0.085962	-0.394531	-0.119873	0.647217	-103.476093	-86.781169	-14.168117
59418		9.233466	-1.660927	-0.345619	0.010344	0.137102	0.095613	-0.396973	-0.122070	0.642578	-101.928803	-86.744015	-15.708377
59419		9.183589	-1.675511	-0.424908	0.058091	0.177921	0.097062	-0.396973	-0.117920	0.640625	-99.965270	-86.706404	-17.638833
59420		9.144545	-1.592136	-0.378696	0.103077	0.214884	0.093080	-0.398926	-0.116455	0.643066	-97.688442	-86.671725	-19.856742
59421		9.159904	-1.477112	-0.359827	0.142458	0.219905	0.080843	-0.394043	-0.117188	0.644287	-95.381737	-86.637643	-22.082496
59422		9.194221	-1.356445	-0.464591	0.167586	0.197032	0.057351	-0.395020	-0.117432	0.638184	-93.361641	-86.612754	-24.006347
59423		9.164585	-1.295312	-0.471462	0.182855	0.182689	0.030716	-0.396484	-0.115723	0.641113	-91.492038	-86.597214	-25.771879
59424		9.140174	-1.255944	-0.454851	0.210652	0.181509	0.003438	-0.401855	-0.124756	0.640381	-89.650196	-86.595676	-27.492500
59425		9.111263	-1.190398	-0.462833	0.249121	0.173553	-0.018821	-0.407715	-0.114014	0.632324	-87.844083	-86.601927	-29.157256
59426		9.089808	-1.237375	-0.537210	0.275052	0.145914	-0.038899	-0.403076	-0.116699	0.636963	-86.285900	-86.619417	-30.556732
59427		9.086384	-1.210753	-0.545889	0.278385	0.126263	-0.053261	-0.408203	-0.111816	0.630371	-84.876834	-86.641934	-31.806510
59428		9.119075	-1.195152	-0.623592	0.273935	0.109160	-0.064142	-0.409180	-0.117188	0.641113	-83.620828	-86.671839	-32.903869
59429		9.241494	-1.258341	-0.577394	0.257298	0.110963	-0.064065	-0.406006	-0.113770	0.635986	-82.324893	-86.698188	-34.052661
59430		9.196826	-1.292131	-0.689027	0.255749	0.097675	-0.061416	-0.409424	-0.102539	0.633789	-81.156628	-86.724663	-35.072510
59431		9.170945	-1.303215	-0.663143	0.260684	0.071813	-0.065758	-0.410889	-0.097656	0.638672	-80.209183	-86.752898	-35.869818
59432		9.028445	-1.271087	-0.649413	0.277514	0.025048	-0.058432	-0.410645	-0.109863	0.631104	-79.727512	-86.783115	-36.189432
59433		8.939709	-1.190511	-0.771774	0.309255	-0.031899	-0.054867	-0.405273	-0.101318	0.641602	-79.795412	-86.815004	-35.941689
59434		8.812438	-1.173190	-0.712017	0.323689	-0.095306	-0.060922	-0.405762	-0.098633	0.639404	-80.507044	-86.858480	-35.039661
59435		8.743906	-1.148620	-0.664527	0.307239	-0.201449	-0.059911	-0.410889	-0.094482	0.639404	-82.357901	-86.907274	-33.007738
59436		8.695267	-1.162722	-1.140504	0.317454	-0.280539	-0.061914	-0.404297	-0.092285	0.653564	-85.118959	-86.959707	-30.057008
59437		8.607483	-1.179440	-1.684910	0.350199	-0.322446	-0.069420	-0.397461	-0.085938	0.639893	-88.398800	-87.007360	-26.569228
59438		8.573501	-1.189546	-1.927830	0.341162	-0.363429	-0.097245	-0.402100	-0.087158	0.651123	-92.262136	-87.061312	-22.501417
59439		8.576773	-1.245371	-2.037098	0.311219	-0.405603	-0.151224	-0.399902	-0.105225	0.636475	-96.802485	-87.126644	-17.774012
59440		8.692400	-1.429819	-1.893669	0.292107	-0.426949	-0.229028	-0.394043	-0.090332	0.648926	-101.986372	-87.215391	-12.412676
59441		8.842027	-1.757672	-1.729156	0.310943	-0.417941	-0.308473	-0.388672	-0.087646	0.653076	-107.621904	-87.322297	-6.591557
59442		8.998789	-1.855716	-1.386411	0.427269	-0.391524	-0.376730	-0.392334	-0.093018	0.655029	-113.668849	-87.444168	-0.289688
59443		9.416921	-1.735545	-1.123073	0.552779	-0.394238	-0.400476	-0.384033	-0.080811	0.659180	-120.333950	-87.543088	6.700301
59444		10.205699	-1.392751	-0.501322	0.660821	-0.367741	-0.359998	-0.383301	-0.080322	0.667480	-126.809653	-87.597006	13.564345
59445		11.492797	-0.343453	0.135060	0.665740	-0.355262	-0.231357	-0.379639	-0.072998	0.662109	-132.129961	-87.566693	19.273122
59446		12.904038	0.944129	0.164553	0.372484	-0.380702	-0.037247	-0.372070	-0.075195	0.667969	-135.865081	-87.428726	23.228987
59447		13.493866	1.632323	0.050130	-0.279365	-0.431222	0.141898	-0.375000	-0.075928	0.669434	-138.313561	-87.189334	25.521848
59448		13.559326	1.790107	0.268604	-1.003511	-0.348841	0.260962	-0.370605	-0.078125	0.664063	-139.274332	-86.938668	25.911721
59449		13.115654	2.180620	1.078472	-1.240143	-0.181982	0.303135	-0.369385	-0.098145	0.668945	-138.825256	-86.743223	24.752417
59450		12.099655	1.876861	0.915772	-0.981232	-0.217921	0.214792	-0.368408	-0.095215	0.671875	-139.208847	-86.566458	24.577065
59451		11.014497	0.760196	-0.285634	-0.634375	-0.355970	0.009516	-0.365234	-0.097412	0.677246	-141.602344	-86.403135	26.612400
59452		10.354195	-0.808375	-0.424019	-0.245688	-0.448503	-0.255001	-0.363525	-0.094971	0.669678	-145.968645	-86.280186	30.850119
59453		10.123726	-1.986770	0.072427	0.166307	-0.421030	-0.495928	-0.355957	-0.105469	0.677246	-151.468093	-86.218998	36.459216
59454		9.823393	-2.684539	0.027503	0.411693	-0.339926	-0.678325	-0.353760	-0.108643	0.671875	-157.802861	-86.207538	43.047782
59455		9.628955	-3.138673	-0.026592	0.447809	-0.285756	-0.741163	-0.360596	-0.098633	0.677979	-164.362040	-86.188159	49.880096
59456		9.498083	-3.032020	-0.126415	0.438327	-0.288994	-0.668036	-0.356201	-0.103027	0.674805	-170.195294	-86.108862	55.981808
59457		9.402902	-2.564631	0.074962	0.527855	-0.299615	-0.501846	-0.351563	-0.090576	0.684082	-174.307065	-85.975804	60.408565
59458		9.307021	-1.862960	0.375952	0.593795	-0.280272	-0.311185	-0.347900	-0.087646	0.690918	-176.615456	-85.827881	63.067531
59459		9.445994	-1.025474	0.845400	0.533668	-0.261455	-0.126328	-0.344971	-0.087891	0.685547	-177.348769	-85.680679	64.111481
59460		9.624850	-0.114164	1.274185	0.447563	-0.226310	0.036071	-0.344482	-0.091553	0.691895	-176.898064	-85.548241	63.920211
59461		9.794906	0.654753	1.634995	0.441173	-0.163989	0.167270	-0.347656	-0.085938	0.686523	-175.471909	-85.446810	62.744804
59462		9.883649	1.189675	1.781520	0.429533	-0.096601	0.254078	-0.334229	-0.085938	0.691895	-173.478155	-85.375776	60.995107
59463		9.762277	1.373887	1.702865	0.379845	-0.058823	0.297177	-0.342773	-0.075195	0.696045	-171.206906	-85.318396	58.936364
59464		9.497655	1.351878	1.451623	0.325723	-0.064379	0.293141	-0.337891	-0.074219	0.695068	-169.083761	-85.251355	56.996843
59465		9.193214	1.239282	1.134781	0.312749	-0.083023	0.251051	-0.335449	-0.060059	0.697266	-167.307321	-85.174089	55.395876
59466		9.077919	1.114052	0.834417	0.322692	-0.146341	0.175236	-0.334961	-0.067383	0.706543	-166.197411	-85.067506	54.471065
59467		9.244648	1.142903	0.677308	0.339159	-0.253077	0.063694	-0.339600	-0.062256	0.695801	-165.967450	-84.916778	54.437266
59468		9.686798	1.038748	0.194441	0.265945	-0.268809	-0.059634	-0.336426	-0.057861	0.695313	-166.583098	-84.773306	55.211982
59469		10.187781	1.247528	-0.053516	0.100455	-0.146133	-0.188963	-0.338135	-0.060303	0.698486	-167.847239	-84.714564	56.541324
59470		10.370636	1.365493	-0.093899	0.000084	-0.083521	-0.291956	-0.332520	-0.060791	0.701904	-169.712817	-84.698222	58.418515
59471		10.242948	1.296000	-0.281644	-0.093488	-0.005599	-0.358923	-0.331543	-0.057373	0.707275	-171.938966	-84.727010	60.602521
59472		10.090878	1.170733	-0.320513	-0.195368	0.036004	-0.410521	-0.335205	-0.062500	0.699463	-174.559300	-84.773230	63.125056
59473		9.961404	1.119470	-0.396795	-0.226671	0.066219	-0.443940	-0.330322	-0.073730	0.694336	-177.421991	-84.828272	65.871388
59474		9.918121	1.104985	-0.423448	-0.220528	0.100439	-0.464825	-0.334717	-0.069580	0.697754	179.513271	-84.888809	68.825212
59475		9.795223	1.058190	-0.518677	-0.201659	0.116295	-0.475962	-0.335205	-0.077148	0.699219	176.333243	-84.945172	71.904057
59476		9.524607	0.980536	-0.450485	-0.165447	0.092750	-0.458866	-0.335449	-0.059814	0.709717	173.227385	-84.972375	74.930382
59477		9.299151	0.895490	-0.427223	-0.115486	0.041445	-0.426929	-0.330566	-0.074463	0.700195	170.400131	-84.960904	77.704495
59478		9.174747	0.788318	-0.386543	-0.112203	0.010460	-0.371704	-0.337158	-0.080811	0.703613	167.973057	-84.925100	80.080086
59479		9.127651	0.626222	-0.484901	-0.144117	-0.004720	-0.309528	-0.328369	-0.075928	0.703613	165.985408	-84.882533	81.995087
59480		9.174074	0.521578	-0.634070	-0.186606	-0.013825	-0.243777	-0.334229	-0.083740	0.705811	164.414860	-84.837533	83.468200
59481		9.247095	0.469743	-0.698661	-0.237159	-0.025756	-0.183876	-0.327148	-0.082764	0.698242	163.233965	-84.794140	84.519900
59482		9.218323	0.492302	-0.730328	-0.291385	-0.016359	-0.113090	-0.337158	-0.084717	0.704346	162.435470	-84.764447	85.157649
59483		9.176098	0.586460	-0.807700	-0.335064	-0.005141	-0.053945	-0.335938	-0.087891	0.709229	161.957004	-84.752362	85.447754
59484		9.149817	0.624485	-0.909665	-0.340454	-0.000624	0.001930	-0.323975	-0.085693	0.712891	161.790563	-84.750772	85.422584
59485		9.253767	0.662951	-1.030508	-0.312305	0.018475	0.023295	-0.329590	-0.092773	0.697021	161.737976	-84.765157	85.298145
59486		9.475902	0.731610	-1.094237	-0.328581	0.035745	0.029262	-0.331787	-0.093750	0.697266	161.669595	-84.788274	85.181339
59487		9.510852	0.785765	-1.123753	-0.379989	0.073772	0.027602	-0.337891	-0.083740	0.695557	161.494347	-84.833491	85.141170
59488		9.433984	0.882671	-1.096346	-0.382187	0.087661	0.033694	-0.332031	-0.098389	0.703613	161.317120	-84.885666	85.102826
59489		9.281772	0.921978	-1.091560	-0.389189	0.080602	0.030804	-0.334961	-0.096436	0.700439	161.139329	-84.935150	85.059968
59490		9.232025	0.862661	-0.972829	-0.411351	0.081527	0.024361	-0.338135	-0.096191	0.705566	160.897784	-84.982284	85.069423
59491		9.154256	0.811561	-0.884746	-0.428298	0.094066	0.010646	-0.337646	-0.090088	0.693604	160.539056	-85.035219	85.185746
59492		9.093233	0.701105	-1.002391	-0.427663	0.076758	0.000373	-0.333984	-0.102539	0.698730	160.142566	-85.075142	85.341343
59493		8.953081	0.651172	-1.211731	-0.425908	0.020870	-0.007309	-0.336426	-0.102783	0.702881	159.829884	-85.084974	85.412848
59494		8.769119	0.572085	-1.415048	-0.444628	-0.025775	-0.006356	-0.342285	-0.107666	0.702881	159.612381	-85.068309	85.379034
59495		8.629061	0.471695	-1.512765	-0.446557	-0.034367	-0.007162	-0.339600	-0.107422	0.701904	159.416273	-85.048409	85.321684
59496		8.525617	0.340624	-1.556430	-0.433949	-0.028430	-0.007210	-0.341553	-0.106689	0.698975	159.206922	-85.030168	85.285827
59497		8.492038	0.288184	-1.700289	-0.411372	-0.032119	-0.009356	-0.333496	-0.107666	0.700684	159.013629	-85.010985	85.245900
59498		8.591366	0.279336	-1.681174	-0.392135	-0.045012	-0.012221	-0.335205	-0.114746	0.702881	158.837759	-84.982868	85.200481
59499		8.785065	0.250037	-1.618338	-0.381613	-0.047951	-0.011103	-0.335938	-0.117432	0.702637	158.689495	-84.954809	85.132472
59500		9.018747	0.250940	-1.466100	-0.360686	-0.052721	0.001154	-0.325928	-0.117920	0.704102	158.631367	-84.925385	84.986934
59501		9.244694	0.241937	-1.368580	-0.342355	-0.065392	0.027373	-0.329590	-0.116455	0.697998	158.776843	-84.895963	84.646603
59502		9.471469	0.289787	-1.314254	-0.343382	-0.093054	0.064874	-0.340576	-0.118164	0.691406	159.197536	-84.857984	84.030265
59503		9.491636	0.302520	-1.239742	-0.352872	-0.123963	0.112328	-0.330322	-0.118652	0.701416	159.961563	-84.813589	83.062778
59504		9.446951	0.352898	-1.252525	-0.356007	-0.161110	0.163545	-0.326904	-0.125244	0.700195	161.079219	-84.756239	81.739227
59505		9.385019	0.326344	-1.334326	-0.339337	-0.176413	0.195703	-0.325195	-0.123047	0.700684	162.405506	-84.694972	80.214720
59506		9.287877	0.362352	-1.362977	-0.301108	-0.176462	0.223443	-0.328369	-0.119385	0.696533	163.874267	-84.633718	78.569872
59507		9.211715	0.442810	-1.454407	-0.261073	-0.169806	0.222607	-0.328857	-0.117920	0.699951	165.323443	-84.573242	76.966685
59508		9.207385	0.545050	-1.523917	-0.250409	-0.146715	0.220146	-0.326660	-0.120117	0.701172	166.689291	-84.520499	75.454078
59509		9.194745	0.672462	-1.613763	-0.238725	-0.119211	0.200305	-0.324463	-0.124268	0.703125	167.893912	-84.478422	74.109189
59510		9.238974	0.781204	-1.640131	-0.235706	-0.078123	0.176805	-0.327148	-0.127197	0.703125	168.889368	-84.453245	72.976966
59511		9.262893	0.874722	-1.568936	-0.236486	-0.048322	0.160345	-0.319580	-0.116943	0.697510	169.757387	-84.442235	71.971475
59512		9.256100	0.950177	-1.633526	-0.241236	-0.049202	0.149804	-0.319824	-0.115723	0.694580	170.549353	-84.427395	71.040462
59513		9.263442	0.978477	-1.729810	-0.263744	-0.068343	0.134164	-0.320068	-0.119385	0.697754	171.258766	-84.399943	70.178631
59514		9.179275	0.917654	-1.916451	-0.287520	-0.099188	0.119258	-0.318115	-0.123535	0.699219	171.877293	-84.351981	69.395156
59515		9.125638	0.819816	-2.029799	-0.278020	-0.120847	0.099757	-0.323730	-0.115723	0.693115	172.402811	-84.290152	68.709822
59516		9.004177	0.737173	-2.158497	-0.266840	-0.157036	0.089288	-0.315430	-0.121826	0.697754	172.879744	-84.205689	68.080390
59517		8.918127	0.562826	-2.300546	-0.265464	-0.190138	0.084050	-0.318604	-0.119873	0.700195	173.341414	-84.102134	67.466306
59518		8.917426	0.474709	-2.332881	-0.273057	-0.201099	0.093438	-0.317139	-0.128906	0.697998	173.829779	-83.991820	66.821574
59519		8.874929	0.473667	-2.331503	-0.275325	-0.190578	0.121066	-0.313965	-0.126465	0.693848	174.445353	-83.888972	66.046822
59520		8.811294	0.549070	-2.419185	-0.275567	-0.173379	0.154262	-0.316895	-0.115967	0.701416	175.197073	-83.796205	65.135517
59521		8.697459	0.707206	-2.524037	-0.308060	-0.169962	0.195040	-0.309814	-0.127441	0.697998	176.122779	-83.706101	64.029655
59522		8.679421	1.022036	-2.675636	-0.365107	-0.169038	0.232247	-0.324463	-0.118896	0.694580	177.170174	-83.615361	62.768921
59523		8.723635	1.296863	-2.922527	-0.452202	-0.190930	0.257195	-0.318115	-0.125488	0.696533	178.270659	-83.510282	61.403697
59524		8.809322	1.505982	-2.638507	-0.622724	-0.226131	0.272824	-0.309082	-0.121582	0.691162	179.307073	-83.382185	60.004908
59525		9.128573	1.486086	-2.330347	-0.844769	-0.276202	0.284649	-0.303955	-0.126953	0.692383	-179.768545	-83.222778	58.589882
59526		9.912593	0.950368	-2.992952	-0.841447	-0.248779	0.244137	-0.299316	-0.132568	0.691162	-179.089812	-83.076968	57.424276
59527		10.833554	0.119136	-3.493847	-0.663728	0.012103	0.138054	-0.311523	-0.134277	0.694580	-178.804863	-83.080511	56.757263
59528		11.581261	-0.432968	-2.934829	-0.397754	0.512222	0.011772	-0.304688	-0.135010	0.682861	-178.918708	-83.371919	56.645995
59529		12.046060	-0.689682	-2.207493	0.004981	0.890823	-0.114881	-0.320068	-0.129150	0.683105	-179.425502	-83.881167	57.161875
59530		12.708206	-1.150283	-0.906620	0.685555	0.956057	-0.217550	-0.332031	-0.125977	0.672119	179.775388	-84.427482	58.363577
59531		13.821315	-2.642639	0.276234	1.128552	0.871019	-0.347554	-0.334229	-0.119141	0.679199	178.208727	-84.921021	60.589427
59532		13.807898	-2.736677	1.661002	1.008840	0.713874	-0.398451	-0.333496	-0.110107	0.670898	175.881572	-85.316017	63.508734
59533		12.895834	-1.530848	1.871839	0.631316	0.135208	-0.298677	-0.327148	-0.107422	0.678467	174.088282	-85.376477	65.673719
59534		12.180062	-0.350881	0.360024	0.305780	-0.516606	-0.116960	-0.327393	-0.110596	0.671387	173.850871	-85.073281	66.091337
59535		11.763870	0.511576	-1.373600	0.152709	-0.752173	0.108701	-0.313965	-0.103760	0.673340	175.110068	-84.648688	64.917740
59536		11.009421	1.349928	-1.673974	0.066080	-0.623422	0.273770	-0.313721	-0.094971	0.669922	177.029858	-84.301211	63.030615
59537		10.689464	1.986551	-0.669243	-0.075180	-0.499925	0.385860	-0.313721	-0.102051	0.671631	179.256012	-84.020306	60.752449
59538		10.514465	2.383262	0.260999	-0.324343	-0.347022	0.436924	-0.316162	-0.094971	0.673096	-178.581765	-83.818091	58.394692
59539		10.379088	2.627681	0.119150	-0.510571	-0.206525	0.460776	-0.316895	-0.097900	0.667969	-176.497037	-83.686736	56.006270
59540		10.125160	2.405661	0.072682	-0.563379	-0.093581	0.444918	-0.312744	-0.104492	0.663574	-174.566278	-83.611496	53.742388
59541		9.654628	1.720669	0.446526	-0.533290	-0.007067	0.424358	-0.319336	-0.106689	0.660645	-172.711723	-83.578775	51.571930
59542		9.059216	0.964560	0.775773	-0.503590	0.026213	0.382197	-0.313721	-0.111328	0.664307	-171.051413	-83.560782	49.614331
59543		8.616524	0.132795	0.885322	-0.518684	0.054910	0.314268	-0.327148	-0.114014	0.659912	-169.719357	-83.560045	47.978074
59544		8.159789	-0.828407	1.161505	-0.476090	0.132556	0.228146	-0.315186	-0.112793	0.663574	-168.718222	-83.608257	46.699715
59545		7.956849	-1.475559	1.205522	-0.410361	0.185903	0.109825	-0.315186	-0.105957	0.653564	-168.197808	-83.698441	45.942870
59546		8.032536	-1.948749	1.120212	-0.358497	0.227435	-0.009656	-0.326660	-0.115234	0.656982	-168.203656	-83.825179	45.745706
59547		8.182998	-2.139587	1.120929	-0.302489	0.270726	-0.115370	-0.317627	-0.121094	0.652344	-168.681493	-83.988906	46.055246
59548		8.461253	-1.991821	0.979666	-0.242072	0.288428	-0.188817	-0.323486	-0.118896	0.635498	-169.537808	-84.169682	46.780291
59549		8.755950	-1.563576	0.836570	-0.192064	0.245018	-0.224154	-0.326172	-0.122803	0.652344	-170.650993	-84.328704	47.791705
59550		9.044088	-1.052623	0.737288	-0.136633	0.176504	-0.214147	-0.325684	-0.122070	0.641602	-171.799595	-84.445434	48.870755
59551		9.413572	-0.696656	0.665892	-0.080119	0.099635	-0.162720	-0.329102	-0.122070	0.641846	-172.706531	-84.513326	49.738954
59552		9.738623	-0.528443	0.375119	-0.024465	0.016626	-0.082871	-0.327148	-0.120117	0.641602	-173.192290	-84.526680	50.216437
59553		10.040261	-0.556816	0.048964	0.015502	-0.045476	0.017521	-0.328125	-0.119629	0.645996	-173.096202	-84.498469	50.131981
59554		10.090179	-0.595094	-0.186219	0.029734	-0.076744	0.121650	-0.315674	-0.127930	0.643555	-172.414956	-84.444129	49.468244
59555		9.983603	-0.619439	-0.220941	0.035540	-0.077553	0.201443	-0.322266	-0.120361	0.641113	-171.275309	-84.382648	48.346764
59556		9.811323	-0.607444	-0.233042	0.051566	-0.059061	0.261925	-0.325684	-0.122314	0.633789	-169.798683	-84.322649	46.896204
59557		9.777836	-0.684830	-0.231483	0.075766	-0.026661	0.284565	-0.334229	-0.111328	0.632813	-168.166193	-84.275349	45.302369
59558		9.966112	-0.736228	-0.219353	0.052695	-0.006148	0.269936	-0.324219	-0.116211	0.634277	-166.637889	-84.236221	43.800275
59559		10.090429	-0.887368	-0.195077	0.014087	0.003912	0.250412	-0.331299	-0.126709	0.628906	-165.234891	-84.202359	42.401353
59560		10.059317	-1.009028	-0.277831	-0.005064	0.008364	0.230125	-0.325195	-0.114258	0.631592	-163.972534	-84.170013	41.133132
59561		9.855383	-0.915500	-0.400567	-0.005362	-0.015181	0.223056	-0.316406	-0.110840	0.628662	-162.790630	-84.123934	39.945063
59562		9.773777	-0.840769	-0.422765	-0.006167	-0.018686	0.224156	-0.327148	-0.118408	0.628906	-161.639264	-84.072547	38.787588
59563		9.678807	-0.727254	-0.617104	0.008942	0.038431	0.208998	-0.324219	-0.113770	0.625488	-160.461952	-84.053267	37.612180
59564		9.884475	-0.556854	-0.356034	0.007719	0.115728	0.222092	-0.324951	-0.118164	0.622559	-159.086593	-84.069536	36.237426
59565		9.878657	-0.482657	-0.477160	0.013939	0.105412	0.231673	-0.333008	-0.103271	0.627930	-157.661684	-84.075508	34.815988
59566		9.803829	-0.487376	-0.530548	0.016777	0.138953	0.225350	-0.324951	-0.111572	0.624268	-156.202421	-84.096217	33.362160
59567		9.539648	-0.520854	-0.584964	0.026342	0.148974	0.197089	-0.326416	-0.116211	0.622314	-154.834466	-84.125818	32.005231
59568		9.124514	-0.584380	-0.659392	0.048615	0.161108	0.166177	-0.329590	-0.115723	0.617188	-153.577987	-84.165561	30.773743
59569		8.886211	-0.710252	-0.705845	0.073339	0.174533	0.127748	-0.337158	-0.110840	0.615234	-152.435210	-84.220123	29.670418
59570		8.817223	-0.931742	-0.732725	0.096285	0.196468	0.096215	-0.341553	-0.105713	0.614014	-151.369572	-84.291537	28.658427
59571		8.921358	-1.170585	-0.640016	0.104009	0.217567	0.081486	-0.332275	-0.113037	0.617188	-150.273526	-84.376246	27.619975
59572		9.163462	-1.354893	-0.521664	0.107315	0.228052	0.082805	-0.336182	-0.106445	0.612793	-149.118869	-84.463209	26.525176
59573		9.311540	-1.532763	-0.476564	0.103974	0.215816	0.084367	-0.337891	-0.107178	0.608154	-147.947031	-84.542024	25.410818
59574		9.414614	-1.531706	-0.503989	0.122734	0.191761	0.088498	-0.337646	-0.111572	0.611084	-146.805382	-84.605334	24.338244
59575		9.392110	-1.515242	-0.614899	0.170207	0.153463	0.088088	-0.335938	-0.096924	0.609131	-145.729012	-84.648949	23.358065
59576		9.363795	-1.504854	-0.703778	0.233911	0.156706	0.085680	-0.345459	-0.100098	0.600586	-144.615969	-84.692746	22.378367
59577		9.271287	-1.539093	-0.715694	0.289225	0.163584	0.069347	-0.336914	-0.101807	0.597168	-143.493758	-84.743755	21.420725
59578		9.241078	-1.483841	-0.637487	0.334964	0.160968	0.058728	-0.343506	-0.101563	0.604736	-142.405063	-84.795242	20.523775
59579		9.200070	-1.447557	-0.800476	0.380284	0.147824	0.058467	-0.344727	-0.096680	0.597412	-141.306609	-84.839551	19.642467
59580		9.227857	-1.286994	-0.942893	0.438499	0.145279	0.049836	-0.345459	-0.096680	0.606201	-140.228423	-84.884147	18.815761
59581		9.213912	-1.077276	-0.906244	0.456302	0.132670	0.049931	-0.344727	-0.089355	0.597656	-139.158053	-84.921932	18.006443
59582		9.244945	-0.897962	-0.867654	0.454699	0.098141	0.058227	-0.346191	-0.087891	0.598145	-138.201849	-84.940342	17.311604
59583		9.253770	-0.721288	-1.072578	0.456885	0.078775	0.047374	-0.349609	-0.084717	0.599609	-137.357251	-84.953804	16.729301
59584		9.238125	-0.567175	-1.110135	0.458719	0.087952	0.039936	-0.352051	-0.083008	0.592041	-136.520359	-84.973231	16.156584
59585		9.154930	-0.477145	-1.259301	0.442631	0.064694	0.009942	-0.349121	-0.071045	0.595215	-135.916044	-84.994295	15.807314
59586		9.116065	-0.505818	-1.265927	0.433951	0.088064	-0.016024	-0.348877	-0.080566	0.593994	-135.344758	-85.035036	15.487011
59587		9.031692	-0.561317	-1.186832	0.410260	0.086602	-0.045865	-0.360352	-0.078613	0.596680	-134.909213	-85.086957	15.288559
59588		8.928376	-0.597490	-1.083333	0.398228	0.103446	-0.059967	-0.355469	-0.076904	0.580322	-134.477769	-85.151333	15.088117
59589		8.942882	-0.587404	-1.118287	0.386981	0.097812	-0.070336	-0.344238	-0.076172	0.588623	-134.103583	-85.217507	14.937882
59590		8.961774	-0.658615	-1.270412	0.366770	0.090850	-0.072567	-0.359375	-0.078613	0.586670	-133.797446	-85.281845	14.845130
59591		9.060274	-0.712887	-1.190954	0.324908	0.091727	-0.063433	-0.358398	-0.063965	0.587158	-133.443272	-85.342577	14.679305
59592		9.197636	-0.772015	-1.126939	0.290511	0.086432	-0.050135	-0.352051	-0.069580	0.590576	-133.082917	-85.395725	14.488337
59593		9.257813	-0.764002	-1.124659	0.283160	0.084012	-0.040328	-0.354736	-0.072510	0.575684	-132.667329	-85.443540	14.236910
59594		9.309042	-0.875851	-1.145526	0.262773	0.076804	-0.040848	-0.361572	-0.068359	0.587891	-132.315735	-85.488825	14.038812
59595		9.327812	-0.978345	-1.096962	0.267326	0.071703	-0.040436	-0.356445	-0.063232	0.582031	-131.963832	-85.531663	13.842174
59596		9.410552	-1.156492	-1.093089	0.290195	0.078350	-0.044609	-0.355469	-0.071045	0.577637	-131.595298	-85.578947	13.642869
59597		9.442483	-1.280061	-1.118662	0.322652	0.087897	-0.053574	-0.358398	-0.064209	0.578369	-131.174457	-85.633321	13.408868
59598		9.481449	-1.369215	-1.059162	0.348657	0.066596	-0.058372	-0.357910	-0.071045	0.578857	-130.894725	-85.681927	13.332241
59599		9.534446	-1.391814	-0.985868	0.377335	0.057216	-0.060695	-0.352539	-0.065186	0.574219	-130.642216	-85.727667	13.298441
59600		9.524129	-1.343163	-1.099923	0.409094	0.051817	-0.059196	-0.349365	-0.062256	0.564209	-130.411136	-85.771076	13.305332
59601		9.500718	-1.272651	-1.138188	0.419911	0.043898	-0.062777	-0.354736	-0.064941	0.568848	-130.218203	-85.812717	13.355675
59602		9.451284	-1.220043	-1.238700	0.431611	0.042890	-0.074040	-0.358887	-0.050781	0.568604	-130.099562	-85.859330	13.488239
59603		9.388945	-1.143757	-1.262294	0.454098	0.062727	-0.089447	-0.357178	-0.058350	0.569336	-129.906979	-85.919582	13.558514
59604		9.351707	-1.135092	-1.235797	0.463949	0.070949	-0.105648	-0.358398	-0.048340	0.562256	-129.759432	-85.990454	13.680653
59605		9.360194	-1.218252	-1.335753	0.479201	0.069371	-0.118050	-0.356689	-0.045410	0.562988	-129.659406	-86.065723	13.858065
59606		9.427952	-1.294826	-1.442452	0.499125	0.067278	-0.118504	-0.362061	-0.051270	0.560547	-129.585272	-86.140958	14.073967
59607		9.397074	-1.431442	-1.507779	0.517634	0.051907	-0.116242	-0.360596	-0.048340	0.548096	-129.573316	-86.209024	14.361626
59608		9.308696	-1.494260	-1.632523	0.530288	0.029915	-0.105359	-0.354980	-0.047607	0.556885	-129.666642	-86.264807	14.763210
59609		9.174727	-1.500203	-1.739040	0.551446	0.020149	-0.099375	-0.354248	-0.046875	0.550537	-129.767629	-86.313689	15.183352
59610		9.079345	-1.421259	-1.775339	0.588471	-0.007479	-0.089510	-0.358643	-0.047363	0.550293	-130.007572	-86.348641	15.765215
59611		9.062359	-1.298109	-1.863922	0.585364	-0.032179	-0.095521	-0.355225	-0.049805	0.553223	-130.442470	-86.376148	16.539306
59612		9.038043	-1.208970	-1.961361	0.593761	-0.061549	-0.104532	-0.362549	-0.045898	0.541992	-131.157442	-86.396776	17.600146
59613		9.162039	-1.131305	-1.943314	0.616397	-0.080305	-0.111291	-0.360107	-0.040039	0.543457	-132.017983	-86.411479	18.818437
59614		9.135716	-1.092209	-1.947896	0.633015	-0.083122	-0.109354	-0.358154	-0.034668	0.546631	-132.904274	-86.423854	20.073430
59615		9.056597	-0.995200	-1.913877	0.630982	-0.107539	-0.111799	-0.354004	-0.040527	0.543701	-133.955613	-86.425497	21.491186
59616		8.951698	-1.073557	-2.002950	0.677333	-0.114287	-0.107084	-0.356445	-0.039307	0.545654	-135.014045	-86.421654	22.944090
59617		9.074936	-1.109151	-1.943669	0.771933	-0.045379	-0.102586	-0.355469	-0.035889	0.548584	-135.526067	-86.441968	23.902341
59618		9.490386	-0.807269	-1.601793	0.787512	-0.039909	-0.077164	-0.355225	-0.032715	0.539307	-135.852594	-86.454740	24.685142
59619		10.171382	-0.550736	-0.940836	0.631079	-0.090306	-0.014575	-0.366943	-0.033936	0.542725	-136.155970	-86.420682	25.353440
59620		10.780149	0.075441	-0.480803	0.305418	-0.278406	0.059305	-0.357178	-0.038574	0.535400	-137.316734	-86.279458	26.695475
59621		11.475073	0.668637	-0.861962	-0.156290	-0.465434	0.138829	-0.359375	-0.033447	0.541016	-139.155469	-86.024926	28.450692
59622		12.157970	0.776957	-0.843991	-0.611239	-0.397447	0.222542	-0.345703	-0.046631	0.542480	-140.211178	-85.766983	29.161566
59623		12.737099	1.338435	-0.479506	-0.896263	-0.083397	0.327566	-0.356201	-0.041748	0.540771	-139.227145	-85.606608	27.661943
59624		13.087660	1.628636	0.053840	-1.249411	0.096546	0.405661	-0.350098	-0.047607	0.543701	-137.249048	-85.491247	24.963410
59625		12.928222	1.197589	0.242623	-1.533460	0.067818	0.408912	-0.355713	-0.060303	0.537842	-135.666114	-85.355493	22.496330
59626		12.219083	0.556609	0.190080	-1.387785	-0.109615	0.344723	-0.345459	-0.064453	0.541748	-135.300253	-85.170476	21.334919
59627		11.363281	-0.549643	-0.264073	-0.937647	-0.265345	0.213083	-0.362061	-0.076416	0.527832	-136.052272	-84.974008	21.552959
59628		10.444705	-1.492303	-0.283806	-0.400973	-0.255516	0.029469	-0.351807	-0.075195	0.537842	-137.278920	-84.854166	22.557380
59629		9.985584	-2.206419	-0.535831	-0.063302	-0.213904	-0.182229	-0.347412	-0.080566	0.533936	-139.077000	-84.830056	24.328806
59630		9.903382	-2.888574	-0.473831	0.048175	-0.116788	-0.358657	-0.347168	-0.090820	0.534180	-141.289383	-84.908446	26.581372
59631		9.633507	-3.409285	-0.182266	0.167888	-0.069428	-0.461211	-0.355957	-0.083496	0.531494	-143.844289	-85.035080	29.245048
59632		9.707094	-3.368548	0.112619	0.325798	-0.072669	-0.493638	-0.351563	-0.097168	0.524902	-146.647179	-85.160273	32.249148
59633		9.891520	-2.823322	0.366264	0.480545	-0.065981	-0.467308	-0.348877	-0.083496	0.536865	-149.309114	-85.267796	35.198859
59634		10.126386	-1.927574	0.567776	0.525908	-0.035743	-0.374462	-0.346436	-0.095947	0.528564	-151.406368	-85.354212	37.609060
59635		10.293399	-0.991164	0.753482	0.486537	0.007704	-0.243529	-0.350098	-0.091064	0.538574	-152.611260	-85.421262	39.099605
59636		10.139511	0.018644	0.885476	0.511482	0.033723	-0.121346	-0.357666	-0.091553	0.530762	-152.984058	-85.468298	39.771140
59637		9.868379	0.835214	1.090987	0.580865	0.059196	-0.039692	-0.352051	-0.094482	0.532227	-152.692210	-85.506632	39.814317
59638		9.447427	1.217237	1.140172	0.582338	0.069442	-0.003009	-0.343506	-0.085938	0.530518	-152.143564	-85.540764	39.602238
59639		9.015122	1.322108	1.136211	0.563229	0.060706	0.014759	-0.358887	-0.087402	0.525635	-151.495248	-85.565339	39.277844
59640		8.822431	1.154632	1.249267	0.558054	0.049771	0.029685	-0.359375	-0.087158	0.528076	-150.806789	-85.580188	38.911592
59641		8.864542	0.843048	1.317242	0.520070	0.107609	0.026866	-0.356445	-0.088623	0.530273	-149.920891	-85.624207	38.324259
59642		8.983644	0.553575	1.390086	0.486907	0.160327	0.011779	-0.361572	-0.091309	0.525391	-148.951947	-85.697964	37.635878
59643		9.224581	0.337855	1.403404	0.445790	0.157427	-0.010256	-0.358887	-0.087402	0.524902	-148.115037	-85.776122	37.055183
59644		9.627657	0.287688	1.417526	0.432222	0.116167	-0.031134	-0.357178	-0.086914	0.524170	-147.593470	-85.840072	36.784094
59645		9.910898	0.281528	1.223713	0.375452	0.104973	-0.061502	-0.367676	-0.088867	0.525879	-147.324363	-85.908002	36.732440
59646		9.848181	0.407232	1.067868	0.289605	0.065586	-0.087175	-0.357422	-0.093994	0.524170	-147.469315	-85.964678	37.047675
59647		9.772392	0.588247	0.931157	0.222555	0.019939	-0.142205	-0.365479	-0.086670	0.520752	-148.221192	-86.016113	37.931763
59648		9.468291	0.742815	0.804576	0.124107	-0.008051	-0.195382	-0.353516	-0.092529	0.521729	-149.573031	-86.068090	39.361678
59649		9.452141	0.762454	0.646920	0.041233	-0.021595	-0.241896	-0.354492	-0.088135	0.520508	-151.387063	-86.124175	41.206226
59650		9.514883	0.719434	0.483109	-0.001000	-0.006526	-0.285136	-0.366699	-0.091553	0.513672	-153.573181	-86.194427	43.400255
59651		9.624425	0.664816	0.409271	-0.016083	0.021904	-0.321791	-0.358398	-0.101563	0.530273	-156.018111	-86.283040	45.843920
59652		9.595384	0.660415	0.277559	-0.026467	0.042297	-0.351232	-0.364990	-0.100342	0.524170	-158.785528	-86.380819	48.605384
59653		9.468214	0.687351	0.197889	-0.040207	0.044313	-0.361426	-0.362305	-0.105957	0.521484	-161.770916	-86.473532	51.576257
59654		9.385345	0.732057	0.029504	-0.036774	0.040554	-0.365932	-0.363281	-0.107422	0.530518	-164.976790	-86.553857	54.770527
59655		9.375144	0.787147	0.007929	-0.042130	0.055203	-0.360725	-0.363037	-0.109863	0.522461	-168.230433	-86.631625	58.008561
59656		9.336323	0.736957	0.025912	-0.042046	0.067012	-0.341765	-0.362549	-0.113281	0.520752	-171.440161	-86.702058	61.203158
59657		9.395910	0.711159	0.172843	-0.037403	0.064127	-0.321847	-0.360107	-0.117920	0.524658	-174.561868	-86.760279	64.311354
59658		9.399936	0.608039	0.276632	-0.045046	0.081647	-0.295914	-0.358398	-0.117188	0.529541	-177.533266	-86.816747	67.265137
59659		9.436437	0.497033	0.186992	-0.059218	0.080985	-0.262413	-0.367920	-0.119385	0.528809	179.752606	-86.865500	69.952329
59660		9.365235	0.331390	0.063921	-0.075522	0.050501	-0.225373	-0.365723	-0.124268	0.526123	177.344738	-86.889306	72.324006
59661		9.282924	0.271250	-0.084021	-0.109341	0.046516	-0.194511	-0.372070	-0.125732	0.527832	175.225696	-86.908259	74.386362
59662		9.265225	0.240981	-0.110867	-0.106083	0.069177	-0.166980	-0.367432	-0.135254	0.519287	173.338835	-86.936368	76.218643
59663		9.168946	0.338610	-0.098667	-0.112703	0.106245	-0.149178	-0.366699	-0.131592	0.530029	171.556565	-86.985163	77.941720
59664		9.196668	0.433830	-0.076203	-0.108027	0.106587	-0.125884	-0.364502	-0.124023	0.521240	169.965138	-87.032114	79.476902
59665		9.231925	0.506943	-0.027506	-0.136415	0.098867	-0.125031	-0.360596	-0.137695	0.523926	168.342729	-87.074036	81.026182
59666		9.268281	0.669060	0.001331	-0.149972	0.094455	-0.122124	-0.358154	-0.145508	0.524902	166.704507	-87.110066	82.584040
59667		9.390963	0.690186	0.095299	-0.152302	0.067891	-0.112397	-0.367676	-0.138672	0.521240	165.217030	-87.132028	83.989046
59668		9.404271	0.792870	0.035420	-0.181935	0.045076	-0.113212	-0.366211	-0.138672	0.520996	163.750750	-87.137919	85.356352
59669		9.376399	0.822740	-0.117997	-0.218091	0.028315	-0.105372	-0.361572	-0.146729	0.519287	162.405673	-87.135787	86.581063
59670		9.237928	0.841965	-0.202870	-0.241618	0.002757	-0.097248	-0.359863	-0.142822	0.520508	161.228930	-87.118309	87.624239
59671		9.184121	0.864967	-0.265442	-0.270891	-0.008537	-0.093436	-0.366211	-0.149170	0.515869	160.134221	-87.095947	88.568054
59672		9.171965	0.852604	-0.368809	-0.297617	0.019926	-0.097803	-0.362305	-0.156250	0.525879	158.879503	-87.085479	89.657212
59673		9.181257	0.809700	-0.364374	-0.321624	0.049240	-0.111526	-0.359863	-0.154053	0.525635	157.350860	-87.087843	91.006482
59674		9.252396	0.723731	-0.344264	-0.333224	0.069752	-0.123345	-0.362549	-0.157227	0.518555	155.599544	-87.094801	92.572450
59675		9.315842	0.660411	-0.349024	-0.347643	0.077984	-0.132280	-0.364014	-0.165283	0.523926	153.698330	-87.102787	94.279867
59676		9.271505	0.642678	-0.330069	-0.369444	0.052915	-0.125990	-0.357422	-0.163330	0.519775	151.976810	-87.095413	95.795211
59677		9.222784	0.605762	-0.444729	-0.383897	0.005914	-0.108877	-0.356689	-0.166016	0.514160	150.677706	-87.068563	96.878993
59678		9.164534	0.524407	-0.621485	-0.381241	-0.032121	-0.095753	-0.358398	-0.174316	0.515625	149.745198	-87.024006	97.597578
59679		9.157833	0.452588	-0.785710	-0.368237	-0.040668	-0.087531	-0.358887	-0.169678	0.523926	148.963088	-86.978520	98.172742
59680		9.196514	0.279992	-0.771159	-0.346016	-0.052697	-0.068135	-0.356934	-0.169678	0.520264	148.463772	-86.931154	98.477796
59681		9.237922	0.253366	-0.818836	-0.309308	-0.069742	-0.036757	-0.358887	-0.186523	0.518799	148.367276	-86.886199	98.400216
59682		9.332418	0.207953	-0.803789	-0.287061	-0.072278	0.003916	-0.357666	-0.178223	0.509033	148.663724	-86.850770	97.942169
59683		9.360897	0.258897	-0.821725	-0.251467	-0.075273	0.043410	-0.352295	-0.183594	0.511475	149.333202	-86.826690	97.130633
59684		9.505635	0.329999	-0.855276	-0.236026	-0.063898	0.076717	-0.360107	-0.183105	0.522461	150.243368	-86.815853	96.087187
59685		9.602456	0.519315	-0.835305	-0.260759	-0.049663	0.100610	-0.355469	-0.187012	0.520264	151.274167	-86.819195	94.908428
59686		9.531223	0.692974	-0.938298	-0.273913	-0.052767	0.129291	-0.357666	-0.186768	0.527100	152.579799	-86.826010	93.447168
59687		9.587223	0.820462	-0.857674	-0.269031	-0.044939	0.154393	-0.352539	-0.189209	0.517822	154.089621	-86.842618	91.783953
59688		9.621048	0.897727	-0.787847	-0.270605	-0.034137	0.162290	-0.362793	-0.192627	0.530029	155.644462	-86.862965	90.075048
59689		9.582461	0.997944	-0.912126	-0.281184	-0.024478	0.157400	-0.353271	-0.197021	0.525146	157.125078	-86.886055	88.434215
59690		9.547215	1.048078	-0.938252	-0.295153	-0.007728	0.148873	-0.363770	-0.188721	0.526611	158.471523	-86.912683	86.920003
59691		9.479399	1.088941	-0.769019	-0.315221	-0.002517	0.131048	-0.365234	-0.186523	0.516846	159.631131	-86.937889	85.581245
59692		9.426476	1.007687	-0.816561	-0.337322	-0.012384	0.106068	-0.353271	-0.199219	0.522705	160.579419	-86.950342	84.441623
59693		9.307045	0.842835	-1.023097	-0.348891	-0.013564	0.068297	-0.353760	-0.196777	0.526123	161.146382	-86.955456	83.677121
59694		9.226844	0.661382	-1.043790	-0.353351	-0.012663	0.043056	-0.357910	-0.201416	0.520996	161.452310	-86.954913	83.171582
59695		9.143000	0.538686	-1.083871	-0.353047	-0.013820	0.033124	-0.356934	-0.208252	0.526367	161.659610	-86.952970	82.764904
59696		9.082294	0.463974	-1.111263	-0.385317	-0.014802	0.043999	-0.363281	-0.201904	0.527344	161.963428	-86.951191	82.243135
59697		9.046593	0.523592	-1.213581	-0.440057	-0.012048	0.065953	-0.353516	-0.205322	0.516113	162.451054	-86.955669	81.505827
59698		9.111837	0.652577	-1.378634	-0.496688	-0.014833	0.090554	-0.355713	-0.204102	0.521973	163.171192	-86.961273	80.503254
59699		9.153172	0.856856	-1.459293	-0.537521	-0.007696	0.117902	-0.363037	-0.212646	0.523682	164.134549	-86.975471	79.233657
59700		9.278146	0.972176	-1.425953	-0.567883	0.002885	0.143731	-0.362061	-0.216553	0.519775	165.333713	-86.997104	77.710572
59701		9.308093	1.045901	-1.476383	-0.576562	-0.017627	0.147425	-0.350830	-0.215820	0.523438	166.638288	-87.007061	76.076968
59702		9.369048	1.023281	-1.511394	-0.592919	-0.048127	0.137988	-0.357666	-0.219238	0.527588	167.909272	-86.995887	74.467623
59703		9.343038	0.910915	-1.641670	-0.603799	-0.072868	0.113368	-0.362305	-0.228027	0.523438	168.950947	-86.967192	73.081673
59704		9.441511	0.771367	-1.720641	-0.585467	-0.090107	0.093845	-0.356689	-0.218018	0.518066	169.805305	-86.924631	71.893738
59705		9.452937	0.663504	-1.872978	-0.577985	-0.112185	0.070647	-0.351318	-0.219727	0.530273	170.433551	-86.867324	70.936555
59706		9.467960	0.591249	-1.943911	-0.601821	-0.146640	0.064223	-0.358643	-0.241699	0.520752	171.008026	-86.788587	70.019415
59707		9.433056	0.455841	-2.019219	-0.628870	-0.163440	0.072728	-0.348389	-0.232422	0.517090	171.639727	-86.701261	69.029441
59708		9.404100	0.321578	-1.965552	-0.630752	-0.163297	0.092835	-0.352783	-0.238037	0.514648	172.420523	-86.614205	67.888869
59709		9.428099	0.311196	-1.947850	-0.603761	-0.150423	0.129927	-0.349365	-0.242188	0.515381	173.503765	-86.536633	66.460782
59710		9.430527	0.344624	-2.027670	-0.597448	-0.134550	0.168727	-0.349854	-0.240967	0.520020	174.878957	-86.467915	64.743637
59711		9.404019	0.297035	-2.131689	-0.595838	-0.112948	0.195850	-0.351074	-0.250244	0.525635	176.431122	-86.410602	62.850052
59712		9.409013	0.295950	-2.160908	-0.585224	-0.057075	0.212501	-0.351318	-0.245605	0.519043	178.066196	-86.381940	60.879332
59713		9.359478	0.378270	-2.256925	-0.612024	0.005121	0.228398	-0.359131	-0.246094	0.517334	179.800194	-86.385895	58.794129
59714		9.276363	0.528109	-2.365976	-0.683295	0.043174	0.234932	-0.350586	-0.260986	0.513428	-178.436620	-86.407157	56.638742
59715		9.072217	0.632396	-2.542109	-0.784973	0.064114	0.241205	-0.356201	-0.251953	0.511719	-176.639681	-86.436367	54.391268
59716		8.893763	0.628473	-2.188055	-0.896976	0.101482	0.250028	-0.351074	-0.257324	0.517334	-174.763648	-86.481714	52.000300
59717		8.856439	0.490050	-1.276910	-0.973376	0.128957	0.257313	-0.357178	-0.265625	0.501953	-172.775739	-86.537480	49.453567
59718		9.458275	0.036190	-1.354176	-0.824393	0.053900	0.226343	-0.353516	-0.270508	0.512695	-171.041895	-86.547871	47.246923
59719		10.398955	-0.723742	-1.963370	-0.549788	0.025959	0.140082	-0.353760	-0.267334	0.509033	-169.994775	-86.547556	45.885933
59720		10.958107	-1.149534	-1.927786	-0.292400	0.097875	0.022677	-0.360107	-0.263672	0.505859	-169.776437	-86.598538	45.502936
59721		11.525322	-1.192518	-2.052438	-0.080153	0.298381	-0.071238	-0.356934	-0.272461	0.507568	-169.987887	-86.772158	45.672265
59722		12.491471	-1.377609	-1.586719	0.070133	0.764661	-0.131157	-0.360596	-0.275391	0.497803	-169.890843	-87.214725	45.618890
59723		13.678298	-1.669409	-1.096063	0.521443	1.149173	-0.188985	-0.371582	-0.267822	0.499268	-169.287785	-87.879950	45.317747
59724		14.382737	-2.003721	0.186897	1.159393	1.395962	-0.254070	-0.364014	-0.274658	0.501221	-168.156398	-88.690856	44.854018
59725		13.664358	-1.412341	1.777197	1.299302	1.159356	-0.194437	-0.375488	-0.259766	0.497803	-164.527294	-89.360878	41.972308
59726		12.091202	-0.244637	2.281981	0.932577	0.208013	0.011281	-0.381348	-0.253906	0.494141	-159.807340	-89.470468	37.790024
59727		11.232909	1.015694	1.800697	0.273599	-0.611194	0.229778	-0.382080	-0.256104	0.494385	-159.495157	-89.094460	37.637903
59728		10.767436	1.738775	0.474952	-0.150482	-0.650244	0.395502	-0.378418	-0.254883	0.495361	-156.067233	-88.661716	34.126669
59729		10.344899	1.860843	-0.016086	-0.324322	-0.429905	0.487352	-0.373779	-0.257813	0.504395	-150.942888	-88.314520	28.818119
59730		10.027431	2.065390	0.997053	-0.390297	-0.332812	0.535306	-0.372070	-0.265381	0.508301	-146.150450	-87.989597	23.803030
59731		9.677674	2.128644	1.309436	-0.477413	-0.390488	0.535948	-0.379639	-0.254639	0.508057	-143.257897	-87.627746	20.638234
59732		9.467275	2.125190	0.910593	-0.574611	-0.366547	0.479816	-0.375244	-0.257080	0.501465	-141.575171	-87.291748	18.627872
59733		9.391628	1.737703	0.800728	-0.643600	-0.244448	0.398836	-0.381104	-0.256592	0.509277	-140.156760	-87.037347	16.842302
59734		9.074063	1.032019	1.089927	-0.640031	-0.118941	0.316097	-0.371582	-0.256104	0.497559	-138.780946	-86.866030	15.100874
59735		8.866498	0.224730	1.465386	-0.623172	-0.032267	0.223082	-0.380615	-0.255859	0.498047	-137.653525	-86.765705	13.618032
59736		8.795058	-0.557710	1.649776	-0.617393	0.058531	0.123895	-0.368896	-0.257080	0.500732	-136.698853	-86.740275	12.311080
59737		8.766179	-1.190361	1.569110	-0.573342	0.128842	-0.000500	-0.376709	-0.262939	0.499756	-136.136901	-86.792682	11.423197
59738		8.889329	-1.624356	1.459229	-0.501068	0.200470	-0.120729	-0.376953	-0.273438	0.492676	-135.889937	-86.921611	10.891902
59739		9.018671	-1.796480	1.483360	-0.445135	0.239376	-0.216488	-0.376465	-0.266357	0.493652	-136.032083	-87.105194	10.782825
59740		9.124887	-1.826622	1.462236	-0.402885	0.215469	-0.258228	-0.380371	-0.273926	0.498047	-136.725476	-87.294877	11.249497
59741		9.396985	-1.830810	1.389273	-0.311162	0.098785	-0.227222	-0.380615	-0.276611	0.488281	-138.155928	-87.423391	12.506928
59742		9.717547	-1.738788	1.220741	-0.177324	-0.027007	-0.123937	-0.371094	-0.277100	0.490234	-139.696184	-87.456588	13.950583
59743		9.958924	-1.617276	1.031220	-0.045970	-0.125606	0.019215	-0.368164	-0.284424	0.490967	-140.559706	-87.393055	14.792499
59744		10.050323	-1.568064	0.766970	0.050735	-0.223965	0.173292	-0.373779	-0.275146	0.491455	-140.643132	-87.229055	14.908680
59745		10.168046	-1.503701	0.648463	0.101039	-0.278311	0.309932	-0.372070	-0.267334	0.503662	-139.895833	-86.991675	14.222245
59746		10.208392	-1.376684	0.716001	0.116107	-0.246934	0.403575	-0.365234	-0.277832	0.507568	-138.340224	-86.731542	12.734491
59747		9.958665	-1.161478	0.646823	0.111978	-0.178341	0.434289	-0.371826	-0.272461	0.501709	-136.352463	-86.486525	10.811347
59748		9.669808	-0.977725	0.639350	0.126051	-0.169031	0.431203	-0.378418	-0.257080	0.489014	-134.587517	-86.242451	9.118780
59749		9.526822	-0.889015	0.513085	0.134499	-0.183257	0.406708	-0.373535	-0.267578	0.493164	-133.238940	-86.000526	7.848181
59750		9.363705	-0.866946	0.384723	0.130259	-0.187225	0.374499	-0.374023	-0.263428	0.499023	-132.245179	-85.768426	6.930247
59751		9.245102	-0.970656	0.125404	0.112075	-0.160656	0.338146	-0.372559	-0.258789	0.505127	-131.378768	-85.561451	6.129595
59752		9.077396	-1.068564	0.093534	0.089967	-0.147870	0.299671	-0.375244	-0.260742	0.508789	-130.720059	-85.374651	5.524099
59753		8.936817	-1.159996	-0.062164	0.100291	-0.173438	0.263278	-0.370605	-0.261475	0.503174	-130.385536	-85.194230	5.249943
59754		8.841963	-1.204395	-0.110901	0.124835	-0.167049	0.234519	-0.375000	-0.256592	0.510498	-130.160882	-85.028180	5.099827
59755		8.902254	-1.278618	-0.067171	0.123965	-0.149677	0.205437	-0.374512	-0.254395	0.509521	-129.971366	-84.881687	4.984706
59756		9.065751	-1.383864	0.053260	0.117524	-0.119686	0.179884	-0.372070	-0.255859	0.502197	-129.763926	-84.756972	4.847600
59757		9.222106	-1.354338	-0.025941	0.129517	-0.093875	0.147638	-0.366943	-0.246094	0.507568	-129.549947	-84.656298	4.711039
59758		9.343992	-1.216721	-0.215800	0.162640	-0.083899	0.119239	-0.384277	-0.255371	0.505615	-129.397412	-84.571357	4.655001
59759		9.438886	-1.103975	-0.315279	0.195568	-0.081663	0.102867	-0.373535	-0.249268	0.510986	-129.268885	-84.494879	4.642242
59760		9.479397	-1.050236	-0.421563	0.208214	-0.071411	0.098070	-0.378906	-0.248535	0.505371	-129.117935	-84.423836	4.614016
59761		9.427821	-1.010475	-0.374002	0.212334	-0.067810	0.105523	-0.376709	-0.247559	0.510254	-128.911827	-84.351159	4.532940
59762		9.391746	-1.070344	-0.375611	0.211881	-0.060833	0.115686	-0.373535	-0.246582	0.500488	-128.653670	-84.276027	4.399082
59763		9.310045	-1.124678	-0.414394	0.199466	-0.046696	0.119571	-0.374268	-0.249268	0.513184	-128.320001	-84.204504	4.182359
59764		9.271160	-1.243777	-0.403413	0.182336	-0.018146	0.111143	-0.381836	-0.242676	0.521729	-127.917620	-84.146368	3.886480
59765		9.172890	-1.376021	-0.305589	0.197421	0.012621	0.099026	-0.376953	-0.243652	0.507080	-127.407670	-84.104613	3.491306
59766		9.010972	-1.469697	-0.372772	0.234930	0.013165	0.076800	-0.374512	-0.232910	0.509033	-126.965513	-84.072516	3.185687
59767		8.960203	-1.562822	-0.354669	0.255544	-0.014805	0.055338	-0.380371	-0.237793	0.508789	-126.697438	-84.040775	3.067097
59768		9.015965	-1.613538	-0.426411	0.271061	-0.028822	0.042285	-0.373535	-0.240967	0.512695	-126.538082	-84.009890	3.066603
59769		9.088852	-1.581531	-0.366758	0.289768	-0.034552	0.035356	-0.375488	-0.235596	0.514893	-126.404458	-83.980526	3.102868
59770		9.153078	-1.455690	-0.470438	0.312665	-0.056872	0.046935	-0.383057	-0.237793	0.512939	-126.329912	-83.937966	3.211628
59771		9.266680	-1.253089	-0.514656	0.316535	-0.059774	0.074489	-0.375977	-0.229248	0.513184	-126.166284	-83.881969	3.233111
59772		9.309217	-1.032140	-0.629026	0.311480	-0.070356	0.109433	-0.374023	-0.235596	0.509277	-125.954960	-83.805975	3.203641
59773		9.315370	-0.883066	-0.851193	0.302870	-0.060113	0.134282	-0.380615	-0.232178	0.517578	-125.620851	-83.722086	3.045744
59774		9.326697	-0.769504	-0.975090	0.274681	-0.043947	0.143388	-0.368652	-0.227783	0.512207	-125.225847	-83.638978	2.810249
59775		9.319997	-0.763838	-0.921072	0.219642	-0.034660	0.132897	-0.379883	-0.232178	0.514648	-124.851039	-83.563890	2.563358
59776		9.297096	-0.814211	-0.962811	0.184039	-0.005027	0.109809	-0.382080	-0.228271	0.523926	-124.457748	-83.508948	2.277254
59777		9.229037	-0.862036	-0.962462	0.175076	0.040150	0.076524	-0.382568	-0.223389	0.515625	-123.970578	-83.484279	1.891520
59778		9.185067	-0.954871	-0.884842	0.164007	0.063365	0.050752	-0.378906	-0.218750	0.516846	-123.478203	-83.478721	1.494103
59779		9.122792	-1.023835	-0.858810	0.150408	0.063305	0.027557	-0.385498	-0.220459	0.512939	-123.047489	-83.484057	1.150946
59780		9.146504	-1.074908	-0.777722	0.140065	0.053375	0.018590	-0.382813	-0.215332	0.516357	-122.698972	-83.490199	0.884520
59781		9.138571	-1.104503	-0.858995	0.153702	0.034861	0.013135	-0.379395	-0.227783	0.514160	-122.424792	-83.493238	0.700802
59782		9.166477	-1.080991	-1.022225	0.154723	0.042083	0.005810	-0.375732	-0.226074	0.515625	-122.149214	-83.501805	0.516245
59783		9.131957	-1.125369	-1.088169	0.164438	0.062101	-0.015091	-0.385254	-0.220947	0.514404	-121.827077	-83.526603	0.290437
59784		9.016704	-1.104057	-1.109328	0.207065	0.092203	-0.037613	-0.386475	-0.218506	0.521729	-121.418283	-83.571169	0.002015
59785		9.010129	-1.133870	-1.106885	0.270516	0.117223	-0.071360	-0.390625	-0.219971	0.517578	-120.937101	-83.639514	-0.322666
59786		8.985305	-1.145360	-1.078396	0.322034	0.121090	-0.097514	-0.392822	-0.217041	0.517822	-120.479791	-83.721518	-0.593551
59787		9.012909	-1.154751	-1.033586	0.362447	0.113670	-0.116799	-0.387207	-0.216797	0.513672	-120.064196	-83.810719	-0.799204
59788		8.910265	-1.152844	-0.974185	0.410355	0.103982	-0.120555	-0.382080	-0.212891	0.517578	-119.677495	-83.898845	-0.948085
59789		8.855708	-1.097500	-0.889458	0.442368	0.092108	-0.103214	-0.384033	-0.214600	0.518555	-119.264012	-83.974850	-1.105533
59790		8.733798	-0.827520	-0.860337	0.456080	0.079486	-0.071474	-0.389893	-0.210205	0.520264	-118.822171	-84.031337	-1.283475
59791		8.704607	-0.484042	-0.662174	0.396455	0.047913	-0.040687	-0.387695	-0.199463	0.515137	-118.470225	-84.063508	-1.405491
59792		8.904862	-0.259826	-0.579887	0.214871	-0.004608	-0.031994	-0.384521	-0.202148	0.517090	-118.463104	-84.076954	-1.285299
59793		9.306293	-0.412818	-0.982798	0.033790	-0.032457	-0.063243	-0.385254	-0.211670	0.522217	-118.768335	-84.098430	-0.955495
59794		9.493275	-0.795185	-1.342791	0.005851	-0.031437	-0.125658	-0.388184	-0.214111	0.526123	-119.266955	-84.151228	-0.447295
59795		9.467943	-0.934958	-1.435505	0.099073	-0.039679	-0.170961	-0.376953	-0.207275	0.519775	-119.878969	-84.223764	0.228411
59796		9.401959	-1.008440	-1.656674	0.182857	-0.022968	-0.218172	-0.380615	-0.206055	0.522217	-120.524273	-84.323731	0.985822
59797		9.382451	-1.029915	-1.618706	0.221993	-0.006119	-0.276348	-0.385010	-0.206543	0.521729	-121.255227	-84.456334	1.851528
59798		9.497582	-0.969348	-1.575860	0.251802	0.001753	-0.331912	-0.384033	-0.215332	0.521240	-122.156835	-84.617172	2.905755
59799		9.612893	-0.878040	-1.422998	0.295871	0.019804	-0.355742	-0.383789	-0.218750	0.524170	-123.069832	-84.793458	3.996292
59800		9.701093	-0.827492	-1.364111	0.333252	-0.002162	-0.352428	-0.376953	-0.204590	0.512695	-124.147108	-84.959428	5.273166
59801		9.784344	-0.949287	-1.420064	0.322962	-0.063899	-0.325543	-0.378662	-0.215820	0.518311	-125.531612	-85.090048	6.851994
59802		9.759618	-1.194924	-1.483512	0.306027	-0.120059	-0.286542	-0.371582	-0.207520	0.531250	-127.160447	-85.179944	8.666262
59803		9.710767	-1.430185	-1.735106	0.263851	-0.146624	-0.240581	-0.380859	-0.210938	0.521484	-128.810837	-85.235263	10.477444
59804		9.649980	-1.648779	-2.062117	0.272170	-0.110017	-0.216769	-0.370850	-0.215820	0.525146	-130.204407	-85.289346	12.035837
59805		9.500050	-1.726249	-2.073550	0.330546	-0.045676	-0.212304	-0.375977	-0.204346	0.520752	-131.227501	-85.362758	13.255572
59806		9.314517	-1.714469	-2.202551	0.410775	-0.019623	-0.217394	-0.370361	-0.206299	0.524170	-132.136046	-85.446627	14.406733
59807		9.129973	-1.647139	-2.267279	0.475691	-0.013347	-0.232486	-0.378906	-0.208252	0.522461	-133.077730	-85.537671	15.627830
59808		8.985080	-1.498563	-2.255247	0.510014	-0.022337	-0.240509	-0.373291	-0.207764	0.528076	-134.144437	-85.626907	16.994372
59809		8.917696	-1.389044	-2.305755	0.486923	-0.023672	-0.244764	-0.372314	-0.205322	0.528320	-135.295025	-85.715086	18.431024
59810		9.088302	-1.409832	-1.896015	0.501441	0.021856	-0.226698	-0.375732	-0.201172	0.532227	-136.153621	-85.812983	19.583631
59811		9.784033	-0.839885	-1.369320	0.500455	0.082189	-0.159282	-0.371826	-0.200195	0.526367	-136.326031	-85.908091	20.046877
59812		10.575803	-0.241311	-0.994156	0.326108	0.033847	-0.068622	-0.377197	-0.198975	0.529541	-136.359205	-85.947504	20.271021
59813		11.031763	-0.034391	-0.787207	-0.042624	-0.145343	0.036959	-0.369385	-0.210449	0.524414	-136.965954	-85.870355	20.857720
59814		11.317425	-0.007436	-0.825614	-0.321944	-0.269439	0.137756	-0.372559	-0.208496	0.528076	-137.788659	-85.701535	21.501262
59815		11.388646	0.257258	-0.640640	-0.479611	-0.296404	0.217432	-0.371582	-0.211426	0.527832	-138.332221	-85.489904	21.773742
59816		11.745890	0.860559	-0.504746	-0.556863	-0.361662	0.264916	-0.371582	-0.205566	0.533936	-138.941083	-85.232283	22.068066
59817		12.294445	1.427112	-0.653299	-0.540414	-0.337060	0.258114	-0.376221	-0.206055	0.520508	-139.416382	-84.987460	22.237341
59818		12.819263	1.320645	-0.423010	-0.689934	-0.259512	0.241964	-0.371826	-0.218506	0.530762	-139.715103	-84.782565	22.143945
59819		12.670010	0.914000	0.014335	-0.904664	-0.213453	0.207824	-0.366699	-0.208496	0.529541	-140.099288	-84.610392	22.012369
59820		11.948515	0.221792	0.037204	-1.000348	-0.226521	0.174783	-0.358154	-0.218018	0.524902	-140.734140	-84.444739	22.077920
59821		11.105610	-0.404211	-0.513834	-0.938784	-0.274044	0.109849	-0.365967	-0.224121	0.535400	-141.768733	-84.281030	22.580303
59822		10.234206	-1.194594	-1.120989	-0.811038	-0.345092	0.021793	-0.359375	-0.236328	0.528809	-143.322178	-84.114627	23.678239
59823		9.604511	-1.999032	-1.551943	-0.609801	-0.382873	-0.092831	-0.365967	-0.235840	0.524170	-145.308447	-83.965581	25.327268
59824		9.282871	-2.566785	-1.650573	-0.361065	-0.350024	-0.225807	-0.362305	-0.233643	0.533203	-147.568860	-83.868090	27.396010
59825		9.215036	-2.954002	-1.638176	-0.096886	-0.253447	-0.355186	-0.357666	-0.249023	0.532227	-149.936639	-83.847536	29.724767
59826		9.277670	-3.209366	-1.499732	0.111314	-0.132829	-0.446679	-0.362793	-0.234375	0.527100	-152.303933	-83.902594	32.173372
59827		9.385278	-3.273684	-1.193701	0.168633	-0.040522	-0.455802	-0.358643	-0.248779	0.524414	-154.501585	-83.996731	34.483467
59828		9.599016	-2.825687	-1.103596	0.109979	0.018688	-0.412572	-0.354492	-0.245605	0.527832	-156.458186	-84.102649	36.517597
59829		9.798907	-1.962245	-0.871004	0.081795	0.058238	-0.311395	-0.358398	-0.247803	0.528809	-157.880622	-84.200557	37.997403
59830		9.925219	-1.016085	-0.453869	0.147109	0.068332	-0.188414	-0.352539	-0.241455	0.522949	-158.644200	-84.274955	38.853151
59831		10.017987	-0.249027	0.072091	0.223699	0.054100	-0.083054	-0.354004	-0.240234	0.528076	-158.836557	-84.319030	39.178036
59832		9.920965	0.343129	0.406914	0.282042	0.006123	-0.005279	-0.355225	-0.241943	0.525391	-158.688207	-84.321441	39.194925
59833		9.764521	0.635909	0.656351	0.332547	-0.059544	0.041179	-0.354736	-0.239258	0.527344	-158.391814	-84.279059	39.091364
59834		9.496745	0.714329	0.826954	0.371911	-0.105588	0.059933	-0.357422	-0.240479	0.531738	-158.082709	-84.208188	38.998438
59835		9.233026	0.656956	0.892104	0.388458	-0.092412	0.030868	-0.358643	-0.235107	0.529785	-157.883677	-84.150573	39.025030
59836		9.073262	0.583064	0.957377	0.392810	-0.034264	-0.003666	-0.356689	-0.235107	0.529297	-157.747759	-84.131235	39.118220
59837		9.101970	0.546959	1.030840	0.401271	0.036844	-0.048175	-0.359619	-0.238281	0.543213	-157.678823	-84.159448	39.283078
59838		9.366703	0.490361	1.164350	0.424159	0.102802	-0.071767	-0.359375	-0.226807	0.526367	-157.587351	-84.227613	39.438989
59839		9.595836	0.300976	1.219074	0.431722	0.140863	-0.078465	-0.359619	-0.236816	0.532715	-157.436353	-84.317710	39.538973
59840		9.821655	0.022047	1.361720	0.462492	0.117849	-0.078730	-0.359375	-0.229980	0.531738	-157.328119	-84.395437	39.700066
59841		9.804462	0.056612	1.296830	0.458519	0.128377	-0.083934	-0.361816	-0.233398	0.533691	-157.218863	-84.480309	39.857472
59842		9.723604	-0.007897	1.247491	0.424895	0.071437	-0.103200	-0.356934	-0.222168	0.537354	-157.376812	-84.538938	40.264291
59843		9.639084	0.129439	1.100678	0.386901	0.067743	-0.122049	-0.357178	-0.223145	0.536133	-157.668134	-84.600108	40.782901
59844		9.460684	0.350963	0.891596	0.351842	0.057733	-0.126233	-0.358643	-0.224121	0.531006	-158.044448	-84.656057	41.366928
59845		9.282643	0.483550	0.665356	0.323101	0.030090	-0.126979	-0.370117	-0.223633	0.533691	-158.505280	-84.697685	42.019055
59846		9.208631	0.681233	0.446516	0.286275	-0.006764	-0.119547	-0.361328	-0.227051	0.529053	-159.043392	-84.716917	42.727770
59847		9.245715	0.920225	0.258638	0.284120	-0.025363	-0.111098	-0.364990	-0.224609	0.533691	-159.569687	-84.724594	43.423246
59848		9.260110	1.028688	0.369989	0.407085	-0.100708	-0.083622	-0.356934	-0.225830	0.536377	-160.033937	-84.685027	44.127301
59849		9.585532	0.779262	-0.007881	0.324106	-0.112374	-0.086511	-0.360107	-0.220459	0.531738	-160.569531	-84.639985	44.855294
59850		9.789970	0.627884	-0.220917	0.189259	-0.087574	-0.106531	-0.360107	-0.219482	0.532471	-161.245589	-84.610576	45.646828
59851		9.970342	0.405325	-0.398128	0.110610	-0.100372	-0.137466	-0.358643	-0.219482	0.534912	-162.153226	-84.579642	46.625812
59852		9.964621	0.152347	-0.497932	0.064270	-0.082716	-0.165953	-0.364502	-0.227295	0.538574	-163.216132	-84.560738	47.734072
59853		9.794667	0.000902	-0.392129	-0.005363	-0.046788	-0.182574	-0.363037	-0.222900	0.539063	-164.342701	-84.563205	48.866324
59854		9.550851	-0.026551	-0.486562	-0.045378	-0.026277	-0.193955	-0.354248	-0.218506	0.539063	-165.534176	-84.575589	50.040628
59855		9.386830	-0.088322	-0.565532	-0.048124	-0.021788	-0.207124	-0.354492	-0.224365	0.530518	-166.797823	-84.590878	51.285944
59856		9.364919	-0.083965	-0.650617	-0.021620	-0.006709	-0.222275	-0.352783	-0.226318	0.537109	-168.129262	-84.612820	52.614445
59857		9.401592	-0.038835	-0.712980	0.021399	0.039280	-0.238853	-0.361816	-0.229248	0.539551	-169.489388	-84.660535	53.996571
59858		9.457983	-0.009845	-0.792221	0.073758	0.126326	-0.239784	-0.359131	-0.227051	0.540039	-170.767791	-84.753462	55.326463
59859		9.453363	0.128294	-0.634342	0.135644	0.198330	-0.230288	-0.364502	-0.229736	0.528564	-171.928519	-84.884768	56.573698
59860		9.464464	0.157287	-0.482080	0.192457	0.261768	-0.200902	-0.357178	-0.230713	0.531982	-172.881018	-85.046727	57.644153
59861		9.488534	0.192743	-0.295717	0.242604	0.283775	-0.148084	-0.365723	-0.225586	0.532959	-173.492396	-85.217382	58.400974
59862		9.471845	0.288657	-0.035119	0.246346	0.240367	-0.113650	-0.368408	-0.223877	0.532227	-173.945527	-85.359482	59.000835
59863		9.613519	0.399488	0.090546	0.196778	0.300122	-0.090134	-0.358643	-0.226563	0.542725	-174.242846	-85.535025	59.415950
59864		9.503347	0.506647	0.050763	0.194311	0.240275	-0.055266	-0.368896	-0.226563	0.533203	-174.354650	-85.673242	59.643313
59865		9.385277	0.599381	-0.126500	0.141280	0.174391	-0.026206	-0.365723	-0.225098	0.537842	-174.328674	-85.773381	59.702236
59866		9.321639	0.635467	-0.353247	0.071409	0.135763	-0.006881	-0.359131	-0.223389	0.532471	-174.226329	-85.849257	59.644207
59867		9.280385	0.626256	-0.556365	0.021128	0.137204	0.013166	-0.370361	-0.226563	0.529785	-173.984657	-85.925923	59.417895
59868		9.369030	0.534024	-0.607568	0.000662	0.176003	0.014325	-0.374023	-0.230469	0.532227	-173.705564	-86.023386	59.142059
59869		9.461513	0.536952	-0.590148	-0.011087	0.214709	0.000571	-0.370605	-0.222412	0.526367	-173.494061	-86.144841	58.927582
59870		9.540185	0.561512	-0.570496	-0.016243	0.234599	-0.017563	-0.363525	-0.223145	0.533691	-173.413676	-86.277607	58.841260
59871		9.507120	0.597156	-0.603175	-0.047479	0.244647	-0.035077	-0.361572	-0.232422	0.531738	-173.490377	-86.418394	58.894781
59872		9.448879	0.621250	-0.541741	-0.080181	0.247414	-0.038498	-0.368652	-0.230225	0.524658	-173.624538	-86.559812	58.986733
59873		9.390443	0.641496	-0.558581	-0.106433	0.221308	-0.035217	-0.373047	-0.223145	0.521240	-173.776518	-86.687298	59.081852
59874		9.302687	0.580188	-0.597670	-0.122525	0.186705	-0.017647	-0.374756	-0.230225	0.520508	-173.809750	-86.792820	59.048386
59875		9.298867	0.544768	-0.664741	-0.135472	0.145139	-0.006244	-0.368896	-0.227539	0.530518	-173.775944	-86.875110	58.940792
59876		9.245136	0.467704	-0.856898	-0.159614	0.122635	0.007103	-0.376221	-0.230469	0.524414	-173.639177	-86.942587	58.715802
59877		9.312664	0.451715	-0.904338	-0.191247	0.143310	0.012269	-0.384521	-0.229492	0.517822	-173.427760	-87.022597	58.398392
59878		9.292272	0.499089	-0.836533	-0.211061	0.179138	0.014834	-0.377930	-0.232422	0.518311	-173.138102	-87.121616	57.990831
59879		9.318775	0.543452	-0.882269	-0.227580	0.175649	0.013570	-0.383545	-0.239014	0.512695	-172.850979	-87.219742	57.576857
59880		9.309110	0.531426	-0.972176	-0.258292	0.180625	0.013446	-0.378174	-0.236328	0.517090	-172.552108	-87.319491	57.133050
59881		9.264229	0.559666	-0.963504	-0.290344	0.175550	0.011122	-0.383301	-0.237061	0.517578	-172.279280	-87.417507	56.697481
59882		9.171378	0.616953	-0.887768	-0.325431	0.160917	0.025744	-0.381836	-0.236816	0.512451	-171.837954	-87.504855	56.072642
59883		9.074541	0.637225	-0.897673	-0.365952	0.133288	0.038948	-0.388672	-0.237305	0.511719	-171.259867	-87.576236	55.288257
59884		9.023980	0.657555	-0.947767	-0.412926	0.103530	0.055726	-0.382813	-0.240479	0.503906	-170.508709	-87.627813	54.303206
59885		9.012979	0.674581	-1.014538	-0.439866	0.080291	0.066247	-0.386963	-0.251953	0.508057	-169.646419	-87.665671	53.192085
59886		9.064070	0.615616	-1.102966	-0.460276	0.074183	0.063836	-0.387451	-0.246826	0.508301	-168.816830	-87.698651	52.101444
59887		9.166784	0.564323	-1.175913	-0.479095	0.065554	0.056674	-0.387207	-0.256348	0.498779	-168.096040	-87.727993	51.109521
59888		9.253890	0.506257	-1.127070	-0.489875	0.047807	0.056935	-0.392578	-0.248779	0.502686	-167.414768	-87.745895	50.150381
59889		9.230494	0.460373	-1.136804	-0.533114	0.029700	0.057954	-0.393555	-0.253906	0.500977	-166.790698	-87.754065	49.224323
59890		9.196487	0.377125	-1.211008	-0.553482	0.005297	0.069001	-0.387939	-0.257813	0.503174	-166.104389	-87.745799	48.223678
59891		9.074328	0.352720	-1.251543	-0.572343	-0.028263	0.078117	-0.395020	-0.263672	0.493652	-165.429698	-87.718046	47.224462
59892		8.999798	0.302141	-1.364459	-0.578709	-0.069143	0.084043	-0.390137	-0.262451	0.493896	-164.852687	-87.665450	46.318699
59893		8.909365	0.390613	-1.586891	-0.575994	-0.105350	0.085213	-0.395996	-0.255859	0.495605	-164.425256	-87.593209	45.564788
59894		8.933858	0.470144	-1.700034	-0.567677	-0.115295	0.082327	-0.385986	-0.269531	0.498291	-164.101947	-87.514876	44.919194
