// General information: 
//  MT Manager version: 2022.2.0 
//  XDA version: 2022.2.0 build 7381 rev 124627 built on 2023-07-19
// Device information: 
//  DeviceId: 00B4BCF6
//  ProductCode: MTW2-3A7G6
//  Firmware Version: 4.6.0
//  Hardware Version: 2.0.0
// Device settings: 
//  Filter Profile: human(46.1)
//  Option Flags: Orientation Smoother Disabled, Position/Velocity Smoother Disabled, Continuous Zero Rotation Update Disabled, AHS Disabled, ICC Disabled
// Coordinate system: ENU
PacketCounter	SampleTimeFine	Acc_X	Acc_Y	Acc_Z	Gyr_X	Gyr_Y	Gyr_Z	Mag_X	Mag_Y	Mag_Z	Roll	Pitch	Yaw
37647		-5.597864	0.155619	8.042058	0.001923	0.000216	-0.004694	0.094238	-0.094238	-0.749756	0.861012	34.923363	135.395132
37648		-5.547496	0.175465	8.036416	-0.004493	0.000673	-0.003682	0.086670	-0.102783	-0.747559	0.860899	34.919961	135.395008
37649		-5.581730	0.159086	8.099176	-0.002548	0.006136	-0.006673	0.093750	-0.102051	-0.754150	0.860877	34.919554	135.394210
37650		-5.576528	0.133092	8.057641	-0.002867	0.004022	-0.002922	0.087891	-0.100098	-0.750977	0.862020	34.918064	135.394653
37651		-5.601153	0.132964	8.053841	-0.004404	0.007391	-0.002389	0.083496	-0.108154	-0.763184	0.862703	34.918337	135.395962
37652		-5.603882	0.111545	8.065987	-0.005825	0.008459	-0.004378	0.091553	-0.103760	-0.756104	0.861595	34.919402	135.395434
37653		-5.633513	0.103091	8.095322	-0.005961	0.005514	-0.003559	0.085938	-0.105225	-0.752441	0.861008	34.918537	135.394437
37654		-5.606497	0.177389	8.081302	-0.004336	0.008864	-0.002798	0.087646	-0.100342	-0.746338	0.861388	34.919820	135.395016
37655		-5.600801	0.117799	8.031534	-0.006076	0.007817	-0.001036	0.097168	-0.095215	-0.759033	0.861708	34.920265	135.396722
37656		-5.630440	0.109498	8.060856	-0.006144	0.006344	-0.000627	0.089600	-0.100098	-0.756104	0.861906	34.920086	135.398792
37657		-5.628847	0.129952	8.047939	-0.001309	0.005899	-0.001751	0.096680	-0.099365	-0.757324	0.864516	34.919526	135.401914
37658		-5.608064	0.142144	8.071686	-0.002914	0.007796	-0.000808	0.090820	-0.103516	-0.754883	0.866501	34.920180	135.403873
37659		-5.627789	0.150060	8.034653	-0.006028	0.004042	-0.003150	0.101074	-0.099609	-0.748535	0.865916	34.918588	135.404420
37660		-5.630207	0.128643	8.047008	-0.004447	0.004032	-0.003036	0.086670	-0.095947	-0.751953	0.866108	34.917105	135.404782
37661		-5.609145	0.140623	8.070962	-0.002934	0.002550	-0.002513	0.096191	-0.102295	-0.748535	0.867475	34.914668	135.406967
37662		-5.608554	0.106689	8.062805	-0.003002	0.001078	-0.002103	0.084717	-0.101318	-0.757080	0.868850	34.911484	135.407950
37663		-5.609623	0.139792	8.070644	-0.004311	0.006977	-0.003854	0.082520	-0.102051	-0.746826	0.869009	34.911532	135.407946
37664		-5.566855	0.130453	8.110433	-0.005823	0.008459	-0.004377	0.092529	-0.097656	-0.754395	0.867903	34.912597	135.407419
37665		-5.634951	0.138978	8.066343	-0.003050	0.004852	0.000011	0.095947	-0.097900	-0.757080	0.870289	34.911341	135.410958
37666		-5.584950	0.158624	8.060518	-0.007448	0.005110	-0.005139	0.092285	-0.099121	-0.757080	0.867927	34.910494	135.409862
37667		-5.589655	0.116186	8.085303	-0.007657	0.007826	-0.001150	0.094482	-0.100342	-0.751709	0.867167	34.911053	135.412981
37668		-5.636348	0.136913	8.065402	-0.005934	0.003628	-0.004616	0.093750	-0.098633	-0.754639	0.865873	34.909352	135.412236
37669		-5.612565	0.135832	8.068666	-0.007540	0.005525	-0.003673	0.089844	-0.096680	-0.754639	0.864184	34.908628	135.412982
37670		-5.634375	0.122677	8.044184	-0.004217	0.006563	-0.005320	0.091064	-0.107910	-0.748535	0.863610	34.908615	135.411777
37671		-5.591498	0.113484	8.084066	-0.002890	0.005910	-0.001864	0.084229	-0.097412	-0.758545	0.865386	34.908039	135.412838
37672		-5.635937	0.155237	8.051711	-0.007836	0.001522	-0.000981	0.091797	-0.108398	-0.748779	0.864443	34.905100	135.414610
37673		-5.611293	0.120722	8.046972	-0.004285	0.005091	-0.004911	0.096436	-0.101318	-0.755615	0.864214	34.904032	135.413548
37674		-5.619493	0.124589	8.100529	-0.007446	0.005111	-0.005140	0.097412	-0.105713	-0.746826	0.861853	34.903185	135.412453
37675		-5.612115	0.119201	8.046422	-0.007792	0.004881	-0.000332	0.086914	-0.099854	-0.752197	0.861427	34.902133	135.413635
37676		-5.589095	0.151909	8.057774	-0.004538	0.004447	-0.001569	0.093750	-0.095215	-0.755859	0.862155	34.900875	135.415027
37677		-5.596530	0.122396	8.103251	-0.005958	0.005515	-0.003559	0.094727	-0.101318	-0.758057	0.861388	34.900071	135.416881
37678		-5.611179	0.138214	8.033092	-0.005933	0.003629	-0.004617	0.087402	-0.103027	-0.756104	0.860095	34.898371	135.416136
37679		-5.614347	0.150235	8.053528	-0.006026	0.004043	-0.003150	0.084717	-0.106934	-0.751221	0.859533	34.896734	135.416485
37680		-5.592831	0.128433	8.069230	-0.004080	0.009510	-0.006136	0.085205	-0.101807	-0.756836	0.858729	34.898415	135.414740
37681		-5.595636	0.106797	8.081294	-0.007309	0.008056	-0.005957	0.096680	-0.096680	-0.748779	0.856409	34.899002	135.412577
37682		-5.621298	0.139684	8.085367	-0.008915	0.009952	-0.005014	0.090820	-0.101318	-0.752930	0.853286	34.900928	135.411621
37683		-5.595104	0.125979	8.067692	-0.002685	0.010328	-0.003088	0.091309	-0.092529	-0.753906	0.854634	34.902955	135.412866
37684		-5.617172	0.113045	8.042981	-0.005914	0.008874	-0.002909	0.088623	-0.103760	-0.753662	0.854065	34.904245	135.413368
37685		-5.594513	0.145666	8.054129	-0.005914	0.008874	-0.002909	0.096680	-0.098145	-0.758057	0.853616	34.905356	135.415431
37686		-5.624271	0.137227	8.083341	-0.004308	0.006979	-0.003852	0.089111	-0.099854	-0.752441	0.853579	34.905568	135.415255
37687		-5.643249	0.111601	8.038122	-0.002727	0.006969	-0.003737	0.099121	-0.102295	-0.753906	0.854620	34.905646	135.416222
37688		-5.598245	0.123211	8.065556	-0.004350	0.003620	-0.004503	0.094238	-0.102051	-0.749512	0.854279	34.903940	135.415556
37689		-5.620785	0.143850	8.049152	-0.000985	0.008019	-0.005496	0.090088	-0.102051	-0.752930	0.855679	34.904723	135.413610
37690		-5.602241	0.134956	8.085441	-0.006075	0.007815	-0.001035	0.086914	-0.096436	-0.746338	0.855761	34.905390	135.415411
37691		-5.597872	0.142538	8.051850	-0.004308	0.006979	-0.003852	0.085693	-0.100342	-0.748291	0.855880	34.905410	135.416265
37692		-5.599261	0.175376	8.059560	-0.005632	0.007634	-0.007308	0.091309	-0.106445	-0.752930	0.853707	34.906027	135.413681
37693		-5.599169	0.140991	8.050976	-0.005658	0.009520	-0.006250	0.104492	-0.094727	-0.751709	0.852197	34.907529	135.411282
37694		-5.650323	0.119871	8.055890	-0.005564	0.009107	-0.007716	0.090332	-0.097168	-0.761230	0.849908	34.908993	135.408429
37695		-5.629668	0.131451	8.079679	-0.004025	0.005739	-0.008251	0.094482	-0.108154	-0.750977	0.848310	34.908481	135.407165
37696		-5.579784	0.150754	8.073923	-0.010535	0.006602	-0.005781	0.084717	-0.106445	-0.752197	0.843932	34.908494	135.405637
37697		-5.603729	0.116573	8.061846	-0.004145	0.008038	-0.005726	0.091797	-0.103027	-0.751465	0.843568	34.909166	135.401988
37698		-5.606579	0.095103	8.073852	-0.005940	0.010760	-0.001850	0.091064	-0.098145	-0.750977	0.843419	34.911527	135.403249
37699		-5.629436	0.115622	8.057220	-0.005913	0.008874	-0.002909	0.097656	-0.105957	-0.754883	0.843022	34.912677	135.404090
37700		-5.582783	0.148020	8.071900	-0.004197	0.011811	-0.003608	0.090576	-0.094971	-0.752930	0.843174	34.915655	135.404134
37701		-5.634313	0.127090	8.076511	-0.005573	0.016239	-0.004947	0.088867	-0.100098	-0.759766	0.842184	34.921082	135.403601
37702		-5.612283	0.159593	8.087317	-0.005478	0.015826	-0.006413	0.092041	-0.104248	-0.757324	0.840504	34.926384	135.401726
37703		-5.656450	0.046262	8.034267	-0.000900	0.014739	-0.004190	0.089111	-0.098877	-0.760742	0.842528	34.930863	135.401511
37704		-5.631817	0.188202	8.036332	0.000397	0.015969	0.000325	0.089355	-0.101318	-0.751709	0.846911	34.936190	135.404347
37705		-5.631769	0.154276	8.027664	-0.005831	0.003216	-0.006088	0.097168	-0.100098	-0.756104	0.845245	34.934064	135.403506
37706		-5.610400	0.132567	8.043297	-0.002642	0.013688	-0.002433	0.094238	-0.104980	-0.756592	0.846770	34.938108	135.404391
37707		-5.638247	0.145015	8.059830	-0.005953	0.005515	-0.003562	0.084717	-0.104492	-0.761230	0.846086	34.937404	135.403923
37708		-5.542286	0.143285	8.073753	-0.004168	0.009925	-0.004667	0.088379	-0.100586	-0.755127	0.845820	34.939312	135.403208
37709		-5.515844	0.217546	8.059736	-0.007151	0.016248	-0.005064	0.096436	-0.093506	-0.757813	0.843944	34.944590	135.402550
37710		-5.521702	0.174818	8.083648	-0.008225	0.024683	-0.009090	0.085449	-0.099609	-0.754150	0.839669	34.954989	135.398895
37711		-5.595637	0.140878	8.063122	-0.009654	0.032884	-0.008309	0.087646	-0.095703	-0.749756	0.835021	34.969897	135.398054
37712		-5.648035	0.085910	8.058297	-0.006383	0.037699	-0.007829	0.087158	-0.102783	-0.755127	0.832380	34.987742	135.395410
37713		-5.651031	0.084908	8.056208	-0.004512	0.036453	-0.012111	0.097168	-0.097900	-0.758057	0.829250	35.004669	135.390965
37714		-5.656845	0.096819	8.074870	-0.003618	0.034088	-0.003440	0.091553	-0.100098	-0.747559	0.829931	35.020408	135.391352
37715		-5.702749	0.104996	8.032551	-0.001747	0.032842	-0.007721	0.093506	-0.101074	-0.757813	0.830090	35.035353	135.389543
37716		-5.635602	0.116432	8.062513	-0.000577	0.023994	-0.005161	0.098389	-0.098877	-0.753418	0.831763	35.045324	135.388623
37717		-5.634528	0.103502	8.040529	-0.000840	0.023346	-0.001821	0.088623	-0.102539	-0.753174	0.834767	35.054797	135.390518
37718		-5.682475	0.124646	8.019469	-0.000713	0.021048	-0.004347	0.097412	-0.105225	-0.753906	0.836672	35.063073	135.390139
37719		-5.635867	0.123777	8.025613	-0.004136	0.020416	-0.001246	0.094238	-0.105225	-0.753418	0.838098	35.070818	135.391053
37720		-5.667521	0.148907	8.062189	-0.002234	0.017285	-0.006585	0.096436	-0.094482	-0.762695	0.838209	35.076958	135.389069
37721		-5.660766	0.143955	8.007435	-0.002498	0.016637	-0.003246	0.092041	-0.101807	-0.754883	0.839644	35.082573	135.390191
37722		-5.640840	0.155744	8.030919	-0.003658	0.013110	-0.010291	0.098389	-0.102783	-0.754639	0.837424	35.086352	135.385570
37723		-5.639671	0.175420	8.017778	-0.011694	0.010204	-0.010075	0.097412	-0.102783	-0.749512	0.830864	35.088350	135.380757
37724		-5.642670	0.153066	8.029684	-0.009947	0.011257	-0.011828	0.094238	-0.106689	-0.748535	0.824409	35.091080	135.375039
37725		-5.600464	0.142700	8.069569	-0.014686	0.011282	-0.012187	0.092529	-0.102051	-0.753906	0.815354	35.093745	135.367461
37726		-5.597700	0.094668	8.039971	-0.012829	0.017168	-0.013693	0.093750	-0.099365	-0.745117	0.806530	35.099875	135.360495
37727		-5.675523	0.139856	8.056720	-0.012957	0.019466	-0.011166	0.099854	-0.099854	-0.759766	0.798846	35.107156	135.355474
37728		-5.650989	0.070883	8.043081	-0.011317	0.015687	-0.013167	0.092285	-0.106934	-0.745361	0.791090	35.112431	135.348859
37729		-5.648267	0.111374	8.017073	-0.005186	0.021724	-0.008038	0.098633	-0.103516	-0.757568	0.789170	35.121029	135.344900
37730		-5.650558	0.143879	8.024306	-0.008560	0.012074	-0.008776	0.094727	-0.107910	-0.752197	0.784740	35.124199	135.341324
37731		-5.676828	0.088739	8.024242	-0.005668	0.011409	-0.005196	0.092285	-0.099609	-0.758789	0.783675	35.126871	135.338432
37732		-5.654491	0.121227	8.035532	-0.007316	0.009943	-0.004910	0.095215	-0.100830	-0.749023	0.781504	35.128789	135.337542
37733		-5.652065	0.107806	8.014445	-0.005943	0.005514	-0.003572	0.091309	-0.103027	-0.756836	0.780799	35.128008	135.338035
37734		-5.652495	0.107091	8.014151	-0.005844	0.005102	-0.005039	0.091064	-0.105957	-0.762207	0.779392	35.127154	135.337009
37735		-5.632790	0.152318	8.046417	-0.005943	0.005514	-0.003572	0.097900	-0.103516	-0.752686	0.778777	35.126318	135.336263
37736		-5.654343	0.139166	8.021722	-0.009300	0.006352	-0.000881	0.097656	-0.102295	-0.749512	0.777073	35.126148	135.338162
37737		-5.678936	0.138421	8.017699	-0.010581	0.005125	-0.005401	0.090820	-0.101563	-0.750488	0.773018	35.125252	135.335909
37738		-5.650953	0.091098	7.992463	-0.004340	-0.001623	-0.006229	0.095703	-0.100098	-0.753174	0.771957	35.120554	135.333986
37739		-5.656831	0.115493	8.033969	-0.009216	-0.004548	-0.005780	0.091064	-0.102295	-0.745117	0.768451	35.114031	135.332506
37740		-5.615575	0.085062	8.087191	-0.004508	-0.002685	-0.004357	0.102295	-0.103271	-0.744141	0.768043	35.108710	135.331885
37741		-5.590338	0.138679	8.086613	-0.004432	0.004033	-0.003045	0.093506	-0.103516	-0.754639	0.768466	35.107174	135.331074
37742		-5.610862	0.092246	8.053757	-0.004463	0.005918	-0.001984	0.090820	-0.105469	-0.751465	0.769086	35.106764	135.332196
37743		-5.635453	0.092098	8.049725	-0.001205	0.005492	-0.003209	0.096436	-0.102295	-0.757568	0.771337	35.105956	135.331298
37744		-5.637031	0.125543	8.057494	0.000113	0.010077	0.001968	0.096191	-0.100830	-0.750244	0.776194	35.107897	135.335226
37745		-5.655445	0.100439	8.012156	0.000368	0.000241	-0.004805	0.101807	-0.104248	-0.744873	0.778592	35.104163	135.334101
37746		-5.680732	0.133944	8.016502	-0.003052	0.004847	0.000009	0.103760	-0.105225	-0.747070	0.780817	35.103124	135.336607
37747		-5.629560	0.120652	8.003171	-0.003327	-0.001048	0.001630	0.099121	-0.105713	-0.756836	0.783733	35.098756	135.338037
37748		-5.632585	0.132997	8.023870	-0.004738	0.000022	-0.000363	0.097900	-0.100342	-0.754395	0.784816	35.094955	135.340236
37749		-5.640880	0.136989	8.077632	-0.002990	0.001078	-0.002114	0.100098	-0.104736	-0.752686	0.786392	35.091720	135.340431
37750		-5.639988	0.103189	8.069382	-0.003258	0.000426	0.001225	0.095215	-0.104492	-0.754639	0.788963	35.088138	135.343745
37751		-5.658907	0.111491	8.032563	-0.003327	-0.001048	0.001630	0.097168	-0.106689	-0.751709	0.791880	35.083649	135.345914
37752		-5.659771	0.144679	8.040845	-0.002859	-0.001218	-0.004642	0.082520	-0.099365	-0.756104	0.792309	35.079172	135.345104
37753		-5.632575	0.131400	8.023904	-0.002990	0.001078	-0.002114	0.093018	-0.096191	-0.751709	0.793920	35.075782	135.345772
37754		-5.631602	0.097483	8.015707	-0.001180	-0.001636	-0.005988	0.092529	-0.103027	-0.748535	0.794768	35.071076	135.344017
37755		-5.637511	0.122227	8.057209	-0.004576	-0.004159	-0.003953	0.093994	-0.101563	-0.761230	0.794619	35.064764	135.344386
37756		-5.635086	0.142568	8.044987	-0.004675	-0.003748	-0.002486	0.092773	-0.102295	-0.754395	0.794861	35.058820	135.345061
37757		-5.660994	0.121370	8.053961	-0.002896	-0.004577	-0.005298	0.093262	-0.103760	-0.757080	0.795166	35.052276	135.343814
37758		-5.610298	0.141434	8.049180	-0.001517	-0.003762	-0.002244	0.096191	-0.098877	-0.750244	0.797314	35.046322	135.344658
37759		-5.655190	0.129000	8.021295	-0.001517	-0.003762	-0.002244	0.093750	-0.108887	-0.752197	0.799628	35.040261	135.345563
37760		-5.656818	0.107882	8.034084	-0.001722	-0.008184	-0.001029	0.097656	-0.100098	-0.755615	0.802121	35.031763	135.347212
37761		-5.611026	0.119862	8.062600	-0.001654	-0.006710	-0.001434	0.088379	-0.108887	-0.754639	0.804725	35.024036	135.347383
37762		-5.632589	0.140725	8.046768	-0.003264	-0.004819	-0.000493	0.097168	-0.097412	-0.749512	0.806568	35.017462	135.349440
37763		-5.631167	0.106954	8.038872	-0.001654	-0.006710	-0.001434	0.091553	-0.101318	-0.758301	0.809156	35.009685	135.350252
37764		-5.635850	0.098524	8.072330	-0.000006	-0.005243	-0.001719	0.098145	-0.102783	-0.758545	0.812370	35.002878	135.351446
37765		-5.609199	0.119039	8.063883	-0.001585	-0.005236	-0.001839	0.094971	-0.100830	-0.749023	0.814796	34.995970	135.352542
37766		-5.654896	0.140253	8.044353	-0.000174	-0.006307	0.000153	0.091064	-0.103271	-0.750000	0.818658	34.988538	135.355034
37767		-5.652231	0.161087	8.032304	-0.001821	-0.007774	0.000438	0.095703	-0.097900	-0.750732	0.821865	34.980154	135.357493
37768		-5.626394	0.127155	8.028307	0.000088	-0.010897	-0.004904	0.095947	-0.103516	-0.747559	0.823822	34.970134	135.356401
37769		-5.603493	0.105795	8.045062	-0.003536	-0.010715	0.001127	0.092041	-0.101807	-0.760986	0.826263	34.960116	135.359680
37770		-5.632638	0.131013	8.083481	-0.001863	-0.016375	-0.001938	0.087646	-0.103516	-0.750732	0.828259	34.946933	135.360605
37771		-5.628359	0.118267	8.063664	-0.000414	-0.014087	0.000711	0.093994	-0.105713	-0.756348	0.832352	34.934861	135.363362
37772		-5.579047	0.117904	8.071767	-0.000544	-0.011792	0.003239	0.095215	-0.100830	-0.755859	0.837201	34.924261	135.367949
37773		-5.532091	0.184590	8.096006	-0.000136	-0.002948	0.000810	0.088135	-0.098145	-0.754395	0.841545	34.918666	135.370403
37774		-5.605567	0.130769	8.089212	-0.001511	0.001481	-0.000525	0.092529	-0.101807	-0.751709	0.844409	34.915701	135.372495
37775		-5.605731	0.130706	8.089099	0.001814	0.002530	-0.002157	0.088379	-0.106201	-0.754150	0.848668	34.913191	135.374361
37776		-5.624925	0.139214	8.052154	-0.001709	0.002302	0.002409	0.096191	-0.108398	-0.753906	0.852596	34.910671	135.378510
37777		-5.599841	0.105635	8.047607	0.001245	-0.002134	0.003863	0.093994	-0.101318	-0.754639	0.859051	34.905490	135.381632
37778		-5.602903	0.118650	8.068265	0.002930	0.002691	0.004235	0.088623	-0.100830	-0.755371	0.866368	34.903176	135.387060
37779		-5.579783	0.152231	8.080132	-0.000167	-0.001063	0.001872	0.093506	-0.099854	-0.753418	0.871088	34.898590	135.391361
37780		-5.600903	0.139971	8.055746	0.001548	0.001877	0.001182	0.085449	-0.101318	-0.755859	0.876388	34.895836	135.394646
37781		-5.601144	0.140161	8.055575	-0.000161	0.004180	0.003590	0.090576	-0.100342	-0.758057	0.881825	34.894205	135.400504
37782		-5.578202	0.173580	8.067320	-0.000031	0.001885	0.001062	0.083008	-0.097656	-0.750000	0.886171	34.891456	135.403705
37783		-5.601491	0.140386	8.055330	-0.000198	0.000821	0.002934	0.091309	-0.106689	-0.754639	0.891281	34.887855	135.409831
37784		-5.583658	0.165253	8.100226	-0.004533	0.004444	-0.001575	0.088623	-0.101318	-0.757324	0.892009	34.886594	135.411218
37785		-5.575550	0.160313	8.046386	-0.006088	-0.002677	-0.004476	0.092041	-0.099365	-0.753662	0.890852	34.881122	135.410089
37786		-5.623075	0.126595	8.030641	-0.006075	0.007809	-0.001038	0.089111	-0.099365	-0.750000	0.890932	34.881785	135.411888
37787		-5.601457	0.104812	8.046493	-0.007661	0.002574	-0.002877	0.086914	-0.103516	-0.758545	0.889450	34.879323	135.413537
37788		-5.583689	0.129238	8.091362	-0.002855	0.004026	-0.002921	0.089111	-0.105225	-0.755371	0.890600	34.877835	135.413979
37789		-5.632284	0.129216	8.083756	-0.004434	0.004033	-0.003041	0.093018	-0.095215	-0.755615	0.891018	34.876158	135.413907
37790		-5.629578	0.116244	8.062843	-0.001375	0.004429	-0.001334	0.091309	-0.091309	-0.755127	0.893652	34.874887	135.415462
37791		-5.610907	0.107664	8.099439	0.000037	0.003359	0.000657	0.092773	-0.096680	-0.757568	0.897850	34.872852	135.421992
37792		-5.626029	0.157848	8.037516	0.000570	0.004665	-0.006019	0.080078	-0.102051	-0.753906	0.899729	34.871759	135.420277
37793		-5.581101	0.169722	8.065397	-0.001244	0.002135	-0.003863	0.088135	-0.100098	-0.745361	0.901533	34.868967	135.421619
37794		-5.612805	0.140354	8.107039	-0.004465	0.005918	-0.001979	0.089111	-0.106201	-0.750732	0.902148	34.868554	135.422739
37795		-5.560881	0.181275	8.089202	-0.002718	0.006974	-0.003731	0.090332	-0.102295	-0.757568	0.903277	34.868609	135.422285
37796		-5.581754	0.134948	8.056063	-0.002613	0.011807	-0.003478	0.084473	-0.101807	-0.749268	0.904392	34.871584	135.422424
37797		-5.611032	0.092884	8.076579	-0.004192	0.011814	-0.003598	0.092041	-0.106689	-0.758789	0.904732	34.874366	135.422872
37798		-5.610846	0.146859	8.071736	-0.000934	0.011390	-0.004824	0.085449	-0.094727	-0.762207	0.906269	34.877114	135.422067
37799		-5.627523	0.142311	8.013699	-0.006075	0.007809	-0.001038	0.088135	-0.105713	-0.747314	0.906477	34.877580	135.425014
37800		-5.633388	0.133540	8.046331	-0.000902	0.009506	-0.005886	0.090088	-0.093750	-0.754639	0.907596	34.879258	135.423445
37801		-5.615067	0.124406	8.082721	-0.005675	0.006168	-0.006906	0.076904	-0.097168	-0.747070	0.905675	34.878873	135.422203
37802		-5.612561	0.111370	8.061653	0.000241	0.007781	-0.000555	0.091064	-0.105225	-0.754395	0.909567	34.879515	135.424338
37803		-5.617108	0.157391	8.090237	-0.001374	0.004429	-0.001334	0.089355	-0.104004	-0.759033	0.912376	34.877990	135.426734
37804		-5.635682	0.132167	8.044747	-0.001101	0.010326	-0.002952	0.094482	-0.107422	-0.756348	0.914558	34.880111	135.427224
37805		-5.615453	0.144205	8.068579	-0.002580	0.009923	-0.004540	0.089600	-0.100342	-0.751221	0.915480	34.881906	135.425499
37806		-5.617214	0.177180	8.076297	-0.002379	0.009103	-0.007473	0.103271	-0.102539	-0.757568	0.915116	34.883368	135.422818
37807		-5.641132	0.143045	8.063799	-0.005268	0.009771	-0.011054	0.094238	-0.099365	-0.747314	0.911791	34.885220	135.417756
37808		-5.566289	0.128965	8.053876	-0.005943	0.005514	-0.003569	0.093262	-0.095703	-0.752686	0.910922	34.884590	135.417761
37809		-5.597042	0.153538	8.091215	-0.005472	0.005348	-0.009841	0.086426	-0.100342	-0.751465	0.907873	34.883850	135.414957
37810		-5.644928	0.119567	8.075080	-0.005738	0.009937	-0.004782	0.091797	-0.101807	-0.757324	0.906665	34.885765	135.414165
37811		-5.597272	0.118385	8.082138	-0.005741	0.004694	-0.006503	0.081787	-0.106445	-0.751709	0.904879	34.884524	135.412816
37812		-5.616551	0.126116	8.045073	-0.005910	0.003629	-0.004632	0.094482	-0.100342	-0.750977	0.903593	34.882824	135.412059
37813		-5.593770	0.158780	8.056839	-0.002583	0.004681	-0.006260	0.088867	-0.105469	-0.755371	0.903772	34.881571	135.409912
37814		-5.615140	0.145734	8.032195	-0.005910	0.003629	-0.004632	0.085205	-0.107422	-0.760986	0.902485	34.879872	135.409155
37815		-5.621717	0.082190	8.069262	-0.007488	0.003636	-0.004753	0.094971	-0.103516	-0.759277	0.900503	34.877974	135.407311
37816		-5.597890	0.169149	8.076860	-0.005942	0.005513	-0.003569	0.082520	-0.101563	-0.755127	0.899634	34.877344	135.407317
37817		-5.600374	0.147562	8.089020	-0.006010	0.004039	-0.003165	0.086426	-0.100098	-0.752197	0.899047	34.875693	135.407873
37818		-5.598688	0.167911	8.076333	-0.004464	0.005917	-0.001980	0.096924	-0.107178	-0.743652	0.899662	34.875279	135.408993
37819		-5.622295	0.133806	8.063993	-0.008829	0.006182	-0.007150	0.091797	-0.103027	-0.760498	0.895911	34.874976	135.405762
37820		-5.627899	0.124481	8.096828	-0.007488	0.003636	-0.004754	0.091309	-0.093018	-0.751221	0.893673	34.873281	135.404920
37821		-5.622938	0.132018	8.063574	-0.005977	0.002155	-0.004228	0.095215	-0.100586	-0.753662	0.892567	34.870608	135.406109
37822		-5.617856	0.139777	8.030401	-0.002887	0.000668	-0.003581	0.091309	-0.101074	-0.748779	0.893414	34.867202	135.406053
37823		-5.595880	0.118167	8.046521	-0.004466	0.000674	-0.003703	0.096191	-0.097900	-0.760742	0.893436	34.863730	135.406192
37824		-5.572912	0.151011	8.058459	-0.002920	0.002552	-0.002518	0.096924	-0.100342	-0.758301	0.894699	34.861394	135.406899
37825		-5.598446	0.096351	8.058611	-0.004464	0.005917	-0.001980	0.089111	-0.102051	-0.750977	0.895379	34.860942	135.409062
37826		-5.600885	0.163112	8.074908	-0.001645	0.003774	0.002005	0.088135	-0.100342	-0.747070	0.899186	34.859265	135.412941
37827		-5.523802	0.170656	8.052713	-0.002648	0.008450	-0.004132	0.083496	-0.101318	-0.750244	0.900157	34.860172	135.412916
37828		-5.607414	0.153975	8.107104	-0.005771	0.011821	-0.003716	0.095459	-0.104492	-0.753662	0.899367	34.863157	135.412889
37829		-5.602120	0.128240	8.065078	-0.002512	0.011400	-0.004939	0.096191	-0.099854	-0.756348	0.900139	34.865770	135.411802
37830		-5.578998	0.127604	8.068145	-0.002545	0.013284	-0.003875	0.092285	-0.099609	-0.750977	0.901143	34.869594	135.411679
37831		-5.652339	0.127658	8.056206	-0.005940	0.010756	-0.001846	0.094727	-0.102539	-0.755859	0.901095	34.871884	135.413649
37832		-5.632274	0.139591	8.080014	-0.002714	0.012218	-0.002004	0.093018	-0.091309	-0.761475	0.902742	34.875081	135.414822
37833		-5.633053	0.139210	8.079477	-0.002715	0.006976	-0.003728	0.093262	-0.099365	-0.752197	0.903703	34.875195	135.416670
37834		-5.609576	0.138558	8.082800	-0.004327	0.008866	-0.002787	0.093018	-0.103516	-0.749268	0.904093	34.876479	135.417259
37835		-5.634358	0.138311	8.078583	-0.002816	0.007385	-0.002261	0.092041	-0.103516	-0.755127	0.905694	34.876831	135.418187
37836		-5.632814	0.071100	8.061625	0.000273	0.005899	-0.001613	0.088135	-0.101074	-0.756104	0.909169	34.876404	135.419563
37837		-5.579744	0.166888	8.039972	-0.001374	0.004430	-0.001332	0.085693	-0.104736	-0.755127	0.911965	34.874988	135.421266
37838		-5.606514	0.145903	8.048219	-0.002850	0.009269	-0.001198	0.089355	-0.093994	-0.755371	0.913838	34.876488	135.422970
37839		-5.608336	0.179023	8.055980	-0.002577	0.009926	-0.004535	0.085449	-0.106201	-0.748535	0.914653	34.878202	135.423693
37840		-5.636502	0.103452	8.068084	-0.002713	0.012218	-0.002004	0.088867	-0.107178	-0.754395	0.916302	34.881398	135.424867
37841		-5.610972	0.124045	8.058988	0.000102	0.004833	0.000258	0.090576	-0.105957	-0.748047	0.920686	34.880169	135.426181
37842		-5.631446	0.165975	8.030033	-0.001169	0.008854	-0.002542	0.094727	-0.104004	-0.748291	0.922984	34.881444	135.426942
37843		-5.565071	0.156944	8.073957	0.000307	0.009257	-0.000952	0.097168	-0.100098	-0.753418	0.926979	34.882865	135.427568
37844		-5.593181	0.169441	8.090289	-0.002508	0.011401	-0.004938	0.089111	-0.098389	-0.748779	0.927569	34.885620	135.426684
37845		-5.613974	0.123051	8.056912	-0.004257	0.010341	-0.003191	0.089600	-0.103760	-0.748291	0.927941	34.887669	135.427899
37846		-5.642162	0.135371	8.073184	-0.002713	0.012219	-0.002004	0.095459	-0.096924	-0.750977	0.929591	34.890865	135.429073
37847		-5.615797	0.122332	8.055652	-0.001100	0.010329	-0.002945	0.087158	-0.104248	-0.752441	0.931898	34.892900	135.430043
37848		-5.616633	0.122078	8.055074	-0.001099	0.010329	-0.002945	0.091309	-0.104736	-0.750000	0.934084	34.895023	135.430540
37849		-5.613006	0.163748	8.029888	0.000308	0.004016	-0.002676	0.089111	-0.106934	-0.747070	0.937352	34.893382	135.430509
37850		-5.644900	0.134467	8.071285	-0.001305	0.005905	-0.001736	0.093018	-0.113770	-0.757813	0.939875	34.892959	135.431800
37851		-5.592953	0.175811	8.053760	-0.001408	0.006314	-0.000269	0.085693	-0.103516	-0.757568	0.943239	34.892654	135.431443
37852		-5.568386	0.141822	8.048842	-0.004324	0.008866	-0.002789	0.086670	-0.099609	-0.741943	0.943631	34.893937	135.432032
37853		-5.596241	0.154069	8.065345	-0.002677	0.005093	-0.004793	0.094482	-0.102295	-0.746826	0.944301	34.892881	135.431758
37854		-5.571595	0.119831	8.060485	-0.004118	0.008049	-0.005723	0.089600	-0.101318	-0.755859	0.943634	34.893723	135.430289
37855		-5.595482	0.173704	8.052048	-0.007344	0.011827	-0.003842	0.086914	-0.107666	-0.752441	0.942033	34.896614	135.430371
37856		-5.623752	0.097966	8.064009	-0.000962	0.013280	-0.003749	0.101563	-0.095703	-0.747559	0.943996	34.900435	135.430340
37857		-5.650989	0.164827	8.076134	-0.002780	0.010744	-0.001601	0.096436	-0.105225	-0.745117	0.945891	34.902723	135.431822
37858		-5.628821	0.109799	8.083395	-0.004187	0.011816	-0.003595	0.090820	-0.099365	-0.761963	0.946059	34.905704	135.431882
37859		-5.649512	0.151428	8.054262	-0.002917	0.007794	-0.000795	0.092041	-0.109131	-0.745605	0.948185	34.906275	135.433890
37860		-5.628091	0.129931	8.070063	-0.002606	0.006569	-0.005196	0.093262	-0.102783	-0.752197	0.948584	34.906265	135.432771
37861		-5.623224	0.137792	8.036696	-0.004425	0.004033	-0.003048	0.091797	-0.105957	-0.748779	0.949001	34.904704	135.431807
37862		-5.599396	0.137210	8.040327	-0.003019	0.002961	-0.001054	0.094238	-0.103027	-0.755859	0.950795	34.902588	135.433540
37863		-5.555777	0.182532	8.076755	-0.002675	0.005094	-0.004793	0.092529	-0.104248	-0.756104	0.951487	34.901646	135.432023
37864		-5.603470	0.148776	8.060424	-0.005798	0.008463	-0.004380	0.085693	-0.105713	-0.745361	0.950396	34.902714	135.431496
37865		-5.628449	0.148203	8.056007	-0.005592	0.012888	-0.005588	0.097412	-0.109619	-0.749268	0.949177	34.906183	135.429541
37866		-5.605266	0.147156	8.059205	-0.008885	0.009949	-0.005032	0.097412	-0.109863	-0.755371	0.946066	34.908108	135.428576
37867		-5.630230	0.146411	8.054795	-0.005556	0.011005	-0.006652	0.096191	-0.101074	-0.754639	0.944484	34.910652	135.423888
37868		-5.633100	0.124628	8.066651	-0.005588	0.007647	-0.007315	0.090576	-0.105713	-0.753662	0.942334	34.911280	135.421301
37869		-5.658893	0.157462	8.070745	-0.005761	0.006580	-0.005445	0.084961	-0.092773	-0.750732	0.940978	34.911191	135.419856
37870		-5.604671	0.131292	8.036749	-0.005898	0.003630	-0.004640	0.090332	-0.105713	-0.751465	0.939694	34.909492	135.419091
37871		-5.637595	0.134761	8.086488	-0.007372	0.003227	-0.006232	0.088379	-0.104248	-0.754395	0.937028	34.907395	135.418606
37872		-5.626251	0.117279	8.011762	-0.004183	0.006575	-0.005320	0.096191	-0.104492	-0.754883	0.936474	34.907389	135.417400
37873		-5.582712	0.162254	8.048233	-0.007544	0.002160	-0.004363	0.094482	-0.101318	-0.762451	0.934522	34.904744	135.416376
37874		-5.611244	0.119876	8.068988	-0.004597	0.002966	-0.001179	0.088867	-0.100098	-0.754883	0.935362	34.902632	135.418022
37875		-5.607212	0.161050	8.044147	-0.007335	0.001344	-0.007297	0.091797	-0.107666	-0.751709	0.932279	34.899521	135.416304
37876		-5.582154	0.126654	8.039553	-0.004493	0.002558	-0.002646	0.088623	-0.106201	-0.754395	0.932591	34.897189	135.416921
37877		-5.586758	0.172027	8.068415	-0.007580	0.004043	-0.003298	0.093750	-0.098389	-0.751465	0.931113	34.895589	135.415868
37878		-5.613407	0.150381	8.076646	-0.007338	0.006586	-0.005569	0.083252	-0.103271	-0.756348	0.928652	34.895592	135.414489
37879		-5.612827	0.116126	8.067942	-0.004182	0.006576	-0.005319	0.099121	-0.099365	-0.757324	0.928223	34.895422	135.414145
37880		-5.637591	0.115758	8.063645	-0.000889	0.009517	-0.005873	0.088379	-0.108154	-0.751953	0.929354	34.897106	135.412586
37881		-5.609709	0.156994	8.042487	-0.006139	0.001087	-0.002370	0.098145	-0.104004	-0.754150	0.928979	34.893855	135.413040
37882		-5.636130	0.135683	8.050856	-0.002846	0.004028	-0.002923	0.090576	-0.102783	-0.747559	0.930133	34.892368	135.413480
37883		-5.615474	0.147434	8.075263	-0.005755	0.001340	-0.007173	0.093506	-0.090576	-0.756348	0.928056	34.889325	135.410542
37884		-5.641773	0.125911	8.083717	-0.004455	0.000675	-0.003712	0.094971	-0.101563	-0.751221	0.927951	34.885924	135.410393
37885		-5.639791	0.146286	8.071291	-0.004387	0.002150	-0.004113	0.089600	-0.103516	-0.754639	0.927749	34.883294	135.412034
37886		-5.612571	0.133035	8.054364	-0.004455	0.000675	-0.003712	0.086670	-0.110840	-0.746338	0.927644	34.879894	135.411885
37887		-5.637722	0.165971	8.058943	-0.005959	-0.003086	-0.005968	0.093018	-0.101318	-0.748291	0.925996	34.874213	135.408824
37888		-5.638476	0.110858	8.063095	-0.004592	-0.002276	-0.002909	0.087891	-0.103760	-0.753418	0.926114	34.869115	135.409202
37889		-5.635871	0.131115	8.051113	-0.007878	-0.010458	-0.004086	0.099854	-0.104736	-0.757813	0.923976	34.859226	135.408736
37890		-5.613169	0.109476	8.067797	-0.001640	-0.006711	-0.001454	0.089844	-0.097412	-0.757080	0.926338	34.851573	135.410081
37891		-5.586292	0.129989	8.059768	-0.003249	-0.010065	-0.002243	0.092041	-0.094238	-0.750488	0.927535	34.841949	135.411351
37892		-5.588785	0.142219	8.080990	-0.001708	-0.008187	-0.001052	0.092041	-0.099365	-0.758301	0.930007	34.833447	135.412958
37893		-5.634374	0.163114	8.061342	-0.004728	-0.005227	-0.002105	0.085938	-0.104492	-0.753174	0.930381	34.826550	135.415730
37894		-5.606472	0.149962	8.044878	-0.003076	-0.008996	-0.004112	0.088623	-0.097900	-0.752686	0.930844	34.817613	135.415192
37895		-5.608933	0.161848	8.066131	-0.007982	-0.010051	-0.002617	0.091553	-0.108887	-0.744873	0.929217	34.807897	135.416344
37896		-5.556684	0.148460	8.053661	-0.003248	-0.010064	-0.002243	0.078369	-0.095947	-0.747559	0.930319	34.798331	135.417098
37897		-5.561480	0.139318	8.087079	-0.009221	-0.002669	-0.004749	0.088623	-0.099854	-0.757080	0.927222	34.792850	135.416311
37898		-5.555968	0.146891	8.054184	-0.006065	-0.002678	-0.004499	0.090332	-0.099365	-0.753906	0.925860	34.787536	135.415576
37899		-5.610391	0.083701	8.083579	-0.004666	0.001489	-0.000775	0.086670	-0.103516	-0.746094	0.926900	34.784449	135.418547
37900		-5.608430	0.104378	8.071160	-0.001510	0.001480	-0.000526	0.091064	-0.097900	-0.740723	0.929756	34.781480	135.420630
37901		-5.609645	0.137681	8.079486	-0.003260	0.000416	0.001218	0.093506	-0.100098	-0.753174	0.932426	34.777783	135.424177
37902		-5.630491	0.125152	8.054971	-0.001645	-0.001471	0.000277	0.082764	-0.104736	-0.746826	0.935504	34.773115	135.426785
37903		-5.630417	0.125056	8.055025	0.000105	-0.000407	-0.001467	0.082520	-0.098145	-0.757568	0.939048	34.768951	135.428230
37904		-5.606155	0.124861	8.058962	-0.000031	-0.003358	-0.000665	0.086914	-0.108887	-0.752930	0.942663	34.763211	135.430159
37905		-5.581745	0.124764	8.063000	-0.000308	-0.004020	0.002671	0.087891	-0.104248	-0.757568	0.947610	34.756878	135.434525
37906		-5.582569	0.158178	8.071597	-0.001504	-0.003760	-0.002257	0.084961	-0.095703	-0.756104	0.949744	34.750922	135.435338
37907		-5.586595	0.116162	8.096367	-0.000105	0.000407	0.001467	0.092285	-0.107666	-0.758545	0.954284	34.747158	135.439945
37908		-5.587598	0.149551	8.104841	-0.001504	-0.003760	-0.002257	0.082520	-0.097900	-0.754639	0.956418	34.741202	135.440757
37909		-5.583303	0.191325	8.080262	-0.001682	0.000411	0.001343	0.087646	-0.097168	-0.754395	0.960048	34.737465	135.444365
37910		-5.606278	0.157788	8.068057	-0.003051	-0.000398	-0.001716	0.091309	-0.102539	-0.760254	0.961532	34.733430	135.445592
37911		-5.610347	0.115590	8.092797	-0.001541	-0.001878	-0.001191	0.090088	-0.108154	-0.753662	0.964163	34.728434	135.448179
37912		-5.580774	0.123546	8.063692	-0.004592	-0.002275	-0.002907	0.085449	-0.100586	-0.753174	0.964278	34.723335	135.448554
37913		-5.636325	0.094086	8.101461	0.000172	0.001069	-0.001869	0.088623	-0.091553	-0.744629	0.967728	34.720026	135.449302
37914		-5.630059	0.157179	8.064474	0.006348	-0.001900	-0.000569	0.090088	-0.110596	-0.750977	0.975041	34.715119	135.451311
37915		-5.583626	0.136333	8.084657	0.004740	-0.005253	-0.001358	0.089844	-0.102783	-0.757080	0.981212	34.708218	135.453011
37916		-5.608350	0.170238	8.089570	0.002923	-0.007793	0.000787	0.097168	-0.106201	-0.755859	0.987059	34.699922	135.455892
37917		-5.604355	0.157817	8.069393	-0.000159	-0.011549	-0.001594	0.089844	-0.104492	-0.748535	0.990311	34.689467	135.456495
37918		-5.602362	0.124267	8.061609	-0.000196	-0.009666	-0.000528	0.093750	-0.103760	-0.758301	0.993836	34.680111	135.458435
37919		-5.604598	0.136789	8.083003	0.001285	-0.014504	-0.000667	0.085938	-0.107910	-0.760254	0.998262	34.667938	135.459757
37920		-5.553144	0.157584	8.079091	0.001181	-0.014097	0.000800	0.084717	-0.108887	-0.755859	1.003068	34.656029	135.462566
37921		-5.579382	0.170229	8.096741	-0.001908	-0.012613	0.000151	0.081055	-0.102295	-0.749512	1.006081	34.644835	135.463813
37922		-5.578361	0.170083	8.097447	-0.001907	-0.012612	0.000151	0.085938	-0.097900	-0.752930	1.008869	34.633783	135.466185
37923		-5.555304	0.148515	8.114294	-0.006261	-0.012344	-0.005024	0.084473	-0.102783	-0.749512	1.007217	34.622775	135.466057
37924		-5.574345	0.189972	8.086476	-0.004995	-0.011128	-0.000498	0.087891	-0.105957	-0.751465	1.007989	34.612580	135.467996
37925		-5.600461	0.114339	8.099659	-0.001699	-0.013426	-0.002784	0.091553	-0.107422	-0.758301	1.009893	34.600983	135.467993
37926		-5.594217	0.122569	8.067289	-0.001839	-0.011137	-0.000251	0.086914	-0.106201	-0.749756	1.012570	34.590781	135.470103
37927		-5.577714	0.126550	8.125436	0.002858	-0.009268	0.001186	0.082520	-0.114502	-0.759033	1.018700	34.581572	135.472199
37928		-5.571759	0.135329	8.092857	0.004607	-0.008204	-0.000559	0.086670	-0.096191	-0.751953	1.024966	34.573053	135.474127
37929		-5.570960	0.135583	8.093402	0.002999	-0.011557	-0.001348	0.090820	-0.103027	-0.752686	1.030142	34.562489	135.475174
37930		-5.592316	0.157002	8.077756	0.004467	-0.005915	0.001974	0.083252	-0.108154	-0.757324	1.037342	34.555254	135.478891
37931		-5.538287	0.165696	8.052638	0.006081	-0.007801	0.001031	0.091064	-0.104492	-0.751465	1.045239	34.546858	135.481461
37932		-5.548156	0.149279	8.119169	0.002719	-0.006979	0.003720	0.078369	-0.106689	-0.746094	1.052116	34.538995	135.486375
37933		-5.542396	0.158111	8.086457	0.002889	-0.005910	0.001851	0.080322	-0.113037	-0.757813	1.058531	34.531655	135.489482
37934		-5.595384	0.150270	8.112285	0.002889	-0.005910	0.001851	0.085938	-0.102783	-0.750977	1.064774	34.524423	135.493108
37935		-5.594766	0.150588	8.112705	0.002859	-0.009268	0.001187	0.083984	-0.102295	-0.751221	1.070912	34.515138	135.495369
37936		-5.588907	0.159451	8.080067	0.006148	-0.006326	0.000629	0.081543	-0.104980	-0.753906	1.078536	34.507680	135.498137
37937		-5.543297	0.172309	8.108700	0.005875	-0.006987	0.003966	0.083984	-0.098633	-0.753174	1.087442	34.499669	135.503538
37938		-5.539448	0.160453	8.088431	0.007696	-0.009688	0.000088	0.085205	-0.100586	-0.745361	1.095712	34.490290	135.505882
37939		-5.539933	0.194616	8.097219	0.007624	-0.005923	0.002219	0.086914	-0.104492	-0.757324	1.104868	34.482937	135.511022
37940		-5.646301	0.091231	8.144133	0.010913	-0.002982	0.001661	0.089111	-0.100098	-0.753662	1.115648	34.477382	135.514546
37941		-5.565252	0.176135	8.106333	0.021694	-0.008914	0.004126	0.084717	-0.106934	-0.753418	1.133608	34.468337	135.520286
37942		-5.533273	0.207316	8.065029	0.020147	-0.005551	0.004667	0.083984	-0.109863	-0.743652	1.150838	34.461274	135.525858
37943		-5.510535	0.187862	8.081575	0.015418	-0.010778	0.002571	0.079590	-0.104248	-0.751953	1.164685	34.451150	135.528836
37944		-5.533767	0.189149	8.078392	0.010787	-0.011172	0.000737	0.083496	-0.103027	-0.749268	1.174958	34.440911	135.531592
37945		-5.538008	0.181390	8.112116	0.004407	-0.012629	0.000650	0.088135	-0.105469	-0.754150	1.181646	34.429699	135.534805
37946		-5.507659	0.190190	8.083480	0.007564	-0.012638	0.000894	0.078857	-0.102539	-0.750977	1.190119	34.418618	135.537645
37947		-5.614611	0.120210	8.139244	0.007493	-0.008872	0.003024	0.083252	-0.100342	-0.757568	1.199528	34.409558	135.542452
37948		-5.562231	0.108439	8.126701	0.013643	-0.015198	0.003655	0.080322	-0.107422	-0.756836	1.212541	34.396976	135.547167
37949		-5.565269	0.155995	8.156541	0.016595	-0.014391	0.006833	0.080566	-0.100098	-0.751953	1.228596	34.384678	135.554840
37950		-5.584752	0.145683	8.133077	0.020626	-0.022030	0.014016	0.081299	-0.110840	-0.749756	1.249605	34.368053	135.566632
37951		-5.527542	0.177255	8.096222	0.025802	-0.020318	0.009174	0.077393	-0.097656	-0.753174	1.271820	34.352336	135.575278
37952		-5.523733	0.200858	8.084974	0.021939	-0.022691	0.017476	0.083008	-0.109375	-0.754395	1.294913	34.335279	135.589440
37953		-5.528377	0.228614	8.127397	0.022476	-0.016134	0.012526	0.076904	-0.111572	-0.748535	1.316514	34.321898	135.601221
37954		-5.520835	0.205796	8.086829	0.015959	-0.015297	0.014976	0.086182	-0.104248	-0.757813	1.335253	34.309101	135.613749
37955		-5.543650	0.208024	8.083952	0.017843	-0.016528	0.010696	0.088379	-0.111816	-0.756104	1.353528	34.295545	135.623041
37956		-5.501248	0.180381	8.137772	0.014585	-0.016109	0.011921	0.081299	-0.109863	-0.756104	1.370267	34.282319	135.633423
37957		-5.520958	0.169836	8.114215	0.014485	-0.015699	0.013388	0.084961	-0.114014	-0.755127	1.387690	34.269247	135.643814
37958		-5.472511	0.204995	8.130706	0.016131	-0.014230	0.013105	0.080566	-0.109863	-0.755127	1.405783	34.257075	135.655036
37959		-5.502739	0.177935	8.173216	0.014418	-0.011931	0.015514	0.082275	-0.111572	-0.749023	1.424039	34.246102	135.666810
37960		-5.565901	0.176332	8.108935	0.017577	-0.011941	0.015755	0.082764	-0.102051	-0.756836	1.444005	34.235197	135.679895
37961		-5.538585	0.199426	8.100931	0.019124	-0.015305	0.015217	0.082275	-0.107422	-0.753662	1.464711	34.222286	135.692809
37962		-5.524396	0.218442	8.179973	0.017580	-0.017183	0.014035	0.075928	-0.105713	-0.761475	1.483944	34.208396	135.704596
37963		-5.491872	0.249708	8.138866	0.015902	-0.011525	0.017102	0.083984	-0.109619	-0.758057	1.503553	34.197561	135.719337
37964		-5.488956	0.272695	8.126942	0.012878	-0.008565	0.016052	0.079102	-0.103271	-0.759766	1.520955	34.188571	135.732664
37965		-5.515416	0.199527	8.140369	0.012712	-0.009628	0.017924	0.083740	-0.107178	-0.745850	1.539050	34.178839	135.748029
37966		-5.512563	0.222727	8.128401	0.017252	-0.008826	0.021217	0.074219	-0.106445	-0.754395	1.560953	34.169611	135.764917
37967		-5.491848	0.271265	8.161340	0.017287	-0.005467	0.021874	0.083496	-0.106445	-0.749268	1.583262	34.162176	135.782851
37968		-5.584750	0.261872	8.126244	0.014162	-0.007338	0.020573	0.082275	-0.110107	-0.759766	1.603150	34.153800	135.799310
37969		-5.533775	0.196852	8.117618	0.015508	-0.009882	0.022970	0.083008	-0.113281	-0.757324	1.624806	34.143863	135.817552
37970		-5.483548	0.253386	8.121240	0.015510	-0.009881	0.022970	0.080322	-0.103027	-0.757080	1.646358	34.133982	135.835608
37971		-5.462749	0.301510	8.154170	0.011340	-0.005198	0.016590	0.079590	-0.110352	-0.752441	1.663179	34.126802	135.849786
37972		-5.431493	0.244113	8.108313	0.006909	0.004076	0.015265	0.081299	-0.110107	-0.753174	1.676962	34.125034	135.862783
37973		-5.460231	0.203762	8.129243	0.002208	0.007456	0.015561	0.081543	-0.107666	-0.747803	1.688334	34.125109	135.875893
37974		-5.463153	0.184042	8.141123	0.005541	0.013749	0.015645	0.073975	-0.106689	-0.752686	1.701591	34.128869	135.889350
37975		-5.541004	0.144408	8.154128	0.006961	0.017923	0.019353	0.079346	-0.102783	-0.747070	1.717239	34.134827	135.906215
37976		-5.675500	0.022798	8.209645	0.021921	0.012537	0.029914	0.081055	-0.101807	-0.751709	1.745412	34.137639	135.929524
37977		-5.541932	0.118092	8.144559	0.042965	0.004585	0.043235	0.080566	-0.105957	-0.752686	1.790709	34.135555	135.963863
37978		-5.360800	0.247963	8.095027	0.048835	0.009974	0.051703	0.082031	-0.101318	-0.755859	1.842734	34.136475	136.002196
37979		-5.210686	0.403109	8.082388	0.040462	0.028356	0.042765	0.076904	-0.103027	-0.748535	1.886711	34.147975	136.036669
37980		-5.286384	0.529754	8.081158	0.019482	0.044920	0.031800	0.084717	-0.116455	-0.749512	1.914653	34.169238	136.062043
37981		-5.468710	0.483649	8.110589	-0.002789	0.055010	0.014597	0.082764	-0.108643	-0.748291	1.923388	34.196515	136.075985
37982		-5.420047	0.402897	8.078192	-0.017550	0.054331	-0.000625	0.082031	-0.114502	-0.751709	1.917645	34.223782	136.079150
37983		-5.387260	0.383741	8.148709	-0.032535	0.068744	-0.007373	0.081787	-0.101318	-0.747803	1.900998	34.259358	136.077712
37984		-5.431580	0.288735	8.224057	-0.041094	0.082710	-0.015102	0.087891	-0.108887	-0.749512	1.876474	34.303151	136.071476
37985		-5.566644	0.047868	8.230209	-0.033402	0.090626	-0.008779	0.083252	-0.110107	-0.755859	1.858940	34.351294	136.071044
37986		-5.591037	0.074869	8.175560	-0.017916	0.098909	-0.000368	0.081055	-0.109375	-0.749512	1.853644	34.404088	136.075359
37987		-5.826534	0.060789	8.201951	0.004366	0.092170	0.017534	0.084473	-0.111328	-0.749023	1.868168	34.452563	136.092225
37988		-5.765743	0.075390	8.084913	0.032303	0.072127	0.039596	0.085693	-0.110352	-0.758301	1.907038	34.489263	136.123726
37989		-5.536327	0.508434	7.883308	0.037798	0.057766	0.045623	0.089111	-0.107910	-0.749268	1.951381	34.517513	136.159082
37990		-5.435179	0.716248	7.857933	0.015190	0.044766	0.025237	0.077881	-0.111084	-0.751221	1.974491	34.538794	136.180031
37991		-5.513302	0.555212	8.001407	-0.015125	0.038122	0.004056	0.080566	-0.112061	-0.748779	1.971903	34.556565	136.186592
37992		-5.552733	0.273852	8.050174	-0.020849	0.037573	-0.004187	0.096680	-0.115234	-0.748047	1.962676	34.574304	136.186920
37993		-5.705681	0.211709	8.206646	-0.017911	0.033132	-0.002715	0.076172	-0.111328	-0.746094	1.955820	34.589434	136.187136
37994		-5.639755	0.135101	8.233273	-0.001904	0.033138	0.016029	0.087891	-0.107178	-0.750000	1.965372	34.604238	136.201419
37995		-5.587572	-0.010811	8.185876	0.011968	0.036174	0.022636	0.085449	-0.111572	-0.753174	1.985643	34.620495	136.220936
37996		-5.683127	-0.052152	8.139134	0.032979	0.043932	0.041208	0.087158	-0.118652	-0.746826	2.025306	34.640965	136.253024
37997		-5.549690	0.186234	8.072737	0.047915	0.049019	0.055279	0.089844	-0.114502	-0.751465	2.079366	34.663952	136.293941
37998		-5.658267	0.287164	8.111414	0.051104	0.054249	0.057250	0.086426	-0.109131	-0.752930	2.135976	34.689944	136.337524
37999		-5.731500	0.404460	8.087700	0.048841	0.048135	0.063553	0.079346	-0.109375	-0.749268	2.193824	34.712187	136.385451
38000		-5.385987	0.719111	7.949342	0.042215	0.036091	0.042549	0.089111	-0.116455	-0.754639	2.239304	34.728041	136.418388
38001		-5.460795	0.723848	7.935314	0.007409	0.033924	0.019700	0.081055	-0.106934	-0.747803	2.255872	34.743009	136.435628
38002		-5.431463	0.664518	8.032599	-0.027775	0.037710	-0.015988	0.086426	-0.115723	-0.750488	2.238052	34.761091	136.427843
38003		-5.623454	0.078100	8.071637	-0.032327	0.038806	-0.018251	0.090332	-0.108643	-0.755615	2.216849	34.779691	136.419198
38004		-5.741171	-0.001578	8.157167	-0.009763	0.034160	-0.003999	0.098389	-0.112793	-0.750977	2.214051	34.795471	136.419659
38005		-5.534656	0.141478	8.099906	0.004896	0.036709	0.012372	0.086426	-0.119141	-0.754395	2.226261	34.812344	136.431964
38006		-5.665529	0.082702	8.114937	0.016813	0.044763	0.025392	0.091309	-0.111084	-0.745850	2.250564	34.833536	136.453220
38007		-5.659038	0.290992	8.074576	0.025082	0.031611	0.036111	0.086914	-0.103760	-0.750977	2.283828	34.846860	136.480981
38008		-5.579589	0.498754	8.046652	0.026878	0.030771	0.033312	0.082031	-0.122070	-0.756836	2.316862	34.859841	136.507406
38009		-5.458615	0.730024	8.067866	0.010941	0.036020	0.016229	0.098389	-0.106689	-0.760986	2.334152	34.876040	136.522655
38010		-5.614329	0.703380	8.086917	-0.020705	0.042868	-0.002587	0.084717	-0.108154	-0.749756	2.325813	34.896772	136.524389
38011		-5.623225	0.448646	7.950204	-0.033899	0.028336	-0.021854	0.095703	-0.110107	-0.748047	2.301979	34.909548	136.514105
38012		-5.556951	0.488583	7.990151	-0.050029	0.013003	-0.044322	0.086914	-0.114502	-0.754150	2.259676	34.914135	136.485850
38013		-5.809836	0.226856	8.135582	-0.052700	0.014736	-0.049796	0.082520	-0.114502	-0.750732	2.213791	34.919745	136.453970
38014		-5.758961	-0.035060	8.098746	-0.027671	0.007291	-0.028165	0.088379	-0.107178	-0.745850	2.190659	34.920674	136.436832
38015		-5.535053	-0.011335	8.089413	0.001005	0.013916	-0.006988	0.088867	-0.114014	-0.750977	2.192637	34.924770	136.435247
38016		-5.517943	0.189946	8.141192	0.009982	0.026410	0.004568	0.096924	-0.106689	-0.758301	2.204457	34.935925	136.441478
38017		-5.636244	0.147007	8.090459	0.017553	0.027592	0.009632	0.093262	-0.111328	-0.750244	2.222719	34.947582	136.451840
38018		-5.717857	0.296700	7.985043	0.020222	0.032998	0.017881	0.085938	-0.109131	-0.749756	2.245845	34.962207	136.467561
38019		-5.651497	0.432564	8.028093	0.024967	0.025826	0.015510	0.091553	-0.112061	-0.753418	2.270703	34.972669	136.482106
38020		-5.428959	0.460253	8.017970	0.010122	0.031247	0.004811	0.091797	-0.116943	-0.755615	2.282795	34.986580	136.488664
38021		-5.433170	0.493844	8.023822	-0.005501	0.051420	-0.010087	0.092773	-0.110596	-0.749268	2.280414	35.012295	136.485096
38022		-5.672926	0.295342	8.075228	-0.012772	0.058024	-0.015722	0.093750	-0.113281	-0.746826	2.271583	35.042003	136.478047
38023		-5.816901	0.128390	8.006859	-0.004316	0.044040	-0.007919	0.092041	-0.106689	-0.748535	2.270597	35.063467	136.476120
38024		-5.576023	0.321276	8.041091	0.006467	0.041425	-0.004693	0.088135	-0.110352	-0.749756	2.276949	35.083421	136.476319
38025		-5.665199	0.373362	8.108429	0.004942	0.044799	-0.004175	0.097412	-0.118896	-0.745850	2.282731	35.105168	136.478239
38026		-5.679607	0.356626	8.027951	0.004358	0.029230	-0.003045	0.094238	-0.107422	-0.755859	2.288345	35.118103	136.479256
38027		-5.622761	0.493268	7.980220	-0.004104	0.037964	-0.012567	0.101318	-0.110352	-0.747070	2.285517	35.136215	136.473640
38028		-5.607574	0.395819	8.012106	-0.004850	0.019445	-0.010626	0.095703	-0.111328	-0.753662	2.282644	35.143721	136.469077
38029		-5.744473	0.271121	8.064649	-0.012500	0.023925	-0.012528	0.092529	-0.113281	-0.748047	2.274751	35.153827	136.463564
38030		-5.629940	0.225712	7.965350	-0.007043	0.005774	-0.008576	0.096191	-0.112061	-0.751465	2.271226	35.153459	136.460054
38031		-5.510080	0.311303	7.989523	-0.004404	0.018320	0.002452	0.093506	-0.110840	-0.753418	2.273966	35.159951	136.464596
38032		-5.802596	0.261630	8.086366	0.000676	0.029435	0.002955	0.096680	-0.106445	-0.752197	2.279893	35.172867	136.469819
38033		-5.617494	0.250924	8.007358	0.010966	0.017974	0.008628	0.087891	-0.121826	-0.746826	2.293848	35.179014	136.479871
38034		-5.781617	0.142104	8.076214	-0.002002	0.019835	0.030861	0.093506	-0.110352	-0.750000	2.309353	35.185790	136.504379
38035		-5.866298	0.162728	7.992926	0.028774	-0.009418	0.032129	0.095215	-0.111328	-0.750977	2.342695	35.175654	136.528234
38036		-5.619010	0.469925	8.166106	0.034719	0.000805	0.040908	0.095215	-0.110596	-0.752930	2.382977	35.171277	136.559234
38037		-5.819532	0.272907	8.026427	0.045103	-0.023463	0.040640	0.092773	-0.109863	-0.748047	2.428726	35.152929	136.589995
38038		-5.838976	0.455134	8.031553	0.026266	-0.049319	0.065383	0.093750	-0.116455	-0.748535	2.473132	35.119221	136.636603
38039		-5.573224	0.469051	8.101404	0.030734	-0.059571	0.046368	0.093994	-0.118652	-0.749268	2.512300	35.080017	136.669720
38040		-5.403026	0.450075	8.145994	0.021763	-0.043506	0.045873	0.089844	-0.114014	-0.753174	2.546286	35.050078	136.702767
38041		-5.660089	0.499241	7.931653	0.001361	-0.000899	0.059232	0.090576	-0.112793	-0.752197	2.574818	35.044081	136.746108
38042		-5.601653	0.375262	7.875469	0.019768	-0.025288	0.019903	0.088623	-0.113525	-0.753174	2.597528	35.025214	136.761528
38043		-5.786577	0.391364	8.099268	0.024751	-0.028050	0.016325	0.089355	-0.114746	-0.744873	2.621669	35.004731	136.775118
38044		-5.959306	0.093076	8.086916	0.044932	-0.060250	0.028662	0.087891	-0.114014	-0.749023	2.661630	34.965610	136.795498
38045		-5.744599	0.430463	8.064095	0.066959	-0.080898	0.042677	0.088623	-0.113770	-0.753662	2.719478	34.914175	136.825244
38046		-5.585206	0.464054	8.047609	0.060956	-0.080194	0.038801	0.089844	-0.116211	-0.751709	2.772193	34.863330	136.851920
38047		-5.633812	0.376060	8.073127	0.057740	-0.074490	0.041701	0.087646	-0.114990	-0.753174	2.824339	34.815564	136.881324
38048		-5.585251	0.374232	8.118418	0.057566	-0.075541	0.043577	0.079102	-0.116943	-0.746582	2.876984	34.767206	136.911345
38049		-5.574093	0.422906	8.097092	0.052268	-0.069619	0.052612	0.083252	-0.114990	-0.752686	2.930323	34.721799	136.948529
38050		-5.856509	0.281083	8.033258	0.065059	-0.081085	0.047350	0.083984	-0.124023	-0.745850	2.988517	34.670111	136.980829
38051		-5.505182	0.378227	8.064895	0.067433	-0.097725	0.050673	0.088867	-0.115723	-0.763428	3.049087	34.608657	137.014657
38052		-5.321620	0.599597	8.078634	0.056193	-0.079711	0.039882	0.085693	-0.123047	-0.752197	3.099137	34.557931	137.041649
38053		-5.366913	0.618881	8.094679	0.033997	-0.063898	0.025658	0.084717	-0.118896	-0.748047	3.131222	34.516623	137.059654
38054		-5.531261	0.504249	8.058926	0.020577	-0.056176	0.017620	0.087402	-0.118408	-0.756592	3.152530	34.480034	137.071990
38055		-5.504780	0.451605	8.070556	0.014974	-0.050010	0.010647	0.082275	-0.120361	-0.758789	3.168067	34.447139	137.080146
38056		-5.451499	0.540098	8.083955	0.007079	-0.040886	0.013794	0.079590	-0.125488	-0.751709	3.180442	34.419414	137.090381
38057		-5.450533	0.486437	8.090702	-0.003026	-0.030256	0.005197	0.083252	-0.118652	-0.751709	3.184024	34.397916	137.094858
38058		-5.520873	0.333007	8.061630	0.000266	-0.023562	0.006732	0.082764	-0.121582	-0.750732	3.190094	34.380324	137.100853
38059		-5.658560	0.292288	8.155437	0.007625	-0.026800	0.013006	0.081055	-0.121338	-0.747314	3.202848	34.360603	137.111261
38060		-6.193168	0.037257	8.240247	0.041335	-0.070495	0.031273	0.082520	-0.127197	-0.748291	3.240993	34.315370	137.132411
38061		-5.757155	0.387937	8.092985	0.075383	-0.117341	0.044096	0.087891	-0.127686	-0.740967	3.302703	34.242843	137.159518
38062		-5.557346	0.594048	8.177438	0.076883	-0.125970	0.041903	0.076660	-0.120117	-0.752441	3.363973	34.165491	137.185645
38063		-5.445907	0.486440	8.155661	0.073768	-0.127818	0.040605	0.073242	-0.122314	-0.752686	3.422936	34.087086	137.209898
38064		-5.504951	0.483019	8.130144	0.067975	-0.120808	0.036570	0.082275	-0.127441	-0.745605	3.476970	34.012826	137.232320
38065		-5.422573	0.488703	8.147866	0.066708	-0.122051	0.032058	0.075928	-0.118408	-0.749023	3.528545	33.937930	137.251060
38066		-5.383409	0.502936	8.124399	0.063677	-0.111492	0.035172	0.071533	-0.127686	-0.755127	3.579642	33.869013	137.272718
38067		-5.351336	0.576067	8.148874	0.053721	-0.099823	0.024713	0.067383	-0.129150	-0.750488	3.621295	33.807016	137.288275
38068		-5.232103	0.669151	8.083906	0.043447	-0.083095	0.020739	0.070068	-0.116211	-0.755371	3.655847	33.754835	137.301092
38069		-5.077881	0.589406	8.073835	0.033393	-0.060067	0.016557	0.076904	-0.128906	-0.752930	3.683619	33.715784	137.313294
38070		-5.279273	0.494361	8.110602	0.030962	-0.033965	0.018412	0.079590	-0.124756	-0.747314	3.711285	33.691769	137.326617
38071		-5.323179	0.586672	8.107169	0.028565	-0.028280	0.010228	0.070801	-0.128662	-0.748291	3.734675	33.671317	137.334016
38072		-5.245041	0.729499	8.116465	0.014601	-0.016546	0.010610	0.066162	-0.125732	-0.747803	3.750406	33.657544	137.342734
38073		-5.171065	0.627576	8.104921	-0.001606	0.003809	0.001970	0.062012	-0.125244	-0.757813	3.754195	33.655574	137.346432
38074		-5.273079	0.554438	8.107697	-0.008369	0.018790	-0.007622	0.072754	-0.130859	-0.751953	3.750703	33.662686	137.344215
38075		-5.273405	0.607316	8.101010	-0.013672	0.039864	-0.012496	0.068115	-0.126953	-0.752686	3.742970	33.681834	137.339817
38076		-5.302121	0.672833	8.110231	-0.027289	0.053686	-0.015879	0.067627	-0.126953	-0.748047	3.726355	33.709205	137.333488
38077		-5.354945	0.636627	8.092245	-0.039214	0.065170	-0.021652	0.065674	-0.131104	-0.742920	3.701106	33.743165	137.323926
38078		-5.892331	0.298674	8.286213	-0.032014	0.051851	-0.017286	0.075684	-0.120850	-0.752441	3.681179	33.769535	137.316518
38079		-5.939629	0.062442	8.223981	0.008165	-0.010415	-0.007550	0.070068	-0.133789	-0.745117	3.686575	33.759803	137.313145
38080		-5.503872	0.550428	8.208832	0.025759	-0.029940	0.004144	0.077637	-0.126709	-0.747070	3.705920	33.738616	137.316844
38081		-5.396107	0.478137	8.156110	0.031804	-0.026844	0.010066	0.072266	-0.126709	-0.750244	3.731244	33.718917	137.323367
38082		-5.364965	0.488170	8.127521	0.029096	-0.014199	0.009408	0.069580	-0.125977	-0.753662	3.754888	33.706531	137.331369
38083		-5.365120	0.592163	8.150835	0.032586	-0.008358	0.007977	0.069336	-0.126221	-0.759033	3.780206	33.697406	137.339007
38084		-5.338584	0.648374	8.149355	0.022250	0.001208	0.001275	0.083496	-0.132080	-0.749268	3.797206	33.694130	137.342108
38085		-5.290642	0.648499	8.156472	0.011764	0.005939	-0.005636	0.072754	-0.126709	-0.745361	3.805787	33.693799	137.340139
38086		-5.260012	0.676045	8.113277	-0.001432	0.023313	-0.013212	0.074951	-0.123535	-0.749756	3.804256	33.703711	137.334294
38087		-5.341975	0.614419	8.139299	-0.013592	0.028487	-0.018783	0.074707	-0.129150	-0.757080	3.793811	33.716722	137.325356
38088		-5.293287	0.563962	8.117061	-0.018896	0.036719	-0.029514	0.066650	-0.132813	-0.750977	3.776385	33.734913	137.308910
38089		-5.301321	0.674285	8.158043	-0.030514	0.055969	-0.035925	0.062744	-0.131348	-0.752686	3.750492	33.764197	137.288290
38090		-5.501468	0.652730	8.138201	-0.045776	0.053599	-0.045925	0.077148	-0.123047	-0.750732	3.711780	33.792639	137.261281
38091		-5.463465	0.448992	8.150887	-0.044546	0.053389	-0.040994	0.079590	-0.126709	-0.748779	3.675742	33.820586	137.237927
38092		-5.468029	0.443245	8.148141	-0.039518	0.053960	-0.043968	0.070068	-0.120850	-0.752197	3.641319	33.849133	137.212220
38093		-5.491793	0.479534	8.116032	-0.039780	0.053341	-0.040623	0.075195	-0.123291	-0.755371	3.608030	33.877096	137.189510
38094		-5.276473	0.456565	8.126970	-0.036349	0.055826	-0.042672	0.074219	-0.125000	-0.749023	3.575912	33.906640	137.164720
38095		-5.599235	0.331284	8.241723	-0.031642	0.061461	-0.039156	0.075439	-0.125000	-0.752930	3.548010	33.939150	137.143187
38096		-6.055674	0.138461	8.265009	0.005318	0.019684	-0.019581	0.079590	-0.132813	-0.741699	3.547748	33.947190	137.132727
38097		-5.926125	0.287851	8.248635	0.049578	-0.026782	0.006679	0.076172	-0.127441	-0.747314	3.582002	33.927675	137.137136
38098		-5.536794	0.492427	8.180234	0.067495	-0.051346	0.011912	0.071289	-0.130615	-0.740967	3.627763	33.893974	137.145306
38099		-5.195801	0.731747	8.111581	0.057413	-0.037378	0.003946	0.074463	-0.122559	-0.746582	3.665174	33.868440	137.147583
38100		-5.195410	0.836049	8.135445	0.031014	-0.011706	-0.014997	0.072510	-0.138184	-0.751465	3.680650	33.858383	137.138923
38101		-5.312950	0.825632	8.096034	0.002451	0.005581	-0.030097	0.078369	-0.124023	-0.748779	3.674561	33.858650	137.119768
38102		-5.270812	0.780870	8.128690	-0.018707	0.017756	-0.039981	0.074951	-0.129883	-0.754883	3.652689	33.866353	137.095205
38103		-5.293765	0.729720	8.095728	-0.040996	0.031610	-0.055214	0.075195	-0.133789	-0.753418	3.612610	33.882449	137.060850
38104		-5.482037	0.547639	8.149388	-0.056403	0.037219	-0.059589	0.077148	-0.129395	-0.750244	3.562053	33.901957	137.023600
38105		-5.577346	0.409905	8.246158	-0.049086	0.032539	-0.052907	0.079590	-0.116455	-0.749023	3.518326	33.918443	136.989394
38106		-5.696478	0.359177	8.197664	-0.035795	0.016661	-0.045739	0.067383	-0.126221	-0.740479	3.484377	33.925663	136.960773
38107		-5.539250	0.509642	8.151234	-0.020710	0.007075	-0.038649	0.075439	-0.122559	-0.748779	3.461595	33.927004	136.937896
38108		-5.571544	0.599469	8.203419	-0.024267	0.008795	-0.033044	0.071045	-0.127686	-0.749756	3.438945	33.929267	136.917688
38109		-5.667442	0.287563	8.152104	-0.007924	-0.013835	-0.026895	0.074219	-0.121094	-0.746582	3.427609	33.918222	136.901083
38110		-5.311018	0.634366	8.130268	-0.004801	-0.010075	-0.024549	0.085693	-0.135254	-0.743896	3.418949	33.909393	136.885954
38111		-5.307358	0.585228	8.102242	-0.019499	0.006860	-0.033714	0.080322	-0.124756	-0.744385	3.398897	33.910563	136.863938
38112		-5.360872	0.506688	8.111802	-0.035911	0.018971	-0.043218	0.073242	-0.121094	-0.748535	3.365898	33.918970	136.837133
38113		-5.394184	0.560840	8.155439	-0.046311	0.034192	-0.046782	0.072266	-0.118652	-0.745361	3.325963	33.936112	136.808930
38114		-5.402095	0.512475	8.179224	-0.054889	0.037621	-0.057975	0.072998	-0.120605	-0.755371	3.276797	33.955643	136.772667
38115		-5.444631	0.466644	8.108163	-0.055952	0.042678	-0.062686	0.075928	-0.128418	-0.748291	3.225305	33.978009	136.734998
38116		-5.424325	0.579368	8.120667	-0.068415	0.043824	-0.065569	0.085205	-0.116699	-0.750977	3.165535	34.001274	136.693673
38117		-5.485939	0.487678	8.161533	-0.074498	0.048287	-0.067313	0.073730	-0.117920	-0.755127	3.101743	34.027079	136.651298
38118		-5.583539	0.466259	8.123127	-0.076088	0.050194	-0.066387	0.070313	-0.130371	-0.749512	3.037315	34.053939	136.609558
38119		-5.487273	0.408674	8.108054	-0.077952	0.044320	-0.064862	0.071777	-0.113525	-0.757813	2.972409	34.077135	136.568624
38120		-5.598693	0.384299	8.156433	-0.074858	0.049978	-0.061448	0.084473	-0.122559	-0.751465	2.910510	34.103649	136.530192
38121		-5.856254	0.132333	8.179912	-0.059116	0.024629	-0.048248	0.080322	-0.124756	-0.760010	2.862249	34.115126	136.501106
38122		-5.637970	0.232700	8.205047	-0.029168	0.006338	-0.031152	0.076416	-0.126221	-0.754150	2.837381	34.115752	136.482050
38123		-5.836070	0.136411	8.203999	-0.003010	-0.021826	-0.009976	0.082275	-0.122070	-0.755615	2.835360	34.099548	136.475598
38124		-5.547916	0.320961	8.135488	0.019452	-0.041740	0.000616	0.072266	-0.120605	-0.752686	2.849739	34.071757	136.476850
38125		-5.389339	0.546114	8.109154	0.013606	-0.034758	-0.003412	0.075439	-0.112549	-0.747070	2.859443	34.047961	136.475558
38126		-5.272081	0.536916	8.163259	-0.001252	-0.020780	-0.011720	0.078857	-0.118896	-0.744141	2.857589	34.032516	136.469003
38127		-5.353378	0.539549	8.061609	-0.012463	-0.007017	-0.026042	0.081055	-0.123535	-0.749512	2.844056	34.025256	136.454216
38128		-5.309484	0.582080	8.097985	-0.032273	0.007819	-0.031798	0.067139	-0.118164	-0.746338	2.817223	34.026743	136.434784
38129		-5.346340	0.472863	8.156451	-0.049449	0.023728	-0.050375	0.075195	-0.114502	-0.743164	2.773799	34.037689	136.403055
38130		-5.349610	0.377948	8.151547	-0.055301	0.043102	-0.049944	0.081055	-0.118164	-0.754883	2.727400	34.059845	136.372252
38131		-5.348871	0.412107	8.124300	-0.059749	0.043768	-0.053665	0.078857	-0.121338	-0.750244	2.677037	34.082365	136.339707
38132		-5.430951	0.396610	8.143191	-0.065401	0.057060	-0.057857	0.083496	-0.116211	-0.756348	2.621977	34.112673	136.303817
38133		-5.786022	0.266615	8.160687	-0.055121	0.046059	-0.050759	0.075684	-0.119873	-0.751709	2.575419	34.136413	136.272399
38134		-5.570769	0.365972	8.041044	-0.043599	0.020545	-0.044255	0.077881	-0.111084	-0.746826	2.537431	34.145426	136.244710
38135		-5.308665	0.566910	8.098752	-0.054326	0.024597	-0.047844	0.079834	-0.110596	-0.747559	2.492029	34.156688	136.215407
38136		-5.392412	0.388786	8.132025	-0.060096	0.033052	-0.052269	0.087402	-0.121338	-0.750732	2.441661	34.173021	136.182522
38137		-5.449284	0.372667	8.155451	-0.067012	0.039861	-0.062683	0.078857	-0.119629	-0.753174	2.383448	34.193452	136.142554
38138		-5.477108	0.276037	8.145546	-0.070518	0.048248	-0.055773	0.088379	-0.114258	-0.750000	2.325938	34.218514	136.107622
38139		-5.477783	0.255085	8.122510	-0.063187	0.046928	-0.048448	0.082275	-0.110596	-0.754883	2.275540	34.242579	136.077267
38140		-5.458176	0.335026	8.127740	-0.064435	0.056195	-0.049544	0.084717	-0.119873	-0.750488	2.223997	34.271998	136.046789
38141		-5.530562	0.281274	8.084028	-0.064312	0.055788	-0.051009	0.086182	-0.123047	-0.751465	2.172007	34.301127	136.015133
38142		-5.501913	0.268764	8.031649	-0.066050	0.049485	-0.050987	0.084229	-0.115234	-0.753906	2.118804	34.326689	135.983395
38143		-5.492887	0.243752	8.099379	-0.067496	0.043837	-0.054304	0.076660	-0.117432	-0.749756	2.063550	34.349017	135.947730
38144		-5.471679	0.289550	8.096992	-0.067119	0.045973	-0.058042	0.087891	-0.115234	-0.753906	2.006859	34.372661	135.910935
38145		-5.558551	0.176586	8.144361	-0.067399	0.045319	-0.054705	0.080078	-0.119385	-0.754395	1.951435	34.395723	135.875655
38146		-5.792873	0.077324	8.187963	-0.052257	0.037261	-0.048033	0.081299	-0.104492	-0.752930	1.907005	34.414129	135.845530
38147		-5.699783	0.159156	8.062464	-0.032513	0.021000	-0.041886	0.084229	-0.119385	-0.753662	1.876162	34.422933	135.819656
38148		-5.484522	0.296530	8.098430	-0.025284	0.018195	-0.034151	0.082520	-0.105957	-0.753174	1.852364	34.430134	135.798705
38149		-5.419358	0.196239	8.138187	-0.023625	0.028273	-0.032027	0.081543	-0.112061	-0.748047	1.830577	34.442950	135.779330
38150		-5.514915	0.180522	8.099349	-0.018928	0.038755	-0.028168	0.086914	-0.105957	-0.752197	1.813012	34.461804	135.762975
38151		-5.583763	0.240413	8.048030	-0.018949	0.035397	-0.028832	0.088867	-0.114746	-0.753418	1.795167	34.478641	135.746659
38152		-5.409545	0.321310	8.025706	-0.013075	0.031779	-0.024161	0.086670	-0.112793	-0.753906	1.782427	34.493419	135.732917
38153		-5.229905	0.552062	8.115236	-0.027300	0.041821	-0.040841	0.084473	-0.112549	-0.754395	1.755209	34.514191	135.707026
38154		-5.265104	0.625892	8.145818	-0.049283	0.068665	-0.054868	0.084473	-0.114014	-0.752441	1.710039	34.550615	135.672687
38155		-5.611105	0.400339	8.099691	-0.062186	0.081407	-0.067416	0.078613	-0.107422	-0.750244	1.652770	34.594393	135.629339
38156		-5.686095	0.236692	8.061687	-0.062442	0.075506	-0.065815	0.089355	-0.112305	-0.747559	1.595701	34.634860	135.587399
38157		-5.650336	0.165491	8.102881	-0.055357	0.069751	-0.057270	0.086426	-0.112061	-0.756592	1.546074	34.671716	135.551325
38158		-5.640003	0.128461	8.148360	-0.052475	0.072449	-0.052993	0.097168	-0.109863	-0.747314	1.499651	34.710174	135.518135
38159		-5.717030	0.034152	8.127048	-0.036044	0.070461	-0.041486	0.091309	-0.104736	-0.753662	1.467270	34.747273	135.492174
38160		-5.686920	0.243395	8.058650	-0.026904	0.066446	-0.037998	0.090576	-0.110840	-0.747070	1.441315	34.782042	135.469247
38161		-5.662364	0.247842	8.026371	-0.027342	0.062823	-0.033870	0.089355	-0.095703	-0.753662	1.416771	34.814606	135.449145
38162		-5.649699	0.126203	8.067986	-0.031173	0.048043	-0.030171	0.089355	-0.103516	-0.754395	1.391257	34.838709	135.431310
38163		-5.667741	0.118662	8.007643	-0.025952	0.039725	-0.019497	0.092041	-0.108398	-0.755127	1.372829	34.857769	135.423095
38164		-5.654041	0.140760	8.051351	-0.018605	0.031274	-0.014950	0.085693	-0.104736	-0.750732	1.360405	34.872049	135.415579
38165		-5.501201	0.298464	8.010763	-0.020194	0.027913	-0.015763	0.090088	-0.109375	-0.754883	1.346789	34.884287	135.407854
38166		-5.400385	0.378912	8.121880	-0.027465	0.037845	-0.020707	0.094238	-0.111572	-0.751953	1.327040	34.902404	135.396414
38167		-5.430261	0.353671	8.127461	-0.040706	0.051798	-0.028868	0.091064	-0.101074	-0.742676	1.296714	34.928541	135.378662
38168		-5.295632	0.341707	8.038886	-0.043229	0.065100	-0.032715	0.095703	-0.106445	-0.756104	1.263345	34.962414	135.359227
38169		-5.490246	0.233992	8.119059	-0.045720	0.085121	-0.035208	0.090576	-0.107910	-0.748535	1.227743	35.007704	135.338910
38170		-5.656597	0.080233	8.173098	-0.043523	0.095078	-0.039301	0.100830	-0.097412	-0.752930	1.191750	35.058810	135.315238
38171		-5.799772	-0.092536	8.098609	-0.029723	0.092960	-0.034292	0.093750	-0.097656	-0.751709	1.165650	35.108570	135.295670
38172		-5.848348	0.021427	8.044492	-0.009448	0.088577	-0.031245	0.087158	-0.105469	-0.743164	1.152293	35.155842	135.277465
38173		-5.851158	0.006834	8.018909	-0.007221	0.077959	-0.023396	0.099121	-0.100830	-0.756348	1.143312	35.196771	135.265708
38174		-5.828439	0.047782	7.995029	0.002847	0.060643	-0.016181	0.093750	-0.105713	-0.740234	1.142824	35.227865	135.257641
38175		-5.784491	0.102089	7.997176	0.005190	0.049622	-0.009799	0.098389	-0.107422	-0.751465	1.146219	35.252498	135.254257
38176		-5.721894	0.148203	8.037213	0.002690	0.042346	-0.001707	0.103760	-0.108643	-0.754395	1.151347	35.272945	135.256085
38177		-5.745222	0.135907	8.009691	0.004254	0.038992	-0.002239	0.101074	-0.097168	-0.748779	1.157249	35.291469	135.256608
38178		-5.730109	0.127373	8.045025	0.002717	0.030390	-0.004813	0.108398	-0.100342	-0.753662	1.161039	35.305103	135.256092
38179		-5.725902	0.190526	8.007008	0.002637	0.025552	-0.005096	0.093018	-0.107666	-0.751465	1.164555	35.316008	135.256573
38180		-5.725713	0.211319	7.993472	-0.000324	0.023262	-0.007928	0.101807	-0.105225	-0.743408	1.165280	35.325595	135.253770
38181		-5.725424	0.177201	7.983839	-0.003307	0.014254	-0.012116	0.102051	-0.102783	-0.755127	1.162633	35.329995	135.247520
38182		-5.748332	0.142520	7.970264	-0.008390	0.003484	-0.011261	0.100830	-0.091064	-0.755371	1.157220	35.328291	135.242094
38183		-5.702265	0.175021	7.987806	-0.005323	-0.001345	-0.011251	0.097656	-0.104004	-0.755859	1.153426	35.323783	135.238723
38184		-5.708180	0.164924	8.020814	-0.008024	-0.004436	-0.017018	0.103027	-0.111328	-0.751953	1.145822	35.317607	135.229144
38185		-5.613573	0.197237	8.047796	-0.009608	-0.007800	-0.017843	0.103516	-0.107422	-0.753906	1.137067	35.309474	135.218294
38186		-5.514799	0.271486	8.050453	-0.012477	-0.001893	-0.019714	0.104980	-0.108643	-0.756592	1.125843	35.304783	135.206862
38187		-5.617622	0.205285	8.068554	-0.014999	0.011412	-0.023556	0.093262	-0.103027	-0.754883	1.111833	35.307778	135.191976
38188		-5.669021	0.126926	8.074550	-0.015256	0.012212	-0.020622	0.093994	-0.103271	-0.754883	1.098760	35.311174	135.180100
38189		-5.692423	0.091169	8.060587	-0.010385	0.018547	-0.020290	0.093262	-0.104980	-0.751221	1.088716	35.318023	135.169441
38190		-5.691515	0.165026	8.043917	-0.005991	0.017885	-0.016521	0.103760	-0.106445	-0.756592	1.082655	35.324620	135.160517
38191		-5.730804	0.159818	7.980345	-0.006320	0.017206	-0.013193	0.098877	-0.108887	-0.755859	1.077845	35.330710	135.153807
38192		-5.712080	0.171017	8.004703	-0.006327	0.013847	-0.013872	0.102783	-0.104004	-0.753906	1.072634	35.334964	135.146687
38193		-5.667151	0.148816	8.025253	-0.009421	0.008597	-0.015919	0.095947	-0.101074	-0.753174	1.064877	35.336186	135.137674
38194		-5.693713	0.180281	8.028867	-0.009160	0.007798	-0.018854	0.106201	-0.101563	-0.750488	1.055973	35.337026	135.126975
38195		-5.690415	0.111699	8.011349	-0.011071	0.003752	-0.016353	0.101563	-0.107422	-0.759277	1.046972	35.335478	135.118683
38196		-5.662469	0.152316	7.991509	-0.011270	0.002672	-0.014492	0.100098	-0.110107	-0.756348	1.038592	35.333333	135.110982
38197		-5.642663	0.163117	8.016676	-0.009633	0.000799	-0.015418	0.087891	-0.103271	-0.748779	1.030902	35.330072	135.101744
38198		-5.624912	0.152760	8.053990	-0.012911	0.001186	-0.014246	0.095703	-0.100342	-0.753906	1.021673	35.327071	135.094197
38199		-5.642944	0.159394	8.016554	-0.015989	0.002653	-0.014935	0.098633	-0.099365	-0.753906	1.010468	35.324721	135.087242
38200		-5.675615	0.127444	8.056639	-0.009751	0.007917	-0.012589	0.105225	-0.107910	-0.754395	1.003771	35.325558	135.080943
38201		-5.661866	0.164798	7.978513	-0.010081	0.007236	-0.009261	0.104736	-0.102051	-0.751953	0.998287	35.325940	135.077037
38202		-5.642559	0.121620	8.006922	-0.007070	0.004290	-0.008180	0.086914	-0.108643	-0.746582	0.994891	35.324654	135.073790
38203		-5.692684	0.153385	8.006331	-0.010222	0.000917	-0.009157	0.094971	-0.108643	-0.755859	0.989386	35.321327	135.069631
38204		-5.697077	0.110131	8.030385	-0.005827	0.003614	-0.004704	0.093994	-0.107178	-0.749023	0.988109	35.319620	135.068817
38205		-5.723474	0.088173	8.037712	-0.004385	0.004020	-0.003089	0.100342	-0.102295	-0.755371	0.988476	35.317987	135.068553
38206		-5.671658	0.076151	8.025947	-0.000263	0.000797	0.002935	0.093018	-0.109131	-0.758301	0.993468	35.314590	135.073067
38207		-5.673507	0.164322	8.031079	0.002753	0.001210	0.004698	0.099121	-0.097656	-0.751953	1.001004	35.311295	135.078798
38208		-5.715566	0.118537	7.992581	-0.000131	0.000399	0.001467	0.100586	-0.105957	-0.751221	1.005472	35.307683	135.082276
38209		-5.695256	0.185708	8.014534	0.001038	-0.005116	0.004654	0.089600	-0.103271	-0.750000	1.011889	35.300826	135.088436
38210		-5.674661	0.198247	8.040253	-0.003494	-0.010772	0.000987	0.098633	-0.099854	-0.749268	1.014154	35.290819	135.091437
38211		-5.563916	0.183364	7.984596	-0.000336	-0.004041	0.002646	0.099365	-0.104004	-0.752930	1.018994	35.284512	135.096493
38212		-5.530155	0.199236	8.067926	-0.006089	0.004412	-0.001769	0.097656	-0.106934	-0.748047	1.018762	35.283232	135.097748
38213		-5.604876	0.176858	8.065939	-0.005747	0.011812	-0.003733	0.091309	-0.105957	-0.761719	1.018085	35.286145	135.097396
38214		-5.584145	0.209653	8.078229	-0.006910	0.020686	-0.006238	0.096924	-0.100098	-0.750977	1.015688	35.294232	135.095718
38215		-5.658263	0.153546	8.066645	-0.008272	0.028478	-0.006882	0.099609	-0.099854	-0.748047	1.012367	35.306633	135.094397
38216		-5.676393	0.127904	8.019080	-0.005193	0.027012	-0.006192	0.092285	-0.107422	-0.748535	1.011017	35.318345	135.092827
38217		-5.706516	0.138975	8.033775	-0.008143	0.024721	-0.009031	0.093506	-0.110107	-0.756592	1.006892	35.328660	135.089391
38218		-5.752205	0.125356	8.002653	-0.005534	0.019612	-0.004229	0.099854	-0.106445	-0.756348	1.006089	35.336113	135.089107
38219		-5.677579	0.113065	7.994678	-0.005607	0.014773	-0.004519	0.102783	-0.111084	-0.751953	1.005240	35.340680	135.087946
38220		-5.750557	0.111933	7.980209	-0.002931	0.011144	-0.000110	0.100342	-0.105713	-0.754150	1.007542	35.343239	135.090451
38221		-5.709599	0.103460	8.021575	-0.001892	0.009385	0.005226	0.095215	-0.100830	-0.749512	1.012735	35.344707	135.095661
38222		-5.688176	0.137270	8.034383	0.001382	0.005643	0.003374	0.100830	-0.104004	-0.751953	1.018884	35.344080	135.100545
38223		-5.606262	0.134900	7.994418	0.001044	0.001600	0.006019	0.093750	-0.111084	-0.749512	1.025931	35.341019	135.107711
38224		-5.542776	0.269296	8.042340	0.001928	0.014126	-0.000448	0.096680	-0.103271	-0.751221	1.030902	35.345289	135.110017
38225		-5.642375	0.192441	8.038504	-0.006902	0.020688	-0.006239	0.097412	-0.096680	-0.752441	1.028649	35.353250	135.107894
38226		-5.644238	0.137257	8.040737	-0.004020	0.021499	-0.003006	0.105469	-0.099121	-0.754150	1.029226	35.361770	135.108497
38227		-5.715858	0.102579	8.017128	-0.007102	0.019607	-0.004380	0.096191	-0.108643	-0.757568	1.027420	35.369167	135.109552
38228		-5.701608	0.181076	8.058566	-0.003817	0.022582	-0.004865	0.095215	-0.105713	-0.749023	1.027365	35.378327	135.108862
38229		-5.743054	0.155538	8.006721	-0.003821	0.019223	-0.005548	0.095459	-0.109619	-0.746094	1.027142	35.385435	135.107291
38230		-5.740336	0.142664	7.985021	-0.005734	0.015173	-0.003054	0.095703	-0.107422	-0.751709	1.026672	35.390332	135.107780
38231		-5.723545	0.133335	8.021747	-0.005744	0.008455	-0.004420	0.100342	-0.102051	-0.755859	1.025759	35.391269	135.106425
38232		-5.741922	0.086849	7.987408	-0.004245	0.003623	-0.004561	0.098633	-0.104736	-0.749512	1.025445	35.389566	135.105709
38233		-5.744048	0.119710	7.995971	-0.004719	-0.000022	-0.000451	0.099609	-0.111328	-0.747314	1.026560	35.385654	135.108136
38234		-5.669796	0.141340	7.997924	-0.002117	-0.005133	0.004352	0.092041	-0.105225	-0.751953	1.031028	35.378843	135.113573
38235		-5.695285	0.174315	8.002302	-0.004862	-0.006341	-0.000350	0.095215	-0.109619	-0.753418	1.032157	35.371268	135.114962
38236		-5.649063	0.153393	8.023882	-0.003620	-0.003660	0.003810	0.094238	-0.101807	-0.751953	1.035551	35.365305	135.120035
38237		-5.672751	0.153134	8.019468	-0.003754	-0.003262	0.005278	0.101807	-0.100098	-0.744873	1.039575	35.359412	135.126168
38238		-5.696424	0.152706	8.015069	-0.006633	-0.004072	0.002043	0.098145	-0.096924	-0.746338	1.040520	35.353232	135.129993
38239		-5.715864	0.139957	7.990045	-0.005331	-0.006628	0.004444	0.093018	-0.099121	-0.754883	1.043144	35.345513	135.136601
38240		-5.723404	0.164273	8.031967	-0.005470	-0.009589	0.005228	0.100830	-0.100830	-0.747559	1.046007	35.336138	135.142590
38241		-5.716504	0.118680	8.003162	-0.002392	-0.011055	0.005919	0.100098	-0.109619	-0.753418	1.050904	35.325812	135.150163
38242		-5.717577	0.097830	8.015962	-0.001160	-0.015092	0.008712	0.091309	-0.107178	-0.757080	1.057605	35.313248	135.158524
38243		-5.709936	0.107078	7.984197	-0.001101	-0.020328	0.006952	0.093262	-0.105225	-0.754395	1.063728	35.297586	135.164974
38244		-5.712225	0.120041	8.006197	0.002679	-0.024240	0.016305	0.103271	-0.092773	-0.743652	1.075631	35.279697	135.178537
38245		-5.688024	0.154706	8.020995	0.002738	-0.029476	0.014545	0.094482	-0.110840	-0.753662	1.086783	35.258763	135.191955
38246		-5.661980	0.101622	8.030529	0.005892	-0.026104	0.015528	0.092529	-0.105469	-0.746094	1.100180	35.239811	135.204932
38247		-5.661709	0.136273	8.040740	0.006088	-0.028380	0.012984	0.091064	-0.110840	-0.755859	1.112783	35.219460	135.215438
38248		-5.685352	0.116242	8.049941	0.005750	-0.032422	0.015628	0.100830	-0.101318	-0.753418	1.126072	35.196883	135.228382
38249		-5.630716	0.160400	8.036631	0.008843	-0.027172	0.017684	0.091309	-0.109375	-0.761230	1.142082	35.177201	135.242724
38250		-5.632761	0.174504	8.058718	0.010231	-0.021531	0.021059	0.097168	-0.100830	-0.749756	1.160199	35.160795	135.259605
38251		-5.572637	0.227837	8.012071	0.008990	-0.020853	0.017584	0.096191	-0.104248	-0.757080	1.176266	35.144705	135.274318
38252		-5.609597	0.190449	8.086154	0.007564	-0.014540	0.017334	0.097900	-0.108643	-0.760254	1.191394	35.132339	135.288673
38253		-5.630731	0.158522	8.073581	0.009415	-0.008613	0.015913	0.090332	-0.103027	-0.754150	1.207125	35.123319	135.302071
38254		-5.652209	0.126835	8.060785	0.012371	-0.006325	0.018751	0.094971	-0.105713	-0.745361	1.225638	35.115635	135.317529
38255		-5.629574	0.162688	8.074306	0.013223	-0.005807	0.026629	0.096436	-0.107178	-0.751953	1.247871	35.108034	135.338879
38256		-5.647348	0.119596	8.040578	0.018284	-0.001749	0.024427	0.092041	-0.102783	-0.745117	1.272089	35.102890	135.358371
38257		-5.651030	0.134813	8.061482	0.017816	-0.005390	0.028540	0.095215	-0.109619	-0.755615	1.297717	35.095520	135.380839
38258		-5.674279	0.192216	8.053743	0.019591	-0.004304	0.026827	0.098389	-0.117676	-0.746826	1.323617	35.088867	135.401962
38259		-5.615360	0.246733	8.006082	0.022800	-0.006173	0.026048	0.086670	-0.101807	-0.758789	1.351208	35.081115	135.420725
38260		-5.596537	0.295430	8.040321	0.015122	-0.008474	0.022769	0.097900	-0.095947	-0.754395	1.372865	35.072113	135.438927
38261		-5.624097	0.255424	8.060429	0.012105	-0.008882	0.021007	0.093018	-0.101074	-0.754639	1.392001	35.062764	135.458041
38262		-5.645507	0.224064	8.047752	0.012106	-0.008882	0.021007	0.105225	-0.105713	-0.752686	1.411206	35.053543	135.474992
38263		-5.595486	0.138532	8.052062	0.008842	-0.005131	0.022860	0.098145	-0.105957	-0.747559	1.429306	35.046433	135.493956
38264		-5.549183	0.174522	8.069765	0.016807	0.003087	0.024563	0.089844	-0.107422	-0.746094	1.452745	35.044006	135.513595
38265		-5.599763	0.155971	8.072468	0.016763	0.008326	0.026317	0.098877	-0.104492	-0.763428	1.476986	35.044479	135.534507
38266		-5.608021	0.238194	8.109793	0.021171	0.011017	0.030767	0.087891	-0.100342	-0.749756	1.505499	35.046488	135.558628
38267		-5.646776	0.237793	8.046468	0.021574	0.013176	0.027045	0.088867	-0.102783	-0.740234	1.532744	35.049673	135.581599
38268		-5.629911	0.232441	8.083063	0.021375	0.012098	0.028906	0.088135	-0.106689	-0.747803	1.560642	35.052311	135.604443
38269		-5.616605	0.219879	8.008187	0.019530	0.009538	0.031015	0.097412	-0.109863	-0.751953	1.588350	35.053288	135.629428
38270		-5.593329	0.223021	8.012146	0.016842	0.009809	0.025924	0.095947	-0.109863	-0.752686	1.612430	35.054645	135.650144
38271		-5.698409	0.195747	8.038345	0.014811	0.009531	0.030572	0.092041	-0.109131	-0.745605	1.637298	35.055722	135.673648
38272		-5.676628	0.232411	8.051027	0.022852	0.003903	0.028094	0.087402	-0.106201	-0.746338	1.665626	35.053645	135.695765
38273		-5.725436	0.181677	8.045198	0.024900	0.005640	0.040520	0.086914	-0.115479	-0.751953	1.700213	35.052213	135.726852
38274		-5.696815	0.228303	8.025444	0.027724	-0.006991	0.041042	0.088623	-0.105713	-0.746094	1.736398	35.043655	135.757793
38275		-5.685641	0.303882	8.100915	0.033237	-0.007931	0.049759	0.089111	-0.110840	-0.748291	1.779329	35.034230	135.794731
38276		-5.549887	0.205766	8.044834	0.036538	-0.004968	0.049264	0.088135	-0.111084	-0.752441	1.823870	35.026644	135.831446
38277		-5.446424	0.329260	8.022722	0.038252	0.006594	0.051043	0.090332	-0.112061	-0.757080	1.870346	35.025482	135.869642
38278		-5.518347	0.388905	8.004761	0.027990	0.012775	0.043628	0.093506	-0.106934	-0.748779	1.907951	35.028118	135.902809
38279		-5.578538	0.287979	8.055864	0.020226	0.009011	0.040748	0.089355	-0.107910	-0.746338	1.939953	35.028536	135.934246
38280		-5.684384	0.207920	8.085795	0.025156	0.010087	0.039329	0.086426	-0.109619	-0.746826	1.974176	35.029685	135.964347
38281		-5.661068	0.212905	8.089748	0.033362	0.008882	0.053140	0.089111	-0.109863	-0.752197	2.018681	35.029704	136.004652
38282		-5.639234	0.252229	8.102200	0.039922	0.008074	0.050801	0.094482	-0.120361	-0.751953	2.065941	35.029428	136.042727
38283		-5.683940	0.245945	8.071795	0.040080	0.011032	0.050007	0.087891	-0.113770	-0.746826	2.113136	35.030745	136.079711
38284		-5.583046	0.348249	8.061237	0.038408	0.006196	0.049585	0.082275	-0.111328	-0.744629	2.159013	35.029369	136.116886
38285		-5.563318	0.508385	8.086660	0.033055	0.010091	0.040070	0.088623	-0.112549	-0.748291	2.198156	35.030230	136.147693
38286		-5.398247	0.315820	8.120202	0.036814	0.037625	0.024931	0.085693	-0.114990	-0.751953	2.233715	35.047353	136.168481
38287		-5.349986	0.503673	8.102345	0.035439	0.078728	0.000813	0.088135	-0.108154	-0.750488	2.259553	35.088380	136.173683
38288		-5.635566	0.534955	7.997613	0.002204	0.082915	-0.016193	0.086670	-0.106445	-0.750488	2.259489	35.132347	136.166975
38289		-5.752428	0.123918	8.046858	0.001253	0.070428	-0.009676	0.091064	-0.109619	-0.746826	2.261294	35.168838	136.166098
38290		-5.661152	0.035912	8.057090	0.006160	0.061034	0.002909	0.092773	-0.116699	-0.746582	2.270850	35.199846	136.172163
38291		-5.693836	0.049970	8.069706	0.017340	0.056879	0.017836	0.094727	-0.118896	-0.743896	2.292858	35.228020	136.188661
38292		-5.761749	0.170921	8.012144	0.031688	0.047476	0.031334	0.088379	-0.109619	-0.748047	2.328340	35.250605	136.214301
38293		-5.686211	0.468591	7.991974	0.033820	0.036868	0.039224	0.091797	-0.114502	-0.753906	2.368159	35.266796	136.245145
38294		-5.641417	0.703120	8.004019	0.024923	0.038619	0.033117	0.091309	-0.117920	-0.747803	2.400378	35.284242	136.271824
38295		-5.559508	0.722538	7.950138	0.001898	0.038507	0.024567	0.098633	-0.107666	-0.744629	2.416051	35.301684	136.292422
38296		-5.354839	0.659049	8.026726	-0.018015	0.052618	0.004450	0.099121	-0.121826	-0.747314	2.412311	35.327824	136.299428
38297		-5.486027	0.574163	7.904518	-0.030924	0.072930	-0.003978	0.094238	-0.107666	-0.756104	2.398180	35.365757	136.300834
38298		-5.465262	0.591120	7.893363	-0.051655	0.068905	-0.020786	0.095215	-0.110107	-0.750000	2.365180	35.401825	136.290584
38299		-5.643116	0.300895	7.999489	-0.054469	0.074828	-0.022686	0.102539	-0.111084	-0.745117	2.329873	35.441190	136.280490
38300		-5.737057	-0.026690	8.057513	-0.042236	0.070782	-0.018787	0.094727	-0.111084	-0.749512	2.303070	35.478276	136.271638
38301		-5.786658	0.187802	8.028873	-0.026193	0.064319	-0.005897	0.090820	-0.115967	-0.757813	2.290648	35.511287	136.272003
38302		-5.784901	0.194443	7.992632	-0.017496	0.056245	0.000353	0.099854	-0.113281	-0.757080	2.285580	35.539609	136.276177
38303		-5.876261	0.311308	7.930097	-0.010461	0.046693	0.006846	0.100342	-0.114990	-0.744385	2.287138	35.562164	136.284825
38304		-5.928653	0.344580	7.926704	-0.009602	0.028134	0.008833	0.107666	-0.109375	-0.746826	2.289609	35.574199	136.294178
38305		-5.708706	0.440258	7.940916	-0.005464	0.009165	0.009668	0.099609	-0.110352	-0.750977	2.294543	35.575346	136.303349
38306		-5.610504	0.373009	7.942891	-0.008612	0.009170	0.009353	0.094482	-0.116943	-0.750244	2.297485	35.576512	136.312537
38307		-5.646863	0.321969	7.994719	-0.014424	0.009445	0.003931	0.100342	-0.116211	-0.753418	2.294976	35.577841	136.317943
38308		-5.776077	0.204362	8.010157	-0.010123	0.015898	0.010542	0.093018	-0.114014	-0.753906	2.297650	35.582831	136.328158
38309		-5.830682	0.250707	8.028749	-0.002985	0.011183	0.017312	0.096924	-0.112549	-0.748535	2.307221	35.584838	136.342859
38310		-5.742521	0.242830	8.080192	0.001336	0.012388	0.022182	0.097168	-0.114014	-0.746094	2.321175	35.587546	136.361171
38311		-5.813543	0.211356	8.056627	0.009309	0.008605	0.020831	0.104492	-0.113770	-0.749268	2.339169	35.588006	136.378395
38312		-5.970701	0.298550	7.974057	0.019733	-0.010382	0.022294	0.099609	-0.110840	-0.751465	2.363326	35.577667	136.396130
38313		-5.772998	0.430981	7.994146	0.028097	-0.029628	0.028396	0.095947	-0.102539	-0.750732	2.394481	35.556117	136.417674
38314		-5.689153	0.463527	7.965520	0.022537	-0.038770	0.017628	0.099609	-0.102539	-0.753174	2.417826	35.529625	136.431265
38315		-5.706902	0.399320	7.945989	0.019741	-0.038094	0.013986	0.101318	-0.123779	-0.752930	2.437976	35.503497	136.444701
38316		-5.707151	0.326071	7.964284	0.016528	-0.044811	0.012331	0.091797	-0.109863	-0.745605	2.455581	35.473669	136.454354
38317		-5.702404	0.382628	7.963035	0.016100	-0.046955	0.016057	0.098633	-0.119385	-0.755371	2.474535	35.442427	136.466011
38318		-5.807209	0.368417	8.012365	0.017180	-0.055829	0.018598	0.099854	-0.112793	-0.748779	2.494844	35.406131	136.479699
38319		-5.755683	0.316826	8.029006	0.025512	-0.059328	0.029917	0.095703	-0.114502	-0.750000	2.524537	35.367496	136.500823
38320		-5.630110	0.374332	8.052210	0.027522	-0.057187	0.026346	0.090576	-0.110840	-0.757324	2.553846	35.330216	136.519851
38321		-5.810313	0.374709	8.108226	0.028877	-0.053013	0.030102	0.101563	-0.110840	-0.748535	2.585542	35.295094	136.542352
38322		-5.923027	0.258961	8.075309	0.043474	-0.073750	0.037223	0.092773	-0.120117	-0.751221	2.628026	35.248032	136.568405
38323		-5.755087	0.411227	8.022293	0.056908	-0.081843	0.043931	0.090820	-0.111084	-0.750488	2.680779	35.196103	136.598693
38324		-5.726450	0.396907	8.044072	0.052134	-0.093796	0.040406	0.084961	-0.122803	-0.754883	2.729012	35.137446	136.626179
38325		-5.857755	0.378922	8.124602	0.048753	-0.098211	0.041302	0.090820	-0.113281	-0.756104	2.775604	35.076064	136.654341
38326		-6.364611	0.055676	8.090978	0.079774	-0.143866	0.052095	0.086426	-0.116943	-0.748535	2.843223	34.988384	136.688103
38327		-6.417713	0.219235	8.199857	0.124978	-0.205248	0.076530	0.092529	-0.118164	-0.741943	2.945132	34.864725	136.737245
38328		-6.218210	0.372723	8.193422	0.149244	-0.283993	0.099054	0.083496	-0.120605	-0.751221	3.067900	34.695363	136.798122
38329		-5.694841	0.411839	8.201747	0.159755	-0.309659	0.099224	0.083740	-0.126953	-0.751709	3.195788	34.511168	136.857386
38330		-5.582133	0.609531	8.297503	0.148771	-0.314386	0.097982	0.081299	-0.125732	-0.753418	3.316215	34.324239	136.915160
38331		-5.839252	0.319178	8.223236	0.130464	-0.331641	0.085303	0.078857	-0.125488	-0.756836	3.420474	34.127723	136.962096
38332		-5.509532	0.490289	8.225972	0.132038	-0.332651	0.087335	0.079590	-0.130371	-0.744629	3.525822	33.930538	137.010637
38333		-5.897402	0.240719	8.340536	0.145853	-0.346352	0.090795	0.076660	-0.123535	-0.747314	3.639743	33.725304	137.059573
38334		-5.382934	-0.006667	8.110486	0.155622	-0.359730	0.066765	0.071045	-0.126953	-0.748291	3.749195	33.513242	137.091642
38335		-5.132717	0.589266	8.179273	0.166402	-0.339109	0.061824	0.068115	-0.130615	-0.748535	3.863085	33.313100	137.120787
38336		-4.884411	0.939823	8.077222	0.147772	-0.309297	0.069399	0.065430	-0.131348	-0.751709	3.969515	33.129662	137.155888
38337		-5.055773	0.552989	8.197168	0.129314	-0.273181	0.076786	0.057861	-0.131836	-0.753662	4.068803	32.966470	137.196907
38338		-5.752217	0.252655	8.362614	0.159514	-0.295213	0.091773	0.060791	-0.128174	-0.751221	4.189909	32.790049	137.246975
38339		-5.536704	0.246405	8.278695	0.186605	-0.352955	0.092860	0.061035	-0.135498	-0.749023	4.324918	32.580389	137.294824
38340		-5.105441	0.561338	8.283346	0.199800	-0.354260	0.089447	0.056641	-0.128906	-0.744629	4.465672	32.370145	137.339047
38341		-5.503068	0.701711	8.370693	0.207083	-0.360949	0.099886	0.046631	-0.145508	-0.753174	4.613634	32.155517	137.389423
38342		-5.258323	0.751268	8.283725	0.206552	-0.384194	0.101839	0.044922	-0.136719	-0.748291	4.760743	31.927412	137.438866
38343		-5.048151	0.852340	8.273617	0.194835	-0.376496	0.094059	0.044189	-0.143555	-0.749268	4.898158	31.703822	137.482274
38344		-5.016376	0.839077	8.283198	0.186047	-0.362286	0.092545	0.037842	-0.133057	-0.749512	5.029793	31.488483	137.525231
38345		-4.910749	0.810492	8.281267	0.178671	-0.349132	0.093024	0.047852	-0.138428	-0.749268	5.157287	31.280412	137.569319
38346		-5.074768	0.743292	8.448270	0.181579	-0.338922	0.106160	0.028320	-0.145264	-0.753662	5.290843	31.077530	137.621448
38347		-5.340667	0.676094	8.460985	0.200691	-0.367685	0.123794	0.032715	-0.150391	-0.752686	5.439926	30.857111	137.683312
38348		-5.065608	0.661044	8.501535	0.212003	-0.382077	0.119175	0.029785	-0.144775	-0.741699	5.592837	30.628676	137.739869
38349		-5.540010	0.722474	8.679448	0.226723	-0.419671	0.128031	0.020996	-0.147705	-0.743164	5.755334	30.378083	137.798742
38350		-5.303358	1.063922	8.541657	0.222906	-0.463908	0.123545	0.018311	-0.154541	-0.749023	5.911854	30.102485	137.850910
38351		-4.927004	1.351217	8.478076	0.188191	-0.473958	0.118452	0.017090	-0.151123	-0.746826	6.045869	29.821128	137.898100
38352		-4.685285	1.244835	8.423677	0.157509	-0.452145	0.113618	0.018311	-0.157471	-0.744629	6.160785	29.552627	137.942799
38353		-4.519923	1.035833	8.339424	0.139558	-0.429034	0.109029	0.006348	-0.162109	-0.746582	6.264332	29.297440	137.985107
38354		-4.152351	1.076024	8.217477	0.122866	-0.383752	0.088211	0.005127	-0.155029	-0.742920	6.352735	29.069350	138.016842
38355		-4.006658	1.173922	8.329207	0.104336	-0.313378	0.086826	0.000977	-0.156006	-0.751709	6.432461	28.881130	138.051834
38356		-4.486555	0.977106	8.446284	0.097520	-0.280347	0.084493	0.001709	-0.160645	-0.745117	6.508250	28.712072	138.087919
38357		-4.411700	0.844286	8.381121	0.092826	-0.261218	0.057728	0.000244	-0.162354	-0.743652	6.573595	28.555368	138.107831
38358		-4.138571	0.900296	8.316226	0.091792	-0.219033	0.033625	-0.004883	-0.164551	-0.744385	6.632150	28.424486	138.115020
38359		-3.893945	1.186311	8.325838	0.081005	-0.158778	0.025976	-0.005371	-0.156494	-0.739258	6.684531	28.328164	138.120667
38360		-3.677052	1.246972	8.216493	0.057729	-0.081056	0.022095	-0.006348	-0.162842	-0.742920	6.724854	28.276557	138.130610
38361		-3.426481	1.236683	8.182549	0.029949	0.007846	0.017804	-0.002441	-0.166504	-0.741699	6.751261	28.275514	138.144627
38362		-3.533753	1.032359	8.167428	0.016227	0.095860	0.022249	0.001953	-0.162842	-0.735596	6.774251	28.324548	138.168168
38363		-3.941094	0.696163	8.398870	0.016617	0.161660	0.018028	-0.000977	-0.157227	-0.741211	6.798928	28.411204	138.192727
38364		-4.758148	0.685513	8.618443	0.040770	0.167583	0.018680	-0.009033	-0.169189	-0.741699	6.837622	28.501264	138.219596
38365		-4.528312	1.080821	8.477288	0.044217	0.161025	0.008044	-0.002930	-0.164063	-0.741943	6.875057	28.587912	138.238771
38366		-3.881741	1.373754	8.284253	0.031041	0.211771	0.015909	-0.007080	-0.163574	-0.733398	6.909140	28.703267	138.267486
38367		-3.578912	1.250005	8.174824	0.009126	0.298266	0.029995	0.002441	-0.164551	-0.737793	6.938734	28.866322	138.311870
38368		-3.740256	0.835480	8.141149	0.000912	0.384564	0.023889	0.003418	-0.159424	-0.738037	6.964957	29.079371	138.359698
38369		-4.212304	0.852237	8.348505	0.005623	0.452145	0.004904	0.014893	-0.166504	-0.736572	6.990906	29.331796	138.400682
38370		-5.698019	1.685229	8.828589	-0.056974	0.449692	-0.056233	0.016846	-0.158936	-0.741699	6.961302	29.587443	138.401713
38371		-5.512903	1.734746	8.577050	-0.097947	0.376563	-0.043618	0.011475	-0.161133	-0.744629	6.909493	29.800571	138.404436
38372		-5.601823	1.001170	8.661486	-0.109166	0.331598	-0.035135	0.020264	-0.159668	-0.745117	6.851988	29.987595	138.409474
38373		-5.099792	0.640356	8.427174	-0.099422	0.299594	-0.055195	0.024902	-0.154541	-0.740234	6.792197	30.157472	138.398863
38374		-4.639736	1.108768	8.369148	-0.095037	0.317667	-0.063672	0.024170	-0.159180	-0.747559	6.732582	30.338503	138.383587
38375		-5.081347	1.184329	8.551546	-0.115663	0.324623	-0.058888	0.027344	-0.155029	-0.745850	6.662833	30.523036	138.372196
38376		-6.369185	0.586590	8.865382	-0.092534	0.261238	-0.049482	0.030518	-0.155029	-0.751221	6.606873	30.670984	138.361440
38377		-6.403237	0.320184	8.729625	-0.050745	0.122848	-0.048194	0.029053	-0.162598	-0.747070	6.569727	30.739943	138.341498
38378		-5.540078	0.885861	8.577470	-0.016511	0.054572	-0.043079	0.027588	-0.154785	-0.748047	6.551294	30.769824	138.319000
38379		-5.363386	1.013162	8.535766	-0.013457	0.034675	-0.024081	0.025879	-0.158691	-0.751465	6.540405	30.786913	138.307394
38380		-5.212823	0.749374	8.431348	-0.009195	0.022467	-0.021728	0.029541	-0.154785	-0.747803	6.532134	30.797119	138.296583
38381		-5.143613	0.827450	8.473236	0.002809	0.009578	-0.015526	0.029541	-0.163330	-0.751709	6.532384	30.799320	138.289257
38382		-5.055912	0.967132	8.387978	0.008666	0.001163	-0.011035	0.030762	-0.158203	-0.744873	6.537146	30.796701	138.283914
38383		-5.216389	0.964717	8.490851	0.006994	-0.005998	-0.013753	0.026123	-0.154297	-0.746338	6.539962	30.790037	138.275597
38384		-5.896290	0.719606	8.585880	0.020848	-0.064315	-0.009632	0.035889	-0.153320	-0.739502	6.549635	30.750055	138.266208
38385		-5.327238	0.868531	8.461950	0.034052	-0.118856	-0.019474	0.020996	-0.158936	-0.744385	6.561369	30.679599	138.246700
38386		-4.887773	1.089587	8.424122	0.040023	-0.120079	-0.012368	0.030273	-0.163574	-0.743652	6.578955	30.608060	138.231244
38387		-4.742567	1.094708	8.322876	0.024773	-0.102893	-0.015256	0.028320	-0.160400	-0.745117	6.587744	30.546270	138.214570
38388		-4.662679	1.059882	8.328943	0.017826	-0.076600	-0.018847	0.022217	-0.160156	-0.743408	6.592146	30.499908	138.198142
38389		-4.609171	1.058703	8.337545	0.005955	-0.049355	-0.019807	0.027344	-0.156494	-0.737305	6.590655	30.468940	138.182817
38390		-4.554069	1.029242	8.304534	-0.003920	-0.017179	-0.025351	0.025146	-0.155273	-0.746094	6.582739	30.456825	138.166638
38391		-4.394329	1.164620	8.227627	-0.024259	0.022126	-0.040033	0.022461	-0.154785	-0.737061	6.559762	30.467932	138.144135
38392		-4.245152	1.270988	8.196039	-0.047619	0.081560	-0.046621	0.030029	-0.154297	-0.744141	6.523470	30.513400	138.121392
38393		-4.351573	1.198172	8.167145	-0.078722	0.132131	-0.062128	0.026367	-0.161133	-0.738770	6.466004	30.588507	138.092688
38394		-4.141516	1.276790	8.154243	-0.109013	0.198790	-0.082465	0.035889	-0.154785	-0.743652	6.386773	30.702980	138.054819
38395		-4.414472	1.200795	8.189791	-0.140961	0.262559	-0.102009	0.037109	-0.156738	-0.748779	6.284959	30.854909	138.007939
38396		-4.647965	1.045372	8.247762	-0.163541	0.307043	-0.126342	0.034424	-0.159668	-0.750732	6.163062	31.033651	137.948182
38397		-4.877601	0.914327	8.255744	-0.173383	0.327256	-0.134601	0.039063	-0.146484	-0.749268	6.033153	31.224252	137.883183
38398		-5.267792	0.641780	8.512461	-0.164250	0.332631	-0.121246	0.039307	-0.148682	-0.743896	5.912609	31.417045	137.827458
38399		-6.442528	0.074941	8.720090	-0.107160	0.229530	-0.086716	0.033936	-0.144531	-0.739990	5.832618	31.548852	137.788171
38400		-5.812175	0.182685	8.504799	-0.042028	0.146280	-0.070350	0.043457	-0.152100	-0.754883	5.792653	31.632335	137.753015
38401		-5.259352	0.763859	8.416516	-0.011316	0.124017	-0.061662	0.048828	-0.152344	-0.746826	5.772433	31.702351	137.722779
38402		-5.115128	0.926781	8.378513	-0.012913	0.129747	-0.058686	0.046143	-0.155029	-0.749756	5.752523	31.775712	137.694182
38403		-5.188081	0.836143	8.273566	-0.018582	0.132018	-0.067726	0.041504	-0.147705	-0.739502	5.726354	31.850890	137.658869
38404		-5.219554	0.905616	8.244208	-0.022596	0.126664	-0.080771	0.047119	-0.142578	-0.742188	5.692824	31.923730	137.615111
38405		-4.978482	0.997375	8.206768	-0.033089	0.138487	-0.085017	0.047363	-0.143066	-0.751953	5.652001	32.003349	137.570064
38406		-4.997663	0.894587	8.232230	-0.046291	0.157226	-0.093111	0.047363	-0.148682	-0.740234	5.601353	32.094254	137.519828
38407		-5.061570	0.953524	8.231460	-0.061119	0.172608	-0.101926	0.050049	-0.153076	-0.746338	5.539360	32.194219	137.465279
38408		-4.845655	1.115998	8.170582	-0.087773	0.200402	-0.118479	0.049072	-0.155762	-0.753662	5.456971	32.311045	137.400385
38409		-4.806457	1.099302	8.258844	-0.123176	0.252001	-0.136354	0.050293	-0.143311	-0.749756	5.349584	32.457984	137.325501
38410		-5.350560	0.787779	8.245100	-0.140841	0.257476	-0.152047	0.053467	-0.153809	-0.741699	5.225844	32.608943	137.240755
38411		-5.292241	0.883130	8.199031	-0.140703	0.252248	-0.153673	0.053711	-0.140869	-0.737549	5.101111	32.756602	137.153876
38412		-5.359502	0.921598	8.317885	-0.158157	0.251328	-0.153152	0.054932	-0.140137	-0.749756	4.965889	32.903788	137.066933
38413		-5.966306	0.528710	8.396259	-0.150371	0.216511	-0.140730	0.070068	-0.143311	-0.748779	4.838125	33.030024	136.986824
38414		-5.840713	0.450560	8.270526	-0.117516	0.166658	-0.128301	0.063965	-0.143799	-0.745361	4.731930	33.127362	136.910979
38415		-5.509080	0.461177	8.271953	-0.100511	0.143174	-0.108904	0.066650	-0.140625	-0.749023	4.641860	33.210327	136.846289
38416		-5.494845	0.468183	8.255792	-0.083327	0.137275	-0.105767	0.072021	-0.128906	-0.744385	4.562331	33.289644	136.783699
38417		-5.518063	0.613723	8.175035	-0.073334	0.127642	-0.094163	0.065430	-0.133057	-0.758057	4.492261	33.362910	136.729237
38418		-5.612344	0.763553	8.227225	-0.075790	0.111904	-0.088212	0.060059	-0.139648	-0.747559	4.422595	33.426821	136.676960
38419		-5.510573	0.753970	8.151698	-0.083498	0.099070	-0.094715	0.067627	-0.141113	-0.743896	4.345507	33.483342	136.620496
38420		-5.356610	0.733924	8.209191	-0.089748	0.097188	-0.096295	0.069092	-0.139404	-0.749268	4.264127	33.539075	136.561647
38421		-5.458844	0.653512	8.172811	-0.096971	0.096551	-0.104698	0.067627	-0.136230	-0.749023	4.175451	33.594613	136.496436
38422		-5.513938	0.606215	8.152281	-0.095447	0.091725	-0.104768	0.072266	-0.126221	-0.746826	4.087188	33.647425	136.431225
38423		-5.498581	0.538472	8.157245	-0.097745	0.087537	-0.097389	0.077393	-0.134277	-0.754150	4.000066	33.697342	136.371805
38424		-5.536681	0.463201	8.186970	-0.089708	0.083770	-0.098788	0.074463	-0.132324	-0.760010	3.916920	33.745207	136.310058
38425		-5.662451	0.559381	8.151617	-0.083413	0.075799	-0.081612	0.073242	-0.136475	-0.748535	3.843582	33.787785	136.260087
38426		-5.722004	0.594952	8.167565	-0.078833	0.068237	-0.063115	0.075195	-0.127930	-0.745605	3.779734	33.825279	136.221963
38427		-6.273373	0.223106	8.323850	-0.059195	0.021985	-0.044993	0.072754	-0.133057	-0.748047	3.732906	33.835563	136.194330
38428		-6.005203	0.127421	8.080133	-0.008821	-0.045243	-0.019762	0.075928	-0.135742	-0.754395	3.722898	33.806514	136.180881
38429		-5.567759	0.664165	8.144594	0.000984	-0.071736	-0.011346	0.069580	-0.133057	-0.747070	3.721179	33.761946	136.171813
38430		-5.520100	0.600876	8.195294	-0.009366	-0.077642	-0.021732	0.071045	-0.125977	-0.749756	3.709331	33.714444	136.155583
38431		-5.566959	0.448609	8.226526	-0.006731	-0.086052	-0.017512	0.070801	-0.132813	-0.755615	3.700378	33.661829	136.142653
38432		-5.459691	0.293131	8.229746	0.007265	-0.085172	-0.013345	0.067139	-0.129883	-0.740234	3.701106	33.609708	136.131882
38433		-5.523872	0.347353	8.217173	0.016519	-0.096292	-0.012554	0.073486	-0.141357	-0.752686	3.707200	33.551062	136.121526
38434		-5.380208	0.548849	8.149882	0.027479	-0.107824	-0.013093	0.065674	-0.134766	-0.746582	3.719067	33.485981	136.109920
38435		-5.075675	0.776700	8.152054	0.010780	-0.093141	-0.018720	0.066406	-0.132813	-0.739746	3.719830	33.429437	136.094197
38436		-5.022384	0.666993	8.174126	-0.011401	-0.062697	-0.030894	0.070801	-0.131104	-0.746826	3.703839	33.390819	136.072421
38437		-5.086047	0.562259	8.141148	-0.029237	-0.037715	-0.039539	0.065674	-0.130371	-0.749023	3.675051	33.366746	136.045867
38438		-5.157804	0.590478	8.138189	-0.036095	-0.017535	-0.047461	0.072021	-0.132568	-0.743164	3.639807	33.354539	136.014782
38439		-5.158721	0.672609	8.141671	-0.046704	0.004725	-0.048332	0.062988	-0.135742	-0.748535	3.598726	33.355034	135.984170
38440		-5.264030	0.636133	8.170669	-0.060255	0.022771	-0.053029	0.062012	-0.130615	-0.749512	3.548504	33.366036	135.951017
38441		-5.265283	0.540139	8.166667	-0.066241	0.030116	-0.055627	0.064941	-0.135498	-0.748291	3.494147	33.381061	135.916516
38442		-5.275686	0.611241	8.201178	-0.074932	0.047764	-0.061375	0.067871	-0.129395	-0.749023	3.432902	33.406593	135.878644
38443		-5.305431	0.438251	8.208898	-0.081138	0.059307	-0.060402	0.076660	-0.129395	-0.744629	3.368805	33.438519	135.841724
38444		-5.383005	0.427785	8.193459	-0.079519	0.066048	-0.058982	0.069092	-0.136475	-0.746582	3.306153	33.474360	135.806129
38445		-5.209003	0.490450	8.148434	-0.079481	0.072782	-0.057693	0.075195	-0.138184	-0.751465	3.244265	33.514010	135.770703
38446		-5.317961	0.362756	8.170293	-0.083748	0.083087	-0.060967	0.068604	-0.131104	-0.752197	3.178687	33.559596	135.734275
38447		-5.374554	0.494431	8.156545	-0.083473	0.085631	-0.063247	0.069824	-0.133301	-0.748779	3.112609	33.606622	135.695202
38448		-5.128403	0.578209	8.111209	-0.092342	0.098862	-0.067744	0.075684	-0.127441	-0.750732	3.039704	33.661370	135.654529
38449		-5.311494	0.555818	8.109545	-0.111443	0.114396	-0.081751	0.071777	-0.120361	-0.751709	2.950866	33.725309	135.604116
38450		-5.379037	0.545288	8.149030	-0.128190	0.117496	-0.088891	0.075928	-0.129639	-0.750000	2.849477	33.791229	135.549277
38451		-5.258166	0.439127	8.107137	-0.131788	0.135852	-0.097510	0.077881	-0.122559	-0.750732	2.742938	33.867716	135.489184
38452		-5.507267	0.406986	8.180930	-0.143898	0.136035	-0.103433	0.079346	-0.125244	-0.750732	2.626952	33.944465	135.424523
38453		-5.566603	0.334560	8.169508	-0.140995	0.132058	-0.100469	0.088135	-0.123291	-0.749756	2.513558	34.018732	135.361441
38454		-5.565281	0.280310	8.101138	-0.131399	0.120182	-0.102650	0.084717	-0.124512	-0.748047	2.404370	34.086175	135.296375
38455		-5.387937	0.497379	8.134866	-0.131341	0.120201	-0.102647	0.081055	-0.121094	-0.749512	2.295148	34.153673	135.230180
38456		-5.576270	0.393747	8.291066	-0.129393	0.127626	-0.104499	0.080811	-0.117920	-0.756836	2.186141	34.225213	135.163620
38457		-5.786754	0.085724	8.189768	-0.114789	0.106413	-0.094114	0.088867	-0.115967	-0.747803	2.089115	34.284201	135.103630
38458		-5.643125	0.104966	8.166120	-0.086449	0.093255	-0.076678	0.087646	-0.120850	-0.748779	2.014774	34.335308	135.055122
38459		-5.625448	0.224558	8.145806	-0.075719	0.089335	-0.072983	0.083496	-0.116211	-0.747803	1.947945	34.384140	135.008488
38460		-5.646595	0.265369	8.079371	-0.063941	0.080315	-0.064617	0.085693	-0.127930	-0.744873	1.890880	34.427513	134.967851
38461		-5.645836	0.156834	8.049928	-0.058592	0.068272	-0.056053	0.076416	-0.112549	-0.749756	1.840265	34.463757	134.931593
38462		-5.957855	-0.012097	8.109376	-0.034486	0.053459	-0.044904	0.087891	-0.109375	-0.750488	1.807382	34.491335	134.903934
38463		-5.739389	0.290866	8.085255	-0.006544	0.021336	-0.027085	0.084229	-0.113037	-0.752930	1.797017	34.500032	134.889117
38464		-5.489978	0.420221	8.057360	-0.011311	0.016447	-0.027814	0.081055	-0.111084	-0.750977	1.783657	34.506095	134.872502
38465		-5.436808	0.317949	8.040008	-0.026617	0.026639	-0.032086	0.084961	-0.112793	-0.756348	1.759917	34.517912	134.854091
38466		-5.525852	0.327816	8.098753	-0.035810	0.032458	-0.034571	0.086182	-0.118896	-0.745605	1.730038	34.533252	134.833108
38467		-5.508417	0.280933	8.125998	-0.043334	0.033055	-0.038652	0.083008	-0.115723	-0.756592	1.694311	34.548919	134.809208
38468		-5.610928	0.230824	8.129910	-0.044780	0.036000	-0.039592	0.085449	-0.118164	-0.743896	1.657327	34.566350	134.784775
38469		-5.648870	0.187280	8.056734	-0.041888	0.033476	-0.037034	0.092285	-0.120850	-0.756592	1.623103	34.582160	134.761707
38470		-5.548889	0.138631	8.044440	-0.039058	0.029471	-0.034081	0.085205	-0.111572	-0.752441	1.591470	34.595738	134.740945
38471		-5.500599	0.142020	8.163686	-0.040926	0.033610	-0.030621	0.086914	-0.104736	-0.750732	1.560266	34.611603	134.722253
38472		-5.668035	0.045809	8.124051	-0.028619	0.034555	-0.026472	0.090332	-0.111328	-0.752686	1.537655	34.627958	134.706858
38473		-5.635398	0.170014	8.054455	-0.014963	0.026234	-0.021275	0.088623	-0.108643	-0.750000	1.524705	34.639426	134.696026
38474		-5.651649	0.128657	8.130759	-0.016857	0.022171	-0.018781	0.093018	-0.112061	-0.742920	1.511733	34.648565	134.685742
38475		-5.716525	0.100651	8.074130	-0.004536	0.019757	-0.015307	0.086426	-0.111572	-0.742676	1.507137	34.656302	134.678089
38476		-5.591927	0.295811	8.041402	-0.004696	0.011955	-0.014808	0.086914	-0.106201	-0.745605	1.502595	34.659528	134.670380
38477		-5.475775	0.330741	8.072807	-0.009636	0.014173	-0.012727	0.089844	-0.110352	-0.758789	1.496024	34.663912	134.664879
38478		-5.484740	0.244343	8.120162	-0.017137	0.022965	-0.015849	0.086426	-0.118652	-0.750732	1.484052	34.673458	134.656643
38479		-5.601508	0.172596	8.078042	-0.015869	0.027138	-0.012082	0.083252	-0.107666	-0.753906	1.474423	34.685260	134.650928
38480		-5.586026	0.162547	8.114016	-0.015067	0.027661	-0.004202	0.088379	-0.120117	-0.750977	1.468297	34.697322	134.650883
38481		-5.529433	0.288910	8.049397	-0.015968	0.032377	-0.010326	0.091309	-0.116699	-0.750488	1.459360	34.712033	134.646644
38482		-5.491008	0.333342	8.086522	-0.023461	0.029610	-0.015103	0.088135	-0.107910	-0.743896	1.444115	34.725370	134.639032
38483		-5.568601	0.231836	8.098106	-0.026158	0.036583	-0.018839	0.102051	-0.116211	-0.745850	1.425962	34.742723	134.628807
38484		-5.638214	0.160102	8.064669	-0.025785	0.033914	-0.022847	0.088867	-0.111084	-0.747314	1.406340	34.758631	134.615859
38485		-5.658446	0.165382	8.025427	-0.023311	0.029216	-0.016570	0.090576	-0.111816	-0.743164	1.390666	34.771875	134.606383
38486		-5.480415	0.184909	7.991881	-0.020118	0.022538	-0.017627	0.086670	-0.109619	-0.749512	1.376244	34.781188	134.596868
38487		-5.251206	0.458382	8.165328	-0.028990	0.043955	-0.021104	0.085449	-0.112305	-0.740967	1.355591	34.802729	134.585461
38488		-5.482680	0.335734	8.068172	-0.039762	0.060294	-0.037701	0.085449	-0.117188	-0.751465	1.322254	34.833933	134.562542
38489		-5.348191	0.292062	8.117585	-0.034820	0.069646	-0.038112	0.089111	-0.112061	-0.743408	1.291835	34.870299	134.538910
38490		-5.388630	0.364745	8.146591	-0.041200	0.093561	-0.049935	0.088867	-0.112061	-0.755615	1.253019	34.920692	134.507897
38491		-5.634376	0.242366	8.099628	-0.055740	0.101765	-0.061572	0.089111	-0.110840	-0.752441	1.201332	34.975766	134.468705
38492		-5.719370	0.114543	8.118538	-0.050881	0.104803	-0.061877	0.090088	-0.105225	-0.750977	1.152140	35.032696	134.429358
38493		-5.697466	0.116896	8.084903	-0.044547	0.101539	-0.061929	0.096436	-0.111084	-0.748047	1.106459	35.087555	134.390571
38494		-5.755347	0.087207	8.081327	-0.044586	0.100064	-0.061538	0.092285	-0.103027	-0.753662	1.060817	35.141715	134.351233
38495		-5.803780	0.033814	8.036305	-0.035563	0.098026	-0.056864	0.093994	-0.104492	-0.748291	1.022133	35.194552	134.315618
38496		-5.803708	-0.017061	8.001512	-0.025397	0.085627	-0.049306	0.097900	-0.113037	-0.747070	0.992192	35.240274	134.284541
38497		-5.771726	0.134349	8.030003	-0.016810	0.073203	-0.041907	0.101563	-0.109375	-0.749268	0.970104	35.278735	134.258391
38498		-5.707619	0.111571	8.052909	-0.017042	0.067273	-0.040355	0.103027	-0.109375	-0.749023	0.948376	35.313836	134.233304
38499		-5.756669	0.018846	8.033636	-0.014195	0.059905	-0.038090	0.093018	-0.114502	-0.748535	0.929188	35.344767	134.209176
38500		-5.735480	0.038099	8.023491	-0.002083	0.053072	-0.033377	0.098877	-0.106201	-0.750732	0.918727	35.371655	134.188783
38501		-5.781558	0.098391	7.974866	-0.001238	0.043495	-0.027565	0.100830	-0.114502	-0.750000	0.911160	35.392879	134.172047
38502		-5.767494	0.088247	8.010239	-0.003106	0.036052	-0.025791	0.098145	-0.109131	-0.746338	0.903066	35.409943	134.156776
38503		-5.749127	0.120712	8.022229	0.001615	0.027924	-0.026293	0.103760	-0.117432	-0.746582	0.897573	35.422324	134.140209
38504		-5.689157	0.084891	7.968786	-0.000970	0.023921	-0.017574	0.104492	-0.116699	-0.755371	0.893964	35.432363	134.130573
38505		-5.654075	0.163595	8.015764	-0.005092	0.025641	-0.023243	0.100098	-0.107422	-0.751709	0.885975	35.443519	134.114849
38506		-5.509290	0.208942	8.020942	-0.002993	0.025977	-0.027866	0.100098	-0.110352	-0.743164	0.877016	35.454824	134.097992
38507		-5.574699	0.165549	8.086216	-0.010264	0.035848	-0.032871	0.098877	-0.104980	-0.748535	0.861968	35.471785	134.077558
38508		-5.715106	0.091687	8.035952	-0.006725	0.041446	-0.035556	0.103271	-0.107178	-0.751465	0.847808	35.492011	134.055439
38509		-5.779093	0.008474	7.980130	-0.002505	0.037855	-0.030963	0.094971	-0.108887	-0.746582	0.837881	35.510095	134.037014
38510		-5.778273	0.049330	7.954243	0.001339	0.033561	-0.023049	0.097168	-0.098877	-0.754150	0.833387	35.525694	134.023599
38511		-5.759861	0.082458	7.966376	0.003709	0.027366	-0.016380	0.096924	-0.108643	-0.748779	0.832863	35.537488	134.016114
38512		-5.740968	0.115948	7.978876	0.005199	0.021065	-0.016130	0.096191	-0.108154	-0.748047	0.833330	35.545870	134.007438
38513		-5.765256	0.060323	7.975723	0.006176	0.019296	-0.010789	0.094482	-0.107178	-0.756104	0.836602	35.553015	134.002729
38514		-5.725114	0.128461	8.002442	0.007529	0.018230	-0.008768	0.110840	-0.115234	-0.748535	0.841400	35.559711	133.999208
38515		-5.756931	0.118355	8.028999	0.004528	0.012941	-0.010873	0.112793	-0.111084	-0.746582	0.843695	35.563373	133.993578
38516		-5.765351	0.102628	7.949171	0.007291	0.012293	-0.007218	0.096436	-0.120361	-0.741455	0.848956	35.566656	133.991087
38517		-5.788578	0.047508	7.946758	0.005145	0.002267	-0.003206	0.096436	-0.110107	-0.750732	0.854838	35.564228	133.989382
38518		-5.769506	0.060890	7.972645	0.005564	-0.004656	0.006619	0.108398	-0.113525	-0.750000	0.864673	35.557682	133.996457
38519		-5.748021	0.095996	7.987020	0.004573	-0.011997	0.014810	0.104492	-0.115479	-0.739990	0.877365	35.546833	134.008587
38520		-5.696808	0.195654	7.971019	0.005207	-0.013562	0.008944	0.102051	-0.102783	-0.755615	0.887887	35.535162	134.017198
38521		-5.678521	0.188017	8.009545	-0.001448	-0.014370	0.011597	0.102783	-0.109131	-0.750732	0.895706	35.523016	134.027546
38522		-5.669334	0.143164	7.981023	0.000853	-0.017784	0.004819	0.107422	-0.108154	-0.755371	0.902012	35.508961	134.033201
38523		-5.727192	0.144583	8.025041	-0.004172	-0.017081	0.007252	0.110107	-0.105713	-0.748291	0.906424	35.495334	134.040649
38524		-5.739979	0.119749	7.979532	-0.005899	-0.016716	0.008552	0.098145	-0.113770	-0.752197	0.910388	35.481857	134.048936
38525		-5.709663	0.108512	7.965127	-0.005821	-0.023435	0.007169	0.104004	-0.104736	-0.750488	0.913822	35.464581	134.055953
38526		-5.760229	0.118954	7.977014	-0.004370	-0.026377	0.008111	0.106201	-0.102539	-0.757080	0.918412	35.445572	134.063816
38527		-5.737048	0.153028	7.992563	-0.005803	-0.031638	0.006175	0.099365	-0.111328	-0.752686	0.921190	35.423620	134.071421
38528		-5.753305	0.139627	7.968783	-0.013200	-0.037786	0.000642	0.096924	-0.103516	-0.758301	0.917595	35.398144	134.073899
38529		-5.734673	0.109393	8.020737	-0.005743	-0.043199	0.004486	0.100586	-0.114746	-0.745361	0.919780	35.369410	134.079690
38530		-5.732929	0.087777	8.035205	-0.012451	-0.045489	0.007534	0.100586	-0.100098	-0.755859	0.919363	35.339457	134.086921
38531		-5.733827	0.099471	8.058687	-0.007974	-0.051346	0.009578	0.103271	-0.114502	-0.749023	0.922284	35.306114	134.095819
38532		-5.748663	0.086677	8.035956	-0.006674	-0.053896	0.011984	0.101074	-0.109375	-0.757813	0.926914	35.271303	134.106069
38533		-5.742335	0.108157	8.027272	-0.005276	-0.058320	0.013310	0.096924	-0.106934	-0.755127	0.932942	35.233987	134.116478
38534		-5.561298	0.220435	8.006356	-0.000738	-0.062693	0.014963	0.095703	-0.106934	-0.743164	0.942098	35.194107	134.128697
38535		-5.375667	0.381128	8.072895	-0.010733	-0.050688	0.005935	0.097168	-0.110840	-0.749756	0.941940	35.161111	134.135197
38536		-5.527337	0.302310	8.113658	-0.020828	-0.036808	-0.002011	0.098633	-0.106689	-0.753906	0.932893	35.136219	134.135810
38537		-5.610996	0.067319	8.087146	-0.020418	-0.026419	-0.004720	0.102051	-0.104248	-0.749023	0.923093	35.117276	134.134675
38538		-5.698633	-0.003493	8.050977	-0.008779	-0.023871	0.005380	0.091064	-0.112061	-0.756104	0.924014	35.099727	134.140618
38539		-5.699680	0.029769	8.061132	-0.001235	-0.022962	0.009125	0.101318	-0.100098	-0.746826	0.930789	35.082610	134.149362
38540		-5.738980	0.038326	8.019946	0.005982	-0.026115	0.015497	0.096436	-0.109131	-0.750000	0.944213	35.063680	134.162352
38541		-5.688985	0.041623	8.031462	0.009908	-0.028928	0.023012	0.091064	-0.105225	-0.749268	0.962807	35.043088	134.181184
38542		-5.689278	0.077333	8.042115	0.015748	-0.035855	0.027060	0.101807	-0.102051	-0.748779	0.986384	35.018458	134.202127
38543		-5.669862	0.126380	8.078765	0.020439	-0.040621	0.027238	0.099365	-0.105957	-0.757568	1.012570	34.991063	134.224071
38544		-5.658129	0.159935	8.036596	0.016977	-0.044729	0.029546	0.091309	-0.103516	-0.753662	1.037743	34.961309	134.246600
38545		-5.617806	0.167286	8.102328	0.015259	-0.044361	0.030852	0.092773	-0.104980	-0.747803	1.062342	34.931689	134.271032
38546		-5.603113	0.167178	8.051396	0.016286	-0.043740	0.021274	0.093750	-0.111816	-0.753418	1.083774	34.902575	134.287749
38547		-5.608820	0.193698	8.095272	0.014719	-0.043763	0.021114	0.092041	-0.106201	-0.755371	1.104245	34.873379	134.304543
38548		-5.600673	0.183883	8.076934	0.011639	-0.042326	0.020408	0.097412	-0.114258	-0.752686	1.122645	34.845075	134.320637
38549		-5.601812	0.197981	8.100020	0.011792	-0.042717	0.018941	0.091797	-0.110840	-0.750000	1.140569	34.816537	134.335589
38550		-5.597468	0.145345	8.105424	0.008828	-0.038314	0.017459	0.093994	-0.114502	-0.755371	1.156185	34.790557	134.349651
38551		-5.618234	0.146491	8.102691	0.009895	-0.038597	0.022408	0.086182	-0.114258	-0.750977	1.174469	34.764311	134.366634
38552		-5.559307	0.180539	8.069792	0.016711	-0.033352	0.018553	0.086426	-0.107910	-0.750488	1.195051	34.741153	134.381501
38553		-5.601584	0.148463	8.053159	0.017425	-0.034334	0.026824	0.090820	-0.108887	-0.748535	1.219385	34.717154	134.402202
38554		-5.587756	0.133875	8.125131	0.019025	-0.029468	0.027283	0.092041	-0.111084	-0.758789	1.244761	34.696103	134.423179
38555		-5.626655	0.144793	8.084499	0.020276	-0.033501	0.030074	0.085449	-0.110596	-0.752930	1.271922	34.672649	134.446218
38556		-5.582487	0.140668	8.128637	0.024756	-0.031163	0.033091	0.085205	-0.109375	-0.751709	1.302833	34.650536	134.471177
38557		-5.492069	0.207283	8.055350	0.026505	-0.026690	0.032081	0.081543	-0.117188	-0.756592	1.334393	34.630818	134.495986
38558		-5.352206	0.281867	8.102840	0.024906	-0.015154	0.033601	0.085938	-0.114746	-0.748047	1.365704	34.617846	134.521522
38559		-5.499595	0.293163	8.094990	0.016272	0.000629	0.026911	0.092285	-0.113525	-0.752441	1.389726	34.613810	134.542132
38560		-5.573186	0.272458	8.092433	0.011912	0.001259	0.023117	0.088135	-0.122559	-0.747803	1.409592	34.610367	134.560633
38561		-5.557600	0.244877	8.141742	0.009240	0.004876	0.018701	0.088623	-0.107178	-0.747314	1.426400	34.609024	134.574878
38562		-5.472739	0.212124	8.093705	0.006509	0.007010	0.014674	0.087646	-0.114014	-0.747070	1.439888	34.608988	134.587600
38563		-5.352507	0.237845	8.104972	0.005445	0.023690	0.011697	0.084717	-0.111084	-0.740479	1.451771	34.618469	134.598846
38564		-5.442306	0.251489	8.162843	-0.002915	0.042045	0.002754	0.097412	-0.111572	-0.748535	1.455501	34.638669	134.603893
38565		-5.562295	0.160552	8.130561	-0.000087	0.054436	0.007675	0.090332	-0.108643	-0.750977	1.462959	34.665878	134.612556
38566		-5.653440	0.134329	8.066601	0.004604	0.057861	0.008836	0.087158	-0.105957	-0.760986	1.473577	34.695047	134.622130
38567		-5.601675	0.166817	8.028607	0.006174	0.049684	0.008009	0.091797	-0.117920	-0.753662	1.484600	34.719425	134.632288
38568		-5.559392	0.278271	8.029073	0.008903	0.047550	0.012040	0.089111	-0.115234	-0.743408	1.498865	34.742637	134.643929
38569		-5.560194	0.361321	8.122839	-0.002714	0.046500	0.001578	0.090332	-0.108643	-0.755859	1.502455	34.765340	134.647446
38570		-5.577445	0.227278	8.080279	-0.002345	0.055397	-0.000760	0.088379	-0.113281	-0.751465	1.505282	34.793237	134.650318
38571		-5.559365	0.151612	8.097187	-0.009741	0.062312	-0.004974	0.089111	-0.112793	-0.750000	1.502267	34.825036	134.650960
38572		-5.640892	0.160984	8.099510	-0.005347	0.066525	-0.000872	0.094482	-0.114014	-0.752686	1.503448	34.859308	134.653959
38573		-5.778453	0.024050	8.031486	0.004624	0.057872	0.008847	0.089355	-0.111572	-0.744385	1.514193	34.888399	134.663519
38574		-5.739648	0.039518	8.058944	0.021846	0.050901	0.025240	0.094971	-0.113770	-0.747803	1.541237	34.913323	134.684482
38575		-5.582816	0.169104	8.104810	0.031645	0.054204	0.038104	0.083252	-0.117432	-0.752686	1.579143	34.939858	134.714470
38576		-5.663135	0.130421	8.110435	0.044752	0.065359	0.050810	0.089844	-0.113770	-0.752686	1.629758	34.972629	134.753640
38577		-5.655797	0.209835	8.038054	0.046811	0.063326	0.061104	0.091064	-0.106445	-0.748291	1.685799	35.003819	134.800048
38578		-5.690305	0.406334	7.916525	0.050186	0.052894	0.057909	0.098389	-0.110352	-0.747070	1.742321	35.029268	134.844026
38579		-5.628284	0.405453	7.961793	0.033518	0.027966	0.046925	0.093994	-0.106689	-0.754150	1.784511	35.040552	134.880929
38580		-5.616981	0.359373	8.021958	0.021643	0.024349	0.038678	0.093506	-0.117920	-0.751709	1.816648	35.049946	134.910891
38581		-5.816403	0.165252	8.035378	0.024311	0.017373	0.042429	0.090332	-0.114014	-0.753418	1.851712	35.055173	134.944025
38582		-5.823829	-0.076826	8.092952	0.047486	0.011266	0.062451	0.090088	-0.123291	-0.748535	1.908051	35.056594	134.990336
38583		-5.724764	-0.077586	8.091783	0.071816	0.014576	0.088010	0.093994	-0.113770	-0.744385	1.988761	35.059221	135.054260
38584		-5.826348	-0.054994	8.091317	0.096379	0.018976	0.111712	0.089600	-0.118896	-0.743896	2.093029	35.063944	135.135231
38585		-5.857390	-0.034440	7.994369	0.123783	0.012644	0.137031	0.090576	-0.123779	-0.748779	2.223119	35.064267	135.233801
38586		-5.792575	0.270684	8.011532	0.139322	-0.000656	0.153433	0.093750	-0.121582	-0.752441	2.368449	35.056500	135.343426
38587		-5.566051	0.631327	7.857498	0.136114	-0.010353	0.152549	0.094482	-0.126221	-0.748047	2.511477	35.042887	135.451524
38588		-5.434130	0.919229	7.810579	0.104095	-0.020852	0.123365	0.098389	-0.119873	-0.745361	2.624105	35.023905	135.539414
38589		-5.483855	0.983917	7.942126	0.059085	-0.048163	0.078311	0.092529	-0.120850	-0.749756	2.692367	34.990396	135.594320
38590		-5.714470	0.675866	8.140812	0.027221	-0.060960	0.046611	0.091553	-0.124268	-0.747070	2.729313	34.950360	135.627152
38591		-6.102459	0.059917	8.173303	0.060420	-0.100370	0.056148	0.090820	-0.118164	-0.753662	2.788318	34.887424	135.665283
38592		-5.674452	0.311716	8.182950	0.096545	-0.107185	0.074552	0.088135	-0.125732	-0.746826	2.875068	34.820088	135.715856
38593		-5.448585	0.457100	8.212741	0.096504	-0.095193	0.077621	0.089111	-0.126221	-0.746338	2.963112	34.759379	135.769313
38594		-5.431815	0.185057	8.072422	0.095818	-0.083056	0.086939	0.087158	-0.125732	-0.748291	3.054587	34.705348	135.829064
38595		-5.542627	0.271725	8.035504	0.103443	-0.072080	0.092661	0.084717	-0.125732	-0.744629	3.152859	34.657270	135.892927
38596		-5.587861	0.786634	8.012514	0.095750	-0.065798	0.091724	0.088135	-0.130859	-0.749756	3.246319	34.612796	135.956387
38597		-5.362328	0.842781	8.034609	0.073222	-0.060587	0.080009	0.083252	-0.128662	-0.749023	3.322336	34.571536	136.011558
38598		-5.320458	0.867939	7.976132	0.037867	-0.044204	0.055928	0.082275	-0.133789	-0.734619	3.368844	34.540478	136.050836
38599		-5.375823	0.821231	8.025926	0.007277	-0.036411	0.029950	0.082520	-0.130859	-0.740967	3.387895	34.514621	136.071688
38600		-5.706399	0.609377	8.088478	-0.011795	-0.037255	0.013916	0.080566	-0.135254	-0.747314	3.389532	34.488935	136.082040
38601		-6.068426	0.259335	8.201445	0.014990	-0.081597	0.022583	0.083252	-0.123779	-0.739258	3.409056	34.437464	136.095694
38602		-5.714324	0.371524	8.212564	0.031475	-0.104816	0.043434	0.076172	-0.127686	-0.745850	3.445429	34.372122	136.123669
38603		-5.662847	0.185046	8.141923	0.046253	-0.115318	0.052616	0.076660	-0.134033	-0.748047	3.493543	34.300302	136.158182
38604		-5.512106	0.239939	8.061030	0.066083	-0.113153	0.061959	0.080322	-0.129395	-0.753662	3.556604	34.229500	136.198439
38605		-5.346089	0.614316	8.135434	0.060182	-0.102422	0.059977	0.080811	-0.119629	-0.746338	3.615749	34.164737	136.237563
38606		-5.376955	0.399472	8.094710	0.051625	-0.084732	0.054199	0.081543	-0.132568	-0.755127	3.668013	34.110400	136.273475
38607		-5.467910	0.384986	8.092765	0.058489	-0.086345	0.048959	0.075195	-0.128662	-0.739014	3.721984	34.055259	136.306714
38608		-5.460519	0.643831	8.087856	0.060881	-0.095837	0.055032	0.078613	-0.134277	-0.749512	3.779437	33.994486	136.342526
38609		-5.282687	0.728325	8.107794	0.057757	-0.077125	0.059044	0.073242	-0.129150	-0.747314	3.837091	33.944142	136.381880
38610		-5.339011	0.610239	8.176077	0.047230	-0.039489	0.061806	0.073486	-0.131104	-0.750244	3.890639	33.915261	136.424796
38611		-5.780558	0.368789	8.302505	0.051407	-0.037527	0.052108	0.076660	-0.128662	-0.745117	3.942853	33.887698	136.461899
38612		-5.606730	0.518793	8.191548	0.066092	-0.049231	0.045666	0.071289	-0.130615	-0.753174	4.000666	33.853821	136.493143
38613		-5.314661	0.778887	8.238612	0.054652	-0.041008	0.034295	0.068604	-0.138916	-0.752686	4.047694	33.824963	136.517976
38614		-6.416189	0.430878	8.450333	0.060573	-0.079074	0.029655	0.072021	-0.137207	-0.750000	4.095321	33.774636	136.536651
38615		-5.994476	0.614295	8.253438	0.091159	-0.180188	0.018078	0.072510	-0.137939	-0.747314	4.153331	33.666826	136.541980
38616		-5.342450	1.067361	8.166186	0.073759	-0.185060	0.016222	0.076416	-0.133057	-0.752441	4.200336	33.556468	136.545975
38617		-5.338277	0.804203	8.107881	0.042088	-0.176093	0.017099	0.073975	-0.140625	-0.743408	4.229739	33.451181	136.551045
38618		-5.092401	0.615660	8.076389	0.030076	-0.164318	0.012657	0.063477	-0.138916	-0.755615	4.250853	33.352822	136.553496
38619		-4.877220	0.526609	8.062422	0.019719	-0.135713	0.011572	0.061279	-0.134521	-0.750000	4.266517	33.270775	136.556114
38620		-5.065893	0.465476	8.071264	0.021645	-0.111084	0.014328	0.069580	-0.142090	-0.744629	4.284868	33.202760	136.562348
