// General information: 
//  MT Manager version: 2022.2.0 
//  XDA version: 2022.2.0 build 7381 rev 124627 built on 2023-07-19
// Device information: 
//  DeviceId: 00B4BCF6
//  ProductCode: MTW2-3A7G6
//  Firmware Version: 4.6.0
//  Hardware Version: 2.0.0
// Device settings: 
//  Filter Profile: human(46.1)
//  Option Flags: Orientation Smoother Disabled, Position/Velocity Smoother Disabled, Continuous Zero Rotation Update Disabled, AHS Disabled, ICC Disabled
// Coordinate system: ENU
PacketCounter	SampleTimeFine	Acc_X	Acc_Y	Acc_Z	Gyr_X	Gyr_Y	Gyr_Z	Mag_X	Mag_Y	Mag_Z	Roll	Pitch	Yaw
64318		-2.127249	-6.729435	6.843383	-0.005774	0.002691	-0.003444	-0.702637	0.165771	-0.221680	-44.239173	12.068122	121.321227
64319		-2.142700	-6.711195	6.841624	-0.004688	-0.000199	-0.004975	-0.709229	0.164063	-0.223145	-44.239512	12.066206	121.321451
64320		-2.161255	-6.727289	6.840673	-0.005343	0.001301	-0.000152	-0.712402	0.161865	-0.217529	-44.239678	12.065755	121.324773
64321		-2.163914	-6.762014	6.841231	-0.002561	-0.005958	-0.006415	-0.696289	0.174805	-0.221191	-44.238433	12.060825	121.326386
64322		-2.121575	-6.697355	6.817032	-0.007601	-0.001222	-0.003392	-0.697998	0.170654	-0.216064	-44.239962	12.058043	121.329378
64323		-2.161277	-6.727877	6.864227	-0.003692	-0.003045	-0.003261	-0.695557	0.170898	-0.219238	-44.239335	12.055625	121.336022
64324		-2.127894	-6.730576	6.890326	-0.004688	-0.000199	-0.004975	-0.699463	0.168213	-0.225342	-44.239421	12.052630	121.337933
64325		-2.141713	-6.713079	6.864223	-0.006991	-0.002700	-0.006593	-0.703369	0.173096	-0.222412	-44.241009	12.049033	121.340383
64326		-2.126823	-6.731741	6.889518	-0.007512	-0.001266	-0.006639	-0.697754	0.173828	-0.220215	-44.242767	12.044936	121.342031
64327		-2.140618	-6.714459	6.863215	-0.010424	-0.002289	-0.005056	-0.700928	0.174316	-0.224121	-44.246221	12.042136	121.346523
64328		-2.157369	-6.731625	6.837634	-0.008901	-0.001810	-0.008282	-0.698730	0.179199	-0.227539	-44.248873	12.037158	121.347704
64329		-2.158095	-6.731708	6.861471	-0.008469	-0.003200	-0.004991	-0.698730	0.161621	-0.222168	-44.251126	12.034074	121.352178
64330		-2.120495	-6.736743	6.814144	-0.009422	-0.000376	-0.008328	-0.700928	0.172852	-0.224121	-44.254204	12.029667	121.352755
64331		-2.136713	-6.682752	6.884274	-0.016289	0.000444	-0.005254	-0.704102	0.168945	-0.223145	-44.261273	12.027883	121.352991
64332		-2.155552	-6.735258	6.834628	-0.013030	0.004880	-0.005284	-0.700195	0.170898	-0.220947	-44.266599	12.026850	121.352697
64333		-2.103704	-6.722860	6.860673	-0.011943	0.001991	-0.006817	-0.699463	0.175049	-0.225830	-44.271445	12.025082	121.352959
64334		-2.120488	-6.704544	6.882777	-0.012985	0.004859	-0.006908	-0.700684	0.162598	-0.225342	-44.276885	12.023391	121.351992
64335		-2.117936	-6.706961	6.832878	-0.017551	0.008178	-0.002215	-0.700195	0.171875	-0.228760	-44.285070	12.026025	121.350071
64336		-2.121227	-6.742675	6.832211	-0.018895	0.007613	-0.005483	-0.703369	0.169678	-0.218506	-44.294006	12.026033	121.348575
64337		-2.139737	-6.724038	6.878282	-0.015506	0.007225	-0.005397	-0.698975	0.169678	-0.226074	-44.301216	12.026993	121.347051
64338		-2.141466	-6.760095	6.853579	-0.011596	0.005403	-0.005266	-0.701172	0.166992	-0.224854	-44.305763	12.026182	121.346551
64339		-2.102490	-6.694531	6.877648	-0.011119	0.003990	-0.003598	-0.698242	0.169678	-0.214844	-44.310028	12.026535	121.345626
64340		-2.172799	-6.724324	6.849336	-0.007209	0.002169	-0.003466	-0.693115	0.174316	-0.226807	-44.311629	12.025117	121.347204
64341		-2.172662	-6.725060	6.848656	-0.011029	0.003949	-0.006845	-0.700684	0.169678	-0.218018	-44.316117	12.024136	121.348065
64342		-2.138074	-6.728936	6.849817	-0.010984	0.003929	-0.008468	-0.698730	0.171875	-0.220947	-44.320467	12.021438	121.346826
64343		-2.102102	-6.733498	6.826537	-0.012939	0.004840	-0.008535	-0.698486	0.170898	-0.219238	-44.326273	12.020122	121.346385
64344		-2.134621	-6.696600	6.847254	-0.012984	0.004860	-0.006912	-0.705811	0.172852	-0.224121	-44.331713	12.018428	121.345418
64345		-2.121817	-6.750812	6.848183	-0.016373	0.005247	-0.007001	-0.705811	0.169678	-0.231445	-44.339388	12.017917	121.345008
64346		-2.133240	-6.699311	6.820825	-0.008819	0.006489	-0.001977	-0.700928	0.174072	-0.228027	-44.342150	12.018867	121.345442
64347		-2.117708	-6.718669	6.821436	-0.008683	0.006430	-0.006848	-0.699219	0.176514	-0.226563	-44.345512	12.018973	121.341833
64348		-2.119011	-6.718760	6.845149	-0.007685	0.003582	-0.005136	-0.705078	0.174561	-0.221191	-44.347651	12.017467	121.342133
64349		-2.139073	-6.734596	6.868152	-0.010208	0.005946	-0.003623	-0.699219	0.169189	-0.224121	-44.351560	12.018633	121.343441
64350		-2.139220	-6.735292	6.867424	-0.007295	0.006973	-0.005203	-0.697510	0.166748	-0.219727	-44.353771	12.018489	121.342325
64351		-2.120619	-6.720209	6.867442	-0.008207	0.005016	-0.005181	-0.709229	0.172607	-0.219238	-44.356588	12.018580	121.341246
64352		-2.117938	-6.721874	6.818206	-0.003430	0.005172	-0.003446	-0.697998	0.170898	-0.218994	-44.356278	12.018403	121.341603
64353		-2.120935	-6.721079	6.866493	-0.005953	0.007535	-0.001934	-0.697998	0.179199	-0.224365	-44.357733	12.020818	121.343165
64354		-2.118490	-6.722646	6.817274	-0.003952	0.006606	-0.003491	-0.690674	0.174316	-0.226074	-44.357848	12.021210	121.342916
64355		-2.155810	-6.719004	6.863478	-0.007341	0.006993	-0.003580	-0.698242	0.169189	-0.227539	-44.360199	12.022842	121.343795
64356		-2.104598	-6.741745	6.841841	-0.006819	0.005559	-0.003536	-0.694580	0.164063	-0.220215	-44.361871	12.022787	121.343956
64357		-2.139065	-6.739403	6.839209	-0.008252	0.005035	-0.003559	-0.699707	0.166992	-0.228516	-44.364575	12.023536	121.342205
64358		-2.104742	-6.742923	6.840636	-0.006251	0.004106	-0.005116	-0.702881	0.179443	-0.225342	-44.365935	12.022254	121.342300
64359		-2.156042	-6.721424	6.861036	-0.009594	0.004473	-0.006829	-0.699951	0.170166	-0.222168	-44.369647	12.021530	121.340914
64360		-2.120444	-6.725671	6.837914	-0.009342	0.007922	-0.002025	-0.712646	0.168457	-0.221680	-44.372835	12.023049	121.340740
64361		-2.139222	-6.741843	6.836754	-0.001863	0.000872	-0.003314	-0.704834	0.173096	-0.227051	-44.371500	12.022176	121.342513
64362		-2.120444	-6.726511	6.837087	-0.006727	0.005521	-0.006784	-0.703613	0.174072	-0.215576	-44.373399	12.020804	121.341329
64363		-2.136070	-6.708388	6.835252	-0.005775	0.002692	-0.003449	-0.707031	0.165771	-0.230225	-44.374471	12.020647	121.344125
64364		-2.120420	-6.727586	6.836038	-0.007295	0.006973	-0.005205	-0.703613	0.170898	-0.224854	-44.376683	12.020503	121.343008
64365		-2.120602	-6.728179	6.835397	-0.007341	0.006992	-0.003582	-0.706299	0.174805	-0.220947	-44.379035	12.022073	121.339859
64366		-2.139380	-6.744525	6.834059	-0.007249	0.006955	-0.006829	-0.705078	0.170654	-0.217041	-44.381360	12.021270	121.338069
64367		-2.156327	-6.726060	6.856401	-0.010504	0.002516	-0.006811	-0.700928	0.173584	-0.218750	-44.385419	12.019659	121.339980
64368		-2.107548	-6.747826	6.883424	-0.007249	0.006955	-0.006829	-0.697021	0.170410	-0.232422	-44.387744	12.018856	121.338190
64369		-2.119079	-6.731620	6.808230	-0.011595	0.005402	-0.005276	-0.702148	0.168945	-0.213623	-44.392543	12.019104	121.337049
64370		-2.174815	-6.744106	6.853481	-0.007684	0.003583	-0.005142	-0.694336	0.167236	-0.223877	-44.394682	12.017597	121.337348
64371		-2.100379	-6.717313	6.807538	-0.008728	0.006450	-0.005230	-0.708984	0.165283	-0.222656	-44.397921	12.018199	121.336713
64372		-2.154862	-6.730266	6.828466	-0.008252	0.005035	-0.003562	-0.706543	0.173340	-0.217773	-44.400372	12.017919	121.337078
64373		-2.104954	-6.752534	6.831084	-0.010208	0.005944	-0.003630	-0.704346	0.175781	-0.222656	-44.404277	12.018967	121.337194
64374		-2.156427	-6.731285	6.851240	-0.011548	0.005384	-0.006902	-0.699951	0.167480	-0.215088	-44.408938	12.017491	121.336019
64375		-2.139417	-6.751472	6.827185	-0.014120	0.007763	-0.003767	-0.701660	0.169189	-0.226074	-44.415250	12.019236	121.336675
64376		-2.139487	-6.752511	6.826135	-0.012981	0.004860	-0.006927	-0.698242	0.177002	-0.223389	-44.420690	12.017536	121.335704
64377		-2.140925	-6.752981	6.849497	-0.012640	0.008269	-0.005367	-0.703613	0.164795	-0.229980	-44.426342	12.018914	121.333948
64378		-2.136714	-6.719978	6.823656	-0.009686	0.004511	-0.003588	-0.701416	0.174072	-0.224365	-44.429572	12.018410	121.334518
64379		-2.139795	-6.755198	6.823379	-0.012164	0.006853	-0.003700	-0.699707	0.171875	-0.222900	-44.434687	12.019869	121.331832
64380		-2.122791	-6.739664	6.847677	-0.007342	0.006992	-0.003583	-0.709717	0.176025	-0.222656	-44.436786	12.020382	121.331385
64381		-2.154401	-6.738528	6.796165	-0.010114	0.005909	-0.006880	-0.707764	0.169678	-0.217041	-44.440920	12.020164	121.330968
64382		-2.141609	-6.756984	6.845334	-0.011207	0.008793	-0.005344	-0.692627	0.169922	-0.225586	-44.445541	12.020707	121.329047
64383		-2.121637	-6.742628	6.820823	-0.011072	0.003969	-0.005238	-0.701172	0.182129	-0.221436	-44.449915	12.020314	121.329039
64384		-2.138719	-6.724536	6.842838	-0.015935	0.008619	-0.008711	-0.702148	0.179932	-0.223633	-44.457523	12.019434	121.325782
64385		-2.121659	-6.744919	6.818551	-0.015506	0.007220	-0.005420	-0.697021	0.172363	-0.220215	-44.464732	12.020386	121.328181
64386		-2.125988	-6.779793	6.842497	-0.009591	0.004476	-0.006839	-0.696533	0.177979	-0.218994	-44.468188	12.018563	121.327406
64387		-2.118771	-6.712310	6.816224	-0.010732	0.007377	-0.003678	-0.696533	0.170654	-0.221924	-44.472523	12.020211	121.328981
64388		-2.123287	-6.746962	6.840333	-0.008728	0.006451	-0.005234	-0.703613	0.159668	-0.219971	-44.475514	12.019840	121.328067
64389		-2.107644	-6.766360	6.840867	-0.010161	0.005927	-0.005259	-0.705322	0.168701	-0.225342	-44.479534	12.020193	121.325318
64390		-2.140583	-6.764717	6.813695	-0.008205	0.005018	-0.005191	-0.696533	0.172607	-0.207764	-44.482099	12.019254	121.325010
64391		-2.140724	-6.765408	6.812964	-0.009299	0.007901	-0.003654	-0.694824	0.171631	-0.221680	-44.485653	12.021054	121.325801
64392		-2.121993	-6.750431	6.812990	-0.009929	0.001069	-0.008404	-0.702637	0.165283	-0.220215	-44.489148	12.017210	121.325772
64393		-2.137505	-6.732574	6.810981	-0.008728	0.006451	-0.005234	-0.701416	0.166748	-0.218994	-44.492394	12.017811	121.324004
64394		-2.142017	-6.767241	6.835067	-0.010732	0.007376	-0.003680	-0.698730	0.165039	-0.221924	-44.496476	12.018442	121.323359
64395		-2.104813	-6.736521	6.835811	-0.009590	0.004477	-0.006842	-0.701904	0.177002	-0.219971	-44.500186	12.017566	121.321025
64396		-2.122130	-6.753511	6.809894	-0.009347	0.007917	-0.002030	-0.697998	0.177490	-0.222900	-44.503378	12.019080	121.320848
64397		-2.123875	-6.753690	6.833508	-0.007819	0.008410	-0.005253	-0.694580	0.175537	-0.224609	-44.506273	12.020537	121.321534
64398		-2.106850	-6.738085	6.857976	-0.008253	0.005034	-0.003569	-0.706055	0.171875	-0.216553	-44.508725	12.020255	121.321898
64399		-2.158608	-6.752209	6.829931	-0.011255	0.008809	-0.003725	-0.709229	0.170898	-0.227051	-44.513488	12.022450	121.321930
64400		-2.140074	-6.772834	6.781440	-0.015844	0.003811	-0.006992	-0.705566	0.179688	-0.220947	-44.520483	12.020294	121.321366
64401		-2.124297	-6.757002	6.830102	-0.006820	0.005560	-0.003543	-0.696777	0.176270	-0.224121	-44.522415	12.021265	121.322667
64402		-2.141623	-6.738674	6.852361	-0.013598	0.006326	-0.003735	-0.695068	0.178955	-0.225098	-44.528054	12.021444	121.322431
64403		-2.125951	-6.758114	6.852840	-0.006724	0.005528	-0.006791	-0.699707	0.173340	-0.220947	-44.530212	12.021134	121.322235
64404		-2.123136	-6.759638	6.803498	-0.007343	0.006993	-0.003586	-0.707520	0.168213	-0.216309	-44.532313	12.021645	121.321788
64405		-2.139039	-6.741599	6.801565	-0.007295	0.006977	-0.005211	-0.705566	0.176270	-0.221680	-44.534777	12.022443	121.321545
64406		-2.159088	-6.757462	6.824582	-0.005724	0.002678	-0.005082	-0.702637	0.180176	-0.222900	-44.535711	12.020591	121.322246
64407		-2.124781	-6.760857	6.826134	-0.007343	0.006993	-0.003587	-0.704834	0.171143	-0.220703	-44.538068	12.022131	121.324295
64408		-2.124856	-6.761580	6.825395	-0.011070	0.003969	-0.005249	-0.696533	0.172363	-0.220215	-44.542189	12.020739	121.324395
64409		-2.121838	-6.728026	6.824124	-0.010546	0.002536	-0.005207	-0.701416	0.170166	-0.218506	-44.546139	12.019749	121.325378
64410		-2.141824	-6.744215	6.846844	-0.011593	0.005402	-0.005293	-0.707764	0.170654	-0.219971	-44.550686	12.018925	121.324871
64411		-2.124575	-6.764113	6.822972	-0.009113	0.003061	-0.005180	-0.696777	0.170410	-0.220215	-44.553853	12.018132	121.325908
64412		-2.138793	-6.746719	6.796565	-0.011118	0.003984	-0.003626	-0.700684	0.166748	-0.222900	-44.557862	12.017399	121.326680
64413		-2.090220	-6.768681	6.823375	-0.013550	0.006310	-0.005364	-0.706787	0.167725	-0.226807	-44.563869	12.017875	121.324249
64414		-2.124548	-6.766820	6.820296	-0.011545	0.005387	-0.006918	-0.698242	0.163330	-0.218994	-44.568528	12.016392	121.323071
64415		-2.141782	-6.748596	6.842540	-0.009252	0.007886	-0.005281	-0.702637	0.173096	-0.220703	-44.572199	12.017527	121.318930
64416		-2.124524	-6.768495	6.818642	-0.010972	0.003940	-0.008501	-0.705078	0.164063	-0.224854	-44.576544	12.014816	121.317686
64417		-2.118609	-6.736090	6.768381	-0.017414	0.008110	-0.007130	-0.700928	0.173340	-0.216064	-44.585072	12.015315	121.313975
64418		-2.141504	-6.786911	6.791298	-0.009588	0.004480	-0.006849	-0.700439	0.173340	-0.218262	-44.588527	12.013488	121.313198
64419		-2.140270	-6.752835	6.814426	-0.009874	0.009347	-0.002076	-0.708496	0.171387	-0.221680	-44.592402	12.016511	121.314358
64420		-2.126224	-6.771773	6.839258	-0.009637	0.004494	-0.005226	-0.696777	0.169434	-0.226074	-44.595744	12.015343	121.314253
64421		-2.124868	-6.773103	6.813957	-0.014123	0.007756	-0.003785	-0.710693	0.173584	-0.223145	-44.602068	12.017064	121.312288
64422		-2.143680	-6.789982	6.811953	-0.014549	0.009161	-0.007077	-0.704834	0.176514	-0.218994	-44.608786	12.017055	121.309492
64423		-2.123985	-6.740538	6.835512	-0.015646	0.012041	-0.005538	-0.703369	0.168457	-0.218994	-44.616502	12.019815	121.307898
64424		-2.142622	-6.792748	6.785107	-0.014884	0.005756	-0.008647	-0.697754	0.172119	-0.217773	-44.623256	12.017784	121.305848
64425		-2.121222	-6.743770	6.784334	-0.016555	0.010082	-0.005525	-0.696533	0.172363	-0.224121	-44.631323	12.019702	121.303646
64426		-2.124628	-6.744143	6.831755	-0.014739	0.014000	-0.005553	-0.701172	0.169189	-0.224609	-44.638432	12.022278	121.299494
64427		-2.146376	-6.795507	6.830027	-0.015457	0.007203	-0.007067	-0.695068	0.175049	-0.221924	-44.645759	12.022459	121.296027
64428		-2.121931	-6.747253	6.780648	-0.014457	0.004350	-0.005359	-0.705322	0.174316	-0.225342	-44.651863	12.021178	121.295927
64429		-2.140368	-6.764123	6.778746	-0.012926	0.004850	-0.008580	-0.708008	0.175293	-0.220215	-44.657671	12.019806	121.294577
64430		-2.143241	-6.764276	6.826581	-0.010160	0.005928	-0.005272	-0.693604	0.174561	-0.221191	-44.661440	12.019204	121.293864
64431		-2.125954	-6.784044	6.802725	-0.009111	0.003063	-0.005189	-0.706055	0.166992	-0.222900	-44.664613	12.018441	121.295674
64432		-2.122914	-6.750382	6.801675	-0.009061	0.003050	-0.006813	-0.704102	0.177979	-0.217773	-44.667640	12.016045	121.295504
64433		-2.141411	-6.766928	6.800072	-0.009685	0.004508	-0.003606	-0.699707	0.164795	-0.225098	-44.671126	12.016479	121.296899
64434		-2.127128	-6.785842	6.825018	-0.007679	0.003589	-0.005160	-0.703125	0.174072	-0.220703	-44.673264	12.014969	121.297197
64435		-2.124018	-6.787130	6.775797	-0.005247	0.001262	-0.003422	-0.710938	0.171875	-0.218018	-44.673914	12.014162	121.297778
64436		-2.141016	-6.768571	6.798561	-0.004672	-0.000183	-0.005005	-0.693604	0.176270	-0.217041	-44.673992	12.011177	121.299694
64437		-2.122170	-6.753231	6.799078	-0.005722	0.002682	-0.005088	-0.699463	0.175293	-0.222900	-44.675181	12.010258	121.302399
64438		-2.126445	-6.787731	6.823351	-0.005821	0.002707	-0.001839	-0.699219	0.171387	-0.221191	-44.675890	12.009726	121.304443
64439		-2.120585	-6.754520	6.773831	-0.004765	0.004629	-0.006725	-0.707764	0.173096	-0.218262	-44.676842	12.008981	121.303688
64440		-2.126467	-6.788639	6.822442	-0.006396	0.004152	-0.000257	-0.698242	0.170898	-0.221436	-44.677868	12.009675	121.305796
64441		-2.120885	-6.755362	6.772897	-0.003957	0.006613	-0.003488	-0.705566	0.175537	-0.221680	-44.678243	12.011004	121.306073
64442		-2.125787	-6.754619	6.845504	-0.006063	0.007556	0.001315	-0.703857	0.177979	-0.225830	-44.679234	12.013719	121.307433
64443		-2.126053	-6.790046	6.796703	-0.002049	0.005719	-0.001791	-0.704834	0.166260	-0.226318	-44.678296	12.015430	121.309468
64444		-2.126553	-6.755216	6.844677	-0.005964	0.007532	-0.001935	-0.702637	0.176025	-0.218994	-44.679509	12.016825	121.309485
64445		-2.123771	-6.756258	6.795570	-0.001475	0.004274	-0.003374	-0.700928	0.170898	-0.221680	-44.678251	12.017259	121.309629
64446		-2.161070	-6.788009	6.793568	-0.000567	0.006233	-0.003386	-0.705566	0.172363	-0.220947	-44.676387	12.017540	121.309577
64447		-2.144130	-6.771966	6.818674	-0.000517	0.006221	-0.005011	-0.696777	0.177246	-0.226074	-44.674890	12.018099	121.308774
64448		-2.111398	-6.809782	6.796478	-0.005539	0.006123	0.001355	-0.702393	0.180420	-0.224609	-44.675453	12.020246	121.310742
64449		-2.143085	-6.772901	6.793595	-0.001849	0.005671	-0.008290	-0.699219	0.170898	-0.225830	-44.674963	12.019351	121.309862
64450		-2.107237	-6.776396	6.771061	-0.004914	0.004666	-0.001853	-0.707031	0.176758	-0.225830	-44.675322	12.019612	121.311094
64451		-2.143333	-6.773500	6.792920	-0.001092	0.007666	-0.003428	-0.694336	0.179443	-0.216553	-44.674147	12.021448	121.309760
64452		-2.129342	-6.791952	6.818246	-0.003482	0.005192	-0.001823	-0.709717	0.165283	-0.221436	-44.673727	12.021936	121.310787
64453		-2.126718	-6.757784	6.817610	-0.001999	0.005707	-0.003417	-0.704102	0.169678	-0.217285	-44.672899	12.022904	121.311719
64454		-2.108324	-6.742251	6.818201	-0.003956	0.006613	-0.003489	-0.697021	0.171631	-0.213379	-44.673018	12.023299	121.311467
64455		-2.131358	-6.792420	6.841631	-0.002906	0.003748	-0.003406	-0.704102	0.169189	-0.219238	-44.672536	12.023428	121.313535
64456		-2.125784	-6.759020	6.792193	-0.004583	0.008070	-0.000282	-0.705566	0.174561	-0.228271	-44.672860	12.025708	121.314019
64457		-2.110446	-6.778084	6.792853	-0.007871	0.008425	-0.003635	-0.702393	0.173340	-0.217285	-44.675648	12.027727	121.312356
64458		-2.127966	-6.759706	6.815316	-0.006820	0.005560	-0.003552	-0.698975	0.175293	-0.215088	-44.677323	12.027668	121.312512
64459		-2.126592	-6.760584	6.790384	-0.005863	0.007508	-0.005187	-0.694580	0.169678	-0.222656	-44.679014	12.028641	121.313375
64460		-2.146834	-6.776453	6.813363	-0.003431	0.005181	-0.003448	-0.698242	0.166992	-0.220215	-44.678705	12.028469	121.313730
64461		-2.126794	-6.761313	6.789595	-0.003380	0.005169	-0.005073	-0.693359	0.179443	-0.231689	-44.678765	12.028548	121.311155
64462		-2.111070	-6.780280	6.790467	-0.004863	0.004654	-0.003479	-0.701172	0.172119	-0.219727	-44.679235	12.028149	121.311715
64463		-2.147043	-6.777506	6.812250	-0.003431	0.005181	-0.003448	-0.700684	0.180176	-0.226318	-44.679189	12.028977	121.311518
64464		-2.114497	-6.780116	6.838550	-0.000669	0.006258	-0.000136	-0.711914	0.174805	-0.222900	-44.677103	12.030578	121.312809
64465		-2.143316	-6.743734	6.787090	-0.002050	0.005719	-0.001792	-0.703857	0.172607	-0.217041	-44.676166	12.032272	121.314937
64466		-2.147989	-6.778095	6.811365	-0.005007	0.009479	-0.003574	-0.698975	0.169434	-0.217285	-44.677140	12.033800	121.313470
64467		-2.148298	-6.778476	6.810889	-0.003956	0.006613	-0.003491	-0.697754	0.170166	-0.223633	-44.677514	12.035066	121.313912
64468		-2.128503	-6.763351	6.787029	-0.004533	0.008058	-0.001908	-0.706055	0.179688	-0.214844	-44.677950	12.036687	121.313724
64469		-2.110265	-6.747829	6.787579	-0.002524	0.007140	-0.003459	-0.698242	0.173340	-0.222168	-44.677548	12.038226	121.314814
64470		-2.114951	-6.782029	6.812013	0.000288	0.008206	-0.001771	-0.705811	0.169434	-0.222900	-44.675222	12.039962	121.314622
64471		-2.129477	-6.763742	6.786333	0.001864	0.003908	-0.001645	-0.699951	0.179199	-0.223145	-44.671871	12.040916	121.315455
64472		-2.165520	-6.760401	6.808653	0.006212	0.005477	-0.003175	-0.701660	0.167236	-0.214111	-44.666039	12.040975	121.315802
64473		-2.131455	-6.762905	6.811050	0.002720	0.005879	-0.000031	-0.695313	0.174561	-0.222656	-44.662225	12.043361	121.318252
64474		-2.133344	-6.762239	6.835623	0.006634	0.004068	0.000117	-0.708252	0.172607	-0.215576	-44.655744	12.044171	121.320551
64475		-2.096267	-6.765487	6.789224	0.000288	0.008206	-0.001772	-0.696045	0.169189	-0.222412	-44.653674	12.046806	121.321393
64476		-2.149826	-6.743409	6.834368	0.001339	0.005340	-0.001688	-0.705078	0.176270	-0.212646	-44.650493	12.047408	121.322417
64477		-2.133971	-6.797136	6.787128	-0.000566	0.006234	-0.003387	-0.697021	0.174561	-0.221436	-44.648881	12.048570	121.323381
64478		-2.132912	-6.762371	6.811125	0.002823	0.005856	-0.003281	-0.696045	0.177490	-0.222900	-44.645033	12.048740	121.323528
64479		-2.130090	-6.762915	6.762463	0.002719	0.005879	-0.000031	-0.696289	0.170654	-0.222656	-44.641223	12.051182	121.325309
64480		-2.137950	-6.795963	6.836053	0.007067	0.007449	-0.001561	-0.694580	0.168945	-0.218994	-44.634931	12.052695	121.325519
64481		-2.099695	-6.764255	6.813886	0.005583	0.006933	0.000032	-0.700928	0.177734	-0.220459	-44.629562	12.055534	121.324814
64482		-2.130104	-6.727212	6.787051	0.001772	0.008721	-0.003367	-0.700439	0.168701	-0.219482	-44.626570	12.056838	121.323747
64483		-2.134897	-6.761008	6.811856	0.007015	0.007460	0.000064	-0.694580	0.174561	-0.219727	-44.620422	12.059907	121.325151
64484		-2.153987	-6.776468	6.811090	0.003626	0.007839	-0.000043	-0.706299	0.170410	-0.211426	-44.616002	12.062189	121.325833
64485		-2.118516	-6.779307	6.789119	0.004677	0.004974	0.000043	-0.708740	0.174072	-0.219238	-44.610980	12.064187	121.329279
64486		-2.136292	-6.760080	6.812340	0.003626	0.007839	-0.000043	-0.705322	0.178223	-0.224609	-44.606560	12.066470	121.329962
64487		-2.135143	-6.760072	6.788210	0.007593	0.006016	-0.001518	-0.709473	0.168701	-0.222412	-44.600096	12.068333	121.332598
64488		-2.138609	-6.758971	6.837209	0.005162	0.008342	-0.003261	-0.700195	0.177246	-0.226807	-44.595119	12.069526	121.331731
64489		-2.118883	-6.743176	6.814012	0.005583	0.006934	0.000031	-0.692383	0.176758	-0.226807	-44.589751	12.072391	121.332392
64490		-2.120660	-6.777620	6.790134	0.003573	0.007851	0.001581	-0.695801	0.172119	-0.222900	-44.585220	12.075331	121.333748
64491		-2.136861	-6.758784	6.788952	0.004256	0.006382	-0.003251	-0.696045	0.169922	-0.216309	-44.580857	12.076685	121.332255
64492		-2.140257	-6.757905	6.837748	0.002299	0.007288	-0.003326	-0.703857	0.174805	-0.225098	-44.577436	12.077422	121.331795
64493		-2.118900	-6.742890	6.789798	-0.003101	0.008583	-0.001885	-0.701416	0.164795	-0.219482	-44.577351	12.080153	121.331305
64494		-2.173796	-6.755823	6.810560	-0.002575	0.007151	-0.001842	-0.704102	0.174805	-0.210693	-44.576582	12.081431	121.331522
64495		-2.121066	-6.742919	6.813587	0.000013	0.004789	-0.004972	-0.705811	0.170166	-0.220215	-44.574651	12.081293	121.332384
64496		-2.141308	-6.758491	6.836840	-0.000565	0.006233	-0.003391	-0.699707	0.178223	-0.223145	-44.572786	12.081574	121.332331
64497		-2.137196	-6.724502	6.812007	-0.000145	0.004825	-0.000098	-0.699219	0.177979	-0.223633	-44.570529	12.083503	121.334862
64498		-2.127643	-6.776652	6.862399	0.003770	0.003014	0.000054	-0.692383	0.170654	-0.220459	-44.565602	12.083855	121.337571
64499		-2.142185	-6.758358	6.836696	-0.002155	0.005742	0.001451	-0.702881	0.165039	-0.214844	-44.564441	12.086799	121.339377
64500		-2.156772	-6.740233	6.810809	-0.000618	0.006245	-0.001766	-0.699463	0.165039	-0.221680	-44.562465	12.087738	121.339997
64501		-2.141394	-6.758784	6.812023	0.002193	0.007312	-0.000077	-0.703613	0.164063	-0.219971	-44.559071	12.090592	121.338901
64502		-2.141739	-6.758766	6.811933	-0.000565	0.006233	-0.003392	-0.696533	0.170166	-0.219238	-44.557206	12.090872	121.338848
64503		-2.143547	-6.758465	6.836163	0.000867	0.006761	-0.003359	-0.690918	0.168945	-0.214355	-44.554815	12.092213	121.336931
64504		-2.159541	-6.739943	6.834724	-0.000565	0.006233	-0.003392	-0.703125	0.180908	-0.223145	-44.552949	12.092492	121.336878
64505		-2.126936	-6.742444	6.861224	-0.000998	0.002853	-0.001712	-0.702393	0.167236	-0.224365	-44.551149	12.092954	121.340169
64506		-2.125074	-6.778168	6.788208	-0.003954	0.006611	-0.003501	-0.708740	0.168213	-0.222412	-44.551268	12.093344	121.339914
64507		-2.125618	-6.743173	6.836417	0.001919	0.003896	-0.003272	-0.703369	0.177490	-0.223389	-44.548019	12.093573	121.338884
64508		-2.158523	-6.740806	6.809686	-0.001577	0.004298	-0.000131	-0.701904	0.169922	-0.216797	-44.546282	12.094373	121.340988
64509		-2.110271	-6.761807	6.837544	0.001340	0.005340	-0.001691	-0.708984	0.169678	-0.212646	-44.543352	12.095845	121.342909
64510		-2.141591	-6.759754	6.786495	0.000434	0.003380	-0.001680	-0.706055	0.173828	-0.222412	-44.540519	12.095648	121.344743
64511		-2.140700	-6.724958	6.810457	0.000760	0.006785	-0.000109	-0.698730	0.176758	-0.220947	-44.537905	12.098294	121.347188
64512		-2.145352	-6.758905	6.835162	0.003351	0.004423	-0.003239	-0.702148	0.174561	-0.222168	-44.533627	12.097896	121.347943
64513		-2.141032	-6.724593	6.810712	0.005780	0.002098	-0.001493	-0.705078	0.167969	-0.219238	-44.527858	12.098153	121.351271
64514		-2.142302	-6.759144	6.786878	0.001865	0.003908	-0.001647	-0.702637	0.173584	-0.226318	-44.524248	12.098184	121.352903
64515		-2.127114	-6.742358	6.836755	0.006214	0.005478	-0.003173	-0.698730	0.173828	-0.219482	-44.518666	12.099112	121.352353
64516		-2.142577	-6.758666	6.787268	0.003351	0.004423	-0.003239	-0.698242	0.174561	-0.215576	-44.514388	12.098713	121.353107
64517		-2.161751	-6.739212	6.834746	0.001812	0.003920	-0.000022	-0.706543	0.173584	-0.218750	-44.510921	12.100259	121.356775
64518		-2.124366	-6.742551	6.788426	0.003351	0.004423	-0.003239	-0.701660	0.176025	-0.217285	-44.506643	12.099860	121.357529
64519		-2.143462	-6.723043	6.835980	0.003823	0.003003	-0.001570	-0.708496	0.168213	-0.223389	-44.502078	12.100402	121.361512
64520		-2.127854	-6.741480	6.837390	0.001339	0.005340	-0.001692	-0.699951	0.170654	-0.218018	-44.498896	12.101000	121.362537
64521		-2.128123	-6.741224	6.837559	0.006633	0.004070	0.000121	-0.699951	0.177734	-0.214600	-44.492662	12.102642	121.364089
64522		-2.144367	-6.722332	6.836395	0.003585	0.012641	-0.003395	-0.689453	0.172363	-0.226807	-44.488971	12.105539	121.361404
64523		-2.125876	-6.741460	6.789037	0.003677	0.007828	-0.001671	-0.700195	0.177002	-0.228516	-44.484916	12.108059	121.361618
64524		-2.148062	-6.756268	6.836918	0.005635	0.006923	-0.001593	-0.705322	0.174072	-0.220703	-44.479400	12.109343	121.362034
64525		-2.129921	-6.740099	6.838109	0.005109	0.008356	-0.001638	-0.694824	0.170898	-0.229736	-44.474567	12.112106	121.362011
64526		-2.113404	-6.723554	6.863658	0.005635	0.006923	-0.001593	-0.703369	0.177002	-0.225098	-44.469052	12.113390	121.362427
64527		-2.147495	-6.755691	6.813171	0.003823	0.003003	-0.001570	-0.703857	0.174316	-0.224121	-44.464487	12.114011	121.362866
64528		-2.147624	-6.755399	6.813419	0.006215	0.005478	-0.003174	-0.703857	0.174561	-0.223633	-44.458654	12.114070	121.363214
64529		-2.147716	-6.755357	6.813432	-0.002901	0.003744	-0.003417	-0.696045	0.174316	-0.228027	-44.458166	12.114208	121.364289
64530		-2.131071	-6.739304	6.838534	-0.000238	0.009637	-0.001827	-0.693115	0.175781	-0.228516	-44.456270	12.116508	121.363493
64531		-2.149867	-6.755273	6.837334	-0.001415	0.004259	-0.005010	-0.701416	0.163818	-0.221436	-44.455120	12.116283	121.361750
64532		-2.149864	-6.755477	6.837133	-0.002429	0.002324	-0.001748	-0.695313	0.166504	-0.220215	-44.453843	12.115624	121.363990
64533		-2.145502	-6.721677	6.812184	-0.002901	0.003744	-0.003418	-0.706543	0.169678	-0.229492	-44.453351	12.115678	121.362252
64534		-2.149817	-6.756116	6.836516	-0.006670	0.000728	-0.003473	-0.708984	0.169189	-0.217041	-44.454517	12.113674	121.364424
64535		-2.145099	-6.722701	6.811301	-0.008953	-0.001772	-0.005120	-0.700684	0.180420	-0.229248	-44.457168	12.110818	121.365654
64536		-2.147441	-6.757722	6.811173	-0.005129	0.001231	-0.006690	-0.702881	0.173828	-0.221924	-44.457777	12.107729	121.366275
64537		-2.164700	-6.739412	6.833616	-0.010640	0.002549	-0.002004	-0.702637	0.175537	-0.220215	-44.461500	12.107979	121.368670
64538		-2.148528	-6.759059	6.834012	-0.016999	-0.001584	-0.010253	-0.696533	0.171143	-0.217773	-44.468980	12.102309	121.368956
64539		-2.146036	-6.760799	6.808562	-0.017433	-0.004964	-0.008573	-0.705566	0.166504	-0.223145	-44.476521	12.096770	121.372187
64540		-2.163577	-6.778248	6.806278	-0.023631	-0.005656	-0.010378	-0.703369	0.161377	-0.225830	-44.487461	12.089385	121.374095
64541		-2.130216	-6.747529	6.879724	-0.029356	-0.007769	-0.010515	-0.700439	0.169922	-0.218506	-44.501760	12.081894	121.372996
64542		-2.127423	-6.750068	6.853572	-0.027492	-0.003859	-0.012162	-0.706543	0.176025	-0.219238	-44.515223	12.074528	121.373423
64543		-2.159119	-6.749956	6.824969	-0.030449	-0.000102	-0.013955	-0.700684	0.180664	-0.223877	-44.531109	12.068804	121.372390
64544		-2.156401	-6.752608	6.798657	-0.028869	-0.004398	-0.013826	-0.704346	0.172363	-0.222900	-44.545458	12.060549	121.372348
64545		-2.122472	-6.757351	6.823382	-0.031299	-0.002073	-0.015574	-0.707275	0.173584	-0.225098	-44.561805	12.053437	121.371220
64546		-2.139921	-6.775647	6.820273	-0.031408	-0.002052	-0.012326	-0.710693	0.175537	-0.221191	-44.577679	12.046744	121.370844
64547		-2.100187	-6.746415	6.796145	-0.024574	-0.002812	-0.013729	-0.707275	0.178467	-0.220215	-44.589946	12.040039	121.370352
64548		-2.135104	-6.745353	6.816590	-0.023670	-0.000851	-0.013738	-0.710205	0.168457	-0.220459	-44.601612	12.033267	121.368895
64549		-2.118368	-6.765782	6.816300	-0.022766	0.001110	-0.013748	-0.699951	0.163818	-0.219238	-44.613178	12.028122	121.367185
64550		-2.150995	-6.730075	6.836634	-0.019108	0.004148	-0.010436	-0.707031	0.163086	-0.226318	-44.622371	12.024718	121.365052
64551		-2.117409	-6.769141	6.813261	-0.023552	0.007387	-0.010634	-0.700928	0.170898	-0.218018	-44.634651	12.023351	121.357776
64552		-2.116853	-6.771026	6.811561	-0.024196	0.000582	-0.013788	-0.708252	0.174561	-0.213623	-44.646744	12.017142	121.355714
64553		-2.150726	-6.769858	6.807885	-0.013493	0.006284	-0.007046	-0.709717	0.171631	-0.217529	-44.652856	12.016769	121.355591
64554		-2.115015	-6.739068	6.833246	-0.016137	0.005189	-0.013620	-0.703125	0.172363	-0.222168	-44.660711	12.012504	121.351705
64555		-2.115558	-6.774979	6.808032	-0.012329	0.003402	-0.010214	-0.702393	0.169434	-0.219238	-44.666183	12.009707	121.350032
64556		-2.129493	-6.757644	6.781555	-0.010103	0.005910	-0.006934	-0.696777	0.170898	-0.217285	-44.670062	12.008428	121.348635
64557		-2.133812	-6.792424	6.805482	-0.004864	0.004651	-0.003491	-0.701416	0.172852	-0.220703	-44.670781	12.008838	121.348957
64558		-2.131103	-6.758439	6.804871	-0.004755	0.004634	-0.006743	-0.697998	0.171387	-0.226563	-44.671471	12.007117	121.348165
64559		-2.116670	-6.777302	6.829984	-0.007562	0.003567	-0.008440	-0.697754	0.174561	-0.220703	-44.674074	12.005151	121.345959
64560		-2.112107	-6.743765	6.804898	-0.006186	0.004105	-0.006779	-0.704590	0.167969	-0.220459	-44.675540	12.003199	121.345371
64561		-2.130583	-6.760217	6.803267	-0.007781	0.003601	-0.001938	-0.697510	0.172363	-0.226807	-44.677706	12.003828	121.346536
64562		-2.113691	-6.744765	6.828033	-0.009575	0.004478	-0.006893	-0.697998	0.171631	-0.215820	-44.681157	12.001983	121.345747
64563		-2.097692	-6.763950	6.828698	-0.005712	0.002682	-0.005112	-0.699951	0.172363	-0.210693	-44.682333	12.000977	121.345966
64564		-2.128651	-6.762298	6.777178	-0.005283	0.006067	-0.006785	-0.704590	0.177002	-0.220947	-44.683451	11.999822	121.344567
64565		-2.130151	-6.762517	6.801116	-0.004227	0.003203	-0.006702	-0.701416	0.168457	-0.219482	-44.683958	11.998345	121.346435
64566		-2.132793	-6.797362	6.800870	-0.004435	0.008036	-0.005165	-0.700195	0.165283	-0.226807	-44.684618	11.998645	121.344900
64567		-2.152020	-6.778749	6.847891	-0.003852	0.006596	-0.006750	-0.698242	0.171631	-0.219238	-44.685203	11.998545	121.340568
64568		-2.098466	-6.800865	6.802350	-0.004271	0.008012	-0.010044	-0.698242	0.177002	-0.219238	-44.686190	11.996870	121.337011
64569		-2.131555	-6.763926	6.823907	-0.000782	0.002823	-0.008214	-0.705566	0.170898	-0.223389	-44.684822	11.994665	121.337320
64570		-2.113751	-6.783060	6.800543	-0.004700	0.004627	-0.008371	-0.702881	0.171631	-0.225586	-44.685620	11.992284	121.335854
64571		-2.095051	-6.767396	6.801470	0.002982	0.005845	-0.008146	-0.698242	0.169189	-0.225098	-44.682347	11.991346	121.332424
64572		-2.112577	-6.748534	6.824653	0.003774	0.007823	-0.004900	-0.704590	0.172363	-0.223145	-44.678263	11.991666	121.331087
64573		-2.112679	-6.748528	6.824628	0.000495	0.008178	-0.008267	-0.700928	0.171875	-0.221680	-44.676624	11.991627	121.326631
64574		-2.129421	-6.764926	6.798949	-0.002311	0.007110	-0.009967	-0.702637	0.174561	-0.220703	-44.676404	11.989616	121.323477
64575		-2.146130	-6.781409	6.773193	-0.001410	0.009072	-0.009973	-0.702148	0.167969	-0.219238	-44.676080	11.989242	121.319677
64576		-2.130100	-6.800270	6.774171	-0.001299	0.009056	-0.013225	-0.703369	0.174316	-0.217529	-44.675728	11.986711	121.314364
64577		-2.112914	-6.784256	6.799610	0.005052	0.004928	-0.011320	-0.699707	0.172607	-0.218506	-44.671465	11.984064	121.311896
64578		-2.094323	-6.768202	6.800891	0.004730	0.009778	-0.006532	-0.703857	0.172607	-0.216797	-44.667141	11.984524	121.309074
64579		-2.111927	-6.749104	6.824290	0.010190	0.008490	-0.009590	-0.702881	0.169678	-0.222168	-44.660089	11.984031	121.306613
64580		-2.128839	-6.764574	6.799481	0.013887	0.006721	-0.002927	-0.701904	0.177979	-0.218262	-44.649946	11.984697	121.306552
64581		-2.096422	-6.766043	6.827015	0.013887	0.006721	-0.002927	-0.708252	0.167236	-0.221924	-44.640049	11.986196	121.307268
64582		-2.132061	-6.797157	6.801305	0.016219	0.009214	-0.002897	-0.707520	0.166016	-0.225098	-44.628780	11.987891	121.306194
64583		-2.115572	-6.779823	6.827822	0.020193	0.007404	-0.004365	-0.709473	0.172607	-0.216064	-44.615450	11.989050	121.302746
64584		-2.131721	-6.759961	6.827783	0.021568	0.007943	-0.002703	-0.695313	0.169434	-0.228760	-44.600990	11.990305	121.302276
64585		-2.113571	-6.742845	6.829966	0.015317	0.007252	-0.002893	-0.704346	0.162598	-0.218750	-44.590316	11.992030	121.301344
64586		-2.114165	-6.741654	6.830958	0.020826	0.014209	-0.001214	-0.708252	0.167480	-0.225830	-44.576687	11.996441	121.298919
64587		-2.129244	-6.721990	6.806431	0.021299	0.012787	0.000454	-0.699951	0.171143	-0.215820	-44.562763	12.001713	121.295172
64588		-2.115807	-6.738620	6.833443	0.025803	0.009545	-0.000969	-0.701660	0.170410	-0.214600	-44.545863	12.004320	121.294768
64589		-2.099094	-6.755417	6.812122	0.032314	0.013650	0.002420	-0.706055	0.171631	-0.218018	-44.525532	12.010725	121.295803
64590		-2.134551	-6.750373	6.811792	0.037607	0.012389	0.004241	-0.701660	0.165283	-0.217773	-44.501659	12.016587	121.296409
64591		-2.137105	-6.747589	6.838330	0.034014	0.009335	-0.000705	-0.693848	0.172852	-0.214355	-44.480255	12.019972	121.296275
64592		-2.134589	-6.745816	6.791721	0.034689	0.011339	0.005789	-0.700439	0.177979	-0.220459	-44.457827	12.026025	121.297965
64593		-2.102742	-6.745309	6.821008	0.044228	0.003422	0.002993	-0.697998	0.177490	-0.216309	-44.429747	12.028538	121.304492
64594		-2.101619	-6.741888	6.800194	0.062438	0.002137	0.008487	-0.699951	0.174805	-0.225098	-44.390398	12.031904	121.311089
64595		-2.106675	-6.701477	6.901541	0.066144	0.005173	0.010166	-0.703613	0.170166	-0.228027	-44.349285	12.038030	121.319077
64596		-2.122907	-6.713188	6.856235	0.070379	0.006778	0.011888	-0.700684	0.163818	-0.227783	-44.305482	12.044651	121.325206
64597		-2.145848	-6.723558	6.908238	0.062869	0.005519	0.006781	-0.707275	0.170410	-0.220703	-44.266562	12.049542	121.326465
64598		-2.159167	-6.701548	6.862034	0.057520	0.006790	0.006576	-0.698730	0.170410	-0.223633	-44.230591	12.054037	121.330369
64599		-2.125545	-6.699850	6.868453	0.063984	0.002643	0.005236	-0.698730	0.170654	-0.225098	-44.190919	12.057091	121.335211
64600		-2.105850	-6.679494	6.849715	0.073667	-0.001832	0.008888	-0.699951	0.165283	-0.225830	-44.144756	12.058960	121.343612
64601		-2.177346	-6.633205	6.922471	0.076212	-0.004178	0.007381	-0.702148	0.172119	-0.227783	-44.097306	12.060077	121.350434
64602		-2.125720	-6.649474	6.907049	0.073253	-0.000429	0.005565	-0.698486	0.162598	-0.228027	-44.051791	12.061186	121.356867
64603		-2.111976	-6.662608	6.937460	0.065474	0.003160	0.003603	-0.696777	0.165771	-0.226807	-44.011444	12.063824	121.358313
64604		-2.143392	-6.656462	6.890521	0.063515	0.004061	0.003513	-0.703369	0.165283	-0.229980	-43.972071	12.065957	121.362056
64605		-2.165001	-6.702188	6.894413	0.068393	0.004205	0.002025	-0.699951	0.168213	-0.222168	-43.930275	12.068382	121.361846
64606		-2.145734	-6.646569	6.923700	0.069621	0.001290	-0.002761	-0.705811	0.172119	-0.234375	-43.887720	12.066874	121.364069
64607		-2.112307	-6.679211	6.907152	0.074874	0.004827	-0.004322	-0.708252	0.167236	-0.231689	-43.842826	12.067055	121.362587
64608		-2.146763	-6.671605	6.909489	0.071899	0.003804	-0.001142	-0.703613	0.166748	-0.227539	-43.799036	12.067225	121.364473
64609		-2.126611	-6.651011	6.891123	0.082184	0.002656	-0.004066	-0.705322	0.171143	-0.234375	-43.749746	12.066587	121.362433
64610		-2.127561	-6.680127	6.873153	0.089794	-0.000865	0.002755	-0.692871	0.172852	-0.234375	-43.694963	12.066364	121.367860
64611		-2.089012	-6.642079	6.857183	0.107648	-0.000750	0.003276	-0.705078	0.168457	-0.227295	-43.630147	12.067319	121.371290
64612		-2.002346	-6.693562	6.799706	0.135942	-0.012606	0.020696	-0.698242	0.167236	-0.221680	-43.546340	12.069298	121.389072
64613		-1.978873	-6.633048	6.762119	0.184612	-0.023140	0.048432	-0.695068	0.165039	-0.231445	-43.431526	12.078593	121.422509
64614		-1.917985	-6.620801	6.854195	0.225053	-0.029883	0.087167	-0.704834	0.165771	-0.233398	-43.289268	12.099454	121.475569
64615		-1.957779	-6.671071	6.796877	0.248758	-0.031266	0.130088	-0.697510	0.159912	-0.238770	-43.129661	12.137280	121.544113
64616		-2.020578	-6.626639	6.883586	0.268384	-0.039045	0.171397	-0.707764	0.161133	-0.233887	-42.954108	12.186955	121.637052
64617		-2.051151	-6.583458	6.972808	0.253199	-0.035484	0.203220	-0.702148	0.164063	-0.232422	-42.784775	12.251073	121.735694
64618		-2.136353	-6.590494	7.009422	0.212506	-0.028403	0.229365	-0.706299	0.165771	-0.234619	-42.636549	12.327232	121.849713
64619		-2.169204	-6.588185	7.021432	0.153965	-0.021291	0.255065	-0.698975	0.162109	-0.240723	-42.520126	12.416889	121.967212
64620		-2.129158	-6.573144	7.203945	0.055617	-0.013271	0.300852	-0.699219	0.159912	-0.240234	-42.455969	12.526672	122.106549
64621		-1.719790	-6.889113	7.099308	-0.088673	0.005641	0.340182	-0.697266	0.168701	-0.231445	-42.472320	12.660424	122.247892
64622		-0.541338	-6.206237	7.798957	-0.288064	0.164823	0.498024	-0.694092	0.167725	-0.236084	-42.601066	12.921886	122.401927
64623		0.120866	-6.969253	7.802240	-0.547628	0.314570	0.865897	-0.686523	0.175537	-0.231445	-42.855362	13.390588	122.651240
64624		-1.124642	-7.081180	7.819732	-0.811107	0.453421	1.178009	-0.672852	0.182373	-0.229980	-43.239867	14.040163	122.980341
64625		-0.454720	-7.618184	8.213963	-1.061396	0.765880	1.388733	-0.668213	0.201660	-0.233398	-43.774036	14.905794	123.268814
64626		0.348015	-8.669278	7.826970	-0.806299	1.396790	1.680282	-0.651123	0.205078	-0.229248	-44.194719	16.149274	123.414902
64627		-0.888641	-7.826244	8.295113	-0.632041	1.894074	2.014922	-0.629639	0.219238	-0.234619	-44.533464	17.731826	123.489298
64628		-2.099877	-8.042326	8.141505	-0.573140	2.214422	2.260871	-0.606689	0.228760	-0.237305	-44.848737	19.543936	123.523522
64629		-3.678976	-8.441546	8.799788	-0.615414	2.475230	2.442206	-0.580566	0.229980	-0.252930	-45.203315	21.535622	123.512231
64630		-4.193184	-8.675937	9.247748	-0.790023	2.600157	2.557252	-0.554199	0.255371	-0.250977	-45.666035	23.624069	123.480407
64631		-5.307943	-10.049743	10.116212	-1.005462	2.597357	2.644480	-0.528564	0.267334	-0.255859	-46.245934	25.747218	123.466521
64632		-5.925489	-10.574432	9.060377	-1.220646	2.468478	2.660940	-0.494873	0.275391	-0.253906	-46.930969	27.825949	123.493631
64633		-4.021871	-11.578122	9.332191	-1.218466	2.270816	2.563373	-0.468506	0.288818	-0.254395	-47.602529	29.787101	123.544644
64634		-1.696401	-11.290357	8.765564	-0.888257	1.859896	2.389974	-0.448486	0.289795	-0.249756	-48.030014	31.516691	123.700145
64635		1.059801	-10.810116	8.073734	-0.465219	1.364104	2.251740	-0.424072	0.304199	-0.261230	-48.115134	32.998066	124.036327
64636		2.800516	-9.687590	8.400198	-0.116197	0.893886	2.155505	-0.410645	0.308594	-0.262451	-47.880396	34.257886	124.576408
64637		3.219387	-8.832489	8.452660	-0.061904	0.463631	2.048582	-0.391357	0.316406	-0.253906	-47.499012	35.303489	125.303730
64638		1.480019	-11.521544	10.321443	-0.193135	-0.253213	1.651104	-0.382080	0.316406	-0.262695	-47.068899	35.899429	126.228858
64639		4.192664	-11.690289	9.086194	-0.347454	-0.855002	1.026549	-0.375732	0.318359	-0.248535	-46.712587	35.992232	127.171752
64640		5.529079	-10.804418	7.008552	-0.354646	-1.217779	0.530355	-0.375977	0.329590	-0.254883	-46.393544	35.732253	128.059427
64641		6.269304	-9.747048	5.380399	-0.236516	-1.369528	0.203664	-0.377197	0.318359	-0.249512	-46.062898	35.271183	128.859159
64642		6.247489	-9.087837	4.725662	-0.085683	-1.418339	-0.049577	-0.382568	0.315186	-0.246582	-45.712711	34.684313	129.551815
64643		5.727201	-8.653907	4.731035	-0.027234	-1.444950	-0.319364	-0.387451	0.324707	-0.247314	-45.408139	33.970890	130.116868
64644		5.218319	-8.431779	4.922390	-0.065513	-1.487774	-0.620012	-0.400391	0.322021	-0.245361	-45.204805	33.117975	130.548771
64645		4.627180	-8.363091	5.294774	-0.173159	-1.538687	-0.919380	-0.411865	0.322998	-0.244629	-45.137883	32.119214	130.854478
64646		3.988104	-8.186186	5.508809	-0.305499	-1.599452	-1.208876	-0.426025	0.328369	-0.239014	-45.209088	30.981066	131.048714
64647		3.474420	-7.946813	5.505751	-0.413014	-1.659446	-1.455568	-0.444580	0.323242	-0.238525	-45.390188	29.715401	131.156274
64648		2.989124	-7.637629	5.545083	-0.493936	-1.691826	-1.642731	-0.456787	0.327881	-0.230225	-45.651008	28.363833	131.197466
64649		2.313995	-7.321590	5.743294	-0.592752	-1.700930	-1.782016	-0.479736	0.331055	-0.222168	-45.994218	26.947982	131.187406
64650		1.695567	-7.337354	5.982022	-0.683530	-1.700780	-1.905302	-0.495117	0.330811	-0.216553	-46.407489	25.484803	131.133496
64651		1.162151	-7.653248	6.256554	-0.763181	-1.687804	-1.999817	-0.523193	0.335205	-0.212158	-46.880470	23.983096	131.045714
64652		0.490199	-8.225564	6.782362	-0.805584	-1.675900	-2.104926	-0.528564	0.333984	-0.197754	-47.388235	22.445189	130.923005
64653		-0.254960	-9.102105	7.416284	-0.811443	-1.679814	-2.231260	-0.567627	0.332031	-0.188965	-47.910141	20.847154	130.765853
64654		-1.028745	-9.968929	7.966936	-0.784674	-1.705246	-2.397714	-0.579834	0.330566	-0.183594	-48.424708	19.171254	130.569627
64655		-1.650176	-10.514748	8.235276	-0.724403	-1.738416	-2.598903	-0.613770	0.322266	-0.172119	-48.915246	17.390334	130.325870
64656		-2.057035	-10.682213	8.087891	-0.638403	-1.757148	-2.786181	-0.641846	0.328125	-0.164307	-49.361307	15.523761	130.034869
64657		-2.405543	-10.604108	7.828750	-0.529057	-1.732554	-2.937619	-0.669678	0.314941	-0.153564	-49.749756	13.593851	129.691513
64658		-2.689464	-10.502848	7.359356	-0.427732	-1.668096	-3.038800	-0.694092	0.309570	-0.148438	-50.079087	11.645780	129.295954
64659		-3.058760	-10.504314	6.933106	-0.342242	-1.539704	-3.110948	-0.732422	0.286865	-0.131348	-50.360562	9.706500	128.829516
64660		-3.437014	-10.588226	6.523903	-0.236237	-1.363811	-3.160235	-0.760986	0.276611	-0.123291	-50.577848	7.812078	128.277206
64661		-3.846933	-10.338960	6.032761	-0.092799	-1.143423	-3.158759	-0.779297	0.273926	-0.100830	-50.707050	5.992330	127.635603
64662		-4.293316	-9.471308	5.685554	0.059416	-0.880063	-3.098741	-0.808838	0.256836	-0.098389	-50.736522	4.298256	126.902896
64663		-4.936685	-8.733643	5.669827	0.163391	-0.608101	-2.960402	-0.822510	0.230469	-0.093506	-50.691118	2.760039	126.101276
64664		-5.991694	-8.731863	5.914675	0.277454	-0.364851	-2.739584	-0.847168	0.212891	-0.096924	-50.560192	1.413531	125.270476
64665		-7.301361	-8.798935	6.041376	0.432735	-0.193659	-2.500990	-0.862549	0.201904	-0.094238	-50.322856	0.233571	124.447569
64666		-8.717547	-8.542952	6.122653	0.601754	-0.092002	-2.255433	-0.880371	0.186768	-0.095215	-49.972037	-0.792815	123.663840
64667		-10.114470	-7.925342	6.064681	0.755710	-0.048879	-2.014585	-0.880859	0.163086	-0.094727	-49.522103	-1.695980	122.943391
64668		-11.265780	-6.918315	5.855119	0.850795	-0.065433	-1.774941	-0.902100	0.148193	-0.087891	-49.009338	-2.491633	122.311657
64669		-12.147174	-5.504279	5.501624	0.843180	-0.125592	-1.527743	-0.899414	0.134521	-0.093506	-48.499079	-3.200827	121.792153
64670		-11.695330	-2.650181	4.149863	0.643507	-0.211640	-1.150770	-0.911621	0.126953	-0.100342	-48.107197	-3.774452	121.447356
64671		-13.324975	-0.635794	3.134967	0.330355	0.223095	-0.542442	-0.923828	0.130615	-0.097900	-47.896377	-3.922881	121.147788
64672		-12.413341	0.056483	1.551957	-0.053149	0.220580	-0.123863	-0.920166	0.125244	-0.092041	-47.915239	-3.891497	121.009993
64673		-13.346987	-0.545612	1.412398	-0.298136	0.532239	0.377234	-0.925781	0.121338	-0.101074	-48.079475	-3.529099	120.931834
64674		-13.629320	-1.555157	0.607918	-0.294764	0.796069	0.795463	-0.895996	0.126709	-0.094971	-48.244374	-2.885956	120.899857
64675		-14.099470	-1.710652	-0.408784	-0.108327	1.165941	1.164160	-0.892090	0.133057	-0.099365	-48.302774	-1.945042	120.849077
64676		-14.822796	-0.813574	-2.497110	0.078197	1.666362	1.465024	-0.887939	0.150879	-0.113281	-48.252324	-0.683774	120.698956
64677		-14.385086	0.588844	-4.397336	0.267221	2.371313	1.737957	-0.865723	0.161621	-0.137939	-48.098617	0.963542	120.354297
64678		-0.180071	-0.686524	1.585485	0.522565	3.021421	1.845919	-0.847412	0.162842	-0.144775	-47.816360	2.907650	119.780525
64679		-3.765089	-8.956332	12.521211	-0.042961	3.393712	1.900052	-0.832764	0.186768	-0.168701	-47.888616	5.019226	119.071388
64680		-8.365075	-10.380604	19.455110	0.152468	3.204020	2.131717	-0.807129	0.184814	-0.184082	-47.856468	7.155809	118.530024
64681		-8.014542	-3.779139	21.978303	0.193571	2.698072	2.489373	-0.781738	0.204102	-0.195313	-47.770385	9.250595	118.344180
64682		-23.279914	-31.790442	34.500407	1.546734	2.873516	2.164686	-0.748047	0.204102	-0.219482	-46.948356	11.277506	117.971144
64683		-9.047076	-14.986641	1.731418	0.363790	0.135750	0.253574	-0.748779	0.209717	-0.224121	-46.728453	11.436967	118.018459
64684		2.408013	-4.623857	3.911390	0.840055	0.372089	0.147913	-0.746826	0.208252	-0.224121	-46.263809	11.644427	117.924123
64685		-4.171010	-6.512532	10.468167	0.778772	0.443482	0.374997	-0.744385	0.216064	-0.237549	-45.821994	11.975764	117.893318
64686		-1.105023	-5.171151	7.098277	0.272882	0.157829	0.195265	-0.746094	0.199951	-0.234619	-45.659780	12.118179	117.910873
64687		-3.667471	-8.350533	6.320868	0.455000	0.147905	0.210775	-0.736328	0.200684	-0.233154	-45.391046	12.264004	117.939314
64688		-2.104396	-6.543720	6.756610	0.410785	0.039171	0.098653	-0.741455	0.204834	-0.234131	-45.147452	12.319102	117.967645
64689		-2.767733	-7.440887	6.588325	0.396261	0.035042	0.094288	-0.741455	0.196289	-0.242188	-44.912361	12.371792	117.995914
64690		-2.464329	-7.148396	6.723700	0.361793	0.003882	0.050193	-0.737549	0.200684	-0.236816	-44.697890	12.392751	118.019129
64691		-2.306227	-6.870838	6.788177	0.323380	-0.005001	0.036542	-0.749512	0.198730	-0.240967	-44.506105	12.405682	118.040161
64692		-2.273156	-6.832162	6.959871	0.263856	-0.010632	0.024985	-0.741455	0.195068	-0.243164	-44.348696	12.410443	118.058919
64693		-2.224401	-7.064848	6.497684	0.263778	-0.043561	0.022648	-0.748291	0.202393	-0.245117	-44.188906	12.401878	118.089973
64694		-2.135599	-6.996301	6.528967	0.325019	-0.069489	0.049715	-0.739258	0.193848	-0.249512	-43.989056	12.392167	118.143203
64695		-2.198476	-6.845437	6.691691	0.377423	-0.084332	0.069236	-0.739502	0.190674	-0.249512	-43.756418	12.385049	118.210453
64696		-2.223160	-6.602932	7.004354	0.367920	-0.084822	0.066815	-0.746582	0.188721	-0.256104	-43.529133	12.375338	118.277067
64697		-2.239405	-6.593264	7.028030	0.339475	-0.082926	0.063361	-0.746094	0.194580	-0.253418	-43.318934	12.365976	118.341174
64698		-2.311373	-6.494997	7.113477	0.304392	-0.083974	0.051557	-0.744629	0.188965	-0.257080	-43.129559	12.350157	118.400845
64699		-2.198877	-6.514912	7.074388	0.267960	-0.077372	0.039447	-0.739502	0.186035	-0.251709	-42.963041	12.333356	118.452401
64700		-2.154531	-6.464682	7.047108	0.248856	-0.083145	0.040263	-0.751465	0.181396	-0.257568	-42.806650	12.313137	118.506784
64701		-2.162313	-6.442708	7.161025	0.222083	-0.082022	0.042093	-0.747803	0.183594	-0.259033	-42.665829	12.295132	118.561226
64702		-2.193875	-6.495904	7.150762	0.186454	-0.079379	0.045128	-0.738525	0.188477	-0.254883	-42.545120	12.278129	118.616104
64703		-2.177732	-6.499232	7.190570	0.157932	-0.073944	0.048411	-0.735596	0.187744	-0.258057	-42.441195	12.265755	118.669992
64704		-2.177438	-6.452144	7.223911	0.127346	-0.059333	0.054489	-0.748291	0.180908	-0.259766	-42.355211	12.260656	118.720930
64705		-2.192453	-6.460840	7.206791	0.092216	-0.045088	0.055484	-0.743408	0.178711	-0.256348	-42.290717	12.263075	118.766451
64706		-2.195521	-6.382417	7.257856	0.067312	-0.027072	0.051855	-0.748291	0.187988	-0.256348	-42.242075	12.270526	118.803513
64707		-2.189848	-6.451298	7.168390	0.047866	-0.010274	0.046896	-0.744629	0.183594	-0.259033	-42.206679	12.284331	118.831595
64708		-2.190046	-6.449129	7.146425	0.021456	0.007238	0.044882	-0.738770	0.185791	-0.260742	-42.187814	12.303618	118.852126
64709		-2.170968	-6.503261	7.079104	0.012931	0.012174	0.045903	-0.746094	0.188721	-0.254883	-42.174386	12.326550	118.870952
64710		-2.197838	-6.610937	6.935950	0.023383	0.011102	0.041490	-0.743896	0.183594	-0.256836	-42.155039	12.346162	118.888502
64711		-2.185210	-6.519817	6.983874	0.037733	0.003604	0.042480	-0.751465	0.188965	-0.262939	-42.126988	12.364123	118.909228
64712		-2.190608	-6.514422	7.011019	0.052675	-0.000632	0.038417	-0.745361	0.184570	-0.260254	-42.090140	12.377549	118.930077
64713		-2.187907	-6.476422	6.989096	0.066992	-0.015252	0.028274	-0.742676	0.182617	-0.255859	-42.045054	12.382008	118.952051
64714		-2.148079	-6.414731	7.117962	0.064885	-0.019019	0.034916	-0.747559	0.187500	-0.254395	-41.999979	12.386236	118.978616
64715		-2.210133	-6.480957	7.021573	0.064189	-0.021088	0.031699	-0.729736	0.178955	-0.260010	-41.955684	12.389486	119.004378
64716		-2.262941	-6.490118	7.021970	0.080656	-0.025970	0.035918	-0.740723	0.183350	-0.260010	-41.900891	12.391091	119.034114
64717		-2.211695	-6.432190	7.055613	0.098662	-0.033939	0.032152	-0.739990	0.185303	-0.256836	-41.835724	12.388984	119.065108
64718		-2.177949	-6.495602	7.046745	0.117891	-0.037667	0.038048	-0.742676	0.192383	-0.261230	-41.758416	12.386340	119.100352
64719		-2.234483	-6.427865	7.119457	0.121155	-0.042602	0.044962	-0.737305	0.178223	-0.261719	-41.678441	12.385331	119.140326
64720		-2.183612	-6.438288	7.134389	0.105912	-0.045328	0.042798	-0.747070	0.180664	-0.267090	-41.606915	12.381122	119.180630
64721		-2.201526	-6.446226	7.141220	0.104894	-0.038926	0.047310	-0.733643	0.183594	-0.268555	-41.536347	12.382480	119.220197
64722		-2.200071	-6.403359	7.146680	0.100910	-0.041844	0.052190	-0.737305	0.182617	-0.260010	-41.467094	12.383236	119.263262
64723		-2.185107	-6.377178	7.178862	0.092899	-0.042962	0.058455	-0.742676	0.182861	-0.270020	-41.402010	12.386992	119.309297
64724		-2.214264	-6.407081	7.111309	0.087404	-0.046370	0.064946	-0.746582	0.182861	-0.267334	-41.338909	12.390536	119.359735
64725		-2.178114	-6.402569	7.097565	0.086556	-0.062416	0.077218	-0.736816	0.178467	-0.259766	-41.274062	12.392914	119.421579
64726		-2.165095	-6.411188	7.131478	0.078455	-0.072823	0.093814	-0.743652	0.176514	-0.259033	-41.211154	12.395855	119.494990
64727		-2.138880	-6.293866	7.255808	0.065715	-0.070576	0.104629	-0.740234	0.186768	-0.260010	-41.154964	12.404923	119.572092
64728		-2.104793	-6.397354	7.198580	0.048112	-0.073190	0.120442	-0.737061	0.178711	-0.272949	-41.106858	12.417601	119.657422
64729		-2.137595	-6.393166	7.150744	0.037407	-0.069250	0.147612	-0.742432	0.176270	-0.269775	-41.062857	12.443292	119.753044
64730		-2.160069	-6.476226	7.109514	0.021881	-0.069139	0.168252	-0.741943	0.185059	-0.266113	-41.025475	12.475582	119.858007
64731		-2.148729	-6.454473	7.113072	0.020533	-0.072843	0.199420	-0.747314	0.173096	-0.258545	-40.985759	12.519063	119.978015
64732		-2.215355	-6.423451	7.181723	0.011440	-0.055395	0.222577	-0.738770	0.186279	-0.259033	-40.950100	12.577570	120.101846
64733		-2.209220	-6.257231	7.271495	-0.000720	-0.033126	0.235533	-0.747070	0.192383	-0.261963	-40.922140	12.651654	120.222698
64734		-1.944956	-5.990141	7.598808	-0.035237	-0.012534	0.252680	-0.735596	0.181885	-0.259033	-40.913574	12.739909	120.343525
64735		-1.651332	-6.047441	7.580055	-0.098396	0.039157	0.288314	-0.738770	0.187500	-0.264648	-40.942122	12.865068	120.460092
64736		-1.881815	-6.182516	7.461744	-0.156795	0.103249	0.338039	-0.727295	0.185791	-0.260010	-41.004185	13.035593	120.574209
64737		-1.927289	-6.208655	7.398815	-0.207511	0.156711	0.378676	-0.739746	0.192139	-0.263184	-41.095794	13.245761	120.685347
64738		-1.765652	-6.193173	7.473946	-0.236747	0.211438	0.445946	-0.727539	0.204102	-0.256348	-41.201550	13.503985	120.805051
64739		-1.630518	-6.415310	7.363846	-0.271391	0.286883	0.542598	-0.721191	0.198242	-0.261719	-41.323669	13.832531	120.937677
64740		-1.647179	-6.481882	7.348823	-0.288548	0.384217	0.656302	-0.717041	0.208008	-0.260986	-41.451700	14.245195	121.082351
64741		-1.486080	-6.633475	7.382716	-0.284487	0.524336	0.790909	-0.713379	0.217041	-0.264404	-41.575446	14.770431	121.230884
64742		-1.562539	-6.639957	7.431651	-0.275258	0.684900	0.943398	-0.710205	0.209717	-0.258057	-41.691285	15.421740	121.383212
64743		-1.556060	-6.704692	7.544660	-0.253720	0.860118	1.110849	-0.683838	0.223877	-0.260498	-41.791997	16.213080	121.539535
64744		-1.544632	-6.795008	7.514900	-0.239130	1.044931	1.293804	-0.676758	0.228027	-0.269531	-41.879831	17.152510	121.703183
64745		-1.576176	-6.912994	7.535103	-0.183724	1.272559	1.507272	-0.660400	0.238770	-0.275635	-41.932146	18.271781	121.870459
64746		-1.607750	-7.248625	7.327864	-0.128765	1.501819	1.755249	-0.654297	0.238770	-0.278076	-41.943092	19.582914	122.057376
64747		-1.826161	-7.583882	7.125042	-0.009194	1.727108	2.048386	-0.626953	0.256104	-0.288818	-41.866148	21.102992	122.287925
64748		-1.731615	-7.598483	7.123339	0.154093	1.960557	2.411544	-0.596680	0.260498	-0.283203	-41.660107	22.860091	122.596576
64749		-1.492122	-8.022360	7.211546	0.332534	2.230965	2.847528	-0.572266	0.270264	-0.294434	-41.299622	24.897976	123.011284
64750		-1.738875	-8.361708	7.157819	0.551999	2.565107	3.412168	-0.538574	0.272705	-0.316162	-40.729114	27.288797	123.584067
64751		-2.009781	-8.091712	7.405889	0.758530	2.941505	4.044650	-0.489746	0.279297	-0.330322	-39.920546	30.072725	124.358692
64752		-2.808121	-7.990980	7.756180	0.936838	3.376851	4.644595	-0.443359	0.291748	-0.347168	-38.867935	33.255673	125.336492
64753		-4.964338	-8.095105	8.666899	1.057276	3.853100	5.161678	-0.392334	0.292236	-0.352539	-37.586183	36.819093	126.509529
64754		-8.734771	-8.766606	10.673942	0.986902	4.241028	5.525106	-0.331787	0.294678	-0.371094	-36.152847	40.661223	127.891688
64755		-13.176295	-10.379717	13.993222	0.635547	4.732065	5.637277	-0.260498	0.291016	-0.369385	-34.808088	44.742792	129.333500
64756		-11.655109	-10.065110	12.233979	0.095625	5.040700	5.530544	-0.204590	0.288330	-0.370117	-33.687189	48.912143	130.791277
64757		-10.941025	-10.483022	11.707790	-0.748710	5.312287	5.384804	-0.137939	0.290771	-0.366455	-32.991401	53.149379	132.234616
64758		-9.587071	-10.771922	13.323714	-1.367391	5.420570	5.269556	-0.076660	0.292725	-0.349609	-32.528897	57.393554	133.747350
64759		-6.967439	-11.517137	12.742442	-1.552359	5.399852	5.240218	-0.007324	0.288574	-0.336182	-31.898135	61.610208	135.508605
64760		-4.884010	-10.057128	11.097270	-1.633775	5.146622	5.273412	0.053955	0.277100	-0.305420	-30.704726	65.698575	137.881357
64761		-2.906646	-6.473945	9.253133	-1.973397	5.027244	5.325390	0.112549	0.285156	-0.273926	-28.855775	69.712894	141.098084
64762		-5.200814	-4.825280	12.835110	-2.626045	4.443434	5.385479	0.160889	0.278564	-0.254150	-25.613820	73.389941	146.097238
64763		-4.946487	-3.820778	14.124524	-3.193504	3.016873	5.205536	0.206787	0.260254	-0.217285	-19.771449	76.138244	154.044308
64764		-13.974831	-10.467383	22.408193	-4.035951	-0.110798	4.667724	0.239990	0.251953	-0.191406	-11.277073	76.793202	165.155874
64765		-8.071696	-20.054863	18.777371	-4.371062	-2.379432	3.145813	0.240967	0.265869	-0.182373	-5.663310	75.702883	173.511140
64766		-3.834519	-19.820184	13.468060	-3.754008	-3.807295	1.990363	0.225830	0.270264	-0.184082	-3.053701	73.609503	178.444622
64767		-0.503989	-16.866300	7.482699	-2.960070	-4.390016	0.989593	0.227051	0.279053	-0.188232	-2.579405	71.119430	-179.279333
64768		1.188142	-14.281028	3.725303	-2.221890	-4.519552	0.163813	0.200684	0.276611	-0.181641	-3.231777	68.534794	-178.620374
64769		2.202873	-12.273077	1.657800	-1.622524	-4.334886	-0.538267	0.167480	0.295410	-0.202881	-4.498543	66.030476	-178.985987
64770		2.812973	-11.076316	0.151454	-1.180260	-3.948083	-1.169581	0.154053	0.312256	-0.209229	-6.143030	63.712791	179.942449
64771		3.136358	-10.484508	-0.706233	-0.736808	-3.433715	-1.685741	0.123779	0.315186	-0.215332	-7.955517	61.635936	178.378010
64772		3.268788	-9.821655	-1.183161	-0.313535	-2.863757	-2.137656	0.090820	0.332764	-0.217773	-9.834812	59.822264	176.427367
64773		3.172228	-8.775937	-0.968347	-0.037669	-2.322547	-2.538345	0.063721	0.333740	-0.224854	-11.822482	58.235828	174.135330
64774		2.807559	-7.750669	-0.194119	-0.015353	-1.827566	-2.913467	0.034424	0.345215	-0.231934	-14.014669	56.838915	171.545295
64775		2.118370	-7.219260	1.056343	-0.244145	-1.405664	-3.297587	0.010010	0.366699	-0.228516	-16.562025	55.557242	168.649491
64776		1.200739	-7.366219	2.525784	-0.598523	-1.100238	-3.705901	-0.026855	0.380615	-0.214355	-19.496893	54.297678	165.480328
64777		0.353470	-7.930343	4.062893	-0.932348	-0.921960	-4.114616	-0.064697	0.392578	-0.209473	-22.759849	52.947971	162.092980
64778		-0.502894	-8.673948	5.510418	-1.171274	-0.846558	-4.509126	-0.092285	0.402344	-0.201416	-26.196631	51.433269	158.590427
64779		-1.454104	-9.452814	6.952460	-1.260300	-0.853940	-4.872434	-0.133789	0.434326	-0.177002	-29.640508	49.685946	155.068439
64780		-2.456433	-10.012680	8.222042	-1.177782	-0.935968	-5.169053	-0.177490	0.450684	-0.160889	-32.873993	47.688270	151.660184
64781		-3.429596	-10.118972	9.373038	-0.966257	-1.094076	-5.390010	-0.215820	0.466309	-0.152344	-35.748344	45.421264	148.466223
64782		-4.420446	-9.791288	10.398278	-0.724889	-1.325522	-5.518602	-0.268066	0.480225	-0.144775	-38.169236	42.911267	145.585747
64783		-5.345609	-9.289202	11.257232	-0.544794	-1.624929	-5.575143	-0.319824	0.493652	-0.121826	-40.154335	40.163457	143.065089
64784		-5.874165	-8.573836	11.832087	-0.458113	-1.965558	-5.574376	-0.379639	0.497559	-0.102295	-41.752769	37.217950	140.925418
64785		-6.342047	-8.340072	12.255286	-0.487362	-2.296091	-5.521996	-0.445068	0.494385	-0.076660	-43.070459	34.104028	139.145906
64786		-6.740010	-8.515718	12.410785	-0.564861	-2.616059	-5.434279	-0.505615	0.490723	-0.052246	-44.166690	30.869814	137.704194
64787		-6.843371	-9.052660	12.512633	-0.637259	-2.886948	-5.337734	-0.548340	0.477051	-0.020508	-45.097358	27.535378	136.546164
64788		-6.925555	-9.944841	12.625860	-0.664464	-3.094187	-5.235094	-0.588379	0.461182	0.014404	-45.880409	24.152641	135.618840
64789		-7.074744	-11.276726	12.855458	-0.632433	-3.227962	-5.130004	-0.626709	0.450684	0.039307	-46.530152	20.742346	134.866525
64790		-7.562262	-12.933868	13.236685	-0.581931	-3.325782	-5.053507	-0.664063	0.435547	0.057861	-47.064837	17.326473	134.243256
64791		-8.214085	-15.372305	13.842978	-0.490713	-3.376653	-5.089107	-0.704590	0.426758	0.066162	-47.499992	13.863135	133.669696
64792		-9.400131	-17.995393	14.254726	-0.285584	-3.396326	-5.228903	-0.767822	0.398438	0.087402	-47.785143	10.337450	133.080010
64793		-11.210721	-19.186950	14.639710	-0.001418	-3.389867	-5.447321	-0.828857	0.375488	0.116943	-47.883087	6.711878	132.421652
64794		-13.703666	-19.323838	14.556199	0.210800	-3.376880	-5.673763	-0.906494	0.317139	0.151123	-47.823225	3.002572	131.676094
64795		-17.129479	-18.253235	14.017204	0.375307	-3.348039	-5.809135	-0.959229	0.240479	0.195801	-47.623432	-0.758522	130.860830
64796		-20.544668	-15.410515	12.334308	0.456010	-3.330355	-5.735038	-0.995605	0.134766	0.249512	-47.322814	-4.470680	130.049155
64797		-23.056568	-11.088801	9.537381	0.396648	-3.280842	-5.378669	-0.981201	0.038574	0.296631	-47.016758	-8.015605	129.333010
64798		-23.924773	-6.029162	6.074959	0.119870	-3.102879	-4.783784	-0.968262	-0.040283	0.332764	-46.849352	-11.232751	128.755995
64799		-23.030161	-0.510796	2.164402	-0.402631	-2.750030	-4.061680	-0.939453	-0.113770	0.367432	-46.981846	-14.014199	128.310856
64800		-22.123075	3.870644	-0.038478	-1.139897	-2.111953	-3.377401	-0.910156	-0.150879	0.371094	-47.518930	-16.257306	127.874663
64801		-23.298014	4.454583	-0.512347	-1.741942	-1.419261	-2.666342	-0.881592	-0.187012	0.380371	-48.388320	-17.940567	127.440596
64802		-25.279505	2.952536	-0.413480	-1.779888	-0.833137	-1.884897	-0.860840	-0.216064	0.387451	-49.289639	-19.068420	127.074122
64803		-27.552167	1.530327	0.365609	-1.319589	-0.396802	-1.096695	-0.831787	-0.218018	0.369873	-49.963727	-19.697183	126.830794
64804		-28.520226	1.319047	0.910230	-0.689557	-0.127161	-0.404972	-0.816895	-0.238525	0.371582	-50.324604	-19.922522	126.736340
64805		-21.030625	2.979548	-0.207663	-0.276474	0.024300	0.254353	-0.796387	-0.235596	0.382568	-50.512907	-19.802519	126.828060
64806		-16.683578	-1.290582	-4.526084	0.804431	2.582883	2.277524	-0.788086	-0.226807	0.363525	-49.947863	-17.853359	126.512381
64807		-4.985325	-2.822408	2.124849	2.091988	2.887392	2.303293	-0.769531	-0.230713	0.362549	-48.630319	-15.774267	126.105757
64808		10.140185	-2.627554	7.958322	1.353333	2.619217	2.356538	-0.760742	-0.218262	0.342285	-47.795846	-13.768181	125.883049
64809		0.811325	-6.640873	8.222832	0.031686	2.533091	2.539722	-0.748047	-0.209473	0.337646	-47.755412	-11.715684	125.787768
64810		-4.605476	-3.833349	10.467228	-0.222103	2.868428	2.435232	-0.734131	-0.212158	0.330811	-47.828573	-9.578728	125.506864
64811		-4.149333	-3.403382	12.802978	-0.667107	3.328696	2.292476	-0.700195	-0.208008	0.323486	-48.130054	-7.326428	124.967239
64812		-7.184497	-8.216214	18.556092	-0.920899	3.268100	2.519486	-0.699219	-0.200928	0.315918	-48.608386	-5.004153	124.528042
64813		-7.126838	-5.857861	18.136299	-0.740504	2.902965	2.873024	-0.681152	-0.197510	0.302490	-49.019790	-2.669733	124.363700
64814		-6.047373	-11.406917	13.158382	-1.260518	2.599513	2.743147	-0.665527	-0.188477	0.300293	-49.737033	-0.507661	124.260339
64815		-4.128414	-15.608846	9.319964	-1.001035	2.449998	2.473603	-0.654541	-0.175049	0.299072	-50.309697	1.481121	124.099006
64816		-3.541249	-13.044878	7.153324	-0.696360	2.483365	2.236780	-0.642578	-0.170410	0.287109	-50.718361	3.374503	123.819481
64817		-3.923875	-12.534515	7.699335	-0.489175	2.443650	1.971614	-0.626221	-0.182373	0.293945	-51.024016	5.135500	123.449010
64818		-6.446514	-16.823650	11.191876	0.307398	2.470242	1.792195	-0.625000	-0.170654	0.278809	-50.892666	6.824086	122.998002
64819		-10.716922	-22.430876	11.755082	1.612406	1.977047	1.064989	-0.625244	-0.173340	0.264160	-50.029489	8.017101	122.512513
64820		-3.990684	-6.299779	9.309804	1.481597	1.130315	0.390676	-0.613525	-0.170898	0.262695	-49.228718	8.606561	122.164346
64821		-1.990731	-6.066975	8.569630	1.078146	0.910693	0.392431	-0.615723	-0.168945	0.254883	-48.646816	9.120372	121.919314
64822		-3.273133	-8.924412	6.447633	0.854582	0.668195	0.286082	-0.613525	-0.168701	0.256592	-48.183442	9.496438	121.743319
64823		-2.405193	-7.114445	7.433391	0.710931	0.456296	0.182389	-0.610352	-0.172363	0.247070	-47.794622	9.750583	121.620900
64824		-2.227321	-7.191518	7.105463	0.546468	0.329528	0.153259	-0.606445	-0.172363	0.248779	-47.492592	9.941983	121.543275
64825		-2.273468	-7.465468	6.824153	0.432235	0.222350	0.110732	-0.607422	-0.161865	0.252930	-47.251279	10.076465	121.495398
64826		-2.002743	-6.810221	7.187264	0.334401	0.160527	0.081390	-0.604248	-0.165283	0.257080	-47.063170	10.172471	121.463037
64827		-2.064702	-7.130162	6.795137	0.244205	0.111240	0.069108	-0.606201	-0.172363	0.242188	-46.924131	10.246425	121.446799
64828		-1.947372	-6.931708	6.848245	0.196860	0.086615	0.057175	-0.607178	-0.165771	0.245361	-46.810943	10.303513	121.436685
64829		-2.011807	-7.101690	6.750454	0.151498	0.069261	0.048722	-0.603027	-0.166260	0.245361	-46.723257	10.352564	121.430412
64830		-1.941267	-6.923282	6.769664	0.114923	0.055342	0.032488	-0.601074	-0.164551	0.247559	-46.656389	10.387100	121.423867
64831		-1.855915	-6.967192	6.657463	0.103450	0.047729	0.023801	-0.606201	-0.160156	0.251221	-46.596366	10.417330	121.416860
64832		-1.857969	-6.924255	6.640920	0.110153	0.055168	0.030611	-0.604492	-0.160889	0.248047	-46.532348	10.451030	121.409712
64833		-1.860469	-6.880656	6.624889	0.122255	0.053261	0.032655	-0.602051	-0.162109	0.247803	-46.461324	10.487147	121.403984
64834		-1.795693	-6.739557	6.714992	0.139598	0.066389	0.046407	-0.611572	-0.161133	0.244141	-46.380136	10.531853	121.398528
64835		-1.743333	-6.809901	6.505520	0.181089	0.075677	0.065921	-0.601318	-0.167725	0.241943	-46.274662	10.590650	121.396843
64836		-1.643750	-6.862938	6.353781	0.287360	0.085218	0.099230	-0.596436	-0.164307	0.238281	-46.106319	10.664686	121.404964
64837		-1.734004	-6.804477	6.518586	0.398333	0.090024	0.142344	-0.603516	-0.163086	0.251709	-45.871683	10.760693	121.428562
64838		-1.805264	-6.990508	6.392390	0.491620	0.076682	0.187855	-0.606934	-0.162354	0.240723	-45.578726	10.867605	121.476955
64839		-1.944518	-7.087323	6.564321	0.553376	0.057865	0.214073	-0.602051	-0.167725	0.244873	-45.246892	10.979709	121.544274
64840		-2.093584	-6.819154	6.962862	0.547006	0.027722	0.210107	-0.596680	-0.161133	0.245361	-44.916159	11.075301	121.623331
64841		-2.123847	-6.794208	6.948059	0.501164	0.011952	0.198261	-0.604248	-0.158691	0.241699	-44.611387	11.161602	121.704280
64842		-2.085738	-6.708491	7.032640	0.456501	0.011205	0.176673	-0.593506	-0.171631	0.238770	-44.333462	11.236191	121.777239
64843		-2.228223	-6.752686	7.126120	0.399117	0.000771	0.156578	-0.599121	-0.158691	0.240479	-44.089290	11.300491	121.846155
64844		-2.158241	-6.694004	7.034181	0.349258	-0.011832	0.130402	-0.595947	-0.155029	0.239502	-43.874505	11.346557	121.909687
64845		-2.075763	-6.761450	6.917218	0.322271	-0.012429	0.114645	-0.598877	-0.162842	0.236084	-43.676570	11.388277	121.966751
64846		-2.023036	-6.655068	6.917095	0.309172	-0.020649	0.110929	-0.599609	-0.158691	0.234131	-43.485524	11.422555	122.025936
64847		-1.995468	-6.668214	6.916966	0.320268	-0.029312	0.121014	-0.595947	-0.162109	0.242920	-43.286727	11.459380	122.092772
64848		-2.097208	-6.686844	7.031616	0.321637	-0.051335	0.132732	-0.599365	-0.158203	0.240479	-43.084127	11.488985	122.173784
64849		-2.153228	-6.605289	7.097939	0.306826	-0.059987	0.137182	-0.602295	-0.164795	0.237549	-42.889089	11.518820	122.260023
64850		-2.083537	-6.517726	7.121714	0.280354	-0.071584	0.131656	-0.612305	-0.159424	0.236816	-42.708508	11.538957	122.348835
64851		-2.156098	-6.561442	7.065231	0.267968	-0.073011	0.127925	-0.597412	-0.163330	0.239014	-42.535384	11.559184	122.436442
64852		-2.089650	-6.474445	7.159302	0.248900	-0.069006	0.115761	-0.600342	-0.158447	0.236572	-42.374321	11.573741	122.517511
64853		-2.109343	-6.435687	7.198770	0.225908	-0.067943	0.108506	-0.597168	-0.157471	0.231201	-42.227305	11.588158	122.594836
64854		-2.113588	-6.452510	7.215151	0.200348	-0.077583	0.101551	-0.597168	-0.151611	0.230957	-42.094570	11.593200	122.673194
64855		-2.128359	-6.418965	7.203215	0.185809	-0.081623	0.091473	-0.600098	-0.153076	0.234863	-41.970899	11.594917	122.748540
64856		-2.123988	-6.370468	7.191074	0.180087	-0.083730	0.091320	-0.594482	-0.156982	0.235840	-41.850176	11.593087	122.824869
64857		-2.109364	-6.409552	7.183106	0.181576	-0.083232	0.089621	-0.590088	-0.154053	0.232422	-41.728958	11.593109	122.900035
64858		-2.108851	-6.358491	7.243403	0.170218	-0.082801	0.081150	-0.591797	-0.158203	0.240479	-41.614862	11.587491	122.971550
64859		-2.086773	-6.294218	7.254782	0.170469	-0.079293	0.085837	-0.591553	-0.153809	0.235596	-41.500648	11.587477	123.043522
64860		-2.069352	-6.263028	7.291765	0.171772	-0.073940	0.085599	-0.590088	-0.154053	0.243164	-41.385967	11.587073	123.113534
64861		-2.177999	-6.271839	7.348296	0.178084	-0.073309	0.083992	-0.585205	-0.155273	0.241211	-41.268005	11.588660	123.182379
64862		-2.074001	-6.340625	7.248882	0.182485	-0.067121	0.075640	-0.598877	-0.153076	0.240234	-41.148594	11.587154	123.245378
64863		-2.074996	-6.399590	7.168044	0.188442	-0.061457	0.081956	-0.593750	-0.146484	0.252441	-41.025779	11.592823	123.308770
64864		-2.113347	-6.453167	7.134088	0.182845	-0.063683	0.076987	-0.589111	-0.157227	0.239258	-40.906303	11.593050	123.371040
64865		-2.078655	-6.367363	7.242527	0.172595	-0.062424	0.079946	-0.597656	-0.150879	0.241699	-40.792670	11.597299	123.433924
64866		-2.082611	-6.425655	7.209254	0.149559	-0.066004	0.078035	-0.593750	-0.156250	0.236328	-40.691989	11.596672	123.497547
64867		-1.974643	-6.391500	7.174835	0.128446	-0.066606	0.092310	-0.591064	-0.151855	0.234375	-40.602224	11.603507	123.567518
64868		-1.967784	-6.429528	7.260528	0.102738	-0.068399	0.117952	-0.591309	-0.148926	0.230713	-40.524603	11.616516	123.649789
64869		-1.950626	-6.369127	7.289685	0.070135	-0.069224	0.148340	-0.592041	-0.145264	0.232422	-40.462988	11.642875	123.745698
64870		-1.961049	-6.356724	7.390879	0.009824	-0.065309	0.181412	-0.588867	-0.155273	0.234375	-40.433047	11.680657	123.855091
64871		-1.907909	-6.429648	7.398158	-0.063254	-0.049008	0.231654	-0.592285	-0.154297	0.238770	-40.441731	11.746700	123.980486
64872		-1.884364	-6.401376	7.391969	-0.147880	-0.028039	0.297716	-0.588623	-0.147217	0.233154	-40.494198	11.844014	124.127550
64873		-2.011399	-6.356538	7.517717	-0.254086	0.017467	0.357513	-0.587158	-0.138916	0.239990	-40.605452	11.986110	124.283606
64874		-1.604095	-6.289394	7.635459	-0.373564	0.073155	0.423000	-0.583740	-0.149414	0.243408	-40.783004	12.174756	124.447428
64875		-0.917989	-5.933398	7.816589	-0.510904	0.144844	0.563322	-0.585938	-0.143799	0.234619	-41.031440	12.450159	124.645132
64876		-1.454419	-6.183548	7.595607	-0.626454	0.213748	0.729211	-0.586426	-0.140869	0.237793	-41.334924	12.816317	124.888604
64877		-1.491721	-6.224551	7.600960	-0.703373	0.338736	0.818846	-0.581543	-0.138428	0.236572	-41.683307	13.273885	125.120912
64878		-1.092124	-6.102787	7.667952	-0.773908	0.507771	0.908379	-0.583984	-0.133545	0.238770	-42.077012	13.836863	125.323635
64879		-1.048509	-6.508014	7.484924	-0.815642	0.709933	1.037324	-0.572021	-0.134521	0.237549	-42.499224	14.538955	125.498597
64880		-0.992987	-7.057594	7.325371	-0.775992	0.975041	1.212872	-0.574707	-0.127197	0.232910	-42.905357	15.419768	125.638986
64881		-1.135453	-7.293855	7.096922	-0.651081	1.277185	1.424976	-0.559326	-0.128418	0.228516	-43.247472	16.513109	125.743268
64882		-1.382665	-7.660734	7.086636	-0.504650	1.553460	1.674295	-0.553955	-0.120361	0.225586	-43.506693	17.817916	125.837239
64883		-1.327604	-7.811201	6.946200	-0.247754	1.861838	1.981070	-0.560791	-0.109131	0.207031	-43.615795	19.374248	125.933307
64884		-1.585354	-8.208583	7.016303	0.001508	2.162185	2.320614	-0.544678	-0.105469	0.205811	-43.571131	21.187332	126.053308
64885		-1.756013	-8.729416	6.632133	0.293148	2.443925	2.741463	-0.537354	-0.098633	0.190918	-43.326973	23.285060	126.248850
64886		-1.932758	-8.627515	6.740002	0.580318	2.721322	3.262500	-0.521973	-0.090820	0.183838	-42.853838	25.699712	126.582584
64887		-1.762944	-8.905971	6.970874	0.849497	3.048727	3.867204	-0.499268	-0.071533	0.178223	-42.130871	28.485148	127.096363
64888		-2.467477	-8.971866	7.578897	1.055068	3.486861	4.510060	-0.486084	-0.066650	0.160645	-41.172268	31.694231	127.797637
64889		-4.975761	-10.095763	8.811414	1.217310	3.952806	5.136170	-0.463623	-0.058594	0.142822	-39.965140	35.328858	128.716172
64890		-9.538450	-10.255285	11.200900	1.162533	4.363394	5.582939	-0.444580	-0.042969	0.127197	-38.613240	39.288251	129.842897
64891		-15.265283	-11.491581	14.885569	0.504508	4.485359	5.638973	-0.409912	-0.031006	0.110352	-37.474841	43.303399	131.125800
64892		-13.242381	-13.133439	12.065147	-0.375911	4.594940	5.381549	-0.383789	-0.020264	0.096924	-36.807020	47.262558	132.364979
64893		-10.625682	-13.116221	15.321871	-1.145588	4.583418	5.144640	-0.350342	-0.010254	0.082031	-36.535588	51.129186	133.587641
64894		-7.019895	-12.491213	12.965554	-1.243888	4.705184	5.131371	-0.331787	0.002686	0.080811	-36.218418	55.042209	134.872561
64895		-3.794824	-12.116795	12.390576	-1.164084	4.549647	5.152570	-0.291260	0.013672	0.057861	-35.549802	58.883923	136.462747
64896		-1.660371	-10.012635	9.050521	-1.161921	4.425792	5.172033	-0.250977	0.022217	0.059814	-34.468524	62.659972	138.461269
64897		0.366684	-8.797288	8.477905	-1.094261	3.993382	5.303424	-0.213867	0.021729	0.053955	-32.420397	66.242907	141.422848
64898		-1.790362	-8.419379	8.450753	-0.898877	3.522237	5.208355	-0.179443	0.020508	0.044678	-29.158581	69.504274	145.495855
64899		-10.706373	-12.712614	16.792589	-1.143767	1.702388	4.564106	-0.146240	0.017578	0.039063	-24.444857	71.553319	151.187382
64900		-5.840475	-17.266998	16.912184	-1.594929	-0.291033	2.918855	-0.118652	0.019531	0.031982	-20.451717	72.035993	156.350286
64901		-3.198072	-16.685947	14.596261	-1.940478	-1.736358	1.501923	-0.108887	0.021729	0.023682	-18.107309	71.376070	159.988823
64902		-0.181120	-14.441901	9.191182	-1.830556	-2.583531	0.492578	-0.099854	0.016602	0.017090	-17.097395	70.047717	162.167558
64903		2.298363	-10.898709	5.159683	-1.504186	-2.949096	-0.151664	-0.084229	0.020508	0.011719	-16.875876	68.400503	163.325232
64904		3.023029	-7.867717	2.847953	-1.282703	-2.983711	-0.572127	-0.088867	0.027832	0.000000	-17.149861	66.667286	163.821661
64905		3.140249	-6.481936	1.686465	-1.181090	-2.820651	-0.854436	-0.082275	0.036865	-0.025879	-17.786710	64.972502	163.864947
64906		2.954506	-6.464464	1.224017	-1.079520	-2.573434	-1.048569	-0.076660	0.036133	-0.028076	-18.624226	63.381635	163.619281
64907		2.570372	-6.862314	1.422833	-0.920187	-2.326539	-1.212415	-0.086182	0.041992	-0.040283	-19.578136	61.888130	163.138884
64908		2.135561	-7.435677	1.810734	-0.744861	-2.134977	-1.407626	-0.081787	0.045166	-0.043701	-20.609733	60.459822	162.446087
64909		1.631609	-7.941530	2.537510	-0.598403	-1.987959	-1.645908	-0.089600	0.051270	-0.052246	-21.756531	59.050020	161.515999
64910		1.287270	-8.150718	3.141262	-0.526146	-1.879485	-1.923080	-0.091553	0.055176	-0.069336	-23.037368	57.632216	160.362933
64911		1.083401	-8.280782	3.646894	-0.552924	-1.789442	-2.226223	-0.098389	0.064697	-0.083252	-24.512915	56.172165	158.980815
64912		0.867558	-8.422473	4.110776	-0.632596	-1.711637	-2.545818	-0.113037	0.072021	-0.088135	-26.171734	54.659267	157.403732
64913		0.490667	-8.743071	4.759170	-0.750731	-1.644222	-2.872575	-0.116943	0.077393	-0.092529	-28.022856	53.062651	155.645812
64914		-0.075128	-9.122637	5.485119	-0.864260	-1.618043	-3.204139	-0.125488	0.096924	-0.085938	-30.002320	51.359440	153.765181
64915		-0.728951	-9.551404	6.269571	-0.955266	-1.637484	-3.530825	-0.148193	0.100098	-0.095947	-32.064108	49.503548	151.802747
64916		-1.234678	-9.779431	6.886868	-1.020206	-1.690952	-3.855568	-0.169189	0.114502	-0.098877	-34.136082	47.483648	149.814108
64917		-1.737958	-9.913923	7.494069	-1.063301	-1.764724	-4.162419	-0.193848	0.120850	-0.103516	-36.182048	45.273848	147.832189
64918		-2.178916	-9.940113	7.993052	-1.090326	-1.838279	-4.438613	-0.222656	0.124268	-0.105957	-38.148024	42.896512	145.901848
64919		-2.520700	-9.897190	8.455477	-1.096681	-1.916157	-4.667845	-0.250488	0.126953	-0.105225	-40.007529	40.347795	144.051517
64920		-3.041337	-9.959864	9.025951	-1.097387	-1.979648	-4.842171	-0.266846	0.135010	-0.100830	-41.729779	37.673339	142.311621
64921		-3.605645	-9.913648	9.625104	-1.090186	-2.055738	-4.975872	-0.296143	0.129395	-0.105225	-43.312976	34.867287	140.694804
64922		-4.100762	-10.214396	10.233381	-1.082126	-2.137040	-5.053167	-0.325684	0.132813	-0.107422	-44.740785	31.973607	139.224972
64923		-4.640377	-10.592881	10.867015	-1.036071	-2.233238	-5.100863	-0.340332	0.127441	-0.107178	-46.007170	28.983263	137.902149
64924		-5.224529	-11.217367	11.593770	-0.966989	-2.328117	-5.093934	-0.369873	0.130371	-0.108887	-47.097184	25.946154	136.736019
64925		-5.785675	-12.155263	12.340856	-0.876503	-2.430177	-5.060708	-0.407471	0.126221	-0.111816	-48.020963	22.855010	135.718969
64926		-6.491441	-13.326123	13.232712	-0.776226	-2.546110	-5.032055	-0.426758	0.122314	-0.108398	-48.783019	19.729717	134.839747
64927		-7.234355	-14.897444	14.073851	-0.674365	-2.679852	-5.048628	-0.459229	0.117432	-0.111572	-49.409454	16.526224	134.071518
64928		-8.171237	-16.894290	14.830511	-0.559350	-2.821598	-5.136734	-0.500244	0.113770	-0.109863	-49.905690	13.235855	133.379241
64929		-9.582738	-18.857222	15.233785	-0.386413	-2.939336	-5.304896	-0.533936	0.093750	-0.112305	-50.261259	9.812281	132.711007
64930		-11.473929	-19.191648	15.389035	-0.240017	-2.978300	-5.559949	-0.565430	0.070557	-0.118896	-50.497401	6.269698	131.990917
64931		-14.516288	-19.347203	15.409056	-0.157772	-3.014139	-5.829801	-0.593994	0.050781	-0.111328	-50.648771	2.581570	131.205446
64932		-18.465331	-18.752416	14.704103	-0.031960	-3.039343	-5.998400	-0.629883	0.041992	-0.120850	-50.675012	-1.180970	130.377694
64933		-21.913994	-16.135722	12.508982	0.133124	-3.068094	-5.973961	-0.668701	0.020264	-0.113037	-50.555384	-4.951855	129.567820
64934		-23.813697	-11.910704	8.975204	0.237992	-3.035986	-5.668564	-0.700684	-0.000244	-0.106201	-50.331034	-8.564262	128.839556
64935		-24.081561	-6.801958	4.376195	0.201071	-2.885229	-5.070445	-0.734619	-0.031006	-0.097412	-50.110404	-11.862482	128.246315
64936		-23.234713	-0.376059	0.156058	-0.131416	-2.470213	-4.294581	-0.756104	-0.041016	-0.090332	-50.068208	-14.658497	127.743777
64937		-23.423900	3.979438	-2.130966	-0.788069	-1.867065	-3.430474	-0.785400	-0.066650	-0.083252	-50.398063	-16.859307	127.296488
64938		-23.825442	5.889269	-2.942932	-1.455130	-1.231417	-2.516965	-0.792969	-0.073486	-0.072021	-51.114526	-18.422993	126.916661
64939		-25.335331	5.015027	-2.323671	-1.896491	-0.632784	-1.670155	-0.802734	-0.077881	-0.064697	-52.096048	-19.401906	126.593542
64940		-26.756950	2.768017	-0.708966	-1.919610	-0.177969	-0.936789	-0.810791	-0.077881	-0.078125	-53.107656	-19.890594	126.337587
64941		-27.151976	0.904064	0.622625	-1.634073	0.158567	-0.395350	-0.805176	-0.072754	-0.066895	-53.969627	-20.020300	126.121318
64942		-25.359420	-0.414619	0.761817	-1.101974	0.474270	0.055007	-0.814453	-0.067627	-0.073486	-54.526962	-19.836200	125.910513
64943		-7.762000	-3.898457	-1.721793	0.045550	1.476381	1.240199	-0.804932	-0.057861	-0.088867	-54.405418	-18.765515	125.623239
64944		-11.956431	-4.128400	-0.236837	2.162956	3.935753	2.662315	-0.786621	-0.044434	-0.105957	-52.877726	-16.200500	124.671586
64945		5.494688	-3.509822	2.841244	2.431488	2.977119	2.473020	-0.762939	-0.032959	-0.135254	-51.356744	-14.033230	124.182604
64946		11.654298	-8.199726	8.014752	1.976856	3.181161	2.748686	-0.747314	-0.029297	-0.164795	-50.128023	-11.660899	123.761291
64947		-3.942580	-4.244730	11.168657	1.106765	3.059264	2.827886	-0.729492	-0.008057	-0.176514	-49.440329	-9.291143	123.468066
64948		-6.913871	-2.167785	12.631920	0.162737	3.311976	2.290218	-0.708984	0.006104	-0.194824	-49.261386	-7.059963	122.881082
64949		-4.417374	-3.644702	14.081765	-0.154541	3.508083	2.270526	-0.685059	0.006836	-0.214355	-49.279750	-4.761259	122.207011
64950		-8.690499	-5.565761	23.864676	0.271632	3.457772	3.057873	-0.653809	0.025635	-0.240723	-49.100744	-2.140973	121.855834
64951		-11.698199	-5.112105	25.937510	-0.315597	2.621722	3.114163	-0.645264	0.040771	-0.246582	-49.280325	0.193320	121.888755
64952		-7.231950	-12.730043	16.401964	-0.887649	1.884817	2.807672	-0.619873	0.062500	-0.251709	-49.782192	2.117470	122.115213
64953		-3.670901	-16.042875	8.988066	-0.367869	1.551012	2.614777	-0.598877	0.078125	-0.260498	-49.975073	3.838775	122.405342
64954		-3.017724	-15.680857	4.805324	0.020453	1.622606	2.291449	-0.579834	0.083496	-0.264404	-49.950060	5.441483	122.542476
64955		-4.790098	-24.757604	8.624446	1.207351	2.065727	1.711631	-0.563232	0.092041	-0.283447	-49.284384	6.958561	122.278545
64956		-10.509604	-14.745648	6.541066	2.252998	1.219451	0.782682	-0.558105	0.078125	-0.294189	-48.020261	7.756147	122.052313
64957		-0.737234	-1.544648	10.846817	1.717694	0.840351	0.548703	-0.549072	0.066895	-0.305664	-47.054084	8.316729	121.911556
64958		-3.456244	-9.416823	6.808827	1.439519	0.756844	0.627732	-0.544434	0.072998	-0.320557	-46.236849	8.875177	121.846294
64959		-3.779471	-8.356949	7.639418	1.195511	0.423039	0.327236	-0.534424	0.057129	-0.315430	-45.556286	9.182062	121.805844
64960		-1.913503	-5.310987	8.792364	0.792522	0.326348	0.206455	-0.530273	0.053467	-0.325439	-45.107525	9.396785	121.759257
64961		-2.353756	-7.469009	7.155492	0.537171	0.270809	0.152228	-0.536621	0.057861	-0.328857	-44.805117	9.571829	121.714358
64962		-1.973790	-7.031137	7.041451	0.456776	0.196570	0.080817	-0.534424	0.051270	-0.330322	-44.548401	9.683577	121.671327
64963		-1.954820	-6.692544	7.266115	0.369578	0.160871	0.065043	-0.529053	0.047363	-0.325439	-44.340523	9.779110	121.636506
64964		-1.761047	-7.172514	6.589390	0.349181	0.125084	0.062852	-0.528320	0.049805	-0.331787	-44.141783	9.854654	121.615830
64965		-1.829300	-6.645095	7.047986	0.343642	0.113250	0.074023	-0.532471	0.042969	-0.336182	-43.944816	9.934411	121.604646
64966		-1.946760	-6.686309	7.036263	0.283881	0.120911	0.055593	-0.529541	0.045410	-0.334717	-43.783695	10.005481	121.583104
64967		-1.759959	-6.588678	6.966073	0.273851	0.134885	0.045079	-0.540039	0.046387	-0.340088	-43.630302	10.082827	121.551492
64968		-1.756267	-6.274788	7.198852	0.251588	0.154132	0.047209	-0.522705	0.041748	-0.346680	-43.490638	10.164491	121.513462
64969		-1.722352	-6.240799	7.263008	0.232154	0.173175	0.067408	-0.524658	0.038330	-0.339355	-43.362192	10.266727	121.476320
64970		-1.916236	-6.702148	7.000808	0.219608	0.162093	0.083464	-0.519287	0.039063	-0.343018	-43.238732	10.366126	121.450830
64971		-1.820563	-6.447332	7.065274	0.231322	0.132172	0.079385	-0.526855	0.036133	-0.337646	-43.106923	10.456096	121.435542
64972		-1.964031	-6.334568	7.262143	0.209333	0.121881	0.072268	-0.527832	0.044189	-0.342285	-42.987304	10.534389	121.421712
64973		-1.835856	-6.361504	7.209686	0.184492	0.105734	0.071787	-0.522461	0.046875	-0.347412	-42.880952	10.610382	121.414040
64974		-1.811580	-6.559278	7.056026	0.186509	0.082352	0.087069	-0.517578	0.042969	-0.342041	-42.770327	10.677880	121.422505
64975		-1.949231	-6.763897	6.990752	0.199387	0.047043	0.111197	-0.512939	0.027588	-0.349609	-42.647939	10.744515	121.455219
64976		-1.995191	-6.780013	7.002409	0.208634	0.000374	0.129002	-0.517578	0.041992	-0.341309	-42.515154	10.793650	121.514340
64977		-2.021194	-6.673256	7.086446	0.212846	-0.028685	0.142916	-0.523926	0.038086	-0.343506	-42.376797	10.840400	121.590817
64978		-2.025315	-6.409446	7.240314	0.210505	-0.034720	0.134722	-0.516113	0.030518	-0.347900	-42.239741	10.876593	121.666442
64979		-1.978681	-6.412942	7.233974	0.196458	-0.035544	0.122783	-0.523926	0.030762	-0.354248	-42.111756	10.912351	121.737126
64980		-1.966334	-6.415670	7.224368	0.185057	-0.036328	0.132190	-0.519287	0.040527	-0.355469	-41.989242	10.946554	121.812466
64981		-2.086435	-6.565600	7.259638	0.172374	-0.059021	0.135736	-0.515869	0.044678	-0.354004	-41.872113	10.976981	121.898086
64982		-2.087104	-6.588108	7.200263	0.159501	-0.085194	0.134517	-0.520264	0.029053	-0.353516	-41.760326	10.990904	121.993610
64983		-2.010206	-6.441239	7.187923	0.156004	-0.106101	0.135026	-0.515869	0.034912	-0.349121	-41.649068	11.000612	122.097318
64984		-2.029053	-6.408399	7.222181	0.144349	-0.105572	0.136246	-0.519287	0.034668	-0.357178	-41.544268	11.006101	122.201553
64985		-2.050700	-6.373923	7.304539	0.140317	-0.102656	0.122893	-0.520508	0.029785	-0.350830	-41.443222	11.012324	122.298651
64986		-2.014462	-6.401303	7.246095	0.136130	-0.091309	0.119048	-0.519287	0.031250	-0.347412	-41.345597	11.017067	122.389873
64987		-1.998113	-6.264089	7.373936	0.130216	-0.083934	0.113679	-0.520508	0.035645	-0.356934	-41.252449	11.027557	122.475731
64988		-2.049538	-6.304340	7.309475	0.126778	-0.074174	0.103393	-0.517822	0.031006	-0.351563	-41.162729	11.033486	122.553509
64989		-2.031837	-6.277287	7.319061	0.118973	-0.074328	0.090121	-0.517090	0.025635	-0.356201	-41.078660	11.039000	122.625350
64990		-1.994124	-6.308401	7.234601	0.121352	-0.071865	0.088397	-0.515137	0.029297	-0.347900	-40.993468	11.040056	122.695660
64991		-2.000038	-6.329628	7.294019	0.120215	-0.073613	0.096541	-0.524658	0.033691	-0.355225	-40.908171	11.048096	122.770067
64992		-1.981498	-6.267283	7.325797	0.117190	-0.069861	0.096284	-0.513672	0.028320	-0.353027	-40.824828	11.052773	122.843098
64993		-1.982346	-6.294042	7.287391	0.112519	-0.061777	0.097462	-0.529297	0.025635	-0.358398	-40.744691	11.066093	122.913417
64994		-2.019021	-6.207600	7.386941	0.103799	-0.055522	0.090490	-0.516357	0.023926	-0.349609	-40.670533	11.074634	122.978442
64995		-2.019425	-6.199700	7.369924	0.099644	-0.044181	0.086668	-0.518799	0.029297	-0.350586	-40.599927	11.091408	123.037321
64996		-1.984345	-6.196140	7.330256	0.095795	-0.037803	0.078164	-0.522949	0.023926	-0.357666	-40.532668	11.102912	123.090179
64997		-2.009071	-6.236820	7.362701	0.085458	-0.031889	0.077716	-0.513672	0.022461	-0.355469	-40.471800	11.121588	123.140462
64998		-2.034071	-6.315718	7.347582	0.070809	-0.022893	0.072189	-0.512939	0.037598	-0.353027	-40.420424	11.137263	123.185046
64999		-2.001176	-6.350647	7.283354	0.063979	-0.022109	0.073652	-0.515625	0.028564	-0.357422	-40.372884	11.158618	123.229856
65000		-1.986249	-6.328859	7.287541	0.053857	-0.017263	0.084666	-0.520752	0.029541	-0.364258	-40.330520	11.181308	123.277897
65001		-2.011496	-6.336471	7.339615	0.042840	-0.022835	0.087954	-0.520508	0.023193	-0.352539	-40.293763	11.207591	123.329382
65002		-1.966072	-6.352950	7.346405	0.026650	-0.024355	0.117041	-0.515625	0.019287	-0.357910	-40.263607	11.239114	123.394567
65003		-2.018130	-6.220658	7.410575	0.001070	-0.021813	0.131147	-0.515625	0.020996	-0.354492	-40.247032	11.281790	123.464958
65004		-1.958192	-6.260385	7.391689	-0.033876	-0.011401	0.143143	-0.514404	0.024902	-0.357178	-40.250134	11.328607	123.536929
65005		-1.973090	-6.292693	7.439006	-0.074527	0.005392	0.162905	-0.520264	0.026123	-0.361816	-40.275966	11.394952	123.611232
65006		-1.927875	-6.213079	7.455267	-0.114042	0.027762	0.188932	-0.518555	0.031494	-0.353516	-40.323729	11.475913	123.688800
65007		-1.699587	-6.131092	7.551676	-0.176059	0.039596	0.237723	-0.520752	0.028320	-0.354980	-40.403440	11.585076	123.783426
65008		-1.414418	-6.166940	7.604699	-0.266050	0.049954	0.341192	-0.520264	0.036621	-0.355225	-40.526044	11.732547	123.920161
65009		-1.755200	-6.266170	7.449535	-0.342220	0.095219	0.418887	-0.510254	0.036865	-0.348145	-40.688326	11.933806	124.073773
65010		-1.689244	-6.185125	7.594989	-0.435123	0.147138	0.487611	-0.508057	0.045166	-0.357178	-40.901219	12.179011	124.237580
65011		-1.493775	-6.237894	7.553172	-0.521046	0.202009	0.567327	-0.509033	0.048340	-0.349121	-41.159617	12.483323	124.414563
65012		-1.575600	-6.199228	7.485664	-0.590693	0.288769	0.652348	-0.504150	0.042236	-0.355225	-41.456453	12.853214	124.594262
65013		-1.462708	-6.234577	7.599359	-0.674254	0.373989	0.741439	-0.495361	0.055664	-0.352539	-41.798820	13.299160	124.777924
65014		-1.402688	-6.331933	7.412927	-0.743463	0.487237	0.845611	-0.497803	0.057129	-0.349121	-42.179857	13.829708	124.960150
65015		-1.386091	-6.600209	7.272561	-0.763751	0.635427	0.973860	-0.483154	0.067871	-0.339111	-42.571980	14.478261	125.136056
65016		-1.162528	-6.864542	7.267834	-0.744074	0.863464	1.136363	-0.473145	0.065186	-0.342041	-42.957346	15.282524	125.287002
65017		-1.121046	-7.211242	7.179093	-0.662947	1.131131	1.338172	-0.460693	0.081787	-0.341553	-43.300717	16.283094	125.411989
65018		-1.205628	-7.289270	6.984554	-0.544764	1.384690	1.574542	-0.450195	0.081787	-0.346436	-43.576250	17.478485	125.530467
65019		-1.290033	-7.769897	7.147112	-0.353227	1.695009	1.876092	-0.433838	0.101074	-0.346680	-43.739683	18.926428	125.647335
65020		-1.416183	-7.699352	6.902383	-0.129049	2.024072	2.205644	-0.403320	0.094727	-0.341797	-43.770208	20.637107	125.769119
65021		-1.565994	-8.230085	6.654962	0.154566	2.338818	2.589143	-0.387207	0.098633	-0.363037	-43.619487	22.633811	125.931181
65022		-1.805025	-8.253163	6.541246	0.429591	2.633171	3.027475	-0.359131	0.108398	-0.355225	-43.271656	24.921027	126.177819
65023		-2.030594	-8.227043	6.729019	0.652656	2.997002	3.537217	-0.326660	0.099121	-0.363525	-42.740271	27.561766	126.528503
65024		-2.408854	-8.079099	7.030181	0.843454	3.350030	4.132782	-0.286621	0.097900	-0.374023	-41.999095	30.574589	127.054405
65025		-3.699812	-8.445037	7.892454	1.010865	3.759528	4.728344	-0.242920	0.097900	-0.382080	-41.035667	33.985443	127.769104
65026		-6.882099	-10.023357	9.442913	1.162101	4.196715	5.197357	-0.191650	0.091309	-0.386963	-39.853777	37.746050	128.645252
65027		-11.316660	-10.303091	12.149570	1.024255	4.565522	5.343177	-0.149658	0.078369	-0.388428	-38.667128	41.710685	129.579324
65028		-14.191317	-10.997864	13.627423	0.439315	4.677300	5.147535	-0.101807	0.071777	-0.372803	-37.780252	45.639637	130.495215
65029		-12.043397	-11.919271	11.960444	-0.210913	4.669678	4.903453	-0.062500	0.062500	-0.374023	-37.239196	49.474211	131.388684
65030		-9.632624	-12.288914	13.647866	-0.645059	4.735388	4.683984	-0.017822	0.058594	-0.359863	-36.971920	53.255776	132.200902
65031		-7.451333	-11.629032	12.219952	-0.741575	4.768853	4.610489	0.026611	0.051270	-0.346680	-36.706359	57.027106	133.039440
65032		-4.404784	-11.105600	12.099700	-0.871287	4.635164	4.559397	0.062256	0.041748	-0.326172	-36.338093	60.714724	134.049947
65033		-3.862165	-9.257455	9.120585	-1.179641	4.396419	4.609020	0.094482	0.031006	-0.300293	-35.750360	64.304904	135.471604
65034		-1.395140	-8.793685	9.781357	-1.289541	3.905535	4.645825	0.136475	0.022461	-0.293457	-34.480323	67.665548	137.667710
65035		-2.853586	-8.046036	12.776893	-1.125424	2.965282	4.465449	0.165527	0.013184	-0.277832	-31.949999	70.487591	141.063875
65036		-8.822152	-8.989769	21.033922	-1.375830	0.520399	4.106560	0.167969	0.001221	-0.263428	-27.143032	71.907207	146.971359
65037		-7.150322	-15.613945	18.951705	-1.969451	-1.677469	2.802287	0.173584	0.000732	-0.277100	-22.596907	71.705866	152.942099
65038		-2.985312	-15.106551	14.404402	-2.171731	-3.101323	1.804414	0.163574	0.008545	-0.280762	-19.168077	70.410678	157.879959
65039		0.211257	-12.809488	8.225778	-1.812176	-3.808313	1.205927	0.134521	0.013428	-0.295410	-16.653426	68.539268	161.671906
65040		1.623510	-9.481502	4.531200	-1.526597	-4.111870	0.760365	0.108643	0.018799	-0.302490	-14.961642	66.387898	164.447743
65041		2.116671	-7.640875	2.295623	-1.471589	-4.123939	0.343203	0.091553	0.032471	-0.310303	-14.105236	64.142113	166.318283
65042		2.630657	-7.553936	1.077046	-1.461456	-3.930582	-0.032826	0.056396	0.032959	-0.326172	-13.899097	61.949608	167.486375
65043		2.836806	-8.125235	0.422785	-1.341375	-3.605857	-0.381956	0.043701	0.049805	-0.337158	-14.152071	59.884170	168.076751
65044		2.636479	-8.942316	0.373195	-1.093982	-3.246402	-0.730640	0.011475	0.058350	-0.330811	-14.676417	57.975765	168.193855
65045		2.292652	-9.440673	0.619636	-0.775845	-2.910774	-1.080224	-0.023193	0.068848	-0.337891	-15.380727	56.196233	167.885891
65046		1.870364	-9.305555	1.263366	-0.537685	-2.626255	-1.462732	-0.037109	0.075439	-0.351807	-16.255792	54.517372	167.194142
65047		1.531272	-8.886825	1.925513	-0.504267	-2.373324	-1.897187	-0.063965	0.087158	-0.347412	-17.430322	52.891968	166.097986
65048		1.156778	-8.402644	2.522942	-0.635065	-2.150562	-2.343003	-0.099854	0.091553	-0.349609	-18.932533	51.299808	164.652709
65049		0.709048	-8.154568	3.343127	-0.880797	-1.961701	-2.776035	-0.125732	0.107666	-0.339844	-20.794453	49.692435	162.897412
65050		0.094851	-8.301781	4.373123	-1.125483	-1.828434	-3.170046	-0.157227	0.109375	-0.334961	-22.917347	48.041446	160.932486
65051		-0.589637	-8.525357	5.278581	-1.295053	-1.746970	-3.518394	-0.178223	0.110596	-0.319580	-25.210630	46.294642	158.821969
65052		-1.105638	-8.594741	6.289772	-1.394411	-1.706918	-3.811092	-0.223633	0.114990	-0.312500	-27.545860	44.446004	156.660713
65053		-1.824606	-8.650755	7.286061	-1.448089	-1.703590	-4.060996	-0.256104	0.117188	-0.313232	-29.870351	42.460292	154.493023
65054		-2.545915	-8.654722	8.216465	-1.479518	-1.750139	-4.279491	-0.289795	0.120117	-0.298828	-32.111011	40.336114	152.383990
65055		-3.145964	-8.759853	8.871076	-1.472945	-1.827279	-4.447884	-0.316650	0.116943	-0.286865	-34.232068	38.052451	150.369586
65056		-3.588563	-8.931391	9.451298	-1.435690	-1.906077	-4.582661	-0.352051	0.118164	-0.277588	-36.185997	35.644534	148.480220
65057		-3.971179	-9.235047	9.795668	-1.360030	-1.984085	-4.678211	-0.386230	0.122559	-0.268311	-37.963404	33.107876	146.719526
65058		-4.185575	-9.607226	10.208440	-1.249214	-2.039313	-4.753892	-0.410645	0.114990	-0.259521	-39.538559	30.490255	145.085226
65059		-4.499479	-10.072130	10.784616	-1.136053	-2.083372	-4.814648	-0.444092	0.106201	-0.250732	-40.936743	27.782701	143.558218
65060		-4.936204	-10.374983	11.298708	-1.033095	-2.127473	-4.857939	-0.472900	0.099365	-0.237305	-42.157702	25.023129	142.139467
65061		-5.436120	-10.425851	11.700553	-0.986745	-2.157981	-4.891872	-0.510254	0.084717	-0.222168	-43.259363	22.198665	140.808987
65062		-5.708065	-10.443856	12.031676	-0.964894	-2.152762	-4.885847	-0.543457	0.078125	-0.206543	-44.252473	19.370675	139.562893
65063		-6.358636	-11.009295	12.808083	-0.925391	-2.108743	-4.812718	-0.565186	0.062988	-0.192139	-45.144679	16.557302	138.398494
65064		-7.469776	-12.315610	13.769207	-0.802232	-2.067404	-4.687442	-0.595215	0.058594	-0.183350	-45.882649	13.810307	137.328168
65065		-9.269160	-14.224814	14.916736	-0.499341	-2.035316	-4.568106	-0.617676	0.043457	-0.168701	-46.385151	11.100370	136.335008
65066		-11.864837	-15.591341	15.765027	-0.094895	-2.059127	-4.516431	-0.633301	0.028320	-0.149902	-46.595896	8.410504	135.399502
65067		-14.455802	-15.755416	15.857515	0.222982	-2.175892	-4.539575	-0.667480	0.017578	-0.140137	-46.578027	5.650217	134.514598
65068		-17.122622	-15.344534	15.355987	0.387321	-2.328745	-4.597184	-0.688232	0.002686	-0.130371	-46.416195	2.820353	133.670826
65069		-19.388870	-14.132801	13.840099	0.400530	-2.547379	-4.641752	-0.715332	-0.028320	-0.115479	-46.206113	-0.123338	132.892948
65070		-20.762985	-11.687179	11.186462	0.278264	-2.749236	-4.593626	-0.731934	-0.053955	-0.100830	-46.025077	-3.113060	132.207432
65071		-20.764692	-7.858054	7.451217	0.003355	-2.833123	-4.395297	-0.747314	-0.075928	-0.082275	-45.977690	-6.062060	131.628154
65072		-20.125791	-2.709589	3.935925	-0.560430	-2.643044	-4.075849	-0.773438	-0.088867	-0.063965	-46.228302	-8.795654	131.099644
65073		-19.898314	0.328224	1.373377	-1.293106	-2.236093	-3.661972	-0.775635	-0.105225	-0.054199	-46.880324	-11.207048	130.583515
65074		-20.119985	1.523630	0.221868	-1.828860	-1.721036	-3.162851	-0.799072	-0.120850	-0.041992	-47.818200	-13.208701	130.073342
65075		-20.535843	1.674056	0.057436	-2.058274	-1.158643	-2.657355	-0.796387	-0.127686	-0.020020	-48.870448	-14.791863	129.546174
65076		-21.319479	1.027545	0.321492	-1.910941	-0.617447	-2.141677	-0.811279	-0.141113	-0.016357	-49.818237	-15.953840	128.999447
65077		-21.793787	0.723608	0.721769	-1.426601	-0.143376	-1.611099	-0.811523	-0.146729	-0.010010	-50.482300	-16.716778	128.453442
65078		-22.101238	0.432758	1.322194	-0.756012	0.247885	-1.078573	-0.802490	-0.159912	-0.007813	-50.761879	-17.104849	127.932999
65079		-20.585129	0.983219	1.911984	-0.126534	0.535994	-0.538329	-0.805420	-0.156982	-0.007568	-50.702422	-17.148050	127.484530
65080		-10.339085	0.170410	-1.451595	0.820580	2.160751	1.128639	-0.798584	-0.158447	-0.020996	-50.070772	-15.861021	126.923941
65081		-9.855927	-2.342570	0.915514	2.192669	3.221797	1.721294	-0.783691	-0.165527	-0.041504	-48.614160	-13.907098	126.144285
65082		3.551455	1.971502	6.172260	2.082717	2.787991	1.813457	-0.779053	-0.160645	-0.046143	-47.306290	-12.066430	125.644849
65083		9.991527	-0.751361	10.225273	0.331774	3.216478	1.859281	-0.775146	-0.153076	-0.063477	-46.994501	-10.028737	125.010541
65084		-1.880441	-2.907104	9.299084	-0.703761	3.146749	1.905447	-0.755859	-0.141357	-0.057861	-47.304258	-8.002896	124.427928
65085		-6.463578	-4.890166	12.476613	-0.862573	3.223689	1.907389	-0.748047	-0.128662	-0.075684	-47.721837	-5.946463	123.803296
65086		-7.588270	-6.333753	16.231276	-0.806593	3.010344	1.964815	-0.736084	-0.124512	-0.079590	-48.136593	-3.955763	123.279211
65087		-5.712576	-6.235862	18.491718	-0.377255	2.672460	2.488270	-0.718994	-0.115479	-0.087402	-48.341456	-1.868322	123.090138
65088		-6.273954	-3.796809	17.217324	-0.523557	2.439542	2.872775	-0.705078	-0.103516	-0.089600	-48.639930	0.289975	123.138180
65089		-5.735225	-10.787659	13.153834	-1.108787	2.169846	2.680648	-0.699219	-0.083984	-0.089355	-49.270523	2.269806	123.212988
65090		-4.425468	-16.990341	10.119786	-0.548493	1.860284	2.560785	-0.687500	-0.080078	-0.096924	-49.574366	4.076943	123.361950
65091		-4.150086	-17.035432	6.562743	-0.046983	1.833716	2.200130	-0.679443	-0.059570	-0.096191	-49.596393	5.723603	123.383289
65092		-5.013175	-23.995083	9.328133	1.010430	2.161519	1.593599	-0.667725	-0.064453	-0.106934	-49.053835	7.222691	123.040846
65093		-10.442566	-13.875417	7.758225	2.183374	1.243788	0.789542	-0.668945	-0.065186	-0.112549	-47.831551	8.039924	122.809385
65094		-0.903031	-2.764023	9.853096	1.700956	0.838830	0.534387	-0.667236	-0.069824	-0.126953	-46.875552	8.590016	122.665665
65095		-3.362938	-8.506367	7.771337	1.484111	0.752299	0.630939	-0.653809	-0.073975	-0.134277	-46.032399	9.155398	122.605316
65096		-3.537985	-7.873765	7.656475	1.144933	0.411351	0.348461	-0.650146	-0.081299	-0.127197	-45.378367	9.462064	122.579561
65097		-2.145085	-5.701688	8.602415	0.836946	0.322428	0.246509	-0.649902	-0.072266	-0.133301	-44.901392	9.699026	122.551568
65098		-2.633566	-6.861555	7.805962	0.509183	0.250207	0.155496	-0.644287	-0.078125	-0.130127	-44.613286	9.862664	122.517232
65099		-1.925842	-6.678627	7.211311	0.358141	0.198485	0.073770	-0.649902	-0.077637	-0.149414	-44.413829	9.979965	122.470700
65100		-1.980426	-6.823510	7.102847	0.282019	0.180633	0.059846	-0.646729	-0.083252	-0.143066	-44.257821	10.077036	122.426045
65101		-1.923772	-6.977266	6.900754	0.261527	0.153152	0.059196	-0.653320	-0.069824	-0.146240	-44.111594	10.170172	122.392438
65102		-1.951086	-6.563641	7.209794	0.223701	0.128777	0.051534	-0.642090	-0.079834	-0.147705	-43.985950	10.242796	122.365766
65103		-1.890130	-6.688476	7.029350	0.195057	0.122682	0.048955	-0.646484	-0.084961	-0.143555	-43.876402	10.319447	122.340545
65104		-1.939397	-6.569716	7.183889	0.171912	0.120213	0.035087	-0.644775	-0.086670	-0.146973	-43.781070	10.382105	122.310688
65105		-1.909020	-6.490942	7.145296	0.134844	0.119063	0.032231	-0.645264	-0.083008	-0.149170	-43.707036	10.450722	122.280112
65106		-1.788540	-6.573479	6.915854	0.141268	0.123226	0.037219	-0.639160	-0.085938	-0.145020	-43.629356	10.515554	122.250106
65107		-1.892259	-6.505653	7.064007	0.154402	0.113685	0.047503	-0.645752	-0.085449	-0.147705	-43.542569	10.588052	122.228302
65108		-1.924117	-6.648081	6.998090	0.160902	0.104810	0.052670	-0.645752	-0.083252	-0.138672	-43.451110	10.651412	122.212404
65109		-1.899499	-6.533546	7.082241	0.167996	0.094508	0.056252	-0.647461	-0.083984	-0.155273	-43.354429	10.719441	122.202195
65110		-1.945265	-6.483563	7.137920	0.173322	0.080265	0.059852	-0.644043	-0.088135	-0.150635	-43.253450	10.775441	122.199373
65111		-1.938295	-6.661793	7.003962	0.178235	0.075670	0.063284	-0.646484	-0.086182	-0.149170	-43.148892	10.838394	122.199896
65112		-1.999073	-6.731657	6.938840	0.190564	0.064169	0.070353	-0.649414	-0.087891	-0.143311	-43.035947	10.891780	122.208173
65113		-1.996816	-6.698923	7.049360	0.202830	0.052682	0.079058	-0.643799	-0.083496	-0.156982	-42.914260	10.951256	122.224797
65114		-2.055284	-6.593407	7.105727	0.193735	0.037825	0.080614	-0.643555	-0.089844	-0.154541	-42.796614	10.997542	122.248149
65115		-2.026211	-6.545934	7.119536	0.184783	0.027714	0.072297	-0.649170	-0.091064	-0.149170	-42.683861	11.043820	122.271988
65116		-2.015732	-6.480798	7.179296	0.156163	0.026444	0.063176	-0.640137	-0.086670	-0.153076	-42.588244	11.078452	122.292539
65117		-2.001144	-6.418475	7.188591	0.135156	0.026472	0.055924	-0.637939	-0.087891	-0.142578	-42.505114	11.117786	122.309971
65118		-2.004366	-6.513810	7.076733	0.131649	0.026854	0.059028	-0.646240	-0.095459	-0.152344	-42.423872	11.150927	122.328683
65119		-1.992152	-6.521599	7.062550	0.145776	0.019284	0.064518	-0.647217	-0.087646	-0.149902	-42.333337	11.190486	122.352756
65120		-1.954741	-6.549051	6.930062	0.178420	0.005724	0.072367	-0.645508	-0.091797	-0.150391	-42.222519	11.219751	122.385651
65121		-1.966393	-6.601937	6.968895	0.217191	-0.003537	0.093324	-0.641357	-0.091064	-0.155518	-42.086845	11.260593	122.431278
65122		-2.026667	-6.596494	7.005863	0.261739	-0.018941	0.108049	-0.640381	-0.089600	-0.155029	-41.923304	11.292885	122.489457
65123		-2.146570	-6.633957	7.116316	0.289863	-0.042318	0.117567	-0.641602	-0.094727	-0.160889	-41.740882	11.326176	122.560950
65124		-2.125610	-6.420187	7.204885	0.287127	-0.055299	0.099751	-0.644287	-0.087646	-0.159180	-41.560634	11.339389	122.629839
65125		-2.165215	-6.287944	7.363077	0.246585	-0.045257	0.073652	-0.642578	-0.095215	-0.158936	-41.406487	11.354334	122.683413
65126		-2.058906	-6.314482	7.290032	0.221050	-0.032526	0.057727	-0.637207	-0.096436	-0.164063	-41.269416	11.361071	122.725152
65127		-2.063502	-6.296312	7.352258	0.189742	-0.026643	0.048434	-0.638672	-0.089355	-0.154785	-41.151378	11.374274	122.760520
65128		-2.097349	-6.281066	7.337100	0.166950	-0.017508	0.040918	-0.642334	-0.095459	-0.163574	-41.047883	11.380994	122.789116
65129		-2.061762	-6.237008	7.348042	0.137600	-0.012523	0.031768	-0.641357	-0.097412	-0.157715	-40.962202	11.393912	122.811749
65130		-2.078741	-6.208803	7.354123	0.115453	-0.004900	0.021098	-0.643066	-0.091797	-0.157471	-40.890882	11.398566	122.826787
65131		-2.079668	-6.272558	7.291100	0.106060	-0.001786	0.023980	-0.640869	-0.096436	-0.152832	-40.824732	11.413159	122.841894
65132		-2.079692	-6.301255	7.250704	0.105029	-0.007302	0.017616	-0.647461	-0.094971	-0.156494	-40.759501	11.415433	122.856321
65133		-2.047325	-6.294371	7.284354	0.105313	-0.012204	0.014526	-0.639160	-0.096436	-0.164063	-40.693812	11.421933	122.871233
65134		-2.079087	-6.249846	7.287020	0.100662	-0.017203	0.014583	-0.634033	-0.093262	-0.156494	-40.630600	11.418739	122.888091
65135		-2.060986	-6.261899	7.271409	0.099823	-0.019209	0.012990	-0.643311	-0.099609	-0.166748	-40.567661	11.421582	122.904985
65136		-2.044364	-6.272410	7.280439	0.107145	-0.026042	0.018309	-0.636475	-0.099609	-0.158691	-40.499744	11.415890	122.926850
65137		-2.062639	-6.315569	7.265138	0.116487	-0.038498	0.027160	-0.642090	-0.097168	-0.157959	-40.424564	11.415546	122.957352
65138		-2.007900	-6.256891	7.298842	0.120418	-0.044968	0.032376	-0.647949	-0.096680	-0.155518	-40.346391	11.406761	122.992632
65139		-2.026704	-6.262040	7.331295	0.118463	-0.053438	0.042428	-0.637207	-0.094482	-0.150879	-40.267627	11.405458	123.035566
65140		-1.971498	-6.313523	7.248679	0.109868	-0.052922	0.053591	-0.643311	-0.094482	-0.163818	-40.193043	11.400951	123.083289
65141		-1.995206	-6.351771	7.307093	0.111311	-0.066415	0.068826	-0.641357	-0.094971	-0.157715	-40.115086	11.403590	123.142884
65142		-2.008331	-6.289459	7.311349	0.106708	-0.077067	0.088697	-0.644531	-0.100830	-0.165527	-40.037416	11.401321	123.215382
65143		-1.956971	-6.265228	7.346160	0.090291	-0.095366	0.108644	-0.652832	-0.104492	-0.154053	-39.965829	11.405746	123.303669
65144		-1.960556	-6.253965	7.401651	0.067361	-0.101010	0.137695	-0.636475	-0.095215	-0.156006	-39.904575	11.410805	123.407106
65145		-1.925798	-6.178138	7.453579	0.030391	-0.099118	0.159628	-0.643311	-0.093750	-0.153320	-39.862459	11.432108	123.519672
65146		-1.983596	-6.185946	7.477887	-0.013025	-0.093012	0.182893	-0.636963	-0.095459	-0.153076	-39.843764	11.457135	123.640418
65147		-1.891044	-6.225636	7.510186	-0.065000	-0.073156	0.220054	-0.646240	-0.091309	-0.150146	-39.852672	11.511947	123.770425
65148		-1.733666	-6.276112	7.518372	-0.121951	-0.022263	0.263911	-0.644775	-0.094482	-0.149170	-39.894182	11.597885	123.901046
65149		-1.790051	-6.276693	7.555007	-0.183482	0.045311	0.318306	-0.648193	-0.092773	-0.153809	-39.970607	11.741011	124.030666
65150		-1.260320	-5.668503	8.050383	-0.283894	0.125415	0.389178	-0.635498	-0.087646	-0.159180	-40.104183	11.938268	124.161701
65151		-1.039328	-6.113109	7.701181	-0.399573	0.207103	0.555119	-0.634033	-0.087891	-0.151611	-40.294097	12.240259	124.335701
65152		-1.689791	-6.222341	7.589516	-0.457573	0.308654	0.655966	-0.627441	-0.089600	-0.155762	-40.515428	12.617361	124.515236
65153		-1.245736	-6.119090	7.825585	-0.540672	0.431776	0.750021	-0.630615	-0.069092	-0.153076	-40.784054	13.090945	124.688284
65154		-1.028009	-6.492467	7.574950	-0.616355	0.615336	0.876961	-0.630371	-0.069092	-0.157227	-41.098756	13.685377	124.844828
65155		-1.003651	-6.910730	7.552954	-0.596647	0.847805	1.047757	-0.620361	-0.067383	-0.153564	-41.404071	14.452188	124.983921
65156		-1.018919	-7.117567	7.448122	-0.519996	1.119472	1.252077	-0.612305	-0.054199	-0.159424	-41.669031	15.406900	125.103405
65157		-1.183010	-7.557076	7.539926	-0.376580	1.406802	1.479773	-0.608154	-0.049561	-0.158936	-41.853581	16.578369	125.206894
65158		-1.308602	-7.962628	7.448846	-0.196801	1.720670	1.749893	-0.592773	-0.049316	-0.173340	-41.935594	17.980656	125.303012
65159		-1.456227	-8.198437	7.194454	-0.000560	1.978177	2.077933	-0.584717	-0.038086	-0.170410	-41.888098	19.624614	125.443269
65160		-1.614619	-8.631834	7.313585	0.246251	2.215033	2.480308	-0.561035	-0.029053	-0.178955	-41.662940	21.516755	125.676201
65161		-1.537970	-8.175570	7.346507	0.467137	2.474070	2.939373	-0.547119	-0.023926	-0.189941	-41.256457	23.698953	126.030854
65162		-1.649663	-7.904919	7.604109	0.619369	2.743511	3.438704	-0.522217	-0.019531	-0.194824	-40.685066	26.176523	126.538904
65163		-1.993434	-7.401614	7.714905	0.742749	3.074556	3.932461	-0.497803	-0.010010	-0.212402	-39.953061	28.981794	127.195304
65164		-3.336446	-7.639644	7.755787	0.844693	3.342566	4.436242	-0.471924	-0.012695	-0.207764	-39.025885	32.075025	128.062906
65165		-5.514819	-7.945538	8.907748	0.898960	3.509505	4.843546	-0.429199	0.000977	-0.228516	-37.889688	35.379321	129.176525
65166		-8.833643	-8.048787	10.274372	0.885010	3.747061	5.030520	-0.394287	0.003418	-0.243896	-36.625041	38.831786	130.427751
65167		-12.762746	-10.091443	13.429178	0.599413	3.926623	4.862655	-0.364990	0.012939	-0.236572	-35.480777	42.293762	131.654699
65168		-11.236046	-10.116715	11.373551	0.021649	4.080462	4.555493	-0.340576	0.008545	-0.247803	-34.697816	45.705828	132.760284
65169		-9.305986	-9.548792	11.284689	-0.603691	4.163982	4.371852	-0.298828	0.016357	-0.249268	-34.260201	49.093452	133.821012
65170		-7.119875	-8.048604	10.149433	-0.831249	4.295870	4.431301	-0.260986	0.018799	-0.243164	-33.839415	52.552956	134.975021
65171		-4.842819	-8.548458	9.852799	-0.996395	4.268783	4.526045	-0.228516	0.012695	-0.243408	-33.277015	56.026747	136.367334
65172		-3.762472	-7.620243	8.695185	-1.250515	4.159301	4.609630	-0.181152	0.016357	-0.237061	-32.522685	59.460914	138.103425
65173		-3.846224	-6.118986	7.427527	-1.629663	4.102076	4.839026	-0.142578	0.017334	-0.222168	-31.433760	62.924072	140.408332
65174		-4.980100	-7.269367	7.820433	-1.973010	3.687579	4.812998	-0.119629	0.019043	-0.211182	-29.831987	66.146374	143.431177
65175		-4.264493	-8.321880	12.330396	-2.029424	2.803292	4.515453	-0.084961	0.011963	-0.203125	-27.360109	68.795579	147.362714
65176		-5.301566	-8.327969	16.027506	-2.145431	0.775851	4.092927	-0.062256	0.016602	-0.189453	-23.419784	70.202111	152.878737
65177		-9.836624	-15.616649	19.263994	-2.860938	-1.288916	2.974280	-0.060791	0.014893	-0.181396	-19.898342	70.141321	158.362046
65178		-5.040254	-17.079358	14.693085	-3.069555	-2.595179	1.883706	-0.059570	0.015625	-0.178467	-17.610269	69.077178	162.676758
65179		-0.670782	-14.957153	9.347644	-2.576049	-3.427292	1.087510	-0.066650	0.021484	-0.172119	-16.161640	67.372336	165.824353
65180		1.225225	-12.028800	5.514870	-2.078272	-3.759792	0.491228	-0.075928	0.024170	-0.161621	-15.385585	65.372831	167.968522
65181		2.014557	-10.443517	3.304986	-1.710164	-3.782770	0.000003	-0.080078	0.017334	-0.164307	-15.178819	63.274314	169.284739
65182		2.317760	-9.734149	2.117822	-1.414139	-3.604942	-0.427925	-0.086182	0.013672	-0.167480	-15.395946	61.214599	169.952474
65183		2.745603	-9.682982	1.139591	-1.121798	-3.284531	-0.821410	-0.099854	0.005127	-0.164795	-15.946722	59.267096	170.059346
65184		2.735496	-9.904330	0.950295	-0.813656	-2.903954	-1.216297	-0.101074	0.004395	-0.160400	-16.731767	57.471788	169.682370
65185		2.535590	-9.905040	1.058509	-0.523597	-2.545785	-1.653870	-0.114258	-0.002441	-0.166992	-17.755861	55.788595	168.817633
65186		2.301754	-9.487933	1.435882	-0.341235	-2.238606	-2.093901	-0.118164	-0.013184	-0.166016	-18.993129	54.190590	167.543198
65187		2.088396	-8.690453	1.916768	-0.349371	-1.947666	-2.545969	-0.113281	-0.008545	-0.170654	-20.542000	52.636750	165.867223
65188		1.656896	-8.144911	2.635510	-0.544025	-1.672974	-2.994560	-0.128418	-0.014648	-0.177002	-22.434567	51.113798	163.855156
65189		0.948096	-7.976203	3.551488	-0.822338	-1.454718	-3.424458	-0.125732	-0.017090	-0.176025	-24.681043	49.553912	161.553787
65190		0.252196	-8.152219	4.491097	-1.053080	-1.319602	-3.807393	-0.133057	-0.009766	-0.177979	-27.138637	47.918227	159.084614
65191		-0.623248	-8.291835	5.669426	-1.229385	-1.248194	-4.154932	-0.130859	-0.010986	-0.178955	-29.732343	46.142605	156.508487
65192		-1.563771	-8.510634	6.677379	-1.340869	-1.249541	-4.459096	-0.139648	0.002930	-0.180176	-32.326853	44.209965	153.931366
65193		-2.282828	-8.673513	7.556018	-1.358950	-1.287683	-4.683684	-0.145996	0.010742	-0.182373	-34.825640	42.096504	151.422998
65194		-2.979486	-8.710649	8.304449	-1.295189	-1.366761	-4.844790	-0.148926	0.025879	-0.187744	-37.113961	39.830459	149.061955
65195		-3.662079	-8.785601	9.037205	-1.203605	-1.463771	-4.937351	-0.154785	0.049072	-0.196533	-39.172295	37.407799	146.876052
65196		-4.286248	-9.007669	9.564690	-1.100729	-1.572138	-4.985094	-0.165283	0.061035	-0.204590	-40.971302	34.878311	144.892290
65197		-4.705923	-9.111141	9.944551	-1.020137	-1.683887	-5.023146	-0.189697	0.082275	-0.214600	-42.557166	32.224955	143.087658
65198		-4.869871	-9.351577	10.258874	-0.970358	-1.763046	-5.049361	-0.207520	0.108887	-0.227295	-43.954583	29.505573	141.444003
65199		-5.290804	-9.992581	10.658945	-0.931168	-1.824254	-5.057371	-0.231689	0.126465	-0.242188	-45.201421	26.709925	139.937123
65200		-5.544928	-10.709012	11.164958	-0.875386	-1.867313	-5.076233	-0.269287	0.142578	-0.257568	-46.296189	23.879085	138.544375
65201		-6.016812	-11.858181	12.004902	-0.785286	-1.912046	-5.089292	-0.310059	0.141602	-0.272949	-47.242964	20.986490	137.249477
65202		-6.960103	-13.085412	13.061569	-0.672908	-1.999277	-5.112577	-0.360107	0.147949	-0.291260	-48.024833	18.049456	136.057387
65203		-7.774200	-14.394070	13.991696	-0.531274	-2.117162	-5.221157	-0.403564	0.153809	-0.316650	-48.651364	14.990519	134.931471
65204		-8.526707	-15.247208	14.488225	-0.338331	-2.238572	-5.330675	-0.445801	0.153809	-0.329102	-49.090997	11.845612	133.863495
65205		-9.463886	-15.661123	14.656316	-0.109610	-2.355414	-5.411937	-0.499268	0.141357	-0.332275	-49.335383	8.598998	132.847044
65206		-10.927693	-15.369956	14.439117	0.094923	-2.461193	-5.452596	-0.547363	0.125000	-0.352783	-49.395965	5.309178	131.879590
65207		-12.647041	-14.828057	13.924882	0.276883	-2.538024	-5.427949	-0.595459	0.106934	-0.357666	-49.296335	1.986271	130.958720
65208		-14.337701	-14.373796	12.955987	0.487312	-2.581475	-5.250299	-0.648682	0.084717	-0.355713	-49.020220	-1.257411	130.114383
65209		-16.109313	-13.755103	11.608689	0.734821	-2.631502	-4.911049	-0.695557	0.055664	-0.354492	-48.563768	-4.381564	129.398185
65210		-17.351174	-12.106714	9.466692	0.961989	-2.716323	-4.449601	-0.742676	0.035645	-0.348877	-47.955723	-7.320680	128.863340
65211		-17.698296	-8.365216	6.719125	0.930855	-2.751082	-3.904063	-0.784424	0.007813	-0.351318	-47.370572	-10.046692	128.522283
65212		-17.898882	-4.194718	4.005573	0.492990	-2.637169	-3.356892	-0.813721	-0.022705	-0.334229	-47.047236	-12.485299	128.324587
65213		-17.497235	-0.586815	1.605681	-0.205882	-2.392636	-2.773484	-0.842773	-0.038818	-0.327148	-47.147308	-14.590267	128.249180
65214		-17.143646	1.881285	-0.086502	-0.987211	-1.997999	-2.209976	-0.869629	-0.033691	-0.305420	-47.708098	-16.297906	128.239103
65215		-18.508019	2.888109	-0.113756	-1.691764	-1.470899	-1.732364	-0.888428	-0.044434	-0.286621	-48.668073	-17.604280	128.208526
65216		-20.317700	1.884594	-0.020241	-2.056316	-0.936891	-1.348663	-0.889160	-0.052490	-0.279541	-49.813409	-18.540627	128.109650
65217		-21.298119	0.415229	0.198179	-1.880158	-0.373519	-0.969437	-0.910400	-0.041504	-0.280273	-50.826648	-19.106257	127.913542
65218		-20.789902	-1.224446	0.302956	-1.178962	0.157041	-0.540057	-0.905762	-0.043701	-0.276123	-51.409285	-19.291107	127.637846
65219		-19.089436	-2.059301	0.989770	-0.146334	0.627142	-0.030245	-0.903320	-0.036865	-0.281250	-51.392419	-19.078543	127.333636
65220		-11.208610	-1.262737	0.463595	0.666256	0.871649	0.590260	-0.895020	-0.038818	-0.288330	-50.949584	-18.502405	127.150795
65221		-7.091303	-1.443947	1.056176	1.794663	3.134587	2.238057	-0.885986	-0.024902	-0.317627	-49.744624	-16.364762	126.563659
65222		-2.552496	-4.089013	6.080999	1.726340	2.806882	2.173826	-0.854004	-0.036865	-0.331299	-48.643396	-14.371633	126.149398
65223		8.939867	-4.859951	7.628973	1.076953	2.755563	2.052472	-0.842773	-0.024902	-0.356201	-47.932158	-12.438251	125.746472
65224		1.549255	-4.096987	5.333700	0.382176	2.713731	2.249732	-0.817139	-0.010254	-0.374756	-47.653925	-10.439574	125.458903
65225		-1.677681	-2.628838	6.606403	-0.072027	2.975413	2.386802	-0.797363	0.006836	-0.395996	-47.639093	-8.276201	125.119877
65226		-5.966874	-6.358937	12.577156	-0.673247	3.229068	2.083732	-0.774170	0.027588	-0.407227	-47.951225	-6.149621	124.550850
65227		-6.452085	-8.587372	15.993971	-0.975646	2.953523	1.877231	-0.759521	0.040039	-0.417236	-48.459655	-4.214937	124.007745
65228		-4.434853	-5.088666	15.615450	-0.625214	2.652572	2.293718	-0.733643	0.051025	-0.431641	-48.800631	-2.224840	123.739247
65229		-5.714232	-3.975300	15.515622	-0.614947	2.580051	2.796378	-0.705811	0.076172	-0.443848	-49.149127	-0.039833	123.679575
65230		-6.838001	-12.327707	15.011597	-0.809099	2.138940	2.746589	-0.680908	0.084229	-0.452637	-49.608915	1.951939	123.777816
65231		-4.963815	-14.580670	11.330316	-0.497885	1.742559	2.497089	-0.656738	0.109863	-0.445557	-49.882280	3.695831	123.944590
65232		-3.713621	-13.578421	7.677070	-0.305947	1.674468	2.196821	-0.638184	0.114990	-0.453125	-50.049190	5.276148	124.023802
65233		-4.333530	-17.305612	6.285409	0.227771	1.856409	1.822131	-0.622559	0.125732	-0.469482	-49.930002	6.766781	123.883651
65234		-10.056015	-23.205513	10.403171	1.655123	1.657095	1.036278	-0.605713	0.117676	-0.484619	-49.021994	7.834443	123.548933
65235		-3.237506	-5.610322	9.642369	1.565465	0.879032	0.468140	-0.593750	0.113525	-0.489990	-48.150788	8.376327	123.350551
65236		-1.632213	-6.337375	7.796887	1.372144	0.785606	0.560653	-0.593018	0.098877	-0.492676	-47.379656	8.916031	123.235782
65237		-3.446362	-9.122206	6.502183	1.230392	0.584759	0.458592	-0.577881	0.099121	-0.507080	-46.682100	9.344021	123.172864
65238		-2.356299	-6.553521	7.927060	1.019665	0.413414	0.315253	-0.582031	0.088867	-0.515625	-46.102875	9.637400	123.129196
65239		-2.279366	-6.754740	7.554564	0.792540	0.348140	0.273445	-0.575684	0.089844	-0.517578	-45.651449	9.895947	123.098561
65240		-2.399814	-7.297002	7.176081	0.626528	0.285575	0.185739	-0.577148	0.082520	-0.517578	-45.297001	10.085714	123.059795
65241		-1.930675	-6.474995	7.435406	0.497340	0.235007	0.131139	-0.572754	0.081543	-0.515137	-45.016396	10.240931	123.020617
65242		-2.151876	-6.918317	7.092674	0.399985	0.196338	0.112416	-0.570068	0.067383	-0.518311	-44.790467	10.365198	122.990177
65243		-1.934055	-6.779120	7.009150	0.344319	0.163745	0.097014	-0.562012	0.076660	-0.529541	-44.594729	10.477730	122.967260
65244		-1.968832	-6.736545	7.052118	0.308803	0.132283	0.100425	-0.565430	0.062988	-0.531494	-44.417134	10.571212	122.958859
65245		-2.071604	-6.692683	7.113069	0.272596	0.108705	0.084308	-0.561279	0.065430	-0.531006	-44.259290	10.656010	122.953717
65246		-2.010489	-6.574557	7.158295	0.225918	0.095822	0.064616	-0.566650	0.066162	-0.536865	-44.129140	10.720255	122.945679
65247		-1.941917	-6.628660	6.954094	0.189108	0.081819	0.055133	-0.560791	0.064453	-0.535156	-44.019304	10.782166	122.939587
65248		-1.917273	-6.650331	6.942762	0.199375	0.075945	0.058704	-0.558105	0.061768	-0.535645	-43.903285	10.835894	122.937378
65249		-1.944379	-6.651297	6.953478	0.205068	0.065063	0.060521	-0.558105	0.064453	-0.533691	-43.782578	10.892817	122.940547
65250		-1.990497	-6.668344	6.987664	0.204759	0.048630	0.060556	-0.567139	0.067383	-0.537598	-43.661202	10.935976	122.950363
65251		-2.017842	-6.566496	7.121563	0.196686	0.043966	0.061865	-0.563965	0.059814	-0.536621	-43.543539	10.984446	122.962806
65252		-2.019094	-6.517126	7.084776	0.183663	0.035731	0.056528	-0.566162	0.063232	-0.537598	-43.433537	11.020615	122.976279
65253		-1.969175	-6.489191	7.050731	0.177069	0.031612	0.056280	-0.564209	0.059570	-0.542969	-43.326558	11.061490	122.991478
65254		-1.976054	-6.544240	7.012872	0.183930	0.026092	0.059778	-0.567383	0.060303	-0.542236	-43.215352	11.094864	123.010333
65255		-1.981393	-6.598452	6.951845	0.204060	0.023995	0.066937	-0.559570	0.052490	-0.548096	-43.091398	11.136466	123.033257
65256		-1.969623	-6.496511	7.040097	0.232174	0.013518	0.076096	-0.556641	0.048340	-0.542725	-42.950180	11.170870	123.064243
65257		-1.978709	-6.547191	7.031106	0.243925	0.011610	0.087817	-0.559082	0.050537	-0.542725	-42.800638	11.215103	123.101205
65258		-2.025210	-6.559932	7.093369	0.245002	0.008764	0.087774	-0.558350	0.046875	-0.548584	-42.650647	11.251889	123.139276
65259		-2.065747	-6.538808	7.106549	0.235067	0.005008	0.085767	-0.555176	0.049072	-0.545410	-42.505759	11.292162	123.178175
65260		-2.148032	-6.584244	7.166098	0.223517	-0.007502	0.083898	-0.557617	0.047607	-0.543945	-42.367062	11.320382	123.221186
65261		-2.166856	-6.618404	7.107597	0.217738	-0.052236	0.074752	-0.562500	0.043701	-0.546875	-42.228553	11.331788	123.278013
65262		-2.002228	-6.527282	7.059684	0.217441	-0.060417	0.078075	-0.558350	0.041260	-0.547607	-42.089706	11.335090	123.339398
65263		-2.073335	-6.504641	7.095049	0.228155	-0.062918	0.078344	-0.562988	0.046143	-0.550537	-41.944098	11.342883	123.401990
65264		-2.041575	-6.489032	7.137453	0.217179	-0.055536	0.080994	-0.561523	0.039063	-0.549561	-41.805509	11.349086	123.462759
65265		-2.080723	-6.433098	7.246596	0.203634	-0.057611	0.069150	-0.564697	0.040283	-0.554199	-41.675141	11.355180	123.519288
65266		-2.061956	-6.366766	7.284287	0.178198	-0.045969	0.066427	-0.558105	0.038330	-0.552734	-41.560853	11.359670	123.570010
