// General information: 
//  MT Manager version: 2022.2.0 
//  XDA version: 2022.2.0 build 7381 rev 124627 built on 2023-07-19
// Device information: 
//  DeviceId: 00B4C223
//  ProductCode: MTW2-3A7G6
//  Firmware Version: 4.6.0
//  Hardware Version: 2.0.0
// Device settings: 
//  Filter Profile: human(46.1)
//  Option Flags: Orientation Smoother Disabled, Position/Velocity Smoother Disabled, Continuous Zero Rotation Update Disabled, AHS Disabled, ICC Disabled
// Coordinate system: ENU
PacketCounter	SampleTimeFine	Acc_X	Acc_Y	Acc_Z	Gyr_X	Gyr_Y	Gyr_Z	Mag_X	Mag_Y	Mag_Z	Roll	Pitch	Yaw
16039		-4.118915	5.711371	6.983609	-0.003286	-0.000965	0.003749	-1.003174	-0.244141	-0.457764	39.714094	24.746715	167.986827
16040		-4.147261	5.726554	6.971800	-0.002311	-0.000696	0.001023	-1.006104	-0.242676	-0.448486	39.712003	24.746165	167.986498
16041		-4.119665	5.725020	7.004009	-0.003569	0.001947	0.002817	-1.014160	-0.247070	-0.459229	39.711793	24.746684	167.988873
16042		-4.141430	5.692985	6.965738	0.001618	-0.002485	0.002637	-1.007813	-0.245117	-0.454834	39.711986	24.744755	167.988594
16043		-4.122773	5.731001	6.970231	-0.000830	0.000808	0.005370	-1.015137	-0.237305	-0.448730	39.713672	24.743837	167.991748
16044		-4.141899	5.707193	6.985849	-0.002019	0.001457	0.006309	-1.007080	-0.237549	-0.453369	39.713199	24.742303	167.994847
16045		-4.122261	5.731284	6.970301	-0.000830	0.000807	0.005370	-1.007080	-0.237305	-0.451172	39.714884	24.741385	167.998001
16046		-4.145974	5.727140	6.972084	0.000360	0.000158	0.004431	-1.007080	-0.245361	-0.455078	39.715181	24.739969	167.999680
16047		-4.092220	5.702472	6.962245	-0.002020	0.001456	0.006310	-1.016602	-0.242676	-0.461670	39.716485	24.738993	168.003551
16048		-4.145511	5.727752	6.971857	0.007653	0.002404	0.005795	-1.010254	-0.246826	-0.455078	39.721625	24.738072	168.006806
16049		-4.139770	5.694745	6.965285	-0.000898	0.002802	0.006226	-1.010742	-0.246338	-0.453125	39.723781	24.737719	168.011179
16050		-4.116428	5.713092	6.983668	-0.002859	-0.002801	0.007327	-1.008789	-0.238770	-0.458008	39.722338	24.733944	168.013061
16051		-4.096794	5.737241	6.968058	0.003578	0.003117	0.001537	-1.004150	-0.243408	-0.449707	39.726160	24.735447	168.015286
16052		-4.141146	5.723148	7.005254	0.001481	0.001503	0.004348	-1.004883	-0.242676	-0.461426	39.727331	24.734657	168.017474
16053		-4.120471	5.733505	6.969533	0.000573	-0.000761	0.006220	-1.011719	-0.245361	-0.460938	39.729728	24.732736	168.020408
16054		-4.124711	5.753376	6.955724	0.000359	0.000158	0.004432	-1.012207	-0.249512	-0.450439	39.730054	24.731328	168.022117
16055		-4.125544	5.767369	6.975790	-0.002234	0.002375	0.004522	-1.011230	-0.235840	-0.449707	39.731027	24.731410	168.025491
16056		-4.140216	5.723976	7.005127	0.002739	-0.001141	0.002554	-1.012207	-0.246094	-0.449463	39.732127	24.730111	168.025721
16057		-4.139021	5.710348	6.984976	-0.000899	0.002801	0.006227	-1.012695	-0.244873	-0.464111	39.734283	24.729757	168.030095
16058		-4.118475	5.720693	6.949183	0.003860	0.000203	0.002470	-1.012451	-0.235107	-0.449951	39.736242	24.729087	168.030860
16059		-4.115560	5.729177	7.003023	-0.000404	-0.001030	0.008949	-1.004883	-0.249268	-0.455322	39.738586	24.726048	168.035009
16060		-4.146226	5.736608	6.937134	-0.000831	0.000807	0.005372	-1.010742	-0.245850	-0.462646	39.738554	24.724580	168.037418
16061		-4.143334	5.744968	6.991062	0.000572	-0.000761	0.006221	-1.012207	-0.242676	-0.456787	39.740950	24.722658	168.040352
16062		-4.121566	5.741462	6.935312	0.000504	0.001233	0.007077	-1.011719	-0.248535	-0.453125	39.742111	24.720759	168.043778
16063		-4.114112	5.730177	7.003056	-0.001953	-0.000538	0.005456	-1.013916	-0.242920	-0.460449	39.742942	24.719215	168.046431
16064		-4.118500	5.749917	6.989263	0.000078	0.003070	0.003500	-1.008057	-0.240479	-0.454346	39.743451	24.719435	168.048850
16065		-4.117475	5.736199	6.969087	0.001335	0.000426	0.001705	-1.007568	-0.249023	-0.453125	39.745568	24.719690	168.050072
16066		-4.117291	5.736199	6.969195	-0.005667	0.000335	0.005630	-1.014404	-0.246338	-0.454346	39.742765	24.717924	168.052426
16067		-4.092097	5.726592	6.947512	0.000213	-0.000919	0.001789	-1.016357	-0.251465	-0.455322	39.744029	24.717556	168.053146
16068		-4.136349	5.712339	6.984931	0.000146	0.001075	0.002645	-1.006348	-0.249268	-0.453125	39.744085	24.717210	168.054354
16069		-4.141821	5.745954	6.991148	0.000145	0.001075	0.002645	-1.006836	-0.237793	-0.451416	39.745820	24.717407	168.056293
16070		-4.115705	5.722674	6.949193	0.000359	0.000157	0.004434	-1.001709	-0.236816	-0.451172	39.746212	24.716002	168.058008
16071		-4.111906	5.717132	6.983025	0.000359	0.000157	0.004434	-1.008789	-0.239502	-0.447021	39.748277	24.715139	168.060444
16072		-4.141203	5.746432	6.991122	-0.002166	0.000380	0.003668	-1.021240	-0.238770	-0.450684	39.747111	24.714114	168.061875
16073		-4.115221	5.723141	6.949095	0.003579	0.003114	0.001538	-1.006348	-0.245850	-0.457031	39.750933	24.715614	168.064100
16074		-4.135693	5.713227	6.984593	-0.001190	0.000650	0.000939	-1.009033	-0.239990	-0.449951	39.749827	24.715710	168.064325
16075		-4.136508	5.727123	7.004745	-0.001953	-0.000538	0.005457	-1.010010	-0.246094	-0.458984	39.750658	24.714165	168.066977
16076		-4.137250	5.741161	7.024824	0.000291	0.002150	0.005290	-1.011719	-0.240723	-0.461670	39.751540	24.713332	168.069923
16077		-4.115728	5.737513	6.969037	0.000145	0.001075	0.002645	-1.010742	-0.244629	-0.456543	39.753275	24.713528	168.071862
16078		-4.140577	5.747292	6.990786	0.001480	0.001501	0.004351	-1.013184	-0.250488	-0.449951	39.754545	24.712753	168.074105
16079		-4.109921	5.704379	6.962628	-0.000977	-0.000269	0.002729	-1.012695	-0.246826	-0.454590	39.755428	24.712326	168.075543
16080		-4.140335	5.747554	6.990714	0.000078	0.003069	0.003501	-1.016113	-0.248779	-0.454590	39.755993	24.712553	168.077972
16081		-4.110738	5.718669	6.982454	0.004005	0.001276	0.005117	-1.000732	-0.247314	-0.448730	39.760474	24.711932	168.081191
16082		-4.143780	5.753923	6.956406	0.001055	0.003338	0.000772	-1.017578	-0.239746	-0.459961	39.761097	24.713278	168.082427
16083		-4.114169	5.724916	6.948256	0.000570	-0.000763	0.006224	-1.004395	-0.247803	-0.451660	39.763491	24.711354	168.085360
16084		-4.139847	5.748688	6.990070	0.002670	0.000850	0.003412	-1.009521	-0.246338	-0.451416	39.765165	24.710639	168.086883
16085		-4.087231	5.737948	7.000134	0.001480	0.001500	0.004351	-1.003662	-0.244141	-0.448486	39.768082	24.710397	168.089821
16086		-4.138491	5.735467	6.969685	0.002882	-0.000069	0.005201	-1.011719	-0.241699	-0.457520	39.770091	24.708620	168.091831
16087		-4.093915	5.750078	6.932131	0.001335	0.000425	0.001706	-1.014404	-0.246094	-0.462402	39.772207	24.708874	168.093053
16088		-4.138179	5.735839	6.969564	-0.002167	0.000381	0.003668	-1.015625	-0.244141	-0.454102	39.771099	24.707859	168.094530
16089		-4.109501	5.720256	6.981882	-0.008338	-0.000514	0.002219	-1.010742	-0.250488	-0.459717	39.767619	24.707511	168.095622
16090		-4.114079	5.739585	6.968304	-0.001469	0.003563	0.000006	-1.013184	-0.247070	-0.453125	39.766711	24.709241	168.096587
16091		-4.109577	5.719908	6.982123	-0.002167	0.000380	0.003669	-1.006348	-0.240967	-0.456055	39.767211	24.708755	168.098742
16092		-4.143423	5.768772	6.976466	-0.000977	-0.000269	0.002729	-1.012451	-0.245361	-0.455078	39.766496	24.707799	168.099485
16093		-4.136683	5.721383	6.950280	-0.003290	-0.000964	0.003752	-1.016602	-0.247803	-0.451416	39.766143	24.706691	168.101139
16094		-4.109875	5.733712	7.002650	-0.003290	-0.000964	0.003752	-1.009033	-0.235840	-0.455078	39.764204	24.705056	168.102090
16095		-4.117723	5.759078	6.955146	-0.000977	-0.000270	0.002729	-1.015869	-0.235352	-0.454590	39.765085	24.704629	168.103528
16096		-4.109497	5.733613	7.002954	-0.004692	0.000605	0.002903	-1.012939	-0.241699	-0.452637	39.762440	24.703992	168.104732
16097		-4.136906	5.735021	6.970993	-0.001045	0.001724	0.003586	-1.010010	-0.238770	-0.452148	39.763793	24.704129	168.107389
16098		-4.137747	5.748834	6.991194	-0.003435	-0.002038	0.001107	-1.000000	-0.247070	-0.456787	39.761066	24.702992	168.106633
16099		-4.135579	5.720995	6.951256	-0.002167	0.000380	0.003669	-1.010498	-0.243896	-0.458496	39.761566	24.702506	168.108789
16100		-4.136510	5.734837	6.971379	-0.002446	0.003293	0.002736	-1.005371	-0.240723	-0.456299	39.760646	24.703135	168.111038
16101		-4.137440	5.748679	6.991503	-0.002167	0.000380	0.003669	-1.006592	-0.247803	-0.451172	39.761145	24.702649	168.113193
16102		-4.115842	5.744849	6.935906	-0.002167	0.000380	0.003669	-1.007568	-0.239502	-0.458740	39.760087	24.701646	168.114665
16103		-4.140741	5.754413	6.957810	-0.002446	0.003293	0.002737	-1.007568	-0.248291	-0.453125	39.760729	24.702785	168.117543
16104		-4.132588	5.728751	7.005728	-0.007083	-0.003157	0.000424	-1.007813	-0.245361	-0.458008	39.755611	24.701415	168.116039
16105		-4.111856	5.738233	6.970729	-0.010585	-0.003202	0.002388	-1.007568	-0.249512	-0.455811	39.750425	24.699822	168.116129
16106		-4.112685	5.751653	6.991258	-0.003714	0.000875	0.000174	-1.008545	-0.245850	-0.454102	39.747873	24.700324	168.116132
16107		-4.129960	5.699871	6.966916	-0.004268	-0.001235	0.006483	-1.005615	-0.249023	-0.447510	39.747467	24.698096	168.119001
16108		-4.135261	5.733208	6.973460	-0.004904	0.001524	0.001115	-1.010498	-0.237793	-0.455322	39.744537	24.698533	168.119664
16109		-4.112161	5.751204	6.991936	-0.000911	-0.002264	0.001873	-1.011475	-0.250000	-0.452881	39.744947	24.697542	168.119883
16110		-4.159927	5.742700	6.995561	-0.001045	0.001723	0.003587	-1.011475	-0.249512	-0.456787	39.744769	24.697160	168.121873
16111		-4.130262	5.713453	6.987621	-0.004480	-0.000316	0.004694	-1.008545	-0.240967	-0.446533	39.744033	24.695993	168.124245
16112		-4.110654	5.737526	6.972020	0.004983	0.001542	0.002389	-1.007813	-0.243896	-0.454590	39.747041	24.695976	168.125571
16113		-4.116000	5.771211	6.978250	-0.003291	-0.000965	0.003754	-1.010498	-0.250488	-0.459961	39.746687	24.694867	168.127225
16114		-4.110215	5.737636	6.972188	-0.003291	-0.000965	0.003754	-1.013184	-0.244629	-0.457275	39.744819	24.693251	168.128251
16115		-4.109932	5.737561	6.972417	-0.003291	-0.000965	0.003754	-1.006348	-0.248291	-0.454346	39.744465	24.692142	168.129906
16116		-4.133705	5.733173	6.974411	-0.003503	-0.000045	0.001964	-1.005127	-0.235840	-0.452881	39.742275	24.691583	168.130412
16117		-4.138010	5.752575	6.960954	-0.005749	-0.002733	0.002131	-1.002930	-0.245361	-0.454834	39.739886	24.690290	168.130567
16118		-4.136803	5.738360	6.941309	-0.005961	-0.001813	0.000342	-1.003174	-0.242676	-0.451660	39.735668	24.689547	168.129584
16119		-4.133126	5.732273	6.975494	-0.004693	0.000604	0.002905	-1.005615	-0.245850	-0.461426	39.734603	24.689440	168.131460
16120		-4.137529	5.751752	6.961919	-0.002313	-0.000695	0.001024	-1.014648	-0.249512	-0.459229	39.732812	24.688949	168.131275
16121		-4.113323	5.755983	6.960310	-0.003146	0.000107	0.006401	-1.007568	-0.242676	-0.454834	39.733258	24.687343	168.134646
16122		-4.132456	5.732058	6.976067	-0.003291	-0.000966	0.003755	-1.008545	-0.241699	-0.452637	39.731423	24.685729	168.135650
16123		-4.116397	5.761750	6.926751	-0.002301	0.004364	0.005386	-1.010986	-0.246582	-0.450928	39.732864	24.686371	168.140244
16124		-4.108279	5.736265	6.974457	-0.003503	-0.000045	0.001965	-1.015869	-0.246582	-0.451904	39.730709	24.685816	168.140714
16125		-4.133062	5.745655	6.996576	-0.004626	-0.001389	0.002048	-1.005859	-0.245117	-0.456055	39.729173	24.685145	168.141370
16126		-4.111387	5.741560	6.941270	-0.006940	-0.002084	0.003073	-1.005127	-0.241699	-0.454834	39.724938	24.683291	168.141592
16127		-4.154624	5.713292	6.958793	0.001335	0.000423	0.001706	-1.008301	-0.243652	-0.457031	39.727054	24.683544	168.142812
16128		-4.107456	5.735571	6.975512	-0.006940	-0.002084	0.003073	-0.999023	-0.244629	-0.448975	39.722827	24.681697	168.143092
16129		-4.136871	5.764534	6.983853	-0.003847	0.004861	0.001892	-1.015137	-0.243408	-0.452881	39.722758	24.683838	168.146191
16130		-4.130287	5.716979	6.957704	-0.005539	-0.003654	0.003922	-1.009277	-0.251465	-0.447266	39.719249	24.680984	168.146175
16131		-4.134551	5.736473	6.944210	-0.002380	0.001298	0.001882	-1.013184	-0.249023	-0.457031	39.719419	24.681559	168.147834
16132		-4.110476	5.740689	6.942529	-0.002168	0.000377	0.003672	-1.007568	-0.240479	-0.454102	39.718480	24.680581	168.149334
16133		-4.131762	5.744290	6.998464	-0.006028	0.000180	0.001201	-1.003662	-0.244385	-0.461426	39.716233	24.680912	168.150212
16134		-4.139638	5.769501	6.951151	-0.004482	-0.000318	0.004697	-1.012695	-0.249512	-0.458740	39.714065	24.679256	168.152027
16135		-4.130413	5.730057	6.978921	-0.003503	-0.000046	0.001966	-1.010010	-0.249023	-0.452393	39.713382	24.679207	168.153185
16136		-4.130400	5.729991	6.978983	-0.000066	0.001993	0.000858	-1.008057	-0.247559	-0.453857	39.713366	24.679976	168.153996
16137		-4.126894	5.724132	7.012856	-0.003570	0.001947	0.002824	-1.004883	-0.243164	-0.458252	39.713154	24.680491	168.156373
16138		-4.135757	5.763334	6.985503	-0.003292	-0.000967	0.003756	-1.008545	-0.239746	-0.453369	39.711381	24.678896	168.157430
16139		-4.106104	5.733973	6.977622	-0.003504	-0.000046	0.001966	-1.010010	-0.244629	-0.458740	39.710698	24.678848	168.158588
16140		-4.109628	5.739717	6.943835	-0.000066	0.001993	0.000858	-1.009766	-0.242188	-0.454346	39.710692	24.679613	168.159424
16141		-4.133604	5.735515	6.945565	-0.001045	0.001720	0.003590	-1.013672	-0.246826	-0.451172	39.712043	24.679749	168.162080
16142		-4.114895	5.773394	6.950134	0.000422	-0.001843	0.003579	-1.002930	-0.242432	-0.453613	39.712232	24.677827	168.162635
16143		-4.133165	5.735628	6.945733	-0.004694	0.000603	0.002908	-1.011719	-0.243164	-0.453125	39.711167	24.677720	168.164511
16144		-4.129611	5.729727	6.979666	-0.000066	0.001993	0.000858	-1.020508	-0.246338	-0.453857	39.711182	24.678492	168.165343
16145		-4.104541	5.720219	6.957812	-0.000768	-0.001194	0.004521	-1.011475	-0.251221	-0.452637	39.712390	24.677002	168.167278
16146		-4.084894	5.744170	6.942343	-0.001190	0.000649	0.000942	-1.005371	-0.244141	-0.458252	39.711559	24.677151	168.167546
16147		-4.162195	5.764893	6.954065	-0.002169	0.000376	0.003673	-1.013916	-0.252686	-0.461182	39.712058	24.676663	168.169702
16148		-4.129025	5.729810	6.979945	-0.003359	0.001025	0.004615	-1.010498	-0.248535	-0.459717	39.710805	24.675650	168.172054
16149		-4.103882	5.720099	6.958299	-0.003438	-0.002039	0.001108	-1.014404	-0.254639	-0.456055	39.709650	24.675038	168.171992
16150		-4.133053	5.749318	6.966588	-0.000768	-0.001194	0.004521	-1.010986	-0.244629	-0.460938	39.709495	24.673075	168.173332
16151		-4.123791	5.710090	6.994188	-0.000979	-0.000273	0.002732	-1.008545	-0.240479	-0.451172	39.710375	24.672646	168.174770
16152		-4.132711	5.749505	6.966636	0.000079	0.003064	0.003507	-1.011230	-0.246338	-0.460449	39.711217	24.672925	168.177343
16153		-4.113059	5.773508	6.951126	-0.003148	0.000103	0.006405	-1.014160	-0.245605	-0.452393	39.711661	24.671317	168.180714
16154		-4.108169	5.753996	6.964995	-0.000623	-0.000124	0.007170	-1.003662	-0.244141	-0.453613	39.712319	24.668855	168.183769
16155		-4.131030	5.736173	6.946553	0.002394	0.003758	0.002482	-1.016113	-0.245117	-0.454102	39.715758	24.670294	168.186710
16156		-4.102540	5.721010	6.958342	0.000290	0.002142	0.005297	-1.012695	-0.246582	-0.456055	39.716949	24.669516	168.189763
16157		-4.136221	5.770113	6.952677	-0.000768	-0.001195	0.004522	-1.005615	-0.243896	-0.449463	39.718157	24.668025	168.191697
16158		-4.150947	5.726620	6.982070	-0.002169	0.000376	0.003674	-1.009766	-0.245850	-0.460938	39.717323	24.667067	168.193250
16159		-4.106259	5.740987	6.944779	-0.000769	-0.001195	0.004522	-1.009033	-0.245117	-0.459473	39.718530	24.665576	168.195184
16160		-4.125656	5.717109	6.960343	-0.000211	0.000922	-0.001790	-1.004150	-0.247314	-0.460938	39.717813	24.666870	168.194411
16161		-4.135308	5.770441	6.952948	-0.000202	-0.001968	0.010751	-1.007813	-0.248779	-0.456299	39.720476	24.662757	168.199055
16162		-4.124915	5.717636	6.960350	0.001480	0.001492	0.004356	-1.001953	-0.246582	-0.448730	39.722077	24.662059	168.201467
16163		-4.129180	5.737646	6.946436	0.002880	-0.000079	0.005204	-1.009766	-0.237793	-0.456543	39.725700	24.660810	168.204182
16164		-4.101413	5.736489	6.978313	0.002815	0.001913	0.006063	-1.008789	-0.243896	-0.448486	39.728484	24.659657	168.207507
16165		-4.129581	5.752408	6.966096	0.003025	0.000991	0.007854	-1.009766	-0.241943	-0.454102	39.732906	24.657908	168.211937
16166		-4.128368	5.739072	6.945741	0.002749	0.003905	0.006923	-1.014404	-0.245605	-0.452148	39.736167	24.657315	168.216449
16167		-4.129194	5.753316	6.965575	0.002670	0.000842	0.003415	-1.007568	-0.247803	-0.457520	39.739462	24.657127	168.218667
16168		-4.104095	5.744206	6.943396	0.005274	0.003677	0.007689	-1.011719	-0.240234	-0.450439	39.744298	24.656166	168.223514
16169		-4.124090	5.734763	6.978794	0.002175	-0.003267	0.008869	-1.004639	-0.255615	-0.451904	39.747722	24.652168	168.226719
16170		-4.128226	5.754899	6.964842	0.003729	0.004178	0.004191	-1.015137	-0.246582	-0.449463	39.751056	24.652710	168.230031
16171		-4.144095	5.725746	7.013846	0.005339	0.001684	0.006830	-1.007080	-0.246094	-0.450684	39.756713	24.651640	168.234243
16172		-4.127842	5.756118	6.964062	0.006528	0.001034	0.005889	-1.017822	-0.247559	-0.447266	39.761468	24.650170	168.237108
16173		-4.122186	5.723301	6.957310	0.005273	0.003676	0.007690	-1.011230	-0.251709	-0.457520	39.767595	24.649662	168.242539
16174		-4.128253	5.771372	6.983305	0.005548	0.000761	0.008622	-1.005615	-0.243164	-0.461914	39.772303	24.647077	168.246661
16175		-4.100973	5.734799	6.920917	0.006738	0.000111	0.007681	-1.011719	-0.254150	-0.459473	39.778667	24.645002	168.250651
16176		-4.150434	5.754734	6.964316	0.003023	0.000990	0.007857	-1.011963	-0.242432	-0.456787	39.781822	24.642810	168.254614
16177		-4.101192	5.749921	6.940380	0.006528	0.001033	0.005891	-1.011963	-0.246826	-0.458740	39.787859	24.641796	168.258108
16178		-4.124899	5.746362	6.941773	0.004148	0.002332	0.007775	-1.012207	-0.245117	-0.460693	39.791871	24.640214	168.262503
16179		-4.129123	5.766643	6.927625	0.004083	0.004324	0.008634	-1.011475	-0.246826	-0.453613	39.797615	24.639643	168.268653
16180		-4.099549	5.737775	6.919293	0.000289	0.002141	0.005300	-1.021484	-0.255859	-0.449707	39.798894	24.638889	168.271762
16181		-4.121799	5.755637	6.995016	-0.001045	0.001720	0.003592	-1.004883	-0.246338	-0.454590	39.800244	24.639020	168.274420
16182		-4.124255	5.747517	6.941199	-0.004694	0.000607	0.002909	-1.008545	-0.246826	-0.456787	39.797934	24.638469	168.275702
16183		-4.124981	5.761091	6.961644	-0.006945	-0.002078	0.003075	-1.011475	-0.245605	-0.454102	39.795160	24.637118	168.276576
16184		-4.147901	5.742872	6.943534	-0.000065	0.001992	0.000859	-1.007568	-0.243652	-0.455322	39.795330	24.637933	168.277502
16185		-4.100675	5.764989	6.960319	-0.007925	-0.002350	0.005808	-1.002930	-0.254639	-0.454834	39.792500	24.635459	168.279591
16186		-4.128895	5.780166	6.948680	-0.003714	0.000880	0.000176	-1.000732	-0.256592	-0.447998	39.790263	24.636043	168.279739
16187		-4.127812	5.766012	6.928930	-0.006945	-0.002078	0.003075	-1.012939	-0.242188	-0.453369	39.787489	24.634691	168.280614
16188		-4.119708	5.740235	6.976883	-0.003714	0.000879	0.000176	-1.009766	-0.239746	-0.455566	39.785260	24.635271	168.280723
16189		-4.124114	5.759549	6.963433	-0.007154	-0.001156	0.001284	-1.012939	-0.252686	-0.455566	39.782160	24.634982	168.281102
16190		-4.122984	5.745361	6.943740	-0.004630	-0.001386	0.002050	-1.009277	-0.247803	-0.450439	39.779409	24.633879	168.281248
16191		-4.119313	5.739075	6.978070	-0.010869	-0.000277	0.001461	-1.003662	-0.245850	-0.454102	39.774364	24.633912	168.282068
16192		-4.098833	5.748763	6.942732	-0.000064	0.001992	0.000860	-1.009521	-0.242676	-0.449219	39.774564	24.634736	168.282983
16193		-4.098638	5.748666	6.942927	-0.005547	-0.003651	0.003925	-1.014893	-0.242676	-0.447998	39.772498	24.632381	168.283635
16194		-4.123353	5.758073	6.965104	-0.003714	0.000879	0.000177	-1.012207	-0.251221	-0.452393	39.770287	24.632956	168.283732
16195		-4.124166	5.771633	6.985504	-0.005756	-0.002729	0.002134	-1.016602	-0.248047	-0.456543	39.767895	24.631663	168.283889
16196		-4.145966	5.739558	6.947429	-0.003296	-0.000967	0.003759	-1.012451	-0.245850	-0.453125	39.766347	24.630125	168.285027
16197		-4.141307	5.719749	6.961425	-0.004695	0.000606	0.002911	-1.004883	-0.244629	-0.451172	39.765280	24.630016	168.286905
16198		-4.127004	5.776903	6.952515	-0.004631	-0.001386	0.002051	-1.006836	-0.250244	-0.458984	39.762556	24.628923	168.287058
16199		-4.116983	5.723502	6.960225	-0.004695	0.000606	0.002911	-1.006592	-0.249023	-0.458252	39.761489	24.628813	168.288936
16200		-4.126610	5.776400	6.953168	-0.006946	-0.002080	0.003077	-1.008057	-0.242432	-0.457275	39.757540	24.627055	168.289383
16201		-4.096417	5.732934	6.925159	-0.001881	0.005411	-0.003571	-1.004639	-0.245361	-0.456299	39.757583	24.631437	168.290056
16202		-4.122337	5.756160	6.967287	-0.005548	-0.003652	0.003925	-1.008545	-0.250732	-0.450195	39.754348	24.628665	168.290261
16203		-4.117596	5.736390	6.981292	-0.002235	0.002367	0.004537	-1.010254	-0.245605	-0.456787	39.755315	24.628736	168.293636
16204		-4.121942	5.755997	6.967655	-0.003505	-0.000044	0.001969	-1.003174	-0.248047	-0.466309	39.753466	24.628268	168.294252
16205		-4.121742	5.755878	6.967871	-0.003297	-0.000967	0.003760	-1.015137	-0.236816	-0.458740	39.753108	24.627155	168.295907
16206		-4.144633	5.737749	6.949718	-0.003570	0.001948	0.002829	-1.007568	-0.237549	-0.461426	39.751737	24.627257	168.297933
16207		-4.120659	5.741751	6.948105	-0.003714	0.000879	0.000178	-1.011475	-0.244629	-0.463623	39.750726	24.628270	168.298597
16208		-4.118052	5.749509	7.002259	-0.004696	0.000605	0.002912	-1.010986	-0.247070	-0.455078	39.748507	24.627751	168.300102
16209		-4.148686	5.756956	6.936592	-0.002879	-0.002815	0.007343	-1.009277	-0.250977	-0.451660	39.748801	24.624512	168.302749
16210		-4.116457	5.735548	6.982654	-0.003714	0.000879	0.000178	-1.004639	-0.243652	-0.442383	39.746646	24.625114	168.302789
16211		-4.121772	5.768908	6.989167	-0.003361	0.001024	0.004621	-1.003662	-0.253418	-0.455566	39.746759	24.624563	168.305664
16212		-4.120683	5.754997	6.969226	-0.002316	-0.000693	0.001026	-1.006592	-0.252197	-0.452148	39.745318	24.624163	168.305476
16213		-4.124075	5.760685	6.935583	-0.004696	0.000605	0.002913	-1.007568	-0.252197	-0.447998	39.744251	24.624053	168.307354
16214		-4.114934	5.721170	6.963354	-0.003233	-0.002960	0.002900	-1.008789	-0.246582	-0.446045	39.742291	24.621974	168.307214
16215		-4.144863	5.764189	6.991898	-0.004423	-0.002311	0.003844	-1.005859	-0.243652	-0.447510	39.741078	24.620239	168.308368
16216		-4.122466	5.746253	6.916387	-0.005258	0.001384	-0.003321	-1.005127	-0.249268	-0.456055	39.737432	24.622344	168.306996
16217		-4.121019	5.767522	6.990755	-0.008619	0.002407	0.001301	-1.012451	-0.250732	-0.449707	39.734094	24.623619	168.308819
16218		-4.124394	5.772788	6.957481	-0.010599	-0.003194	0.002397	-1.012207	-0.242920	-0.455566	39.727786	24.621627	168.308445
16219		-4.119927	5.752651	6.971609	-0.002797	0.003146	-0.001695	-1.013184	-0.252930	-0.458984	39.727302	24.624325	168.309113
16220		-4.095084	5.742664	6.949989	-0.007157	-0.001158	0.001288	-1.013184	-0.243896	-0.457520	39.723090	24.623636	168.309053
16221		-4.098537	5.748161	6.916484	-0.004905	0.001528	0.001123	-1.007568	-0.239746	-0.453369	39.721696	24.624589	168.310436
16222		-4.148293	5.767136	6.960510	-0.005822	-0.000739	0.002997	-1.011963	-0.242188	-0.456787	39.718671	24.623453	168.311370
16223		-4.143678	5.747227	6.974531	-0.003506	-0.000045	0.001970	-1.000977	-0.245361	-0.460449	39.717986	24.623403	168.312530
16224		-4.118634	5.737412	6.952888	-0.004696	0.000603	0.002914	-1.014648	-0.247314	-0.461426	39.715824	24.622904	168.314015
16225		-4.121968	5.743042	6.919350	-0.005823	-0.000740	0.002997	-1.009277	-0.250000	-0.455078	39.713902	24.622171	168.315392
16226		-4.095280	5.754960	6.971785	-0.003570	0.001946	0.002832	-1.013428	-0.250732	-0.454346	39.712603	24.622296	168.317314
16227		-4.118370	5.736933	6.953439	0.001126	0.001343	-0.000083	-1.008057	-0.248047	-0.452637	39.714390	24.623609	168.318037
16228		-4.118321	5.736949	6.953455	-0.003362	0.001021	0.004623	-1.021484	-0.253174	-0.457764	39.713423	24.622665	168.320373
16229		-4.122607	5.756537	6.939899	-0.003506	-0.000046	0.001971	-1.009766	-0.243652	-0.457275	39.712737	24.622614	168.321533
16230		-4.124304	5.783940	6.980403	-0.005823	-0.000740	0.002998	-1.005371	-0.244385	-0.452148	39.709743	24.621491	168.322432
16231		-4.117935	5.736232	6.954275	-0.007430	0.001758	0.000360	-1.009033	-0.244873	-0.450439	39.706786	24.622824	168.323537
16232		-4.127844	5.789194	6.947064	-0.000064	0.001991	0.000862	-1.008057	-0.246582	-0.453613	39.707124	24.623684	168.324466
16233		-4.141953	5.731689	6.956313	-0.005823	-0.000740	0.002998	-1.004395	-0.244873	-0.459961	39.705202	24.622951	168.325844
16234		-4.114175	5.729911	6.988625	-0.000773	-0.001201	0.004526	-1.014404	-0.248047	-0.456299	39.705350	24.621080	168.327387
16235		-4.121884	5.755455	6.941226	-0.004697	0.000602	0.002916	-1.001221	-0.246094	-0.456299	39.704282	24.620969	168.329265
16236		-4.121728	5.755353	6.941404	-0.002172	0.000372	0.003680	-1.020508	-0.249023	-0.452637	39.703726	24.620100	168.330990
16237		-4.117110	5.735679	6.955219	-0.000982	-0.000277	0.002735	-1.008545	-0.250000	-0.446045	39.704603	24.619668	168.332427
16238		-4.146286	5.765027	6.963452	-0.002172	0.000372	0.003680	-1.011719	-0.242432	-0.455078	39.704051	24.618779	168.333932
16239		-4.137195	5.725717	6.990967	-0.000837	0.000789	0.005389	-1.007813	-0.250000	-0.462402	39.705726	24.617846	168.337084
16240		-4.094223	5.767639	6.993997	-0.004281	-0.001248	0.006498	-1.010986	-0.247803	-0.452393	39.704272	24.615240	168.339610
16241		-4.140109	5.731638	6.957453	-0.001190	0.000648	0.000945	-1.007813	-0.238281	-0.451660	39.704822	24.615871	168.340551
16242		-4.120533	5.755424	6.942054	-0.003571	0.001945	0.002834	-1.018311	-0.248291	-0.442383	39.703572	24.615994	168.342439
16243		-4.121385	5.769060	6.962354	-0.004697	0.000602	0.002916	-1.018799	-0.244629	-0.452637	39.702503	24.615883	168.344317
16244		-4.119357	5.741230	6.922408	-0.004634	-0.001389	0.002054	-1.016357	-0.242432	-0.452393	39.699934	24.614810	168.344319
16245		-4.115733	5.735149	6.956471	-0.003571	0.001945	0.002834	-1.012207	-0.246582	-0.452393	39.699719	24.615321	168.346698
16246		-4.120092	5.754703	6.942913	-0.003507	-0.000046	0.001972	-1.008057	-0.248291	-0.450439	39.698014	24.614893	168.347406
16247		-4.143961	5.750347	6.944893	-0.004697	0.000602	0.002917	-1.011475	-0.247559	-0.454834	39.696946	24.614782	168.349285
16248		-4.143875	5.750082	6.945164	-0.004842	-0.000463	0.000264	-1.008057	-0.242432	-0.448975	39.694073	24.614813	168.349021
16249		-4.139942	5.743993	6.979413	-0.005137	-0.005508	0.007510	-1.010498	-0.237061	-0.452881	39.692656	24.610327	168.350669
16250		-4.095178	5.758162	6.942294	-0.001462	0.003564	0.000016	-1.010498	-0.243896	-0.453369	39.692346	24.612210	168.351925
16251		-4.139749	5.743660	6.979801	-0.007223	0.000833	0.002154	-1.007080	-0.254395	-0.450195	39.689715	24.612480	168.353527
16252		-4.119084	5.753493	6.944514	-0.003299	-0.000972	0.003764	-1.014160	-0.251465	-0.445557	39.688362	24.611014	168.354731
16253		-4.143717	5.763047	6.966620	-0.003300	-0.000972	0.003764	-1.010254	-0.241455	-0.458252	39.688002	24.609899	168.356387
16254		-4.113253	5.719820	6.938534	-0.002317	-0.000695	0.001028	-1.004639	-0.244385	-0.458740	39.686709	24.609547	168.356374
16255		-4.145911	5.755068	6.912968	-0.002028	0.001435	0.006335	-1.014160	-0.249756	-0.454590	39.688000	24.608552	168.360246
16256		-4.115547	5.761086	6.999280	-0.006952	-0.002084	0.003083	-1.014893	-0.248535	-0.467529	39.684246	24.606856	168.360799
16257		-4.142079	5.748811	6.947287	-0.001461	0.003564	0.000017	-1.010742	-0.246094	-0.453613	39.684942	24.609112	168.362464
16258		-4.142984	5.762518	6.967493	-0.003300	-0.000972	0.003764	-1.012695	-0.251709	-0.463867	39.683609	24.607659	168.363832
16259		-4.114328	5.746914	6.979643	-0.003363	0.001018	0.004627	-1.014648	-0.247559	-0.449951	39.683720	24.607105	168.366707
16260		-4.138032	5.742653	6.981647	-0.004427	-0.002315	0.003847	-1.005859	-0.242188	-0.447754	39.681539	24.605024	168.367446
16261		-4.114756	5.760466	7.000255	-0.003571	0.001944	0.002836	-1.003418	-0.247314	-0.459473	39.681324	24.605534	168.369825
16262		-4.122684	5.785883	6.952884	-0.004906	0.001527	0.001128	-1.012695	-0.248047	-0.454834	39.678966	24.606140	168.370815
16263		-4.117368	5.751968	6.946794	-0.007368	-0.000232	-0.000498	-1.013672	-0.256348	-0.459473	39.675537	24.606911	168.370702
16264		-4.113812	5.745673	6.980968	-0.004698	0.000601	0.002919	-1.008789	-0.244385	-0.454102	39.673516	24.606460	168.372150
16265		-4.121556	5.771069	6.933733	-0.005826	-0.000742	0.003002	-1.008057	-0.244385	-0.456543	39.671593	24.605726	168.373529
16266		-4.137278	5.741013	6.983443	-0.005555	-0.003659	0.003929	-1.014160	-0.246582	-0.457031	39.668575	24.603017	168.373806
16267		-4.116579	5.750962	6.948095	-0.002444	0.003286	0.002755	-0.998047	-0.250244	-0.455566	39.669214	24.604149	168.376686
16268		-4.116506	5.750815	6.948259	-0.004635	-0.001390	0.002056	-1.014404	-0.236572	-0.457275	39.666734	24.603142	168.376972
16269		-4.139459	5.732689	6.930106	-0.003571	0.001943	0.002838	-1.016357	-0.239502	-0.455566	39.666519	24.603652	168.379352
16270		-4.116243	5.750647	6.948555	-0.000838	0.000785	0.005392	-1.012207	-0.245850	-0.453125	39.667249	24.602350	168.382135
16271		-4.112495	5.744898	6.982382	0.000352	0.000137	0.004446	-1.014160	-0.251465	-0.457764	39.669304	24.601475	168.384569
16272		-4.131927	5.720964	6.997971	-0.004843	-0.000463	0.000265	-1.010742	-0.242188	-0.450439	39.666510	24.601526	168.384269
16273		-4.140650	5.760335	6.970685	-0.000901	0.002775	0.006256	-1.016846	-0.250000	-0.458496	39.668654	24.601152	168.388642
16274		-4.119896	5.770591	6.935118	-0.000776	-0.001206	0.004528	-1.003662	-0.251221	-0.441895	39.668929	24.599310	168.390109
16275		-4.110790	5.731100	6.962729	-0.004636	-0.001390	0.002057	-1.011719	-0.243164	-0.459961	39.667388	24.598635	168.390770
16276		-4.115953	5.764400	6.969424	-0.003508	-0.000047	0.001974	-1.012939	-0.251465	-0.455322	39.665784	24.598246	168.391436
16277		-4.114004	5.736677	6.929363	-0.003508	-0.000047	0.001975	-1.008301	-0.243408	-0.458252	39.665097	24.598194	168.392597
16278		-4.139630	5.759966	6.971596	-0.003301	-0.000974	0.003766	-1.007324	-0.255859	-0.446533	39.663827	24.596752	168.393896
16279		-4.123469	5.789635	6.922482	-0.003778	0.002870	0.001047	-1.011963	-0.245850	-0.447754	39.663286	24.598325	168.395780
16280		-4.138649	5.745827	6.951799	-0.004699	0.000600	0.002921	-1.012451	-0.245361	-0.457520	39.661316	24.597874	168.397063
16281		-4.123002	5.789298	6.923042	-0.005142	-0.005513	0.007513	-1.007324	-0.242676	-0.462646	39.659897	24.593386	168.398712
16282		-4.112887	5.735925	6.930648	-0.003716	0.000880	0.000184	-1.009766	-0.254883	-0.454346	39.657993	24.594079	168.399166
16283		-4.157383	5.721390	6.968215	-0.004844	-0.000463	0.000266	-1.012207	-0.249756	-0.450439	39.656127	24.594468	168.399330
16284		-4.118031	5.768820	6.937698	-0.005764	-0.002733	0.002140	-0.998291	-0.251953	-0.452881	39.652848	24.592852	168.399006
16285		-4.138295	5.758340	6.973731	-0.007162	-0.001158	0.001295	-1.017578	-0.245850	-0.454834	39.649744	24.592558	168.399390
16286		-4.136252	5.730536	6.933800	-0.003301	-0.000975	0.003767	-1.011719	-0.248779	-0.458008	39.648506	24.591125	168.400667
16287		-4.137900	5.757835	6.974382	-0.007225	0.000831	0.002160	-1.010742	-0.248779	-0.455811	39.645874	24.591393	168.402271
16288		-4.138516	5.771487	6.994794	-0.001759	-0.001488	0.007267	-1.005127	-0.247314	-0.458740	39.646145	24.588458	168.405077
16289		-4.108156	5.728401	6.966503	-0.001460	0.003565	0.000020	-1.005127	-0.247559	-0.451904	39.646841	24.590713	168.406741
16290		-4.113423	5.761916	6.972970	-0.000776	-0.001208	0.004529	-1.008301	-0.241211	-0.453125	39.647175	24.588907	168.408346
16291		-4.137065	5.757861	6.974856	-0.003157	0.000087	0.006423	-1.011719	-0.248779	-0.451904	39.647610	24.587288	168.411718
16292		-4.116372	5.767945	6.939410	-0.002381	0.001295	0.001894	-1.011963	-0.242432	-0.453369	39.646913	24.587531	168.412965
16293		-4.111871	5.748192	6.953173	-0.000983	-0.000280	0.002738	-1.006104	-0.245361	-0.449951	39.647787	24.587097	168.414402
16294		-4.139180	5.750037	6.921183	-0.002174	0.000367	0.003685	-1.015625	-0.245117	-0.453613	39.647423	24.586276	168.416149
16295		-4.135332	5.744163	6.955147	-0.001760	-0.001489	0.007268	-1.008301	-0.250244	-0.459473	39.648565	24.583653	168.419298
16296		-4.133935	5.730470	6.935236	-0.004286	-0.001256	0.006506	-1.002930	-0.243896	-0.460205	39.647299	24.581105	168.421828
16297		-4.140138	5.777747	6.961831	0.000797	0.006249	-0.000144	-1.005371	-0.243652	-0.451172	39.649705	24.584605	168.424492
16298		-4.135788	5.758106	6.975412	-0.000777	-0.001208	0.004530	-1.015869	-0.250000	-0.448975	39.650066	24.582810	168.426172
16299		-4.139950	5.777803	6.961897	-0.004700	0.000599	0.002923	-1.012939	-0.243652	-0.448975	39.648996	24.582696	168.428052
16300		-4.114890	5.768070	6.940185	-0.002174	0.000367	0.003685	-1.009277	-0.234131	-0.457275	39.648651	24.581871	168.429621
16301		-4.135243	5.757884	6.975917	-0.003509	-0.000048	0.001976	-1.010254	-0.248779	-0.454834	39.647964	24.581817	168.430782
16302		-4.138534	5.763737	6.942308	-0.003303	-0.000976	0.003768	-1.011719	-0.248535	-0.456299	39.646773	24.580393	168.432195
16303		-4.109860	5.748083	6.954452	-0.002112	-0.001623	0.002821	-1.004639	-0.248779	-0.449463	39.646793	24.579336	168.433133
16304		-4.138181	5.763539	6.942682	-0.004969	0.003517	0.001998	-1.013184	-0.254883	-0.456543	39.645055	24.580558	168.435314
16305		-4.114840	5.781354	6.961293	-0.002890	-0.002832	0.007351	-1.008545	-0.239990	-0.459961	39.645342	24.577312	168.437962
16306		-4.134099	5.757618	6.976815	0.001335	0.000414	0.001709	-1.011719	-0.242676	-0.455078	39.646647	24.577280	168.438926
16307		-4.140983	5.769549	6.909240	-0.004700	0.000599	0.002924	-1.012451	-0.245361	-0.457764	39.645577	24.577165	168.440807
16308		-4.109880	5.761541	6.975369	-0.003510	-0.000048	0.001977	-1.005615	-0.247559	-0.459717	39.644086	24.576814	168.441678
16309		-4.137183	5.763390	6.943401	-0.000839	0.000780	0.005395	-1.011963	-0.244629	-0.458984	39.645756	24.575876	168.444830
16310		-4.108527	5.747846	6.955435	-0.002113	-0.001623	0.002821	-1.011719	-0.243164	-0.458496	39.644985	24.574551	168.445593
16311		-4.133111	5.757508	6.977491	-0.001968	-0.000562	0.005478	-1.015137	-0.250000	-0.458008	39.645801	24.572990	168.448246
16312		-4.109770	5.775334	6.996083	-0.004700	0.000599	0.002925	-1.012207	-0.243652	-0.456543	39.643942	24.572591	168.449839
16313		-4.132931	5.757295	6.977774	-0.001459	0.003565	0.000022	-1.002197	-0.244873	-0.451660	39.644639	24.574847	168.451503
16314		-4.136459	5.763325	6.943886	-0.000901	0.002769	0.006261	-1.007324	-0.241211	-0.455566	39.645997	24.574180	168.455525
16315		-4.107846	5.747768	6.955902	-0.003303	-0.000977	0.003769	-1.017090	-0.253906	-0.457520	39.645633	24.573061	168.457182
16316		-4.112895	5.781231	6.962544	-0.002175	0.000366	0.003687	-1.006348	-0.248291	-0.456787	39.645349	24.572284	168.458974
16317		-4.131454	5.743505	6.957994	-0.004700	0.000599	0.002925	-1.007813	-0.243164	-0.456299	39.644278	24.572169	168.460855
16318		-4.108141	5.761221	6.976658	-0.004494	-0.000330	0.004717	-1.010742	-0.251465	-0.447510	39.642764	24.570721	168.462970
16319		-4.130871	5.743291	6.958517	-0.003098	-0.001906	0.005561	-1.001709	-0.252197	-0.457031	39.642725	24.568538	168.465123
16320		-4.131714	5.757041	6.978704	-0.000329	0.004907	-0.000060	-1.012695	-0.248291	-0.450928	39.643519	24.571154	168.466725
16321		-4.110963	5.767114	6.943306	-0.005150	-0.005519	0.007516	-1.015869	-0.242676	-0.456787	39.642095	24.566662	168.468374
16322		-4.130298	5.743175	6.958953	-0.001458	0.003565	0.000022	-1.007568	-0.245117	-0.455078	39.642028	24.568608	168.469564
16323		-4.130279	5.743088	6.959037	-0.003304	-0.000977	0.003769	-1.007324	-0.246582	-0.456299	39.641664	24.567489	168.471221
16324		-4.134375	5.762761	6.945596	-0.003304	-0.000977	0.003770	-1.012207	-0.248535	-0.458740	39.640548	24.566104	168.472605
16325		-4.109243	5.753088	6.923870	-0.002175	0.000365	0.003688	-1.007080	-0.251221	-0.458008	39.641039	24.565607	168.474762
16326		-4.106385	5.760911	6.977948	-0.000779	-0.001211	0.004531	-1.015137	-0.250488	-0.463135	39.641498	24.563865	168.476430
16327		-4.132822	5.748938	6.925894	-0.006097	0.002175	0.002083	-1.012451	-0.249268	-0.451172	39.639720	24.564754	168.478536
16328		-4.133479	5.762654	6.946218	0.000618	-0.002787	0.005375	-1.009033	-0.243652	-0.450195	39.640887	24.561984	168.479846
16329		-4.133115	5.762646	6.946441	-0.005830	-0.000743	0.003009	-1.011230	-0.245117	-0.457764	39.638962	24.561247	168.481228
16330		-4.108134	5.752743	6.924815	-0.003716	0.000881	0.000187	-1.010010	-0.243652	-0.451904	39.637212	24.561969	168.481520
16331		-4.105483	5.760120	6.979131	-0.008356	-0.000510	0.002248	-1.008789	-0.246338	-0.456055	39.633725	24.561613	168.482627
16332		-4.129285	5.755599	6.981330	-0.007021	-0.000097	0.003957	-1.001953	-0.238770	-0.453125	39.630687	24.560533	168.484359
16333		-4.132550	5.761346	6.947854	-0.003449	-0.002037	0.001112	-1.006836	-0.244873	-0.453613	39.629527	24.559918	168.484301
16334		-4.129709	5.768949	7.002089	-0.003305	-0.000978	0.003771	-1.011963	-0.252197	-0.455078	39.628439	24.558524	168.485723
16335		-4.132855	5.774824	6.968581	-0.005625	-0.001674	0.004801	-1.013916	-0.242920	-0.453369	39.626837	24.556721	168.487601
16336		-4.131618	5.760849	6.948821	-0.004579	-0.003380	0.001195	-1.011963	-0.249023	-0.452393	39.624106	24.555207	168.486558
16337		-4.130574	5.746950	6.928885	-0.001191	0.000647	0.000949	-1.001953	-0.244629	-0.452393	39.624655	24.555836	168.487499
16338		-4.106454	5.750897	6.927344	-0.005831	-0.000744	0.003010	-1.012451	-0.245117	-0.455078	39.622023	24.554837	168.488440
16339		-4.126808	5.740649	6.963106	-0.002236	0.002352	0.004556	-1.015869	-0.248535	-0.452881	39.622984	24.554901	168.491816
16340		-4.149783	5.722818	6.944760	-0.002175	0.000363	0.003689	-1.015869	-0.246826	-0.454590	39.622769	24.554122	168.493476
16341		-4.135174	5.780146	6.936031	-0.003305	-0.000979	0.003771	-1.019775	-0.243164	-0.457031	39.622405	24.553002	168.495133
16342		-4.105642	5.750797	6.927908	-0.000840	0.000776	0.005399	-1.008545	-0.247803	-0.452637	39.623370	24.551771	168.497860
16343		-4.133991	5.766344	6.916099	-0.005113	0.002457	-0.000655	-1.012207	-0.247070	-0.449951	39.621651	24.553785	168.498750
16344		-4.105766	5.750513	6.928070	-0.000061	0.001989	0.000867	-1.014893	-0.241455	-0.450439	39.622368	24.554770	168.499618
16345		-4.102961	5.758089	6.982289	-0.007946	-0.002370	0.005833	-1.011475	-0.253662	-0.456055	39.619527	24.552283	168.501717
16346		-4.107104	5.777567	6.969001	-0.003717	0.000881	0.000188	-1.012207	-0.239990	-0.451172	39.617833	24.553027	168.501863
16347		-4.106226	5.763617	6.949011	-0.004763	0.002586	0.003796	-1.011475	-0.252930	-0.453857	39.617233	24.553471	168.504964
16348		-4.126629	5.753379	6.984730	-0.003367	0.001009	0.004639	-1.011719	-0.250488	-0.449219	39.616663	24.552643	168.507353
16349		-4.129865	5.759327	6.951125	-0.004496	-0.000333	0.004721	-1.009033	-0.243164	-0.447510	39.615915	24.551461	168.509730
16350		-4.125259	5.739504	6.964968	-0.002176	0.000363	0.003690	-1.018799	-0.248291	-0.461670	39.615732	24.550678	168.511193
16351		-4.158724	5.788587	6.959728	-0.003511	-0.000049	0.001980	-1.012695	-0.244873	-0.459473	39.615043	24.550623	168.512354
16352		-4.104364	5.749294	6.929912	-0.006962	-0.002087	0.003093	-1.010742	-0.243408	-0.451416	39.611601	24.549040	168.513138
16353		-4.129957	5.772416	6.972293	-0.003572	0.001939	0.002848	-1.010742	-0.244629	-0.455811	39.611384	24.549546	168.515519
16354		-4.129046	5.758554	6.952251	-0.003572	0.001939	0.002848	-1.014648	-0.243896	-0.448730	39.610506	24.549792	168.517598
16355		-4.105800	5.776196	6.970905	-0.004641	-0.001392	0.002062	-1.010986	-0.240723	-0.454346	39.608962	24.549114	168.518260
16356		-4.148431	5.734202	6.968194	-0.006038	0.000185	0.001220	-1.008789	-0.240967	-0.449707	39.606051	24.549148	168.518714
16357		-4.124280	5.737950	6.966828	-0.007023	-0.000099	0.003962	-1.007568	-0.242188	-0.452881	39.603741	24.548347	168.520817
16358		-4.104436	5.761408	6.951900	-0.008359	-0.000511	0.002252	-1.012451	-0.246582	-0.452148	39.599599	24.547722	168.521634
16359		-4.124791	5.750755	6.987976	-0.009550	0.000135	0.003202	-1.011963	-0.246582	-0.455322	39.595727	24.547302	168.523462
16360		-4.128297	5.756389	6.954488	-0.002731	0.001166	-0.002552	-1.013916	-0.239014	-0.448975	39.594133	24.549200	168.522503
16361		-4.129041	5.769808	6.974994	-0.007948	-0.002373	0.005836	-1.006104	-0.241455	-0.452881	39.591291	24.546711	168.524603
16362		-4.151873	5.751532	6.957113	-0.008504	-0.001569	-0.000406	-1.015625	-0.244873	-0.464844	39.586360	24.546574	168.523676
16363		-4.100359	5.753211	6.987837	-0.004908	0.001527	0.001140	-1.002441	-0.245605	-0.458740	39.584964	24.547522	168.525062
16364		-4.152681	5.764527	6.977930	-0.005894	0.001241	0.003882	-1.015137	-0.242432	-0.452881	39.582888	24.547182	168.527896
16365		-4.123420	5.734749	6.969972	-0.007434	0.001761	0.000381	-0.999268	-0.249268	-0.455078	39.579930	24.548511	168.529007
16366		-4.127721	5.754157	6.956677	-0.004642	-0.001393	0.002064	-1.013916	-0.247559	-0.457520	39.577764	24.547624	168.529390
16367		-4.131828	5.773780	6.943322	-0.003307	-0.000982	0.003773	-1.004150	-0.249023	-0.458008	39.577398	24.546503	168.531048
16368		-4.131038	5.759811	6.923303	-0.005379	0.005377	-0.001574	-1.013428	-0.241699	-0.458496	39.575217	24.549970	168.532505
16369		-4.099317	5.737695	6.969237	-0.005834	-0.000747	0.003014	-1.012207	-0.247559	-0.449463	39.573290	24.549230	168.533889
16370		-4.130942	5.759216	6.923855	-0.003452	-0.002039	0.001114	-1.005615	-0.250244	-0.455811	39.571511	24.548365	168.533436
16371		-4.103242	5.756999	6.956255	-0.005834	-0.000748	0.003014	-1.013916	-0.250977	-0.453613	39.569583	24.547624	168.534820
16372		-4.127156	5.752621	6.958283	-0.004908	0.001526	0.001141	-1.012207	-0.250488	-0.453369	39.567591	24.548388	168.535746
16373		-4.127152	5.752310	6.958542	-0.004848	-0.000462	0.000273	-1.017334	-0.249268	-0.452881	39.565723	24.548774	168.535913
16374		-4.126981	5.752088	6.958827	-0.004498	-0.000337	0.004724	-1.003418	-0.248291	-0.454346	39.564376	24.547360	168.537627
16375		-4.122464	5.732179	6.972651	-0.003573	0.001936	0.002852	-1.013672	-0.239502	-0.449707	39.564158	24.547865	168.540008
16376		-4.125766	5.738014	6.939148	-0.006965	-0.002090	0.003097	-1.011719	-0.247803	-0.448730	39.560774	24.546263	168.540551
16377		-4.122014	5.731614	6.973382	-0.005834	-0.000748	0.003015	-1.015381	-0.253906	-0.447021	39.558847	24.545522	168.541934
16378		-4.146032	5.727335	6.975266	-0.001456	0.003565	0.000028	-1.004883	-0.248291	-0.459473	39.558951	24.547523	168.542612
16379		-4.125459	5.737256	6.939956	-0.008156	-0.001445	0.004048	-1.004639	-0.244141	-0.451416	39.555786	24.546097	168.544217
16380		-4.106364	5.774575	6.945191	-0.004499	-0.000338	0.004725	-1.006348	-0.242676	-0.451904	39.554455	24.544749	168.546583
16381		-4.149816	5.746452	6.962536	-0.004704	0.000594	0.002934	-1.011719	-0.251221	-0.452393	39.553382	24.544631	168.548465
16382		-4.100588	5.740788	6.939193	-0.004234	-0.003258	0.005648	-1.009277	-0.245850	-0.449951	39.551903	24.541608	168.549716
16383		-4.128611	5.756384	6.927600	-0.003513	-0.000052	0.001984	-1.010498	-0.248047	-0.453857	39.551213	24.541551	168.550878
16384		-4.125122	5.749883	6.961751	-0.007520	-0.001282	-0.003145	-1.004883	-0.245361	-0.456787	39.546413	24.542606	168.548630
16385		-4.125917	5.763068	6.982410	-0.008217	0.000541	0.004919	-1.005859	-0.252686	-0.454102	39.543719	24.541741	168.551455
16386		-4.124829	5.749134	6.962543	-0.001071	-0.003330	-0.000788	-1.019287	-0.241699	-0.446289	39.542763	24.541096	168.549818
16387		-4.100575	5.753082	6.961067	-0.005690	0.000306	0.005678	-1.009521	-0.239014	-0.458008	39.541631	24.539850	168.552917
16388		-4.123496	5.735121	6.942887	-0.004704	0.000593	0.002935	-1.014404	-0.246338	-0.455811	39.539977	24.539452	168.554491
16389		-4.120758	5.742483	6.997152	-0.005895	0.001238	0.003887	-1.007080	-0.244385	-0.460449	39.538521	24.539272	168.557094
16390		-4.104410	5.772339	6.948204	-0.002177	0.000357	0.003694	-1.012695	-0.241699	-0.450684	39.538451	24.538596	168.559232
16391		-4.147107	5.730648	6.945180	-0.002382	0.001290	0.001903	-1.005615	-0.244629	-0.456055	39.538616	24.539162	168.560892
16392		-4.098820	5.738851	6.941840	-0.001768	-0.001508	0.007277	-1.010010	-0.242432	-0.458008	39.539192	24.536315	168.563826
16393		-4.123559	5.748502	6.963817	-0.001456	0.003565	0.000030	-1.017090	-0.244141	-0.456055	39.539888	24.538569	168.565489
16394		-4.127853	5.768317	6.950225	-0.000782	-0.001221	0.004534	-1.004883	-0.248291	-0.461182	39.540529	24.536857	168.567314
16395		-4.131041	5.774352	6.916652	-0.005836	-0.000750	0.003018	-1.017090	-0.248047	-0.451660	39.538601	24.536116	168.568698
16396		-4.126527	5.754332	6.930546	-0.003513	-0.000052	0.001985	-1.006836	-0.243408	-0.457764	39.537375	24.535891	168.569612
16397		-4.127276	5.767859	6.950947	-0.003513	-0.000052	0.001985	-1.005371	-0.249023	-0.456543	39.536685	24.535834	168.570774
16398		-4.126277	5.753889	6.931062	-0.005980	-0.001804	0.000357	-1.011963	-0.245850	-0.456299	39.533434	24.535450	168.570413
16399		-4.121839	5.733725	6.945024	-0.004849	-0.000462	0.000275	-1.014160	-0.251709	-0.455566	39.531566	24.535836	168.570580
16400		-4.126821	5.766932	6.951986	-0.006823	-0.001038	0.005761	-1.007813	-0.248291	-0.452148	39.529053	24.533787	168.572826
16401		-4.121309	5.733229	6.945748	-0.003454	-0.002040	0.001115	-1.010010	-0.249023	-0.460449	39.527891	24.533169	168.572768
16402		-4.099081	5.764419	6.984595	-0.003983	0.003801	-0.000727	-1.011719	-0.242188	-0.448242	39.526511	24.535653	168.573923
16403		-4.122319	5.746427	6.966263	-0.003514	-0.000053	0.001985	-1.016602	-0.245850	-0.455811	39.525821	24.535596	168.575085
16404		-4.125720	5.752403	6.932627	-0.003574	0.001934	0.002856	-1.010254	-0.247803	-0.457520	39.525076	24.535851	168.576994
16405		-4.118664	5.740090	7.000347	-0.002178	0.000356	0.003695	-1.013916	-0.242432	-0.450928	39.525563	24.535352	168.579151
16406		-4.121955	5.746237	6.966636	-0.000987	-0.000289	0.002743	-1.011230	-0.251709	-0.454834	39.525918	24.534708	168.580274
16407		-4.126061	5.766029	6.953187	-0.003309	-0.000986	0.003777	-1.011230	-0.245361	-0.447754	39.525551	24.533585	168.581932
16408		-4.120848	5.732552	6.946580	-0.000179	0.005961	0.002612	-1.004883	-0.252441	-0.453857	39.527392	24.535755	168.585201
16409		-4.126933	5.779626	6.973454	-0.005837	-0.000751	0.003019	-1.017090	-0.249268	-0.453857	39.525463	24.535013	168.586586
16410		-4.121388	5.745928	6.967225	-0.003190	-0.004960	0.002036	-1.011963	-0.246338	-0.453125	39.523657	24.532608	168.585298
16411		-4.101418	5.769633	6.952218	-0.004705	0.000592	0.002938	-1.010498	-0.250732	-0.452637	39.522583	24.532489	168.587181
16412		-4.120157	5.731931	6.947503	-0.002382	0.001289	0.001904	-1.015381	-0.243408	-0.455566	39.522253	24.532869	168.588365
16413		-4.146682	5.768748	7.010010	-0.004705	0.000591	0.002938	-1.007813	-0.248047	-0.460205	39.521179	24.532749	168.590248
16414		-4.120823	5.745276	6.968097	-0.003514	-0.000053	0.001986	-1.014404	-0.245117	-0.453857	39.519997	24.532531	168.591376
16415		-4.125123	5.764881	6.954695	-0.003718	0.000880	0.000195	-1.008301	-0.245117	-0.452393	39.518983	24.533540	168.592042
16416		-4.118251	5.752498	7.022343	-0.000060	0.001987	0.000871	-1.010254	-0.241699	-0.451416	39.519895	24.534584	168.593143
16417		-4.125211	5.764678	6.954810	-0.005956	0.003222	0.004762	-1.010742	-0.251709	-0.456299	39.518910	24.534963	168.596967
16418		-4.148191	5.746794	6.936550	-0.003310	-0.000987	0.003777	-1.011230	-0.247314	-0.454346	39.518058	24.533658	168.598300
16419		-4.100750	5.768544	6.953516	-0.002119	-0.001632	0.002825	-1.011719	-0.240234	-0.451416	39.518074	24.532597	168.599237
16420		-4.148624	5.760357	6.957105	-0.002383	0.001289	0.001905	-1.013184	-0.251465	-0.454346	39.517754	24.532947	168.600597
16421		-4.123599	5.750668	6.935328	-0.003310	-0.000987	0.003778	-1.011475	-0.249756	-0.460449	39.517386	24.531823	168.602255
16422		-4.119928	5.744406	6.969344	-0.003514	-0.000053	0.001986	-1.011475	-0.253174	-0.454102	39.516234	24.531643	168.603125
16423		-4.143041	5.726445	6.951072	-0.004910	0.001525	0.001148	-1.002441	-0.243652	-0.451904	39.514837	24.532588	168.604512
16424		-4.119855	5.743970	6.969746	-0.002323	-0.000698	0.001034	-1.010986	-0.240234	-0.448242	39.514068	24.532448	168.604603
16425		-4.147169	5.745856	6.937938	-0.005838	-0.000752	0.003021	-1.010498	-0.248291	-0.453369	39.512139	24.531705	168.605988
16426		-4.143474	5.739426	6.972102	-0.005838	-0.000752	0.003021	-1.004395	-0.249023	-0.456299	39.509738	24.530738	168.606927
16427		-4.122705	5.749357	6.936946	-0.005838	-0.000752	0.003021	-1.008789	-0.250977	-0.452148	39.507808	24.529995	168.608312
16428		-4.123386	5.762779	6.957466	-0.004706	0.000590	0.002940	-1.003174	-0.256836	-0.460205	39.506287	24.529765	168.609889
16429		-4.122356	5.748893	6.937538	-0.004647	-0.001396	0.002068	-1.014648	-0.252686	-0.457031	39.504741	24.529084	168.610553
16430		-4.123077	5.762253	6.958085	-0.006042	0.000182	0.001230	-1.009033	-0.242188	-0.453125	39.502060	24.529362	168.611167
16431		-4.146179	5.744184	6.939914	-0.004851	-0.000462	0.000277	-1.010742	-0.250000	-0.458252	39.500190	24.529747	168.611335
16432		-4.118620	5.741860	6.972214	-0.002323	-0.000698	0.001034	-1.009033	-0.244629	-0.464355	39.499436	24.529598	168.611650
16433		-4.123338	5.775260	6.979195	-0.005167	-0.005543	0.007524	-1.010498	-0.245605	-0.453857	39.498002	24.525096	168.613304
16434		-4.149707	5.763527	6.927210	-0.003982	0.003801	-0.000723	-1.004150	-0.250244	-0.450439	39.496697	24.527606	168.614866
16435		-4.117055	5.727746	6.952791	-0.003311	-0.000989	0.003779	-1.003906	-0.245605	-0.448486	39.496329	24.526482	168.616524
16436		-4.121998	5.761193	6.959602	-0.002179	0.000353	0.003698	-1.008789	-0.248291	-0.455811	39.496382	24.525820	168.618141
16437		-4.116716	5.727666	6.953058	-0.002383	0.001288	0.001907	-1.008301	-0.243408	-0.456543	39.496547	24.526385	168.619801
16438		-4.145767	5.757134	6.961475	-0.000843	0.000761	0.005408	-1.010742	-0.238770	-0.454102	39.497781	24.525303	168.622901
16439		-4.120579	5.747537	6.939717	-0.004444	-0.002331	0.003860	-1.006348	-0.252930	-0.451416	39.496557	24.523556	168.624061
16440		-4.120361	5.747642	6.939760	0.002613	0.002801	0.004292	-1.012451	-0.242676	-0.447266	39.499887	24.523750	168.627166
16441		-4.120319	5.747756	6.939690	-0.003574	0.001932	0.002860	-1.016846	-0.242676	-0.457764	39.499668	24.524252	168.629548
16442		-4.121082	5.761489	6.959899	0.001481	0.001459	0.004373	-1.011963	-0.251221	-0.456543	39.502136	24.523755	168.632107
16443		-4.120828	5.761675	6.959895	-0.001976	-0.000582	0.005489	-1.006592	-0.249756	-0.454102	39.502945	24.522188	168.634759
16444		-4.140303	5.737882	6.975257	-0.001047	0.001695	0.003617	-1.005615	-0.245850	-0.455811	39.503882	24.522205	168.637060
16445		-4.119535	5.748205	6.939783	-0.000784	-0.001226	0.004536	-1.010986	-0.248047	-0.454346	39.505074	24.520700	168.638991
16446		-4.120168	5.761966	6.960045	-0.001047	0.001695	0.003617	-1.003418	-0.243164	-0.454346	39.506008	24.520695	168.641476
16447		-4.143158	5.744385	6.941552	-0.000843	0.000760	0.005409	-1.002197	-0.250000	-0.462646	39.507672	24.519750	168.644627
16448		-4.115397	5.742547	6.973552	0.002875	-0.000121	0.005212	-1.010986	-0.249756	-0.460449	39.510886	24.518434	168.647597
16449		-4.119548	5.762904	6.959636	0.006273	0.003905	0.004969	-1.005615	-0.245117	-0.453369	39.517062	24.519039	168.651794
16450		-4.138429	5.725957	6.954220	0.006128	0.002854	0.002305	-1.012695	-0.245361	-0.455566	39.522046	24.520044	168.654186
16451		-4.143264	5.760083	6.960525	0.004617	-0.001585	0.010506	-1.008545	-0.245605	-0.464844	39.527476	24.516203	168.658873
16452		-4.138522	5.741120	6.973649	0.008944	0.004717	0.008391	-1.009766	-0.245605	-0.449951	39.535610	24.515817	168.665248
16453		-4.093714	5.756390	6.935695	0.010338	0.003138	0.009230	-1.012451	-0.248291	-0.444824	39.544846	24.514527	168.671207
16454		-4.119124	5.780903	6.977011	0.012806	0.004885	0.010861	-1.015625	-0.247559	-0.454590	39.555711	24.513179	168.677733
16455		-4.121400	5.774713	6.922100	0.012864	0.002898	0.009990	-1.001953	-0.245361	-0.462402	39.566507	24.511504	168.683964
16456		-4.113434	5.749911	6.968641	0.010075	0.006057	0.008313	-1.002441	-0.247314	-0.453613	39.575509	24.511744	168.690722
16457		-4.116522	5.757121	6.934178	0.009464	-0.001127	0.010235	-1.014404	-0.247559	-0.455078	39.583736	24.508200	168.695457
16458		-4.140226	5.754195	6.935173	0.011207	0.007397	0.008233	-1.008301	-0.244385	-0.453125	39.593594	24.509021	168.702331
16459		-4.116878	5.773084	6.952775	0.011670	0.003540	0.010947	-1.003174	-0.244873	-0.449707	39.604005	24.507276	168.709283
16460		-4.115679	5.760562	6.931820	0.009143	0.003778	0.010190	-1.021973	-0.249023	-0.452881	39.612470	24.505750	168.715641
16461		-4.116251	5.775357	6.951259	0.011467	0.004473	0.009157	-1.009766	-0.241699	-0.449219	39.622559	24.505069	168.722098
16462		-4.139241	5.758730	6.931996	0.008940	0.004712	0.008398	-1.019531	-0.249268	-0.456055	39.630699	24.504536	168.727606
16463		-4.114984	5.763774	6.929563	0.010333	0.003131	0.009240	-1.010742	-0.238770	-0.458008	39.639931	24.503230	168.733564
16464		-4.143008	5.780616	6.916973	0.010189	0.002079	0.006575	-1.015137	-0.250244	-0.451660	39.647991	24.502270	168.737701
16465		-4.118661	5.785622	6.914617	0.009199	0.001790	0.009322	-1.010986	-0.248047	-0.448486	39.656366	24.500341	168.743159
16466		-4.110456	5.760829	6.961376	0.009486	0.003893	0.014653	-1.006348	-0.245361	-0.454346	39.665961	24.497211	168.751202
16467		-4.117791	5.787798	6.913314	0.008854	0.001672	0.004865	-1.007813	-0.253662	-0.457764	39.673221	24.496859	168.754452
16468		-4.117626	5.788324	6.912972	0.000287	0.002103	0.005331	-1.006836	-0.247314	-0.454346	39.675391	24.496469	168.757932
16469		-4.121750	5.808153	6.899431	-0.004707	0.000598	0.002938	-1.012695	-0.258789	-0.453125	39.674316	24.496347	168.759817
16470		-4.137098	5.764228	6.928704	-0.005983	-0.001794	0.000354	-1.013184	-0.249268	-0.450684	39.671254	24.496039	168.758866
16471		-4.112841	5.767849	6.927444	-0.006973	-0.002083	0.003100	-1.012207	-0.253662	-0.445068	39.668466	24.494676	168.759751
16472		-4.117859	5.801090	6.934303	-0.002584	0.002226	0.000112	-1.002930	-0.242188	-0.459229	39.667964	24.496129	168.759881
16473		-4.112755	5.767297	6.927954	-0.005983	-0.001794	0.000354	-1.008057	-0.245361	-0.452148	39.665239	24.495898	168.759551
16474		-4.112529	5.767017	6.928322	-0.005697	0.000308	0.005686	-1.004639	-0.253662	-0.454102	39.663759	24.494548	168.762910
16475		-4.137231	5.776607	6.950412	-0.001191	0.000646	0.000953	-1.015137	-0.247803	-0.455322	39.664307	24.495174	168.763851
16476		-4.105411	5.754637	6.996187	-0.002181	0.000357	0.003699	-1.007813	-0.250732	-0.454590	39.664462	24.494585	168.765642
16477		-4.112083	5.766894	6.928689	-0.002181	0.000357	0.003699	-1.013184	-0.250732	-0.460205	39.664947	24.494079	168.767798
16478		-4.141073	5.796466	6.937024	0.000143	0.001051	0.002666	-1.004395	-0.249268	-0.459229	39.666345	24.494193	168.769545
16479		-4.136540	5.776715	6.950734	-0.003113	-0.001919	0.005574	-1.010986	-0.246826	-0.454590	39.666293	24.491998	168.771695
16480		-4.088267	5.784783	6.947373	0.000086	0.003037	0.003538	-1.020752	-0.249268	-0.459229	39.668166	24.492660	168.774852
16481		-4.131284	5.743526	6.943972	0.003601	0.003085	0.001551	-1.010498	-0.246582	-0.454834	39.671987	24.494144	168.777064
16482		-4.136172	5.777180	6.950566	-0.003056	-0.003904	0.004702	-1.010010	-0.254150	-0.459717	39.671132	24.491263	168.777748
16483		-4.111667	5.781309	6.949024	0.000545	-0.000819	0.006254	-1.006836	-0.244873	-0.457031	39.673495	24.489304	168.780668
16484		-4.110500	5.767873	6.928813	0.000344	0.000116	0.004460	-1.008789	-0.254395	-0.454346	39.675224	24.488360	168.783088
16485		-4.111047	5.781849	6.948941	0.001679	0.000521	0.006173	-1.009766	-0.248291	-0.458496	39.678444	24.487021	168.786508
16486		-4.138214	5.784283	6.916777	0.000344	0.000116	0.004460	-1.004883	-0.246582	-0.446045	39.680176	24.486062	168.788679
16487		-4.137183	5.770840	6.896493	0.001478	0.001456	0.004379	-1.010498	-0.246094	-0.454834	39.683077	24.485792	168.791606
16488		-4.110397	5.782910	6.948443	0.007663	0.002313	0.005819	-1.014160	-0.245361	-0.465088	39.689634	24.485220	168.795215
16489		-4.134050	5.779604	6.949814	0.002022	0.000636	0.010634	-1.008301	-0.249268	-0.452637	39.693965	24.482298	168.800842
16490		-4.133689	5.780036	6.949670	0.001478	0.001455	0.004380	-1.015137	-0.256836	-0.450928	39.696557	24.481946	168.803816
16491		-4.109577	5.784477	6.947624	0.006271	0.003893	0.004979	-1.008545	-0.245117	-0.459229	39.702729	24.482530	168.808014
16492		-4.112853	5.791269	6.913347	0.006528	0.000972	0.005901	-1.004639	-0.247070	-0.453613	39.708445	24.481392	168.811092
16493		-4.132475	5.768100	6.928242	0.003888	0.005185	0.006885	-1.008545	-0.248535	-0.452393	39.713851	24.481847	168.816732
16494		-4.131535	5.755045	6.907581	0.006471	0.002957	0.006774	-1.008057	-0.245605	-0.459961	39.720041	24.481255	168.821203
16495		-4.128840	5.763284	6.961094	0.005079	0.004538	0.005933	-1.009766	-0.247070	-0.453125	39.725830	24.481773	168.826122
16496		-4.136127	5.790257	6.913026	0.013255	0.001007	0.013601	-1.003906	-0.243164	-0.443359	39.736953	24.477832	168.833341
16497		-4.107613	5.775782	6.923935	0.013473	0.010057	0.008087	-1.008301	-0.250488	-0.454102	39.748904	24.479990	168.841524
16498		-4.112424	5.810572	6.929588	0.011976	-0.001385	0.011018	-1.010986	-0.249268	-0.458008	39.758377	24.475886	168.846062
16499		-4.130861	5.774261	6.924071	0.009137	0.003764	0.010206	-1.012695	-0.252197	-0.454102	39.767218	24.474494	168.852737
16500		-4.155405	5.785206	6.945152	0.012795	0.004859	0.010889	-1.014648	-0.246338	-0.447754	39.778189	24.473254	168.859881
16501		-4.133596	5.783073	6.888392	0.016652	0.005019	0.013367	-1.010254	-0.247559	-0.449951	39.792178	24.471253	168.868590
16502		-4.126254	5.772758	6.954775	0.020566	0.003193	0.014975	-1.008057	-0.248047	-0.452881	39.808132	24.467676	168.876741
16503		-4.114973	5.852197	6.930807	0.028137	0.002460	0.017268	-1.009766	-0.251709	-0.456299	39.829053	24.463113	168.886302
16504		-4.155773	5.785553	6.885815	0.017783	0.006353	0.013294	-1.012451	-0.251465	-0.447021	39.843619	24.461649	168.895271
16505		-4.103889	5.789160	6.914965	0.016790	0.006065	0.016044	-1.011963	-0.244141	-0.449219	39.858395	24.459116	168.905692
16506		-4.151331	5.783180	6.917164	0.019426	0.001847	0.015068	-1.007813	-0.251221	-0.445068	39.873495	24.454913	168.913286
16507		-4.108520	5.840172	6.939226	0.017837	0.004362	0.012429	-1.008301	-0.248535	-0.453369	39.887861	24.452953	168.921272
16508		-4.109758	5.820420	6.863975	0.015567	0.001685	0.012592	-1.007324	-0.252197	-0.447021	39.900239	24.449649	168.927736
16509		-4.125618	5.792135	6.912258	0.013043	0.001930	0.011829	-1.011475	-0.255615	-0.452881	39.911331	24.446838	168.934448
16510		-4.105236	5.816974	6.896272	0.005671	0.001731	0.011332	-1.016602	-0.254150	-0.453857	39.917805	24.444048	168.940148
16511		-4.104622	5.817917	6.895842	0.008250	-0.000501	0.011227	-1.009521	-0.257080	-0.450684	39.925623	24.440388	168.945587
16512		-4.123959	5.795270	6.910620	0.010320	0.003107	0.009269	-1.010010	-0.243164	-0.450684	39.934586	24.438973	168.950815
16513		-4.127786	5.815777	6.896569	0.001728	-0.001465	0.005312	-1.005859	-0.244629	-0.447510	39.937325	24.437064	168.953009
16514		-4.099074	5.800402	6.908397	0.004393	-0.000659	0.008746	-1.003906	-0.245361	-0.453369	39.942141	24.434103	168.957104
16515		-4.147187	5.807043	6.931827	0.003654	-0.003865	0.012423	-1.014893	-0.243408	-0.448975	39.947000	24.428524	168.961758
16516		-4.094162	5.795543	6.942138	-0.001788	-0.001504	0.007296	-1.006592	-0.249268	-0.454590	39.947849	24.425749	168.964845
16517		-4.130192	5.851168	6.903045	-0.001732	-0.003491	0.006426	-1.016113	-0.251709	-0.446533	39.948488	24.422541	168.966757
16518		-4.100489	5.821596	6.895196	-0.005248	-0.003530	0.008410	-1.010986	-0.249023	-0.447998	39.947251	24.418498	168.969163
16519		-4.124721	5.831322	6.917526	-0.005588	-0.003647	0.003943	-1.012451	-0.248047	-0.450195	39.945159	24.416134	168.969814
16520		-4.100268	5.834892	6.916343	-0.009357	-0.000765	0.005001	-1.013428	-0.249512	-0.449463	39.941350	24.414534	168.971722
16521		-4.118943	5.797012	6.912150	-0.008112	-0.003401	0.003179	-1.013184	-0.241211	-0.458740	39.937701	24.412559	168.972104
16522		-4.102831	5.839991	6.883814	-0.012874	-0.000805	0.006987	-1.015869	-0.248779	-0.449463	39.932269	24.410232	168.975348
16523		-4.122484	5.815583	6.899904	-0.012276	0.001350	0.000642	-1.012695	-0.256592	-0.452148	39.926521	24.411278	168.976425
16524		-4.098313	5.818609	6.899010	-0.015540	-0.001611	0.003555	-1.014404	-0.248779	-0.453857	39.918757	24.409878	168.977128
16525		-4.121992	5.813767	6.901728	-0.015485	-0.003597	0.002684	-1.014893	-0.250488	-0.450439	39.910752	24.407999	168.977193
16526		-4.098510	5.830354	6.921211	-0.015881	-0.001727	-0.000910	-1.013184	-0.247070	-0.449951	39.901883	24.408180	168.975923
16527		-4.121636	5.811529	6.903825	-0.018207	-0.002417	0.000124	-1.017578	-0.240479	-0.450684	39.892005	24.407761	168.975229
16528		-4.117327	5.790504	6.918564	-0.017073	-0.001081	0.000045	-1.013916	-0.250244	-0.455566	39.882745	24.407816	168.974845
16529		-4.092399	5.779363	6.897841	-0.020732	-0.002172	-0.000636	-1.012451	-0.254639	-0.454590	39.871309	24.407783	168.973882
16530		-4.118019	5.801560	6.941032	-0.016081	-0.000795	-0.002702	-1.015137	-0.250000	-0.455566	39.862140	24.409098	168.972211
16531		-4.097226	5.810203	6.906736	-0.022863	-0.003801	0.002198	-1.010742	-0.250000	-0.452148	39.849778	24.407308	168.971961
16532		-4.101074	5.828594	6.894512	-0.020537	-0.003112	0.001166	-0.997314	-0.241943	-0.464111	39.838439	24.406154	168.971283
16533		-4.100030	5.813342	6.875781	-0.023150	-0.005901	-0.003137	-1.012207	-0.251221	-0.444092	39.824498	24.405398	168.967610
16534		-4.101345	5.838720	6.918033	-0.031663	-0.007440	-0.003543	-1.015381	-0.245605	-0.453369	39.805133	24.404096	168.963345
16535		-4.125974	5.845927	6.942234	-0.035666	-0.008646	-0.008685	-1.010986	-0.251709	-0.447266	39.782456	24.404164	168.955884
16536		-4.096085	5.799550	6.916360	-0.041855	-0.009498	-0.010120	-1.006348	-0.249268	-0.444824	39.755594	24.404288	168.947026
16537		-4.119216	5.778614	6.900738	-0.042996	-0.010842	-0.010030	-1.013428	-0.241699	-0.455078	39.728084	24.403874	168.938032
16538		-4.070884	5.782798	6.900520	-0.052562	-0.010697	-0.006797	-1.011963	-0.252930	-0.456543	39.695556	24.402246	168.930537
16539		-4.103134	5.814405	6.878708	-0.055525	-0.013600	-0.015552	-1.012451	-0.237549	-0.457031	39.659305	24.402628	168.917762
16540		-4.123685	5.799623	6.918168	-0.061578	-0.013415	-0.014300	-1.008545	-0.238281	-0.455566	39.619671	24.402586	168.905838
16541		-4.115803	5.768571	6.969782	-0.063804	-0.018092	-0.014995	-1.006836	-0.240234	-0.453369	39.578043	24.400765	168.891531
16542		-4.098303	5.779753	6.905066	-0.068869	-0.017618	-0.016485	-1.011230	-0.248291	-0.452393	39.533095	24.399615	168.877080
16543		-4.119306	5.777605	6.965659	-0.072345	-0.019672	-0.015340	-1.006348	-0.244385	-0.458740	39.486246	24.397201	168.861976
16544		-4.126706	5.798043	6.923332	-0.074004	-0.015181	-0.017066	-1.006836	-0.236328	-0.452637	39.438660	24.397373	168.847891
16545		-4.125905	5.778295	6.908234	-0.082740	-0.015814	-0.019213	-1.007324	-0.247314	-0.458496	39.385716	24.398052	168.832451
16546		-4.105993	5.699860	7.021303	-0.069854	-0.019967	-0.014513	-1.006104	-0.241455	-0.451904	39.340235	24.395136	168.817897
16547		-4.122282	5.773894	6.972492	-0.076907	-0.020104	-0.010483	-1.007813	-0.249268	-0.456787	39.291683	24.390721	168.804995
16548		-4.092431	5.738598	6.969162	-0.076921	-0.020123	-0.010455	-1.016113	-0.238770	-0.451416	39.242953	24.386256	168.792101
16549		-4.066913	5.722931	6.952576	-0.085719	-0.018782	-0.011706	-1.013916	-0.248047	-0.458496	39.189328	24.382850	168.779138
16550		-4.086710	5.705982	6.993826	-0.088011	-0.021493	-0.011507	-1.008057	-0.239746	-0.451416	39.133811	24.378083	168.765163
16551		-4.066332	5.722735	6.984936	-0.100891	-0.019378	-0.016980	-1.005127	-0.245117	-0.459473	39.070338	24.376295	168.749397
16552		-4.092657	5.703383	6.939761	-0.120516	-0.022324	-0.018386	-1.012451	-0.239746	-0.458008	38.994689	24.373664	168.731924
16553		-4.129538	5.666738	7.052066	-0.116620	-0.024189	-0.016755	-1.014893	-0.249268	-0.451172	38.921468	24.369615	168.714371
16554		-4.109030	5.682125	7.044391	-0.111543	-0.019708	-0.010775	-1.021729	-0.238770	-0.457031	38.852931	24.365340	168.701369
16555		-4.121740	5.603122	7.039197	-0.116520	-0.021318	0.003055	-1.013428	-0.235840	-0.452148	38.784247	24.355418	168.694668
16556		-4.133598	5.668894	7.026991	-0.110042	-0.018422	0.009849	-1.004883	-0.243408	-0.454102	38.720946	24.344225	168.692532
16557		-4.114369	5.581730	7.086763	-0.103300	-0.018455	0.017536	-1.011230	-0.234619	-0.447510	38.663241	24.330384	168.694089
16558		-4.104383	5.646116	7.018256	-0.104315	-0.018808	0.020342	-1.015381	-0.242432	-0.450439	38.605301	24.315309	168.696747
16559		-4.131061	5.668846	7.033989	-0.108275	-0.017023	0.018848	-1.017822	-0.235107	-0.459961	38.545255	24.301644	168.699542
16560		-4.128692	5.661928	7.040948	-0.110583	-0.019756	0.019068	-1.002930	-0.235840	-0.453125	38.483328	24.286605	168.701325
16561		-4.083122	5.696217	7.051962	-0.111753	-0.021144	0.019208	-1.010498	-0.238037	-0.464355	38.420712	24.270968	168.702718
16562		-4.085004	5.709014	7.046143	-0.117116	-0.017778	0.016921	-1.017822	-0.238037	-0.466553	38.354954	24.257693	168.704648
16563		-4.092365	5.610590	7.053675	-0.119229	-0.021478	0.018934	-1.013672	-0.234619	-0.458008	38.287961	24.242005	168.705815
16564		-4.098080	5.545236	7.155927	-0.106713	-0.016765	0.025299	-1.014160	-0.240479	-0.460938	38.230039	24.226199	168.712343
16565		-4.082771	5.577212	7.080289	-0.098965	-0.016488	0.030198	-1.013184	-0.229736	-0.457275	38.177745	24.208769	168.721043
16566		-4.108906	5.601146	7.095466	-0.091466	-0.013274	0.034201	-1.012695	-0.234131	-0.460938	38.130923	24.191375	168.733143
16567		-4.082946	5.613600	7.119470	-0.078344	-0.006290	0.034205	-1.014648	-0.235596	-0.464111	38.092883	24.177138	168.747806
16568		-4.065347	5.654111	7.095980	-0.066663	-0.002676	0.028920	-1.010986	-0.226074	-0.460938	38.060895	24.166457	168.761576
16569		-4.055083	5.610230	7.125699	-0.060750	-0.003835	0.024936	-1.010010	-0.227539	-0.452637	38.031449	24.156617	168.772621
16570		-4.049532	5.586988	7.141787	-0.046870	-0.000489	0.015887	-1.012451	-0.226074	-0.456055	38.008502	24.151424	168.780769
16571		-4.069123	5.573281	7.179611	-0.042144	-0.001014	0.012868	-1.013672	-0.235352	-0.457031	37.987721	24.147123	168.786940
16572		-4.043030	5.548601	7.139010	-0.038715	-0.003896	0.007247	-1.011719	-0.225342	-0.458496	37.967164	24.143460	168.789179
16573		-4.047417	5.579273	7.149014	-0.039227	-0.004953	0.000108	-1.014160	-0.233154	-0.450928	37.944849	24.141880	168.787515
16574		-4.031118	5.607718	7.103137	-0.037550	-0.006287	-0.010779	-1.010742	-0.228516	-0.462158	37.920930	24.143452	168.779819
16575		-4.031640	5.604286	7.105549	-0.039816	-0.005796	-0.023178	-1.006592	-0.227539	-0.462891	37.893426	24.149686	168.766296
16576		-4.061563	5.629768	7.117468	-0.038932	-0.008440	-0.029515	-1.011963	-0.226318	-0.457031	37.864587	24.156998	168.749169
16577		-4.053560	5.571963	7.125349	-0.045426	-0.006391	-0.031728	-1.015381	-0.231934	-0.463379	37.832033	24.165957	168.731168
16578		-4.055022	5.567503	7.128003	-0.040904	-0.005943	-0.036529	-1.012451	-0.233398	-0.471680	37.801025	24.176776	168.711224
16579		-4.036784	5.573934	7.095248	-0.044834	-0.000928	-0.050582	-1.014160	-0.236816	-0.463379	37.765823	24.194807	168.685951
16580		-4.088465	5.573548	7.121900	-0.046604	0.000603	-0.055814	-1.010498	-0.236816	-0.456787	37.728656	24.215491	168.659169
16581		-4.075568	5.599252	7.076513	-0.051811	-0.001931	-0.060794	-1.014648	-0.227539	-0.463623	37.687186	24.236617	168.628401
16582		-4.046338	5.556173	7.103732	-0.060867	0.000324	-0.063686	-1.013184	-0.234375	-0.465576	37.640151	24.259750	168.597153
16583		-4.071255	5.550515	7.163144	-0.065349	0.001066	-0.072284	-1.016357	-0.235352	-0.465576	37.589002	24.286209	168.561765
16584		-4.078730	5.536875	7.112562	-0.071501	0.006323	-0.082531	-1.013672	-0.226807	-0.457031	37.532914	24.318669	168.523666
16585		-4.048622	5.497325	7.194248	-0.069083	0.013217	-0.092494	-1.004150	-0.237061	-0.464844	37.477321	24.357639	168.482775
16586		-4.072047	5.556795	7.125274	-0.065683	0.020459	-0.105202	-1.002686	-0.232422	-0.472412	37.422034	24.404286	168.438477
16587		-4.107244	5.551020	7.096172	-0.063951	0.022081	-0.112416	-1.010986	-0.228271	-0.463135	37.366557	24.454151	168.390901
16588		-4.117071	5.567424	7.140150	-0.065098	0.028830	-0.120283	-1.011719	-0.233643	-0.473145	37.309682	24.509848	168.342836
16589		-4.188434	5.491802	7.152191	-0.059743	0.033557	-0.125944	-1.009033	-0.243164	-0.467041	37.255474	24.569555	168.292711
16590		-4.169046	5.466583	7.164992	-0.050511	0.030307	-0.121200	-1.013916	-0.233643	-0.470215	37.206858	24.626206	168.244302
16591		-4.137038	5.394299	7.236065	-0.036119	0.039749	-0.118582	-1.009521	-0.233887	-0.467529	37.168555	24.686115	168.200079
16592		-4.160079	5.448248	7.197531	-0.020621	0.045614	-0.120527	-1.011475	-0.227783	-0.466309	37.139478	24.749329	168.157919
16593		-4.165577	5.422189	7.208844	0.002440	0.047877	-0.123937	-1.000732	-0.228516	-0.474121	37.123302	24.814762	168.113988
16594		-4.137594	5.466741	7.177353	0.013183	0.062364	-0.130817	-1.007813	-0.229248	-0.468262	37.113959	24.889126	168.073341
16595		-4.178450	5.478399	7.162302	0.026224	0.072642	-0.143208	-1.000977	-0.231689	-0.473145	37.111161	24.972524	168.029066
16596		-4.163054	5.446014	7.147308	0.044709	0.095631	-0.153212	-1.006592	-0.230225	-0.467041	37.120340	25.069817	167.989545
16597		-4.220907	5.432520	7.230862	0.067333	0.110909	-0.164389	-0.996826	-0.235107	-0.465332	37.142613	25.178034	167.949162
16598		-4.209076	5.402775	7.211839	0.099834	0.128281	-0.173518	-1.005615	-0.233398	-0.463379	37.184201	25.297210	167.911216
16599		-4.225756	5.483288	7.092647	0.130349	0.146094	-0.190399	-1.002930	-0.231934	-0.471436	37.242620	25.430547	167.871283
16600		-4.247147	5.503232	7.153079	0.151890	0.173125	-0.216241	-0.999512	-0.239990	-0.461182	37.312078	25.585021	167.829222
16601		-4.281725	5.545931	7.110359	0.180142	0.189078	-0.230023	-0.996338	-0.239746	-0.470703	37.397457	25.751798	167.786110
16602		-4.307125	5.523338	7.049475	0.212015	0.218287	-0.260631	-0.998291	-0.238770	-0.461914	37.499166	25.942456	167.739006
16603		-4.310313	5.512227	7.038292	0.250588	0.248544	-0.296694	-0.991699	-0.238770	-0.467773	37.620229	26.159666	167.685830
16604		-4.204628	5.454918	7.091163	0.310402	0.270478	-0.350500	-0.983398	-0.247070	-0.468262	37.767234	26.405678	167.614454
16605		-3.988952	5.647424	7.019449	0.381111	0.339726	-0.457855	-0.985352	-0.241699	-0.469238	37.942687	26.721046	167.516628
16606		-4.167384	5.526822	6.966241	0.459616	0.411814	-0.562651	-0.972412	-0.251709	-0.461670	38.151830	27.106162	167.395171
16607		-4.137558	5.668619	6.814093	0.558703	0.426045	-0.620739	-0.963379	-0.257813	-0.464111	38.406794	27.518808	167.251354
16608		-4.176099	5.591050	7.058152	0.600983	0.572229	-0.696408	-0.964355	-0.266602	-0.461182	38.695281	28.024479	167.129782
16609		-3.995850	5.651939	7.054024	0.648660	0.709855	-0.788152	-0.953125	-0.269043	-0.469238	39.015868	28.625195	167.020375
16610		-4.104281	5.507195	7.150698	0.711553	0.843403	-0.872246	-0.950684	-0.290771	-0.461670	39.379102	29.316081	166.926939
16611		-4.150871	5.430776	6.965020	0.751560	1.011515	-0.969630	-0.935303	-0.285400	-0.459717	39.777029	30.117428	166.859295
16612		-4.102440	5.741734	7.297641	0.780718	1.205990	-1.069813	-0.925049	-0.292480	-0.463867	40.210161	31.041237	166.829846
16613		-4.367520	5.757806	7.081903	0.740362	1.448409	-1.192237	-0.910156	-0.300293	-0.463379	40.646516	32.116628	166.851437
16614		-4.400879	6.034075	6.952081	0.726577	1.664989	-1.329568	-0.901367	-0.311035	-0.455322	41.094661	33.336892	166.908869
16615		-4.551407	6.167406	6.796299	0.651994	1.913768	-1.496313	-0.870850	-0.317383	-0.467285	41.523151	34.727164	167.005469
16616		-4.526721	6.377756	6.555320	0.552654	2.206622	-1.666456	-0.852295	-0.321777	-0.469238	41.932738	36.306556	167.164033
16617		-5.119867	6.621913	6.717706	0.439757	2.538232	-1.876641	-0.831299	-0.322021	-0.462891	42.320923	38.107077	167.387859
16618		-5.275810	6.719535	6.441348	0.274379	2.858769	-2.103022	-0.800537	-0.335449	-0.474854	42.656239	40.128995	167.668774
16619		-5.743980	6.699301	6.369258	0.078507	3.210507	-2.346673	-0.771973	-0.343262	-0.480713	42.933109	42.392930	168.019041
16620		-5.966983	6.567350	6.362873	-0.070805	3.510932	-2.570648	-0.732910	-0.341064	-0.472900	43.176848	44.868430	168.429725
16621		-7.468149	6.186552	6.540685	-0.090785	3.719208	-2.795569	-0.692627	-0.336670	-0.486328	43.434571	47.518443	168.857651
16622		-7.501681	6.495355	6.497391	0.116878	3.677902	-2.943831	-0.650635	-0.336426	-0.486084	43.768106	50.207614	169.210293
16623		-8.739012	6.731804	7.319888	0.078098	3.887399	-3.218384	-0.614746	-0.340332	-0.485596	44.088549	53.091718	169.560648
16624		-10.127838	8.196404	7.892918	-0.069925	4.079741	-3.542280	-0.572021	-0.341309	-0.479736	44.295109	56.182298	169.861854
16625		-13.233674	9.257714	7.922596	-0.110692	4.115848	-3.823433	-0.525879	-0.342529	-0.477539	44.361127	59.400678	170.013802
16626		-13.705806	10.214297	7.351977	-0.081036	3.959541	-4.012648	-0.477295	-0.336426	-0.470947	44.204172	62.629602	169.886410
16627		-12.968842	7.825130	6.246612	0.166664	3.888899	-4.224471	-0.439941	-0.324463	-0.464844	43.906371	65.914677	169.449057
16628		-13.238068	7.763398	7.053665	0.781862	3.974271	-4.251680	-0.383789	-0.322266	-0.445557	43.931481	69.243979	168.990528
16629		-13.723080	8.724483	9.116819	1.253255	3.986710	-4.214629	-0.358398	-0.325928	-0.434082	44.230566	72.565455	168.546240
16630		-12.763880	10.624830	10.257715	1.249905	4.042740	-4.251843	-0.302979	-0.321045	-0.414551	44.519110	75.923719	168.100775
16631		-11.123510	10.180895	9.911265	1.098671	4.059779	-4.337637	-0.262451	-0.310303	-0.398438	44.505611	79.325495	167.441729
16632		-7.821217	8.978466	9.023103	0.981428	4.097933	-4.493427	-0.217529	-0.295654	-0.370117	43.708207	82.801665	166.064548
16633		-5.012548	10.262956	10.222528	0.979689	3.847130	-4.382227	-0.178223	-0.296143	-0.348145	40.215690	86.122308	161.992421
16634		-2.690714	8.798622	9.224407	1.247511	3.242882	-3.986059	-0.135010	-0.270508	-0.328125	12.846346	88.885026	133.889069
16635		-9.445533	7.968594	9.180679	1.554008	2.369648	-3.750452	-0.115234	-0.255615	-0.303955	-97.764527	88.087716	22.369517
16636		-11.215385	14.734925	16.217328	2.200786	0.800267	-2.374072	-0.097412	-0.256348	-0.292969	-101.402642	86.672194	17.464170
16637		-8.157560	18.086300	14.630228	2.647475	-0.717000	-0.789660	-0.103027	-0.262207	-0.283936	-92.394014	86.271160	24.969192
16638		-6.031676	17.313468	12.681989	2.319112	-1.779847	0.301001	-0.103516	-0.274170	-0.275635	-74.978286	86.335101	41.087408
16639		-3.204346	14.874024	9.539223	1.755166	-2.469212	1.076922	-0.122070	-0.280029	-0.287109	-50.114959	86.228142	64.993070
16640		-1.777971	11.969953	7.356836	1.177332	-2.860055	1.595964	-0.135986	-0.291016	-0.298584	-25.367275	85.476131	89.124747
16641		-1.337198	9.254874	5.883947	0.778015	-3.085979	1.977179	-0.155762	-0.307617	-0.298584	-7.487830	84.084945	106.627725
16642		-0.811932	7.001702	4.794646	0.614494	-3.183697	2.261667	-0.169922	-0.322021	-0.315186	4.215709	82.286024	118.055315
16643		-0.863961	5.669046	4.244103	0.614203	-3.192539	2.454928	-0.187256	-0.331299	-0.326660	11.973148	80.273435	125.545153
16644		-0.952926	4.825414	4.091584	0.687620	-3.129503	2.616242	-0.222412	-0.363037	-0.345947	17.604727	78.149187	130.872884
16645		-1.072556	4.313828	4.133121	0.805009	-3.032762	2.763902	-0.246826	-0.372803	-0.351807	21.992252	75.977272	134.899691
16646		-1.324714	4.269187	4.340854	0.914648	-2.923257	2.889212	-0.268311	-0.392822	-0.366943	25.637533	73.768936	138.128902
16647		-1.821223	4.539139	4.830633	0.972810	-2.821593	2.998322	-0.301514	-0.409912	-0.366699	28.725342	71.546207	140.778339
16648		-2.579693	5.004631	5.317085	0.971475	-2.746391	3.112135	-0.331787	-0.437744	-0.385742	31.417383	69.282981	143.040766
16649		-3.384307	5.507765	5.778615	0.929829	-2.687964	3.229261	-0.358643	-0.461426	-0.386230	33.769043	66.989160	144.999236
16650		-4.163113	6.098539	6.187851	0.832462	-2.635470	3.377789	-0.398926	-0.476807	-0.391846	35.874364	64.635922	146.779992
16651		-5.041859	6.712444	6.625589	0.690332	-2.602192	3.538643	-0.442383	-0.500000	-0.394531	37.731689	62.227992	148.412977
16652		-5.936167	7.080722	6.863099	0.519475	-2.585359	3.716342	-0.479736	-0.503418	-0.403320	39.375216	59.733443	149.947576
16653		-6.805356	7.036115	6.949291	0.343479	-2.585647	3.886004	-0.537598	-0.524170	-0.410400	40.794233	57.166790	151.380385
16654		-7.519911	6.642583	6.965464	0.209483	-2.575856	4.018819	-0.590332	-0.531006	-0.416016	42.027496	54.527333	152.720924
16655		-8.124251	6.110755	6.855152	0.139743	-2.557033	4.088954	-0.638916	-0.534180	-0.417236	43.090947	51.864177	153.947681
16656		-8.521107	5.385461	6.891405	0.190060	-2.506163	4.104998	-0.694336	-0.526855	-0.416992	44.071962	49.192805	155.072659
16657		-9.122476	5.138110	7.027939	0.328046	-2.435304	4.099217	-0.745605	-0.529053	-0.406982	45.029496	46.551336	156.108845
16658		-9.745438	5.567488	7.348656	0.475265	-2.370007	4.049944	-0.787598	-0.513184	-0.404053	45.969491	43.934677	157.044290
16659		-10.261555	6.493896	7.822379	0.573326	-2.336316	3.998964	-0.833496	-0.501709	-0.389648	46.861035	41.352737	157.873894
16660		-10.685703	7.628061	8.062971	0.549805	-2.322591	3.947440	-0.886719	-0.496826	-0.388672	47.648580	38.778769	158.603202
16661		-11.042328	8.759520	8.333792	0.398634	-2.340602	3.892611	-0.926270	-0.482422	-0.382080	48.260150	36.224999	159.230995
16662		-11.561459	9.739728	8.467839	0.180613	-2.377051	3.839106	-0.963379	-0.475830	-0.375977	48.673162	33.665687	159.766522
16663		-12.286401	10.511993	8.568545	-0.033890	-2.430802	3.796493	-1.003906	-0.468018	-0.362061	48.899355	31.112344	160.223357
16664		-13.310415	11.029001	8.375268	-0.173123	-2.502165	3.825383	-1.054199	-0.436768	-0.356934	49.007743	28.508462	160.635789
16665		-14.148604	11.079152	7.751053	-0.245682	-2.567408	3.937641	-1.102295	-0.422852	-0.345703	49.057132	25.841107	161.050250
16666		-14.496341	10.721061	6.945493	-0.266333	-2.582866	4.068233	-1.133301	-0.390137	-0.314453	49.092820	23.101467	161.498988
16667		-14.436844	9.917817	6.026913	-0.276829	-2.503072	4.150349	-1.178467	-0.367432	-0.307617	49.123553	20.365622	162.007991
16668		-14.195190	8.916527	5.168250	-0.308869	-2.339124	4.138940	-1.213135	-0.344482	-0.291992	49.134336	17.686972	162.576947
16669		-14.079605	7.918674	4.627182	-0.335896	-2.120894	4.046274	-1.243408	-0.308838	-0.270020	49.119029	15.139350	163.200861
16670		-14.203204	7.321776	4.549464	-0.340109	-1.900576	3.909354	-1.265869	-0.288086	-0.265381	49.085750	12.725656	163.863219
16671		-14.117449	7.028986	4.561789	-0.373439	-1.724149	3.731389	-1.301758	-0.257568	-0.243896	49.007117	10.464127	164.532364
16672		-14.008208	6.542460	4.521146	-0.425455	-1.614482	3.503979	-1.323730	-0.228027	-0.229004	48.868043	8.335973	165.161632
16673		-13.860441	5.754322	4.231544	-0.437198	-1.563360	3.261719	-1.346191	-0.195801	-0.217529	48.690236	6.340656	165.724254
16674		-13.622084	4.643014	3.562595	-0.372223	-1.504256	3.025219	-1.366455	-0.170410	-0.201172	48.525930	4.464596	166.225533
16675		-13.627535	3.768127	2.676793	-0.243817	-1.415007	2.787555	-1.389893	-0.146240	-0.177979	48.415508	2.732053	166.678694
16676		-13.788847	2.867847	1.697794	-0.124292	-1.284130	2.530132	-1.404785	-0.123047	-0.170654	48.359940	1.154741	167.091161
16677		-13.612626	1.778538	0.507076	-0.034566	-1.080993	2.228738	-1.405518	-0.092773	-0.150391	48.344158	-0.210428	167.477267
16678		-13.200070	0.693577	-0.417781	0.052725	-0.799947	1.885328	-1.420410	-0.075684	-0.132080	48.370952	-1.326090	167.852277
16679		-12.915566	-0.351514	-0.898928	0.174756	-0.460108	1.524984	-1.435303	-0.055420	-0.129150	48.460287	-2.153970	168.235497
16680		-13.023722	-0.862574	-0.902096	0.345553	-0.104143	1.179577	-1.431885	-0.035889	-0.120850	48.642794	-2.702946	168.638324
16681		-13.220082	-0.513163	-0.332584	0.475035	0.235082	0.831213	-1.441895	-0.031738	-0.119629	48.895220	-2.971699	169.054330
16682		-13.801392	0.708223	0.893429	0.499603	0.483192	0.504901	-1.438232	-0.021240	-0.116211	49.162184	-3.010532	169.453523
16683		-13.557578	0.307470	-0.900551	0.469239	0.510062	0.158335	-1.447754	-0.017334	-0.130127	49.417403	-2.888050	169.734904
16684		-13.665127	-2.242004	-0.548440	0.298656	2.010964	-1.377035	-1.445313	-0.017578	-0.150635	49.576012	-1.540713	170.098901
16685		-14.095360	-3.176266	-5.012254	-0.075218	2.553605	-1.990356	-1.440674	-0.030762	-0.159180	49.529630	0.276958	170.472831
16686		0.430323	0.027552	0.461355	-0.515427	2.636929	-2.365479	-1.442871	-0.044922	-0.181396	49.241784	2.289394	170.737765
16687		2.247789	8.666753	4.434261	-0.373806	2.924164	-2.830350	-1.440430	-0.059082	-0.215088	49.040881	4.612598	170.944712
16688		-0.997353	8.945353	3.407784	-0.206081	3.386438	-3.058348	-1.421875	-0.082764	-0.250244	48.957039	7.207999	171.261349
16689		-7.247880	6.389040	7.193848	0.130971	4.082375	-2.809395	-1.417236	-0.094727	-0.281006	49.140404	9.957441	171.981242
16690		-10.310898	9.066382	14.342594	-0.105293	4.544564	-2.797535	-1.396729	-0.117920	-0.318115	49.268436	12.872368	172.924175
16691		-15.658986	8.573894	20.865861	-0.202649	4.306157	-2.991642	-1.373535	-0.134521	-0.355469	49.345607	15.781352	173.701697
16692		-18.947525	12.654606	22.520589	-0.207635	3.123589	-2.849409	-1.357666	-0.162109	-0.380615	49.317525	18.186757	174.009024
16693		-12.558966	16.503495	15.706143	-0.509538	2.189396	-2.369387	-1.338135	-0.155273	-0.411865	49.047985	20.034748	174.074951
16694		-14.731930	23.772412	10.046004	-2.273482	1.604872	-1.555679	-1.337646	-0.159912	-0.415771	47.782480	21.313104	174.178124
16695		-6.088289	7.523954	4.270214	-3.072943	1.295177	-1.187736	-1.321289	-0.156250	-0.441895	46.053615	22.317627	174.261554
16696		-7.351287	1.693091	11.459573	-2.659137	0.625408	-1.361883	-1.313477	-0.141113	-0.448730	44.407702	23.125613	173.942134
16697		-6.738612	9.044930	5.429558	-1.775469	0.070713	-1.030175	-1.318115	-0.136719	-0.458984	43.219656	23.564147	173.509068
16698		-4.279766	7.943591	5.415487	-1.754915	0.113391	-0.781672	-1.314453	-0.130127	-0.463867	42.089734	23.917277	173.197791
16699		-4.865539	4.624477	8.257431	-1.379728	0.086049	-0.638327	-1.313965	-0.124268	-0.470947	41.192754	24.197811	172.934595
16700		-4.569718	5.193775	7.717910	-0.804545	-0.005443	-0.373458	-1.308105	-0.127441	-0.471680	40.659044	24.337552	172.755454
16701		-4.010862	5.870909	6.942065	-0.648591	0.010761	-0.313920	-1.308838	-0.125977	-0.476807	40.228091	24.459599	172.609770
16702		-4.293932	5.797222	7.092630	-0.543819	-0.000792	-0.294036	-1.309326	-0.119385	-0.477539	39.858566	24.569576	172.468106
16703		-4.400967	5.849795	6.937318	-0.476103	-0.033941	-0.285401	-1.309814	-0.119629	-0.480225	39.523375	24.659726	172.316259
16704		-4.161824	5.584369	7.061103	-0.397888	-0.044218	-0.270114	-1.303467	-0.123779	-0.479248	39.233984	24.740279	172.167290
16705		-4.192978	5.853819	6.976245	-0.351780	-0.045825	-0.300683	-1.303467	-0.113281	-0.473389	38.963980	24.829236	172.002003
16706		-4.351795	5.627696	7.050647	-0.298723	-0.035772	-0.255232	-1.306641	-0.117920	-0.478271	38.735064	24.906953	171.862691
16707		-4.334790	5.889194	6.831634	-0.272636	-0.028371	-0.212313	-1.303955	-0.122314	-0.486816	38.530878	24.970887	171.746911
16708		-4.389275	5.526308	7.109936	-0.253593	-0.012382	-0.154474	-1.311523	-0.119385	-0.476074	38.352194	25.022314	171.665943
16709		-4.214903	5.599320	7.046497	-0.216201	-0.018456	-0.152826	-1.310547	-0.119141	-0.484863	38.194066	25.068936	171.583039
16710		-4.283106	5.499380	7.131608	-0.189337	0.012316	-0.120677	-1.299805	-0.113281	-0.488770	38.063138	25.119140	171.528171
16711		-4.276212	5.547702	7.101430	-0.148449	0.022956	-0.106325	-1.303955	-0.123779	-0.477295	37.960283	25.167705	171.484297
16712		-4.271800	5.606834	7.035600	-0.121927	0.032736	-0.107497	-1.298828	-0.118164	-0.487793	37.873965	25.222316	171.443711
16713		-4.254184	5.576584	7.052083	-0.106198	0.057662	-0.130184	-1.302490	-0.120605	-0.480957	37.795812	25.294848	171.401180
16714		-4.297945	5.453877	7.118957	-0.087759	0.074080	-0.135178	-1.305908	-0.122070	-0.489014	37.729829	25.377797	171.362568
16715		-4.331479	5.418686	7.132859	-0.063134	0.083127	-0.126318	-1.296387	-0.122559	-0.485352	37.681213	25.460432	171.331618
16716		-4.268613	5.399961	7.142668	-0.034896	0.092341	-0.119490	-1.307129	-0.117188	-0.489258	37.651765	25.546112	171.307764
16717		-4.340168	5.447829	7.103186	-0.021581	0.106846	-0.106175	-1.296875	-0.125977	-0.490967	37.635164	25.632429	171.296006
16718		-4.342817	5.528511	7.048374	-0.005405	0.107633	-0.103407	-1.299805	-0.127197	-0.487793	37.628583	25.719407	171.286091
16719		-4.358432	5.531696	7.010256	-0.001343	0.112970	-0.112382	-1.298584	-0.121582	-0.497070	37.623199	25.810671	171.273538
16720		-4.398482	5.535356	7.026717	0.000587	0.111767	-0.123237	-1.292969	-0.125977	-0.488281	37.616351	25.906458	171.255196
16721		-4.392925	5.549799	6.954257	0.001268	0.114029	-0.129381	-1.288574	-0.125000	-0.498047	37.608832	26.004144	171.234430
16722		-4.449873	5.508718	6.996226	0.013518	0.091642	-0.114553	-1.293457	-0.125732	-0.497314	37.607814	26.087758	171.212596
16723		-4.457469	5.471445	6.983141	0.011069	0.093719	-0.109750	-1.296631	-0.125000	-0.491455	37.606723	26.169360	171.193805
16724		-4.413971	5.438524	7.057558	0.011506	0.082563	-0.092107	-1.283691	-0.124268	-0.499023	37.607942	26.241009	171.179760
16725		-4.467567	5.394716	7.045707	0.014593	0.077433	-0.087007	-1.291748	-0.125488	-0.495361	37.611102	26.307266	171.166110
16726		-4.382970	5.415412	7.006635	0.017101	0.077162	-0.086199	-1.292236	-0.132568	-0.489746	37.615884	26.374400	171.152940
16727		-4.468869	5.426386	7.044883	0.018274	0.079415	-0.083429	-1.291016	-0.134521	-0.497559	37.622275	26.440308	171.141874
16728		-4.437788	5.473062	7.014312	0.026804	0.077160	-0.089303	-1.289795	-0.140381	-0.500732	37.631886	26.508528	171.127132
16729		-4.440934	5.425245	6.980429	0.023156	0.076966	-0.087257	-1.295898	-0.127441	-0.490967	37.639759	26.574667	171.113175
16730		-4.452935	5.435538	6.996564	0.028012	0.073601	-0.093858	-1.290283	-0.131836	-0.500977	37.648377	26.642868	171.094734
16731		-4.473772	5.347263	7.042243	0.036939	0.082336	-0.099320	-1.282715	-0.138184	-0.508545	37.662316	26.715670	171.076765
16732		-4.473566	5.423905	7.018721	0.048497	0.088910	-0.104977	-1.281006	-0.134521	-0.504639	37.682793	26.794713	171.058692
16733		-4.480351	5.389859	7.003493	0.057682	0.098578	-0.103206	-1.290283	-0.135254	-0.495361	37.710575	26.876251	171.045160
16734		-4.519212	5.397918	7.016647	0.064305	0.104608	-0.108586	-1.286377	-0.139893	-0.492920	37.742050	26.963685	171.031479
16735		-4.530799	5.384961	6.987341	0.069617	0.110253	-0.115681	-1.283691	-0.134277	-0.499023	37.775878	27.054902	171.016281
16736		-4.502603	5.426299	6.985785	0.085920	0.119242	-0.120483	-1.277832	-0.138428	-0.500488	37.819613	27.153154	171.002418
16737		-4.563722	5.406151	6.954894	0.086512	0.128190	-0.116445	-1.282471	-0.135010	-0.496582	37.866194	27.252775	170.994044
16738		-4.553848	5.403408	6.977389	0.097872	0.136626	-0.120967	-1.277100	-0.142334	-0.499268	37.919850	27.359075	170.986976
16739		-4.564786	5.371843	6.957341	0.104964	0.153560	-0.121359	-1.280518	-0.135498	-0.509766	37.980551	27.471903	170.986365
16740		-4.586961	5.399109	6.985675	0.110898	0.169134	-0.121714	-1.276367	-0.144531	-0.502197	38.047554	27.593151	170.992086
16741		-4.607044	5.409436	6.937685	0.120790	0.183903	-0.117774	-1.277832	-0.141846	-0.508057	38.123926	27.718397	171.005708
16742		-4.667478	5.363463	6.947754	0.130771	0.196723	-0.114762	-1.275146	-0.157471	-0.503662	38.209306	27.849593	171.026381
16743		-4.616725	5.388081	6.897708	0.140717	0.209524	-0.111705	-1.272705	-0.154541	-0.508545	38.303626	27.984177	171.053834
16744		-4.661816	5.388616	6.879599	0.152622	0.223954	-0.115735	-1.270508	-0.150879	-0.503662	38.406787	28.127891	171.085517
16745		-4.668492	5.443954	6.889027	0.157331	0.234160	-0.122264	-1.269043	-0.153809	-0.507568	38.513205	28.277204	171.118173
16746		-4.719475	5.464756	6.855909	0.163283	0.237870	-0.141493	-1.272705	-0.150146	-0.507080	38.619399	28.436244	171.143075
16747		-4.757669	5.542226	6.816941	0.162679	0.240502	-0.171147	-1.262939	-0.156494	-0.501221	38.718734	28.605788	171.154145
16748		-4.702509	5.645111	6.656687	0.184211	0.242103	-0.233414	-1.264648	-0.160156	-0.502197	38.815742	28.799614	171.134675
16749		-4.655861	5.757106	6.603151	0.218553	0.248481	-0.329279	-1.265137	-0.165283	-0.513916	38.910111	29.029533	171.069123
16750		-4.600083	5.773865	6.578105	0.274985	0.296904	-0.439452	-1.259277	-0.165283	-0.508789	39.019113	29.322055	170.967821
16751		-4.726627	5.513291	6.756739	0.360043	0.336273	-0.523203	-1.259521	-0.176514	-0.512939	39.163475	29.661304	170.840317
16752		-4.435953	5.667697	6.584920	0.433709	0.391487	-0.588241	-1.243652	-0.178711	-0.521240	39.344680	30.050154	170.703455
16753		-4.590698	5.596146	6.718260	0.502526	0.509509	-0.672465	-1.249756	-0.180664	-0.514893	39.568172	30.521087	170.574018
16754		-4.527616	5.623089	6.789359	0.556168	0.610108	-0.752869	-1.237549	-0.193359	-0.514160	39.823144	31.067428	170.447964
16755		-4.598740	5.547062	6.692682	0.612575	0.750350	-0.826592	-1.227539	-0.208252	-0.517334	40.122169	31.701830	170.346580
16756		-4.637709	5.464990	6.778124	0.705076	0.882755	-0.895873	-1.222412	-0.214355	-0.519531	40.486949	32.421371	170.271147
16757		-4.632993	5.596557	6.663431	0.759744	1.055977	-0.987028	-1.212646	-0.221924	-0.528809	40.901108	33.249516	170.230590
16758		-4.554523	5.765240	6.895598	0.779188	1.272070	-1.097890	-1.201416	-0.233398	-0.533203	41.352325	34.213988	170.237682
16759		-4.752076	5.996213	6.736152	0.722358	1.534387	-1.239011	-1.190430	-0.250732	-0.536377	41.803599	35.343421	170.301734
16760		-4.849092	6.253434	6.661065	0.632110	1.831631	-1.419410	-1.163818	-0.255859	-0.539063	42.238325	36.669075	170.423715
16761		-5.156892	6.155190	6.512506	0.518017	2.130573	-1.615561	-1.145508	-0.270996	-0.549072	42.643859	38.195266	170.601172
16762		-5.392336	6.167764	6.253459	0.405704	2.426767	-1.822669	-1.131348	-0.285889	-0.562988	43.023133	39.926414	170.832780
16763		-5.751085	6.238434	6.420490	0.225313	2.761280	-2.017866	-1.100098	-0.289307	-0.572754	43.361162	41.871862	171.150544
16764		-5.803246	6.140974	6.347936	0.041830	3.097130	-2.198024	-1.062500	-0.287598	-0.586914	43.673679	44.027244	171.572693
16765		-6.382772	6.150310	6.350470	-0.085349	3.400592	-2.367743	-1.028076	-0.308350	-0.601074	43.999432	46.372943	172.099405
16766		-7.371351	5.859495	6.123616	0.112132	3.443788	-2.502206	-1.002930	-0.314941	-0.613525	44.446739	48.788107	172.616981
16767		-7.375700	6.163001	6.027643	0.170274	3.633453	-2.703172	-0.961182	-0.325928	-0.620605	44.980538	51.357883	173.184579
16768		-8.200687	6.171675	5.999798	0.143433	3.861826	-2.962866	-0.918945	-0.333252	-0.630371	45.560170	54.122218	173.808283
16769		-9.345566	6.982426	7.003399	0.057418	4.084065	-3.289596	-0.869385	-0.343750	-0.647949	46.129063	57.105231	174.456527
16770		-11.168275	7.658608	7.868096	-0.014149	4.307649	-3.647853	-0.824951	-0.346680	-0.654297	46.693022	60.321700	175.124631
16771		-14.307203	8.806221	7.902031	-0.022571	4.354431	-3.904291	-0.768066	-0.353027	-0.661377	47.240151	63.660127	175.757774
16772		-15.109668	11.130114	7.166343	-0.066038	4.213508	-4.260429	-0.723145	-0.365234	-0.661133	47.470551	67.091723	176.051727
16773		-14.225178	9.464455	6.467493	0.076603	4.115346	-4.545748	-0.672607	-0.360840	-0.658203	47.455511	70.605600	175.987653
16774		-14.512030	9.265974	7.594724	0.719473	4.032391	-4.380930	-0.611816	-0.359619	-0.649414	47.930477	74.017145	176.052300
16775		-13.595270	8.895166	9.489199	1.277804	3.948024	-4.259911	-0.568359	-0.366455	-0.630859	48.952872	77.344748	176.350666
16776		-11.664005	9.278207	10.254233	1.529144	4.067824	-4.257852	-0.525635	-0.374023	-0.620361	50.937557	80.711432	177.478055
16777		-10.216357	8.600432	8.521477	1.468312	4.292881	-4.294389	-0.476807	-0.375244	-0.595947	55.531497	84.157170	-178.739174
16778		-7.171237	9.601042	10.728120	1.288002	4.273001	-4.456682	-0.435303	-0.373535	-0.578857	70.427512	87.568648	-164.552065
16779		-5.058668	9.442036	9.835076	1.348483	3.969447	-4.141913	-0.402588	-0.372314	-0.554443	-176.626813	88.522421	-52.351032
16780		-4.419161	4.857654	8.793495	1.740078	3.153031	-3.944729	-0.372070	-0.370361	-0.542969	-143.799842	85.961268	-20.494938
16781		-13.957743	7.831611	13.404305	2.513830	1.715198	-3.879008	-0.358643	-0.379150	-0.513184	-131.480987	83.726886	-9.575598
16782		-11.919535	16.548364	15.719217	3.225227	0.178506	-2.273645	-0.362061	-0.398926	-0.499756	-123.665507	82.634342	-3.567323
16783		-8.246157	19.257198	14.914851	3.225948	-1.277222	-0.925939	-0.391602	-0.402344	-0.479492	-114.920298	82.528951	3.386737
16784		-5.144621	18.515562	11.905652	2.522557	-2.336680	0.141556	-0.439941	-0.423096	-0.462891	-103.670155	83.055505	13.267274
16785		-3.216945	16.455562	9.298458	1.697995	-3.067121	1.006740	-0.497559	-0.429932	-0.465088	-87.978817	83.813627	28.080566
16786		-2.608532	14.068156	7.477326	0.884949	-3.554746	1.673805	-0.565918	-0.433105	-0.455811	-66.151611	84.306432	49.510512
16787		-2.370045	11.530762	5.921431	0.266554	-3.904363	2.181954	-0.645752	-0.419434	-0.444824	-41.024911	83.976982	74.610486
16788		-2.313295	9.121764	4.575635	-0.081457	-4.140410	2.569457	-0.724854	-0.395508	-0.430420	-19.790486	82.653146	96.029501
16789		-1.965654	6.605980	3.356344	-0.158733	-4.247482	2.870211	-0.805420	-0.379883	-0.418701	-5.324349	80.619239	110.738246
16790		-1.483493	4.433861	2.401897	0.039172	-4.213459	3.086528	-0.875977	-0.344971	-0.371094	4.331045	78.206955	120.531438
16791		-1.508899	3.106475	2.171017	0.441218	-4.051476	3.233250	-0.917725	-0.314697	-0.335205	11.149383	75.653629	127.268586
16792		-1.710563	2.392548	2.426893	0.967103	-3.781100	3.346979	-0.964111	-0.273193	-0.291016	16.535531	73.081955	132.280511
16793		-2.133580	2.667695	3.193308	1.519585	-3.474239	3.458847	-1.006836	-0.250000	-0.243408	21.161156	70.557144	136.230600
16794		-2.903273	4.061271	4.347326	1.913469	-3.229856	3.588182	-1.047607	-0.227539	-0.194092	25.342056	68.036160	139.522502
16795		-3.799267	5.841365	5.618195	2.013098	-3.060257	3.718177	-1.072266	-0.194580	-0.137207	29.045107	65.503046	142.295157
16796		-4.699353	7.309793	6.851062	1.827149	-2.974718	3.834839	-1.104492	-0.153076	-0.070557	32.221249	62.907307	144.654312
16797		-5.685798	8.235846	7.716834	1.464467	-2.938113	3.951075	-1.095703	-0.085205	-0.005371	34.831224	60.253961	146.666130
16798		-6.654107	8.652496	8.241058	1.020571	-2.920212	4.056149	-1.078857	-0.018555	0.060791	36.922777	57.525842	148.420061
16799		-7.433460	8.442226	8.317342	0.570991	-2.937701	4.124857	-1.004639	0.038574	0.093750	38.503239	54.749090	149.927817
16800		-7.728292	7.355582	8.087533	0.280144	-2.986355	4.157869	-0.918213	0.062988	0.124023	39.706088	51.907619	151.221090
16801		-7.857830	6.299079	7.900662	0.224224	-3.002047	4.215418	-0.849121	0.054688	0.106445	40.725113	49.035260	152.374186
16802		-7.959541	5.812661	8.008427	0.391153	-2.951350	4.283270	-0.799805	0.027588	0.100342	41.756328	46.134362	153.460704
16803		-8.304873	5.878970	8.352661	0.629705	-2.867971	4.323885	-0.758301	-0.011230	0.083740	42.837317	43.252275	154.483057
16804		-8.765806	5.915074	8.615033	0.855903	-2.771932	4.313267	-0.743652	-0.044189	0.056152	43.963989	40.388538	155.430184
16805		-9.188213	6.228161	8.730735	1.052350	-2.681623	4.260036	-0.750732	-0.070313	0.045898	45.104295	37.582080	156.282509
16806		-9.715190	6.922522	8.973812	1.193765	-2.565841	4.161749	-0.756592	-0.110840	0.032959	46.243183	34.837209	157.045174
16807		-10.514007	8.386375	9.637782	1.243312	-2.457876	4.043053	-0.776367	-0.150391	0.021973	47.327498	32.185307	157.716919
16808		-11.510809	10.305249	10.651677	1.135773	-2.411138	3.940722	-0.796875	-0.161377	0.018066	48.277371	29.572938	158.292007
16809		-12.589530	11.833685	11.507764	0.882708	-2.478858	3.889680	-0.816162	-0.175049	0.018799	49.002905	26.962319	158.753985
16810		-13.601174	12.505023	11.996953	0.581608	-2.640308	3.892482	-0.848145	-0.178711	0.007324	49.488442	24.273791	159.097868
16811		-14.575886	12.722935	11.860994	0.345647	-2.854109	3.923178	-0.877686	-0.193115	0.015137	49.776156	21.502643	159.326092
16812		-15.299695	12.540111	11.002596	0.201383	-3.056443	3.994232	-0.906738	-0.187256	0.004883	49.944679	18.613183	159.471308
16813		-15.573154	11.943859	9.453479	0.134955	-3.152257	4.109378	-0.932617	-0.185059	0.015137	50.062945	15.649204	159.607333
16814		-15.677236	11.046975	7.555919	0.049370	-3.103723	4.191928	-0.950928	-0.176025	0.024414	50.138797	12.655787	159.788865
16815		-15.617661	9.786252	5.638115	-0.077514	-2.893294	4.176359	-0.984131	-0.164307	0.020996	50.147000	9.757127	160.055220
16816		-15.864312	8.264458	4.134657	-0.194115	-2.572323	4.053259	-0.991699	-0.150879	0.031738	50.091632	7.020980	160.416723
16817		-16.298448	6.458597	2.910271	-0.235419	-2.197266	3.888491	-1.012451	-0.144775	0.039795	50.004597	4.505269	160.884947
16818		-16.388684	4.343473	1.740250	-0.147107	-1.782681	3.711296	-1.025635	-0.131104	0.038330	49.957694	2.212319	161.470587
16819		-16.752972	2.818008	1.003033	0.003856	-1.364650	3.523356	-1.032471	-0.116455	0.045898	49.975273	0.164303	162.170875
16820		-17.058349	1.647649	0.507356	0.081003	-0.979481	3.276374	-1.037598	-0.107666	0.038818	50.014635	-1.640596	162.947332
16821		-17.396460	0.266408	-0.098098	0.049430	-0.617053	2.956007	-1.048340	-0.107178	0.047363	50.009484	-3.164846	163.765862
16822		-17.646123	-1.313317	-0.542480	-0.012888	-0.261406	2.556642	-1.048340	-0.091309	0.041992	49.950315	-4.387599	164.594496
16823		-18.026150	-2.414393	-0.271063	-0.056334	0.056632	2.105135	-1.049316	-0.091064	0.034180	49.850991	-5.288708	165.399395
16824		-18.147711	-3.244076	-0.109625	-0.095564	0.330061	1.643447	-1.040771	-0.087891	0.028809	49.725230	-5.888701	166.155027
16825		-17.984644	-3.645421	-0.143780	-0.149949	0.576189	1.140039	-1.051025	-0.080566	0.022705	49.568867	-6.172097	166.833620
16826		-17.722515	-3.086321	0.427260	-0.244422	0.796014	0.587559	-1.048584	-0.076172	0.014893	49.370219	-6.132931	167.402198
16827		-17.296487	-1.801531	1.639859	-0.343206	0.943995	0.073032	-1.048340	-0.079590	0.009766	49.128667	-5.810936	167.841949
16828		-11.949057	-2.916360	1.486225	-0.315653	1.844897	-1.335329	-1.033936	-0.080078	0.000977	48.923063	-4.539879	168.139652
16829		-5.793220	0.801209	0.709057	-0.645970	2.840376	-2.189792	-1.025879	-0.087402	-0.014404	48.529328	-2.522744	168.536153
16830		-1.961169	4.591151	5.347396	-0.678852	1.927013	-1.899773	-1.009033	-0.085449	-0.024414	48.139238	-0.974498	168.637651
16831		3.582191	5.809966	5.933026	-0.551225	2.249960	-2.378033	-1.002441	-0.094971	-0.038574	47.824196	0.901294	168.683661
16832		0.016281	0.997200	5.881157	-0.579886	2.592695	-3.033638	-0.984131	-0.092529	-0.057129	47.491232	3.187645	168.611190
16833		-3.902125	0.742721	9.816281	-0.228661	3.334773	-3.234790	-0.968262	-0.106201	-0.082031	47.373185	5.845777	168.765368
16834		-11.663131	7.348730	15.936626	0.157783	3.527213	-3.121352	-0.947510	-0.111816	-0.082275	47.500234	8.531178	169.046752
16835		-11.139720	9.719638	16.467074	-0.400809	3.222557	-3.578248	-0.925781	-0.112549	-0.089600	47.266299	11.290720	169.017199
16836		-11.474548	13.966631	13.138472	-0.205075	2.938243	-3.325619	-0.901855	-0.111572	-0.106201	47.136436	13.834686	168.956831
16837		-10.305443	16.466795	10.348448	-0.313601	2.758937	-2.582859	-0.888672	-0.114502	-0.108398	46.997440	15.995535	169.111672
16838		-8.412160	12.087642	9.460741	-0.651390	2.622223	-2.069256	-0.885010	-0.120850	-0.112305	46.712241	17.890656	169.410578
16839		-8.050988	9.117150	12.736678	-0.994231	2.486172	-1.810719	-0.867920	-0.117188	-0.127686	46.251683	19.624493	169.747316
16840		-17.288503	17.646277	15.053254	-2.471136	1.506035	-1.376984	-0.856201	-0.109863	-0.126465	44.860239	20.794899	169.815646
16841		-8.550163	8.864534	6.499520	-2.213619	0.676148	-0.809270	-0.846924	-0.102051	-0.136475	43.568873	21.396553	169.749276
16842		-3.419273	3.296337	9.202471	-1.730313	0.435320	-0.692186	-0.861328	-0.105957	-0.150391	42.531293	21.853132	169.621311
16843		-6.340220	7.017374	7.192055	-1.141354	0.271644	-0.539784	-0.851563	-0.100342	-0.161865	41.827869	22.176795	169.487075
16844		-4.219459	6.164273	7.151266	-0.805985	0.264202	-0.284251	-0.851318	-0.110840	-0.161377	41.358350	22.401816	169.464602
16845		-4.190592	5.879862	7.280493	-0.631374	0.261796	-0.230442	-0.853760	-0.087158	-0.159180	40.997278	22.602314	169.464169
16846		-4.421798	6.216927	7.004488	-0.468508	0.214007	-0.146250	-0.848633	-0.093506	-0.160645	40.736872	22.753597	169.482987
16847		-4.101532	6.073782	7.070393	-0.347836	0.159828	-0.097740	-0.843506	-0.092041	-0.159912	40.545722	22.860229	169.501824
16848		-4.107923	5.982005	7.069726	-0.245927	0.111677	-0.071574	-0.848389	-0.094971	-0.162109	40.410178	22.939283	169.513597
16849		-4.025910	5.956575	6.996099	-0.179565	0.095556	-0.060544	-0.848145	-0.091064	-0.162109	40.312052	23.004138	169.523626
16850		-4.014345	5.925588	6.925743	-0.136494	0.083826	-0.048320	-0.834961	-0.093994	-0.165527	40.239058	23.062455	169.534954
16851		-3.978684	5.941525	6.912645	-0.120576	0.081362	-0.049143	-0.840820	-0.095459	-0.168945	40.174568	23.116907	169.544517
16852		-4.019255	5.844960	6.974328	-0.110029	0.070355	-0.045904	-0.837891	-0.092529	-0.174561	40.115039	23.168465	169.551459
16853		-4.022136	5.816285	6.991192	-0.091486	0.054658	-0.037692	-0.842773	-0.096680	-0.162109	40.065116	23.207004	169.555650
16854		-3.987455	5.855427	6.963667	-0.090763	0.050804	-0.030390	-0.843994	-0.098877	-0.169434	40.016423	23.244290	169.562061
16855		-3.975451	5.877726	6.918301	-0.094543	0.035672	-0.025380	-0.836914	-0.089355	-0.162842	39.964043	23.269968	169.564455
16856		-3.947543	5.833264	6.947770	-0.106888	0.039046	-0.023701	-0.836426	-0.087402	-0.161621	39.905498	23.299643	169.569291
16857		-3.947214	5.804895	6.966159	-0.111997	0.032476	-0.014199	-0.844238	-0.087402	-0.162598	39.844710	23.319813	169.575705
16858		-3.952551	5.912378	6.835926	-0.133876	0.023106	-0.017174	-0.846924	-0.090576	-0.164551	39.769399	23.340091	169.577238
16859		-3.997196	5.758322	6.996142	-0.141759	0.028773	-0.019365	-0.839844	-0.088867	-0.168701	39.689973	23.360535	169.579642
16860		-3.995874	5.714434	6.995907	-0.133032	0.027266	-0.018008	-0.849854	-0.091064	-0.169678	39.615631	23.382960	169.582383
16861		-4.023365	5.714462	7.024458	-0.129392	0.028280	-0.017267	-0.838867	-0.089355	-0.170898	39.543593	23.402428	169.585542
16862		-4.034049	5.745284	7.003850	-0.119312	0.027166	-0.014218	-0.838867	-0.089600	-0.173828	39.477796	23.423439	169.590014
16863		-4.000448	5.803597	6.966307	-0.122064	0.028348	-0.016693	-0.839600	-0.096924	-0.165283	39.410060	23.442735	169.593428
16864		-3.971611	5.757398	6.997160	-0.126270	0.026163	-0.024468	-0.837158	-0.092041	-0.167969	39.338135	23.467043	169.592508
16865		-4.027367	5.773741	7.014328	-0.130066	0.020074	-0.029528	-0.843018	-0.095703	-0.171631	39.262021	23.487336	169.586392
16866		-4.013531	5.780340	6.952093	-0.135696	0.021462	-0.037215	-0.839600	-0.092041	-0.159424	39.181470	23.514177	169.577384
16867		-3.989195	5.752319	6.970883	-0.143522	0.014244	-0.047410	-0.845947	-0.085693	-0.173584	39.093237	23.538330	169.560236
16868		-3.976235	5.770245	6.930780	-0.168351	0.013879	-0.049244	-0.843506	-0.086182	-0.175537	38.990416	23.566114	169.542319
16869		-4.058431	5.680735	7.073769	-0.162980	0.011552	-0.060305	-0.843506	-0.092041	-0.179932	38.888049	23.593656	169.517745
16870		-4.046300	5.835332	6.974915	-0.171023	0.005274	-0.072244	-0.836914	-0.079102	-0.166016	38.777801	23.625806	169.485145
16871		-4.112093	5.761113	7.049903	-0.184535	0.001430	-0.089195	-0.837402	-0.081299	-0.174316	38.655766	23.659089	169.442384
16872		-4.048361	5.762183	7.022239	-0.182610	-0.022702	-0.112588	-0.836182	-0.078369	-0.174072	38.526488	23.693007	169.378991
16873		-4.057153	5.751148	7.000544	-0.202271	-0.017550	-0.121801	-0.840820	-0.089600	-0.176514	38.384773	23.729214	169.312678
16874		-4.039455	5.609663	7.090270	-0.211446	0.000677	-0.128982	-0.840820	-0.088379	-0.176270	38.239231	23.779186	169.250106
16875		-4.047696	5.602576	7.122415	-0.202578	0.005347	-0.136560	-0.849854	-0.090088	-0.175537	38.097785	23.830627	169.185141
16876		-4.071576	5.525548	7.139500	-0.190240	0.020990	-0.138964	-0.840332	-0.088379	-0.172363	37.965336	23.893010	169.125178
16877		-4.113799	5.556809	7.145296	-0.168386	0.021566	-0.142149	-0.836426	-0.087402	-0.171875	37.844640	23.953478	169.063377
16878		-4.114510	5.485579	7.158164	-0.161443	0.030529	-0.139718	-0.831055	-0.087891	-0.173340	37.729762	24.020213	169.006366
16879		-4.114175	5.559628	7.167003	-0.143005	0.027125	-0.142728	-0.835938	-0.086182	-0.176270	37.624102	24.083179	168.946086
16880		-4.114616	5.477418	7.157191	-0.132706	0.037228	-0.144160	-0.838379	-0.082031	-0.173584	37.525574	24.154318	168.889108
16881		-4.131200	5.508055	7.191541	-0.124953	0.040684	-0.151730	-0.834229	-0.080078	-0.175537	37.430284	24.226396	168.829217
16882		-4.134559	5.553173	7.102436	-0.111806	0.044027	-0.169567	-0.836182	-0.079346	-0.172852	37.339309	24.309298	168.761827
16883		-4.140218	5.510030	7.152413	-0.099340	0.052262	-0.191759	-0.837402	-0.085449	-0.177734	37.251961	24.400376	168.685993
16884		-4.149832	5.462015	7.147083	-0.087071	0.056230	-0.204084	-0.832520	-0.089600	-0.174805	37.169572	24.500620	168.605581
16885		-4.193765	5.463732	7.138051	-0.079479	0.063611	-0.209731	-0.842041	-0.082275	-0.177979	37.091241	24.602899	168.524628
16886		-4.209843	5.449814	7.139226	-0.061283	0.063275	-0.213576	-0.833008	-0.083496	-0.178223	37.022307	24.709447	168.441694
16887		-4.218397	5.408519	7.185510	-0.049740	0.068884	-0.217738	-0.831055	-0.075195	-0.182861	36.959720	24.816719	168.358297
16888		-4.220643	5.441501	7.157869	-0.026563	0.075355	-0.230782	-0.829590	-0.079346	-0.181152	36.908492	24.934564	168.270866
16889		-4.131815	5.280023	7.251453	-0.010633	0.103444	-0.236733	-0.834229	-0.082764	-0.172607	36.869327	25.064072	168.190610
16890		-4.202189	5.142616	7.291936	0.036029	0.149668	-0.259814	-0.828125	-0.080566	-0.176758	36.859169	25.225858	168.116340
16891		-4.143940	5.206341	7.271728	0.079118	0.198156	-0.307274	-0.833984	-0.079590	-0.182373	36.871002	25.422999	168.036053
16892		-4.226925	5.323527	7.236166	0.140879	0.263223	-0.335080	-0.828857	-0.091553	-0.182861	36.922537	25.662736	167.966692
16893		-4.250196	5.267082	7.306011	0.249060	0.311947	-0.353493	-0.830811	-0.089355	-0.184570	37.039931	25.928036	167.906597
16894		-4.317912	5.167700	7.395797	0.382198	0.354279	-0.432195	-0.826660	-0.084961	-0.171143	37.223147	26.243197	167.823655
16895		-3.720445	5.577822	7.044246	0.560751	0.414455	-0.594109	-0.810059	-0.091309	-0.177246	37.482450	26.639173	167.682556
16896		-3.682143	5.624952	7.443600	0.707989	0.718117	-0.695282	-0.810059	-0.091064	-0.180908	37.856532	27.212098	167.611335
16897		-3.640903	5.607988	6.976959	0.858103	0.909354	-0.865001	-0.809814	-0.103516	-0.175781	38.313258	27.928579	167.534028
16898		-3.608396	5.444093	7.295428	1.025479	1.150722	-0.999863	-0.799805	-0.097168	-0.173340	38.882044	28.804933	167.493073
16899		-3.453771	5.763972	7.132536	1.139453	1.431610	-1.197990	-0.792236	-0.107666	-0.178467	39.528343	29.875080	167.477927
16900		-4.047696	6.026847	7.204049	1.276177	1.697669	-1.410221	-0.775635	-0.108887	-0.178467	40.262784	31.143100	167.482961
16901		-3.774672	6.279948	7.050626	1.312961	1.961857	-1.648912	-0.773438	-0.118164	-0.174316	41.025598	32.612043	167.501248
16902		-4.035473	6.609944	7.245131	1.180085	2.354391	-1.916816	-0.763184	-0.129150	-0.182129	41.747600	34.353548	167.583060
16903		-4.296810	6.487957	7.103393	0.984592	2.820430	-2.177152	-0.739014	-0.126465	-0.179443	42.424515	36.389574	167.776304
16904		-4.430319	6.461093	7.195753	0.828949	3.332805	-2.439330	-0.726563	-0.137207	-0.170410	43.108673	38.743530	168.118113
16905		-4.780466	7.198604	7.167438	0.568421	3.900890	-2.752242	-0.704346	-0.138672	-0.170166	43.765317	41.451367	168.630408
16906		-5.391653	7.349656	6.734734	0.301703	4.467625	-3.139678	-0.682373	-0.135986	-0.171631	44.394904	44.544463	169.298722
16907		-6.065856	8.041906	6.590161	0.052456	4.956460	-3.568969	-0.650879	-0.144043	-0.179688	44.994708	48.002147	170.085600
16908		-8.478493	7.234372	7.102792	0.158163	5.214874	-3.954962	-0.626709	-0.140869	-0.169189	45.719762	51.716468	170.913917
16909		-9.348423	8.804547	8.758980	0.193208	5.480578	-4.318681	-0.601807	-0.131592	-0.169434	46.581160	55.677076	171.843759
16910		-13.865641	10.961956	10.528132	-0.000359	5.630775	-4.795454	-0.563477	-0.133789	-0.165283	47.349626	59.889204	172.750677
16911		-17.777667	11.797872	8.982430	0.024968	5.414433	-5.002684	-0.529785	-0.129150	-0.154053	48.052934	64.097801	173.529576
16912		-16.121668	9.888814	8.283920	0.359769	5.176386	-5.054434	-0.501221	-0.135010	-0.155762	48.946053	68.233458	174.279023
16913		-15.427954	10.707063	10.845604	0.994550	5.077759	-4.962098	-0.469482	-0.127197	-0.131348	50.590651	72.283864	175.419030
16914		-14.274721	13.408629	12.581012	1.235543	4.904627	-4.943500	-0.445068	-0.114258	-0.121338	52.911901	76.248840	177.092895
16915		-12.647159	13.644942	12.882401	0.994383	4.939786	-5.033355	-0.406982	-0.121094	-0.109131	56.596004	80.239495	-179.729082
16916		-8.946892	11.385492	10.713362	0.687937	5.060899	-5.181486	-0.381348	-0.111572	-0.083252	64.939642	84.254734	-171.712572
16917		-5.249551	11.861338	10.300338	0.581648	4.891094	-5.265816	-0.337646	-0.098389	-0.056641	100.045233	87.773618	-136.877457
16918		-2.014098	7.291352	9.453224	0.779961	4.411613	-5.210009	-0.312988	-0.084717	-0.040039	-164.636004	86.972430	-41.948159
16919		-14.076527	7.163862	10.887567	1.428097	3.401526	-5.491462	-0.291016	-0.071533	-0.018311	-140.398271	83.722885	-18.463711
16920		-15.082086	14.974645	17.845468	2.464798	1.452480	-3.546519	-0.261963	-0.065430	0.000000	-132.012106	81.716584	-11.435694
16921		-10.038826	21.441186	17.764271	3.304177	-0.468421	-1.336686	-0.258057	-0.068115	0.011963	-125.509732	81.286462	-6.776276
16922		-6.422481	20.937972	14.429069	2.929921	-1.920434	0.201225	-0.252197	-0.071533	0.022705	-117.871195	81.971148	-0.754224
16923		-3.129151	17.692293	10.319262	2.040441	-2.747734	1.148369	-0.247314	-0.075439	0.015381	-107.488782	83.188724	8.535107
16924		-2.014284	14.655368	7.694243	1.083106	-3.192201	1.693303	-0.234863	-0.086182	0.021484	-91.584221	84.469518	23.903857
16925		-1.531570	11.922232	5.934622	0.235703	-3.468789	2.005777	-0.235596	-0.101074	0.004883	-67.202852	85.250647	48.243743
16926		-1.330903	9.659722	4.565764	-0.360351	-3.656232	2.232596	-0.226563	-0.112549	-0.007324	-38.332382	84.997671	77.418873
16927		-1.124177	7.381094	3.466553	-0.665465	-3.755103	2.439489	-0.208008	-0.126709	-0.014893	-16.069522	83.698016	100.168561
16928		-0.765859	5.511051	2.487279	-0.680479	-3.765785	2.635094	-0.209473	-0.141113	-0.032227	-1.960999	81.782711	114.777381
16929		-0.497735	4.173415	1.863771	-0.480363	-3.699272	2.776948	-0.209717	-0.164795	-0.051514	6.909095	79.590040	124.041851
16930		-0.631142	3.511045	1.910362	-0.119750	-3.561981	2.874377	-0.206055	-0.180176	-0.074707	13.090541	77.281078	130.415751
16931		-1.039472	3.468053	2.427785	0.327986	-3.393275	2.985733	-0.206543	-0.209473	-0.087402	17.852633	74.949749	135.125567
16932		-1.803056	4.068745	3.537848	0.796735	-3.262835	3.158854	-0.214355	-0.228271	-0.103516	21.995959	72.562568	138.960064
16933		-2.832535	5.184343	4.726808	1.174944	-3.221075	3.401909	-0.225830	-0.275635	-0.125977	25.735458	70.085979	142.194933
16934		-3.731003	6.259120	5.845553	1.388597	-3.241061	3.680959	-0.248291	-0.308105	-0.147705	29.167724	67.452034	145.017517
16935		-4.473859	7.078311	6.636045	1.429156	-3.286374	3.955610	-0.273926	-0.338867	-0.159180	32.213936	64.676166	147.452564
16936		-5.100689	7.304151	7.292641	1.362443	-3.314785	4.197804	-0.313721	-0.373779	-0.176270	34.901627	61.749059	149.582355
16937		-5.863437	7.443824	7.875811	1.251607	-3.313616	4.403891	-0.362061	-0.405518	-0.189209	37.232711	58.729223	151.439672
16938		-6.957483	7.624710	8.633535	1.100441	-3.307967	4.567928	-0.413574	-0.424316	-0.194580	39.243455	55.604714	153.075384
16939		-8.130143	7.868036	9.112239	0.905815	-3.320257	4.672452	-0.460938	-0.442871	-0.192871	40.898860	52.426044	154.478008
16940		-8.813245	7.706524	9.277962	0.671666	-3.364902	4.716781	-0.511963	-0.445801	-0.194336	42.204934	49.173918	155.659597
16941		-9.176515	7.197643	9.265204	0.494702	-3.403516	4.720283	-0.572266	-0.462891	-0.184326	43.216016	45.907124	156.644219
16942		-9.479736	6.757713	9.131223	0.457214	-3.405449	4.695955	-0.626465	-0.453369	-0.177246	44.070521	42.620968	157.485690
16943		-9.700331	6.540056	9.106560	0.569200	-3.358944	4.656378	-0.671387	-0.450195	-0.162598	44.880694	39.379171	158.221773
16944		-10.107287	6.668541	9.140264	0.802282	-3.268529	4.621636	-0.706299	-0.441406	-0.151367	45.757260	36.162171	158.894483
16945		-10.621347	7.480363	9.217587	1.068165	-3.146500	4.550911	-0.754883	-0.430908	-0.127686	46.716507	33.032693	159.504023
16946		-11.370855	8.470346	9.118713	1.273050	-2.958256	4.467165	-0.776123	-0.418945	-0.101563	47.753316	29.985596	160.083735
16947		-12.447180	9.205137	9.052601	1.468128	-2.650065	4.440616	-0.798340	-0.409668	-0.091797	48.898859	27.076238	160.718604
16948		-14.940324	10.744833	9.503394	1.619047	-2.308084	4.519850	-0.815186	-0.405518	-0.074463	50.154763	24.231111	161.467580
16949		-19.144723	13.094212	9.785064	1.505375	-2.025580	4.669156	-0.844727	-0.410400	-0.061768	51.352627	21.425671	162.329008
16950		-24.286086	15.472211	9.740378	0.956642	-1.905919	4.841146	-0.856689	-0.411621	-0.049805	52.216227	18.555144	163.241779
16951		-29.510431	15.993373	8.760627	-0.052530	-1.979590	4.955729	-0.894043	-0.399902	-0.044922	52.444515	15.615024	164.118107
16952		-32.246394	12.265717	5.841030	-1.204019	-2.264964	4.924686	-0.919189	-0.394531	-0.039063	51.934403	12.577098	164.844255
16953		-30.976475	5.542239	1.727087	-1.990173	-2.504458	4.670182	-0.955078	-0.382813	-0.030273	50.901944	9.591123	165.401919
16954		-28.107962	-0.894421	-2.231788	-2.143548	-2.527740	4.192623	-0.978271	-0.372803	-0.037598	49.738009	6.808253	165.748915
16955		-24.509037	-6.397711	-5.668411	-1.747614	-2.230851	3.580576	-1.009521	-0.359619	-0.029541	48.773863	4.420357	166.121575
16956		-23.560461	-9.262806	-7.272843	-1.023884	-1.654983	2.873161	-1.033203	-0.350586	-0.027832	48.213265	2.553202	166.503014
16957		-20.411889	-11.732720	-6.881632	-0.086728	-0.747648	1.660258	-1.030518	-0.352051	-0.027344	48.175731	1.559199	166.818311
16958		-24.118152	-12.628949	-11.450077	0.583646	0.580153	0.270697	-1.034668	-0.351563	-0.034912	48.522616	1.661208	167.169957
16959		-24.644819	-9.902958	-9.255551	0.801638	1.365153	-0.606496	-1.033936	-0.357910	-0.034180	48.995639	2.438766	167.529562
16960		-27.000624	-8.305862	-11.051415	0.323284	2.285506	-1.634487	-1.013184	-0.358887	-0.032227	49.204708	4.004237	167.907106
16961		-13.734589	-8.692835	-6.579342	-0.583835	3.010229	-2.582102	-0.992188	-0.370117	-0.049805	48.900928	6.252633	168.241880
16962		0.700401	0.692151	4.355083	-1.146938	3.585468	-3.176942	-0.979980	-0.383545	-0.074463	48.291558	8.979605	168.582536
16963		-8.454191	13.409506	17.733445	-0.283756	4.136771	-3.397990	-0.951416	-0.388184	-0.084229	48.217325	12.010988	169.062946
16964		-18.461244	10.421096	24.256037	-0.641536	3.821295	-3.481913	-0.921143	-0.406006	-0.103516	47.923066	14.961425	169.367854
16965		-12.186253	5.771667	18.079370	-0.758035	3.647126	-3.522063	-0.886230	-0.417236	-0.125244	47.545309	17.860873	169.565337
16966		-21.691873	19.543520	22.367889	-0.943305	3.020244	-3.044732	-0.872314	-0.413818	-0.137207	47.036415	20.320979	169.659372
16967		-26.220231	27.474504	12.990579	-2.653585	0.812239	-1.626379	-0.856201	-0.408936	-0.145264	45.399527	21.316370	169.329347
16968		-1.836329	4.977194	7.423704	-2.093741	0.580809	-0.831968	-0.850098	-0.400391	-0.171875	44.160251	21.894542	169.218369
16969		-3.256287	0.832572	10.885250	-2.132655	0.512224	-1.061936	-0.841797	-0.409668	-0.172607	42.841545	22.526900	168.960140
16970		-9.004728	7.741802	6.954175	-1.130497	0.123686	-0.640520	-0.845215	-0.401855	-0.185059	42.101545	22.833065	168.719183
16971		-4.178804	6.872230	6.456367	-0.821297	0.129958	-0.246418	-0.837402	-0.396973	-0.195801	41.608474	22.983393	168.659202
16972		-4.520141	6.269130	7.034021	-0.719740	0.136437	-0.259053	-0.834473	-0.402344	-0.199219	41.171650	23.146575	168.594958
16973		-4.401269	5.980441	7.115560	-0.481200	0.131583	-0.124351	-0.831787	-0.396484	-0.196533	40.895060	23.250883	168.590570
16974		-4.157753	5.640886	7.263833	-0.321526	0.122147	-0.040530	-0.837158	-0.395752	-0.204102	40.723912	23.325481	168.621827
16975		-4.190995	6.029898	6.871654	-0.221537	0.112389	0.011941	-0.832520	-0.396973	-0.206543	40.618274	23.370529	168.673420
16976		-4.128504	6.299915	6.745313	-0.191521	0.094068	0.024355	-0.832275	-0.395996	-0.207031	40.529220	23.408865	168.723749
16977		-4.088713	6.035598	6.809458	-0.167680	0.070920	0.017334	-0.825928	-0.392090	-0.199219	40.448784	23.433987	168.760964
16978		-4.021451	6.158235	6.727309	-0.168227	0.049630	-0.002762	-0.834229	-0.398193	-0.200928	40.360852	23.463150	168.780342
16979		-3.951698	6.006501	6.773657	-0.185878	0.046332	-0.040212	-0.826660	-0.393555	-0.207275	40.255115	23.498966	168.780137
16980		-4.041467	5.930554	6.852359	-0.197995	0.031653	-0.062440	-0.832031	-0.387695	-0.202393	40.135895	23.542390	168.763710
16981		-4.009622	5.830485	6.861690	-0.216799	0.025988	-0.069994	-0.831055	-0.389160	-0.211670	40.003410	23.580269	168.740910
16982		-3.995393	5.740173	6.981530	-0.224412	0.022612	-0.073736	-0.832764	-0.390381	-0.210693	39.865337	23.623808	168.715242
16983		-4.067317	5.553546	7.074533	-0.214989	0.031293	-0.070623	-0.830078	-0.387695	-0.206543	39.734506	23.664155	168.694055
16984		-4.075497	5.673282	7.022567	-0.194266	0.031361	-0.070823	-0.825195	-0.393555	-0.212402	39.615526	23.710380	168.673067
16985		-4.163127	5.685572	7.010315	-0.170480	0.040460	-0.087549	-0.833008	-0.388916	-0.215088	39.508270	23.760872	168.647170
16986		-4.128437	5.711480	7.020986	-0.152639	0.045813	-0.104762	-0.823486	-0.391113	-0.216553	39.408708	23.825785	168.615330
16987		-4.093765	5.711235	6.989801	-0.142540	0.061785	-0.103637	-0.825928	-0.394531	-0.215332	39.317597	23.891486	168.589898
16988		-4.122063	5.790417	6.962590	-0.134906	0.053093	-0.120945	-0.829102	-0.390381	-0.215576	39.226002	23.965406	168.552844
16989		-4.067506	5.787235	6.875471	-0.148079	0.049094	-0.133342	-0.825439	-0.388184	-0.213379	39.123633	24.036146	168.507676
16990		-4.123420	5.755607	6.920064	-0.168254	0.039026	-0.160421	-0.816895	-0.390381	-0.217285	39.002603	24.117937	168.445509
16991		-4.069092	5.781565	6.930793	-0.194848	0.040932	-0.180809	-0.824463	-0.385986	-0.210938	38.862357	24.201954	168.373550
16992		-4.174176	5.723724	6.960751	-0.198313	0.035796	-0.194551	-0.822754	-0.386475	-0.218506	38.716353	24.294275	168.292912
16993		-4.168489	5.739343	6.976498	-0.203287	0.029987	-0.182239	-0.819336	-0.383789	-0.223145	38.568781	24.373572	168.215389
16994		-4.209860	5.615895	7.022026	-0.195124	0.024271	-0.175315	-0.817139	-0.376709	-0.225342	38.426197	24.453489	168.139118
16995		-4.251791	5.519557	7.107808	-0.184210	0.024376	-0.160607	-0.820801	-0.379883	-0.218262	38.292665	24.522224	168.069558
16996		-4.239410	5.517834	7.135104	-0.164649	0.032300	-0.154592	-0.812256	-0.385254	-0.222900	38.172713	24.598089	168.006196
