// General information: 
//  MT Manager version: 2022.2.0 
//  XDA version: 2022.2.0 build 7381 rev 124627 built on 2023-07-19
// Device information: 
//  DeviceId: 00B4C3A0
//  ProductCode: MTW2-3A7G6
//  Firmware Version: 4.6.0
//  Hardware Version: 2.0.0
// Device settings: 
//  Filter Profile: human(46.1)
//  Option Flags: Orientation Smoother Disabled, Position/Velocity Smoother Disabled, Continuous Zero Rotation Update Disabled, AHS Disabled, ICC Disabled
// Coordinate system: ENU
PacketCounter	SampleTimeFine	Acc_X	Acc_Y	Acc_Z	Gyr_X	Gyr_Y	Gyr_Z	Mag_X	Mag_Y	Mag_Z	Roll	Pitch	Yaw
28750		9.563010	0.325026	-0.952514	-0.010256	-0.012386	0.002291	-0.368652	-0.205566	0.678223	155.430120	-81.930734	-10.108422
28751		9.592388	0.323631	-0.971536	-0.009319	-0.012065	-0.002712	-0.371094	-0.208740	0.672607	155.448157	-81.929047	-10.127816
28752		9.601591	0.304923	-0.922554	-0.009491	-0.016624	-0.000878	-0.377197	-0.198486	0.674072	155.476949	-81.918663	-10.157052
28753		9.575191	0.324220	-0.935712	-0.008672	-0.017310	0.001208	-0.373291	-0.211670	0.679199	155.517930	-81.915510	-10.199137
28754		9.552030	0.361167	-0.978295	-0.004577	-0.016130	0.000269	-0.377441	-0.206543	0.676270	155.552778	-81.905650	-10.231649
28755		9.581379	0.359614	-0.997534	-0.010258	-0.012383	0.002291	-0.372070	-0.200928	0.669189	155.587666	-81.905395	-10.269568
28756		9.567615	0.377539	-0.989444	-0.003059	-0.013897	0.000159	-0.378418	-0.203369	0.676758	155.619148	-81.896668	-10.297802
28757		9.591536	0.323837	-0.979843	0.001941	-0.011125	0.000389	-0.367432	-0.204834	0.677734	155.652890	-81.896632	-10.326033
28758		9.592453	0.307249	-1.010994	0.005829	-0.008622	-0.003915	-0.371582	-0.202148	0.671631	155.665700	-81.889693	-10.330263
28759		9.620826	0.322748	-0.999440	0.010830	-0.005850	-0.003686	-0.374756	-0.202881	0.673340	155.681474	-81.890954	-10.335642
28760		9.626204	0.375337	-1.028462	0.015708	0.000526	-0.007739	-0.379150	-0.197998	0.671387	155.670772	-81.887889	-10.310403
28761		9.592471	0.376188	-0.950948	0.012726	-0.000383	-0.002266	-0.367432	-0.202881	0.669922	155.683160	-81.892966	-10.310459
28762		9.608336	0.392877	-0.959185	0.006397	0.008607	-0.004163	-0.378174	-0.205322	0.680176	155.666828	-81.894964	-10.284923
28763		9.578907	0.394634	-0.940688	0.006227	0.004048	-0.002328	-0.375000	-0.194336	0.679688	155.667936	-81.901961	-10.278305
28764		9.594777	0.411216	-0.948913	-0.000443	0.003921	-0.000557	-0.377930	-0.200684	0.671387	155.668664	-81.902363	-10.273961
28765		9.589400	0.359051	-0.919722	0.000463	0.005514	0.000612	-0.369141	-0.200195	0.661621	155.675479	-81.911110	-10.274647
28766		9.575795	0.376937	-0.910067	0.000906	0.001593	0.001169	-0.380615	-0.199951	0.684814	155.687179	-81.910704	-10.280605
28767		9.590474	0.342176	-0.949466	0.002047	0.000590	-0.000470	-0.372314	-0.205078	0.671143	155.698712	-81.916475	-10.286043
28768		9.590500	0.342086	-0.949232	-0.002198	0.004287	0.002360	-0.361816	-0.193848	0.682129	155.708549	-81.917757	-10.291915
28769		9.590542	0.342012	-0.948834	-0.000443	0.003921	-0.000557	-0.367188	-0.191162	0.677002	155.714128	-81.924593	-10.292687
28770		9.587341	0.324267	-0.919110	0.000906	0.001593	0.001169	-0.375488	-0.202148	0.679688	155.725839	-81.924187	-10.298655
28771		9.562140	0.326741	-0.960627	-0.005971	0.002790	-0.000425	-0.371582	-0.202393	0.669922	155.730615	-81.930808	-10.300905
28772		9.547497	0.361471	-0.920827	-0.001057	0.003283	0.000721	-0.380127	-0.204590	0.676758	155.736752	-81.931179	-10.302379
28773		9.578046	0.343023	-0.968637	0.001198	0.002549	0.003616	-0.368652	-0.206055	0.674805	155.758981	-81.938969	-10.320054
28774		9.564431	0.360691	-0.959182	-0.001755	0.000366	0.002917	-0.366699	-0.211670	0.675049	155.777664	-81.938333	-10.334603
28775		9.564445	0.360429	-0.959141	-0.001755	0.000366	0.002917	-0.371826	-0.197754	0.680420	155.799588	-81.944157	-10.355156
28776		9.573822	0.341032	-0.908965	-0.005115	-0.003779	0.006860	-0.375732	-0.206787	0.667480	155.837783	-81.942278	-10.391356
28777		9.574818	0.323798	-0.939669	-0.008974	-0.007555	0.004992	-0.371338	-0.195801	0.672852	155.876647	-81.944919	-10.431399
28778		9.602198	0.355377	-0.897850	-0.004879	-0.006375	0.004052	-0.369629	-0.209229	0.672363	155.908878	-81.941018	-10.461439
28779		9.575733	0.306415	-0.971161	-0.013890	-0.008046	0.003846	-0.380615	-0.212158	0.671387	155.941801	-81.942879	-10.498561
28780		9.548394	0.342119	-0.953297	-0.009881	-0.009146	0.003823	-0.369629	-0.202637	0.682373	155.974844	-81.937470	-10.532316
28781		9.588194	0.304604	-0.952014	-0.007919	-0.010836	0.004269	-0.374756	-0.209229	0.678711	156.016400	-81.938297	-10.575435
28782		9.565097	0.341164	-0.993856	-0.007541	-0.007601	0.005800	-0.377197	-0.199219	0.682129	156.055482	-81.934150	-10.613937
28783		9.590291	0.338306	-0.952692	-0.008276	-0.004635	0.002797	-0.377197	-0.207031	0.675537	156.081814	-81.937920	-10.640860
28784		9.593497	0.355822	-0.982397	-0.009332	-0.001351	0.003520	-0.372803	-0.195068	0.680420	156.101174	-81.936512	-10.660478
28785		9.577639	0.339056	-0.974051	-0.003361	-0.004144	0.003942	-0.377441	-0.203125	0.675049	156.134224	-81.940711	-10.690767
28786		9.607113	0.337289	-0.992038	-0.001669	0.002645	0.002001	-0.378174	-0.200684	0.681396	156.145812	-81.941043	-10.698102
28787		9.561822	0.322282	-0.965290	0.000086	0.002279	-0.000916	-0.371338	-0.201660	0.676270	156.152005	-81.947644	-10.699396
28788		9.592540	0.371813	-0.951975	-0.002810	0.003649	0.003640	-0.373779	-0.194336	0.675293	156.167378	-81.948881	-10.711214
28789		9.576724	0.354993	-0.943219	-0.002369	-0.000272	0.004195	-0.371826	-0.200928	0.678467	156.196230	-81.954947	-10.736258
28790		9.550481	0.373864	-0.954863	-0.003889	-0.002502	0.004304	-0.372314	-0.195801	0.677979	156.223518	-81.953112	-10.760733
28791		9.574491	0.319826	-0.944342	-0.007371	-0.003041	0.003966	-0.374023	-0.195557	0.675537	156.253296	-81.957627	-10.789622
28792		9.535610	0.340100	-0.976958	-0.006757	-0.002403	0.002688	-0.376221	-0.194824	0.672607	156.272779	-81.955468	-10.807875
28793		9.592333	0.302638	-1.013522	-0.007406	0.002843	-0.001230	-0.374268	-0.200928	0.676514	156.273559	-81.962043	-10.806999
28794		9.602983	0.334742	-0.931925	-0.004244	0.003699	0.002833	-0.374268	-0.201172	0.681396	156.285073	-81.963118	-10.815748
28795		9.603049	0.334660	-0.931272	-0.009516	0.009410	0.000217	-0.371582	-0.200439	0.677490	156.278954	-81.973405	-10.810180
28796		9.631607	0.349826	-0.918060	-0.006648	0.009311	0.001833	-0.367188	-0.190186	0.681885	156.276206	-81.977193	-10.805918
28797		9.607685	0.403298	-0.927947	-0.007876	0.008036	0.004388	-0.372314	-0.209717	0.678711	156.289890	-81.987404	-10.818302
28798		9.625668	0.386055	-0.995963	-0.010366	0.011370	0.004304	-0.377197	-0.205811	0.679688	156.290853	-81.992841	-10.819937
28799		9.593084	0.369266	-0.947477	-0.009254	0.011637	0.008836	-0.370850	-0.201904	0.663818	156.312671	-82.006274	-10.843832
28800		9.552147	0.354807	-0.979488	-0.006885	0.011910	0.004642	-0.368164	-0.196777	0.677246	156.316029	-82.012072	-10.845871
28801		9.564900	0.353096	-0.957323	-0.009989	0.014607	0.005835	-0.373291	-0.200684	0.678955	156.322438	-82.026016	-10.853460
28802		9.561764	0.335108	-0.926764	-0.013614	0.008240	0.001153	-0.373047	-0.198975	0.666992	156.314906	-82.029085	-10.848397
28803		9.552507	0.354056	-0.976238	-0.009313	0.008089	0.003578	-0.382568	-0.208496	0.677734	156.323718	-82.039290	-10.857889
28804		9.565171	0.352536	-0.954824	-0.009778	0.002576	0.002960	-0.373535	-0.198975	0.678467	156.334482	-82.039803	-10.869081
28805		9.542229	0.389439	-0.995620	-0.006674	-0.000121	0.001768	-0.379395	-0.200928	0.679932	156.350978	-82.045544	-10.885188
28806		9.578810	0.334313	-0.964118	-0.008195	-0.002351	0.001874	-0.375244	-0.198975	0.674316	156.366676	-82.043222	-10.900446
28807		9.564164	0.368775	-0.924590	-0.007816	0.000883	0.003407	-0.372070	-0.202393	0.679688	156.387467	-82.049787	-10.920857
28808		9.551356	0.302118	-1.006916	-0.005705	-0.005685	0.001958	-0.367676	-0.201172	0.679199	156.410377	-82.045731	-10.941957
28809		9.578766	0.333888	-0.964701	-0.007580	-0.001712	0.000597	-0.376953	-0.201904	0.680176	156.425575	-82.049867	-10.957035
28810		9.550280	0.318768	-0.977219	-0.005004	-0.002766	-0.000234	-0.367188	-0.195313	0.680664	156.435846	-82.046841	-10.964966
28811		9.594585	0.350378	-0.973686	-0.010244	-0.002937	0.002342	-0.366943	-0.197266	0.682617	156.458239	-82.050841	-10.988126
28812		9.610437	0.366654	-0.982424	-0.011387	-0.001933	0.003981	-0.371338	-0.196045	0.672852	156.479333	-82.049216	-11.010678
28813		9.624045	0.348383	-0.992014	-0.009425	-0.003626	0.004427	-0.372314	-0.204102	0.673828	156.511490	-82.053152	-11.043073
28814		9.552450	0.352347	-0.977415	-0.011474	-0.004212	0.004895	-0.373779	-0.196289	0.675781	156.539695	-82.050534	-11.072856
28815		9.566037	0.334050	-0.987198	-0.008898	-0.005267	0.004064	-0.368652	-0.204834	0.676758	156.572809	-82.053708	-11.106661
28816		9.564981	0.350361	-0.957522	-0.006936	-0.006960	0.004509	-0.371582	-0.197021	0.674316	156.606619	-82.049553	-11.139479
28817		9.551087	0.300525	-1.009939	-0.011972	-0.003835	-0.000915	-0.375000	-0.195068	0.680176	156.617096	-82.052183	-11.152386
28818		9.552271	0.351427	-0.979491	-0.007638	-0.009878	0.006699	-0.373047	-0.202148	0.682617	156.663464	-82.046986	-11.198290
28819		9.539597	0.352342	-1.001127	-0.008371	-0.006908	0.003700	-0.372314	-0.197998	0.677246	156.698474	-82.049245	-11.233045
28820		9.553134	0.334135	-1.011294	-0.007317	-0.010191	0.002974	-0.369385	-0.203369	0.672607	156.731433	-82.043032	-11.265224
28821		9.565665	0.332632	-0.991274	-0.007230	-0.007911	0.002060	-0.372070	-0.197510	0.677979	156.762432	-82.044192	-11.296088
28822		9.552986	0.333876	-1.012781	-0.009192	-0.006216	0.001615	-0.373291	-0.192627	0.672607	156.782716	-82.039760	-11.316553
28823		9.565538	0.332709	-0.992472	-0.008256	-0.005891	-0.003386	-0.376221	-0.200928	0.665527	156.789644	-82.040821	-11.322584
28824		9.597223	0.365773	-1.009917	-0.006763	-0.002398	0.002682	-0.372070	-0.207031	0.684326	156.809154	-82.038639	-11.340862
28825		9.582321	0.332685	-1.031893	-0.011975	-0.003831	-0.000914	-0.373047	-0.203613	0.683594	156.819200	-82.041409	-11.353866
28826		9.608778	0.381081	-0.959524	-0.007758	-0.006268	0.002423	-0.370361	-0.202881	0.676270	156.843391	-82.037130	-11.377447
28827		9.609711	0.364458	-0.990308	-0.010013	-0.005524	-0.000470	-0.364990	-0.196777	0.676758	156.859336	-82.038985	-11.394925
28828		9.583435	0.383841	-1.002209	-0.011155	-0.004521	0.001170	-0.378906	-0.198486	0.678711	156.874027	-82.035342	-11.410879
28829		9.622245	0.363070	-0.970326	-0.010335	-0.005211	0.003255	-0.380859	-0.203857	0.677002	156.903619	-82.038176	-11.441363
28830		9.580122	0.365767	-0.973619	-0.013733	-0.003464	0.002003	-0.370850	-0.197754	0.672852	156.918252	-82.035275	-11.458751
28831		9.568441	0.350529	-1.025086	-0.014641	-0.005052	0.000830	-0.366943	-0.201172	0.677490	156.935449	-82.037809	-11.479848
28832		9.590445	0.330053	-0.954039	-0.012036	0.003326	0.000075	-0.375732	-0.205322	0.674561	156.932886	-82.038054	-11.478891
28833		9.564215	0.349437	-0.965474	-0.009107	-0.003933	0.000701	-0.369385	-0.196289	0.671387	156.951178	-82.040923	-11.498388
28834		9.590440	0.330168	-0.954052	-0.014086	0.002741	0.000543	-0.373779	-0.206543	0.675049	156.950146	-82.040964	-11.500162
28835		9.551591	0.350942	-0.986274	-0.011070	-0.002237	0.000257	-0.371826	-0.202881	0.682617	156.962979	-82.044608	-11.515053
28836		9.564209	0.349555	-0.965493	-0.014789	-0.000178	0.002731	-0.372559	-0.205078	0.679199	156.974480	-82.043601	-11.529889
28837		9.593700	0.347943	-0.983236	-0.015844	0.003106	0.003461	-0.366943	-0.201904	0.680176	156.988115	-82.050828	-11.548411
28838		9.567507	0.367216	-0.994357	-0.016138	0.002158	0.001011	-0.372803	-0.208252	0.675537	156.988612	-82.050667	-11.552917
28839		9.609622	0.364276	-0.991240	-0.015933	0.000827	0.004371	-0.368652	-0.192383	0.676758	157.009356	-82.056757	-11.579053
28840		9.551692	0.350528	-0.985446	-0.016139	0.002160	0.001011	-0.371338	-0.203857	0.677979	157.009852	-82.056596	-11.583557
28841		9.607419	0.329692	-0.991627	-0.013796	0.003694	0.002992	-0.367676	-0.201172	0.678711	157.022438	-82.063860	-11.598922
28842		9.581249	0.348854	-1.002591	-0.016374	0.004752	0.003825	-0.370605	-0.205322	0.671875	157.029297	-82.065696	-11.609986
28843		9.575784	0.296376	-0.973774	-0.011219	0.002639	0.002159	-0.367432	-0.203857	0.678223	157.041666	-82.072161	-11.624705
28844		9.582301	0.332023	-1.032295	-0.011307	0.000358	0.003069	-0.377441	-0.197998	0.673584	157.055625	-82.071509	-11.640007
28845		9.590717	0.329131	-0.951625	-0.011219	0.002640	0.002159	-0.378906	-0.204590	0.673584	157.067997	-82.078100	-11.654165
28846		9.568771	0.349692	-1.022285	-0.008261	0.004813	0.002865	-0.370117	-0.196777	0.676514	157.075797	-82.079752	-11.661486
28847		9.595041	0.330121	-1.010467	-0.006298	0.003117	0.003308	-0.373291	-0.201416	0.676514	157.094500	-82.086916	-11.679127
28848		9.553004	0.332812	-1.012957	-0.007646	0.005453	0.001590	-0.376465	-0.201660	0.673096	157.096795	-82.088622	-11.680535
28849		9.537185	0.316257	-1.004003	-0.007119	0.003811	0.001224	-0.368896	-0.197021	0.678711	157.105982	-82.095677	-11.689209
28850		9.578313	0.329915	-0.970553	-0.006064	0.000527	0.000492	-0.373535	-0.202881	0.683594	157.112918	-82.094538	-11.694389
28851		9.565726	0.331374	-0.991113	-0.012568	0.004978	0.000440	-0.372314	-0.202881	0.678467	157.114600	-82.101878	-11.698136
28852		9.583920	0.382393	-0.998111	-0.012569	0.004979	0.000440	-0.371582	-0.201904	0.671631	157.110466	-82.103077	-11.695901
28853		9.597564	0.364448	-1.007147	-0.011222	0.002642	0.002157	-0.366455	-0.198975	0.678223	157.122931	-82.109552	-11.710484
28854		9.597614	0.364254	-1.006747	-0.014943	0.004703	0.004631	-0.366699	-0.193604	0.679688	157.133849	-82.111539	-11.724819
28855		9.595701	0.396880	-0.945663	-0.014123	0.004009	0.006715	-0.373779	-0.205078	0.682373	157.160581	-82.119498	-11.754291
28856		9.597766	0.363343	-1.005619	-0.019193	0.008407	0.007472	-0.369873	-0.200928	0.676758	157.173983	-82.124071	-11.773591
28857		9.594573	0.345047	-0.975706	-0.017904	0.002535	0.003921	-0.363770	-0.194336	0.670654	157.189671	-82.130857	-11.795179
28858		9.565132	0.346163	-0.957541	-0.019137	0.001256	0.006471	-0.368164	-0.203613	0.680664	157.210810	-82.131430	-11.822257
28859		9.566161	0.329215	-0.987628	-0.013599	0.002369	0.006347	-0.374023	-0.203125	0.677979	157.239043	-82.138363	-11.853598
28860		9.578814	0.327353	-0.966470	-0.012983	0.003010	0.005072	-0.370361	-0.206299	0.668701	157.255573	-82.139549	-11.872463
28861		9.579858	0.310449	-0.996387	-0.012075	0.004597	0.006248	-0.374512	-0.194824	0.679443	157.280127	-82.147888	-11.900219
28862		9.577933	0.343140	-0.935296	-0.015240	0.003764	0.002179	-0.364258	-0.197754	0.679199	157.283096	-82.148831	-11.906699
28863		9.578964	0.326690	-0.965200	-0.018112	0.003878	0.000561	-0.378174	-0.195313	0.682861	157.284267	-82.155401	-11.912532
28864		9.569659	0.345888	-1.015245	-0.017267	-0.002720	0.007816	-0.370850	-0.198975	0.676025	157.318113	-82.154163	-11.951353
28865		9.568694	0.362033	-0.984794	-0.023361	0.003716	0.003133	-0.374268	-0.197998	0.675781	157.326123	-82.161416	-11.967138
28866		9.599178	0.344054	-1.032935	-0.018381	-0.002966	0.003281	-0.383057	-0.204102	0.676025	157.342332	-82.159043	-11.988799
28867		9.581348	0.360233	-0.963566	-0.021545	0.006889	0.005487	-0.367676	-0.198730	0.687988	157.354917	-82.168632	-12.008939
28868		9.637096	0.339240	-0.969471	-0.019259	0.004887	0.002202	-0.363281	-0.203369	0.676270	157.353900	-82.170172	-12.013719
28869		9.578186	0.342040	-0.933108	-0.019260	0.004888	0.002202	-0.371094	-0.203613	0.678711	157.359270	-82.177434	-12.025272
28870		9.626894	0.375022	-0.988301	-0.017913	0.002548	0.003917	-0.366211	-0.197266	0.677002	157.369385	-82.178116	-12.040510
28871		9.596161	0.325235	-1.001380	-0.018149	0.005136	0.006736	-0.369141	-0.199219	0.687988	157.392253	-82.186601	-12.069079
28872		9.570044	0.344397	-1.012121	-0.019789	0.006534	0.002569	-0.373779	-0.203125	0.677002	157.389722	-82.189094	-12.072638
28873		9.554205	0.327607	-1.003287	-0.009591	0.001258	0.006320	-0.374268	-0.208008	0.684326	157.422086	-82.195557	-12.105646
28874		9.540682	0.345165	-0.993248	-0.013340	0.009227	0.003628	-0.364990	-0.194336	0.681152	157.423029	-82.199707	-12.108981
28875		9.594162	0.289830	-0.999856	-0.008000	0.011674	0.000152	-0.367432	-0.202393	0.676270	157.415905	-82.210225	-12.101250
28876		9.573695	0.361688	-1.038352	-0.006654	0.009333	0.001866	-0.365967	-0.206299	0.674561	157.413699	-82.214043	-12.097541
28877		9.570472	0.343629	-1.008326	-0.007035	0.006106	0.000319	-0.365234	-0.211670	0.674805	157.416649	-82.221477	-12.100473
28878		9.585412	0.376516	-0.985945	-0.005161	0.002121	0.001665	-0.369629	-0.204102	0.670410	157.426131	-82.221435	-12.107697
28879		9.557953	0.345151	-1.028514	-0.007417	0.002880	-0.001228	-0.366455	-0.199219	0.677490	157.427842	-82.226828	-12.110361
28880		9.540062	0.361437	-0.959235	-0.005251	-0.000163	0.002569	-0.374512	-0.206787	0.669922	157.444460	-82.225777	-12.124839
28881		9.543375	0.379314	-0.988521	-0.000617	-0.000641	0.001273	-0.367920	-0.198975	0.682861	157.465483	-82.229955	-12.141981
28882		9.554624	0.326911	-0.999510	0.001493	-0.007212	-0.000202	-0.372559	-0.201416	0.677002	157.486552	-82.224563	-12.157051
28883		9.572767	0.377803	-1.007418	0.002402	-0.005628	0.000976	-0.370850	-0.193359	0.673340	157.516369	-82.226034	-12.180512
28884		9.586288	0.359961	-1.017565	0.003254	-0.007573	-0.003118	-0.378906	-0.199951	0.679199	157.527683	-82.219811	-12.184719
28885		9.611407	0.357182	-0.976399	0.004252	-0.003705	-0.002844	-0.366455	-0.198730	0.681152	157.540453	-82.221594	-12.189348
28886		9.624955	0.339510	-0.986250	0.006305	-0.003123	-0.003308	-0.364502	-0.198486	0.677246	157.545633	-82.217685	-12.185600
28887		9.585130	0.377142	-0.988443	0.002816	-0.003646	-0.003653	-0.381592	-0.203857	0.672363	157.554773	-82.218963	-12.187914
28888		9.611268	0.357942	-0.977495	0.011758	-0.004300	-0.002522	-0.365723	-0.200684	0.676514	157.567998	-82.214603	-12.189132
28889		9.597657	0.375913	-0.968153	0.007595	0.001689	-0.000583	-0.372559	-0.199951	0.677979	157.582575	-82.219664	-12.194892
28890		9.597670	0.376103	-0.967950	0.005956	0.003088	-0.004749	-0.375488	-0.201416	0.679688	157.572020	-82.218730	-12.175464
28891		9.611287	0.358582	-0.977070	0.007481	0.005313	-0.004845	-0.370117	-0.194092	0.682617	157.564256	-82.224791	-12.158256
28892		9.587410	0.412681	-0.987110	0.006686	0.000105	-0.001761	-0.374268	-0.200928	0.674805	157.570473	-82.222930	-12.155333
28893		9.572530	0.379877	-1.008886	0.006248	0.004032	-0.002298	-0.369141	-0.206055	0.679443	157.574073	-82.228767	-12.149828
28894		9.556673	0.363526	-1.000079	0.000178	0.004567	-0.001810	-0.373535	-0.202881	0.673340	157.569220	-82.229259	-12.139496
28895		9.555698	0.380074	-0.969396	0.000089	0.002284	-0.000905	-0.370117	-0.204346	0.675537	157.577246	-82.234425	-12.143449
28896		9.527227	0.365077	-0.981699	0.005542	0.001107	-0.000119	-0.374023	-0.199951	0.678955	157.587573	-82.233454	-12.145337
28897		9.582931	0.344059	-0.988068	0.001200	0.002528	0.003629	-0.363770	-0.205566	0.674561	157.613497	-82.239745	-12.166234
28898		9.569364	0.361853	-0.978324	0.002142	0.002866	-0.001369	-0.364258	-0.202881	0.681152	157.614195	-82.239433	-12.160370
28899		9.567080	0.327700	-0.979191	0.008536	0.002028	-0.005582	-0.370605	-0.202148	0.676514	157.609643	-82.243142	-12.146844
28900		9.596564	0.326703	-0.997032	0.008447	-0.000255	-0.004676	-0.377686	-0.205566	0.682129	157.606096	-82.240455	-12.133049
28901		9.570363	0.346508	-1.008376	0.006483	0.001446	-0.005118	-0.374756	-0.198242	0.681396	157.602610	-82.244320	-12.121389
28902		9.582960	0.345279	-0.987357	0.008210	0.002332	-0.001857	-0.370117	-0.204834	0.680420	157.605744	-82.243619	-12.114474
28903		9.612462	0.344044	-1.005108	0.009355	0.001331	-0.003499	-0.367188	-0.204834	0.682129	157.610539	-82.247694	-12.109087
28904		9.570389	0.346849	-1.008006	0.011284	0.000879	0.003120	-0.365234	-0.200439	0.674072	157.637125	-82.247308	-12.124065
28905		9.572703	0.381248	-1.006726	0.003375	0.004148	-0.003918	-0.371094	-0.196777	0.677246	157.632573	-82.252527	-12.113237
28906		9.586329	0.363395	-1.015957	0.010465	0.001577	0.001036	-0.362061	-0.196533	0.680664	157.649465	-82.252057	-12.118904
28907		9.583026	0.345378	-0.986679	0.009265	-0.000952	-0.002593	-0.373535	-0.200684	0.679688	157.661751	-82.254846	-12.120571
28908		9.556823	0.364804	-0.998173	0.007504	-0.000591	0.000323	-0.371094	-0.203857	0.682129	157.677638	-82.253071	-12.126935
28909		9.567120	0.328743	-0.978449	0.008940	-0.000648	0.001132	-0.372803	-0.193848	0.679688	157.703322	-82.257047	-12.143117
28910		9.554520	0.330093	-0.999456	0.010084	-0.001649	-0.000509	-0.366699	-0.200684	0.678223	157.719127	-82.254529	-12.147907
28911		9.584005	0.328713	-1.017428	0.008737	0.000691	-0.002225	-0.370361	-0.208008	0.675293	157.729709	-82.258348	-12.148270
28912		9.583999	0.328714	-1.017485	0.013571	-0.001122	-0.000164	-0.362061	-0.202637	0.673340	157.748009	-82.256185	-12.153562
28913		9.560102	0.382652	-1.027728	0.003374	0.004148	-0.003920	-0.371582	-0.200439	0.684814	157.743270	-82.261324	-12.143365
28914		9.573718	0.365003	-1.036980	0.007301	0.000749	-0.003035	-0.371094	-0.199951	0.680908	157.743789	-82.259529	-12.134339
28915		9.586326	0.363790	-1.015842	0.000794	0.005207	-0.003088	-0.371338	-0.194336	0.678223	157.739082	-82.265603	-12.124217
28916		9.586375	0.364110	-1.015261	-0.001170	0.006907	-0.003531	-0.372070	-0.194092	0.683105	157.722965	-82.266966	-12.103300
28917		9.576129	0.400139	-1.034519	-0.001584	0.004928	0.001101	-0.373779	-0.197021	0.675781	157.733789	-82.273760	-12.109271
28918		9.572866	0.382184	-1.004816	-0.003927	0.003399	-0.000885	-0.365234	-0.203857	0.684814	157.732025	-82.273838	-12.104433
28919		9.571870	0.398744	-0.974190	-0.008031	0.002232	0.000044	-0.375244	-0.205322	0.680176	157.739239	-82.278887	-12.111710
28920		9.572960	0.382228	-1.003911	-0.011288	0.009806	0.003154	-0.369141	-0.192627	0.685303	157.738795	-82.283238	-12.112460
28921		9.568468	0.313241	-1.005319	-0.007124	0.003818	0.001220	-0.369385	-0.203613	0.675293	157.748512	-82.289463	-12.121285
28922		9.569756	0.364293	-0.973577	-0.010286	0.002988	-0.002851	-0.367432	-0.194580	0.676758	157.736058	-82.288896	-12.109336
28923		9.580077	0.328568	-0.953446	-0.012665	0.002709	0.001338	-0.372803	-0.200195	0.682617	157.744945	-82.294369	-12.120971
28924		9.583432	0.346548	-0.982324	-0.011141	0.004935	0.001242	-0.372559	-0.192627	0.682129	157.744908	-82.295723	-12.122047
28925		9.542408	0.332980	-1.015391	-0.008121	-0.000050	0.000949	-0.372559	-0.195801	0.680176	157.759251	-82.299806	-12.135651
28926		9.614005	0.328726	-1.030148	-0.008033	0.002234	0.000043	-0.373779	-0.200928	0.683838	157.760630	-82.299467	-12.136358
28927		9.586830	0.364728	-1.010741	-0.007855	0.006802	-0.001770	-0.370605	-0.192627	0.676758	157.753405	-82.306590	-12.128409
28928		9.600508	0.346829	-1.019560	-0.000677	0.006514	0.002281	-0.367432	-0.196533	0.681885	157.760914	-82.309007	-12.131048
28929		9.574421	0.366274	-1.030014	-0.006771	0.012956	-0.002404	-0.376709	-0.198730	0.673828	157.742161	-82.319064	-12.110413
28930		9.588152	0.348475	-1.038346	-0.002553	0.010499	0.000932	-0.369873	-0.204834	0.678955	157.736877	-82.323301	-12.101228
28931		9.587218	0.364936	-1.006972	-0.005425	0.010615	-0.000689	-0.366211	-0.198486	0.676025	157.728930	-82.332612	-12.092060
28932		9.583990	0.346937	-0.976722	-0.006659	0.009333	0.001858	-0.371826	-0.198486	0.682617	157.726801	-82.336431	-12.088433
28933		9.541998	0.349771	-0.978895	-0.007566	0.007748	0.000680	-0.370117	-0.197266	0.678711	157.727942	-82.344356	-12.089051
28934		9.557965	0.366244	-0.986652	-0.009708	0.004881	0.002049	-0.371826	-0.194580	0.685303	157.732007	-82.345856	-12.093437
28935		9.571639	0.348299	-0.995568	-0.007038	0.006106	0.000312	-0.378418	-0.195801	0.674316	157.734650	-82.352883	-12.094621
28936		9.570670	0.364437	-0.964490	-0.009658	0.008413	0.007320	-0.372070	-0.188721	0.675049	157.753866	-82.357399	-12.114265
28937		9.567419	0.345856	-0.934522	-0.006548	0.005710	0.006121	-0.368896	-0.194824	0.677734	157.780228	-82.365549	-12.138691
28938		9.583203	0.294823	-1.004228	-0.007127	0.003822	0.001218	-0.367920	-0.204346	0.685303	157.784217	-82.366307	-12.141508
28939		9.582189	0.311145	-0.973489	-0.005692	0.003764	0.002028	-0.368652	-0.196289	0.675293	157.798275	-82.372341	-12.154228
28940		9.573024	0.330587	-1.023223	-0.005074	0.004406	0.000755	-0.371826	-0.199463	0.674561	157.800670	-82.373308	-12.154250
28941		9.589001	0.347080	-1.030952	-0.002026	0.008859	0.000566	-0.369629	-0.202148	0.684082	157.802697	-82.381731	-12.152687
28942		9.585741	0.329128	-1.000802	-0.002844	0.009559	-0.001518	-0.367676	-0.203125	0.676514	157.789010	-82.384940	-12.135193
28943		9.613217	0.360581	-0.957147	-0.002115	0.006574	0.001471	-0.375244	-0.199951	0.677002	157.798282	-82.392312	-12.141645
28944		9.601811	0.345640	-1.007627	-0.011585	0.008871	0.000698	-0.364990	-0.198975	0.680664	157.789478	-82.395636	-12.134133
28945		9.603128	0.396446	-0.975252	-0.006662	0.009337	0.001858	-0.373291	-0.204346	0.673828	157.793185	-82.404570	-12.137048
28946		9.557793	0.380851	-0.948201	-0.008845	0.007715	0.009402	-0.377197	-0.201172	0.679688	157.822459	-82.409164	-12.166367
28947		9.562347	0.381734	-1.006978	-0.014298	0.008894	0.008608	-0.377197	-0.201416	0.665039	157.849074	-82.419470	-12.197373
28948		9.544253	0.330091	-0.998861	-0.016352	0.008312	0.009070	-0.374023	-0.190674	0.673584	157.871842	-82.424307	-12.224467
28949		9.562583	0.380329	-1.005264	-0.018407	0.007731	0.009530	-0.362793	-0.192139	0.679443	157.901871	-82.434119	-12.260399
28950		9.572923	0.343660	-0.984775	-0.017879	0.006089	0.009162	-0.366699	-0.201660	0.682129	157.927826	-82.437791	-12.291590
28951		9.546873	0.362398	-0.995436	-0.016355	0.008316	0.009069	-0.369141	-0.193359	0.683838	157.956985	-82.447483	-12.325344
28952		9.560579	0.343998	-1.004206	-0.021040	0.005268	0.005085	-0.374268	-0.198975	0.678223	157.966205	-82.449839	-12.341478
28953		9.574267	0.325942	-1.013034	-0.017749	0.007134	0.002079	-0.371826	-0.190918	0.680176	157.968234	-82.457611	-12.348323
28954		9.563014	0.378177	-1.001966	-0.019455	0.000337	0.003978	-0.371582	-0.192871	0.685303	157.981945	-82.457110	-12.368071
28955		9.589240	0.358373	-0.989932	-0.023777	0.011206	0.007831	-0.373535	-0.196533	0.675537	157.997166	-82.468253	-12.390825
28956		9.605291	0.374470	-0.997225	-0.022102	0.008562	0.005821	-0.363281	-0.200928	0.677979	158.003446	-82.472516	-12.404607
28957		9.561004	0.342722	-1.000594	-0.027029	0.008103	0.004656	-0.376221	-0.193848	0.679932	158.009035	-82.481182	-12.421170
28958		9.577039	0.359152	-1.007947	-0.030430	0.009872	0.003401	-0.366943	-0.196289	0.670166	157.998694	-82.485621	-12.423000
28959		9.614744	0.354331	-0.944046	-0.030055	0.013103	0.004950	-0.371582	-0.197266	0.672363	157.995552	-82.497072	-12.431789
28960		9.544333	0.342240	-0.958581	-0.027851	0.008815	0.002569	-0.368408	-0.195313	0.678223	157.985057	-82.500771	-12.431972
28961		9.573976	0.340590	-0.975556	-0.025404	0.006705	0.008819	-0.370850	-0.202148	0.675049	158.010705	-82.509584	-12.467328
28962		9.558122	0.323630	-0.966592	-0.018997	0.005864	0.004619	-0.365723	-0.200195	0.677002	158.018393	-82.512156	-12.480734
28963		9.587761	0.322030	-0.983609	-0.021492	0.009217	0.004546	-0.374756	-0.204102	0.673828	158.024945	-82.521326	-12.495445
28964		9.583342	0.319845	-0.923125	-0.014601	0.007967	0.006155	-0.369873	-0.205566	0.683350	158.037963	-82.525343	-12.511686
28965		9.551628	0.376936	-1.013124	-0.011775	0.004320	0.002502	-0.376953	-0.203125	0.676514	158.049613	-82.531607	-12.526319
28966		9.572047	0.304761	-0.973346	-0.009719	0.004900	0.002043	-0.370361	-0.195557	0.669678	158.053801	-82.533114	-12.530833
28967		9.551733	0.376804	-1.012188	-0.008570	0.003899	0.000402	-0.369629	-0.196289	0.672119	158.059488	-82.538685	-12.536809
28968		9.565398	0.358810	-1.021248	-0.004793	0.005356	0.003211	-0.378418	-0.199707	0.678223	158.070499	-82.540684	-12.545358
28969		9.580297	0.391471	-0.998623	-0.007135	0.003837	0.001215	-0.376465	-0.201660	0.681641	158.080454	-82.546389	-12.554447
28970		9.551889	0.376527	-1.010818	-0.003024	0.004997	0.000299	-0.378418	-0.196289	0.681641	158.081247	-82.547574	-12.551667
28971		9.590568	0.355398	-0.978074	-0.005079	0.004417	0.000756	-0.366699	-0.196289	0.675781	158.089454	-82.553606	-12.557579
28972		9.592948	0.389858	-0.976336	-0.004459	0.005060	-0.000514	-0.379150	-0.200928	0.688232	158.086013	-82.554651	-12.551360
28973		9.562211	0.340514	-0.989756	-0.001588	0.004935	0.001112	-0.381836	-0.200928	0.675293	158.097008	-82.560864	-12.558121
28974		9.604331	0.337619	-0.986096	-0.001784	0.006284	-0.002243	-0.365967	-0.196533	0.673096	158.086055	-82.562189	-12.542780
28975		9.574816	0.339226	-0.967756	0.000802	0.005219	-0.003071	-0.382568	-0.205811	0.675293	158.080756	-82.567633	-12.532137
28976		9.562360	0.340792	-0.988216	0.000663	0.004166	0.004008	-0.374512	-0.198242	0.680420	158.100135	-82.569169	-12.545973
28977		9.574904	0.338735	-0.967059	0.006649	0.001331	0.004436	-0.370605	-0.197510	0.678955	158.134922	-82.574299	-12.572684
28978		9.574945	0.338399	-0.966773	-0.000153	0.004872	0.001924	-0.371094	-0.195557	0.671875	158.144198	-82.575765	-12.576802
28979		9.573855	0.354572	-0.936144	0.006077	-0.000548	-0.000472	-0.375488	-0.199463	0.674805	158.162160	-82.578557	-12.586232
28980		9.574978	0.338199	-0.966519	0.004397	0.002100	0.001539	-0.369141	-0.197998	0.684814	158.177013	-82.578466	-12.593344
28981		9.577338	0.372479	-0.965065	0.002962	0.002163	0.000726	-0.368652	-0.198730	0.672363	158.193565	-82.583009	-12.603331
28982		9.578458	0.356240	-0.995423	0.003206	-0.000422	-0.002098	-0.371094	-0.201904	0.681885	158.196999	-82.580802	-12.599617
28983		9.574998	0.338319	-0.966276	0.003826	0.000221	-0.003369	-0.377441	-0.195801	0.678955	158.200484	-82.583336	-12.596445
28984		9.574994	0.338416	-0.966277	0.001436	-0.000063	0.000813	-0.376465	-0.200928	0.673340	158.214211	-82.581940	-12.604134
28985		9.557897	0.338115	-0.927941	0.001498	-0.007223	-0.000210	-0.372803	-0.204590	0.670654	158.241134	-82.581381	-12.625460
28986		9.574894	0.338402	-0.967279	0.005609	-0.006062	-0.001125	-0.369873	-0.200195	0.670410	158.259101	-82.576380	-12.635013
28987		9.562316	0.340069	-0.988890	0.004082	-0.008288	-0.001038	-0.373535	-0.196045	0.677490	158.285866	-82.574872	-12.655870
28988		9.562254	0.339971	-0.989529	0.009386	-0.004605	0.001683	-0.376221	-0.203857	0.677490	158.315056	-82.571240	-12.674559
28989		9.604297	0.336871	-0.986683	0.006076	-0.000547	-0.000473	-0.367188	-0.193359	0.677979	158.332653	-82.574089	-12.684149
28990		9.579308	0.339988	-1.028310	0.007979	0.004906	0.000992	-0.368896	-0.191650	0.674805	158.342765	-82.575375	-12.684411
28991		9.608941	0.338466	-1.045488	0.005485	0.008259	0.000919	-0.373535	-0.201172	0.678223	158.351881	-82.582955	-12.684713
28992		9.595423	0.356248	-1.035127	0.011651	0.010001	-0.000455	-0.374756	-0.203857	0.675537	158.349907	-82.586648	-12.670665
28993		9.608050	0.354619	-1.013048	0.007192	0.015061	-0.000972	-0.376221	-0.201416	0.667969	158.340659	-82.597639	-12.653141
28994		9.575177	0.337992	-0.964612	0.008432	0.016348	-0.003513	-0.370605	-0.192627	0.677979	158.313914	-82.604063	-12.615975
28995		9.591250	0.354776	-0.971588	0.011455	0.011351	-0.003809	-0.369385	-0.199219	0.676514	158.301520	-82.612402	-12.592051
28996		9.565249	0.374478	-0.981822	0.008340	0.014061	-0.002613	-0.367920	-0.195801	0.682861	158.282056	-82.617797	-12.562282
28997		9.561893	0.356589	-0.951501	0.005908	0.010252	-0.003708	-0.367920	-0.192871	0.677490	158.268855	-82.625431	-12.540682
28998		9.591546	0.355536	-0.968381	0.006438	0.008607	-0.004077	-0.374756	-0.195557	0.680176	158.251156	-82.627611	-12.513792
28999		9.522278	0.394516	-0.952001	0.004201	0.003450	-0.001816	-0.365723	-0.204346	0.677979	158.255792	-82.632079	-12.510566
29000		9.551887	0.393346	-0.969378	-0.001254	0.004638	-0.002617	-0.363525	-0.182129	0.670166	158.246189	-82.632456	-12.496284
29001		9.563202	0.341355	-0.979836	0.004446	0.000864	-0.004639	-0.375977	-0.196045	0.672363	158.243773	-82.634707	-12.486074
29002		9.549556	0.359654	-0.970383	0.002921	-0.001362	-0.004551	-0.372314	-0.200439	0.679688	158.238460	-82.631480	-12.473705
29003		9.539386	0.395900	-0.990066	-0.001965	0.001707	-0.000445	-0.378174	-0.202637	0.679443	158.247694	-82.635362	-12.479524
29004		9.593965	0.391488	-0.965637	-0.005895	0.005121	-0.001334	-0.376709	-0.197021	0.675293	158.239916	-82.636269	-12.469764
29005		9.585011	0.411338	-1.015092	-0.009011	0.007831	-0.000139	-0.369873	-0.201416	0.678955	158.236090	-82.643559	-12.466622
29006		9.597572	0.409911	-0.993353	-0.008390	0.008474	-0.001409	-0.374512	-0.203369	0.678711	158.221036	-82.646233	-12.450966
29007		9.595325	0.375680	-0.993786	-0.012502	0.007313	-0.000496	-0.372314	-0.196289	0.675781	158.214700	-82.652996	-12.447822
29008		9.581727	0.393745	-0.983894	-0.011001	0.000088	-0.000702	-0.372314	-0.195557	0.685791	158.214878	-82.651358	-12.449034
29009		9.577128	0.392009	-0.923953	-0.015178	0.006089	0.001232	-0.371094	-0.194824	0.677979	158.216315	-82.657813	-12.453995
29010		9.561207	0.375411	-0.915384	-0.016885	-0.000714	0.003121	-0.370850	-0.201416	0.683594	158.230230	-82.656561	-12.472456
29011		9.581811	0.393615	-0.983130	-0.013925	0.001451	0.003848	-0.370605	-0.194336	0.681152	158.250811	-82.661052	-12.496414
29012		9.564718	0.393115	-0.944394	-0.017506	-0.001356	0.004391	-0.370850	-0.197510	0.678467	158.270676	-82.659726	-12.521233
29013		9.564682	0.325956	-1.006768	-0.011805	-0.005130	0.002369	-0.371826	-0.200928	0.684570	158.297232	-82.660366	-12.549636
29014		9.577134	0.324308	-0.986104	-0.013680	-0.001132	0.001024	-0.370361	-0.198730	0.683105	158.304998	-82.658444	-12.560046
29015		9.619201	0.321544	-0.982825	-0.012348	0.002444	-0.002417	-0.373291	-0.200195	0.674072	158.298941	-82.662114	-12.556370
29016		9.619236	0.321567	-0.982471	-0.008910	0.004197	0.004119	-0.377441	-0.197754	0.679443	158.313476	-82.663684	-12.570849
29017		9.602185	0.321145	-0.943269	-0.015181	0.006095	0.001233	-0.373535	-0.194824	0.680176	158.314643	-82.670153	-12.576142
29018		9.625171	0.373958	-1.009180	-0.012311	0.005969	0.002861	-0.373779	-0.202148	0.671143	158.319122	-82.672400	-12.582446
29019		9.620659	0.371722	-0.948437	-0.016645	0.016846	0.006722	-0.371582	-0.191895	0.667725	158.324565	-82.685680	-12.592888
29020		9.625498	0.373210	-1.006338	-0.018082	0.016911	0.005907	-0.367432	-0.205811	0.680176	158.320348	-82.694398	-12.593759
29021		9.565339	0.391762	-0.938648	-0.020049	0.018623	0.005463	-0.369629	-0.195068	0.668945	158.315814	-82.708211	-12.596339
29022		9.551907	0.342393	-0.989540	-0.016028	0.017495	0.005451	-0.380615	-0.200684	0.676758	158.309898	-82.717143	-12.594311
29023		9.580524	0.356931	-0.975084	-0.016030	0.017497	0.005450	-0.370850	-0.202637	0.673828	158.309235	-82.730487	-12.598174
29024		9.580692	0.356738	-0.973506	-0.011138	0.014428	0.001345	-0.376465	-0.198242	0.677490	158.294053	-82.736917	-12.583981
29025		9.566078	0.323852	-0.994101	-0.019433	0.019275	0.004190	-0.376221	-0.192871	0.682373	158.283203	-82.750885	-12.579884
29026		9.578716	0.322041	-0.971366	-0.014259	0.017144	0.002540	-0.374512	-0.199463	0.673828	158.266640	-82.759013	-12.566102
29027		9.535600	0.341053	-0.942881	-0.017494	0.008111	0.004503	-0.374268	-0.193604	0.683105	158.276919	-82.767128	-12.581257
29028		9.538039	0.375286	-0.940611	-0.020896	0.009889	0.003243	-0.374268	-0.200439	0.678467	158.271602	-82.771544	-12.582645
29029		9.552984	0.341169	-0.979516	-0.026356	0.011088	0.002436	-0.369385	-0.194824	0.675293	158.263211	-82.780759	-12.584146
29030		9.614678	0.372929	-1.012422	-0.026980	0.010445	0.003704	-0.375977	-0.195313	0.677979	158.255408	-82.785569	-12.586541
29031		9.583993	0.390320	-0.962965	-0.025986	0.014320	0.003992	-0.380615	-0.196777	0.679443	158.248402	-82.796752	-12.589081
29032		9.572913	0.375659	-1.013025	-0.026079	0.012032	0.004888	-0.370605	-0.202637	0.675293	158.243437	-82.802658	-12.593816
29033		9.596696	0.388197	-0.939472	-0.032255	0.010297	0.006245	-0.369385	-0.197021	0.678223	158.248849	-82.812244	-12.613164
29034		9.571910	0.391439	-0.980708	-0.038645	0.000463	0.004111	-0.373047	-0.196289	0.683838	158.252889	-82.811828	-12.634231
29035		9.542314	0.392703	-0.962748	-0.039180	0.002115	0.004481	-0.370850	-0.202393	0.674805	158.261007	-82.816543	-12.659666
29036		9.614041	0.388237	-0.976773	-0.038902	0.003054	0.006936	-0.374512	-0.193604	0.674561	158.272486	-82.818104	-12.688380
29037		9.569702	0.356601	-0.980900	-0.036755	0.005929	0.005588	-0.369629	-0.204102	0.683350	158.280074	-82.825091	-12.712303
29038		9.582191	0.354685	-0.959399	-0.032200	0.003149	0.005205	-0.379150	-0.203857	0.679199	158.287953	-82.826336	-12.733518
29039		9.581042	0.370558	-0.928342	-0.027180	0.005887	0.005491	-0.367676	-0.192871	0.677490	158.300589	-82.833328	-12.757635
29040		9.566306	0.337763	-0.950340	-0.020315	0.001102	0.001828	-0.374023	-0.202881	0.676514	158.304452	-82.832766	-12.767940
29041		9.581112	0.370310	-0.927718	-0.022094	0.001458	0.004736	-0.369385	-0.201172	0.676758	158.324549	-82.837106	-12.795811
29042		9.541484	0.341011	-0.992088	-0.015851	-0.003973	0.002339	-0.378906	-0.190674	0.677490	158.341679	-82.833949	-12.816908
29043		9.568698	0.371841	-0.948660	-0.015294	0.003839	0.002116	-0.375000	-0.199219	0.678955	158.350500	-82.839074	-12.829041
29044		9.568752	0.371780	-0.948132	-0.013767	0.006064	0.002039	-0.377686	-0.199951	0.674316	158.350668	-82.841198	-12.831838
29045		9.573625	0.374066	-1.006872	-0.015642	0.010074	0.000703	-0.377197	-0.212158	0.672363	158.342566	-82.849390	-12.827719
29046		9.596215	0.336206	-0.965342	-0.012056	0.012876	0.000176	-0.369873	-0.193115	0.679932	158.324312	-82.854748	-12.810963
29047		9.557872	0.357736	-0.996360	-0.013492	0.012946	-0.000641	-0.375000	-0.190918	0.675293	158.306834	-82.864085	-12.796763
29048		9.572775	0.390255	-0.972713	-0.011057	0.010800	0.005609	-0.366211	-0.201904	0.677979	158.315727	-82.869487	-12.806790
29049		9.586543	0.372162	-0.981127	-0.017332	0.012726	0.002716	-0.371338	-0.204590	0.671143	158.310985	-82.879307	-12.806588
29050		9.553452	0.354541	-0.933205	-0.012558	0.012087	0.010973	-0.378174	-0.204102	0.674316	158.339747	-82.886529	-12.837504
29051		9.572044	0.338450	-1.001333	-0.007311	0.008731	0.003144	-0.373291	-0.195068	0.672852	158.348881	-82.894409	-12.846958
29052		9.554909	0.337566	-0.961820	-0.007031	0.009663	0.005602	-0.369385	-0.196533	0.671631	158.362055	-82.899202	-12.858973
29053		9.583426	0.351866	-0.948038	-0.003004	0.008522	0.005595	-0.374512	-0.198486	0.670898	158.384944	-82.907362	-12.878406
29054		9.597149	0.333522	-0.956947	0.001555	0.005734	0.005215	-0.372070	-0.196045	0.672119	158.408091	-82.909980	-12.895513
29055		9.551547	0.317833	-0.930797	0.003868	0.003732	0.001934	-0.377197	-0.202393	0.677002	158.427255	-82.914851	-12.907494
29056		9.553948	0.351905	-0.929117	0.007178	-0.000349	0.004086	-0.372559	-0.197754	0.671143	158.459120	-82.913989	-12.930141
29057		9.553964	0.351730	-0.929013	0.002153	0.002871	-0.001341	-0.369629	-0.204102	0.679932	158.464600	-82.917745	-12.929691
29058		9.587223	0.368728	-0.975762	0.012893	-0.004139	0.002066	-0.369873	-0.200195	0.681152	158.497484	-82.914437	-12.950065
29059		9.571204	0.351785	-0.967906	0.011298	0.000805	0.003188	-0.373779	-0.196777	0.672119	158.531342	-82.917897	-12.973157
29060		9.587219	0.368031	-0.976060	0.012985	-0.001844	0.001173	-0.379395	-0.202148	0.677490	158.556551	-82.915622	-12.985743
29061		9.573587	0.385647	-0.966535	0.010486	0.001521	0.001104	-0.373779	-0.201416	0.677734	158.579483	-82.919186	-12.997960
29062		9.558812	0.352840	-0.989062	0.011549	-0.001774	0.000356	-0.372314	-0.192627	0.678711	158.600229	-82.916776	-13.006878
29063		9.573568	0.385348	-0.966845	0.005994	-0.002857	0.000438	-0.371094	-0.193604	0.677979	158.625340	-82.917750	-13.023439
29064		9.558804	0.352426	-0.989283	0.010233	0.004102	0.003934	-0.375000	-0.195313	0.683105	158.650813	-82.919222	-13.037880
29065		9.590855	0.385198	-1.005343	0.004838	-0.001855	0.002078	-0.371582	-0.199463	0.671143	158.680713	-82.921053	-13.059431
29066		9.571205	0.349912	-0.968575	0.015762	-0.004274	0.003700	-0.378662	-0.197510	0.674072	158.722401	-82.918002	-13.087020
29067		9.584841	0.331796	-0.978212	0.009143	0.003886	-0.000608	-0.362793	-0.199707	0.674316	158.733211	-82.922370	-13.087922
29068		9.557593	0.367331	-0.958950	0.010392	-0.000770	0.001996	-0.375244	-0.201660	0.685303	158.758621	-82.920834	-13.102208
29069		9.586091	0.315363	-1.008695	0.009581	-0.000055	-0.000088	-0.374268	-0.193848	0.666260	158.778773	-82.923030	-13.112519
29070		9.567602	0.330864	-0.939660	0.013607	-0.001195	-0.000094	-0.372314	-0.202148	0.674072	158.797735	-82.920833	-13.118452
29071		9.597238	0.329454	-0.957468	0.013607	-0.001194	-0.000094	-0.370117	-0.201416	0.670654	158.821798	-82.922510	-13.130279
29072		9.579980	0.328775	-0.919033	0.016476	-0.001331	0.001540	-0.369873	-0.192871	0.675293	158.849646	-82.920578	-13.143509
29073		9.595988	0.345138	-0.927266	0.015665	-0.000616	-0.000545	-0.369385	-0.191162	0.679688	158.872161	-82.922370	-13.152439
29074		9.583579	0.346682	-0.948397	0.014416	-0.001906	0.001989	-0.376221	-0.194092	0.672607	158.901706	-82.920221	-13.168568
29075		9.587197	0.364725	-0.977523	0.018627	0.001542	0.000194	-0.370605	-0.194580	0.677490	158.925577	-82.923383	-13.176205
29076		9.597231	0.328268	-0.957939	0.013352	0.001391	0.002734	-0.367676	-0.197754	0.676270	158.952241	-82.923149	-13.190045
29077		9.571214	0.347545	-0.969332	0.012448	-0.000188	0.001545	-0.380859	-0.192871	0.676758	158.981253	-82.925550	-13.207182
29078		9.587217	0.363754	-0.977688	0.014321	-0.004196	0.002884	-0.370117	-0.202881	0.678955	159.018361	-82.922356	-13.230988
29079		9.567554	0.328501	-0.940978	0.014321	-0.004196	0.002884	-0.372314	-0.197021	0.680176	159.060500	-82.923044	-13.260427
29080		9.555130	0.330064	-0.962229	0.010733	-0.001054	-0.001729	-0.371094	-0.196045	0.681885	159.070453	-82.920584	-13.258939
29081		9.597131	0.326887	-0.959416	0.009830	-0.008577	0.002224	-0.376953	-0.192627	0.670654	159.114589	-82.918673	-13.292752
29082		9.569813	0.362469	-0.941003	0.003028	-0.005011	-0.000299	-0.375732	-0.195313	0.674072	159.132772	-82.914387	-13.304007
29083		9.585782	0.378865	-0.949647	0.005273	-0.005790	0.002602	-0.368164	-0.198242	0.677246	159.171014	-82.914148	-13.334374
29084		9.573297	0.380297	-0.971512	-0.001369	-0.013042	0.003290	-0.376465	-0.202148	0.688477	159.215222	-82.906290	-13.374394
29085		9.569567	0.361721	-0.943790	-0.002898	-0.015267	0.003369	-0.372070	-0.198242	0.673828	159.267539	-82.901008	-13.424422
29086		9.573041	0.379770	-0.974242	-0.008358	-0.014060	0.002559	-0.370605	-0.194824	0.673096	159.306075	-82.892447	-13.462762
29087		9.611373	0.358307	-0.943099	-0.008265	-0.011767	0.001663	-0.372803	-0.200928	0.672363	159.342098	-82.888644	-13.499272
29088		9.624891	0.340526	-0.953653	-0.014537	-0.009848	-0.001230	-0.369873	-0.195068	0.682129	159.353865	-82.881571	-13.514205
29089		9.621182	0.322512	-0.925672	-0.015535	-0.013719	-0.001524	-0.373535	-0.197998	0.675293	159.375092	-82.876069	-13.540083
29090		9.614625	0.377225	-0.975339	-0.016597	-0.010423	-0.000779	-0.371094	-0.196777	0.679688	159.388480	-82.868778	-13.557839
29091		9.628166	0.359457	-0.985605	-0.023462	-0.005631	0.002882	-0.361572	-0.189697	0.674561	159.410911	-82.868517	-13.589339
29092		9.602085	0.378887	-0.997448	-0.019157	-0.005834	0.005329	-0.371826	-0.196533	0.677490	159.441573	-82.864915	-13.625982
29093		9.561206	0.365571	-1.031497	-0.017536	-0.001317	0.004357	-0.370117	-0.196777	0.680908	159.467102	-82.867093	-13.656592
29094		9.557644	0.347000	-1.002328	-0.016538	0.002555	0.004652	-0.367432	-0.197998	0.678467	159.482871	-82.867853	-13.676715
29095		9.540497	0.346255	-0.963295	-0.015010	0.004779	0.004574	-0.378418	-0.189209	0.679932	159.500822	-82.873386	-13.698763
29096		9.586162	0.361332	-0.988861	-0.012264	-0.001164	0.001812	-0.374268	-0.196045	0.678223	159.512838	-82.871579	-13.712635
29097		9.571328	0.328516	-1.011443	-0.015572	-0.003030	0.004797	-0.366455	-0.195313	0.684814	159.543840	-82.873151	-13.747146
29098		9.572535	0.378726	-0.979607	-0.011453	-0.001877	0.003895	-0.371826	-0.192627	0.681885	159.566392	-82.871376	-13.771168
29099		9.557686	0.345816	-1.002334	-0.017103	-0.005252	0.004874	-0.372559	-0.195801	0.683350	159.600679	-82.871553	-13.810099
29100		9.570071	0.343718	-0.981899	-0.013077	-0.006392	0.004865	-0.376709	-0.206543	0.675293	159.633641	-82.867544	-13.845550
29101		9.566446	0.325067	-0.953350	-0.015044	-0.004674	0.004423	-0.369629	-0.201660	0.676758	159.665620	-82.868072	-13.882295
29102		9.569987	0.343178	-0.982911	-0.011924	-0.007393	0.003223	-0.374268	-0.203857	0.677734	159.693732	-82.863195	-13.912193
29103		9.599518	0.342004	-1.001413	-0.011333	-0.010258	-0.003332	-0.361816	-0.195801	0.687012	159.703363	-82.859091	-13.924694
29104		9.568633	0.359487	-0.954056	-0.011394	-0.009039	0.002848	-0.365479	-0.193604	0.677734	159.732714	-82.853251	-13.955536
29105		9.612933	0.324356	-1.012751	-0.012489	-0.009255	-0.001692	-0.366211	-0.186523	0.681152	159.747807	-82.849771	-13.972715
29106		9.568438	0.359444	-0.956031	-0.008181	-0.015410	0.005889	-0.372803	-0.197021	0.678955	159.801984	-82.841105	-14.026722
29107		9.586651	0.343736	-1.026455	-0.009088	-0.011040	-0.000435	-0.375244	-0.192627	0.679443	159.826969	-82.837063	-14.051345
29108		9.569396	0.343202	-0.988637	-0.009865	-0.006815	0.002772	-0.364258	-0.199707	0.677246	159.853187	-82.832397	-14.078147
29109		9.595371	0.323453	-0.978004	-0.008712	-0.007816	0.001130	-0.369873	-0.202637	0.678223	159.879698	-82.830393	-14.104963
29110		9.595283	0.323472	-0.978862	-0.005592	-0.010534	-0.000071	-0.371338	-0.195557	0.677734	159.901968	-82.823162	-14.125317
29111		9.582751	0.325267	-1.000625	-0.005216	-0.007311	0.001495	-0.368408	-0.200439	0.671875	159.931008	-82.821512	-14.153181
29112		9.559079	0.379287	-1.010806	-0.009678	-0.002229	0.000990	-0.370117	-0.193359	0.683105	159.942446	-82.818958	-14.164978
29113		9.559044	0.379332	-1.011118	-0.006558	-0.004947	-0.000213	-0.360107	-0.195313	0.682129	159.959814	-82.818194	-14.181509
29114		9.601052	0.376089	-1.008384	-0.007523	-0.005307	0.004778	-0.373047	-0.191162	0.680420	159.993440	-82.814724	-14.214425
29115		9.555407	0.360527	-0.983014	-0.008336	-0.004591	0.002696	-0.377441	-0.202148	0.678711	160.021928	-82.814631	-14.242436
29116		9.571382	0.376927	-0.991487	-0.006276	-0.004016	0.002245	-0.371582	-0.202148	0.677002	160.043403	-82.811357	-14.262386
29117		9.572478	0.360860	-1.022478	-0.008620	-0.005521	0.000238	-0.371094	-0.200928	0.681396	160.061853	-82.810484	-14.282005
29118		9.558820	0.378714	-1.013463	-0.010775	-0.008387	0.001580	-0.376709	-0.190186	0.676758	160.084645	-82.804724	-14.305880
29119		9.584787	0.359224	-1.002859	-0.010340	-0.006379	-0.003035	-0.368408	-0.203369	0.682861	160.089750	-82.802715	-14.311813
29120		9.585854	0.343233	-1.034035	-0.006994	-0.006953	0.004402	-0.372070	-0.199707	0.673584	160.124477	-82.798276	-14.345535
29121		9.543752	0.346064	-1.037764	-0.010398	-0.005164	0.003147	-0.372314	-0.206543	0.680420	160.153833	-82.798011	-14.377126
29122		9.585752	0.342678	-1.035161	-0.009056	-0.007527	0.004852	-0.371338	-0.190186	0.676025	160.190120	-82.793346	-14.413612
29123		9.581013	0.339926	-0.976360	-0.008527	-0.009173	0.004476	-0.364990	-0.185303	0.686279	160.232397	-82.791200	-14.456529
29124		9.585604	0.341992	-1.036757	-0.006466	-0.008598	0.004024	-0.370361	-0.196289	0.684814	160.268192	-82.785791	-14.491024
29125		9.581984	0.323362	-1.008551	-0.009341	-0.008455	0.002394	-0.374512	-0.194824	0.677979	160.300580	-82.783493	-14.522893
29126		9.613924	0.356325	-1.025482	-0.005843	-0.007952	0.002758	-0.367432	-0.197266	0.674561	160.330269	-82.778182	-14.550873
29127		9.559338	0.361049	-1.050236	-0.008433	-0.006879	0.003586	-0.369629	-0.195068	0.676270	160.365211	-82.777047	-14.586067
29128		9.597793	0.339314	-1.018711	-0.009871	-0.006807	0.002771	-0.368896	-0.198975	0.679199	160.390841	-82.772353	-14.612283
29129		9.529626	0.362080	-1.033734	-0.008094	-0.007162	-0.000139	-0.362549	-0.199463	0.681152	160.410526	-82.770284	-14.632052
29130		9.570533	0.374964	-1.000387	-0.014333	-0.001723	0.002272	-0.369385	-0.190918	0.672363	160.423738	-82.768237	-14.648328
29131		9.572698	0.342903	-1.061975	-0.007281	-0.007879	0.001941	-0.372559	-0.191895	0.677734	160.453931	-82.766080	-14.678004
29132		9.586222	0.324857	-1.072175	-0.009492	-0.003585	0.004339	-0.367432	-0.186279	0.678955	160.481493	-82.763422	-14.705950
29133		9.541946	0.359667	-1.014448	-0.010930	-0.003512	0.003524	-0.366211	-0.201416	0.680664	160.509882	-82.764014	-14.734691
29134		9.585056	0.340327	-1.042360	-0.008435	-0.006877	0.003584	-0.375000	-0.192871	0.684082	160.539759	-82.759430	-14.764360
29135		9.517990	0.346873	-1.087936	-0.006998	-0.006949	0.004399	-0.367432	-0.190430	0.685303	160.578912	-82.758321	-14.802929
29136		9.555380	0.341003	-1.025698	-0.010931	-0.003511	0.003525	-0.375732	-0.197754	0.676270	160.602002	-82.755541	-14.827198
29137		9.568924	0.322842	-1.035725	-0.010117	-0.004229	0.005605	-0.363037	-0.197754	0.678223	160.640454	-82.756140	-14.866381
29138		9.556412	0.324513	-1.056981	-0.009155	-0.003865	0.000614	-0.367920	-0.192383	0.684082	160.652687	-82.752612	-14.878680
29139		9.584863	0.339158	-1.044509	-0.006280	-0.004010	0.002243	-0.369385	-0.195313	0.677979	160.678845	-82.752511	-14.903552
29140		9.572338	0.341046	-1.065809	-0.008003	-0.004865	-0.001030	-0.364990	-0.204346	0.682861	160.686216	-82.748130	-14.910285
29141		9.558723	0.358977	-1.056520	-0.011217	-0.004437	0.001066	-0.367432	-0.190186	0.681152	160.704832	-82.747606	-14.931229
29142		9.588261	0.357617	-1.074637	-0.010932	-0.003509	0.003524	-0.368652	-0.197998	0.682129	160.727835	-82.744819	-14.955411
29143		9.583622	0.354853	-1.015472	-0.011027	-0.005801	0.004412	-0.367432	-0.194580	0.679199	160.763029	-82.744195	-14.991876
29144		9.556162	0.323952	-1.059412	-0.012466	-0.005727	0.003597	-0.374756	-0.202881	0.678223	160.788713	-82.740219	-15.019647
29145		9.588141	0.356985	-1.075920	-0.011747	-0.002788	0.001444	-0.367432	-0.197266	0.685791	160.805991	-82.740731	-15.039333
29146		9.546038	0.359916	-1.079535	-0.013186	-0.008664	0.005750	-0.369873	-0.193359	0.680176	160.844700	-82.735568	-15.080650
29147		9.538919	0.322709	-1.022412	-0.011410	-0.009017	0.002840	-0.368896	-0.193359	0.677246	160.877572	-82.732881	-15.115127
29148		9.517360	0.344713	-1.094116	-0.012130	-0.011954	0.004992	-0.366943	-0.190918	0.678955	160.918404	-82.725788	-15.157976
29149		9.571795	0.339278	-1.071233	-0.010693	-0.012027	0.005806	-0.367920	-0.192627	0.684814	160.968644	-82.721998	-15.209225
29150		9.546687	0.342710	-1.114173	-0.009541	-0.013027	0.004161	-0.366943	-0.195068	0.678711	161.008848	-82.714160	-15.249947
29151		9.545512	0.358269	-1.084716	-0.010694	-0.012026	0.005806	-0.374023	-0.199707	0.673096	161.058938	-82.710327	-15.301209
29152		9.541889	0.339227	-1.056970	-0.005851	-0.013893	0.007868	-0.360596	-0.199219	0.682373	161.118041	-82.702699	-15.358852
29153		9.556351	0.304878	-1.098647	-0.010791	-0.014315	0.006692	-0.362793	-0.187012	0.680664	161.174586	-82.697766	-15.417837
29154		9.514130	0.307369	-1.103333	-0.005517	-0.020120	0.009259	-0.364258	-0.205322	0.679932	161.248488	-82.687001	-15.490211
29155		9.555985	0.303454	-1.102223	-0.004367	-0.021119	0.007613	-0.369629	-0.200439	0.684082	161.322438	-82.678414	-15.562433
29156		9.560290	0.305462	-1.163744	-0.003120	-0.019826	0.005081	-0.365234	-0.193359	0.678955	161.379258	-82.667021	-15.616202
29157		9.587600	0.335526	-1.122115	-0.000147	-0.017683	0.005821	-0.369385	-0.190674	0.682373	161.442715	-82.660042	-15.675420
29158		9.575907	0.321031	-1.175275	0.000475	-0.017037	0.004555	-0.370117	-0.194580	0.678711	161.495125	-82.650054	-15.722668
29159		9.590722	0.353060	-1.154392	-0.001588	-0.017607	0.005008	-0.365967	-0.191895	0.681152	161.554076	-82.643005	-15.777455
29160		9.565466	0.356496	-1.197879	-0.002500	-0.019176	0.003815	-0.365967	-0.194336	0.688232	161.604401	-82.631709	-15.824322
29161		9.555281	0.392556	-1.218209	-0.010408	-0.005143	0.003152	-0.364746	-0.193604	0.683105	161.633016	-82.630964	-15.853640
29162		9.550761	0.389501	-1.159268	-0.007435	-0.008949	0.009008	-0.365723	-0.190430	0.683105	161.687912	-82.626158	-15.907968
29163		9.525633	0.392873	-1.201629	-0.010409	-0.005142	0.003152	-0.363281	-0.204102	0.679932	161.716485	-82.625374	-15.937155
29164		9.534667	0.372282	-1.152128	-0.014964	-0.002346	0.003554	-0.368652	-0.194824	0.682617	161.734909	-82.623173	-15.959057
29165		9.534642	0.372178	-1.152369	-0.015878	-0.003916	0.002361	-0.366943	-0.193848	0.680908	161.754815	-82.622910	-15.984025
29166		9.547163	0.370170	-1.131664	-0.016931	-0.000624	0.003122	-0.356934	-0.186035	0.694824	161.767895	-82.621566	-16.001675
29167		9.550658	0.388496	-1.160447	-0.016545	0.002592	0.004696	-0.356689	-0.203369	0.678711	161.788962	-82.625127	-16.026325
29168		9.576753	0.368605	-1.149063	-0.022927	0.002250	0.002711	-0.365723	-0.193359	0.674072	161.792906	-82.625273	-16.038227
29169		9.547262	0.369798	-1.130950	-0.015397	0.001594	0.003049	-0.370117	-0.191162	0.681641	161.808377	-82.627983	-16.058535
29170		9.559839	0.367772	-1.109757	-0.023456	0.003898	0.003091	-0.368896	-0.202393	0.689697	161.811346	-82.629094	-16.069758
29171		9.557375	0.333457	-1.111212	-0.019190	0.000179	0.000228	-0.361572	-0.198486	0.682617	161.814789	-82.630703	-16.079245
29172		9.576878	0.368723	-1.147976	-0.022307	0.002901	0.001444	-0.360352	-0.198486	0.683594	161.812865	-82.630976	-16.084871
29173		9.530401	0.369242	-1.091080	-0.021493	0.002180	0.003521	-0.364014	-0.197266	0.689209	161.826161	-82.634030	-16.106162
29174		9.586010	0.348124	-1.097594	-0.021494	0.002182	0.003521	-0.365234	-0.192871	0.683594	161.834447	-82.634282	-16.121614
29175		9.563475	0.386195	-1.137358	-0.023366	0.000245	0.007316	-0.364258	-0.196777	0.682861	161.865478	-82.637032	-16.161038
29176		9.571021	0.315038	-1.120055	-0.020251	-0.002475	0.006098	-0.365234	-0.200195	0.679932	161.891765	-82.635206	-16.193921
29177		9.556545	0.348291	-1.079557	-0.019241	0.001386	0.006411	-0.367676	-0.196533	0.679443	161.919481	-82.638410	-16.228382
29178		9.558495	0.316202	-1.141086	-0.018384	-0.006487	0.007410	-0.363281	-0.194824	0.679932	161.957866	-82.634627	-16.272386
29179		9.558465	0.315475	-1.141537	-0.015742	-0.004075	0.011878	-0.365479	-0.192871	0.678955	162.018225	-82.635831	-16.337295
29180		9.542432	0.298114	-1.133855	-0.015408	-0.004349	0.008153	-0.363770	-0.196533	0.683350	162.058462	-82.633335	-16.381447
29181		9.544919	0.331738	-1.132494	-0.015217	-0.005718	0.011494	-0.361572	-0.196289	0.683350	162.119849	-82.633520	-16.446878
29182		9.542383	0.296411	-1.134711	-0.015744	-0.004071	0.011877	-0.366699	-0.190186	0.677246	162.175178	-82.631819	-16.506443
29183		9.529841	0.297192	-1.155927	-0.015264	-0.004520	0.017679	-0.353027	-0.188721	0.688232	162.261067	-82.633698	-16.596414
29184		9.558384	0.310224	-1.143654	-0.012774	-0.007888	0.017724	-0.358154	-0.195801	0.677979	162.347882	-82.630911	-16.686011
29185		9.543254	0.276450	-1.167156	-0.012539	-0.010453	0.014879	-0.356445	-0.195068	0.688477	162.431786	-82.628796	-16.772310
29186		9.518132	0.279176	-1.209499	-0.014642	-0.003869	0.016414	-0.375000	-0.202148	0.679688	162.506527	-82.627945	-16.850812
29187		9.539678	0.255105	-1.139641	-0.007070	-0.011687	0.015667	-0.360352	-0.196289	0.686768	162.597882	-82.625490	-16.942298
29188		9.546556	0.290993	-1.198496	-0.012017	-0.012094	0.014494	-0.363770	-0.190918	0.682373	162.676801	-82.619784	-17.023496
29189		9.531357	0.257342	-1.222240	-0.013168	-0.011092	0.016142	-0.368164	-0.200684	0.687500	162.766095	-82.617598	-17.115672
29190		9.562390	0.305002	-1.208736	-0.012934	-0.013656	0.013297	-0.361572	-0.197754	0.681396	162.841253	-82.610804	-17.193610
29191		9.549717	0.305745	-1.230877	-0.017400	-0.014512	0.017925	-0.363525	-0.190674	0.678955	162.939548	-82.607060	-17.298187
29192		9.517513	0.271253	-1.216153	-0.013562	-0.014298	0.014559	-0.360107	-0.194092	0.682861	163.020232	-82.600095	-17.382061
29193		9.533424	0.286469	-1.225484	-0.015338	-0.013942	0.017472	-0.375000	-0.191650	0.683105	163.117181	-82.596475	-17.483187
29194		9.545889	0.282964	-1.205710	-0.021859	-0.009407	0.017454	-0.361084	-0.197998	0.678223	163.198806	-82.592639	-17.572808
29195		9.544893	0.297213	-1.176188	-0.017508	-0.016793	0.018800	-0.374268	-0.205078	0.679443	163.303267	-82.587766	-17.683069
29196		9.532189	0.297710	-1.198555	-0.025673	-0.016756	0.019730	-0.362793	-0.199951	0.687256	163.401346	-82.580230	-17.791487
29197		9.544635	0.293970	-1.179096	-0.025282	-0.013543	0.021311	-0.363281	-0.198242	0.685303	163.507193	-82.577478	-17.908735
29198		9.531939	0.294382	-1.201363	-0.031878	-0.018438	0.021084	-0.371338	-0.200684	0.683838	163.609151	-82.569188	-18.024653
29199		9.535275	0.311527	-1.231702	-0.029088	-0.014935	0.018489	-0.361572	-0.200439	0.683838	163.702606	-82.565115	-18.131057
29200		9.519927	0.277958	-1.255875	-0.035584	-0.017537	0.017383	-0.359131	-0.198730	0.686523	163.785344	-82.556678	-18.229736
29201		9.535804	0.293340	-1.265487	-0.030931	-0.018052	0.016090	-0.361328	-0.199707	0.683350	163.871307	-82.550281	-18.329726
29202		9.532992	0.258106	-1.268907	-0.038038	-0.015342	0.011157	-0.364014	-0.195068	0.687256	163.923409	-82.542029	-18.398930
29203		9.535476	0.291616	-1.268353	-0.037559	-0.015793	0.016954	-0.363525	-0.204346	0.669678	164.006277	-82.537024	-18.499198
29204		9.522762	0.292856	-1.290320	-0.041682	-0.010955	0.012769	-0.352783	-0.199707	0.682373	164.057533	-82.531421	-18.569656
29205		9.536044	0.274169	-1.301379	-0.041599	-0.014614	0.016979	-0.360107	-0.197021	0.685303	164.136200	-82.526949	-18.669098
29206		9.522528	0.291027	-1.292462	-0.042838	-0.009942	0.014418	-0.364990	-0.204834	0.681152	164.192320	-82.522141	-18.745131
29207		9.522456	0.290353	-1.293139	-0.043555	-0.006915	0.011469	-0.362549	-0.203125	0.682861	164.237584	-82.521086	-18.811417
29208		9.523237	0.274183	-1.324199	-0.043057	-0.001413	0.012182	-0.362305	-0.195801	0.684570	164.273992	-82.520619	-18.867697
29209		9.522460	0.289400	-1.293324	-0.042626	0.000615	0.007583	-0.366699	-0.192383	0.682617	164.294680	-82.523078	-18.908344
29210		9.545785	0.234768	-1.284506	-0.041291	-0.001757	0.009264	-0.371094	-0.206787	0.678955	164.320252	-82.521962	-18.952675
29211		9.520641	0.239093	-1.325806	-0.041798	0.005855	0.004575	-0.354004	-0.204102	0.685303	164.322483	-82.526977	-18.974174
29212		9.520736	0.239227	-1.325100	-0.037663	0.006978	0.003671	-0.359619	-0.193848	0.681641	164.316327	-82.529812	-18.984408
29213		9.520044	0.254839	-1.293500	-0.040885	0.007423	0.005773	-0.364258	-0.199707	0.684082	164.322639	-82.535567	-19.009434
29214		9.478903	0.242880	-1.326344	-0.037043	0.007633	0.002407	-0.369385	-0.197021	0.676270	164.310751	-82.538568	-19.013529
29215		9.537166	0.256219	-1.330384	-0.038613	0.012574	0.003579	-0.361328	-0.198242	0.688477	164.302900	-82.547040	-19.022761
29216		9.537331	0.256109	-1.329225	-0.031505	0.009844	0.008503	-0.366211	-0.187988	0.676025	164.317285	-82.552205	-19.050151
29217		9.537537	0.255872	-1.327792	-0.033159	0.018459	0.005475	-0.370850	-0.190674	0.680420	164.314036	-82.564116	-19.060043
29218		9.521721	0.239317	-1.317985	-0.031908	0.019758	0.002952	-0.360596	-0.197754	0.687500	164.292999	-82.573889	-19.051944
29219		9.508588	0.257056	-1.306066	-0.033793	0.017821	0.006732	-0.366455	-0.197021	0.678467	164.295456	-82.585647	-19.068016
29220		9.524925	0.273501	-1.312140	-0.033169	0.018472	0.005471	-0.364258	-0.206055	0.685303	164.285874	-82.595102	-19.072197
29221		9.567245	0.269794	-1.307320	-0.035473	0.020474	0.008775	-0.366455	-0.190430	0.680664	164.292512	-82.608602	-19.094553
29222		9.509410	0.256287	-1.300222	-0.038071	0.021568	0.009614	-0.365479	-0.198486	0.677490	164.294062	-82.620407	-19.112791
29223		9.526679	0.256926	-1.336597	-0.040272	0.025866	0.012050	-0.357422	-0.195557	0.676514	164.305916	-82.637390	-19.142220
29224		9.536876	0.219607	-1.315629	-0.039859	0.021932	0.012521	-0.370605	-0.196777	0.681885	164.318532	-82.649846	-19.172648
29225		9.511284	0.239219	-1.323935	-0.040468	0.027267	0.008715	-0.366699	-0.198486	0.683838	164.314463	-82.667006	-19.186373
29226		9.567104	0.217437	-1.328423	-0.041440	0.026885	0.013696	-0.367432	-0.198486	0.684082	164.325393	-82.682376	-19.216011
29227		9.521869	0.201501	-1.300056	-0.043993	0.026819	0.008343	-0.362549	-0.195068	0.681396	164.318315	-82.699239	-19.228812
29228		9.538361	0.217631	-1.305153	-0.045491	0.028084	0.013718	-0.358887	-0.199463	0.673828	164.325704	-82.715273	-19.257218
29229		9.584387	0.232418	-1.328059	-0.049014	0.027631	0.013347	-0.361816	-0.201416	0.677490	164.336561	-82.733221	-19.291100
29230		9.569604	0.199770	-1.348043	-0.051640	0.035878	0.015315	-0.363525	-0.197510	0.677246	164.338055	-82.753801	-19.317112
29231		9.540616	0.200204	-1.326453	-0.053509	0.039929	0.014028	-0.365234	-0.207031	0.679932	164.334448	-82.778647	-19.339231
29232		9.554566	0.181769	-1.332704	-0.048035	0.038660	0.014815	-0.366455	-0.189209	0.681152	164.332584	-82.800685	-19.359774
29233		9.513141	0.184875	-1.331432	-0.058062	0.048783	0.009384	-0.361328	-0.204590	0.672607	164.295440	-82.829713	-19.350315
29234		9.511045	0.150487	-1.329243	-0.050277	0.045516	0.006868	-0.360840	-0.200439	0.671143	164.248873	-82.854300	-19.327097
29235		9.540260	0.164894	-1.311774	-0.050861	0.043725	0.001929	-0.362305	-0.199219	0.685303	164.188601	-82.879274	-19.291065
29236		9.515905	0.170613	-1.349273	-0.050811	0.042584	-0.004267	-0.361572	-0.196289	0.679932	164.095606	-82.900495	-19.221370
29237		9.516472	0.171704	-1.345133	-0.050820	0.042597	-0.004271	-0.361328	-0.201172	0.677490	164.009120	-82.923796	-19.157788
29238		9.516055	0.188205	-1.309963	-0.054527	0.043554	-0.007980	-0.361816	-0.206299	0.678223	163.895254	-82.944935	-19.069214
29239		9.505142	0.177031	-1.357801	-0.052960	0.038621	-0.009173	-0.366943	-0.201172	0.681396	163.789430	-82.965210	-18.988278
29240		9.530522	0.173714	-1.312128	-0.058352	0.042228	-0.010836	-0.359131	-0.203613	0.675537	163.661161	-82.985118	-18.887407
29241		9.533737	0.210115	-1.305688	-0.055800	0.037700	-0.017010	-0.369629	-0.203613	0.670410	163.518893	-83.003569	-18.771075
29242		9.515322	0.161909	-1.296897	-0.060601	0.038519	-0.025264	-0.370605	-0.204590	0.674805	163.328268	-83.019016	-18.608688
29243		9.505029	0.217166	-1.280320	-0.064028	0.040386	-0.026509	-0.369629	-0.203125	0.680664	163.133318	-83.037419	-18.444259
29244		9.530264	0.215514	-1.234649	-0.066401	0.038956	-0.028549	-0.367920	-0.202393	0.682373	162.922356	-83.052419	-18.264744
29245		9.534428	0.238186	-1.259397	-0.071309	0.034911	-0.025578	-0.365234	-0.206787	0.683105	162.733659	-83.067736	-18.110223
29246		9.588073	0.250555	-1.200963	-0.075865	0.030626	-0.026333	-0.365723	-0.211426	0.680176	162.537403	-83.078411	-17.950995
29247		9.545226	0.272388	-1.170111	-0.083383	0.027677	-0.022535	-0.364502	-0.198242	0.674561	162.364227	-83.090073	-17.819812
29248		9.542770	0.241124	-1.170514	-0.082123	0.015834	-0.021183	-0.367432	-0.208252	0.674072	162.207903	-83.093455	-17.704426
29249		9.539094	0.224567	-1.140755	-0.085694	0.009378	-0.016550	-0.366699	-0.199951	0.673828	162.086473	-83.096141	-17.626030
29250		9.541713	0.261782	-1.137564	-0.084637	-0.004479	-0.023878	-0.364014	-0.209473	0.679199	161.946113	-83.087911	-17.528176
29251		9.568635	0.229876	-1.158115	-0.091319	-0.002159	-0.023039	-0.368408	-0.213379	0.684326	161.809368	-83.083072	-17.437569
29252		9.526475	0.236709	-1.161789	-0.088152	-0.012029	-0.025461	-0.369385	-0.203125	0.676514	161.671604	-83.070393	-17.344356
29253		9.526236	0.240375	-1.162996	-0.088305	-0.017731	-0.029973	-0.368164	-0.212402	0.668457	161.529178	-83.055816	-17.246391
29254		9.497397	0.230195	-1.178388	-0.088382	-0.027160	-0.030320	-0.370117	-0.203613	0.675049	161.393181	-83.033978	-17.155084
29255		9.474765	0.274348	-1.219894	-0.088466	-0.033959	-0.041039	-0.372803	-0.206299	0.676514	161.227054	-83.008544	-17.033439
29256		9.485473	0.291571	-1.171044	-0.091237	-0.038550	-0.044725	-0.357666	-0.210205	0.670654	161.044726	-82.977800	-16.897090
29257		9.488513	0.316631	-1.203087	-0.088887	-0.047632	-0.049244	-0.361816	-0.207520	0.679932	160.865625	-82.943241	-16.762439
29258		9.469477	0.335070	-1.137466	-0.094425	-0.046284	-0.050057	-0.363770	-0.214600	0.680420	160.672890	-82.907200	-16.617424
29259		9.483665	0.372267	-1.118363	-0.083584	-0.060623	-0.047989	-0.368896	-0.209473	0.679199	160.525338	-82.865669	-16.511445
29260		9.468121	0.409424	-1.082754	-0.089251	-0.073685	-0.037962	-0.360596	-0.204834	0.670410	160.432504	-82.817057	-16.464102
29261		9.493089	0.393443	-1.079792	-0.090610	-0.090463	-0.030852	-0.363525	-0.222168	0.672119	160.401908	-82.762755	-16.479550
29262		9.469451	0.437326	-1.127023	-0.093702	-0.101940	-0.032042	-0.364014	-0.215088	0.681152	160.375493	-82.700023	-16.501724
29263		9.496628	0.455183	-1.123444	-0.105814	-0.115202	-0.024056	-0.355957	-0.207520	0.678223	160.400964	-82.633643	-16.583735
29264		9.572744	0.509241	-1.173870	-0.115507	-0.115989	-0.030209	-0.351563	-0.211426	0.677246	160.390009	-82.563679	-16.634103
29265		9.652951	0.472821	-1.181182	-0.131978	-0.100221	-0.033023	-0.358398	-0.224121	0.674072	160.341080	-82.503492	-16.654962
29266		9.759126	0.494277	-1.079758	-0.143464	-0.084123	-0.034624	-0.350098	-0.217773	0.673828	160.249570	-82.449876	-16.640247
29267		9.795033	0.505197	-0.992522	-0.146329	-0.058895	-0.040434	-0.352539	-0.216309	0.684082	160.102345	-82.410570	-16.571610
29268		9.781801	0.416598	-0.916202	-0.143225	-0.045008	-0.040069	-0.359131	-0.214600	0.681885	159.933767	-82.376941	-16.479002
29269		9.731573	0.399583	-0.835452	-0.140132	-0.047667	-0.041365	-0.357666	-0.222168	0.679932	159.772727	-82.343459	-16.391498
29270		9.738775	0.332914	-0.825996	-0.115672	-0.051489	-0.036243	-0.346680	-0.225342	0.677246	159.646926	-82.307042	-16.326109
29271		9.739450	0.225174	-0.761351	-0.083070	-0.056713	-0.024993	-0.353760	-0.224121	0.687744	159.598147	-82.271890	-16.319893
29272		9.768123	0.067908	-0.750267	-0.038943	-0.057442	-0.027931	-0.351807	-0.226807	0.673340	159.559090	-82.233918	-16.297668
29273		9.804229	-0.063378	-0.826762	0.005519	-0.058359	-0.034609	-0.348633	-0.226074	0.687744	159.526156	-82.196001	-16.256185
29274		9.892905	-0.074496	-0.917332	0.025372	-0.041166	-0.043884	-0.343994	-0.220947	0.680664	159.438491	-82.163554	-16.147697
29275		9.944308	0.064124	-0.903142	0.043257	-0.006722	-0.058064	-0.346924	-0.221680	0.677734	159.261838	-82.148466	-15.939000
29276		10.035651	0.166528	-0.885975	0.059484	0.039756	-0.069721	-0.355225	-0.229736	0.670166	158.975395	-82.153969	-15.610117
29277		10.103716	0.246931	-0.967792	0.079542	0.098006	-0.071884	-0.355469	-0.231445	0.678467	158.608060	-82.191869	-15.188577
29278		10.157298	0.212923	-0.934227	0.106984	0.176910	-0.069978	-0.350586	-0.217529	0.683594	158.131631	-82.269781	-14.640543
29279		10.127890	0.309903	-0.765867	0.131882	0.250550	-0.052788	-0.353271	-0.218994	0.680664	157.612094	-82.391832	-14.034956
29280		9.838698	0.479933	-0.654765	0.160372	0.292336	-0.022858	-0.361328	-0.215820	0.672363	157.134995	-82.539876	-13.455692
29281		9.424211	0.737954	-0.685493	0.174522	0.299105	0.015463	-0.351318	-0.214844	0.676270	156.795079	-82.701616	-13.006487
29282		9.059800	0.965127	-0.838645	0.198571	0.291100	0.060801	-0.358643	-0.220215	0.671875	156.650988	-82.867078	-12.741245
29283		8.824681	0.941498	-1.046211	0.201302	0.292616	0.093808	-0.363281	-0.226074	0.677246	156.642784	-83.042755	-12.611560
29284		8.789714	0.951483	-1.225093	0.214592	0.284331	0.105693	-0.362305	-0.217529	0.671631	156.702080	-83.214811	-12.542127
29285		8.845807	0.784739	-1.451982	0.231281	0.270089	0.097750	-0.366211	-0.207520	0.675049	156.766774	-83.379557	-12.469317
29286		9.096546	0.585633	-1.653682	0.227135	0.259280	0.069138	-0.368164	-0.207520	0.672607	156.713251	-83.530166	-12.279138
29287		9.428864	0.574019	-1.651337	0.203754	0.245297	0.035192	-0.369385	-0.208496	0.672607	156.513266	-83.667615	-11.954811
29288		9.608932	0.595618	-1.671106	0.174450	0.230717	-0.004543	-0.375732	-0.205078	0.668213	156.119268	-83.786115	-11.452576
29289		9.858934	0.855575	-1.646960	0.141047	0.212250	-0.033062	-0.371826	-0.208252	0.667969	155.594801	-83.889794	-10.838463
29290		9.927846	1.072791	-1.555308	0.113774	0.193865	-0.046240	-0.375000	-0.207031	0.669678	155.007966	-83.978138	-10.177462
29291		9.703928	1.298186	-1.525808	0.079110	0.162537	-0.046445	-0.372070	-0.205322	0.672119	154.460018	-84.051374	-9.575898
29292		9.565947	1.328237	-1.514131	0.046924	0.150212	-0.040670	-0.375244	-0.203125	0.668701	153.934551	-84.117227	-9.015281
29293		9.673229	1.335887	-1.418809	0.010683	0.139344	-0.044475	-0.379639	-0.205566	0.673340	153.387835	-84.177759	-8.454210
29294		9.722773	1.342551	-1.460389	-0.025690	0.136280	-0.066221	-0.368652	-0.206543	0.663574	152.703417	-84.228686	-7.775764
29295		9.697882	1.271439	-1.525244	-0.039690	0.143186	-0.083420	-0.375244	-0.203613	0.672852	151.896256	-84.279335	-6.982233
29296		9.713986	1.187598	-1.444857	-0.054481	0.156340	-0.088712	-0.375488	-0.198730	0.661865	151.000518	-84.332269	-6.108120
29297		9.888434	1.030505	-1.432107	-0.051611	0.152809	-0.092400	-0.372559	-0.204834	0.660156	150.084030	-84.382678	-5.211218
29298		9.863251	0.802437	-1.457451	-0.041154	0.148573	-0.095591	-0.375244	-0.203857	0.663818	149.151887	-84.426983	-4.293003
29299		9.679457	0.696619	-1.382356	-0.028872	0.137573	-0.087062	-0.381348	-0.205811	0.665283	148.291058	-84.468607	-3.439388
29300		9.444861	0.529774	-1.399572	-0.020757	0.130838	-0.063699	-0.368896	-0.207764	0.659180	147.559688	-84.511341	-2.711267
29301		9.406862	0.523186	-1.423317	-0.036004	0.119721	-0.045096	-0.376953	-0.200684	0.670166	146.939703	-84.555177	-2.103927
29302		9.356876	0.566637	-1.434611	-0.047063	0.129760	-0.024240	-0.381104	-0.214844	0.665283	146.373822	-84.608263	-1.557290
29303		9.376889	0.619906	-1.425432	-0.065194	0.144624	0.000184	-0.380371	-0.213379	0.663086	145.860727	-84.677215	-1.074079
29304		9.496761	0.758222	-1.486725	-0.073444	0.154493	0.022718	-0.382080	-0.206543	0.662109	145.409260	-84.756256	-0.657645
29305		9.586487	0.868687	-1.421090	-0.080507	0.169528	0.038562	-0.384521	-0.207764	0.660156	144.969011	-84.848714	-0.256729
29306		9.696725	0.881802	-1.459185	-0.083389	0.186103	0.044082	-0.379395	-0.215332	0.658447	144.477697	-84.948990	0.193869
29307		9.667594	0.920545	-1.500722	-0.091161	0.204679	0.047418	-0.389893	-0.215088	0.659912	143.909046	-85.060037	0.717312
29308		9.521638	0.904531	-1.429523	-0.095982	0.211511	0.043475	-0.387939	-0.210205	0.653564	143.262908	-85.171008	1.315909
29309		9.396622	0.925582	-1.392845	-0.100160	0.219042	0.038285	-0.386230	-0.218262	0.655273	142.524846	-85.284395	2.004010
29310		9.287309	0.957020	-1.474389	-0.089008	0.221692	0.028893	-0.378906	-0.207275	0.657959	141.694301	-85.393489	2.791438
29311		9.250003	0.909430	-1.492526	-0.072364	0.225014	0.029155	-0.395508	-0.212646	0.648926	140.821058	-85.504409	3.630943
29312		9.214910	0.895637	-1.507606	-0.049800	0.228794	0.035367	-0.396484	-0.211914	0.651611	139.934902	-85.617020	4.496440
29313		9.171724	0.875971	-1.463804	-0.036224	0.229586	0.044330	-0.394043	-0.213867	0.652588	139.057787	-85.733563	5.360397
29314		9.174815	0.913510	-1.520362	-0.023522	0.218791	0.061286	-0.393555	-0.211914	0.650879	138.297145	-85.849638	6.114873
29315		9.164032	0.966764	-1.567799	-0.027964	0.221780	0.079325	-0.393799	-0.212646	0.651367	137.581859	-85.974327	6.821066
29316		9.166965	1.050260	-1.589743	-0.040443	0.231939	0.095402	-0.394531	-0.204346	0.653076	136.854865	-86.107759	7.531862
29317		9.160747	1.086184	-1.667056	-0.049400	0.230585	0.112510	-0.395752	-0.207275	0.643799	136.187771	-86.247807	8.177465
29318		9.155326	1.120747	-1.743710	-0.060266	0.243968	0.131041	-0.398926	-0.218262	0.643555	135.498428	-86.399192	8.838916
29319		9.112189	1.100470	-1.778840	-0.075852	0.260326	0.149784	-0.406738	-0.205811	0.646484	134.755007	-86.565215	9.545222
29320		8.991303	1.063148	-1.776176	-0.084526	0.267103	0.166746	-0.411865	-0.210205	0.640869	134.003529	-86.739361	10.254758
29321		8.862411	0.970562	-1.749750	-0.084692	0.261187	0.189489	-0.405762	-0.205811	0.644531	133.380184	-86.921039	10.835791
29322		8.766658	0.869611	-1.852295	-0.082700	0.239401	0.204599	-0.412109	-0.203125	0.639893	132.980972	-87.099231	11.193385
29323		8.666635	0.823481	-1.811220	-0.097592	0.216040	0.215808	-0.412109	-0.205322	0.638916	132.822065	-87.273753	11.301950
29324		8.541525	0.888750	-1.828656	-0.118061	0.167503	0.227869	-0.417480	-0.208984	0.634277	133.193019	-87.433540	10.868168
29325		8.420072	1.039250	-2.004570	-0.139670	0.114105	0.237001	-0.412109	-0.212158	0.637451	134.213342	-87.576481	9.771994
29326		8.375884	1.162674	-2.142437	-0.150663	0.087093	0.249159	-0.412109	-0.205811	0.636719	135.754424	-87.711554	8.148495
29327		8.443588	1.242478	-2.287418	-0.150669	0.055827	0.266720	-0.409424	-0.201172	0.634277	138.012977	-87.838705	5.806965
29328		8.618268	1.152472	-2.401122	-0.160596	0.030801	0.270575	-0.413330	-0.206787	0.635498	140.846178	-87.951703	2.885058
29329		8.751182	1.027099	-2.638401	-0.190031	0.023011	0.263169	-0.406738	-0.205078	0.636963	143.972315	-88.053251	-0.346612
29330		8.846154	0.867043	-2.672491	-0.228063	0.027309	0.247470	-0.414795	-0.205322	0.634277	147.130187	-88.145024	-3.631682
29331		8.977034	0.834721	-2.758387	-0.249328	0.047216	0.208385	-0.414795	-0.195557	0.630127	149.796543	-88.229322	-6.437038
29332		8.983332	0.810526	-2.783874	-0.238641	0.037082	0.165375	-0.418213	-0.208008	0.630859	152.077691	-88.292486	-8.850749
29333		8.933913	0.782440	-3.003908	-0.232722	0.027487	0.141193	-0.416016	-0.204102	0.638428	154.199763	-88.341744	-11.101721
29334		8.839228	0.755820	-3.039519	-0.236107	0.020902	0.141829	-0.421631	-0.210205	0.628906	156.502197	-88.385027	-13.535147
29335		8.848011	0.760304	-2.982003	-0.277788	0.033192	0.164807	-0.413574	-0.197754	0.631348	159.277448	-88.436565	-16.465411
29336		9.033811	0.723631	-3.150555	-0.333156	0.046953	0.175198	-0.412354	-0.208740	0.628662	162.317782	-88.493452	-19.692509
29337		9.371987	0.548981	-3.030410	-0.383921	0.077472	0.168439	-0.419678	-0.207520	0.629150	165.257656	-88.561087	-22.847925
29338		9.688263	0.116598	-2.535205	-0.391460	0.089388	0.140758	-0.413086	-0.224609	0.631104	167.761875	-88.628126	-25.571974
29339		10.202374	-0.564090	-2.047398	-0.382342	0.062474	0.086750	-0.417969	-0.208008	0.633301	169.336587	-88.670905	-27.361197
29340		10.826557	-1.028751	-1.909984	-0.352017	-0.004922	-0.023242	-0.412842	-0.215332	0.621094	168.612622	-88.663981	-26.833502
29341		11.275187	-1.208102	-1.726848	-0.297299	-0.039378	-0.165376	-0.408691	-0.203125	0.632813	164.811245	-88.617992	-23.196076
29342		11.513945	-1.382492	-1.230058	-0.237889	-0.070865	-0.277184	-0.417236	-0.226563	0.627930	159.137208	-88.528567	-17.651348
29343		11.647707	-1.492937	-0.565190	-0.201467	-0.094664	-0.357381	-0.416504	-0.220703	0.627441	152.927834	-88.393536	-11.549832
29344		11.817106	-1.288604	-0.323725	-0.150161	-0.087231	-0.446918	-0.411621	-0.226563	0.630371	146.256613	-88.219103	-4.956503
29345		11.965221	-0.768211	-0.450825	-0.151997	-0.077133	-0.547547	-0.409180	-0.223389	0.625977	139.468415	-87.992426	1.753461
29346		11.784040	0.109052	-0.378436	-0.240077	-0.058438	-0.582849	-0.416992	-0.240234	0.636230	133.487078	-87.736628	7.606566
29347		11.321613	1.086269	-0.147185	-0.388260	-0.032906	-0.549513	-0.409424	-0.238037	0.632324	128.698243	-87.485508	12.182102
29348		11.031230	1.652033	0.425593	-0.486968	0.010462	-0.493780	-0.410645	-0.236328	0.630859	124.663065	-87.261061	15.947492
29349		10.892400	1.784886	1.041872	-0.549532	0.046242	-0.463061	-0.412109	-0.255615	0.630371	121.051075	-87.051511	19.253985
29350		10.768692	1.576131	1.643186	-0.558238	0.082124	-0.449761	-0.410645	-0.247070	0.626709	117.622665	-86.849000	22.372235
29351		10.658247	1.083640	2.016481	-0.551682	0.120802	-0.456742	-0.404297	-0.257080	0.626465	114.241017	-86.643115	25.447976
29352		10.644757	0.876420	2.126619	-0.581612	0.153784	-0.465111	-0.406982	-0.263184	0.628662	110.902735	-86.430114	28.463797
29353		10.555466	0.809485	2.250700	-0.588757	0.191935	-0.455175	-0.402588	-0.269775	0.613281	107.646931	-86.219673	31.393577
29354		10.394842	0.563524	2.205525	-0.530414	0.184917	-0.413158	-0.407959	-0.275879	0.621094	104.893109	-86.021562	33.854405
29355		10.323765	0.229446	2.289469	-0.470246	0.186539	-0.348933	-0.415039	-0.282715	0.618896	102.527463	-85.852372	35.961115
29356		10.281519	-0.065864	2.228439	-0.425882	0.176492	-0.272921	-0.408203	-0.279053	0.617676	100.541245	-85.718985	37.713335
29357		9.999713	-0.259992	2.110670	-0.386222	0.157030	-0.204913	-0.403076	-0.290527	0.612061	98.916447	-85.618430	39.126133
29358		9.820863	-0.346187	1.855601	-0.340326	0.146062	-0.136094	-0.408203	-0.291748	0.612793	97.530109	-85.552937	40.326317
29359		9.876653	-0.453859	1.565468	-0.274977	0.142063	-0.070346	-0.408691	-0.290527	0.607422	96.302624	-85.522775	41.404655
29360		9.862849	-0.677101	1.392060	-0.196458	0.121114	-0.018695	-0.415283	-0.293701	0.610596	95.320818	-85.518928	42.281855
29361		9.894778	-0.771574	1.254456	-0.127976	0.122378	0.029793	-0.402832	-0.285645	0.606689	94.397881	-85.542143	43.139255
29362		9.971048	-0.771607	1.147216	-0.064244	0.124843	0.081876	-0.412598	-0.291260	0.607422	93.508333	-85.593711	43.999846
29363		9.789347	-0.867210	1.085820	-0.009511	0.116329	0.132102	-0.406006	-0.284424	0.604248	92.711305	-85.673325	44.798993
29364		9.563815	-0.851673	1.071916	0.044900	0.115471	0.171884	-0.410400	-0.291992	0.603760	91.933331	-85.774291	45.610229
29365		9.332912	-0.843306	1.003932	0.112883	0.116543	0.197605	-0.421631	-0.284668	0.613037	91.149891	-85.889803	46.465783
29366		9.324148	-0.737628	0.938454	0.170324	0.129696	0.220361	-0.407227	-0.289795	0.599609	90.247206	-86.016890	47.473847
29367		9.357654	-0.749653	0.992429	0.221770	0.141391	0.240171	-0.415771	-0.289307	0.612061	89.206617	-86.154776	48.649372
29368		9.354432	-0.625079	1.069460	0.247278	0.146055	0.260542	-0.418701	-0.279053	0.604248	88.055109	-86.302010	49.950656
29369		9.435127	-0.396815	1.049079	0.285342	0.127641	0.298115	-0.413818	-0.277588	0.610107	86.970838	-86.470261	51.206005
29370		9.440007	-0.271662	1.011133	0.301186	0.114082	0.330770	-0.413086	-0.273926	0.610840	85.893257	-86.655404	52.463692
29371		9.402821	-0.084449	0.923134	0.312006	0.091723	0.355271	-0.425781	-0.261230	0.604980	84.888010	-86.854951	53.654744
29372		9.481662	0.094479	0.834301	0.312771	0.093722	0.373046	-0.419189	-0.267334	0.603271	83.697338	-87.062415	55.031837
29373		9.339609	0.229265	0.834793	0.295928	0.074731	0.377703	-0.423340	-0.262695	0.602295	82.509768	-87.273100	56.395762
29374		9.066013	0.303154	0.741584	0.287713	0.058018	0.361031	-0.421631	-0.260986	0.603271	81.365391	-87.473438	57.711646
29375		8.761627	0.379590	0.660623	0.275533	0.054879	0.332173	-0.427979	-0.258789	0.611084	80.102250	-87.657188	59.138994
29376		8.834407	0.453466	0.490942	0.275720	0.060515	0.298199	-0.427002	-0.259521	0.611816	78.645845	-87.818985	60.759915
29377		9.090747	0.387995	0.345082	0.265795	0.061650	0.285436	-0.425293	-0.254395	0.609131	76.949969	-87.972378	62.614389
29378		9.322686	0.282424	0.229449	0.259474	0.064670	0.270069	-0.433105	-0.252441	0.606201	75.000772	-88.113892	64.718757
29379		9.435207	0.117582	0.100216	0.248116	0.068321	0.247362	-0.426758	-0.241699	0.619385	72.757747	-88.240244	67.110200
29380		9.357672	0.013332	0.014144	0.240085	0.073000	0.211234	-0.430420	-0.246338	0.609863	70.338688	-88.342304	69.673234
29381		9.372384	-0.041537	-0.074942	0.238319	0.070991	0.182398	-0.427734	-0.242676	0.619141	67.840493	-88.426589	72.314163
29382		9.442823	-0.116593	-0.165558	0.257690	0.074208	0.171217	-0.431152	-0.234863	0.618652	65.137299	-88.500208	75.171308
29383		9.428464	-0.136819	-0.234212	0.276465	0.070347	0.182611	-0.427979	-0.232178	0.614014	62.091618	-88.577308	78.381584
29384		9.414385	-0.178834	-0.388991	0.287263	0.062776	0.194651	-0.429688	-0.224854	0.608887	58.743740	-88.657337	81.900353
29385		9.398215	-0.176669	-0.506559	0.306006	0.058294	0.211821	-0.434570	-0.231934	0.623047	54.786787	-88.741949	86.038856
29386		9.186309	-0.055245	-0.516127	0.306017	0.036763	0.219604	-0.442139	-0.224609	0.611816	50.640862	-88.830305	90.366363
29387		9.031888	0.083288	-0.657947	0.305180	0.017591	0.213747	-0.438232	-0.218750	0.612793	46.326248	-88.916801	94.861794
29388		9.077355	0.236220	-0.777005	0.308841	0.008120	0.193461	-0.434570	-0.218018	0.614990	42.038832	-88.991907	99.332184
29389		9.050657	0.311655	-0.801041	0.307683	0.003120	0.161776	-0.434082	-0.224609	0.621338	38.005682	-89.051671	103.547358
29390		8.954467	0.324188	-0.809660	0.301416	-0.013907	0.114758	-0.431885	-0.208252	0.616211	35.272521	-89.098596	106.458875
29391		8.873853	0.276508	-0.866997	0.293965	-0.052170	0.069156	-0.432129	-0.221924	0.617432	34.447412	-89.147315	107.457622
29392		8.830703	0.299889	-0.930364	0.286670	-0.075842	0.022513	-0.425293	-0.207520	0.616455	35.678144	-89.191599	106.396307
29393		8.742880	0.214249	-0.916879	0.290710	-0.098539	-0.017580	-0.433838	-0.209229	0.623291	38.938689	-89.231970	103.307096
29394		8.626202	0.144098	-0.971247	0.292418	-0.125716	-0.053271	-0.421387	-0.205078	0.612549	44.598405	-89.266582	97.819732
29395		8.545358	0.061702	-1.073148	0.310067	-0.167144	-0.082232	-0.424316	-0.206299	0.621826	53.052921	-89.295748	89.547334
29396		8.465739	-0.043551	-1.129052	0.324061	-0.210341	-0.108508	-0.426025	-0.210938	0.630371	64.464247	-89.305948	78.326129
29397		8.367855	-0.058098	-1.191964	0.331030	-0.267640	-0.124035	-0.427734	-0.201416	0.624268	78.482794	-89.288335	64.501309
29398		8.342575	-0.019775	-1.310302	0.325280	-0.339253	-0.134877	-0.416992	-0.200928	0.635254	94.160837	-89.223143	49.013628
29399		8.189279	0.056026	-1.507100	0.319963	-0.406193	-0.133223	-0.418701	-0.201660	0.627686	109.042342	-89.100987	34.319027
29400		8.104555	0.115157	-1.634249	0.310483	-0.457861	-0.135493	-0.416260	-0.191895	0.627686	121.164239	-88.917659	22.378545
29401		8.224281	0.135592	-1.891786	0.313954	-0.491278	-0.132573	-0.417480	-0.199707	0.646973	130.266753	-88.690640	13.459117
29402		8.394929	0.171925	-2.038909	0.320563	-0.504010	-0.134146	-0.415771	-0.194336	0.635498	136.743100	-88.434549	7.169759
29403		8.541871	0.245109	-2.036336	0.319170	-0.502524	-0.130799	-0.410645	-0.198242	0.648926	141.436097	-88.166843	2.662788
29404		8.660220	0.174688	-2.125281	0.318269	-0.503616	-0.148093	-0.399658	-0.198730	0.648682	144.711896	-87.883759	-0.427202
29405		8.843441	0.170169	-2.044820	0.328984	-0.478284	-0.175486	-0.395264	-0.195313	0.654785	146.752850	-87.599519	-2.275982
29406		9.207753	0.143044	-2.027271	0.332139	-0.446888	-0.193338	-0.403809	-0.183350	0.658936	147.977555	-87.322745	-3.306115
29407		9.521712	-0.021904	-1.948872	0.336872	-0.414834	-0.207868	-0.398193	-0.190430	0.658691	148.686352	-87.056665	-3.817352
29408		9.704186	-0.086105	-1.872050	0.346583	-0.384021	-0.217716	-0.394775	-0.183350	0.655273	149.035796	-86.802412	-3.963149
29409		9.670593	-0.273799	-1.948127	0.374085	-0.368603	-0.238480	-0.384033	-0.182617	0.659912	149.133962	-86.549698	-3.841628
29410		9.589731	-0.336521	-2.008937	0.406387	-0.352753	-0.257981	-0.383789	-0.176514	0.672119	149.017763	-86.298930	-3.486617
29411		9.552331	-0.461108	-2.205705	0.460699	-0.324745	-0.263998	-0.384277	-0.186768	0.662598	148.812011	-86.060102	-3.010683
29412		9.579413	-0.636928	-2.271182	0.520230	-0.300160	-0.268373	-0.380859	-0.177002	0.665771	148.534999	-85.831827	-2.428868
29413		9.622297	-0.638171	-2.128217	0.573440	-0.274663	-0.272706	-0.384277	-0.171143	0.667236	148.217635	-85.614498	-1.775998
29414		9.701020	-0.520318	-1.961173	0.599287	-0.239572	-0.270961	-0.372070	-0.171631	0.667969	147.824715	-85.414430	-1.032156
29415		9.955693	-0.224546	-1.730598	0.595127	-0.210692	-0.259791	-0.364990	-0.166504	0.672852	147.447815	-85.231388	-0.306698
29416		10.315900	0.114588	-1.415936	0.579779	-0.188259	-0.225451	-0.370117	-0.169434	0.678955	147.199981	-85.069454	0.280705
29417		10.792435	0.492890	-1.330761	0.518126	-0.199797	-0.170391	-0.363525	-0.155273	0.679932	147.294676	-84.918950	0.488820
29418		11.348452	0.865561	-1.320120	0.437129	-0.169098	-0.088215	-0.365234	-0.159424	0.669434	147.665000	-84.808682	0.373769
29419		11.713280	1.130588	-1.075215	0.344846	-0.123593	-0.020266	-0.360840	-0.145020	0.671631	148.193086	-84.741070	0.047071
29420		12.060732	1.435528	-0.537203	0.266949	-0.087690	0.021751	-0.365234	-0.146973	0.679688	148.759438	-84.703342	-0.362790
29421		12.402777	1.900503	-0.204590	0.114409	-0.071621	0.073327	-0.364258	-0.148682	0.668945	149.466030	-84.688205	-1.001395
29422		12.340610	2.400848	-0.481663	-0.048763	-0.078523	0.137819	-0.355713	-0.147705	0.673828	150.429069	-84.687371	-1.991347
29423		12.069642	2.062721	-1.448171	-0.061346	-0.127839	0.200147	-0.363525	-0.138916	0.680176	151.876757	-84.676975	-3.475393
29424		11.433114	0.697561	-2.206003	0.072530	-0.145695	0.222786	-0.370361	-0.142334	0.676270	153.556815	-84.659822	-5.115712
29425		10.980462	-0.898951	-2.659511	0.292179	-0.089125	0.205377	-0.362549	-0.137939	0.677246	155.118603	-84.663034	-6.510957
29426		11.334773	-1.939036	-2.051130	0.487174	0.036394	0.195008	-0.362061	-0.124023	0.679932	156.414752	-84.726404	-7.527050
29427		11.785869	-2.107583	-1.148792	0.606475	0.058882	0.207493	-0.362305	-0.128662	0.676270	157.837894	-84.801884	-8.602021
29428		11.685295	-1.796025	-0.475904	0.636095	0.060888	0.225886	-0.360352	-0.119385	0.679199	159.407705	-84.880013	-9.806979
29429		11.380907	-1.392123	0.168619	0.661265	0.065770	0.215876	-0.360840	-0.115723	0.678955	160.975711	-84.955551	-10.995632
29430		11.000374	-0.676484	0.807950	0.629489	0.108503	0.186064	-0.372314	-0.110596	0.676758	162.279633	-85.046592	-11.937185
29431		10.685630	0.060511	1.158875	0.593953	0.161747	0.190350	-0.366211	-0.107910	0.679688	163.543868	-85.165428	-12.859341
29432		10.324465	0.785787	1.309772	0.556366	0.227642	0.199936	-0.363525	-0.099121	0.677246	164.769074	-85.320600	-13.763608
29433		10.084843	1.242885	1.470396	0.546144	0.296089	0.223021	-0.359863	-0.100098	0.675781	166.117395	-85.515179	-14.797189
29434		9.852213	1.321632	1.784355	0.514518	0.339171	0.246104	-0.366211	-0.089355	0.675293	167.640007	-85.734860	-16.023295
29435		9.711249	1.439404	1.858187	0.435525	0.336345	0.263015	-0.363037	-0.082764	0.680664	169.417946	-85.952014	-17.550587
29436		9.657967	1.386811	1.717816	0.360425	0.322445	0.249638	-0.368652	-0.075928	0.673340	171.226947	-86.156581	-19.151592
29437		9.576555	1.234854	1.617657	0.282829	0.302982	0.202243	-0.373779	-0.076416	0.670410	172.793990	-86.342970	-20.554460
29438		9.582185	1.145540	1.444971	0.203177	0.262066	0.138190	-0.369629	-0.072266	0.670166	173.897160	-86.499667	-21.537856
29439		9.585275	1.025641	1.270785	0.117242	0.218280	0.082576	-0.372803	-0.072998	0.661621	174.560321	-86.627288	-22.129773
29440		9.605852	0.999057	1.222681	0.025063	0.174043	0.034350	-0.366211	-0.075439	0.666260	174.759346	-86.726779	-22.309461
29441		9.622272	1.044274	1.147034	-0.075966	0.129365	-0.002430	-0.367188	-0.075439	0.666016	174.590783	-86.798967	-22.179077
29442		9.492224	1.231088	1.170527	-0.160101	0.087770	-0.042972	-0.375977	-0.079590	0.662109	173.974885	-86.844926	-21.648816
29443		9.237732	1.357228	1.034646	-0.216037	0.057544	-0.071541	-0.376953	-0.076904	0.664551	173.061997	-86.871675	-20.853364
29444		9.087915	1.289116	1.033091	-0.248640	0.039324	-0.092784	-0.375000	-0.072998	0.659912	171.907277	-86.885437	-19.834315
29445		9.130387	1.168050	0.960716	-0.263847	0.027457	-0.110490	-0.372314	-0.073242	0.663818	170.581580	-86.890068	-18.652888
29446		9.325510	0.947888	0.863277	-0.270719	0.009430	-0.127212	-0.375488	-0.079102	0.658203	169.100030	-86.880916	-17.319201
29447		9.304016	0.750101	0.789812	-0.275919	-0.005198	-0.141687	-0.375732	-0.083008	0.664551	167.518949	-86.860369	-15.888907
29448		9.225681	0.680196	0.691210	-0.274811	-0.012135	-0.162815	-0.374512	-0.084961	0.652100	165.755029	-86.830444	-14.274718
29449		9.210897	0.607518	0.641715	-0.263118	-0.018760	-0.173409	-0.371338	-0.090820	0.661377	163.953052	-86.793027	-12.615755
29450		9.316331	0.542612	0.559851	-0.255751	-0.003452	-0.178506	-0.376221	-0.089600	0.653564	162.092800	-86.759694	-10.894035
29451		9.363192	0.518798	0.509009	-0.234618	0.004477	-0.181577	-0.370117	-0.089355	0.655762	160.233410	-86.727548	-9.161096
29452		9.226352	0.544695	0.469782	-0.210199	0.011860	-0.171260	-0.377441	-0.091553	0.659668	158.486960	-86.697773	-7.527115
29453		9.142058	0.565150	0.459255	-0.175404	0.016028	-0.151792	-0.376465	-0.090088	0.655762	156.957180	-86.672409	-6.090250
29454		8.963287	0.504508	0.466413	-0.146871	0.025672	-0.130278	-0.374268	-0.091064	0.656738	155.615049	-86.654342	-4.824847
29455		8.926682	0.534711	0.433985	-0.134529	0.039976	-0.115170	-0.367676	-0.098877	0.651123	154.370988	-86.646390	-3.650679
29456		8.970143	0.574901	0.445658	-0.124784	0.063714	-0.096112	-0.368896	-0.089355	0.653809	153.196828	-86.653329	-2.540839
29457		9.138650	0.690778	0.427540	-0.132698	0.088576	-0.079976	-0.376953	-0.092285	0.650391	152.042185	-86.676575	-1.455207
29458		9.297947	0.892866	0.418915	-0.126502	0.092645	-0.066837	-0.373047	-0.100098	0.651855	150.967832	-86.703500	-0.446373
29459		9.299630	1.019032	0.376831	-0.127366	0.082528	-0.055919	-0.371094	-0.101807	0.651611	150.023103	-86.728183	0.432009
29460		9.386475	1.035012	0.288425	-0.142007	0.078672	-0.058968	-0.379639	-0.087891	0.651367	149.048714	-86.748477	1.331770
29461		9.416569	1.124876	0.231071	-0.157023	0.081172	-0.063651	-0.376709	-0.102295	0.649658	148.000418	-86.768448	2.296834
29462		9.383372	1.133401	0.174925	-0.170833	0.082648	-0.069915	-0.370850	-0.107178	0.640381	146.870483	-86.785395	3.335811
29463		9.335779	1.022430	0.066427	-0.162830	0.079218	-0.066236	-0.383057	-0.097168	0.647705	145.783430	-86.801505	4.336334
29464		9.275486	0.877407	-0.065700	-0.157102	0.063206	-0.051546	-0.377930	-0.117920	0.644287	144.909857	-86.813133	5.126400
29465		9.203774	0.783943	-0.190785	-0.169043	0.067424	-0.034289	-0.376709	-0.101318	0.640869	144.139830	-86.832587	5.805821
29466		9.157476	0.756907	-0.352230	-0.182911	0.068384	-0.009864	-0.375000	-0.107178	0.642822	143.554705	-86.859543	6.292160
29467		9.128077	0.795005	-0.409887	-0.201073	0.067134	0.012889	-0.369385	-0.103760	0.635498	143.146290	-86.894210	6.591023
29468		9.293017	0.784750	-0.536837	-0.218835	0.066874	0.028535	-0.374756	-0.114746	0.639648	142.858149	-86.933318	6.759302
29469		9.382298	0.745723	-0.736622	-0.246054	0.068959	0.042944	-0.377441	-0.109375	0.635986	142.655041	-86.979044	6.826742
29470		9.310774	0.835884	-0.769808	-0.283021	0.063074	0.047904	-0.373047	-0.111084	0.639893	142.513281	-87.023098	6.811601
29471		9.162240	0.949448	-0.846267	-0.313660	0.042998	0.062815	-0.382568	-0.113525	0.634766	142.616493	-87.063887	6.533526
29472		9.100385	0.951699	-0.890552	-0.339228	0.030512	0.076215	-0.373291	-0.110840	0.637207	142.920789	-87.102899	6.039505
29473		8.982701	0.974810	-0.934519	-0.360897	0.018298	0.086358	-0.380371	-0.114502	0.641846	143.396187	-87.140254	5.361704
29474		9.002036	0.886907	-1.079851	-0.376932	0.015247	0.105762	-0.377441	-0.108154	0.636475	144.085255	-87.181795	4.460843
29475		9.049568	0.809797	-1.129749	-0.393839	0.017596	0.130684	-0.377686	-0.115723	0.637451	145.009729	-87.232667	3.314594
29476		9.043925	0.786983	-1.177144	-0.411230	0.015705	0.151594	-0.370605	-0.114258	0.637695	146.189145	-87.287795	1.903226
29477		9.098623	0.674723	-1.288673	-0.423006	0.008980	0.168281	-0.370117	-0.118896	0.629639	147.629578	-87.343897	0.223834
29478		9.104981	0.593914	-1.266939	-0.431892	0.001278	0.174714	-0.369873	-0.123535	0.628174	149.253530	-87.395504	-1.644264
29479		9.142562	0.604736	-1.389179	-0.452081	-0.009462	0.178364	-0.372314	-0.123779	0.628418	151.039338	-87.440733	-3.685913
29480		9.156848	0.626603	-1.363896	-0.462695	-0.021662	0.185643	-0.383789	-0.127197	0.628418	153.044474	-87.478181	-5.953103
29481		9.083820	0.676049	-1.403271	-0.465587	-0.036406	0.202727	-0.374512	-0.122070	0.629639	155.392863	-87.508876	-8.565492
29482		9.026108	0.650955	-1.404410	-0.456664	-0.049851	0.222197	-0.376709	-0.131104	0.624268	158.111798	-87.531372	-11.543586
29483		8.968506	0.574076	-1.440656	-0.448732	-0.073868	0.252191	-0.380127	-0.134766	0.625000	161.361966	-87.540552	-15.048830
29484		9.062661	0.446958	-1.477917	-0.453591	-0.102416	0.264009	-0.374756	-0.136475	0.616211	164.874074	-87.526747	-18.819038
29485		9.068490	0.399920	-1.548338	-0.477435	-0.134617	0.257826	-0.372314	-0.139160	0.627930	168.322958	-87.484660	-22.539723
29486		9.048049	0.382553	-1.714760	-0.484942	-0.155954	0.247365	-0.373047	-0.129395	0.620361	171.543396	-87.419811	-26.036187
29487		9.250447	0.368057	-1.937476	-0.492350	-0.165177	0.236265	-0.378174	-0.133545	0.623291	174.459373	-87.340969	-29.232322
29488		9.267763	0.308056	-2.022234	-0.470981	-0.157809	0.239503	-0.375488	-0.129639	0.619385	177.237626	-87.259065	-32.278528
29489		9.214578	0.191395	-2.163347	-0.437082	-0.148388	0.238193	-0.374756	-0.129395	0.626221	179.844914	-87.176057	-35.134333
29490		9.348654	0.154072	-2.247264	-0.410185	-0.132602	0.237064	-0.374756	-0.146240	0.622314	-177.700084	-87.095903	-37.822432
29491		9.523107	0.116414	-2.212331	-0.387644	-0.111590	0.235405	-0.368652	-0.145752	0.619873	-175.373515	-87.022365	-40.369180
29492		9.626452	0.137071	-2.323116	-0.374925	-0.085272	0.235544	-0.374268	-0.145508	0.621338	-173.125981	-86.958601	-42.829644
29493		9.565843	0.280537	-2.273065	-0.387972	-0.072072	0.242398	-0.369873	-0.148438	0.620850	-170.892197	-86.896757	-45.283971
29494		9.581817	0.456170	-2.418381	-0.404036	-0.060854	0.248352	-0.371338	-0.152344	0.614746	-168.679538	-86.835601	-47.726500
29495		9.567226	0.696834	-2.477934	-0.435736	-0.047794	0.244775	-0.365234	-0.160889	0.610840	-166.581473	-86.777105	-50.072592
29496		9.393761	0.815112	-2.643556	-0.474383	-0.037229	0.249227	-0.374512	-0.157959	0.614502	-164.515761	-86.719235	-52.408587
29497		9.315418	0.794534	-2.493491	-0.512270	-0.023437	0.251657	-0.373779	-0.151611	0.613281	-162.489139	-86.663658	-54.727306
29498		9.428811	0.596904	-2.252274	-0.555997	-0.007168	0.229612	-0.368408	-0.161865	0.611572	-160.707646	-86.616694	-56.825690
29499		9.790457	0.113165	-1.837356	-0.535572	-0.017075	0.173421	-0.370850	-0.162109	0.615723	-159.508666	-86.571908	-58.328909
29500		10.247043	-0.400014	-1.539753	-0.497291	-0.026755	0.070015	-0.365234	-0.166504	0.607422	-159.264275	-86.541929	-58.853896
29501		10.779399	-0.926330	-1.512449	-0.377482	-0.010540	-0.077704	-0.366699	-0.169922	0.604492	-160.215899	-86.549860	-58.111933
29502		11.231645	-1.484818	-1.566109	-0.214875	0.012456	-0.231250	-0.363525	-0.167236	0.604492	-162.401475	-86.597562	-56.040491
29503		11.340784	-2.022307	-1.162266	-0.132325	0.027385	-0.331432	-0.365234	-0.170898	0.606201	-165.509706	-86.663213	-52.997558
29504		11.390539	-2.119752	-0.880521	-0.104777	0.007725	-0.377654	-0.362305	-0.175537	0.601074	-169.204075	-86.713339	-49.351860
29505		11.467340	-1.783973	-0.656318	-0.082652	0.003774	-0.416328	-0.362549	-0.179688	0.601807	-173.375663	-86.749584	-45.215661
29506		11.397440	-1.143259	-0.543071	-0.051635	-0.005138	-0.479209	-0.364746	-0.178711	0.600098	-178.241501	-86.765108	-40.366375
29507		11.181865	-0.345829	-0.408798	-0.041700	-0.018458	-0.500833	-0.365234	-0.187012	0.598877	176.678798	-86.748545	-35.297222
29508		11.015584	0.368552	-0.349222	-0.055452	-0.017993	-0.496091	-0.367188	-0.183350	0.604736	171.724212	-86.707908	-30.361094
29509		10.900653	1.044323	-0.325395	-0.105223	-0.011027	-0.462605	-0.363037	-0.183594	0.593506	167.204085	-86.651191	-25.888514
29510		10.770846	1.506104	-0.198771	-0.185511	0.005007	-0.421177	-0.368652	-0.188965	0.592285	163.145143	-86.590593	-21.923698
29511		10.682842	1.588346	0.137630	-0.254395	0.046004	-0.358061	-0.354248	-0.202393	0.586670	159.631411	-86.548164	-18.544416
29512		10.534859	1.305690	0.739670	-0.271555	0.070699	-0.294032	-0.362793	-0.210205	0.583252	156.658800	-86.521507	-15.716950
29513		10.318950	0.866672	1.206686	-0.257968	0.099573	-0.241208	-0.357178	-0.203857	0.586182	154.073393	-86.513946	-13.269559
29514		10.236729	0.525621	1.517029	-0.231620	0.130126	-0.228784	-0.364746	-0.211914	0.588867	151.482240	-86.518810	-10.801276
29515		10.263293	0.433286	1.856759	-0.230069	0.172693	-0.244945	-0.365479	-0.217773	0.585938	148.552741	-86.532727	-7.993160
29516		10.325232	0.430217	1.893315	-0.229673	0.204993	-0.280899	-0.365234	-0.217041	0.580322	145.151762	-86.541673	-4.712509
29517		10.277437	0.411298	1.983833	-0.243072	0.219346	-0.300964	-0.361572	-0.215576	0.575928	141.504338	-86.538034	-1.192659
29518		10.240844	0.436038	2.023471	-0.280905	0.229140	-0.295635	-0.357666	-0.220215	0.570801	137.831441	-86.527206	2.331016
29519		10.080942	0.473690	1.934359	-0.328807	0.235495	-0.274719	-0.363770	-0.230469	0.580566	134.261173	-86.513860	5.724431
29520		9.998948	0.477852	1.883082	-0.369751	0.236051	-0.247992	-0.368164	-0.231934	0.565430	130.867078	-86.499547	8.917882
29521		9.912050	0.427340	1.738325	-0.388932	0.227221	-0.227387	-0.369873	-0.234863	0.572266	127.679469	-86.480076	11.893519
29522		9.874708	0.299020	1.605529	-0.383401	0.212513	-0.203054	-0.362793	-0.234131	0.555664	124.779871	-86.457182	14.583829
29523		9.787438	0.083128	1.475371	-0.342864	0.198507	-0.176677	-0.364502	-0.238525	0.556885	122.179843	-86.434647	16.997339
29524		9.808417	-0.197125	1.357251	-0.291261	0.171252	-0.133258	-0.375977	-0.241455	0.563721	120.062919	-86.419110	18.956469
29525		9.798329	-0.594095	1.195899	-0.222153	0.140401	-0.081614	-0.366699	-0.247803	0.556396	118.472235	-86.416960	20.428026
29526		9.801352	-0.887593	1.105776	-0.164217	0.112472	-0.031963	-0.368652	-0.250000	0.554443	117.357830	-86.430139	21.455621
29527		9.825999	-1.049045	0.951278	-0.094941	0.082847	0.016560	-0.377197	-0.250488	0.553223	116.715220	-86.459618	22.050248
29528		9.501217	-1.141524	0.871637	-0.034977	0.039126	0.061515	-0.374268	-0.247070	0.552734	116.655463	-86.500400	22.095328
29529		9.202315	-1.129552	0.774202	0.041830	0.002677	0.109734	-0.376465	-0.253174	0.553467	117.149001	-86.556717	21.630157
29530		9.259668	-0.981267	0.673174	0.118724	-0.016011	0.159181	-0.367432	-0.242676	0.550293	118.093370	-86.632476	20.757549
29531		9.428335	-0.944715	0.713521	0.185241	-0.018503	0.201759	-0.371338	-0.244629	0.559082	119.341116	-86.728379	19.619269
29532		9.529868	-0.791791	0.703481	0.234859	-0.044332	0.244892	-0.369141	-0.249756	0.549805	121.153074	-86.835942	17.944515
29533		9.565203	-0.696143	0.627254	0.289178	-0.066508	0.282984	-0.369141	-0.252441	0.548828	123.535210	-86.952184	15.730043
29534		9.621918	-0.614099	0.591880	0.341710	-0.080820	0.309654	-0.370361	-0.231689	0.556641	126.436452	-87.070048	13.026189
29535		9.571068	-0.504107	0.531818	0.379563	-0.083038	0.316155	-0.373291	-0.238525	0.555176	129.649796	-87.183017	10.031779
29536		9.528928	-0.433173	0.486078	0.394155	-0.075422	0.315676	-0.365234	-0.235107	0.559814	133.053127	-87.289166	6.855869
29537		9.470175	-0.238536	0.449172	0.397788	-0.074290	0.300342	-0.370117	-0.230225	0.560791	136.561000	-87.380828	3.577589
29538		9.437774	-0.079366	0.501653	0.366310	-0.061045	0.289212	-0.371826	-0.229004	0.556396	140.065237	-87.463696	0.285182
29539		9.363057	0.161351	0.426986	0.325682	-0.049055	0.277238	-0.379639	-0.231201	0.547852	143.536429	-87.539330	-2.997306
29540		9.238739	0.352304	0.365473	0.268108	-0.034036	0.257185	-0.371094	-0.232422	0.553223	146.833335	-87.606108	-6.138135
29541		9.105872	0.489743	0.324063	0.215737	-0.027184	0.234681	-0.374756	-0.215576	0.556152	149.950786	-87.662726	-9.129300
29542		9.054096	0.539572	0.252076	0.163917	-0.008337	0.220438	-0.374512	-0.223389	0.551758	152.874615	-87.717528	-11.956229
29543		8.986227	0.481443	0.110108	0.131194	0.008547	0.208235	-0.371582	-0.215088	0.563232	155.647958	-87.773098	-14.651254
29544		8.987498	0.417109	0.073165	0.101689	0.028209	0.199558	-0.371826	-0.219238	0.559326	158.304309	-87.831188	-17.245970
29545		8.926644	0.276167	-0.087629	0.074188	0.040971	0.180864	-0.370117	-0.216309	0.559082	160.746003	-87.888722	-19.641587
29546		8.882960	0.093737	-0.210525	0.063126	0.039111	0.156323	-0.379150	-0.220947	0.550537	162.943588	-87.936367	-21.799156
29547		8.917962	-0.024521	-0.330037	0.047550	0.041145	0.134581	-0.372070	-0.208496	0.562012	164.885464	-87.979631	-23.709756
29548		8.969954	-0.124546	-0.454377	0.044719	0.030851	0.117652	-0.373291	-0.219727	0.552246	166.669538	-88.011739	-25.464003
29549		9.042400	-0.173324	-0.578110	0.048935	0.023740	0.113107	-0.375732	-0.219482	0.552734	168.466926	-88.038178	-27.229157
29550		9.159682	-0.253706	-0.648495	0.060426	0.008321	0.111581	-0.371582	-0.216553	0.543213	170.330053	-88.053017	-29.053444
29551		9.231831	-0.256205	-0.736969	0.076004	-0.015107	0.103028	-0.374268	-0.216553	0.545166	172.146571	-88.052610	-30.822194
29552		9.220846	-0.293649	-0.878484	0.094822	-0.039913	0.090049	-0.370117	-0.223633	0.554443	173.791621	-88.034604	-32.408562
29553		9.140695	-0.303539	-0.927707	0.114453	-0.058535	0.068581	-0.379150	-0.215088	0.555908	175.098946	-88.004130	-33.645808
29554		9.098621	-0.184502	-1.024189	0.141728	-0.075174	0.041301	-0.374756	-0.208496	0.555176	175.952808	-87.961407	-34.413664
29555		9.049271	-0.191107	-1.090817	0.165881	-0.076774	0.015036	-0.369141	-0.220215	0.546631	176.384496	-87.917149	-34.745286
29556		9.020747	-0.145090	-1.156508	0.215844	-0.075895	-0.020409	-0.364746	-0.214111	0.554932	176.273261	-87.871376	-34.504942
29557		9.071360	-0.141156	-1.215958	0.254668	-0.098464	-0.060563	-0.372314	-0.214600	0.552979	175.622467	-87.811665	-33.702431
29558		9.118551	-0.181367	-1.202669	0.312318	-0.114648	-0.094877	-0.363281	-0.218262	0.548340	174.559200	-87.739933	-32.454000
29559		9.022905	-0.195123	-1.365251	0.354659	-0.143456	-0.115642	-0.368652	-0.212891	0.558350	173.356578	-87.650202	-31.041802
29560		8.953347	-0.230882	-1.630151	0.381480	-0.165341	-0.147682	-0.368896	-0.205811	0.556396	171.874700	-87.543745	-29.334574
29561		8.876738	-0.193819	-1.795962	0.398174	-0.183448	-0.156949	-0.364502	-0.208252	0.555908	170.464287	-87.425021	-27.689215
29562		8.806553	-0.195403	-1.945889	0.413456	-0.184665	-0.177219	-0.361816	-0.210938	0.558105	168.952822	-87.301151	-25.933722
29563		8.923528	-0.178040	-1.992102	0.445043	-0.199650	-0.183034	-0.364014	-0.207520	0.557129	167.581278	-87.166722	-24.300066
29564		8.894260	-0.300228	-1.937321	0.452992	-0.203990	-0.185903	-0.365967	-0.214355	0.559570	166.326407	-87.027206	-22.778420
29565		8.862517	-0.455248	-1.885741	0.448326	-0.200652	-0.201551	-0.359375	-0.209717	0.558594	165.031229	-86.886104	-21.218959
29566		8.921554	-0.500848	-1.776267	0.441626	-0.198316	-0.228846	-0.348877	-0.197021	0.560791	163.581543	-86.739648	-19.508318
29567		8.997935	-0.376081	-1.757760	0.424662	-0.195422	-0.252739	-0.355957	-0.205078	0.563232	162.037411	-86.588711	-17.712627
29568		9.038142	-0.224568	-1.773966	0.421732	-0.200224	-0.262980	-0.350098	-0.214111	0.561768	160.555382	-86.430154	-15.980473
29569		9.166130	-0.056203	-1.695865	0.412890	-0.196231	-0.251477	-0.354248	-0.212158	0.559326	159.293274	-86.273917	-14.473546
29570		9.268446	-0.007077	-1.623828	0.401472	-0.186823	-0.231357	-0.354004	-0.208984	0.563232	158.259982	-86.124603	-13.202153
29571		9.348962	-0.049998	-1.664247	0.404848	-0.178966	-0.206286	-0.350098	-0.210449	0.568604	157.483240	-85.983910	-12.185844
29572		9.385221	-0.118881	-1.600870	0.405453	-0.167051	-0.187110	-0.347168	-0.209473	0.566650	156.864689	-85.852579	-11.327531
29573		9.380369	-0.191693	-1.652680	0.413157	-0.146664	-0.175304	-0.345703	-0.207764	0.564697	156.320662	-85.734362	-10.539465
29574		9.370554	-0.285109	-1.674187	0.418531	-0.132088	-0.173463	-0.344482	-0.209717	0.569824	155.778409	-85.623339	-9.749890
29575		9.318426	-0.341665	-1.888654	0.425819	-0.127458	-0.174802	-0.341553	-0.193115	0.571289	155.255474	-85.514157	-8.975473
29576		9.265949	-0.350771	-2.067725	0.439938	-0.110826	-0.178273	-0.345703	-0.198975	0.565186	154.693057	-85.411911	-8.153134
29577		9.186997	-0.465541	-2.215119	0.448665	-0.092560	-0.192285	-0.345703	-0.199951	0.579102	154.027471	-85.315192	-7.222249
29578		9.110242	-0.555474	-2.469241	0.470249	-0.088862	-0.216198	-0.344971	-0.202393	0.575439	153.243572	-85.213078	-6.160013
29579		9.137905	-0.691500	-2.669834	0.507367	-0.072411	-0.244317	-0.337646	-0.194580	0.575195	152.307619	-85.110889	-4.923776
29580		9.129648	-0.869638	-2.713513	0.560841	-0.063026	-0.275020	-0.339844	-0.201416	0.564209	151.234826	-85.003074	-3.519144
29581		9.078829	-1.016994	-2.618043	0.601464	-0.069698	-0.305232	-0.334473	-0.195801	0.568115	150.098519	-84.881317	-2.027242
29582		9.150343	-1.053485	-2.409765	0.634941	-0.066805	-0.324310	-0.336670	-0.195068	0.569336	148.925020	-84.752616	-0.478338
29583		9.434651	-0.781163	-1.930847	0.649113	-0.057247	-0.317836	-0.334961	-0.188232	0.569824	147.834999	-84.627967	0.995083
29584		9.914674	-0.233736	-1.543516	0.619574	-0.072479	-0.269607	-0.335205	-0.197021	0.566406	147.069591	-84.508449	2.125837
29585		10.395033	0.390987	-1.384836	0.547827	-0.104067	-0.190404	-0.334961	-0.187256	0.574951	146.798917	-84.397759	2.718327
29586		10.627452	0.839914	-1.501219	0.496237	-0.116345	-0.106102	-0.333984	-0.184570	0.575439	146.950631	-84.307319	2.856887
29587		10.584692	1.076580	-1.097762	0.468317	-0.122362	-0.052813	-0.333008	-0.188965	0.569580	147.365844	-84.230782	2.714453
29588		10.580619	1.312983	-0.773080	0.414355	-0.143484	-0.033050	-0.330566	-0.181152	0.581543	147.892098	-84.149806	2.429420
29589		11.013167	1.854707	-0.284933	0.297673	-0.143273	0.022689	-0.328125	-0.190186	0.579346	148.609614	-84.085574	1.884764
29590		11.472489	2.548483	-0.166167	0.149192	-0.133912	0.128174	-0.333008	-0.179443	0.569092	149.693912	-84.055934	0.885881
29591		11.823243	2.856562	-0.442775	0.026201	-0.133249	0.264704	-0.324951	-0.182617	0.576172	151.357710	-84.062760	-0.766592
29592		11.791545	2.377449	-1.290054	-0.007991	-0.177474	0.390730	-0.333984	-0.182861	0.576172	153.728724	-84.074286	-3.149661
29593		11.630900	1.182217	-1.903531	0.034414	-0.159345	0.474933	-0.328125	-0.183105	0.570801	156.521124	-84.104456	-5.931926
29594		11.715371	-0.281287	-2.160977	0.139787	-0.092260	0.513275	-0.333252	-0.183838	0.573730	159.459059	-84.164150	-8.799498
29595		12.005606	-1.094275	-1.689331	0.196482	0.003928	0.514582	-0.324707	-0.178955	0.572510	162.329085	-84.261181	-11.565839
29596		12.081238	-1.287817	-0.981442	0.214925	0.054877	0.493939	-0.335693	-0.184082	0.572754	165.102205	-84.369169	-14.223603
29597		11.819371	-0.808901	-0.361372	0.184459	0.088917	0.456187	-0.325439	-0.177246	0.574707	167.702780	-84.478453	-16.725136
29598		11.584560	-0.149367	0.061244	0.184846	0.135327	0.417053	-0.329102	-0.178955	0.577881	170.113502	-84.598928	-19.035153
29599		11.250030	0.283769	0.478087	0.207317	0.209124	0.392214	-0.334717	-0.171631	0.572510	172.434590	-84.749749	-21.241800
29600		10.795752	0.369651	0.699339	0.247017	0.276262	0.378914	-0.335693	-0.171631	0.573730	174.776842	-84.929638	-23.446172
29601		10.326436	0.185065	0.947938	0.298457	0.344043	0.380447	-0.341064	-0.165283	0.565674	177.307562	-85.139665	-25.809576
29602		9.800602	0.011338	1.173137	0.333021	0.389547	0.366942	-0.339844	-0.169922	0.573975	179.970927	-85.366211	-28.285341
29603		9.471544	-0.036832	1.380935	0.344728	0.398766	0.346715	-0.343262	-0.165283	0.569092	-177.240043	-85.588272	-30.879754
29604		9.470836	0.022577	1.446681	0.317819	0.388227	0.327778	-0.346680	-0.157471	0.563965	-174.352156	-85.794780	-33.587911
29605		9.405085	0.245334	1.384591	0.264392	0.349225	0.293450	-0.346436	-0.164795	0.567627	-171.530458	-85.971133	-36.259842
29606		9.340557	0.522894	1.264336	0.204943	0.297052	0.233508	-0.350586	-0.165039	0.558350	-169.091625	-86.114818	-38.581504
29607		9.359686	0.899809	1.044976	0.158514	0.236231	0.140494	-0.351563	-0.157959	0.561279	-167.402343	-86.229413	-40.178349
29608		9.482117	1.065283	0.842637	0.114619	0.176504	0.034280	-0.356934	-0.153320	0.558594	-166.695482	-86.321993	-40.815606
29609		9.693321	1.162320	0.752863	0.071469	0.132039	-0.056404	-0.355713	-0.159180	0.557861	-166.869887	-86.401582	-40.594620
29610		9.732714	1.196875	0.607556	0.036540	0.107334	-0.102430	-0.351318	-0.154541	0.556885	-167.550809	-86.472969	-39.886115
29611		9.625309	1.114339	0.585206	0.000390	0.101095	-0.115871	-0.350830	-0.142090	0.558594	-168.409819	-86.542077	-39.020074
29612		9.451629	1.075974	0.651132	-0.028198	0.088118	-0.111765	-0.352295	-0.161377	0.563721	-169.312902	-86.602397	-38.126270
29613		9.303540	1.069409	0.758679	-0.060177	0.073348	-0.104712	-0.358643	-0.152832	0.552734	-170.215635	-86.653114	-37.251288
29614		9.341382	0.969347	0.714794	-0.090258	0.047009	-0.112142	-0.361328	-0.170898	0.554688	-171.283171	-86.688427	-36.228462
29615		9.391276	0.850215	0.580734	-0.132535	0.027988	-0.136065	-0.355469	-0.168457	0.558838	-172.652485	-86.713969	-34.927706
29616		9.549854	0.758066	0.501635	-0.181494	0.019911	-0.162151	-0.355469	-0.170410	0.552734	-174.345482	-86.734211	-33.330810
29617		9.578200	0.821883	0.436976	-0.204416	0.011438	-0.193118	-0.361328	-0.166992	0.557129	-176.382777	-86.748517	-31.402288
29618		9.509715	0.811884	0.390588	-0.211396	0.022674	-0.216423	-0.358887	-0.167480	0.560059	-178.677317	-86.765217	-29.220096
29619		9.221293	0.687467	0.394958	-0.202491	0.028136	-0.235715	-0.353760	-0.174805	0.551758	178.820203	-86.780395	-26.824598
29620		9.286845	0.666849	0.309876	-0.197361	0.034598	-0.249353	-0.352051	-0.173828	0.554199	176.155032	-86.792309	-24.263202
29621		9.222894	0.591124	0.287681	-0.176154	0.052072	-0.252584	-0.362305	-0.177002	0.547607	173.437369	-86.807842	-21.637130
29622		9.176230	0.478466	0.229635	-0.153122	0.069069	-0.243294	-0.348145	-0.181885	0.555420	170.777175	-86.826283	-19.055410
29623		9.161066	0.414095	0.186546	-0.129196	0.086430	-0.229416	-0.354736	-0.180664	0.557617	168.210960	-86.850009	-16.554166
29624		9.084671	0.354087	0.174783	-0.112126	0.092972	-0.216236	-0.353516	-0.177246	0.549561	165.737523	-86.872390	-14.136068
29625		8.962446	0.313264	0.105519	-0.098785	0.108774	-0.194159	-0.359619	-0.186035	0.548584	163.416416	-86.901942	-11.862961
29626		9.163489	0.382090	0.046425	-0.104422	0.116104	-0.175730	-0.361816	-0.191650	0.552979	161.213432	-86.933172	-9.711416
29627		9.247055	0.477016	0.019373	-0.105908	0.114900	-0.157920	-0.359619	-0.183594	0.550293	159.150787	-86.963537	-7.701356
29628		9.135260	0.672612	0.010039	-0.123527	0.112241	-0.135459	-0.366699	-0.188232	0.549072	157.278432	-86.992922	-5.891984
29629		9.105319	0.859665	-0.067123	-0.138073	0.096029	-0.116267	-0.357910	-0.180664	0.547119	155.626515	-87.015892	-4.311768
29630		9.084961	0.819022	-0.050761	-0.143493	0.074128	-0.097338	-0.359863	-0.181641	0.545898	154.244755	-87.029243	-3.005182
29631		9.063911	0.777268	-0.117268	-0.159726	0.055828	-0.083902	-0.355713	-0.194092	0.548096	153.062869	-87.035738	-1.908088
29632		9.027079	0.805521	-0.228956	-0.174122	0.038404	-0.076705	-0.364014	-0.205078	0.545166	152.033334	-87.033536	-0.971785
29633		8.889120	0.926666	-0.208198	-0.192694	0.009060	-0.071048	-0.357178	-0.189209	0.550781	151.200655	-87.017928	-0.243271
29634		8.802531	0.992997	-0.353113	-0.197826	-0.032100	-0.067291	-0.357178	-0.195801	0.547363	150.634565	-86.981667	0.215380
29635		8.738395	0.867094	-0.467424	-0.195928	-0.078180	-0.066842	-0.361816	-0.199951	0.542480	150.324950	-86.922989	0.418289
29636		8.611705	0.607698	-0.617226	-0.174588	-0.131880	-0.060928	-0.356201	-0.190186	0.548828	150.373446	-86.838611	0.274827
29637		8.582141	0.323326	-0.766681	-0.157030	-0.184737	-0.049431	-0.353271	-0.194336	0.546631	150.783260	-86.731652	-0.220467
29638		8.513352	0.249695	-1.026831	-0.151050	-0.219401	-0.016870	-0.349365	-0.205566	0.553467	151.611053	-86.615385	-1.131061
29639		8.482844	0.098669	-1.122289	-0.148373	-0.245234	0.020911	-0.352051	-0.199219	0.549072	152.803203	-86.495779	-2.405252
29640		8.354104	0.056143	-1.274878	-0.150538	-0.271847	0.072658	-0.353516	-0.199219	0.545898	154.442320	-86.373238	-4.128677
29641		8.426254	0.115279	-1.386801	-0.156626	-0.286592	0.126589	-0.352539	-0.204834	0.547119	156.447164	-86.253064	-6.222321
29642		8.502533	0.378268	-1.517097	-0.167340	-0.293445	0.172964	-0.351563	-0.198975	0.552979	158.706159	-86.133897	-8.577109
29643		8.693378	0.629179	-1.650156	-0.187965	-0.280559	0.213226	-0.354004	-0.205811	0.552490	161.088933	-86.023891	-11.068134
29644		8.898797	0.822510	-1.710323	-0.212841	-0.267112	0.235592	-0.353516	-0.203857	0.548340	163.465586	-85.917609	-13.567632
29645		9.205432	1.023211	-1.765004	-0.237678	-0.250943	0.241727	-0.349854	-0.207275	0.554443	165.714479	-85.814679	-15.953628
29646		9.392564	0.973764	-1.829297	-0.255978	-0.227039	0.231967	-0.346436	-0.209717	0.549072	167.728402	-85.716986	-18.114834
29647		9.535365	0.946087	-1.867091	-0.281619	-0.191508	0.208846	-0.339600	-0.203857	0.552002	169.412578	-85.631959	-19.960332
29648		9.589431	0.910550	-1.883920	-0.308424	-0.154911	0.187406	-0.342529	-0.210938	0.550293	170.815785	-85.561334	-21.539635
29649		9.763189	0.885013	-1.932228	-0.327990	-0.133214	0.168378	-0.352295	-0.209961	0.548340	172.000236	-85.499028	-22.910883
29650		10.019750	0.802576	-1.999246	-0.373324	-0.102870	0.154079	-0.348145	-0.213379	0.548340	172.996818	-85.450494	-24.119855
29651		10.113149	0.941425	-1.958120	-0.418728	-0.084233	0.131139	-0.344971	-0.215576	0.550293	173.765630	-85.409904	-25.126476
29652		10.262946	0.904646	-1.933004	-0.446116	-0.062422	0.109214	-0.341553	-0.212158	0.553711	174.335444	-85.379191	-25.949274
29653		10.138934	0.927693	-1.839132	-0.459410	-0.049519	0.082841	-0.340576	-0.216309	0.552002	174.693270	-85.354121	-26.567032
29654		9.842572	0.835173	-1.831449	-0.465345	-0.031487	0.070926	-0.345459	-0.219971	0.541260	174.950303	-85.338195	-27.087124
29655		9.609132	0.763790	-1.963799	-0.473568	-0.000893	0.074402	-0.350586	-0.230957	0.546875	175.204497	-85.339928	-27.609063
29656		9.506258	0.723530	-1.964808	-0.470452	0.023835	0.092293	-0.343750	-0.222656	0.546387	175.575509	-85.356163	-28.246446
29657		9.440567	0.633221	-2.073834	-0.460257	0.026027	0.120726	-0.352295	-0.223877	0.544189	176.153058	-85.374555	-29.085126
29658		9.418698	0.561967	-2.287291	-0.438114	0.029285	0.151408	-0.343018	-0.219727	0.534912	176.968149	-85.394881	-30.149410
29659		9.505092	0.459222	-2.479135	-0.424064	0.029090	0.177490	-0.347412	-0.232422	0.541260	177.982753	-85.414481	-31.405701
29660		9.619084	0.433068	-2.591823	-0.422718	0.033624	0.191732	-0.347900	-0.225342	0.535400	179.111983	-85.434897	-32.776220
29661		9.617627	0.433072	-2.666193	-0.444443	0.055868	0.200822	-0.346436	-0.231445	0.532471	-179.697021	-85.465892	-34.221093
29662		9.559296	0.577689	-2.715528	-0.467342	0.049521	0.194912	-0.349609	-0.230957	0.536377	-178.542890	-85.490921	-35.642135
29663		9.600772	0.724072	-2.870985	-0.507417	0.060112	0.193050	-0.351807	-0.245605	0.540039	-177.411411	-85.519762	-37.063390
29664		9.606876	0.837866	-2.647640	-0.548585	0.078091	0.187799	-0.353760	-0.234619	0.531738	-176.313873	-85.556928	-38.474241
29665		9.664470	0.830248	-2.497288	-0.548804	0.077504	0.187124	-0.356201	-0.242676	0.533447	-175.205444	-85.591539	-39.896027
29666		9.731262	0.606230	-2.307541	-0.521807	0.062959	0.156914	-0.349365	-0.239990	0.535156	-174.294013	-85.617618	-41.104707
29667		9.765705	0.384888	-2.107378	-0.501145	0.007589	0.110377	-0.355469	-0.244873	0.536621	-173.757251	-85.613559	-41.925680
29668		9.760621	0.186907	-2.170839	-0.507708	-0.046179	0.033033	-0.354492	-0.249756	0.526367	-173.838475	-85.583597	-42.130678
29669		9.979741	0.090054	-2.339090	-0.538898	-0.044054	-0.058990	-0.350342	-0.249023	0.524902	-174.616775	-85.560023	-41.654397
29670		10.126644	-0.078428	-2.232551	-0.492029	-0.005656	-0.134865	-0.358643	-0.255127	0.525635	-175.891164	-85.561568	-40.653640
29671		10.221837	-0.637962	-1.644453	-0.412980	0.018554	-0.190266	-0.350098	-0.258545	0.526855	-177.526015	-85.576492	-39.245880
29672		10.347091	-1.397843	-1.031822	-0.318064	0.000333	-0.250796	-0.360596	-0.263184	0.519775	-179.561560	-85.578708	-37.381745
29673		10.781911	-1.858273	-0.861548	-0.242876	-0.017429	-0.365440	-0.355225	-0.271973	0.522217	177.599352	-85.563129	-34.668401
29674		11.402517	-1.760880	-0.677677	-0.168346	-0.037998	-0.545072	-0.355225	-0.267822	0.525879	173.538510	-85.515638	-30.686686
29675		11.274703	-0.951472	-0.712997	-0.177800	-0.043409	-0.693977	-0.352295	-0.268799	0.521973	168.530961	-85.427014	-25.760348
29676		10.711474	0.424458	-0.235566	-0.254983	-0.039392	-0.732901	-0.355713	-0.274414	0.524170	163.435645	-85.301699	-20.789611
29677		10.157974	1.708027	0.304344	-0.332321	-0.003071	-0.673601	-0.353271	-0.287109	0.516846	158.876769	-85.173335	-16.400703
29678		9.923698	2.473164	0.744519	-0.405021	0.030990	-0.584345	-0.352295	-0.295166	0.523438	154.970848	-85.056864	-12.708164
29679		10.141395	2.367793	0.968657	-0.503900	0.042761	-0.528469	-0.353271	-0.287109	0.516357	151.478155	-84.940428	-9.486604
29680		10.136304	2.384648	1.149526	-0.657723	0.107677	-0.466298	-0.349121	-0.298340	0.513184	148.179955	-84.858031	-6.548344
29681		10.123716	2.253786	1.427798	-0.782721	0.173726	-0.416253	-0.349121	-0.304688	0.512207	144.936063	-84.807886	-3.736151
29682		10.501199	1.777502	1.425985	-0.830659	0.211146	-0.453487	-0.347412	-0.307129	0.505127	141.406412	-84.747618	-0.664413
29683		10.858683	1.239733	1.332989	-0.874838	0.220915	-0.508365	-0.361572	-0.318359	0.505859	137.643377	-84.653168	2.616755
29684		10.913331	0.866619	1.406393	-0.888580	0.217239	-0.518236	-0.349365	-0.322998	0.502686	133.984258	-84.534219	5.786121
29685		10.701629	0.430670	1.319556	-0.869327	0.203801	-0.487263	-0.356445	-0.332764	0.499756	130.666577	-84.404935	8.624284
29686		10.322935	-0.021799	1.227131	-0.807447	0.195631	-0.427041	-0.354980	-0.341309	0.491211	127.781989	-84.285174	11.063382
29687		9.868484	-0.375562	1.137884	-0.725987	0.190885	-0.353608	-0.349609	-0.348389	0.496582	125.314636	-84.186237	13.130587
29688		9.561807	-0.737473	1.020325	-0.602200	0.177557	-0.264207	-0.356445	-0.346436	0.490234	123.334007	-84.117617	14.780041
29689		9.605685	-1.056211	0.865716	-0.484054	0.167612	-0.166122	-0.357910	-0.351563	0.485107	121.791710	-84.087962	16.057104
29690		9.613051	-1.210988	0.744188	-0.387643	0.149990	-0.084515	-0.357178	-0.349609	0.484131	120.635799	-84.090197	17.001208
29691		9.404263	-1.185577	0.615138	-0.293686	0.137095	-0.024176	-0.362549	-0.354004	0.481201	119.757750	-84.116766	17.720124
29692		9.655703	-1.215280	0.426260	-0.183091	0.121202	0.045968	-0.359619	-0.349609	0.480469	119.208629	-84.173027	18.171977
29693		9.863500	-1.236048	0.462923	-0.076744	0.095482	0.109955	-0.361816	-0.357666	0.488525	119.010938	-84.253842	18.331825
29694		9.888626	-1.116501	0.435207	0.013263	0.059578	0.161344	-0.361572	-0.354004	0.486572	119.189495	-84.350383	18.165323
29695		9.572491	-1.070303	0.367163	0.106094	0.020132	0.194299	-0.365967	-0.360596	0.479492	119.722217	-84.452247	17.696446
29696		9.770048	-0.943971	0.332172	0.180321	-0.006205	0.224002	-0.369385	-0.359619	0.482178	120.547119	-84.560602	16.976834
29697		9.860427	-0.705709	0.411423	0.230813	-0.027754	0.275033	-0.364746	-0.353760	0.480225	121.705867	-84.686598	15.951102
29698		9.693787	-0.347356	0.458709	0.268949	-0.038300	0.299158	-0.369873	-0.357910	0.484375	123.081558	-84.818667	14.729667
29699		9.461462	-0.075908	0.431266	0.305047	-0.037095	0.320171	-0.364502	-0.352295	0.484619	124.612485	-84.958533	13.373398
29700		9.283849	0.024035	0.441855	0.319209	-0.040734	0.317445	-0.364014	-0.355713	0.493408	126.245419	-85.092234	11.923175
29701		9.203516	0.310554	0.478027	0.309441	-0.050337	0.303373	-0.363037	-0.345459	0.491699	127.946739	-85.212822	10.398969
29702		9.272511	0.397984	0.353589	0.321248	-0.055238	0.298408	-0.374023	-0.344727	0.488281	129.744709	-85.325083	8.784841
