// General information: 
//  MT Manager version: 2022.2.0 
//  XDA version: 2022.2.0 build 7381 rev 124627 built on 2023-07-19
// Device information: 
//  DeviceId: 00B4C223
//  ProductCode: MTW2-3A7G6
//  Firmware Version: 4.6.0
//  Hardware Version: 2.0.0
// Device settings: 
//  Filter Profile: human(46.1)
//  Option Flags: Orientation Smoother Disabled, Position/Velocity Smoother Disabled, Continuous Zero Rotation Update Disabled, AHS Disabled, ICC Disabled
// Coordinate system: ENU
PacketCounter	SampleTimeFine	Acc_X	Acc_Y	Acc_Z	Gyr_X	Gyr_Y	Gyr_Z	Mag_X	Mag_Y	Mag_Z	Roll	Pitch	Yaw
44122		-3.172528	-0.770297	9.424472	-0.001597	-0.001818	0.005251	0.304688	0.256104	-0.142822	-4.704350	17.577121	25.060986
44123		-3.175640	-0.778426	9.447299	-0.003558	0.000369	0.007067	0.304932	0.256836	-0.135498	-4.703476	17.577935	25.062679
44124		-3.175730	-0.778537	9.447259	-0.003558	0.000369	0.007067	0.308350	0.249756	-0.141113	-4.702276	17.582038	25.064442
44125		-3.202599	-0.785137	9.415159	-0.004661	-0.000173	0.004862	0.317871	0.256348	-0.136719	-4.702425	17.582439	25.064841
44126		-3.176002	-0.778959	9.447133	-0.004168	0.003737	0.007361	0.312012	0.259766	-0.148926	-4.701577	17.588480	25.066614
44127		-3.146293	-0.764532	9.456292	-0.001289	0.000296	0.005568	0.315918	0.257813	-0.137695	-4.699674	17.589182	25.067412
44128		-3.176289	-0.779127	9.447023	-0.004661	-0.000173	0.004861	0.311523	0.256836	-0.140625	-4.699505	17.592865	25.067879
44129		-3.170055	-0.763408	9.401329	-0.009198	-0.000027	0.007859	0.315186	0.257568	-0.138672	-4.701714	17.593490	25.070067
44130		-3.176361	-0.780009	9.446926	-0.004785	-0.000492	0.006724	0.315674	0.250244	-0.138428	-4.701277	17.597077	25.071664
44131		-3.179970	-0.794031	9.415404	-0.005703	0.000762	0.006701	0.310059	0.254395	-0.140869	-4.701705	17.598097	25.073119
44132		-3.183175	-0.802400	9.438178	-0.004785	-0.000492	0.006724	0.310547	0.257813	-0.141357	-4.701275	17.601681	25.074714
44133		-3.166716	-0.750891	9.432637	-0.005951	0.000124	0.010427	0.321777	0.263672	-0.141357	-4.701160	17.602512	25.078433
44134		-3.176465	-0.781232	9.446790	-0.008466	-0.003074	0.005698	0.308350	0.249023	-0.135986	-4.702990	17.604569	25.079542
44135		-3.176490	-0.781638	9.446748	-0.005642	0.002238	0.010744	0.304688	0.260986	-0.140381	-4.702672	17.606623	25.083346
44136		-3.196599	-0.766585	9.423313	-0.007300	-0.003689	0.001995	0.315430	0.252441	-0.141357	-4.704502	17.608151	25.082263
44137		-3.170034	-0.766312	9.401100	-0.004661	-0.000172	0.004859	0.305420	0.255615	-0.144531	-4.704652	17.608551	25.082661
44138		-3.153035	-0.790245	9.447296	-0.005764	-0.000714	0.002654	0.306152	0.259277	-0.135742	-4.705528	17.611809	25.081828
44139		-3.173174	-0.775282	9.423845	-0.006682	0.000540	0.002631	0.312744	0.259766	-0.142090	-4.707251	17.612512	25.080855
44140		-3.153213	-0.791255	9.447152	-0.006497	0.002335	0.004813	0.319824	0.255859	-0.143311	-4.708207	17.617604	25.081163
44141		-3.180131	-0.798040	9.415011	-0.005888	-0.001033	0.004517	0.316406	0.260254	-0.136963	-4.709109	17.617497	25.081398
44142		-3.172878	-0.771144	9.477985	-0.008343	-0.002754	0.003833	0.321777	0.258301	-0.141846	-4.711233	17.619632	25.081368
44143		-3.176362	-0.785250	9.446491	-0.003558	0.000369	0.007063	0.313232	0.259766	-0.144531	-4.710360	17.620445	25.083060
44144		-3.173326	-0.777605	9.423603	-0.008703	0.001254	0.000402	0.311279	0.257080	-0.134277	-4.713376	17.624699	25.080777
44145		-3.176878	-0.792070	9.392053	-0.009385	-0.001820	0.005671	0.310791	0.255127	-0.141602	-4.716060	17.624197	25.081742
44146		-3.173186	-0.778983	9.423536	-0.007116	-0.001893	0.004173	0.316406	0.257568	-0.142334	-4.717442	17.626829	25.081867
44147		-3.176309	-0.787742	9.446302	-0.008827	0.000934	0.002264	0.307129	0.258545	-0.136475	-4.720466	17.627740	25.080655
44148		-3.146747	-0.779631	9.401203	-0.009385	-0.001820	0.005670	0.308594	0.261475	-0.135010	-4.722882	17.630479	25.081678
44149		-3.176162	-0.789099	9.446238	-0.007116	-0.001893	0.004172	0.311279	0.261719	-0.141357	-4.724537	17.629865	25.081749
44150		-3.153319	-0.802541	9.392472	-0.005455	0.001401	0.002972	0.308594	0.259033	-0.140381	-4.725245	17.634308	25.080993
44151		-3.173096	-0.782070	9.423311	-0.010303	-0.000565	0.005646	0.312500	0.260498	-0.145752	-4.728479	17.634522	25.081882
44152		-3.146169	-0.776297	9.455375	-0.005095	-0.002607	0.006399	0.312988	0.260254	-0.139893	-4.728305	17.636831	25.083378
44153		-3.175986	-0.791298	9.446113	-0.011654	-0.001745	0.007165	0.308350	0.261719	-0.140137	-4.732019	17.636443	25.085235
44154		-3.153025	-0.804977	9.392362	-0.006992	-0.001572	0.002308	0.311523	0.260986	-0.141113	-4.733695	17.639141	25.084226
44155		-3.178976	-0.800756	9.468860	-0.009199	-0.000025	0.007849	0.310791	0.254395	-0.141602	-4.735904	17.639767	25.086408
44156		-3.192888	-0.769442	9.399799	-0.005827	0.000441	0.008557	0.312988	0.255859	-0.138184	-4.735815	17.643902	25.089042
44157		-3.175957	-0.793534	9.445935	-0.008034	-0.000638	0.004147	0.313721	0.260498	-0.141357	-4.738020	17.644004	25.089035
44158		-3.166585	-0.769674	9.377453	-0.005455	0.001402	0.002970	0.303467	0.259521	-0.144287	-4.738752	17.648421	25.088274
44159		-3.199129	-0.787181	9.445304	-0.008903	-0.005507	0.007230	0.308838	0.253418	-0.132080	-4.740821	17.645888	25.090357
44160		-3.172636	-0.787027	9.423053	-0.006248	0.002977	0.001086	0.313477	0.254395	-0.133789	-4.742375	17.651112	25.088384
44161		-3.172733	-0.787704	9.422964	-0.009138	-0.001177	0.001941	0.320068	0.259521	-0.135498	-4.745605	17.650801	25.087082
44162		-3.165955	-0.766618	9.431628	-0.008034	-0.000638	0.004145	0.310547	0.262207	-0.138184	-4.747578	17.654101	25.087126
44163		-3.175747	-0.797182	9.445699	-0.006869	-0.001250	0.000444	0.309814	0.255371	-0.138184	-4.749778	17.653677	25.084932
44164		-3.175684	-0.797837	9.445665	-0.007910	-0.000317	0.002283	0.308350	0.249512	-0.136719	-4.752026	17.657062	25.083841
44165		-3.149207	-0.797725	9.423403	-0.006993	-0.001571	0.002305	0.322021	0.262451	-0.138672	-4.753954	17.656543	25.082778
44166		-3.172388	-0.790934	9.422809	-0.008034	-0.000638	0.004145	0.309082	0.257080	-0.142578	-4.755936	17.659825	25.082818
44167		-3.198782	-0.792352	9.444990	-0.007786	0.000005	0.000421	0.314697	0.260254	-0.144287	-4.758686	17.660116	25.080546
44168		-3.172331	-0.792367	9.422708	-0.009138	-0.001176	0.001939	0.315430	0.256348	-0.136475	-4.761697	17.662980	25.079293
44169		-3.175543	-0.801095	9.445436	-0.006744	0.001693	0.008532	0.311279	0.264648	-0.140381	-4.762401	17.664621	25.081799
44170		-3.172940	-0.798988	9.368240	-0.007786	0.000005	0.000420	0.315918	0.256836	-0.134277	-4.764940	17.668082	25.079569
44171		-3.175773	-0.802124	9.445271	-0.004351	0.001940	0.005174	0.304199	0.262207	-0.140869	-4.764887	17.669704	25.080050
44172		-3.176057	-0.802414	9.445151	-0.005269	0.003195	0.005152	0.307861	0.249756	-0.140869	-4.765176	17.675205	25.080490
44173		-3.162799	-0.759168	9.462499	-0.004538	0.000148	0.002991	0.311523	0.258789	-0.145996	-4.765600	17.675700	25.079752
44174		-3.180038	-0.816849	9.413429	-0.007289	0.003912	0.002924	0.316406	0.259033	-0.135010	-4.767463	17.681494	25.078828
44175		-3.169871	-0.781774	9.453595	-0.003994	-0.002071	0.008597	0.310303	0.259277	-0.149414	-4.766522	17.680989	25.081560
44176		-3.176688	-0.803976	9.444806	-0.008517	0.003053	0.002579	0.313232	0.253174	-0.146729	-4.769145	17.686270	25.080476
44177		-3.190147	-0.767256	9.430092	-0.007118	-0.001891	0.004163	0.308594	0.256836	-0.141113	-4.770803	17.685656	25.080542
44178		-3.170464	-0.788748	9.399099	-0.005579	0.001081	0.004829	0.310059	0.250000	-0.136963	-4.771306	17.689911	25.080898
44179		-3.163882	-0.767359	9.407744	-0.005455	0.001403	0.002968	0.308838	0.254639	-0.144775	-4.772279	17.691122	25.080083
44180		-3.177090	-0.805989	9.444499	-0.007600	0.001799	0.002601	0.315674	0.259521	-0.138672	-4.774357	17.695673	25.079066
44181		-3.197390	-0.791075	9.421020	-0.007476	0.002121	0.000739	0.310547	0.261230	-0.146973	-4.776905	17.697187	25.076879
44182		-3.167577	-0.777230	9.430214	-0.005580	0.001081	0.004828	0.314209	0.253418	-0.140381	-4.777415	17.701429	25.077241
44183		-3.174498	-0.799646	9.421363	-0.009621	0.002517	0.000372	0.310791	0.260010	-0.145264	-4.781265	17.703152	25.074815
44184		-3.177692	-0.808446	9.444087	-0.004850	-0.001965	0.002667	0.309814	0.255127	-0.135742	-4.781706	17.705543	25.074024
44185		-3.191106	-0.771502	9.429421	-0.006497	0.002336	0.004806	0.310547	0.258057	-0.145020	-4.782955	17.707374	25.074264
44186		-3.174740	-0.801416	9.421131	-0.009807	0.000726	-0.001812	0.311523	0.258789	-0.138428	-4.787098	17.711080	25.070650
44187		-3.174636	-0.802132	9.421106	-0.006202	-0.003146	0.004182	0.308838	0.254150	-0.137207	-4.788208	17.709751	25.070791
44188		-3.174540	-0.802631	9.421095	-0.006683	0.000544	0.002622	0.303711	0.253418	-0.137695	-4.789756	17.713558	25.069843
44189		-3.197825	-0.795825	9.420473	-0.007912	-0.000314	0.002277	0.306885	0.259033	-0.139648	-4.792236	17.713755	25.068699
44190		-3.151340	-0.811244	9.421535	-0.006808	0.000222	0.004482	0.310791	0.253662	-0.141113	-4.793515	17.717461	25.068882
44191		-3.174758	-0.804571	9.420857	-0.009372	0.003163	-0.003351	0.312256	0.257813	-0.136963	-4.797913	17.719374	25.064191
44192		-3.178086	-0.813519	9.443519	-0.006684	0.000544	0.002621	0.315430	0.261475	-0.140869	-4.799472	17.723165	25.063249
44193		-3.168285	-0.784279	9.429393	-0.011222	0.000693	0.005608	0.314209	0.261475	-0.138428	-4.803257	17.724096	25.064051
44194		-3.171846	-0.798578	9.397802	-0.007120	-0.001891	0.004158	0.310303	0.257080	-0.142090	-4.804753	17.726561	25.064167
44195		-3.174834	-0.807470	9.420583	-0.010493	-0.002353	0.003445	0.314453	0.261963	-0.136230	-4.808469	17.725649	25.063827
44196		-3.171169	-0.794770	9.452076	-0.010057	0.000083	0.001907	0.309814	0.250732	-0.143555	-4.812093	17.729124	25.062470
44197		-3.174723	-0.809279	9.420465	-0.011410	-0.001098	0.003422	0.311035	0.259033	-0.140137	-4.816357	17.728928	25.062053
44198		-3.164700	-0.780325	9.406403	-0.012762	-0.002279	0.004937	0.299805	0.256836	-0.145752	-4.820943	17.731188	25.062623
44199		-3.171023	-0.797553	9.451890	-0.007600	0.001800	0.002597	0.311035	0.261230	-0.146484	-4.823219	17.732607	25.061564
44200		-3.174555	-0.811921	9.420294	-0.011846	-0.003534	0.004958	0.310303	0.269531	-0.135742	-4.827260	17.734141	25.062224
44201		-3.151095	-0.820178	9.420844	-0.009389	-0.001817	0.005648	0.313232	0.259033	-0.134766	-4.829949	17.733642	25.063178
44202		-3.150928	-0.820948	9.420832	-0.010618	-0.002675	0.005302	0.314453	0.260986	-0.132568	-4.833246	17.735675	25.063995
44203		-3.173920	-0.814393	9.420295	-0.011971	-0.003856	0.006816	0.317383	0.260742	-0.137207	-4.837169	17.734068	25.065752
44204		-3.196794	-0.807748	9.419808	-0.008785	-0.005186	0.005344	0.316650	0.257324	-0.143555	-4.839374	17.734659	25.066721
44205		-3.156700	-0.845006	9.412182	-0.008473	-0.003072	0.005668	0.307373	0.267334	-0.137451	-4.841515	17.733444	25.067750
44206		-3.139942	-0.793756	9.406954	-0.004539	0.000148	0.002985	0.312256	0.261475	-0.132813	-4.841807	17.736955	25.067047
44207		-3.173094	-0.816688	9.420374	-0.005767	-0.000710	0.002639	0.314209	0.259033	-0.143311	-4.842987	17.736943	25.066141
44208		-3.169385	-0.803474	9.451938	-0.002581	-0.002039	0.001168	0.316895	0.268066	-0.143066	-4.842460	17.739107	25.064439
44209		-3.176032	-0.825347	9.443183	-0.002643	-0.000897	0.007073	0.309570	0.261230	-0.142822	-4.841037	17.739202	25.066200
44210		-3.193098	-0.801778	9.397024	-0.006247	0.002983	0.001082	0.316895	0.263184	-0.135498	-4.842709	17.744217	25.064239
44211		-3.170073	-0.809699	9.397449	-0.005455	0.001404	0.002964	0.310059	0.249512	-0.139893	-4.843684	17.745426	25.063420
44212		-3.179637	-0.834694	9.465707	-0.004663	-0.000175	0.004845	0.312256	0.256836	-0.140869	-4.843714	17.748817	25.063785
44213		-3.163395	-0.788668	9.406146	-0.005768	-0.000709	0.002638	0.318115	0.257813	-0.143555	-4.844895	17.748804	25.062878
44214		-3.173458	-0.819034	9.420048	-0.005268	0.003193	0.005148	0.309326	0.262939	-0.134277	-4.845271	17.754121	25.063313
44215		-3.166766	-0.797804	9.428769	-0.008225	-0.002424	0.001945	0.313965	0.255615	-0.136963	-4.847960	17.753097	25.062078
44216		-3.173413	-0.820009	9.419978	-0.004913	-0.000823	0.008564	0.304932	0.253662	-0.141113	-4.847456	17.756274	25.064707
44217		-3.170354	-0.811983	9.397157	-0.004476	0.001614	0.007029	0.302979	0.258789	-0.141113	-4.847130	17.757801	25.066314
44218		-3.190232	-0.791280	9.428077	-0.004102	0.002586	0.001449	0.315918	0.252441	-0.135742	-4.847515	17.762566	25.064514
44219		-3.147521	-0.819945	9.397513	-0.003435	0.000682	0.005190	0.314209	0.264648	-0.137207	-4.846914	17.763471	25.065066
44220		-3.197221	-0.813392	9.419177	-0.002519	-0.000574	0.005211	0.314941	0.266602	-0.131348	-4.845663	17.766615	25.065724
44221		-3.164148	-0.790943	9.405702	-0.002082	0.001863	0.003677	0.313477	0.264404	-0.138184	-4.844582	17.768122	25.065309
44222		-3.163807	-0.785777	9.459989	-0.004913	-0.000823	0.008562	0.307129	0.256104	-0.139404	-4.844091	17.771275	25.068000
44223		-3.177477	-0.829344	9.442347	-0.000853	0.002720	0.004023	0.317383	0.254639	-0.136230	-4.842256	17.773288	25.067749
44224		-3.170952	-0.807590	9.451062	-0.002206	0.001539	0.005536	0.307861	0.261475	-0.136719	-4.840798	17.777630	25.068458
44225		-3.174685	-0.821402	9.419429	-0.006684	0.000548	0.002615	0.315430	0.262207	-0.136963	-4.842528	17.778334	25.067473
44226		-3.171660	-0.813549	9.396581	-0.004476	0.001614	0.007027	0.309326	0.256104	-0.138916	-4.842109	17.782779	25.069106
44227		-3.171877	-0.813770	9.396489	-0.004351	0.001938	0.005168	0.310059	0.258545	-0.141113	-4.842056	17.784400	25.069581
44228		-3.167963	-0.795231	9.482323	-0.004664	-0.000175	0.004842	0.308594	0.258789	-0.140625	-4.842117	17.787708	25.069975
44229		-3.175344	-0.822548	9.419106	-0.005392	0.002870	0.007005	0.311279	0.258057	-0.142578	-4.842339	17.789950	25.071504
44230		-3.168646	-0.801112	9.427857	-0.004977	-0.002287	0.004516	0.305664	0.259521	-0.135986	-4.842609	17.792023	25.071834
44231		-3.175415	-0.823250	9.419021	-0.005330	0.001730	0.001102	0.317627	0.262695	-0.144287	-4.843859	17.793329	25.069882
44232		-3.185615	-0.777833	9.381711	-0.002644	-0.000898	0.007069	0.311523	0.266846	-0.137939	-4.842355	17.796311	25.071687
44233		-3.168855	-0.802129	9.427700	-0.008516	0.003061	0.002571	0.312500	0.257324	-0.138184	-4.845182	17.798448	25.070548
44234		-3.142568	-0.801923	9.405384	-0.005894	-0.001031	0.004494	0.305664	0.260254	-0.143799	-4.846011	17.801222	25.070799
44235		-3.155678	-0.840565	9.442069	-0.006934	-0.000099	0.006331	0.308838	0.254150	-0.141113	-4.847194	17.801737	25.072075
44236		-3.168984	-0.803392	9.427549	-0.002520	-0.000574	0.005209	0.314697	0.255615	-0.135498	-4.845962	17.804784	25.072691
44237		-3.182607	-0.847087	9.409888	-0.005580	0.001082	0.004819	0.320557	0.259277	-0.135742	-4.846665	17.805900	25.073000
44238		-3.202478	-0.826416	9.440817	-0.002872	0.003444	0.001795	0.317871	0.249512	-0.140137	-4.846339	17.811081	25.071385
44239		-3.192631	-0.796600	9.426817	-0.003999	-0.002080	0.008579	0.312256	0.260742	-0.138916	-4.845397	17.810574	25.074110
44240		-3.169441	-0.804184	9.427328	-0.001956	0.002188	0.001817	0.310547	0.262939	-0.133545	-4.844520	17.815026	25.072571
44241		-3.166516	-0.796321	9.404451	-0.008766	0.002414	0.006288	0.310547	0.266357	-0.146484	-4.846799	17.816973	25.073693
44242		-3.172956	-0.813215	9.449907	-0.003749	-0.001430	0.004860	0.306152	0.267090	-0.142090	-4.846344	17.819489	25.074214
44243		-3.206610	-0.841252	9.408945	-0.005580	0.001082	0.004818	0.310303	0.258057	-0.130371	-4.847047	17.820605	25.074522
44244		-3.176672	-0.827321	9.418241	-0.004665	-0.000174	0.004839	0.314941	0.264893	-0.132080	-4.847146	17.823829	25.074886
44245		-3.176729	-0.827520	9.418204	-0.003561	0.000357	0.007045	0.309082	0.260010	-0.144775	-4.846271	17.824639	25.076567
44246		-3.176679	-0.827715	9.418204	-0.005104	-0.002611	0.006371	0.318359	0.254639	-0.137695	-4.846307	17.826540	25.078022
44247		-3.193274	-0.798663	9.426425	-0.002933	0.004583	0.007697	0.314941	0.261230	-0.128418	-4.845018	17.829793	25.079879
44248		-3.193631	-0.798742	9.426297	-0.001956	0.002188	0.001816	0.303467	0.262207	-0.141113	-4.844165	17.834209	25.078309
44249		-3.170503	-0.806380	9.426783	-0.004916	-0.000823	0.008555	0.308594	0.257080	-0.139893	-4.843770	17.834418	25.080956
44250		-3.193436	-0.794017	9.480512	-0.006371	0.002665	0.002937	0.312256	0.262695	-0.140137	-4.845245	17.839139	25.080052
44251		-3.170835	-0.807087	9.426611	-0.003311	0.001007	0.003327	0.313965	0.257813	-0.143555	-4.844920	17.840140	25.079470
44252		-3.170873	-0.807421	9.426570	-0.005770	-0.000704	0.002631	0.311279	0.253174	-0.128906	-4.846057	17.842919	25.078607
44253		-3.180846	-0.837793	9.440467	-0.004540	0.000151	0.002979	0.314941	0.266602	-0.135986	-4.846487	17.843415	25.077860
44254		-3.170950	-0.808088	9.426487	-0.003311	0.001007	0.003327	0.312744	0.267090	-0.134766	-4.846123	17.847194	25.077244
44255		-3.197844	-0.814490	9.394317	-0.008040	-0.000628	0.004120	0.305420	0.256836	-0.148193	-4.848336	17.847300	25.077221
44256		-3.154035	-0.832999	9.472467	-0.004855	-0.001961	0.002652	0.315674	0.257324	-0.140381	-4.848934	17.849338	25.076417
44257		-3.190950	-0.793419	9.403124	-0.002457	0.000888	0.009249	0.308594	0.261475	-0.144043	-4.847030	17.850557	25.079393
44258		-3.191064	-0.793659	9.403065	-0.006685	0.000553	0.002610	0.316650	0.258789	-0.144043	-4.848726	17.854019	25.078428
44259		-3.178008	-0.831458	9.417426	-0.003122	0.002795	0.005511	0.311035	0.256592	-0.141602	-4.847918	17.856146	25.079065
44260		-3.144533	-0.803992	9.458301	-0.004540	0.000152	0.002978	0.305908	0.263184	-0.138428	-4.848315	17.859389	25.078336
44261		-3.204635	-0.832783	9.439525	-0.004540	0.000152	0.002978	0.316895	0.246826	-0.143799	-4.848745	17.859885	25.077588
44262		-3.164672	-0.789019	9.434919	-0.006685	0.000553	0.002609	0.306396	0.260254	-0.144531	-4.850449	17.863325	25.076572
44263		-3.194693	-0.803618	9.425523	-0.003751	-0.001430	0.004857	0.315186	0.261719	-0.134277	-4.850057	17.863008	25.077031
44264		-3.168267	-0.803223	9.403274	-0.006685	0.000553	0.002609	0.308594	0.260254	-0.137207	-4.851764	17.866437	25.076046
44265		-3.234804	-0.848869	9.429944	-0.008704	0.001280	0.000381	0.312744	0.262207	-0.138184	-4.855076	17.867451	25.073683
44266		-3.144667	-0.806751	9.458021	-0.005106	-0.002611	0.006366	0.310791	0.262207	-0.143311	-4.855144	17.869250	25.075101
44267		-3.191539	-0.797294	9.402596	-0.005455	0.001409	0.002956	0.313721	0.260986	-0.140137	-4.856122	17.870462	25.074276
44268		-3.175174	-0.826944	9.394225	-0.005770	-0.000703	0.002629	0.310059	0.260986	-0.138184	-4.857287	17.873156	25.073396
44269		-3.167896	-0.800596	9.457378	-0.008040	-0.000627	0.004117	0.316650	0.261230	-0.141602	-4.859501	17.873263	25.073371
44270		-3.178234	-0.836313	9.416919	-0.007251	-0.002210	0.005995	0.302002	0.263428	-0.139648	-4.860874	17.875249	25.074569
44271		-3.187868	-0.786037	9.434023	-0.009870	0.001887	0.004075	0.313477	0.259277	-0.139648	-4.864184	17.876789	25.074391
44272		-3.151788	-0.836900	9.394588	-0.007315	-0.003670	0.001951	0.309326	0.261719	-0.134766	-4.866317	17.877729	25.073193
44273		-3.194366	-0.808997	9.425173	-0.007377	-0.002536	0.007852	0.303711	0.261230	-0.137695	-4.867433	17.876927	25.075505
44274		-3.167759	-0.808803	9.402967	-0.008230	-0.002413	0.001930	0.304199	0.256348	-0.140381	-4.870121	17.878574	25.074188
44275		-3.173895	-0.825942	9.448488	-0.006211	-0.003141	0.004157	0.307861	0.256104	-0.139893	-4.871240	17.877247	25.074315
44276		-3.190563	-0.802483	9.402486	-0.009271	-0.001481	0.003767	0.310791	0.261719	-0.138916	-4.874196	17.879501	25.074052
44277		-3.170449	-0.818936	9.425719	-0.008166	-0.000953	0.005972	0.310547	0.261719	-0.136963	-4.876136	17.879512	25.075157
44278		-3.193514	-0.812163	9.425190	-0.009335	-0.002941	-0.000277	0.312256	0.265381	-0.145020	-4.879860	17.880734	25.072628
44279		-3.173104	-0.828707	9.448511	-0.008922	-0.005503	0.007172	0.311035	0.260498	-0.132568	-4.881940	17.878205	25.074685
44280		-3.170077	-0.826209	9.371460	-0.009396	-0.001807	0.005622	0.311768	0.267334	-0.135498	-4.884634	17.880351	25.075668
44281		-3.195793	-0.822481	9.448064	-0.007567	-0.004322	0.005663	0.312256	0.260254	-0.135254	-4.886234	17.878424	25.076759
44282		-3.192120	-0.814855	9.425430	-0.008862	-0.006635	0.001270	0.304443	0.258545	-0.141113	-4.889355	17.877593	25.075339
44283		-3.184774	-0.793907	9.434409	-0.008672	-0.004850	0.003456	0.318115	0.258301	-0.140137	-4.891986	17.875257	25.075134
44284		-3.164715	-0.815572	9.403407	-0.010027	-0.006031	0.004963	0.314697	0.263916	-0.135498	-4.895092	17.874940	25.075896
44285		-3.170574	-0.832781	9.449002	-0.006652	-0.005579	0.005681	0.313965	0.263672	-0.142090	-4.896145	17.872296	25.077064
44286		-3.167349	-0.830118	9.372037	-0.007758	-0.006107	0.003474	0.313477	0.256836	-0.137207	-4.898236	17.871856	25.077016
44287		-3.189615	-0.818166	9.425991	-0.008672	-0.004849	0.003454	0.312744	0.253662	-0.142334	-4.900867	17.869519	25.076811
44288		-3.159705	-0.809408	9.381099	-0.000566	-0.002765	0.003384	0.304199	0.260742	-0.143311	-4.898899	17.870971	25.076401
44289		-3.188987	-0.818732	9.426154	-0.007567	-0.004321	0.005660	0.307617	0.264893	-0.131348	-4.900499	17.869044	25.077492
44290		-3.172211	-0.848287	9.417879	-0.003152	-0.004801	0.004541	0.314209	0.254639	-0.140381	-4.899780	17.869369	25.077867
44291		-3.141682	-0.834225	9.427402	-0.002238	-0.006058	0.004561	0.313721	0.262207	-0.139648	-4.898502	17.866397	25.078387
44292		-3.177906	-0.789324	9.412603	-0.003309	0.001007	0.003325	0.308105	0.262451	-0.143311	-4.898188	17.869978	25.077828
44293		-3.191099	-0.827742	9.449191	-0.001481	-0.001508	0.003364	0.311279	0.251953	-0.135742	-4.896768	17.869544	25.077396
44294		-3.171499	-0.848775	9.418075	-0.002145	0.000403	-0.000369	0.305908	0.263672	-0.137451	-4.896455	17.872584	25.074561
44295		-3.180838	-0.798248	9.435371	-0.006403	-0.004924	0.001965	0.309570	0.269287	-0.143311	-4.898060	17.870132	25.073466
44296		-3.187345	-0.820265	9.426576	-0.002836	-0.002689	0.004870	0.305420	0.258789	-0.146973	-4.897144	17.871649	25.074074
44297		-3.164113	-0.827862	9.427068	-0.002204	0.001534	0.005531	0.312256	0.263672	-0.143066	-4.895788	17.873058	25.074786
44298		-3.187381	-0.820452	9.426548	-0.003751	-0.001432	0.004851	0.309082	0.264404	-0.130859	-4.895411	17.875283	25.075309
44299		-3.210464	-0.813187	9.426078	-0.004981	-0.002285	0.004501	0.316162	0.261230	-0.134277	-4.895776	17.874462	25.075599
44300		-3.153886	-0.798617	9.413218	-0.005895	-0.001028	0.004481	0.319092	0.262695	-0.138916	-4.896718	17.876902	25.075737
44301		-3.167064	-0.837273	9.449782	-0.004665	-0.000174	0.004831	0.310059	0.255859	-0.135010	-4.896874	17.877302	25.076117
44302		-3.183302	-0.808382	9.458192	-0.006462	-0.003793	0.007863	0.316650	0.257324	-0.141602	-4.897467	17.878317	25.078482
44303		-3.179863	-0.800525	9.435507	-0.005962	-0.002484	0.000438	0.311523	0.261475	-0.144287	-4.899138	17.877183	25.076345
44304		-3.167153	-0.843485	9.395461	-0.004473	0.001610	0.007017	0.314453	0.262451	-0.142090	-4.898827	17.881227	25.078010
44305		-3.176716	-0.793037	9.412693	-0.009396	-0.001804	0.005617	0.311523	0.260742	-0.142578	-4.901523	17.880735	25.078946
44306		-3.193452	-0.845316	9.417645	-0.007252	-0.002208	0.005986	0.308350	0.266113	-0.140625	-4.902938	17.882537	25.080182
44307		-3.183206	-0.815766	9.403836	-0.006338	-0.003466	0.006005	0.310303	0.266602	-0.145752	-4.903784	17.881115	25.081436
44308		-3.159780	-0.823776	9.404351	-0.007127	-0.001881	0.004130	0.310791	0.266602	-0.146240	-4.905483	17.883002	25.081567
44309		-3.182752	-0.816796	9.403900	-0.007444	-0.003992	0.003798	0.309326	0.260498	-0.142578	-4.907361	17.881171	25.081524
44310		-3.181903	-0.812343	9.458323	-0.007444	-0.003992	0.003798	0.308350	0.257568	-0.140381	-4.909266	17.881828	25.081537
44311		-3.155259	-0.812340	9.436092	-0.010253	-0.001674	-0.000302	0.311768	0.258057	-0.143799	-4.913545	17.881120	25.078915
44312		-3.168796	-0.856322	9.418302	-0.005107	-0.002613	0.006354	0.316162	0.266113	-0.145996	-4.913659	17.882678	25.080252
44313		-3.151763	-0.805184	9.413369	-0.009147	-0.001148	0.001903	0.311523	0.257568	-0.139160	-4.916907	17.882378	25.078926
44314		-3.161803	-0.835668	9.427154	-0.003434	0.000679	0.005179	0.312988	0.265381	-0.141113	-4.916339	17.885752	25.079524
44315		-3.185091	-0.828371	9.426629	-0.004540	0.000154	0.002973	0.303467	0.260254	-0.142578	-4.916771	17.886248	25.078772
44316		-3.151830	-0.806285	9.413253	-0.005896	-0.001027	0.004478	0.311279	0.259277	-0.149170	-4.917721	17.888594	25.078950
44317		-3.165494	-0.850043	9.395430	-0.005896	-0.001027	0.004478	0.306885	0.255615	-0.143066	-4.918633	17.888489	25.079162
44318		-3.181207	-0.816165	9.458228	-0.005107	-0.002613	0.006352	0.310547	0.272217	-0.135742	-4.918754	17.890011	25.080549
44319		-3.194909	-0.859833	9.440397	-0.005578	0.001084	0.004809	0.311768	0.266602	-0.139648	-4.919457	17.891129	25.080851
44320		-3.151697	-0.807704	9.413176	-0.004665	-0.000174	0.004828	0.309326	0.262451	-0.137695	-4.919670	17.893965	25.081272
44321		-3.184748	-0.830354	9.426571	-0.003280	-0.005129	0.006389	0.315186	0.263184	-0.139160	-4.918667	17.891612	25.082842
44322		-3.180751	-0.817239	9.458289	-0.004982	-0.002285	0.004496	0.312256	0.265381	-0.143311	-4.919081	17.893218	25.083087
44323		-3.181048	-0.822623	9.403969	-0.006214	-0.003137	0.004145	0.313232	0.273438	-0.143555	-4.920203	17.891892	25.083208
44324		-3.164489	-0.852233	9.395570	-0.004982	-0.002285	0.004495	0.316162	0.259766	-0.143311	-4.920620	17.893488	25.083640
44325		-3.180130	-0.818351	9.458402	-0.004982	-0.002285	0.004495	0.309814	0.254395	-0.146484	-4.920986	17.892666	25.083927
44326		-3.187347	-0.845328	9.395160	-0.004983	-0.002285	0.004495	0.312744	0.266113	-0.148438	-4.921392	17.894251	25.084170
44327		-3.180161	-0.824096	9.404140	-0.006407	-0.004920	0.001956	0.313965	0.265625	-0.140137	-4.923001	17.891800	25.083071
44328		-3.182990	-0.832718	9.426956	-0.003087	-0.003347	0.008574	0.311279	0.266602	-0.137451	-4.921568	17.892973	25.085940
44329		-3.149507	-0.810301	9.413685	-0.000318	-0.002111	-0.000332	0.309326	0.268066	-0.144043	-4.920154	17.892013	25.083322
44330		-3.209113	-0.833713	9.449283	-0.005703	0.000757	0.006664	0.309082	0.260254	-0.139160	-4.920641	17.895419	25.084742
44331		-3.175783	-0.811658	9.435930	-0.006214	-0.003137	0.004143	0.307373	0.260254	-0.147461	-4.921764	17.894094	25.084863
44332		-3.182401	-0.833774	9.427061	-0.006214	-0.003137	0.004143	0.312744	0.257324	-0.146729	-4.922938	17.895144	25.084884
44333		-3.172111	-0.804351	9.413286	-0.008234	-0.002402	0.001919	0.310303	0.255127	-0.133545	-4.925640	17.894129	25.083632
44334		-3.185219	-0.843319	9.449797	-0.005646	-0.000369	0.000765	0.311279	0.261230	-0.145264	-4.927156	17.896589	25.081439
44335		-3.144912	-0.799652	9.445394	-0.006464	-0.003794	0.007852	0.312988	0.260010	-0.149902	-4.927728	17.895072	25.083818
44336		-3.178403	-0.827546	9.404432	-0.007321	-0.003660	0.001936	0.315918	0.263428	-0.139404	-4.929936	17.895698	25.082698
44337		-3.158122	-0.843966	9.427649	-0.004858	-0.001956	0.002638	0.313477	0.256104	-0.135742	-4.930578	17.894973	25.081854
44338		-3.181050	-0.836988	9.427233	-0.008428	-0.004183	-0.000270	0.312012	0.264648	-0.147949	-4.933830	17.895186	25.079292
44339		-3.147313	-0.815196	9.413996	-0.005370	-0.005848	0.000116	0.316162	0.260498	-0.144043	-4.935169	17.892115	25.077137
44340		-3.199518	-0.817338	9.458662	-0.007764	-0.006099	0.003456	0.314209	0.263184	-0.142334	-4.937320	17.891405	25.077079
44341		-3.176330	-0.830513	9.404870	-0.007515	-0.005442	-0.000253	0.310791	0.258545	-0.138428	-4.939962	17.888547	25.074682
44342		-3.178882	-0.839609	9.427731	-0.007834	-0.007552	-0.000587	0.302246	0.255127	-0.145508	-4.942879	17.886799	25.072126
44343		-3.171861	-0.823530	9.382471	-0.006851	-0.007358	0.003473	0.313477	0.260986	-0.139648	-4.944423	17.883031	25.072064
44344		-3.167439	-0.810862	9.414300	-0.007959	-0.007881	0.001267	0.311768	0.256836	-0.143799	-4.947061	17.881173	25.070577
44345		-3.153579	-0.849288	9.428692	-0.009979	-0.007145	-0.000958	0.303711	0.268555	-0.141846	-4.951217	17.877308	25.067847
44346		-3.172893	-0.834061	9.405716	-0.005938	-0.008616	0.003489	0.311279	0.264160	-0.137451	-4.952283	17.875129	25.067818
44347		-3.152175	-0.850511	9.429051	-0.007889	-0.006429	0.005309	0.304443	0.257080	-0.139893	-4.954099	17.871983	25.068809
44348		-3.151663	-0.851048	9.429174	-0.006533	-0.005247	0.003805	0.314941	0.261230	-0.140869	-4.955506	17.871734	25.068694
44349		-3.164201	-0.813952	9.415122	-0.005814	-0.008287	0.001633	0.312500	0.257568	-0.135010	-4.956780	17.867346	25.067578
44350		-3.170533	-0.836054	9.406335	-0.005176	-0.004066	0.002302	0.313232	0.258545	-0.145996	-4.957708	17.867695	25.066561
44351		-3.149933	-0.852263	9.429642	-0.002561	-0.008171	0.004207	0.310303	0.260986	-0.146484	-4.956646	17.863500	25.066982
44352		-3.188862	-0.815577	9.437908	-0.003279	-0.005132	0.006379	0.302246	0.267334	-0.143066	-4.955716	17.863428	25.068603
44353		-3.122446	-0.851594	9.407720	-0.001454	-0.007649	0.006412	0.305664	0.261230	-0.134521	-4.953622	17.859640	25.070320
44354		-3.161469	-0.814824	9.415965	-0.001675	-0.003291	0.001168	0.310303	0.256348	-0.141846	-4.952774	17.860340	25.068532
44355		-3.144929	-0.843970	9.407539	0.000417	-0.002577	0.007434	0.309570	0.260498	-0.132813	-4.949501	17.859497	25.070597
44356		-3.184116	-0.807001	9.415749	-0.001011	-0.005209	0.004893	0.313965	0.260742	-0.138184	-4.947553	17.859287	25.071117
44357		-3.151223	-0.865328	9.398831	0.000665	-0.001918	0.003725	0.314209	0.258301	-0.147705	-4.944831	17.858638	25.070924
44358		-3.160285	-0.814211	9.416415	0.001011	-0.005945	0.007115	0.305908	0.250977	-0.143311	-4.941305	17.858114	25.073017
44359		-3.166754	-0.835577	9.407651	0.000098	-0.004687	0.007098	0.314453	0.255127	-0.143555	-4.938244	17.856050	25.074990
44360		-3.165687	-0.830322	9.462202	0.003279	-0.006023	0.005628	0.321533	0.258057	-0.149658	-4.933683	17.855394	25.076031
44361		-3.145755	-0.850819	9.431167	0.001258	-0.005286	0.003406	0.308594	0.260986	-0.135498	-4.930626	17.852805	25.075820
44362		-3.168495	-0.842789	9.430943	0.004388	-0.005501	0.007833	0.311523	0.259521	-0.139404	-4.925047	17.852551	25.078325
44363		-3.161809	-0.825427	9.385696	0.003475	-0.004242	0.007816	0.306885	0.260986	-0.139160	-4.919926	17.850775	25.080705
44364		-3.160746	-0.819973	9.440259	0.003155	-0.006352	0.007481	0.306641	0.264648	-0.136230	-4.915109	17.850001	25.082898
44365		-3.160882	-0.824278	9.386110	0.004388	-0.005501	0.007832	0.311279	0.258301	-0.141602	-4.909443	17.847507	25.085352
44366		-3.133442	-0.817916	9.418387	0.004264	-0.005830	0.009685	0.308838	0.261230	-0.138916	-4.903596	17.847130	25.088859
44367		-3.136955	-0.830385	9.386899	0.007297	-0.001359	0.007014	0.310547	0.257568	-0.146729	-4.896479	17.846960	25.090610
44368		-3.162529	-0.825291	9.463698	0.008209	-0.002618	0.007030	0.309814	0.259277	-0.137207	-4.888907	17.848275	25.092413
44369		-3.136681	-0.828143	9.387189	0.012448	-0.002310	0.013660	0.312012	0.258301	-0.138672	-4.877602	17.847886	25.098198
44370		-3.155968	-0.805853	9.418582	0.009194	-0.002424	0.011087	0.310547	0.258545	-0.145264	-4.868729	17.849501	25.102339
44371		-3.135922	-0.820516	9.441829	0.010747	0.000537	0.011771	0.319336	0.261719	-0.145508	-4.858790	17.850643	25.106845
44372		-3.159254	-0.811440	9.441495	0.013015	0.000458	0.010284	0.306885	0.261719	-0.145508	-4.847916	17.853856	25.110587
44373		-3.136817	-0.822393	9.387649	0.012768	-0.000199	0.013990	0.310059	0.248779	-0.143066	-4.836399	17.854685	25.116462
44374		-3.140054	-0.829079	9.410490	0.012644	-0.000527	0.015842	0.307861	0.258301	-0.149658	-4.824696	17.857582	25.123369
44375		-3.163578	-0.819693	9.410116	0.014642	0.004873	0.015005	0.304443	0.269287	-0.144287	-4.811996	17.861352	25.129597
44376		-3.164183	-0.817670	9.410089	0.018020	0.005316	0.015720	0.309814	0.252930	-0.140381	-4.797336	17.867563	25.136307
44377		-3.167942	-0.823681	9.432817	0.020040	0.004580	0.017937	0.309082	0.265381	-0.139893	-4.780998	17.871304	25.144311
44378		-3.138261	-0.807482	9.442175	0.014072	0.002110	0.018372	0.312012	0.262207	-0.145264	-4.768065	17.875807	25.152597
44379		-3.161997	-0.797902	9.441731	0.014715	0.006331	0.019035	0.315430	0.264893	-0.133545	-4.754601	17.880595	25.161175
44380		-3.159500	-0.787717	9.418932	0.012248	0.004630	0.018334	0.310791	0.255615	-0.141357	-4.742763	17.886527	25.169450
44381		-3.186330	-0.786741	9.441210	0.009533	0.002275	0.021339	0.311523	0.251465	-0.137207	-4.731779	17.889106	25.179615
44382		-3.156373	-0.771313	9.450584	0.006744	-0.001535	0.020306	0.305908	0.263184	-0.143066	-4.722623	17.891595	25.189161
44383		-3.193764	-0.805804	9.432383	0.005618	0.004075	0.015046	0.304932	0.260742	-0.137695	-4.715068	17.894901	25.195461
44384		-3.160210	-0.777341	9.473284	0.006030	0.001509	0.022471	0.314453	0.257813	-0.138672	-4.705974	17.899212	25.206253
44385		-3.148381	-0.818743	9.433130	0.007174	0.007036	0.015724	0.313965	0.257813	-0.141602	-4.697446	17.904239	25.212816
44386		-3.162008	-0.779889	9.418742	0.007512	0.003013	0.019112	0.321777	0.250977	-0.141113	-4.688142	17.909249	25.221586
44387		-3.168758	-0.795253	9.464187	0.006278	0.002164	0.018762	0.315430	0.251221	-0.147461	-4.679492	17.911635	25.230213
44388		-3.162757	-0.777480	9.418689	0.006403	0.002490	0.016909	0.310059	0.253174	-0.143066	-4.671211	17.916236	25.237725
44389		-3.186303	-0.768689	9.418215	0.006527	0.002817	0.015056	0.317139	0.262207	-0.142822	-4.663111	17.918819	25.244097
44390		-3.133232	-0.761314	9.427975	0.006078	0.000381	0.016575	0.314453	0.253906	-0.135498	-4.655052	17.922182	25.251513
44391		-3.200099	-0.804859	9.454840	0.005220	0.000509	0.010670	0.317139	0.260742	-0.143799	-4.648476	17.923242	25.255367
44392		-3.193056	-0.782341	9.463803	0.005680	-0.003187	0.012208	0.306641	0.259766	-0.146240	-4.641401	17.924357	25.260294
44393		-3.182351	-0.751604	9.450177	0.002314	-0.009758	0.014550	0.303467	0.252197	-0.143066	-4.635619	17.919733	25.266977
44394		-3.162225	-0.771785	9.419337	0.005691	-0.009319	0.015263	0.310791	0.259521	-0.134766	-4.627873	17.917462	25.273941
44395		-3.171509	-0.800671	9.433600	0.006276	-0.012690	0.014948	0.312500	0.255615	-0.142090	-4.619705	17.911180	25.281003
44396		-3.163348	-0.777927	9.442945	0.007185	-0.013950	0.014964	0.308594	0.253418	-0.146973	-4.611102	17.906253	25.288029
44397		-3.162139	-0.776752	9.443447	0.007060	-0.014275	0.016813	0.310547	0.249268	-0.136963	-4.602119	17.899149	25.296285
44398		-3.184040	-0.767852	9.443538	0.008218	-0.014885	0.013126	0.308838	0.260254	-0.139893	-4.593242	17.893588	25.302192
44399		-3.194479	-0.723743	9.484308	0.011863	-0.026058	0.016247	0.300781	0.259766	-0.139893	-4.581440	17.879726	25.310672
44400		-3.136845	-0.788809	9.468712	0.006916	-0.023323	0.011797	0.314453	0.249268	-0.147217	-4.573441	17.869271	25.316227
44401		-3.193993	-0.734727	9.454356	0.006915	-0.023322	0.011794	0.315674	0.250732	-0.145264	-4.565339	17.856766	25.321898
44402		-3.148502	-0.757645	9.478776	0.003009	-0.027653	0.008567	0.313477	0.261963	-0.148193	-4.560096	17.843695	25.325850
44403		-3.116735	-0.824147	9.485578	-0.001316	-0.031822	0.016775	0.304688	0.253418	-0.144775	-4.555674	17.826561	25.334912
44404		-3.093685	-0.764099	9.458651	-0.008869	-0.027377	0.029283	0.303711	0.253418	-0.143311	-4.553454	17.814567	25.351300
44405		-3.039850	-0.838802	9.465426	-0.016516	-0.014530	0.050500	0.308838	0.256836	-0.152100	-4.551809	17.808842	25.379765
44406		-2.897904	-0.877198	9.444954	-0.031630	0.004227	0.088245	0.304199	0.255615	-0.146973	-4.552273	17.817553	25.429943
44407		-2.815400	-1.083581	9.406947	-0.049448	0.042970	0.164326	0.315430	0.252441	-0.140625	-4.549412	17.849843	25.523959
44408		-2.716845	-1.153069	9.288988	-0.051880	0.086140	0.262916	0.315674	0.251709	-0.142822	-4.530457	17.913207	25.675046
44409		-2.684380	-0.867322	9.237472	-0.027805	0.117889	0.345817	0.312012	0.248291	-0.137939	-4.482479	17.996391	25.874579
44410		-1.685865	1.443302	8.803117	0.065541	0.074942	0.308559	0.319580	0.237793	-0.144043	-4.387194	18.055055	26.053804
44411		-0.507271	3.798929	8.406308	0.094262	-0.202893	0.667591	0.307129	0.236084	-0.137695	-4.204717	17.968072	26.461517
44412		4.353176	-2.851954	13.113001	-0.358862	0.712279	1.157109	0.329102	0.226807	-0.129883	-4.200804	18.425602	27.123397
44413		-1.735300	-2.847223	14.044530	-0.711829	2.673559	1.355462	0.315674	0.215088	-0.108887	-4.377066	20.011535	27.819664
44414		2.327670	0.746030	16.158609	-1.268313	3.367644	1.635364	0.341797	0.201416	-0.077637	-4.802786	22.010918	28.652163
44415		4.824158	-1.304215	16.581554	-1.596482	5.213944	1.628338	0.345947	0.185303	-0.027344	-5.427513	25.069837	29.372529
44416		7.421006	-3.259320	15.403835	-1.378546	6.811928	1.609873	0.357422	0.175781	0.052734	-5.944806	29.044525	29.966235
44417		-9.556582	-7.193313	24.862172	-0.568562	6.598220	1.962532	0.357422	0.150146	0.106689	-5.830816	32.920727	30.815579
44418		-7.408098	-7.424132	32.003756	0.636298	2.186605	1.752452	0.363770	0.125732	0.124512	-4.879400	34.260019	31.872246
44419		3.141920	-4.730151	27.590971	0.734011	0.937896	1.444513	0.364746	0.112305	0.126465	-3.918044	34.859587	32.821311
44420		6.781957	-2.862785	19.422331	0.589542	-0.003495	1.241278	0.364258	0.106689	0.115723	-3.085725	34.897074	33.683281
44421		9.403195	-1.275164	12.159430	0.315722	-0.491337	1.232969	0.374023	0.088135	0.102051	-2.404776	34.650064	34.555827
44422		9.986017	-0.656681	8.830753	-0.071523	-0.560250	1.278436	0.371094	0.070313	0.079834	-1.935084	34.350866	35.455055
44423		8.535477	-1.486361	9.423732	-0.428917	-0.602858	1.297521	0.369873	0.059814	0.064697	-1.667880	34.029380	36.363603
44424		7.030957	-3.200268	10.895123	-0.635006	-0.828601	1.230440	0.358154	0.042969	0.039063	-1.552170	33.566700	37.223794
44425		5.735020	-4.897566	11.146177	-0.630890	-1.178672	1.058881	0.357910	0.036377	0.015137	-1.503570	32.908181	37.967567
44426		5.566216	-5.756372	9.737667	-0.472411	-1.514017	0.804505	0.344971	0.023926	-0.010254	-1.468570	32.043496	38.536190
44427		5.252561	-5.652191	8.343570	-0.334469	-1.690311	0.516504	0.343262	0.026855	-0.035156	-1.462315	31.083307	38.909659
44428		4.435928	-5.255932	7.767458	-0.304953	-1.780197	0.204434	0.332275	0.030518	-0.071777	-1.554847	30.056065	39.072271
44429		3.522185	-4.886996	7.439797	-0.379741	-1.837820	-0.123636	0.314941	0.022461	-0.097412	-1.794060	29.001850	39.023514
44430		2.702794	-4.489326	7.077942	-0.520175	-1.853634	-0.456036	0.307373	0.036865	-0.123535	-2.216898	27.919624	38.764112
44431		1.851213	-4.128147	7.196593	-0.657790	-1.828010	-0.764623	0.291016	0.044189	-0.139404	-2.795658	26.854454	38.320082
44432		0.636892	-3.787600	8.430557	-0.771167	-1.809642	-1.038008	0.278076	0.063965	-0.155518	-3.506598	25.774023	37.716639
44433		-0.594116	-3.263417	10.060579	-0.867560	-1.883145	-1.274451	0.273682	0.064453	-0.166748	-4.310791	24.648086	36.990084
44434		-1.766896	-2.882537	11.026141	-0.938614	-2.021369	-1.499888	0.254639	0.092773	-0.197021	-5.191108	23.409624	36.153155
44435		-2.648763	-2.542241	11.473429	-0.960765	-2.180534	-1.671187	0.250732	0.115479	-0.201172	-6.088191	22.072428	35.250487
44436		-3.733285	-2.452012	11.414691	-0.904332	-2.333500	-1.813322	0.240479	0.134766	-0.232178	-6.953367	20.612553	34.301387
44437		-4.511004	-2.300009	10.933758	-0.762783	-2.476389	-1.913901	0.236084	0.154785	-0.247314	-7.715989	19.065427	33.335185
44438		-5.449768	-2.070042	10.636001	-0.577997	-2.551574	-1.979790	0.226318	0.184814	-0.267578	-8.352664	17.445678	32.364168
44439		-6.535339	-1.456910	10.550542	-0.406233	-2.641596	-2.039787	0.208984	0.218750	-0.293945	-8.860925	15.774365	31.392177
44440		-7.495548	-0.933361	9.775354	-0.260405	-2.697754	-2.072980	0.200928	0.243652	-0.316406	-9.259332	14.047654	30.427239
44441		-8.485446	-0.369218	8.207805	-0.105425	-2.682053	-2.067940	0.191895	0.270264	-0.334473	-9.533138	12.338164	29.481842
44442		-9.817648	0.214606	6.681249	0.041016	-2.505598	-2.007219	0.174561	0.302734	-0.352539	-9.692907	10.718242	28.566560
44443		-11.613438	0.859643	5.301009	0.154567	-2.186179	-1.886068	0.160889	0.318604	-0.374756	-9.753035	9.301175	27.697361
44444		-14.119176	1.758048	4.547875	0.238179	-1.847572	-1.668068	0.149414	0.345703	-0.383789	-9.733329	8.085128	26.923198
44445		-16.423441	2.470779	4.009289	0.264221	-1.557926	-1.375553	0.140869	0.362061	-0.387695	-9.663218	7.072541	26.288747
44446		-18.303928	3.105883	3.837878	0.232129	-1.243053	-1.022985	0.134521	0.373291	-0.391113	-9.583251	6.263560	25.824405
44447		-19.622827	3.505040	3.713279	0.097815	-0.984896	-0.637822	0.128418	0.376465	-0.406738	-9.552864	5.646428	25.553966
44448		-20.071707	3.657324	3.118732	-0.085212	-0.788281	-0.243107	0.126465	0.379395	-0.410889	-9.606272	5.171826	25.489125
44449		-11.785899	5.613632	-23.769755	-0.007328	0.797657	0.357279	0.125732	0.395752	-0.397705	-9.596395	5.656656	25.612869
44450		-26.939995	2.879014	-8.870786	0.773197	2.446550	1.222800	0.148926	0.376465	-0.368164	-9.099669	7.150035	26.076970
44451		-25.793128	1.071949	-25.760440	1.500229	3.118257	1.551304	0.168945	0.352783	-0.357422	-8.151016	9.049865	26.691484
44452		-5.718594	-1.418017	-19.180445	1.256043	4.227771	0.915919	0.181396	0.342041	-0.331543	-7.394960	11.521480	26.884446
44453		-1.226476	-0.104710	2.853076	-0.245062	5.971085	0.185482	0.205322	0.347656	-0.273193	-7.613842	14.927400	26.531265
44454		-7.293578	-15.264382	61.752489	3.282622	8.320228	0.552831	0.229736	0.320801	-0.212891	-5.806805	19.699973	26.274666
44455		-38.600537	24.902813	50.103522	-1.643425	-2.078483	-0.228037	0.224854	0.333008	-0.234375	-6.746773	18.502162	26.272463
44456		20.112752	-18.118863	-31.912184	1.006188	0.374904	-0.322911	0.229248	0.334473	-0.235840	-6.237947	18.696589	26.050500
44457		-16.726175	4.199727	33.213786	0.279789	-0.647657	0.431135	0.228760	0.334229	-0.234131	-5.980509	18.354116	26.348650
44458		2.393553	0.595544	1.072878	0.079871	0.580878	-0.274406	0.222412	0.329834	-0.230713	-5.997417	18.670328	26.144517
44459		-4.960256	-2.589333	10.597774	0.210124	-0.014595	-0.031746	0.233643	0.327637	-0.223145	-5.881258	18.660348	26.123792
44460		-3.758657	-0.356938	10.208447	0.352388	0.045807	-0.112204	0.227051	0.326904	-0.229248	-5.700626	18.681464	26.050850
44461		-3.036286	-1.691176	8.574194	0.338898	0.019223	-0.040673	0.230469	0.331543	-0.223877	-5.513073	18.690381	26.022690
44462		-3.847291	-0.380690	10.347126	0.294296	-0.026841	-0.018216	0.234375	0.327881	-0.228760	-5.346260	18.675585	26.010621
44463		-3.603535	-0.972924	9.728138	0.230299	-0.051818	-0.029351	0.230225	0.323486	-0.237549	-5.217452	18.644720	25.993291
44464		-3.472105	-0.734285	9.835767	0.186270	-0.061376	-0.005512	0.233154	0.334229	-0.233398	-5.109470	18.610935	25.990684
44465		-3.508102	-0.627159	9.788541	0.119193	-0.094881	-0.027603	0.226807	0.329346	-0.237793	-5.043265	18.555641	25.976601
44466		-3.281003	-0.902324	9.508091	0.106931	-0.086938	-0.023464	0.225342	0.327393	-0.236084	-4.983750	18.506365	25.964448
44467		-3.177383	-0.997988	9.355243	0.090354	-0.057077	0.009348	0.228027	0.324951	-0.242432	-4.927655	18.474507	25.970517
44468		-3.290065	-0.795470	9.517567	0.079729	-0.046912	0.035163	0.234131	0.328613	-0.233154	-4.873248	18.450948	25.991477
44469		-3.340536	-0.720243	9.536237	0.069302	-0.044077	0.029545	0.228271	0.323486	-0.236084	-4.825607	18.427480	26.008973
44470		-3.394048	-0.655223	9.577507	0.049263	-0.054549	0.014575	0.228271	0.318604	-0.239502	-4.792476	18.398526	26.017884
44471		-3.338015	-0.731332	9.531305	0.029613	-0.056770	-0.003073	0.229248	0.330566	-0.238525	-4.773590	18.366233	26.016360
44472		-3.286408	-0.749786	9.480224	0.020595	-0.064738	-0.005923	0.220947	0.326416	-0.234863	-4.760613	18.330473	26.013427
44473		-3.203278	-0.828061	9.411915	0.014988	-0.058892	-0.008241	0.222168	0.329590	-0.246094	-4.751052	18.296724	26.008885
44474		-3.210193	-0.788829	9.399780	0.015595	-0.053555	-0.001730	0.225098	0.324219	-0.237061	-4.740330	18.267533	26.007902
44475		-3.182547	-0.799828	9.347741	0.020213	-0.052308	-0.000652	0.218750	0.325439	-0.233398	-4.726449	18.237903	26.007582
44476		-3.200524	-0.785137	9.403386	0.024541	-0.047025	-0.002938	0.218994	0.326660	-0.243652	-4.710942	18.212368	26.005532
44477		-3.280404	-0.724405	9.466600	0.030123	-0.048166	-0.007697	0.220947	0.317139	-0.249512	-4.692774	18.184773	26.000756
44478		-3.260468	-0.679009	9.486779	0.032963	-0.061473	-0.022187	0.230713	0.322998	-0.242188	-4.675831	18.150076	25.987832
44479		-3.249797	-0.740288	9.439717	0.042749	-0.064923	-0.030229	0.220459	0.329346	-0.246582	-4.654386	18.111864	25.970322
44480		-3.243174	-0.737671	9.442199	0.036737	-0.069902	-0.039719	0.222656	0.324707	-0.247559	-4.638409	18.071539	25.947259
44481		-3.247768	-0.692789	9.485144	0.042929	-0.075535	-0.050683	0.232666	0.319580	-0.244141	-4.620490	18.026332	25.917963
44482		-3.193582	-0.783627	9.407773	0.041551	-0.076692	-0.049231	0.224365	0.330811	-0.250000	-4.603388	17.981695	25.889503
44483		-3.159269	-0.775947	9.442580	0.045811	-0.070277	-0.045697	0.223389	0.326660	-0.256592	-4.582933	17.939737	25.862931
44484		-3.152600	-0.773107	9.445042	0.044681	-0.063519	-0.045089	0.228760	0.329102	-0.248535	-4.563443	17.902818	25.836303
44485		-3.107515	-0.803155	9.493323	0.039203	-0.047521	-0.036518	0.223389	0.325928	-0.250244	-4.545391	17.874292	25.814133
44486		-3.142024	-0.840414	9.422090	0.035304	-0.028577	-0.027249	0.223877	0.328857	-0.242432	-4.528489	17.858137	25.796529
44487		-3.147331	-0.863746	9.359930	0.041970	-0.025489	-0.014104	0.226807	0.327148	-0.248047	-4.505040	17.843220	25.786750
44488		-3.088210	-0.846041	9.348119	0.047572	-0.024042	-0.009014	0.226074	0.327637	-0.244629	-4.477837	17.830476	25.779858
44489		-3.100745	-0.884220	9.331367	0.056463	-0.019916	0.008509	0.220215	0.325684	-0.244141	-4.442010	17.819760	25.783373
44490		-3.161687	-0.760303	9.366739	0.060202	-0.028195	0.019626	0.220215	0.320313	-0.242676	-4.402279	17.805902	25.793836
44491		-3.135080	-0.757103	9.422925	0.060424	-0.033671	0.018957	0.226074	0.325439	-0.245361	-4.362080	17.787780	25.804236
44492		-3.136955	-0.686537	9.473274	0.060100	-0.022379	0.018397	0.222900	0.326904	-0.249023	-4.322733	17.777168	25.813672
44493		-3.160476	-0.753070	9.470405	0.061113	-0.016052	0.019377	0.221191	0.320068	-0.239502	-4.282318	17.769118	25.823501
44494		-3.172123	-0.714053	9.402829	0.057826	-0.022269	0.019849	0.223389	0.314209	-0.250244	-4.244021	17.758608	25.833785
44495		-3.183343	-0.668503	9.521383	0.053616	-0.040612	0.020526	0.213135	0.335205	-0.251709	-4.207367	17.736560	25.845378
44496		-3.084055	-0.616516	9.396301	0.040547	-0.032576	0.018995	0.223877	0.320557	-0.254150	-4.179000	17.720106	25.855587
44497		-3.116923	-0.719848	9.353748	0.041894	-0.052072	0.014889	0.215576	0.326172	-0.258789	-4.149955	17.691263	25.864272
44498		-3.008683	-0.796100	9.262931	0.026774	-0.066316	0.027333	0.225342	0.322021	-0.253662	-4.127531	17.655854	25.880926
44499		-3.012115	-0.739545	9.413916	0.018902	-0.073534	0.055390	0.216309	0.329346	-0.259521	-4.104039	17.616404	25.914795
44500		-3.025542	-0.720479	9.393084	-0.003392	-0.073867	0.083437	0.219238	0.321045	-0.260986	-4.088677	17.578947	25.965372
44501		-3.025591	-0.735069	9.440804	-0.017613	-0.074812	0.101504	0.225098	0.324219	-0.257324	-4.077805	17.540629	26.026900
44502		-3.028182	-0.760620	9.379667	-0.032070	-0.069118	0.126053	0.227783	0.317627	-0.247559	-4.071324	17.507587	26.102779
44503		-3.127850	-0.687912	9.497609	-0.048125	-0.073621	0.147077	0.223145	0.318604	-0.252930	-4.069824	17.471791	26.191532
44504		-3.178766	-0.707020	9.458983	-0.064300	-0.095253	0.152559	0.220947	0.324707	-0.261475	-4.076825	17.424880	26.284372
44505		-3.032672	-0.685283	9.489221	-0.077754	-0.106140	0.163687	0.219727	0.322021	-0.249756	-4.089057	17.371195	26.384426
44506		-3.020613	-0.680177	9.469073	-0.090727	-0.104956	0.157419	0.217285	0.316895	-0.260254	-4.110377	17.318976	26.480563
44507		-2.966489	-0.699426	9.603272	-0.102131	-0.098535	0.163513	0.216553	0.311768	-0.273193	-4.136883	17.269698	26.580169
44508		-2.964305	-0.718475	9.573322	-0.127475	-0.067382	0.181515	0.225342	0.309814	-0.261719	-4.175606	17.240025	26.689100
44509		-2.972364	-0.687886	9.560017	-0.150559	-0.045968	0.213823	0.217529	0.312988	-0.260254	-4.221721	17.223020	26.816529
44510		-2.916235	-0.768987	9.488872	-0.179773	-0.084230	0.278784	0.212891	0.313232	-0.261963	-4.273057	17.187996	26.984414
44511		-3.009383	-0.968272	9.694442	-0.196188	-0.043438	0.314624	0.219727	0.307861	-0.254883	-4.327645	17.176983	27.172010
44512		-2.901473	-0.209830	9.047549	-0.142450	-0.083744	0.258642	0.225342	0.309570	-0.262939	-4.361296	17.141617	27.327848
44513		-2.827360	-0.675082	9.492701	-0.087481	-0.213713	0.244054	0.216797	0.307129	-0.265381	-4.364037	17.030445	27.480945
44514		-3.022249	-0.606041	9.388739	-0.021203	-0.111850	0.120779	0.225830	0.303955	-0.267090	-4.352332	16.973041	27.555590
44515		-2.314311	-0.544553	9.745388	-0.013705	-0.012857	0.139067	0.228516	0.303223	-0.270020	-4.334098	16.972016	27.636731
44516		-3.053081	-0.102889	9.751115	0.014366	0.374052	0.027713	0.224365	0.304688	-0.255859	-4.324689	17.188114	27.633771
44517		-1.610057	-0.640845	10.144634	0.065598	0.582813	0.101876	0.228027	0.309814	-0.248779	-4.275088	17.525765	27.666006
44518		-4.205165	-0.152723	9.314932	0.274312	1.293820	-0.263822	0.228760	0.308594	-0.241699	-4.182933	18.255009	27.447553
44519		-2.597950	-0.509170	10.198452	0.377488	0.940615	0.184479	0.236328	0.302246	-0.231445	-3.942512	18.800373	27.515947
44520		-2.346939	-1.831117	10.133470	0.556590	1.216889	0.412926	0.239502	0.300049	-0.224121	-3.556149	19.512708	27.714987
44521		0.277158	-5.535030	10.105282	0.949002	1.878223	0.952151	0.248779	0.284180	-0.205811	-2.833812	20.617921	28.228466
44522		4.658881	-6.484209	13.498913	1.425324	2.990474	1.610509	0.254150	0.265137	-0.176025	-1.679802	22.367287	29.144079
44523		8.684300	-4.322745	18.759686	2.374496	5.714860	2.308956	0.282959	0.239258	-0.125000	0.253791	25.658407	30.544812
44524		7.415417	-0.089342	20.729378	2.180879	9.512232	2.691687	0.295166	0.218262	-0.029297	2.405425	31.071468	32.436697
44525		2.831239	1.188552	11.197266	1.607249	12.742731	3.155251	0.314453	0.183594	0.089844	4.899568	38.244663	35.190894
44526		3.861664	1.690690	9.083668	1.171708	14.663891	3.624368	0.316895	0.144287	0.241211	8.333820	46.354183	39.281289
44527		1.846646	1.882081	6.018827	0.432786	15.610604	3.990051	0.281738	0.117676	0.392334	13.366135	54.719594	45.455655
44528		1.296766	5.579420	4.934917	-0.242864	16.572052	5.101676	0.217773	0.072021	0.538330	22.698335	62.876800	56.490533
44529		-57.767030	6.733849	43.400004	-1.085855	14.400366	4.125253	0.151123	0.038818	0.659180	35.765765	68.973194	71.447916
44530		-27.816636	-0.423957	49.695785	-1.696591	3.911121	2.970958	0.135254	0.002686	0.691162	42.021836	69.649599	79.171811
44531		-5.736975	-3.022785	37.501455	-2.718590	1.112339	2.783096	0.115479	-0.031982	0.696289	44.697806	69.019672	83.693749
44532		-5.543093	-8.230174	24.668980	-2.896602	-0.610985	2.439128	0.114258	-0.052734	0.690430	44.899095	67.784716	85.695590
44533		-0.541089	-10.697160	11.891866	-2.563437	-1.537452	1.882479	0.125977	-0.077881	0.687744	43.797538	66.402860	86.091652
44534		2.090509	-10.963624	4.779805	-2.042136	-1.695881	1.273061	0.138184	-0.092529	0.667969	42.313432	65.193007	85.749241
44535		2.247106	-10.420617	2.137664	-1.532474	-1.498532	0.636695	0.144531	-0.114258	0.663330	40.805669	64.310459	85.050398
44536		2.021050	-9.374906	1.973389	-1.095974	-1.252958	0.007777	0.159424	-0.118164	0.650635	39.212436	63.756003	83.979448
44537		1.554898	-8.239739	3.748853	-0.719710	-1.071521	-0.521229	0.171143	-0.116455	0.649170	37.559230	63.462034	82.591586
44538		0.462616	-6.980003	6.655765	-0.474713	-1.091283	-0.995203	0.193359	-0.096680	0.653809	35.604427	63.297784	80.712510
44539		-0.426832	-5.679712	9.248664	-0.362696	-1.347124	-1.408634	0.206055	-0.089600	0.639648	33.213016	63.118758	78.263708
44540		-1.097838	-4.524894	10.915675	-0.374992	-1.738351	-1.770217	0.231445	-0.074219	0.630371	30.254469	62.801754	75.187125
44541		-1.525868	-3.488285	11.488877	-0.443140	-2.187389	-2.069888	0.251465	-0.048340	0.606201	26.842210	62.268929	71.625191
44542		-1.952679	-2.532664	11.356472	-0.526080	-2.622707	-2.309824	0.274414	-0.034180	0.583252	23.084065	61.459181	67.709694
44543		-2.348075	-1.526537	10.768798	-0.615246	-3.007743	-2.496779	0.298828	-0.009766	0.550537	19.213077	60.368736	63.681352
44544		-2.636054	-0.644979	10.084038	-0.681502	-3.316095	-2.634282	0.333252	0.014160	0.523682	15.368131	58.994368	59.684468
44545		-2.980003	0.136223	9.574127	-0.732138	-3.545749	-2.698988	0.360840	0.052246	0.482910	11.755065	57.382290	55.924367
44546		-3.429053	0.770555	9.438871	-0.746805	-3.724562	-2.720640	0.375000	0.070801	0.451660	8.427704	55.543326	52.450773
44547		-3.866397	1.424331	9.523370	-0.725765	-3.887546	-2.691859	0.404541	0.103271	0.396973	5.482893	53.519180	49.343458
44548		-4.171948	2.071266	9.699083	-0.663267	-4.027075	-2.594607	0.424072	0.130615	0.349121	2.941068	51.314646	46.620220
44549		-4.536834	2.774128	9.982722	-0.582631	-4.148923	-2.442229	0.432373	0.167480	0.305420	0.836878	48.985045	44.311784
44550		-4.914128	3.288644	10.627165	-0.527446	-4.238803	-2.237307	0.448730	0.192871	0.258301	-0.887246	46.542269	42.395392
44551		-5.708178	3.636627	11.992829	-0.527063	-4.316044	-2.015517	0.460449	0.222900	0.208496	-2.286468	44.038540	40.848589
44552		-6.874032	3.431160	13.698003	-0.587995	-4.448176	-1.807919	0.468018	0.238281	0.153076	-3.468875	41.426937	39.606062
44553		-8.094661	2.869754	15.111366	-0.667716	-4.648178	-1.628169	0.470703	0.262939	0.094482	-4.478771	38.705708	38.628146
44554		-9.005488	2.111560	15.770024	-0.752665	-4.885614	-1.503692	0.473389	0.271973	0.025879	-5.385603	35.828114	37.845656
44555		-9.659577	1.154077	15.697493	-0.809681	-5.098862	-1.437162	0.460938	0.288818	-0.040039	-6.206974	32.838654	37.208032
44556		-9.984557	0.220904	15.227065	-0.820022	-5.237320	-1.418801	0.443115	0.310059	-0.103516	-6.962457	29.749689	36.660692
44557		-10.366324	-0.651226	14.651427	-0.782999	-5.278980	-1.444343	0.427002	0.324219	-0.163330	-7.644080	26.644543	36.162922
44558		-10.806310	-1.304847	14.287654	-0.705136	-5.227310	-1.489030	0.395264	0.359375	-0.218506	-8.252634	23.545726	35.683136
44559		-11.972045	-2.299535	14.513625	-0.655089	-5.065531	-1.576030	0.370850	0.367432	-0.264404	-8.813891	20.541623	35.181779
44560		-14.211510	-3.412122	15.060935	-0.580714	-4.879826	-1.723942	0.348389	0.397949	-0.309326	-9.333434	17.610843	34.612830
44561		-17.748479	-4.651985	15.397989	-0.414278	-4.727302	-1.900851	0.325684	0.423828	-0.358643	-9.750604	14.759267	33.959544
44562		-22.337038	-5.103400	15.362820	-0.103993	-4.632482	-2.060845	0.295410	0.446533	-0.407959	-9.979752	11.929059	33.228348
44563		-26.849807	-3.791769	14.226402	0.376928	-4.613834	-2.068951	0.260742	0.467773	-0.448242	-9.894000	9.120637	32.502324
44564		-29.736786	-1.976289	11.304481	0.768651	-4.601750	-1.912050	0.223389	0.474609	-0.491455	-9.540752	6.326278	31.859154
44565		-30.422374	-0.295485	6.567550	0.941720	-4.552541	-1.708261	0.184814	0.503174	-0.533936	-9.046170	3.594106	31.310055
44566		-29.203748	1.614984	0.864530	0.827061	-4.318879	-1.523237	0.156738	0.512451	-0.578125	-8.592328	1.007471	30.824352
44567		-26.909552	3.575354	-4.272045	0.474519	-3.824604	-1.381796	0.121582	0.519531	-0.612549	-8.316923	-1.276352	30.361042
44568		-25.722380	5.310989	-10.245111	0.087027	-3.073109	-1.199724	0.092041	0.526611	-0.624512	-8.250776	-3.122342	29.932092
44569		-13.732593	5.354533	-32.317733	0.015719	-0.231295	-0.990884	0.090332	0.549072	-0.622559	-8.208608	-3.334646	29.385891
44570		-27.509202	3.855409	-26.328084	0.135898	1.451920	-0.559469	0.093506	0.559814	-0.615234	-8.107956	-2.559260	28.947814
44571		-23.751825	3.428387	-36.521471	0.399080	3.406694	-0.239677	0.124756	0.555664	-0.595459	-7.865419	-0.645242	28.538063
44572		-17.796563	-0.005309	-30.715369	0.501118	5.411221	-0.365470	0.160889	0.553223	-0.550781	-7.587513	2.398857	27.911443
44573		2.066816	4.385977	-3.804959	-0.491357	6.084501	-0.487615	0.189941	0.560547	-0.501709	-7.920570	5.815636	27.160026
44574		-13.932061	3.552227	30.201343	-1.097092	7.808247	-0.255634	0.239258	0.569336	-0.429688	-8.660816	10.222370	26.359807
44575		-24.366832	12.641878	36.708442	-0.244538	6.519477	0.962427	0.279297	0.557617	-0.368652	-8.803830	13.998273	26.334775
44576		-17.730211	-9.975483	44.444332	0.643854	5.829088	0.214919	0.307129	0.545898	-0.326172	-8.540636	17.320605	25.935646
44577		-59.098984	1.103211	69.008005	1.221752	1.234928	-0.349805	0.312012	0.544434	-0.326172	-7.934389	17.992269	25.618564
44578		17.876735	-7.115623	-20.453266	0.684402	-1.789909	-0.030481	0.295654	0.544678	-0.336670	-7.502806	16.977935	25.742241
44579		-4.282479	2.713153	17.941244	1.509788	1.129980	0.303483	0.304443	0.532715	-0.327637	-6.607104	17.641985	25.837174
44580		-9.017707	1.951705	16.902997	0.191685	0.239256	-0.028054	0.301514	0.534912	-0.327393	-6.506165	17.779961	25.801330
44581		-3.355534	-3.458540	8.971849	0.390209	0.187891	-0.072563	0.302979	0.534180	-0.333252	-6.298118	17.882506	25.742787
44582		-3.873703	-0.337308	10.492343	0.349628	0.045571	0.028061	0.299072	0.531250	-0.322266	-6.092264	17.914014	25.753990
44583		-4.167717	-0.765932	10.556367	0.267846	-0.011874	-0.016529	0.302490	0.537598	-0.335205	-5.939991	17.906470	25.742309
44584		-3.656962	-0.420236	10.260878	0.161267	-0.084866	-0.035636	0.309326	0.530762	-0.334961	-5.851181	17.859866	25.723602
44585		-3.546928	-0.725969	9.889892	0.078461	-0.096981	-0.083187	0.303467	0.531982	-0.338867	-5.818035	17.799966	25.677198
44586		-3.289504	-0.841896	9.592382	0.041141	-0.117151	-0.101395	0.305176	0.528564	-0.338379	-5.809390	17.731174	25.621049
44587		-3.199580	-0.992016	9.495772	0.025467	-0.115799	-0.094958	0.308838	0.532959	-0.338135	-5.808295	17.659884	25.568753
44588		-3.124477	-0.961259	9.441939	0.011815	-0.115242	-0.086285	0.298584	0.537354	-0.342285	-5.813611	17.593047	25.521566
44589		-2.883625	-1.196384	9.227253	0.021967	-0.089876	-0.065440	0.292969	0.530518	-0.346436	-5.809545	17.538243	25.485382
44590		-2.927490	-1.194488	9.143052	0.048505	-0.055619	-0.024696	0.303467	0.537109	-0.343262	-5.783782	17.508941	25.471397
44591		-3.029679	-1.120621	9.262665	0.076008	-0.030911	0.007259	0.305908	0.542725	-0.340088	-5.736727	17.491963	25.475074
44592		-3.130531	-0.959636	9.441930	0.086516	-0.024061	0.025607	0.295410	0.535645	-0.343750	-5.680753	17.483516	25.489214
44593		-3.135767	-0.972285	9.434129	0.079487	-0.025544	0.027773	0.295898	0.534424	-0.339111	-5.628129	17.470749	25.504803
44594		-3.016468	-0.998875	9.359294	0.069357	-0.019633	0.057094	0.297363	0.535400	-0.346680	-5.576428	17.466550	25.537483
44595		-3.145146	-0.917364	9.423518	0.073675	-0.021564	0.051935	0.306885	0.526367	-0.349609	-5.522880	17.457364	25.567259
44596		-3.079408	-0.948978	9.339063	0.079886	-0.024617	0.050818	0.312012	0.534180	-0.344238	-5.466200	17.449902	25.596456
44597		-3.051377	-0.938595	9.318209	0.091934	-0.024525	0.057025	0.305176	0.529053	-0.348145	-5.401243	17.439247	25.629421
44598		-3.085537	-0.879330	9.492015	0.083160	-0.020956	0.069078	0.302002	0.519043	-0.336914	-5.339498	17.434776	25.669303
44599		-2.996137	-0.914237	9.462177	0.081659	-0.022458	0.072345	0.300781	0.533936	-0.350830	-5.277734	17.426044	25.711287
44600		-3.262953	-0.713624	9.367150	0.064519	-0.032400	0.098046	0.295654	0.527100	-0.343018	-5.221307	17.416460	25.769101
44601		-3.209372	-0.852522	9.477469	0.087149	-0.041657	0.045946	0.305664	0.521729	-0.347168	-5.160833	17.395322	25.796318
44602		-3.117888	-0.892091	9.394287	0.088903	-0.065905	0.037241	0.304443	0.523682	-0.351074	-5.100796	17.363389	25.819534
44603		-3.123175	-0.840105	9.438018	0.094078	-0.068033	0.037924	0.301025	0.522461	-0.350586	-5.037409	17.326736	25.843297
44604		-3.116815	-0.830006	9.441014	0.096786	-0.072922	0.032027	0.304443	0.520996	-0.354004	-4.973729	17.290479	25.863675
44605		-3.121300	-0.777485	9.484876	0.100185	-0.073609	0.026831	0.297363	0.525879	-0.356201	-4.908783	17.250045	25.881000
44606		-3.132230	-0.818564	9.492549	0.097418	-0.083171	0.026849	0.304688	0.517822	-0.357178	-4.845556	17.207631	25.898705
44607		-3.071039	-0.803727	9.505169	0.088350	-0.082741	0.032700	0.297119	0.520508	-0.351807	-4.786274	17.162230	25.919896
44608		-3.043308	-0.811474	9.399625	0.083386	-0.078815	0.034115	0.297607	0.515625	-0.356934	-4.729927	17.122602	25.941620
44609		-3.004189	-0.785487	9.466148	0.069572	-0.079943	0.040763	0.301270	0.523438	-0.352295	-4.680087	17.079138	25.967389
44610		-3.012416	-0.820796	9.450954	0.056441	-0.074637	0.059826	0.303955	0.520508	-0.351807	-4.634786	17.043041	26.004181
44611		-3.062989	-0.754957	9.625538	0.040185	-0.071291	0.062820	0.297607	0.519775	-0.357422	-4.598106	17.005497	26.042626
44612		-3.053895	-0.742223	9.473659	0.018867	-0.064352	0.069139	0.290039	0.521240	-0.356201	-4.572913	16.975641	26.084422
44613		-3.054421	-0.755732	9.521125	0.006549	-0.063974	0.072507	0.297363	0.514160	-0.355957	-4.553975	16.942684	26.128253
44614		-3.071787	-0.745154	9.523102	-0.003743	-0.065475	0.072212	0.301758	0.517090	-0.363525	-4.541235	16.912290	26.171904
44615		-3.084378	-0.722594	9.556731	-0.015165	-0.066357	0.075585	0.297119	0.510986	-0.356934	-4.534228	16.878093	26.217654
44616		-3.052442	-0.722112	9.535939	-0.025580	-0.069294	0.071279	0.298096	0.514404	-0.361084	-4.534155	16.845457	26.260908
44617		-3.035427	-0.693270	9.524127	-0.039622	-0.073272	0.069941	0.298096	0.512939	-0.356934	-4.542098	16.807054	26.303602
44618		-3.041291	-0.729661	9.485445	-0.051519	-0.076568	0.074789	0.296875	0.507568	-0.364014	-4.556226	16.770425	26.349292
44619		-2.994606	-0.766672	9.532578	-0.070850	-0.077587	0.080423	0.295410	0.508301	-0.370605	-4.580253	16.730058	26.398448
44620		-3.030796	-0.746105	9.511838	-0.075029	-0.076355	0.077843	0.299316	0.511475	-0.361572	-4.607379	16.693715	26.445965
44621		-3.067971	-0.729571	9.568305	-0.066143	-0.078240	0.067833	0.297119	0.519775	-0.362549	-4.630912	16.652436	26.487665
44622		-3.077821	-0.707988	9.525084	-0.051742	-0.081303	0.053028	0.293701	0.513916	-0.361328	-4.648910	16.612148	26.520649
44623		-2.993989	-0.786807	9.508685	-0.036269	-0.090002	0.043344	0.296875	0.507324	-0.366699	-4.659388	16.563038	26.548334
44624		-2.927328	-0.839411	9.446982	-0.031432	-0.081219	0.045424	0.292725	0.510010	-0.366211	-4.667082	16.522452	26.576789
44625		-2.838943	-0.831874	9.488978	-0.027680	-0.070720	0.057013	0.301025	0.514648	-0.372803	-4.670630	16.484997	26.611679
44626		-2.806458	-0.900661	9.494715	-0.032182	-0.054452	0.081103	0.294678	0.509033	-0.369629	-4.673137	16.461348	26.660076
44627		-2.855482	-0.833673	9.514539	-0.039799	-0.043697	0.101943	0.295898	0.508545	-0.372559	-4.676458	16.441427	26.720397
44628		-2.783564	-0.855598	9.437337	-0.046678	-0.028742	0.123485	0.297363	0.504150	-0.364502	-4.680520	16.434422	26.792769
44629		-2.818509	-0.814201	9.501400	-0.052701	-0.009255	0.143901	0.293457	0.503418	-0.370850	-4.684657	16.436139	26.876389
44630		-2.891970	-0.729856	9.497562	-0.051951	0.002968	0.155103	0.297119	0.509521	-0.367432	-4.686842	16.448707	26.966044
44631		-2.892839	-0.797729	9.392985	-0.050161	-0.021982	0.166994	0.297607	0.504639	-0.365967	-4.685438	16.444242	27.064039
44632		-2.688703	-0.470934	9.437905	-0.032496	-0.057360	0.142639	0.300781	0.504395	-0.370605	-4.677747	16.421758	27.149214
44633		-3.048932	-0.688153	9.363373	-0.009320	-0.179869	0.107184	0.303223	0.503418	-0.375000	-4.660945	16.324314	27.219248
44634		-2.964358	-0.720269	9.522136	0.015746	-0.195922	0.062311	0.299805	0.503418	-0.375732	-4.637344	16.218910	27.263262
44635		-2.911095	-0.623162	9.541237	0.035722	-0.182195	0.035749	0.293457	0.492188	-0.372314	-4.606816	16.116784	27.290775
44636		-2.847554	-0.780547	9.753868	0.053879	-0.170951	0.017940	0.299805	0.503418	-0.377930	-4.569176	16.023558	27.307066
44637		-3.333350	-1.068059	9.034345	-0.024331	0.041615	0.161541	0.300293	0.499756	-0.377197	-4.555428	16.054964	27.398592
44638		-2.094681	-0.404499	10.380376	0.010843	0.091875	0.069502	0.292236	0.494141	-0.373291	-4.537428	16.114199	27.433035
44639		-2.434683	-0.678697	9.864981	-0.008602	0.209938	0.072917	0.294922	0.497559	-0.370117	-4.531331	16.237689	27.463996
44640		-2.464192	-1.016384	9.730237	0.008487	0.345934	0.087181	0.301514	0.501221	-0.366699	-4.514883	16.442727	27.497076
44641		-2.444690	-0.991571	9.683549	0.027434	0.463537	0.108222	0.306641	0.502197	-0.371338	-4.485281	16.712640	27.537324
44642		-2.403756	-1.214494	9.860049	0.077427	0.626134	0.150013	0.306641	0.492676	-0.353271	-4.421836	17.080426	27.595231
44643		-2.064982	-1.763586	9.350959	0.176464	0.751355	0.274324	0.316406	0.496338	-0.354492	-4.280434	17.521890	27.722656
44644		-1.591942	-1.059178	10.674955	0.380416	1.046928	0.341567	0.321289	0.487305	-0.339600	-4.012257	18.137676	27.879563
44645		0.396280	-2.742450	9.653689	0.683998	1.844268	0.478437	0.329590	0.473389	-0.323486	-3.549857	19.210449	28.092200
44646		2.800886	-2.100078	12.604876	0.892393	2.895435	1.024908	0.352539	0.468018	-0.302002	-2.857151	20.902732	28.615005
44647		5.602905	-2.859784	16.143497	1.289355	5.123180	1.612755	0.369385	0.447021	-0.245361	-1.785382	23.873525	29.482284
44648		5.125699	-2.169403	18.720662	1.243479	8.141243	1.945349	0.410156	0.418457	-0.160156	-0.570036	28.562336	30.614383
44649		1.848391	1.080108	12.613425	0.872178	10.868573	2.227238	0.438721	0.402100	-0.042236	0.724522	34.788702	32.120207
44650		1.288039	1.380333	8.596867	0.652026	12.403810	2.282732	0.453857	0.368408	0.092041	2.280819	41.860715	34.019790
44651		0.645746	1.315717	7.848009	0.419509	13.439081	2.490888	0.463379	0.346680	0.246582	4.445006	49.466106	36.699493
44652		-0.977571	0.944702	4.467000	0.091467	14.007377	2.769481	0.431396	0.326904	0.402588	7.773669	57.282310	40.768933
44653		2.036048	4.237387	2.675044	-0.581538	14.412174	3.623879	0.388916	0.282959	0.553223	13.983759	65.015599	48.218037
44654		-23.815430	9.343929	21.512067	-1.195160	15.560957	4.145754	0.313477	0.242432	0.694824	27.172005	72.589191	63.053946
44655		-45.296551	-0.804846	49.465227	-1.165443	7.760792	3.252066	0.274414	0.199707	0.768799	40.510442	75.267569	77.617787
44656		-13.472973	0.353665	46.323459	-2.204910	1.578874	3.027698	0.260986	0.172852	0.789551	46.263723	74.732204	84.879464
44657		-7.624332	-5.381419	32.814709	-2.857805	-0.536078	2.802891	0.268066	0.135010	0.787842	47.671779	73.350297	88.044326
44658		-4.474163	-8.887646	20.174240	-2.469197	-2.046395	2.508354	0.291260	0.092773	0.775635	46.607811	71.497374	88.411746
44659		-1.509492	-10.117410	10.908316	-1.767458	-2.746822	2.172186	0.300049	0.079102	0.748047	44.863830	69.509637	87.633643
44660		-0.593800	-9.878779	6.613321	-1.096449	-2.886829	1.768209	0.324463	0.055176	0.721924	43.141739	67.613634	86.459291
44661		-0.306510	-9.522472	4.721104	-0.697438	-2.775029	1.254365	0.346436	0.044189	0.701660	41.484640	65.955905	85.088581
44662		-0.303056	-9.189188	4.572594	-0.527718	-2.575375	0.685409	0.374023	0.043945	0.678955	39.721924	64.577400	83.482514
44663		-0.908502	-8.802220	5.989540	-0.452032	-2.468995	0.156157	0.399170	0.036377	0.661133	37.789462	63.419939	81.618061
44664		-1.353174	-8.393756	7.308884	-0.439598	-2.532386	-0.356706	0.416992	0.055176	0.633789	35.501969	62.374628	79.334063
44665		-1.682497	-7.822715	8.243054	-0.514591	-2.664846	-0.861422	0.441162	0.062256	0.591309	32.836941	61.390020	76.644228
44666		-1.961765	-7.167292	8.727813	-0.647178	-2.806307	-1.365766	0.473389	0.090576	0.575439	29.740356	60.417937	73.528555
44667		-2.374680	-6.286308	9.099202	-0.743430	-2.950712	-1.815176	0.502197	0.114502	0.529053	26.356094	59.416018	70.107393
44668		-2.932087	-5.155357	9.571469	-0.795719	-3.116689	-2.186986	0.523193	0.153320	0.488037	22.761935	58.306211	66.445591
44669		-3.502836	-3.920738	10.019166	-0.798013	-3.306181	-2.480986	0.535400	0.188477	0.437012	19.134591	57.046012	62.691995
44670		-4.232312	-2.659498	10.564923	-0.784657	-3.494190	-2.689468	0.560059	0.238770	0.389404	15.560973	55.585718	58.943099
44671		-4.899225	-1.333882	11.012590	-0.768664	-3.695673	-2.832034	0.567627	0.281738	0.335693	12.171550	53.919125	55.330001
44672		-5.427312	-0.077091	11.402778	-0.770104	-3.895397	-2.889963	0.566895	0.320801	0.283203	9.010590	52.018550	51.929017
44673		-6.103486	1.145539	12.169924	-0.789777	-4.065369	-2.882912	0.567383	0.373535	0.241699	6.157614	49.927767	48.836864
44674		-7.023551	2.242339	13.167921	-0.852516	-4.261807	-2.816785	0.567871	0.419922	0.174561	3.582766	47.619001	46.068665
44675		-7.986326	3.125577	14.006500	-0.951425	-4.481949	-2.707743	0.561523	0.445313	0.132324	1.296398	45.119510	43.660574
44676		-8.780336	3.584606	14.393524	-1.037901	-4.709395	-2.562768	0.574707	0.491943	0.068359	-0.728472	42.414557	41.598526
44677		-9.529101	3.733252	14.340132	-1.072425	-4.923775	-2.380707	0.569092	0.537842	0.007324	-2.459548	39.556747	39.893198
44678		-10.292745	3.338380	14.028352	-1.047961	-5.087472	-2.175526	0.560791	0.558838	-0.056152	-3.915263	36.562410	38.510755
44679		-11.025124	2.542399	13.810747	-0.990790	-5.202281	-2.002914	0.563721	0.591309	-0.128662	-5.119949	33.500770	37.397540
44680		-11.414871	1.837566	13.449091	-0.930763	-5.240062	-1.899223	0.536865	0.638672	-0.209229	-6.150055	30.391327	36.462938
44681		-11.533332	1.122991	13.315623	-0.888482	-5.222057	-1.843833	0.509766	0.674072	-0.301270	-7.046910	27.297875	35.654713
44682		-11.793550	0.659323	13.550315	-0.842858	-5.165016	-1.827251	0.452881	0.711426	-0.368652	-7.849345	24.213278	34.923426
44683		-12.446849	0.259379	14.231392	-0.785713	-5.083665	-1.815167	0.404297	0.753418	-0.448242	-8.555046	21.182065	34.255531
44684		-14.188107	-0.500415	15.488195	-0.684417	-5.007601	-1.808177	0.334717	0.769775	-0.501709	-9.157807	18.173659	33.633753
44685		-17.040972	-1.044855	16.532905	-0.496625	-5.009357	-1.816010	0.264648	0.807129	-0.539307	-9.608099	15.172324	33.048130
44686		-20.009432	-1.052455	16.627861	-0.222352	-5.075589	-1.783068	0.196533	0.817871	-0.578857	-9.862123	12.120501	32.514840
44687		-22.415855	-0.756621	15.412921	0.142533	-5.168618	-1.653515	0.133057	0.826660	-0.601563	-9.858135	9.040646	32.078780
44688		-23.507986	0.405868	13.084356	0.446561	-5.179830	-1.424011	0.086670	0.828369	-0.637939	-9.642715	5.966742	31.771971
44689		-23.982753	1.094800	9.650070	0.544601	-5.079774	-1.200139	0.020752	0.817627	-0.671143	-9.343912	2.982761	31.570786
44690		-23.558265	2.221963	5.504945	0.447196	-4.842538	-0.993922	-0.024902	0.828125	-0.689697	-9.090953	0.144738	31.450652
44691		-22.062057	3.458980	1.416226	0.193383	-4.411245	-0.792108	-0.075195	0.826172	-0.717285	-8.976665	-2.422542	31.396868
44692		-19.733076	3.175822	-2.902306	-0.072361	-3.759893	-0.585987	-0.107178	0.832031	-0.729004	-9.017863	-4.608115	31.399927
44693		-19.120109	2.382198	-6.094820	-0.248225	-2.977474	-0.411573	-0.143311	0.833496	-0.731689	-9.160973	-6.329828	31.434314
44694		-19.106023	2.011399	-7.794757	-0.286511	-2.196700	-0.233915	-0.169678	0.824951	-0.752441	-9.332627	-7.596655	31.502628
44695		-18.704110	1.629947	-8.756603	-0.353343	-1.397048	-0.080839	-0.181152	0.828613	-0.745117	-9.544361	-8.393794	31.586600
44696		-18.574082	1.125774	-8.613084	-0.549344	-0.610577	-0.081068	-0.190186	0.834473	-0.741943	-9.859850	-8.747364	31.597787
44697		-10.027640	-2.122879	-27.428632	-0.385989	1.502397	-0.307676	-0.174072	0.845947	-0.738281	-10.031013	-7.929886	31.269595
44698		-25.494854	-4.281205	-19.079480	0.410242	3.934883	-0.262318	-0.152588	0.845459	-0.710938	-9.731047	-5.734118	30.728770
44699		-10.104934	0.709011	-18.556930	1.576577	4.252402	-0.342219	-0.121094	0.824951	-0.713867	-8.778442	-3.360846	30.139180
44700		5.355527	3.265837	-2.637077	0.608715	5.152775	-0.616379	-0.088135	0.830566	-0.687012	-8.403039	-0.491959	29.346465
44701		-0.423884	1.665084	10.655995	-1.013000	6.790697	-0.784360	-0.032471	0.841797	-0.648438	-9.006535	3.286180	28.310859
44702		-14.115651	1.988318	13.133214	-0.653052	6.906779	-0.185548	0.009033	0.853516	-0.603027	-9.448535	7.177235	27.565931
44703		-14.320687	10.919807	18.038582	-0.227962	6.205046	0.328078	0.063721	0.858887	-0.557129	-9.640809	10.714498	27.154429
44704		-12.343214	14.215781	26.558550	-0.723845	6.312401	0.773716	0.113037	0.854736	-0.514160	-10.095490	14.357125	26.964297
44705		-27.056838	-20.391183	52.319857	1.167490	6.827228	0.018663	0.149170	0.849609	-0.475098	-9.617226	18.213011	26.275297
44706		-51.402276	-2.999660	55.045985	1.162220	0.019538	0.036396	0.159912	0.840332	-0.484863	-8.944146	18.231938	26.292396
44707		15.422020	0.717553	-12.918564	1.068129	-1.759840	-0.005628	0.136719	0.833740	-0.507080	-8.283237	17.234623	26.445060
44708		-5.303648	0.729094	17.700176	1.078191	0.619423	-0.091134	0.144531	0.830566	-0.511719	-7.695815	17.584676	26.336612
44709		-4.469338	-1.144355	10.536020	0.612110	0.200279	-0.111821	0.147949	0.822510	-0.512695	-7.368446	17.690189	26.251646
44710		-4.649430	-2.162153	11.307589	0.724339	0.144800	-0.031079	0.147705	0.827637	-0.517578	-6.960842	17.776212	26.219723
44711		-4.502722	0.157456	12.022500	0.360573	-0.059011	0.055092	0.138916	0.820313	-0.521240	-6.741292	17.746588	26.254334
44712		-3.778020	-1.330158	10.190140	0.284300	-0.097624	0.021292	0.143311	0.820068	-0.529297	-6.570852	17.698475	26.271368
44713		-3.571229	-0.702712	10.156265	0.197749	-0.137195	0.048239	0.145508	0.811035	-0.522949	-6.444338	17.623701	26.307006
44714		-3.662082	-0.620882	10.226976	0.100780	-0.162341	0.004986	0.151123	0.807373	-0.529541	-6.380770	17.537660	26.318400
44715		-3.242338	-0.861036	9.712770	0.033822	-0.167924	-0.028954	0.145996	0.812012	-0.530762	-6.361582	17.440400	26.309780
44716		-3.056475	-1.172330	9.401725	0.019417	-0.152605	-0.020296	0.143311	0.807129	-0.524902	-6.349351	17.358306	26.305346
44717		-3.032122	-1.211740	9.364409	0.023479	-0.136741	0.007508	0.141846	0.812500	-0.527588	-6.330219	17.281114	26.316361
44718		-2.903984	-1.244336	9.291013	0.025889	-0.116944	0.039362	0.146973	0.813965	-0.531494	-6.304455	17.223084	26.345086
44719		-2.943539	-1.089638	9.375526	0.031737	-0.079990	0.061172	0.139893	0.812500	-0.535400	-6.272278	17.181571	26.384287
44720		-3.037667	-1.075738	9.500255	0.026648	-0.060293	0.083884	0.145996	0.808594	-0.534668	-6.239413	17.158539	26.435764
44721		-3.164294	-1.006573	9.589834	-0.002341	-0.058501	0.089560	0.142334	0.803223	-0.526123	-6.222239	17.130993	26.490432
44722		-3.054006	-1.066638	9.395107	-0.010899	-0.061431	0.094924	0.142822	0.806152	-0.537598	-6.208971	17.107961	26.548533
44723		-3.041199	-0.976609	9.567098	-0.020777	-0.053527	0.097824	0.146973	0.807129	-0.542969	-6.201060	17.083737	26.607776
44724		-3.008201	-1.035910	9.548223	-0.050872	-0.032277	0.108051	0.142822	0.810059	-0.539551	-6.208982	17.078108	26.671796
44725		-3.029639	-1.094442	9.442155	-0.069264	-0.007416	0.123082	0.147461	0.806641	-0.540283	-6.225326	17.081727	26.743097
44726		-2.997871	-1.007156	9.403222	-0.076306	0.016896	0.130860	0.138184	0.811035	-0.530273	-6.244741	17.105547	26.817523
44727		-3.057025	-0.952127	9.444333	-0.078497	0.028008	0.122515	0.155273	0.803711	-0.537842	-6.267108	17.129353	26.886183
44728		-3.031706	-0.946167	9.397661	-0.075621	0.034497	0.105069	0.152100	0.802246	-0.525879	-6.290916	17.161629	26.944096
44729		-3.091438	-0.960264	9.463465	-0.068065	0.036309	0.089803	0.142822	0.805176	-0.530762	-6.313159	17.188158	26.992712
44730		-3.131084	-0.987290	9.420090	-0.055077	0.031797	0.078519	0.155273	0.802979	-0.526367	-6.329747	17.217259	27.034980
44731		-3.158948	-0.987780	9.495882	-0.043337	0.020646	0.067901	0.156982	0.804199	-0.533447	-6.341342	17.233510	27.071572
44732		-3.167750	-0.939744	9.514785	-0.047974	0.011655	0.056125	0.152100	0.804688	-0.529541	-6.357380	17.249747	27.101828
44733		-3.096722	-1.024246	9.384472	-0.051214	0.002816	0.037101	0.144775	0.807861	-0.534424	-6.378568	17.253908	27.121237
44734		-3.049377	-1.037824	9.306765	-0.034686	-0.006851	0.025832	0.150146	0.802490	-0.533447	-6.391965	17.257697	27.134665
44735		-2.995108	-1.099846	9.209450	-0.004570	-0.002544	0.021363	0.159912	0.808838	-0.536377	-6.389104	17.257809	27.145048
44736		-3.031115	-1.057921	9.274451	0.021522	-0.002392	0.013553	0.156006	0.793457	-0.532227	-6.372559	17.263349	27.150858
44737		-3.048562	-1.034193	9.307437	0.044462	-0.012485	0.009228	0.155029	0.801270	-0.533936	-6.343555	17.257026	27.154666
44738		-3.095835	-1.020614	9.331372	0.067537	-0.023235	-0.002739	0.153076	0.799316	-0.534180	-6.303122	17.249658	27.152138
44739		-3.039554	-1.010467	9.342318	0.084561	-0.030460	-0.015446	0.153564	0.815674	-0.535645	-6.255158	17.231546	27.142402
44740		-2.959982	-1.072050	9.246759	0.107238	-0.024808	-0.025094	0.153076	0.812500	-0.534180	-6.195901	17.221896	27.126623
44741		-2.969503	-1.023297	9.236106	0.125994	-0.009262	-0.030331	0.144775	0.810303	-0.537842	-6.127237	17.214964	27.106608
44742		-2.939548	-1.070650	9.217716	0.150909	0.004155	-0.030876	0.147217	0.806885	-0.533447	-6.044547	17.221489	27.085497
44743		-2.991359	-1.057298	9.264675	0.170780	-0.006869	-0.017181	0.150146	0.798828	-0.538086	-5.947951	17.216762	27.073155
44744		-2.970738	-1.059172	9.289079	0.178679	-0.015278	0.000106	0.143311	0.801514	-0.532959	-5.843539	17.214091	27.071728
44745		-3.031290	-1.001035	9.378583	0.188973	-0.018660	0.007259	0.145752	0.795166	-0.545166	-5.731996	17.204098	27.074667
44746		-3.018031	-0.952790	9.368241	0.191833	-0.024451	0.021991	0.152100	0.802979	-0.539551	-5.616045	17.197433	27.086809
44747		-3.064751	-0.925326	9.393616	0.195576	-0.026743	0.029840	0.146240	0.792725	-0.548096	-5.496609	17.184072	27.103654
44748		-3.190843	-0.838427	9.484196	0.193179	-0.069743	0.028764	0.145264	0.793945	-0.545410	-5.377958	17.151886	27.122359
44749		-2.978706	-0.964224	9.381461	0.189374	-0.082698	0.035462	0.145996	0.789551	-0.550537	-5.260207	17.106835	27.145607
44750		-2.978623	-0.894873	9.404374	0.175631	-0.067394	0.061168	0.149170	0.787109	-0.544189	-5.146033	17.077599	27.183359
44751		-3.182205	-0.679277	9.719207	0.160759	-0.069537	0.057806	0.151855	0.790039	-0.549316	-5.041055	17.041109	27.219050
44752		-3.172693	-0.723056	9.726147	0.139208	-0.065812	0.020043	0.148193	0.783447	-0.551025	-4.955030	17.010589	27.232031
44753		-3.134841	-0.765795	9.633468	0.090632	-0.085983	0.020864	0.143799	0.787354	-0.550781	-4.896506	16.962793	27.246393
44754		-3.098447	-0.819912	9.563846	0.086831	-0.105825	0.022968	0.143066	0.794922	-0.551514	-4.839420	16.909545	27.263065
44755		-3.025192	-0.783576	9.640116	0.067471	-0.095023	0.026302	0.143066	0.783447	-0.557861	-4.793147	16.856823	27.281023
44756		-2.977158	-0.807722	9.610741	0.035576	-0.066947	0.033403	0.143311	0.778809	-0.559326	-4.764240	16.826240	27.301879
44757		-2.957346	-0.766094	9.576637	0.008338	-0.049327	0.043754	0.150391	0.779053	-0.563477	-4.749532	16.800422	27.327914
44758		-2.985089	-0.777171	9.568752	-0.014608	-0.026838	0.053732	0.148926	0.784180	-0.552490	-4.746466	16.793678	27.358885
44759		-2.937067	-0.790028	9.491678	-0.022985	-0.010824	0.059973	0.153076	0.786377	-0.557129	-4.747473	16.790610	27.392679
44760		-2.985431	-0.781474	9.514791	-0.025358	-0.005212	0.062161	0.143066	0.780273	-0.559082	-4.749418	16.796599	27.427608
44761		-3.098871	-0.805546	9.542625	-0.020828	-0.014909	0.072965	0.149170	0.785156	-0.561768	-4.746890	16.791816	27.469353
44762		-3.020321	-0.742787	9.525196	-0.023662	-0.035695	0.073277	0.147949	0.784424	-0.558105	-4.745511	16.780922	27.512423
44763		-2.848718	-0.646292	9.349604	-0.032023	-0.075188	0.100008	0.147705	0.796387	-0.548340	-4.743911	16.742998	27.573272
44764		-2.802702	-0.963891	9.210174	-0.027627	-0.272163	0.118412	0.144287	0.780762	-0.552979	-4.733801	16.599199	27.654907
44765		-3.065242	-0.593593	9.874474	-0.015457	-0.347386	0.124862	0.148438	0.779297	-0.567139	-4.714989	16.407000	27.743859
44766		-2.898170	-0.629834	9.649941	0.010203	-0.258423	0.057401	0.150146	0.778076	-0.556152	-4.694110	16.268119	27.788287
44767		-2.821737	-0.755587	9.640986	0.023739	-0.216115	0.022565	0.134766	0.773926	-0.567627	-4.672124	16.146034	27.809731
44768		-2.824754	-0.885085	9.354468	-0.104137	0.159559	0.190787	0.141602	0.779297	-0.561523	-4.700415	16.252049	27.913028
44769		-2.610280	-0.570156	10.240073	0.003415	0.024010	0.045312	0.144043	0.776367	-0.559814	-4.689542	16.268155	27.936304
44770		-2.634059	-0.710826	9.733187	0.022374	0.147126	0.021280	0.146484	0.780518	-0.559570	-4.673273	16.359090	27.939425
44771		-2.714204	-0.786747	9.636940	0.019460	0.280323	0.007479	0.150879	0.778809	-0.558838	-4.663030	16.519792	27.927744
44772		-2.478037	-0.975884	9.750204	-0.005618	0.362433	0.064513	0.156006	0.769043	-0.550781	-4.658389	16.735643	27.946209
44773		-2.431163	-1.075834	9.687256	-0.056868	0.522895	0.147534	0.148682	0.781494	-0.547852	-4.671120	17.041394	28.006282
44774		-2.338324	-1.352831	9.641570	-0.066381	0.650501	0.253811	0.157715	0.772461	-0.546631	-4.671762	17.430494	28.123869
44775		-2.453127	-1.397264	9.388026	-0.051862	0.705855	0.406679	0.163818	0.782471	-0.539307	-4.636420	17.852765	28.330614
44776		-1.803359	-1.400333	9.936320	-0.002187	0.849421	0.543553	0.174316	0.768311	-0.537598	-4.547139	18.368497	28.613828
44777		-0.038666	-1.700658	10.614650	0.202822	1.497789	0.646537	0.193359	0.766602	-0.526367	-4.326150	19.253035	28.931324
44778		2.088017	-1.603506	11.981238	0.393006	2.672104	0.975404	0.210205	0.748779	-0.507568	-3.936258	20.825661	29.404795
44779		3.351230	-1.649813	14.462853	0.609184	4.617102	1.326653	0.247314	0.733154	-0.468750	-3.345026	23.514334	30.039899
44780		3.057392	-1.862599	16.203283	0.515690	7.068779	1.709785	0.300049	0.723877	-0.395752	-2.681831	27.614735	30.885589
44781		1.738768	0.067918	13.947061	0.240838	9.221858	2.060821	0.351807	0.695801	-0.311768	-1.978926	32.942670	31.999793
44782		1.098291	-0.290893	10.135300	0.118595	10.676072	2.162623	0.412109	0.668945	-0.196777	-1.129389	39.094339	33.322648
44783		1.143529	0.474215	8.136132	0.189073	11.852829	2.203140	0.457031	0.646973	-0.072998	0.080157	45.897787	34.946100
44784		-2.990133	0.167300	5.462584	0.197857	12.525632	2.342014	0.471924	0.625488	0.070313	1.911616	53.053426	37.198268
44785		-1.283921	0.082990	5.472347	0.163127	12.893971	2.606818	0.491943	0.601318	0.209473	4.951244	60.342178	40.712801
44786		1.627749	0.783292	5.525759	-0.162634	13.748557	3.084543	0.479980	0.559326	0.383789	10.690031	67.919053	47.176136
44787		-32.402276	5.710841	31.740945	-0.725410	13.057473	3.687908	0.451904	0.512939	0.501465	22.563206	74.524885	60.126852
44788		-34.529336	-1.704253	49.484291	-0.906427	4.498915	3.053142	0.450195	0.475098	0.545166	32.486395	76.009529	70.919002
44789		-10.007775	-1.532362	41.660270	-2.092435	0.549227	2.725762	0.443848	0.434570	0.551514	37.021172	75.378726	76.833337
44790		-7.913624	-6.367620	29.199993	-2.448015	-1.363462	2.494883	0.461670	0.404785	0.536133	37.994628	73.885423	79.295891
44791		-3.608197	-8.702518	17.771084	-1.993636	-2.623270	2.267156	0.468750	0.372803	0.494873	37.213339	71.903857	79.671130
44792		-1.803615	-9.144122	10.593246	-1.361484	-3.066087	2.043339	0.476074	0.344971	0.464600	36.093401	69.791098	79.311324
44793		-1.295338	-8.832153	6.915520	-0.838407	-3.195959	1.713981	0.482178	0.331055	0.419922	34.930977	67.731838	78.577173
44794		-0.797325	-8.745207	5.050465	-0.590594	-3.097349	1.276261	0.485840	0.309570	0.384766	33.645645	65.848677	77.548099
44795		-0.831574	-8.668961	4.837704	-0.489051	-2.894323	0.792502	0.480713	0.314941	0.340576	32.245550	64.211683	76.310251
44796		-1.028012	-8.716525	5.575906	-0.370107	-2.799751	0.355749	0.489502	0.311035	0.304932	30.680616	62.731649	74.800591
44797		-1.395894	-8.467589	6.862691	-0.311643	-2.813777	-0.078278	0.477783	0.319092	0.270020	28.917897	61.356365	73.004608
44798		-1.671429	-7.763548	7.917084	-0.382821	-2.932559	-0.535051	0.473145	0.329590	0.229736	26.793916	60.007794	70.823873
44799		-1.972924	-6.966360	8.519328	-0.550076	-3.054455	-0.984818	0.462402	0.360840	0.196045	24.344702	58.673812	68.340560
44800		-2.357381	-6.040164	8.864843	-0.758134	-3.177497	-1.404903	0.452881	0.374023	0.167725	21.565084	57.303396	65.579762
44801		-2.822050	-5.154955	9.222131	-0.922428	-3.300020	-1.771472	0.436279	0.410400	0.127686	18.605777	55.877026	62.665388
44802		-3.301043	-4.299274	9.511530	-1.004375	-3.443275	-2.066496	0.417725	0.428467	0.090576	15.554503	54.328871	59.652913
44803		-4.066167	-3.401778	10.161813	-1.002864	-3.581363	-2.289322	0.410156	0.468506	0.065186	12.585694	52.657882	56.671930
44804		-5.019183	-2.373934	10.873339	-0.975025	-3.753646	-2.458757	0.377441	0.494873	0.034912	9.727124	50.808147	53.749607
44805		-5.787100	-1.177410	11.558613	-0.967706	-3.925312	-2.576587	0.357422	0.525391	0.008301	7.054897	48.798923	50.974701
44806		-6.667192	0.065871	12.074021	-1.007681	-4.100925	-2.653632	0.322754	0.565674	-0.017822	4.537268	46.600567	48.359005
44807		-7.320779	1.289155	12.380535	-1.079430	-4.261634	-2.661891	0.300293	0.602295	-0.039551	2.226721	44.253250	45.981158
44808		-8.075058	2.319827	12.635084	-1.151760	-4.409280	-2.611297	0.267822	0.627686	-0.056641	0.110313	41.742219	43.853195
44809		-8.625372	2.942324	12.469729	-1.197863	-4.533451	-2.509488	0.239014	0.660400	-0.081787	-1.769043	39.124377	42.010803
44810		-9.069851	3.162864	12.318371	-1.225173	-4.606297	-2.368631	0.214355	0.671387	-0.103516	-3.438789	36.409649	40.438086
44811		-9.594289	3.000210	12.328748	-1.199834	-4.627403	-2.218367	0.186523	0.685303	-0.116211	-4.879995	33.673305	39.121813
44812		-10.062190	2.448679	12.567671	-1.103808	-4.627944	-2.056038	0.175781	0.706787	-0.143066	-6.100625	30.904298	38.027600
44813		-10.519904	1.853605	12.748488	-0.962455	-4.621265	-1.913044	0.141602	0.724854	-0.169678	-7.095619	28.148236	37.123223
44814		-10.844500	1.428196	12.795084	-0.833196	-4.598566	-1.788119	0.124512	0.744873	-0.194336	-7.917210	25.385540	36.365409
44815		-10.975305	1.118700	12.895714	-0.737422	-4.538340	-1.683356	0.097900	0.764893	-0.227051	-8.597588	22.673796	35.726650
44816		-11.502354	0.838367	13.123524	-0.693704	-4.452647	-1.574748	0.068359	0.772705	-0.255371	-9.193120	19.997714	35.188545
44817		-12.672239	0.392982	13.522885	-0.689124	-4.353077	-1.470190	0.029297	0.794434	-0.275146	-9.728933	17.399107	34.741655
44818		-14.623117	-0.317052	13.968900	-0.688686	-4.270734	-1.394522	-0.002441	0.807617	-0.296387	-10.231204	14.835644	34.360110
44819		-16.889401	-0.979022	13.961914	-0.644630	-4.231383	-1.334888	-0.046143	0.816162	-0.314941	-10.674211	12.312738	34.036377
44820		-19.349971	-1.311338	13.377797	-0.496402	-4.223686	-1.283005	-0.083008	0.831299	-0.323242	-11.012750	9.784358	33.761322
44821		-20.941447	-1.046846	11.697925	-0.322069	-4.195765	-1.218154	-0.124512	0.833984	-0.337158	-11.228483	7.290880	33.535240
44822		-21.887462	-0.630814	8.880179	-0.208448	-4.091586	-1.177365	-0.144531	0.838379	-0.346680	-11.370880	4.849263	33.329088
44823		-21.935730	0.295476	5.499477	-0.142408	-3.892871	-1.149523	-0.177734	0.829590	-0.350098	-11.463408	2.532557	33.122179
44824		-21.375610	1.924813	1.938826	-0.179669	-3.547567	-1.102927	-0.211914	0.836182	-0.364746	-11.572804	0.407408	32.906285
44825		-20.579687	3.321910	-1.370139	-0.276927	-3.064611	-1.011658	-0.225098	0.843506	-0.364258	-11.727163	-1.429385	32.690742
44826		-19.031908	3.504953	-4.326977	-0.300227	-2.448230	-0.833153	-0.244385	0.844727	-0.362305	-11.892689	-2.904174	32.508195
44827		-17.921823	2.861867	-6.334547	-0.219240	-1.720473	-0.622407	-0.264160	0.836914	-0.361816	-12.007102	-3.942445	32.360738
44828		-18.490545	2.435897	-6.024504	-0.088724	-1.029534	-0.432134	-0.276367	0.831299	-0.364502	-12.048896	-4.572198	32.239027
44829		-20.068468	0.836153	-11.196149	0.026442	-0.267598	-0.279389	-0.278809	0.836426	-0.354736	-12.020985	-4.755568	32.111595
44830		-12.505492	1.342105	-20.001879	0.860817	2.466418	-0.150885	-0.275391	0.830322	-0.346680	-11.501027	-3.388030	31.735887
44831		-21.032807	-2.491642	-17.328643	1.525292	3.507497	-0.100220	-0.257813	0.825928	-0.326172	-10.605938	-1.426681	31.291446
44832		-11.715683	0.907682	-12.871708	2.075280	4.444427	-0.210396	-0.246094	0.813965	-0.307861	-9.415534	1.064199	30.727959
44833		2.108006	2.989405	2.414775	1.102050	4.644479	-0.716197	-0.224121	0.819580	-0.272217	-8.815558	3.626787	29.898165
44834		-1.493059	2.930376	16.256638	-0.545533	6.168449	-0.991462	-0.222900	0.820801	-0.219727	-9.233099	7.033148	28.775635
44835		-12.871762	9.947722	15.257981	-0.516126	6.114296	-0.259186	-0.215576	0.843262	-0.171631	-9.637846	10.464755	28.044011
44836		-11.249889	20.176201	19.886422	-0.229197	5.503875	0.498283	-0.212402	0.841553	-0.131104	-9.822665	13.626729	27.784168
44837		-12.124309	9.222683	30.320258	-0.452667	5.613103	0.584680	-0.201416	0.842285	-0.078613	-10.142367	16.852232	27.545826
44838		-51.870930	-23.452242	64.923193	2.250353	3.576838	-0.675954	-0.207275	0.849365	-0.080322	-9.082782	18.814693	26.783203
44839		-3.761697	-6.870077	3.618230	0.947597	-1.994226	0.225713	-0.213135	0.829102	-0.092773	-8.438635	17.705213	27.098500
44840		9.085822	5.647466	1.658469	1.631527	0.059969	-0.027210	-0.210449	0.840332	-0.093994	-7.508983	17.746118	27.074839
44841		-9.890294	-0.123498	19.778949	0.842764	0.734792	-0.133524	-0.220215	0.835449	-0.096436	-7.066380	18.154177	26.936397
44842		-4.074469	-2.806564	8.967614	0.720990	0.130762	-0.026924	-0.217285	0.840088	-0.091064	-6.659276	18.235328	26.908569
44843		-5.540942	0.602719	14.052977	0.469296	0.103429	0.083150	-0.216797	0.833252	-0.103027	-6.375382	18.299806	26.948792
44844		-3.742720	-1.263415	9.864208	0.297418	-0.035130	0.004574	-0.218018	0.829346	-0.101318	-6.201369	18.288843	26.951590
44845		-3.866303	-0.747481	10.450178	0.236525	-0.088889	0.036493	-0.218018	0.833984	-0.104736	-6.055590	18.240646	26.976669
44846		-3.696219	-0.793636	10.107370	0.164903	-0.110452	0.016004	-0.219727	0.828857	-0.092041	-5.953893	18.187472	26.990980
44847		-3.422310	-0.855515	9.698478	0.121525	-0.134821	0.005084	-0.218994	0.835693	-0.095947	-5.879095	18.111155	26.999873
44848		-3.166543	-0.964800	9.455332	0.095734	-0.123549	0.001087	-0.216064	0.834473	-0.100342	-5.819609	18.049622	27.005867
44849		-2.917924	-1.087623	9.178837	0.092333	-0.090198	0.016306	-0.223877	0.819092	-0.101074	-5.760369	17.999372	27.018591
44850		-3.005158	-1.181733	9.177728	0.118007	-0.047137	0.050347	-0.219971	0.822754	-0.107910	-5.680491	17.984167	27.049353
44851		-3.247582	-0.987991	9.425940	0.125582	-0.036333	0.077923	-0.217529	0.830811	-0.107666	-5.591841	17.968066	27.095681
44852		-3.231511	-0.872279	9.444570	0.121607	-0.038026	0.084328	-0.221436	0.830566	-0.102051	-5.503836	17.959832	27.146201
44853		-3.300138	-0.703841	9.603326	0.106924	-0.033950	0.077980	-0.219727	0.830078	-0.104980	-5.425943	17.944961	27.192370
44854		-3.358663	-0.716653	9.585671	0.080678	-0.042419	0.050552	-0.216309	0.823975	-0.104980	-5.367554	17.932266	27.222844
44855		-3.233842	-0.735314	9.543486	0.063094	-0.045596	0.027577	-0.225098	0.828613	-0.108643	-5.323908	17.907970	27.239406
44856		-3.194982	-0.842530	9.452910	0.052670	-0.048320	0.023137	-0.231201	0.826172	-0.101563	-5.286518	17.890407	27.253741
44857		-3.138063	-0.837111	9.410191	0.048637	-0.045601	0.024543	-0.220947	0.828125	-0.109619	-5.251737	17.865927	27.268446
44858		-3.156955	-0.822766	9.411819	0.051074	-0.039571	0.020199	-0.223145	0.824219	-0.114258	-5.215962	17.853167	27.280504
44859		-3.119161	-0.796884	9.400580	0.043295	-0.033454	0.019419	-0.217529	0.826172	-0.106934	-5.185404	17.835335	27.291442
44860		-3.150985	-0.813093	9.414660	0.043738	-0.026607	0.012896	-0.221680	0.828369	-0.108887	-5.155393	17.829563	27.298395
44861		-3.163103	-0.778731	9.425271	0.044014	-0.025921	0.009269	-0.226807	0.829102	-0.108398	-5.126421	17.815498	27.302822
44862		-3.161481	-0.777318	9.372060	0.053773	-0.030592	-0.004449	-0.222412	0.827148	-0.114258	-5.093775	17.806542	27.299578
44863		-3.164286	-0.852220	9.367494	0.072967	-0.025762	-0.013068	-0.228516	0.831055	-0.112305	-5.052316	17.791431	27.290590
44864		-3.159735	-0.773177	9.397411	0.091714	-0.027767	-0.015188	-0.219727	0.831543	-0.115234	-4.999952	17.783540	27.280734
44865		-3.211049	-0.836241	9.415636	0.099268	-0.036699	-0.022428	-0.221924	0.828613	-0.110840	-4.944967	17.761737	27.266679
44866		-3.041765	-0.875835	9.319178	0.105475	-0.050093	-0.017366	-0.222900	0.832520	-0.110107	-4.884773	17.741001	27.256637
44867		-3.008102	-0.926049	9.302978	0.106118	-0.048450	0.001774	-0.224365	0.832520	-0.107422	-4.821267	17.713690	27.257641
44868		-3.109282	-0.783407	9.419392	0.105755	-0.052748	0.018026	-0.221191	0.824219	-0.107666	-4.754455	17.693120	27.268873
44869		-3.138802	-0.794115	9.434921	0.093899	-0.055545	0.020867	-0.225342	0.829590	-0.114258	-4.694389	17.662657	27.281607
44870		-3.031673	-0.791426	9.424370	0.080483	-0.043811	0.019705	-0.229004	0.825928	-0.117920	-4.641914	17.647226	27.293343
44871		-3.066200	-0.879187	9.356925	0.083720	-0.028892	0.037368	-0.232422	0.826416	-0.123291	-4.585101	17.632722	27.314612
44872		-3.266668	-0.853584	9.439105	0.086453	-0.053124	0.049713	-0.220947	0.824951	-0.117432	-4.523658	17.613285	27.344722
44873		-3.185152	-0.782701	9.556115	0.078789	-0.067386	0.061301	-0.228760	0.820557	-0.109375	-4.464814	17.577825	27.382108
44874		-3.134867	-0.725418	9.663298	0.041840	-0.045980	0.079322	-0.228271	0.827637	-0.118164	-4.423727	17.563721	27.429562
44875		-3.193043	-0.677554	9.619095	-0.019571	-0.026363	0.084751	-0.225830	0.818604	-0.121338	-4.417613	17.552686	27.479044
44876		-3.126563	-0.712406	9.510809	-0.038857	-0.009649	0.086868	-0.218262	0.817383	-0.110596	-4.421902	17.559628	27.529329
44877		-3.188609	-0.737392	9.492047	-0.043496	-0.003862	0.090440	-0.224121	0.820313	-0.117920	-4.428780	17.561702	27.581177
44878		-3.143599	-0.756668	9.491980	-0.042646	-0.004036	0.096185	-0.225586	0.823730	-0.104736	-4.433609	17.572254	27.636792
44879		-3.135966	-0.737004	9.500914	-0.048888	0.004666	0.097937	-0.214600	0.822998	-0.110107	-4.442326	17.579542	27.692740
44880		-3.173855	-0.699512	9.509638	-0.053088	0.001269	0.102242	-0.221436	0.823486	-0.116211	-4.452085	17.593388	27.751748
44881		-3.077690	-0.853577	9.572055	-0.058533	-0.013115	0.112339	-0.212891	0.822754	-0.105469	-4.463452	17.591179	27.817159
44882		-3.282714	-0.586605	9.537534	-0.120057	-0.045878	0.230683	-0.215576	0.819580	-0.120117	-4.487643	17.583837	27.955346
44883		-3.216209	-0.628538	9.375027	-0.072653	-0.038217	0.117260	-0.225342	0.824463	-0.107666	-4.505872	17.567553	28.024884
44884		-3.145137	-0.723832	9.456854	-0.062037	-0.049751	0.102780	-0.221191	0.825684	-0.108398	-4.519903	17.552316	28.086631
44885		-3.069529	-0.745727	9.435474	-0.064781	-0.057476	0.104886	-0.221924	0.820801	-0.101563	-4.535625	17.524509	28.149666
44886		-3.138431	-0.738157	9.482364	-0.072089	-0.085257	0.122097	-0.219238	0.820557	-0.110596	-4.551464	17.489875	28.224672
44887		-3.081257	-0.682686	9.435445	-0.067693	-0.075695	0.114815	-0.216553	0.817627	-0.115234	-4.566881	17.452148	28.294515
44888		-2.922956	-0.703280	9.401389	-0.063808	-0.095514	0.114697	-0.210938	0.817871	-0.114014	-4.579227	17.411331	28.365582
44889		-3.129499	-0.784271	9.525549	-0.065815	-0.147462	0.129583	-0.224854	0.818359	-0.115723	-4.590022	17.333321	28.447685
44890		-2.991934	-0.738892	9.434942	-0.069280	-0.138975	0.146729	-0.215576	0.814697	-0.116211	-4.599323	17.269143	28.539978
44891		-3.042316	-0.763451	9.420276	-0.064462	-0.142982	0.145113	-0.214111	0.821533	-0.118652	-4.606860	17.194432	28.631115
44892		-3.104497	-0.693956	9.466846	-0.052818	-0.168630	0.143721	-0.217529	0.814209	-0.109619	-4.607057	17.113166	28.722986
44893		-3.031813	-0.683489	9.458168	-0.030832	-0.175957	0.113278	-0.208984	0.810059	-0.117432	-4.600716	17.018159	28.796610
44894		-3.054900	-0.711475	9.499065	-0.016842	-0.156648	0.081261	-0.217773	0.821045	-0.123291	-4.591627	16.940833	28.850513
44895		-3.059830	-0.691620	9.481548	0.008966	-0.151454	0.045902	-0.212158	0.812256	-0.111084	-4.574750	16.856711	28.882647
44896		-2.826598	-0.676190	9.629096	0.024533	-0.128551	0.022223	-0.221924	0.814453	-0.116211	-4.552688	16.792693	28.899893
44897		-2.825074	-0.625956	9.596362	0.019154	-0.047884	0.006327	-0.212891	0.821045	-0.119873	-4.538294	16.765908	28.903428
44898		-2.741450	-0.617031	9.690699	0.022112	0.065012	-0.027654	-0.214111	0.814941	-0.115723	-4.528866	16.810121	28.881721
44899		-2.774993	-0.666320	9.691145	0.021948	0.195054	-0.065543	-0.213135	0.817871	-0.116699	-4.528643	16.918843	28.830871
44900		-2.876236	-0.851150	9.601070	0.048261	0.247491	-0.062665	-0.210449	0.816406	-0.118408	-4.512936	17.065634	28.779624
44901		-2.825677	-0.792722	9.652888	0.057543	0.315294	-0.062988	-0.211182	0.821777	-0.116211	-4.493793	17.243172	28.724612
44902		-2.773468	-0.838427	9.611099	0.059381	0.364142	-0.028371	-0.212891	0.818115	-0.102295	-4.467563	17.458102	28.688415
44903		-2.913630	-0.817150	9.722025	0.085050	0.494883	-0.039854	-0.211914	0.816406	-0.103027	-4.431394	17.739304	28.638934
44904		-2.679289	-1.076400	9.465949	0.108536	0.543868	0.033947	-0.213135	0.820557	-0.104736	-4.368354	18.059616	28.632041
44905		-2.495315	-1.251861	9.340055	0.199004	0.578184	0.119169	-0.207764	0.816406	-0.107910	-4.238489	18.395368	28.675023
44906		-1.750939	-1.345064	10.058959	0.411989	0.781869	0.177607	-0.207031	0.815430	-0.112549	-3.976837	18.857493	28.746097
44907		-1.260444	-1.992518	9.976647	0.657158	1.414101	0.263503	-0.198975	0.807129	-0.093506	-3.564712	19.676196	28.846696
44908		0.607124	-2.514297	10.652627	0.873800	2.030993	0.558295	-0.186768	0.806641	-0.096680	-2.968601	20.863875	29.114218
44909		2.813579	-2.335811	13.147615	1.166915	3.237969	1.075918	-0.175537	0.794922	-0.081299	-2.084821	22.744835	29.686835
44910		3.056546	-2.639457	15.681344	1.636447	5.534094	1.517629	-0.158691	0.794922	-0.059814	-0.787938	25.943124	30.551216
44911		3.238492	-1.521265	16.152981	1.406849	8.079148	1.824045	-0.133301	0.787354	-0.025146	0.577213	30.574653	31.725041
44912		0.445877	1.195382	10.927482	1.176304	10.141421	2.010779	-0.111328	0.764160	0.035156	2.104835	36.362056	33.265477
44913		1.386844	1.080518	9.307835	0.980227	11.432210	2.045044	-0.088379	0.754883	0.090332	3.921950	42.842903	35.226985
44914		0.319454	1.356887	8.357445	0.745025	12.514256	2.210099	-0.081543	0.741455	0.177734	6.348356	49.876514	37.980047
44915		-2.308361	1.664973	5.270448	0.283512	13.101675	2.494993	-0.086182	0.732666	0.255615	9.857604	57.111768	42.131582
44916		1.756978	2.405876	5.220169	-0.479552	13.674299	2.973189	-0.106201	0.722900	0.342529	15.651614	64.392652	49.068331
44917		-12.070498	8.104899	19.497318	-1.266134	14.856337	3.821495	-0.122559	0.707031	0.432129	27.783388	71.541246	62.901271
44918		-48.840690	1.596692	50.531545	-1.716402	8.113094	3.180049	-0.113037	0.689941	0.489014	40.260898	74.396899	76.966923
44919		-12.041052	0.634322	42.216997	-2.685765	1.080349	2.607111	-0.084717	0.653809	0.521484	44.075894	73.854232	82.530242
44920		-7.566646	-4.389207	31.125177	-3.266851	-0.303945	2.574945	-0.055420	0.614990	0.535400	45.270907	72.690315	85.731000
44921		-3.393890	-8.010252	19.608283	-2.793354	-1.831037	2.418029	-0.010010	0.573486	0.534912	44.407956	70.971535	86.504741
44922		-1.546519	-9.508335	11.783250	-2.085145	-2.497025	2.142664	0.036133	0.538574	0.524170	42.912900	69.084767	86.185563
44923		-0.773063	-9.225242	7.935128	-1.363421	-2.765738	1.820794	0.065186	0.515381	0.500488	41.406496	67.211793	85.401799
44924		-1.032383	-8.911084	7.003674	-0.908764	-2.771379	1.406582	0.084717	0.486084	0.470459	39.892530	65.477364	84.319345
44925		-1.680059	-8.546730	7.336945	-0.727344	-2.713151	0.872508	0.100586	0.475342	0.452148	38.222855	63.957021	82.931187
44926		-1.771445	-7.965838	7.748277	-0.683611	-2.757005	0.339115	0.116455	0.467773	0.424561	36.213100	62.576213	81.122878
44927		-1.617567	-7.662102	8.057577	-0.655734	-2.878932	-0.108133	0.118652	0.463867	0.395996	33.964074	61.263635	78.997137
44928		-1.757877	-7.200373	8.498496	-0.705016	-3.006404	-0.570544	0.129150	0.468750	0.367188	31.390403	59.983482	76.512181
44929		-1.934947	-6.398019	8.721674	-0.858602	-3.131381	-1.076090	0.118408	0.472168	0.345703	28.483717	58.737660	73.703193
44930		-2.157079	-5.348626	8.783525	-1.026793	-3.252365	-1.536102	0.112793	0.483398	0.318115	25.252254	57.464207	70.596269
44931		-2.692263	-4.196852	9.056598	-1.138124	-3.354935	-1.925016	0.096436	0.500000	0.279053	21.879091	56.144146	67.342241
44932		-3.355597	-3.054840	9.620549	-1.173061	-3.455783	-2.223833	0.091064	0.503906	0.249023	18.453668	54.713182	64.006039
44933		-4.250932	-1.733168	10.759468	-1.159352	-3.572345	-2.435048	0.066406	0.512451	0.239014	15.141907	53.157493	60.728631
44934		-5.419571	-0.496300	11.954516	-1.127328	-3.759273	-2.563863	0.049805	0.531982	0.233154	11.973196	51.393550	57.547371
44935		-6.375210	0.528956	12.620267	-1.077279	-4.008212	-2.614428	0.035645	0.550781	0.207031	9.067677	49.409450	54.575373
44936		-7.021505	1.451922	12.808286	-1.007568	-4.240817	-2.599755	0.019775	0.554443	0.181641	6.446029	47.185972	51.845834
44937		-7.731858	2.312012	12.884035	-0.947309	-4.457270	-2.529967	0.005371	0.560303	0.159668	4.164649	44.777359	49.425669
44938		-8.317982	2.902563	12.687356	-0.911954	-4.639988	-2.407719	-0.007813	0.576904	0.126953	2.180948	42.180578	47.310709
44939		-8.797150	3.105228	12.441070	-0.907226	-4.776498	-2.265669	-0.025146	0.589600	0.100342	0.484775	39.475042	45.508496
44940		-9.158137	3.239044	12.278101	-0.958509	-4.851221	-2.155570	-0.033691	0.608154	0.078369	-1.033060	36.670010	43.945980
44941		-9.586211	3.245642	12.218519	-1.047248	-4.879186	-2.068258	-0.055420	0.628418	0.047607	-2.410601	33.840353	42.595523
44942		-9.863224	2.987734	12.140121	-1.104863	-4.857810	-1.995799	-0.085693	0.651367	0.028564	-3.683184	30.980306	41.410158
44943		-10.149455	2.604144	12.621835	-1.098902	-4.805992	-1.911971	-0.108154	0.663330	0.011230	-4.816034	28.153288	40.386075
44944		-10.564823	1.986422	13.496939	-1.056751	-4.744410	-1.831477	-0.135254	0.692139	0.011475	-5.826996	25.329698	39.492205
44945		-11.210105	1.268470	14.815509	-0.974385	-4.723089	-1.762082	-0.158447	0.707520	-0.010254	-6.698477	22.529751	38.714665
44946		-12.547171	0.321880	16.494405	-0.878689	-4.753409	-1.715292	-0.180420	0.722412	0.004395	-7.453170	19.686911	38.023887
44947		-14.603426	-0.834079	17.875189	-0.719636	-4.857435	-1.695573	-0.207031	0.747070	-0.002197	-8.057515	16.798283	37.403300
44948		-16.743586	-1.866731	17.788241	-0.496017	-5.055624	-1.712743	-0.229004	0.768066	-0.000244	-8.496104	13.772772	36.824820
44949		-17.967868	-2.238903	15.810954	-0.224553	-5.212871	-1.725076	-0.244873	0.779541	-0.009033	-8.737698	10.671724	36.280385
44950		-18.326689	-1.841460	12.757818	0.036070	-5.211486	-1.694872	-0.266602	0.784668	-0.005859	-8.800072	7.557246	35.766044
44951		-18.584577	-1.188964	9.630426	0.196264	-5.017639	-1.618066	-0.271973	0.808350	-0.014404	-8.736261	4.574709	35.282968
44952		-18.862907	-0.157945	6.823358	0.205111	-4.672431	-1.519273	-0.285156	0.812500	-0.002686	-8.645557	1.784583	34.823486
44953		-19.047178	0.440464	4.176142	0.058814	-4.208717	-1.447947	-0.289063	0.818604	-0.004883	-8.613720	-0.723924	34.362691
44954		-18.434398	0.976993	1.787307	-0.137950	-3.667971	-1.395593	-0.291016	0.826416	0.006104	-8.678544	-2.930552	33.885441
44955		-17.378691	0.806589	-0.186195	-0.284768	-3.052232	-1.340922	-0.289551	0.831787	0.002930	-8.805912	-4.775719	33.388355
44956		-17.827253	0.395656	-1.554625	-0.389960	-2.441720	-1.361433	-0.276367	0.841797	0.010498	-8.976103	-6.283845	32.829151
44957		-18.299444	0.302116	-3.055061	-0.328793	-1.867051	-1.371228	-0.278320	0.844482	0.017090	-9.088512	-7.463587	32.214352
44958		-18.065676	0.585082	-4.506214	-0.158520	-1.279933	-1.335289	-0.271484	0.862061	0.024658	-9.090952	-8.310678	31.566656
44959		-17.695428	1.090586	-5.165957	-0.027969	-0.668449	-1.325821	-0.281738	0.872803	0.033447	-9.000362	-8.808259	30.866464
44960		-17.215571	1.717532	-4.782854	0.017639	-0.056794	-1.323645	-0.286377	0.869385	0.052979	-8.874068	-8.957151	30.111427
44961		-17.383620	2.880345	-4.600449	0.007543	0.536752	-1.322905	-0.271729	0.875732	0.062500	-8.742823	-8.769211	29.303237
44962		-9.398110	5.534325	-22.593122	-0.100603	3.188207	-1.199102	-0.284668	0.892090	0.092773	-8.667467	-7.063396	28.336601
44963		-19.692389	4.032260	-9.648853	-0.103511	4.555323	-0.806761	-0.287109	0.885254	0.131104	-8.637702	-4.552484	27.480220
44964		2.841960	6.599841	-2.171586	-0.317556	4.229922	-0.516006	-0.295654	0.905762	0.165039	-8.780504	-2.195257	26.817854
44965		4.654868	5.566065	10.592137	-0.997367	5.688620	-0.213483	-0.307129	0.899902	0.242920	-9.343090	1.004243	26.181352
44966		-8.116198	3.476745	18.079518	-1.169728	6.211453	0.565777	-0.318115	0.894531	0.283691	-10.025898	4.572468	25.899622
44967		-14.860988	4.188872	19.310144	-1.092702	5.045769	0.743136	-0.331787	0.907715	0.336426	-10.660554	7.492967	25.796445
44968		-5.065350	5.581769	12.218838	-1.827069	4.739668	0.756949	-0.350098	0.904297	0.401367	-11.721228	10.248445	25.691386
44969		-9.464881	-1.667570	15.810511	-1.491653	5.034174	0.957369	-0.364746	0.893799	0.452637	-12.588918	13.183578	25.616318
44970		-23.244927	-14.486532	34.177129	-0.145490	4.414838	1.048434	-0.381592	0.890869	0.479248	-12.660810	15.791377	25.648662
44971		-27.689939	-18.903494	36.160240	1.209466	2.134440	0.300000	-0.404297	0.889893	0.491943	-11.993557	17.022763	25.549022
44972		-1.133049	3.431684	8.282516	1.396648	0.022754	0.268425	-0.402100	0.890137	0.479248	-11.146979	17.077294	25.701438
44973		-0.950544	0.441342	9.149682	1.117109	1.108482	0.078589	-0.409424	0.903320	0.482910	-10.528831	17.709553	25.620104
44974		-8.794910	-3.703664	14.728664	1.197818	0.620080	0.109066	-0.399414	0.906494	0.475098	-9.841325	18.080921	25.616441
44975		-3.995752	0.587531	11.598237	1.043658	0.177292	0.115519	-0.415527	0.913574	0.468506	-9.225876	18.192127	25.664879
44976		-4.953116	-1.065138	11.992345	0.766758	0.211789	0.034562	-0.415039	0.914063	0.468506	-8.784616	18.326093	25.663241
44977		-4.919447	-0.927032	12.026709	0.614097	-0.015414	0.055208	-0.414063	0.913086	0.470947	-8.420370	18.322197	25.695033
44978		-4.163251	-0.382957	11.564507	0.358429	-0.074921	0.010763	-0.411865	0.914795	0.475098	-8.209014	18.291776	25.705819
44979		-3.896312	-0.915812	10.733113	0.155945	-0.098939	-0.014741	-0.416748	0.909912	0.462891	-8.118165	18.234587	25.702947
44980		-3.449361	-0.986243	10.068765	0.036830	-0.095401	-0.029826	-0.417236	0.916504	0.468994	-8.097986	18.189238	25.691126
44981		-3.388979	-1.267010	9.791190	-0.033208	-0.084846	-0.030664	-0.418701	0.918945	0.467285	-8.118863	18.138759	25.677493
44982		-3.209198	-1.365697	9.399670	-0.056552	-0.081475	-0.022086	-0.422363	0.916504	0.462891	-8.151045	18.101895	25.669150
44983		-3.126782	-1.377814	9.302219	-0.055154	-0.067262	-0.021413	-0.416992	0.920654	0.458740	-8.183213	18.062129	25.659592
44984		-3.158151	-1.345103	9.368960	-0.052932	-0.058345	-0.008057	-0.415771	0.917725	0.468018	-8.211329	18.039473	25.657684
44985		-3.188040	-1.303062	9.358729	-0.058370	-0.038938	-0.009958	-0.411621	0.914551	0.472900	-8.243958	18.016698	25.652562
44986		-3.176484	-1.358406	9.392178	-0.070727	-0.031353	-0.003902	-0.418701	0.913574	0.468262	-8.282212	18.009642	25.650833
44987		-3.126786	-1.443323	9.174013	-0.057880	-0.028377	-0.002443	-0.424072	0.913086	0.462891	-8.313448	17.993469	25.649303
44988		-3.105338	-1.396185	9.173487	-0.029360	-0.025896	-0.001335	-0.418213	0.911865	0.459961	-8.327682	17.989674	25.648645
44989		-3.110748	-1.348635	9.195343	-0.012957	-0.017274	-0.007662	-0.423828	0.914063	0.469727	-8.334436	17.979363	25.643045
44990		-3.059533	-1.355857	9.227742	0.000356	-0.005977	-0.008526	-0.414063	0.915283	0.461670	-8.333513	17.986217	25.636361
44991		-3.087528	-1.288317	9.172768	0.007332	0.017940	-0.020182	-0.422852	0.917725	0.464844	-8.331897	17.994829	25.620225
44992		-2.988320	-1.431730	8.986756	0.034202	0.023383	-0.020861	-0.420166	0.916016	0.475586	-8.314653	18.017254	25.603625
44993		-2.912453	-1.563050	8.801534	0.092009	0.031625	-0.023659	-0.425537	0.916992	0.465820	-8.265538	18.033349	25.584231
44994		-3.166103	-1.466219	9.208486	0.138293	0.047093	-0.014573	-0.416504	0.915527	0.471436	-8.188182	18.069702	25.569338
44995		-3.223234	-1.316048	9.262748	0.160162	0.043509	-0.016042	-0.421631	0.918945	0.462402	-8.098929	18.093203	25.553511
44996		-3.129138	-1.315878	9.109998	0.193398	0.032334	-0.027657	-0.419189	0.916260	0.466064	-7.992052	18.120144	25.532129
44997		-3.180007	-1.288977	9.243092	0.227753	0.039525	-0.041845	-0.423828	0.922607	0.466797	-7.868749	18.139400	25.501313
44998		-3.185924	-1.207957	9.298551	0.244947	0.026756	-0.053590	-0.424805	0.918701	0.462891	-7.737031	18.161204	25.464958
44999		-3.282119	-1.302471	9.315269	0.261555	0.023210	-0.065942	-0.421387	0.921387	0.456787	-7.598432	18.169488	25.421141
45000		-3.209275	-1.507941	9.148876	0.279099	-0.030798	-0.044098	-0.430420	0.927979	0.453125	-7.443969	18.159448	25.395054
45001		-3.122671	-1.398659	9.042354	0.325291	-0.056694	-0.024922	-0.427734	0.920654	0.454102	-7.259262	18.125563	25.381985
45002		-3.231692	-1.329385	9.289746	0.355325	-0.079669	-0.010868	-0.424316	0.922363	0.455811	-7.053883	18.090235	25.379296
45003		-3.357564	-1.096548	9.576492	0.356878	-0.110066	0.009124	-0.434570	0.923340	0.448975	-6.843615	18.028444	25.390241
45004		-3.391123	-0.617995	10.168305	0.271764	-0.102703	0.008636	-0.427002	0.924805	0.445801	-6.682108	17.981317	25.400523
45005		-3.227388	-1.096210	9.557062	0.215556	-0.099864	-0.005119	-0.426758	0.922607	0.441406	-6.555792	17.924332	25.401859
45006		-3.247661	-0.945256	9.666568	0.179522	-0.093319	-0.000557	-0.429688	0.926758	0.449219	-6.449068	17.881861	25.405735
45007		-3.156837	-0.988658	9.551942	0.146900	-0.086438	0.004859	-0.431396	0.927734	0.436768	-6.360607	17.833155	25.411912
45008		-3.083680	-1.079225	9.362478	0.125942	-0.071131	0.008334	-0.433350	0.928223	0.440674	-6.283441	17.803820	25.419465
45009		-3.043718	-1.045086	9.353289	0.130086	-0.059359	0.012772	-0.426758	0.934326	0.446533	-6.203760	17.771013	25.428458
45010		-3.042133	-1.041831	9.378636	0.121988	-0.050613	0.031318	-0.427490	0.930908	0.440186	-6.125117	17.754702	25.448313
45011		-2.967148	-1.048286	9.304249	0.109855	-0.044003	0.058218	-0.423828	0.937012	0.439453	-6.049078	17.733382	25.483415
45012		-3.040565	-1.031317	9.297046	0.123217	-0.036059	0.067789	-0.425537	0.930420	0.439453	-5.963399	17.727432	25.524091
45013		-3.124476	-0.971590	9.331947	0.134000	-0.049986	0.071711	-0.424316	0.932129	0.440186	-5.870995	17.703400	25.567565
45014		-3.130611	-0.915249	9.376804	0.138734	-0.061464	0.069030	-0.421875	0.931396	0.443604	-5.775767	17.682867	25.610472
45015		-3.026974	-0.984555	9.360350	0.139423	-0.052461	0.062785	-0.431641	0.934814	0.428711	-5.681893	17.656778	25.648659
45016		-3.091138	-0.872415	9.392190	0.141744	-0.045329	0.064194	-0.419678	0.935547	0.439209	-5.586159	17.644987	25.687606
45017		-3.250704	-0.877982	9.574894	0.145068	-0.053208	0.056064	-0.429199	0.929199	0.438721	-5.490311	17.617979	25.721715
45018		-3.182491	-0.835483	9.465813	0.126485	-0.082556	0.051808	-0.421631	0.925293	0.439453	-5.404957	17.584120	25.755295
45019		-3.072545	-0.897671	9.427923	0.126165	-0.096260	0.053495	-0.419189	0.928467	0.434570	-5.319745	17.532316	25.790183
45020		-3.065191	-0.887275	9.377587	0.127541	-0.099825	0.058851	-0.428223	0.937744	0.436279	-5.232313	17.488836	25.828779
45021		-3.056171	-0.873072	9.381863	0.138234	-0.103161	0.054731	-0.428711	0.931885	0.436768	-5.139964	17.433056	25.864596
45022		-3.023837	-0.866486	9.386247	0.146917	-0.109373	0.061145	-0.422607	0.928223	0.433105	-5.040987	17.384075	25.904869
45023		-3.148074	-0.794861	9.631780	0.130799	-0.111329	0.063232	-0.423584	0.936279	0.429932	-4.951383	17.323944	25.945982
45024		-3.062234	-0.790939	9.590844	0.053550	-0.132957	0.147009	-0.418213	0.933838	0.429932	-4.890399	17.265558	26.038601
45025		-2.988019	-0.822639	9.508816	0.080162	-0.143297	0.095822	-0.422607	0.941650	0.433838	-4.823698	17.188662	26.100636
45026		-3.088822	-0.702310	9.619781	0.072379	-0.153562	0.104074	-0.424072	0.933594	0.431885	-4.759452	17.116197	26.168404
45027		-3.066044	-0.672432	9.634366	0.046945	-0.165793	0.093515	-0.413574	0.930908	0.432617	-4.712087	17.026222	26.229951
45028		-3.078407	-0.604267	9.712851	0.000832	-0.157575	0.078090	-0.419434	0.939453	0.427734	-4.693510	16.950095	26.282219
45029		-2.972860	-0.767116	9.560692	-0.003385	-0.133064	0.071194	-0.429932	0.933105	0.429688	-4.679524	16.877714	26.328710
45030		-3.009485	-0.751828	9.510447	-0.009318	-0.110721	0.071246	-0.417236	0.929443	0.433350	-4.668716	16.827945	26.374533
45031		-2.961687	-0.790834	9.634973	-0.018224	-0.091353	0.077878	-0.416016	0.936035	0.428223	-4.662768	16.779679	26.422926
45032		-2.954435	-0.722157	9.610857	-0.021375	-0.078323	0.077187	-0.414307	0.937744	0.433838	-4.658364	16.748624	26.470684
45033		-2.774755	-0.676724	9.547723	-0.020425	-0.062935	0.066321	-0.410400	0.932129	0.438477	-4.656124	16.716042	26.510779
45034		-2.943126	-0.924334	9.431515	-0.032826	-0.108065	0.085769	-0.410156	0.926514	0.430176	-4.656431	16.668321	26.565083
45035		-2.710117	-0.775941	9.548412	-0.040627	-0.255344	0.130953	-0.416016	0.935059	0.430176	-4.652196	16.528864	26.652997
45036		-2.973450	-0.651474	9.855894	-0.013923	-0.232564	0.086310	-0.415527	0.932373	0.425293	-4.640090	16.409986	26.713573
45037		-2.677453	-0.593602	9.733457	0.000574	-0.078391	0.050888	-0.416016	0.935303	0.435303	-4.628455	16.367847	26.745142
45038		-2.520619	-0.599888	9.803327	0.007899	0.055578	0.016993	-0.412109	0.931152	0.431152	-4.619465	16.410217	26.750514
45039		-2.558422	-0.729998	9.798998	0.010364	0.203011	0.010362	-0.410400	0.945313	0.430420	-4.612856	16.526909	26.744417
45040		-2.620487	-0.816362	9.701056	0.005468	0.327140	0.026934	-0.407715	0.932129	0.431641	-4.607254	16.724688	26.742682
45041		-2.361977	-1.064226	9.793122	-0.020471	0.470948	0.083214	-0.407715	0.924316	0.443848	-4.609479	16.997754	26.767176
45042		-2.563455	-1.168332	9.692773	-0.084055	0.630219	0.210692	-0.418213	0.930908	0.438721	-4.627088	17.376939	26.860617
45043		-2.452141	-1.445551	9.435610	-0.066373	0.688386	0.329557	-0.415039	0.927246	0.441162	-4.613911	17.785559	27.022197
45044		-2.201443	-1.356147	9.580223	-0.013074	0.704739	0.466217	-0.403564	0.935059	0.452637	-4.543117	18.218760	27.266184
45045		-0.686763	-1.416557	10.571682	0.161571	1.251700	0.528836	-0.401611	0.930908	0.445313	-4.366089	18.957581	27.523591
45046		1.558291	-1.836552	11.491528	0.491010	2.443497	0.720171	-0.407959	0.927979	0.461182	-3.971863	20.392851	27.850421
45047		4.121841	-2.172099	13.807704	0.634090	3.994693	1.245041	-0.411133	0.930176	0.465820	-3.383771	22.723020	28.455372
45048		3.863339	-2.045492	16.868410	0.909151	6.612750	1.548944	-0.414307	0.931641	0.482910	-2.544044	26.560185	29.212557
45049		3.969263	-1.709295	15.730411	0.697555	9.252329	1.886585	-0.430420	0.933594	0.508545	-1.646672	31.897881	30.225164
45050		1.218372	0.399030	10.490172	0.597271	11.151999	2.044977	-0.453125	0.927246	0.543213	-0.565261	38.314490	31.503224
45051		1.306771	0.410691	8.166655	0.561498	12.351762	2.109414	-0.487549	0.935059	0.564209	0.857352	45.389482	33.145801
45052		-0.224826	1.563031	6.363686	0.268239	13.193376	2.306252	-0.516113	0.924072	0.607422	2.822796	52.907723	35.531730
45053		-2.492695	0.265753	3.504800	0.161911	13.450239	2.458477	-0.565674	0.937500	0.643799	5.955326	60.487808	39.157382
45054		1.033110	2.165711	4.043035	-0.412116	14.082724	3.088786	-0.621094	0.936035	0.669678	11.992871	68.198434	46.097285
45055		-34.507136	5.486440	29.315475	-1.108500	13.643405	3.314228	-0.667480	0.939209	0.702393	24.148142	75.087948	59.541749
45056		-34.686010	-1.053612	47.363652	-1.172402	5.225566	2.820318	-0.650146	0.927246	0.750732	35.063611	76.903748	71.477340
45057		-10.243338	-2.224245	41.847919	-2.293774	1.486590	2.651729	-0.622803	0.913086	0.809326	41.072710	76.638775	78.997357
45058		-8.215434	-7.599011	30.727723	-2.650335	-0.494517	2.257296	-0.567383	0.885254	0.860596	42.657560	75.560584	82.192821
45059		-4.534840	-10.034998	19.783542	-2.136588	-1.916907	1.961395	-0.500977	0.864502	0.911133	41.776906	73.994011	82.546393
45060		-2.025487	-10.677618	12.075388	-1.364341	-2.634520	1.620367	-0.436279	0.849121	0.954346	40.014182	72.239408	81.521575
45061		-1.299678	-10.175403	8.576432	-0.707807	-2.793337	1.203024	-0.363281	0.836426	0.984863	38.195848	70.564428	80.028611
45062		-1.122130	-9.445559	7.196977	-0.340029	-2.785902	0.705308	-0.294434	0.819092	1.008545	36.213807	69.041937	78.126169
45063		-1.086352	-8.696960	6.987515	-0.179381	-2.759546	0.193258	-0.231689	0.806152	1.028320	34.043587	67.686602	75.899648
45064		-1.120391	-8.227859	7.159108	-0.093392	-2.796924	-0.230098	-0.171875	0.788574	1.036377	31.638550	66.403604	73.349067
45065		-1.424541	-7.585348	7.817386	-0.068450	-2.881017	-0.633984	-0.102539	0.783691	1.041260	29.046234	65.163765	70.547258
45066		-1.786462	-6.571623	8.627581	-0.137155	-3.010213	-1.011841	-0.035889	0.757080	1.027344	26.173977	63.893958	67.457247
45067		-2.138376	-5.349932	9.122830	-0.259599	-3.187662	-1.328060	0.027588	0.741211	0.993164	23.142763	62.552488	64.226278
45068		-2.491774	-4.167045	9.354209	-0.410896	-3.395437	-1.564989	0.089844	0.722656	0.955322	19.983063	61.059688	60.913948
45069		-2.897838	-3.101669	9.470152	-0.585087	-3.585551	-1.745795	0.138916	0.713135	0.910400	16.850566	59.427151	57.689641
45070		-3.207829	-2.253683	9.694557	-0.759055	-3.750663	-1.881365	0.188477	0.701660	0.850098	13.760241	57.622851	54.582628
45071		-3.830494	-1.572848	10.426364	-0.913396	-3.917726	-1.970112	0.220215	0.692139	0.793701	10.833388	55.670478	51.703014
45072		-4.677729	-1.018296	11.241142	-1.014314	-4.123987	-2.025350	0.243408	0.696289	0.723633	8.070762	53.511427	49.033643
45073		-5.260910	-0.491269	11.649135	-1.085615	-4.360092	-2.057680	0.259277	0.687012	0.667236	5.546931	51.170977	46.629088
45074		-5.903329	0.100176	11.889344	-1.114200	-4.565255	-2.056589	0.284912	0.699707	0.602051	3.254445	48.632258	44.474382
45075		-6.679476	0.902885	12.071200	-1.116342	-4.747550	-2.027512	0.297119	0.700195	0.530762	1.240849	45.960036	42.602203
45076		-7.264746	1.830234	12.187107	-1.124028	-4.902544	-1.964271	0.304932	0.715088	0.478271	-0.543717	43.135192	40.984328
45077		-7.636366	2.897358	12.319683	-1.154963	-5.024648	-1.853854	0.301514	0.719238	0.416992	-2.092183	40.232879	39.648049
45078		-8.154583	4.282543	12.693095	-1.251231	-5.091351	-1.711990	0.312744	0.721924	0.372314	-3.493052	37.247711	38.563028
45079		-8.840620	5.761903	13.075502	-1.413544	-5.120460	-1.522058	0.300293	0.729492	0.325684	-4.776529	34.258920	37.749031
45080		-9.477883	6.855018	13.066347	-1.568104	-5.111263	-1.273451	0.313477	0.732666	0.271484	-5.974201	31.250943	37.203194
45081		-10.302338	7.077769	13.182488	-1.655919	-5.041678	-0.942641	0.319824	0.736084	0.213379	-7.041928	28.319896	36.959397
45082		-11.222469	6.478489	13.350472	-1.692607	-4.926319	-0.621059	0.318115	0.738525	0.155518	-8.008463	25.451550	36.972129
45083		-12.185075	4.825492	13.595526	-1.689685	-4.760420	-0.352094	0.306641	0.737061	0.109863	-8.885520	22.724126	37.189752
45084		-14.108979	1.186421	14.150384	-1.589580	-4.598532	-0.218727	0.291748	0.734619	0.067627	-9.681375	20.081362	37.508537
45085		-15.889602	-3.391391	13.539294	-1.345819	-4.498567	-0.319662	0.295898	0.724609	0.035156	-10.359752	17.511383	37.789190
45086		-17.055100	-7.391551	11.998800	-0.937190	-4.412009	-0.640434	0.284668	0.722412	-0.011719	-10.868853	14.938937	37.894229
45087		-18.372469	-9.378890	10.652545	-0.467541	-4.261995	-1.135937	0.275391	0.721924	-0.046387	-11.176818	12.417607	37.714799
45088		-19.893416	-8.893310	10.244273	-0.062824	-4.053381	-1.675814	0.254395	0.730957	-0.087891	-11.312814	9.935270	37.212568
45089		-21.957427	-6.955124	10.406903	0.213572	-3.890459	-2.116312	0.241943	0.742432	-0.122314	-11.303793	7.511664	36.449455
45090		-23.681917	-3.974813	10.124186	0.229508	-3.830926	-2.492764	0.212646	0.756592	-0.169189	-11.283136	5.066052	35.469478
45091		-23.190419	-0.907789	6.927854	0.131887	-3.779752	-2.745118	0.183350	0.771484	-0.210938	-11.280628	2.634473	34.345840
45092		-21.698339	1.737737	2.399277	0.085878	-3.529325	-2.837559	0.162842	0.795166	-0.249268	-11.265729	0.324635	33.143627
45093		-20.050235	4.372249	-1.118431	0.092086	-3.052495	-2.790462	0.139404	0.817383	-0.273438	-11.195770	-1.702295	31.913609
