// General information: 
//  MT Manager version: 2022.2.0 
//  XDA version: 2022.2.0 build 7381 rev 124627 built on 2023-07-19
// Device information: 
//  DeviceId: 00B4BCF6
//  ProductCode: MTW2-3A7G6
//  Firmware Version: 4.6.0
//  Hardware Version: 2.0.0
// Device settings: 
//  Filter Profile: human(46.1)
//  Option Flags: Orientation Smoother Disabled, Position/Velocity Smoother Disabled, Continuous Zero Rotation Update Disabled, AHS Disabled, ICC Disabled
// Coordinate system: ENU
PacketCounter	SampleTimeFine	Acc_X	Acc_Y	Acc_Z	Gyr_X	Gyr_Y	Gyr_Z	Mag_X	Mag_Y	Mag_Z	Roll	Pitch	Yaw
59483		9.563078	-0.024702	2.076803	-0.005948	0.007121	-0.005714	-0.608398	0.013428	-0.497070	-0.268849	-79.216848	-175.614500
59484		9.548551	-0.040182	2.050245	-0.000059	0.000603	-0.007981	-0.607178	0.010010	-0.496094	-0.260641	-79.219513	-175.620913
59485		9.542329	-0.002237	2.031406	-0.002963	0.001396	-0.006226	-0.604736	0.009766	-0.494385	-0.256983	-79.219791	-175.624439
59486		9.548879	-0.042519	2.074548	-0.003450	0.000185	-0.009510	-0.606934	0.012695	-0.499268	-0.246116	-79.222699	-175.635536
59487		9.568444	-0.051970	2.048087	-0.002975	0.001516	-0.007822	-0.606934	0.017090	-0.492188	-0.237727	-79.222873	-175.643898
59488		9.542984	-0.007599	2.079963	-0.002952	0.001275	-0.004630	-0.608887	0.011475	-0.499023	-0.241246	-79.225145	-175.640060
59489		9.568064	-0.047249	2.024077	0.000948	-0.001425	-0.006555	-0.608154	0.013184	-0.490479	-0.234554	-79.226980	-175.644380
59490		9.514778	-0.046046	2.074566	-0.006412	0.005668	-0.005805	-0.607910	0.016357	-0.494141	-0.236465	-79.226738	-175.644198
59491		9.568670	-0.053503	2.072887	-0.002975	0.001516	-0.007822	-0.605713	0.018311	-0.501953	-0.228258	-79.226868	-175.652367
59492		9.548380	-0.035077	2.051135	-0.001008	-0.002058	-0.011356	-0.612061	0.018311	-0.489502	-0.210442	-79.231064	-175.669113
59493		9.548044	-0.030452	2.026912	-0.003450	0.000185	-0.009510	-0.606934	0.015137	-0.499512	-0.197577	-79.231907	-175.682256
59494		9.562820	-0.017137	2.078069	-0.002999	0.001758	-0.011013	-0.609131	0.015381	-0.494873	-0.181879	-79.233915	-175.698008
59495		9.582018	-0.022892	2.027544	-0.002964	0.001395	-0.006225	-0.614746	0.007324	-0.498047	-0.178573	-79.234010	-175.701168
59496		9.548330	-0.031918	2.051419	-0.002964	0.001395	-0.006225	-0.610352	0.009033	-0.495850	-0.177281	-79.236216	-175.702234
59497		9.582670	-0.029079	2.076129	-0.001055	0.002512	-0.007808	-0.610840	0.018555	-0.498291	-0.167880	-79.235673	-175.710469
59498		9.534151	-0.050433	2.049149	-0.003497	0.004755	-0.005962	-0.611572	0.015381	-0.493164	-0.167657	-79.235954	-175.710759
59499		9.562198	-0.010482	2.055180	-0.002027	0.004178	-0.004445	-0.606445	0.020996	-0.492432	-0.169399	-79.234411	-175.708196
59500		9.568045	-0.043625	2.050143	-0.001968	-0.000513	-0.006396	-0.606201	0.020508	-0.495605	-0.167036	-79.237711	-175.709772
59501		9.547703	-0.025682	2.028587	-0.002016	0.004057	-0.002849	-0.617920	0.018066	-0.497314	-0.173856	-79.236177	-175.702116
59502		9.547994	-0.028960	2.053027	-0.001043	0.002391	-0.006212	-0.603027	0.010498	-0.504395	-0.171494	-79.237813	-175.703152
59503		9.567540	-0.038587	2.026737	-0.002501	0.002847	-0.006133	-0.612549	0.011230	-0.497803	-0.168360	-79.236937	-175.705829
59504		9.567505	-0.038109	2.026911	-0.001493	0.000819	-0.004708	-0.605713	0.012207	-0.500488	-0.170802	-79.239471	-175.702236
59505		9.547879	-0.027397	2.053583	-0.004434	0.001972	-0.007741	-0.614746	0.010986	-0.497559	-0.163991	-79.239086	-175.709864
59506		9.533771	-0.046510	2.051009	0.002336	0.002933	-0.006278	-0.608643	0.011963	-0.505615	-0.159489	-79.240411	-175.711107
59507		9.567369	-0.036198	2.027587	-0.003983	0.003544	-0.009245	-0.614258	0.010254	-0.497803	-0.147944	-79.239102	-175.723231
59508		9.561784	-0.005633	2.057121	-0.000035	0.000363	-0.004787	-0.607666	0.012451	-0.503418	-0.149312	-79.241898	-175.719882
59509		9.533670	-0.044590	2.051522	-0.003437	0.000064	-0.007913	-0.607178	0.014893	-0.497559	-0.141595	-79.242558	-175.727826
59510		9.533647	-0.043886	2.051644	-0.001055	0.002513	-0.007807	-0.610352	0.015137	-0.498291	-0.134422	-79.244126	-175.733765
59511		9.567623	-0.037342	2.052234	-0.002964	0.001395	-0.006224	-0.612549	0.018799	-0.499023	-0.131745	-79.243994	-175.736326
59512		9.548007	-0.026549	2.078820	-0.001979	-0.000392	-0.007991	-0.608887	0.010498	-0.494141	-0.124562	-79.247226	-175.742814
59513		9.567272	-0.032304	2.028111	-0.001979	-0.000392	-0.007991	-0.610352	0.018066	-0.496338	-0.115990	-79.248103	-175.750777
59514		9.547677	-0.021382	2.054592	-0.005369	-0.000813	-0.009521	-0.607666	0.012695	-0.495850	-0.106129	-79.251578	-175.761969
59515		9.547704	-0.020793	2.054474	-0.003876	-0.001631	-0.004813	-0.607666	0.011963	-0.499268	-0.108345	-79.253125	-175.760092
59516		9.567683	-0.034064	2.052016	-0.000058	0.000606	-0.007978	-0.602783	0.019531	-0.488281	-0.100085	-79.255785	-175.766556
59517		9.547360	-0.015870	2.030298	-0.001967	-0.000513	-0.006395	-0.598633	0.010986	-0.499756	-0.096543	-79.256653	-175.769515
59518		9.547709	-0.019005	2.054471	-0.002964	0.001394	-0.006224	-0.607422	0.013672	-0.495117	-0.095238	-79.258860	-175.770596
59519		9.567313	-0.028526	2.027977	-0.001979	-0.000391	-0.007991	-0.617432	0.016846	-0.495361	-0.086797	-79.259609	-175.778544
59520		9.547687	-0.017845	2.054581	-0.004411	0.001728	-0.004549	-0.607666	0.011230	-0.493408	-0.091377	-79.261623	-175.774477
59521		9.581665	-0.011466	2.055136	-0.002964	0.001394	-0.006223	-0.613037	0.022461	-0.491455	-0.088793	-79.261388	-175.776850
59522		9.533607	-0.036725	2.051970	-0.003414	-0.000179	-0.004720	-0.611816	0.012695	-0.492676	-0.092293	-79.264494	-175.773302
59523		9.566872	-0.022808	2.004275	-0.003985	0.003544	-0.009242	-0.608887	0.015625	-0.500000	-0.081315	-79.262997	-175.784831
59524		9.533191	-0.031759	2.028142	-0.001967	-0.000512	-0.006395	-0.604248	0.022705	-0.500732	-0.078925	-79.266296	-175.786434
59525		9.587527	-0.042684	2.050295	-0.001517	0.001061	-0.007898	-0.610596	0.010986	-0.496338	-0.070751	-79.266134	-175.793718
59526		9.533559	-0.034065	2.052239	-0.000981	-0.002298	-0.008162	-0.607666	0.009033	-0.494141	-0.062455	-79.270457	-175.800757
59527		9.533600	-0.033345	2.052062	-0.003899	-0.001389	-0.008004	-0.614502	0.013184	-0.491943	-0.055103	-79.271716	-175.808704
59528		9.553615	-0.046543	2.049488	-0.002428	-0.001965	-0.006487	-0.611084	0.010986	-0.497559	-0.052692	-79.275847	-175.810597
59529		9.581341	-0.002542	2.030869	-0.000532	-0.000724	-0.009664	-0.604980	0.013916	-0.501465	-0.038499	-79.276715	-175.823431
59530		9.513726	-0.017363	2.054016	-0.004360	-0.002842	-0.008096	-0.607178	0.016602	-0.491211	-0.032321	-79.281349	-175.830284
59531		9.573735	-0.058195	2.046472	-0.002889	-0.003417	-0.006580	-0.611328	0.014160	-0.494141	-0.029052	-79.283692	-175.833459
59532		9.547505	-0.006508	2.029666	-0.002889	-0.003417	-0.006580	-0.607422	0.023438	-0.494385	-0.026616	-79.288656	-175.835646
59533		9.567855	-0.023317	2.051364	-0.002529	0.003089	-0.009320	-0.607666	0.011963	-0.498291	-0.014921	-79.287282	-175.847064
59534		9.499836	-0.034407	2.050618	-0.002452	-0.001722	-0.009677	-0.613281	0.013672	-0.497559	-0.002842	-79.291274	-175.858811
59535		9.587489	-0.031773	2.024780	-0.001979	-0.000391	-0.007989	-0.605713	0.009521	-0.493652	0.005316	-79.291846	-175.866384
59536		9.573813	-0.054554	2.046210	-0.002517	0.002968	-0.007724	-0.612549	0.022949	-0.492920	0.011449	-79.293151	-175.872116
59537		9.567485	-0.016625	2.027298	-0.002888	-0.003418	-0.006579	-0.614258	0.013672	-0.501465	0.014592	-79.295463	-175.875119
59538		9.533489	-0.021981	2.026871	-0.002517	0.002968	-0.007724	-0.607178	0.011963	-0.498291	0.020726	-79.296768	-175.880853
59539		9.567478	-0.015461	2.027340	-0.003875	-0.001633	-0.004812	-0.608154	0.009033	-0.503906	0.018054	-79.297998	-175.878496
59540		9.553826	-0.038631	2.048668	-0.001023	0.002149	-0.003018	-0.604248	0.013916	-0.489258	0.010778	-79.299772	-175.869711
59541		9.553427	-0.034452	2.024713	-0.002978	0.001515	-0.007816	-0.616943	0.009766	-0.502930	0.017629	-79.299185	-175.876692
59542		9.553764	-0.037620	2.048974	-0.002954	0.001272	-0.004626	-0.611084	0.006836	-0.491699	0.014123	-79.301461	-175.872870
59543		9.533372	-0.019564	2.027444	-0.001059	0.002514	-0.007803	-0.609619	0.018066	-0.497803	0.022155	-79.300316	-175.879760
59544		9.573297	-0.046517	2.022911	-0.000586	0.003845	-0.006115	-0.604980	0.020752	-0.503906	0.024518	-79.301118	-175.880530
59545		9.581604	0.003633	2.055450	-0.003953	0.003178	-0.004454	-0.610840	0.013916	-0.489258	0.020221	-79.299532	-175.876501
59546		9.553157	-0.031988	2.026030	-0.003481	0.004509	-0.002766	-0.602783	0.009277	-0.496826	0.010769	-79.299954	-175.866936
59547		9.533072	-0.017751	2.028873	-0.002057	0.004421	-0.007630	-0.606689	0.005127	-0.501465	0.017444	-79.297680	-175.873166
59548		9.553344	-0.034871	2.050983	-0.002010	0.003934	-0.001250	-0.611084	0.020752	-0.494385	0.004242	-79.298432	-175.858925
59549		9.552895	-0.031047	2.027278	-0.004940	0.004962	-0.002686	-0.612793	0.013672	-0.490723	-0.005799	-79.295810	-175.849704
59550		9.567161	-0.014686	2.054676	-0.002034	0.004177	-0.004440	-0.610352	0.006836	-0.492920	-0.009345	-79.296422	-175.845305
59551		9.538732	-0.050289	2.025222	-0.003941	0.003056	-0.002859	-0.613037	0.007324	-0.496094	-0.018259	-79.294901	-175.836667
59552		9.553753	-0.041442	2.100663	0.000448	0.001575	-0.001502	-0.610596	0.020752	-0.495117	-0.029293	-79.297003	-175.823201
59553		9.600642	-0.004223	2.031721	-0.001034	0.002271	-0.004612	-0.613525	0.007324	-0.502686	-0.031391	-79.295887	-175.819734
59554		9.524279	-0.065675	1.998747	-0.003390	-0.000425	-0.001529	-0.612549	0.015381	-0.499512	-0.044549	-79.299133	-175.806344
59555		9.566609	-0.009809	2.031469	-0.001023	0.002150	-0.003017	-0.608643	0.015137	-0.496826	-0.051464	-79.298053	-175.797986
59556		9.558603	-0.062935	2.023444	-0.001942	-0.000756	-0.003204	-0.617188	0.011963	-0.504639	-0.058724	-79.301490	-175.789753
59557		9.600569	-0.003300	2.032070	-0.003941	0.003056	-0.002858	-0.612793	0.025635	-0.489258	-0.067901	-79.299882	-175.780768
59558		9.538509	-0.048627	2.026311	-0.002034	0.004177	-0.004439	-0.605469	0.013916	-0.493652	-0.071454	-79.300492	-175.776363
59559		9.566429	-0.008640	2.032321	-0.002494	0.002725	-0.004533	-0.614014	0.012939	-0.500000	-0.074917	-79.299098	-175.772365
59560		9.552397	-0.028136	2.029664	-0.002942	0.001150	-0.003031	-0.613037	0.012207	-0.492920	-0.083274	-79.301442	-175.763600
59561		9.572349	-0.041693	2.027498	-0.002022	0.004055	-0.002844	-0.618164	0.018799	-0.505615	-0.091349	-79.299248	-175.754687
59562		9.565888	-0.004082	2.009091	-0.001574	0.005630	-0.004346	-0.612793	0.016602	-0.494873	-0.094916	-79.299026	-175.749998
59563		9.552503	-0.031082	2.054958	-0.002011	0.003933	-0.001249	-0.613037	0.018555	-0.495117	-0.107978	-79.296875	-175.735830
59564		9.552059	-0.027023	2.031272	-0.004976	0.005327	-0.007470	-0.611328	0.014404	-0.500488	-0.104023	-79.296830	-175.740779
59565		9.585995	-0.020638	2.031988	-0.001471	0.000575	-0.001516	-0.614990	0.016602	-0.502686	-0.116009	-79.296592	-175.727550
59566		9.537965	-0.046292	2.028926	-0.002023	0.004055	-0.002844	-0.602295	0.017822	-0.495361	-0.124393	-79.297270	-175.718220
59567		9.551559	-0.022598	2.007867	-0.001471	0.000575	-0.001516	-0.610840	0.014893	-0.496582	-0.136477	-79.297001	-175.704960
59568		9.571882	-0.039924	2.029734	-0.002482	0.002603	-0.002937	-0.611572	0.025391	-0.497803	-0.144854	-79.298511	-175.695905
59569		9.571826	-0.039712	2.030003	-0.003942	0.003055	-0.002858	-0.608398	0.011230	-0.496338	-0.154332	-79.296836	-175.686589
59570		9.551743	-0.025737	2.032775	-0.003482	0.004508	-0.002764	-0.610840	0.015381	-0.492432	-0.163793	-79.297253	-175.677016
59571		9.585678	-0.019422	2.033492	-0.002953	0.001272	-0.004626	-0.606445	0.016357	-0.496826	-0.167175	-79.296600	-175.673626
59572		9.537648	-0.045027	2.030445	-0.002011	0.003933	-0.001249	-0.614502	0.012207	-0.494873	-0.180393	-79.297344	-175.659370
59573		9.585562	-0.019189	2.034042	-0.002459	0.002358	0.000252	-0.607666	0.016113	-0.494629	-0.198343	-79.296037	-175.640765
59574		9.571514	-0.038994	2.031488	-0.002011	0.003933	-0.001249	-0.611328	0.014404	-0.489502	-0.211563	-79.296779	-175.626508
59575		9.565032	-0.001626	2.013164	-0.002552	0.007292	-0.000982	-0.616211	0.009277	-0.497070	-0.225833	-79.292659	-175.611708
59576		9.537273	-0.044845	2.032208	-0.003023	0.005961	-0.002670	-0.609131	0.017334	-0.501465	-0.235296	-79.292242	-175.601863
59577		9.605496	-0.036467	2.057723	-0.003460	0.004264	0.000425	-0.603516	0.017822	-0.498291	-0.254299	-79.289794	-175.582688
59578		9.571406	-0.042666	2.057721	-0.001530	0.005141	0.002035	-0.610107	0.008301	-0.498779	-0.277168	-79.289833	-175.558330
59579		9.570635	-0.035140	2.009914	-0.002034	0.004178	-0.004438	-0.608643	0.018555	-0.496826	-0.280737	-79.287414	-175.554276
59580		9.564499	-0.001475	2.015697	-0.001070	0.006594	0.002129	-0.616455	0.012939	-0.495117	-0.303599	-79.286617	-175.529656
59581		9.556768	-0.058532	2.032227	-0.003493	0.004631	-0.004359	-0.614990	0.010010	-0.498291	-0.308253	-79.283984	-175.524979
59582		9.550658	-0.024793	2.037877	-0.000541	0.003358	0.000267	-0.607666	0.019775	-0.497803	-0.325221	-79.285046	-175.506048
59583		9.570577	-0.038644	2.035906	-0.003001	0.005716	0.000519	-0.611572	0.019043	-0.503418	-0.344364	-79.281736	-175.486436
59584		9.550419	-0.024977	2.038994	-0.002082	0.008622	0.000708	-0.608154	0.021240	-0.505127	-0.363448	-79.279778	-175.466251
59585		9.570287	-0.038693	2.037267	-0.001563	0.005509	-0.002749	-0.602051	0.011963	-0.499512	-0.372159	-79.276525	-175.456202
59586		9.570199	-0.038728	2.037679	-0.005368	0.003141	0.002005	-0.611328	0.015381	-0.493408	-0.397147	-79.277700	-175.431924
59587		9.550096	-0.025157	2.040502	-0.003001	0.005716	0.000520	-0.607422	0.012695	-0.500977	-0.416284	-79.274372	-175.412632
59588		9.549631	-0.021329	2.017031	-0.004033	0.007989	-0.004091	-0.607666	0.012451	-0.489502	-0.421959	-79.272793	-175.407231
59589		9.589880	-0.052323	2.036841	-0.001022	0.002150	-0.003016	-0.610596	0.015381	-0.499512	-0.429293	-79.271527	-175.398750
59590		9.569791	-0.038373	2.039600	-0.001552	0.005386	-0.001154	-0.611572	0.014893	-0.501465	-0.442486	-79.271425	-175.384251
59591		9.555380	-0.054373	2.013114	-0.001552	0.005386	-0.001154	-0.617188	0.010498	-0.498047	-0.455802	-79.268253	-175.369660
59592		9.549883	-0.028001	2.067143	-0.000114	0.005179	-0.004422	-0.607422	0.014404	-0.500977	-0.458292	-79.268284	-175.365216
59593		9.569477	-0.037662	2.041089	-0.003492	0.004631	-0.004359	-0.605713	0.016113	-0.499756	-0.462947	-79.265565	-175.360658
59594		9.555749	-0.060991	2.062674	-0.002471	0.002480	-0.001343	-0.610352	0.013916	-0.492188	-0.476160	-79.267127	-175.346675
59595		9.583024	-0.013677	2.020361	-0.002951	0.001273	-0.004626	-0.606445	0.009766	-0.491455	-0.479983	-79.266337	-175.342732
59596		9.535323	-0.042876	2.041382	-0.002033	0.004178	-0.004437	-0.604492	0.026611	-0.496582	-0.483550	-79.266941	-175.338310
59597		9.554920	-0.052626	2.015344	-0.003023	0.005961	-0.002669	-0.615234	0.011719	-0.495361	-0.493368	-79.263456	-175.328264
59598		9.568792	-0.032526	2.018710	-0.002032	0.004178	-0.004437	-0.613281	0.013672	-0.496826	-0.496936	-79.264059	-175.323842
59599		9.568691	-0.032237	2.019195	-0.003023	0.005961	-0.002669	-0.613525	0.012695	-0.497314	-0.506415	-79.260576	-175.314001
59600		9.534911	-0.041822	2.043326	-0.003482	0.004508	-0.002764	-0.607422	0.016113	-0.501221	-0.515858	-79.260982	-175.304443
59601		9.602478	-0.025613	2.020657	-0.000124	0.005302	-0.006015	-0.612793	0.008301	-0.502686	-0.513762	-79.257841	-175.304787
59602		9.555038	-0.058619	2.066035	-0.001553	0.005386	-0.001153	-0.601074	0.016113	-0.494385	-0.526938	-79.257735	-175.290304
59603		9.568568	-0.034818	2.045395	-0.005963	0.007111	-0.005701	-0.606689	0.014648	-0.494141	-0.529067	-79.253544	-175.290046
59604		9.534484	-0.040370	2.045349	-0.001042	0.002396	-0.006204	-0.607178	0.017822	-0.500488	-0.526778	-79.255178	-175.291007
59605		9.588120	-0.043868	2.019649	-0.002032	0.004179	-0.004436	-0.614990	0.018311	-0.501953	-0.530740	-79.252666	-175.286341
59606		9.520076	-0.055589	2.018973	-0.002491	0.002726	-0.004531	-0.610107	0.014404	-0.497314	-0.534323	-79.254102	-175.282170
59607		9.568270	-0.033153	2.046816	-0.002022	0.004056	-0.002842	-0.608398	0.014893	-0.499512	-0.543053	-79.251647	-175.272349
59608		9.554238	-0.052663	2.044246	-0.002491	0.002726	-0.004531	-0.611328	0.012451	-0.494385	-0.546638	-79.253083	-175.268176
59609		9.553888	-0.048559	2.020333	-0.004410	0.001725	-0.004548	-0.610352	0.013428	-0.492432	-0.551581	-79.251979	-175.263941
59610		9.554121	-0.051784	2.044818	-0.001594	0.005877	-0.007530	-0.604492	0.011475	-0.492432	-0.545512	-79.251626	-175.269072
59611		9.567732	-0.027558	2.023804	0.000961	-0.001413	-0.006551	-0.604980	0.008545	-0.499756	-0.541419	-79.252360	-175.271127
59612		9.554063	-0.050547	2.045120	-0.003961	0.003300	-0.006047	-0.611328	0.016357	-0.500488	-0.541254	-79.253475	-175.271628
59613		9.587664	-0.040318	2.021884	-0.003493	0.004630	-0.004357	-0.612061	0.010742	-0.496338	-0.546223	-79.250648	-175.266963
59614		9.573635	-0.059773	2.019336	-0.002491	0.002725	-0.004531	-0.601074	0.014648	-0.493896	-0.549808	-79.252084	-175.262789
59615		9.573555	-0.059466	2.019729	-0.001565	0.005509	-0.002746	-0.612305	0.016113	-0.499756	-0.558549	-79.248794	-175.253232
59616		9.533687	-0.035474	2.049151	-0.001565	0.005509	-0.002746	-0.612549	0.010742	-0.500000	-0.566908	-79.248625	-175.243659
59617		9.587287	-0.039029	2.023697	-0.001584	0.005755	-0.005935	-0.617676	0.015381	-0.498291	-0.566036	-79.245174	-175.243470
59618		9.553142	-0.044735	2.023946	-0.001650	0.010319	-0.002381	-0.608154	0.017578	-0.501465	-0.575394	-79.242246	-175.232930
59619		9.553015	-0.044352	2.024553	-0.001041	0.002397	-0.006203	-0.609375	0.021729	-0.496338	-0.573666	-79.240723	-175.233050
59620		9.533178	-0.034061	2.051541	-0.004017	0.007742	-0.000899	-0.610352	0.018066	-0.500244	-0.588920	-79.239263	-175.217888
59621		9.566677	-0.024159	2.028827	-0.003110	0.010771	-0.002303	-0.608398	0.005615	-0.500000	-0.600088	-79.232923	-175.206040
59622		9.552561	-0.043637	2.026707	-0.001584	0.005755	-0.005934	-0.610107	0.010742	-0.497314	-0.598831	-79.232631	-175.206266
59623		9.558827	-0.080346	2.046095	-0.001594	0.005878	-0.007528	-0.609863	0.015137	-0.494629	-0.592923	-79.229112	-175.211944
59624		9.552623	-0.046240	2.051934	-0.001574	0.005632	-0.004340	-0.606689	0.015137	-0.494629	-0.596467	-79.228881	-175.207278
59625		9.566180	-0.022283	2.031192	-0.002033	0.004178	-0.004435	-0.603760	0.011963	-0.505615	-0.600608	-79.226360	-175.202432
59626		9.566054	-0.022032	2.031789	-0.005487	0.008316	-0.002415	-0.612793	0.015381	-0.503906	-0.612099	-79.224579	-175.191958
59627		9.551975	-0.041665	2.029511	-0.000105	0.005057	-0.002823	-0.604004	0.018311	-0.496338	-0.619931	-79.221413	-175.182320
59628		9.517923	-0.047614	2.029301	-0.005850	0.001929	-0.001282	-0.615967	0.014160	-0.497314	-0.635244	-79.223284	-175.168166
59629		9.585785	-0.035135	2.030872	-0.004055	0.008234	-0.007275	-0.612305	0.018799	-0.499512	-0.631903	-79.218437	-175.171876
59630		9.565605	-0.020819	2.033915	-0.001584	0.005755	-0.005933	-0.610840	0.019287	-0.491943	-0.630649	-79.218145	-175.172099
59631		9.571605	-0.053776	2.029107	-0.002051	0.004425	-0.007623	-0.606934	0.011963	-0.500732	-0.625356	-79.215499	-175.176283
59632		9.551464	-0.039503	2.031959	-0.001575	0.005632	-0.004339	-0.608887	0.020752	-0.498535	-0.628896	-79.215267	-175.171621
59633		9.551391	-0.039139	2.032309	-0.004408	0.001723	-0.004549	-0.603760	0.015869	-0.498779	-0.634229	-79.214080	-175.166894
59634		9.551338	-0.038833	2.032563	-0.000563	0.003604	-0.002918	-0.612549	0.015137	-0.494873	-0.641528	-79.215001	-175.157814
59635		9.571275	-0.052223	2.030702	-0.005965	0.007108	-0.005699	-0.608643	0.015381	-0.499268	-0.644041	-79.210773	-175.156967
59636		9.551116	-0.037933	2.033622	-0.002051	0.004425	-0.007622	-0.608643	0.014404	-0.497070	-0.638020	-79.211254	-175.162316
59637		9.570810	-0.047392	2.007493	-0.003950	0.003176	-0.004452	-0.604980	0.013672	-0.503174	-0.643240	-79.209251	-175.157545
59638		9.571000	-0.050785	2.032034	-0.001575	0.005632	-0.004338	-0.608154	0.014160	-0.499268	-0.646779	-79.209019	-175.152883
59639		9.556987	-0.070160	2.029508	-0.002499	0.002849	-0.006124	-0.610352	0.011475	-0.499512	-0.646173	-79.207168	-175.153436
59640		9.516541	-0.038503	2.010479	-0.003493	0.004629	-0.004356	-0.611572	0.014404	-0.494385	-0.650790	-79.207510	-175.148796
59641		9.571018	-0.053109	2.057397	-0.000133	0.005428	-0.007603	-0.618408	0.014648	-0.493896	-0.644164	-79.204268	-175.153847
59642		9.564239	-0.011604	2.014973	-0.006405	0.005407	-0.002606	-0.613770	0.013672	-0.498779	-0.655678	-79.204153	-175.143885
59643		9.556343	-0.064752	2.007192	-0.002033	0.004179	-0.004434	-0.612305	0.020996	-0.499268	-0.659703	-79.201630	-175.138625
59644		9.536450	-0.054254	2.034228	-0.001136	0.007332	-0.007428	-0.616699	0.016357	-0.500488	-0.653645	-79.200444	-175.143477
59645		9.570075	-0.043749	2.011074	-0.001496	0.000945	-0.006298	-0.613525	0.015381	-0.501221	-0.652247	-79.199729	-175.143059
59646		9.530452	-0.023295	2.064317	-0.003502	0.004753	-0.005950	-0.620605	0.013672	-0.494141	-0.652076	-79.200011	-175.143299
59647		9.584120	-0.026543	2.038845	-0.002051	0.004426	-0.007621	-0.617920	0.010010	-0.489258	-0.646573	-79.197348	-175.147714
59648		9.550069	-0.032147	2.038631	-0.003950	0.003176	-0.004452	-0.611328	0.016846	-0.499512	-0.651208	-79.198524	-175.143322
59649		9.569782	-0.041908	2.012506	-0.003476	0.004382	-0.001168	-0.600586	0.011963	-0.505615	-0.665851	-79.195880	-175.128533
59650		9.556317	-0.068974	2.058197	-0.000581	0.003852	-0.006104	-0.601318	0.017090	-0.503174	-0.663573	-79.196680	-175.129215
59651		9.603833	-0.038743	2.038125	-0.005966	0.007107	-0.005697	-0.609863	0.014893	-0.505127	-0.666378	-79.192307	-175.128786
59652		9.522140	-0.073957	2.058597	-0.001056	0.002646	-0.009388	-0.605957	0.015625	-0.495850	-0.654557	-79.193819	-175.139460
59653		9.569450	-0.039727	2.014128	-0.001038	0.002399	-0.006201	-0.608398	0.014893	-0.494629	-0.653087	-79.192239	-175.139828
59654		9.535701	-0.049016	2.037870	-0.004425	0.001969	-0.007736	-0.606689	0.013672	-0.497803	-0.648177	-79.194127	-175.145430
59655		9.575544	-0.071925	2.009128	-0.003430	0.000190	-0.009504	-0.608887	0.015381	-0.498779	-0.638162	-79.193896	-175.156063
59656		9.535669	-0.047438	2.038057	-0.002973	0.001643	-0.009407	-0.602295	0.025391	-0.497070	-0.627411	-79.195982	-175.166766
59657		9.569352	-0.036746	2.014653	-0.001504	0.001069	-0.007891	-0.614014	0.016846	-0.494141	-0.621514	-79.195208	-175.171549
59658		9.535606	-0.045804	2.038389	-0.002525	0.003220	-0.010904	-0.615479	0.016113	-0.489014	-0.605959	-79.196398	-175.186881
59659		9.575707	-0.072314	2.033847	-0.004890	0.000639	-0.009426	-0.609619	0.012695	-0.496094	-0.596994	-79.195980	-175.196534
59660		9.569472	-0.037958	2.039499	-0.003065	0.006453	-0.009038	-0.604980	0.006592	-0.494629	-0.587246	-79.195306	-175.206269
59661		9.535156	-0.039483	2.015200	0.000405	0.002197	-0.009464	-0.607910	0.020996	-0.493896	-0.574902	-79.193913	-175.217610
59662		9.569336	-0.036147	2.040171	-0.002525	0.003220	-0.010903	-0.612061	0.015625	-0.497314	-0.559346	-79.195101	-175.232943
59663		9.589595	-0.052623	2.062307	-0.002069	0.004674	-0.010806	-0.609131	0.011719	-0.495850	-0.544778	-79.192300	-175.246791
59664		9.555276	-0.054022	2.038038	-0.002069	0.004674	-0.010805	-0.607178	0.011719	-0.498291	-0.529212	-79.192654	-175.261869
59665		9.569071	-0.033191	2.041462	-0.003530	0.005123	-0.010728	-0.612549	0.016602	-0.499268	-0.515432	-79.189564	-175.276595
59666		9.555114	-0.052173	2.038847	-0.004434	0.002092	-0.009328	-0.603271	0.010742	-0.496094	-0.505723	-79.191387	-175.287087
59667		9.568666	-0.027697	2.018052	-0.000144	0.005554	-0.009191	-0.610107	0.007324	-0.503906	-0.494746	-79.188034	-175.296763
59668		9.534640	-0.032906	2.017757	-0.000060	0.000868	-0.011154	-0.614258	0.017822	-0.504639	-0.477083	-79.190568	-175.312803
59669		9.554696	-0.045656	2.015539	-0.004434	0.002091	-0.009328	-0.611328	0.014893	-0.500488	-0.468201	-79.189134	-175.322611
59670		9.555198	-0.052143	2.063880	-0.001993	0.000111	-0.014360	-0.602783	0.016113	-0.498047	-0.442034	-79.192114	-175.348437
59671		9.548975	-0.017439	2.069290	-0.002981	0.001766	-0.010998	-0.614990	0.011230	-0.492188	-0.427519	-79.190929	-175.363246
59672		9.554910	-0.046215	2.039948	-0.003437	0.000312	-0.011095	-0.611816	0.012695	-0.498779	-0.411958	-79.193777	-175.379115
59673		9.554647	-0.041370	2.015864	-0.003446	0.000436	-0.012688	-0.612793	0.007813	-0.496338	-0.392392	-79.193413	-175.399168
59674		9.534805	-0.030472	2.042418	-0.001512	0.001193	-0.009482	-0.611328	0.016602	-0.498535	-0.380542	-79.195748	-175.410137
59675		9.568787	-0.023392	2.042929	-0.002878	-0.003168	-0.009774	-0.614746	0.020508	-0.494873	-0.369541	-79.197408	-175.421243
59676		9.554948	-0.042296	2.039853	-0.000060	0.000869	-0.011152	-0.601563	0.009766	-0.495117	-0.351839	-79.199934	-175.437321
59677		9.554687	-0.037354	2.015754	-0.005371	-0.000445	-0.014300	-0.610596	0.017334	-0.493652	-0.328810	-79.200070	-175.462145
59678		9.568789	-0.020039	2.042954	-0.001075	0.002895	-0.012570	-0.605225	0.017090	-0.489502	-0.307385	-79.201437	-175.482606
59679		9.574737	-0.048631	2.013668	-0.003446	0.000436	-0.012687	-0.617676	0.010498	-0.504150	-0.288170	-79.201101	-175.502213
59680		9.514685	-0.010287	2.044956	-0.001530	0.001442	-0.012667	-0.609375	0.014404	-0.498779	-0.266728	-79.203299	-175.522957
59681		9.554593	-0.032576	2.016281	-0.003000	0.002014	-0.014182	-0.609863	0.015137	-0.496826	-0.242514	-79.201941	-175.547462
59682		9.574941	-0.048867	2.038148	-0.003437	0.000311	-0.011093	-0.609375	0.013184	-0.500244	-0.226895	-79.204780	-175.563390
59683		9.568372	-0.010404	2.019611	-0.002091	0.004922	-0.013986	-0.607910	0.014648	-0.500488	-0.202862	-79.201788	-175.587337
59684		9.540878	-0.052671	2.038117	-0.003000	0.002014	-0.014181	-0.607666	0.015381	-0.488037	-0.177688	-79.203655	-175.612737
59685		9.554725	-0.031528	2.041093	-0.000978	-0.001914	-0.012938	-0.614990	0.016113	-0.502686	-0.156283	-79.204628	-175.633418
59686		9.588696	-0.023923	2.041623	-0.002002	0.000236	-0.015948	-0.606934	0.007324	-0.496338	-0.125224	-79.207512	-175.664227
59687		9.554762	-0.028771	2.040959	-0.002448	-0.001342	-0.014453	-0.614014	0.020508	-0.499268	-0.099938	-79.208089	-175.689818
59688		9.554763	-0.027364	2.040975	-0.001548	0.001690	-0.015850	-0.612305	0.022217	-0.491943	-0.068884	-79.210134	-175.720357
59689		9.568326	-0.002195	2.019853	-0.002456	-0.001218	-0.016045	-0.609619	0.011963	-0.499023	-0.039291	-79.210698	-175.748985
59690		9.574618	-0.034388	2.014528	-0.001531	0.001442	-0.012664	-0.609863	0.013184	-0.497070	-0.017790	-79.212879	-175.769789
59691		9.574835	-0.037032	2.038894	-0.004001	0.003790	-0.012411	-0.607422	0.011230	-0.492920	0.000431	-79.210526	-175.789186
59692		9.554117	-0.014689	1.993342	-0.001078	0.002896	-0.012566	-0.605713	0.012939	-0.494629	0.021903	-79.211871	-175.809696
59693		9.540495	-0.037336	2.014816	-0.005454	0.004113	-0.010740	-0.613281	0.011475	-0.492432	0.034264	-79.209387	-175.824332
59694		9.567759	0.007278	1.997170	-0.003094	0.006699	-0.012215	-0.610596	0.011719	-0.497559	0.053517	-79.208551	-175.843759
59695		9.608412	-0.026407	2.041303	-0.001632	0.006252	-0.012292	-0.606934	0.016113	-0.494873	0.072780	-79.204836	-175.862679
59696		9.520021	-0.020399	2.018860	-0.003556	0.005369	-0.013904	-0.616943	0.013916	-0.503662	0.096841	-79.204757	-175.887270
59697		9.567416	0.010939	1.998796	-0.004018	0.004039	-0.015594	-0.605713	0.014893	-0.494629	0.124394	-79.202249	-175.915602
59698		9.553764	-0.011263	2.020439	-0.001659	0.006626	-0.017068	-0.604248	0.002930	-0.503174	0.159028	-79.201441	-175.949851
59699		9.560275	-0.047129	2.039626	-0.003000	0.002013	-0.014176	-0.608398	0.017090	-0.505859	0.183181	-79.200086	-175.975622
59700		9.506238	-0.038161	2.041209	-0.003845	-0.005084	-0.022704	-0.602295	0.021240	-0.504639	0.233624	-79.205968	-176.027240
59701		9.539987	-0.025899	2.017400	-0.004411	-0.001604	-0.024022	-0.610596	0.013916	-0.495117	0.285936	-79.206579	-176.081239
59702		9.533938	0.005962	2.046680	-0.002941	-0.002174	-0.022507	-0.614990	0.020508	-0.491699	0.336338	-79.210778	-176.132286
59703		9.607951	-0.009011	2.018233	-0.006317	-0.002738	-0.022449	-0.623047	0.018311	-0.499268	0.383222	-79.212204	-176.181221
59704		9.520315	-0.009872	2.042948	-0.004750	-0.007993	-0.022897	-0.614746	0.008545	-0.495850	0.433959	-79.219719	-176.233663
59705		9.574279	-0.011201	2.016397	-0.004298	-0.006538	-0.022798	-0.605957	0.012939	-0.496094	0.483415	-79.223251	-176.284111
59706		9.554276	0.004406	2.018041	-0.003279	-0.008563	-0.021381	-0.607910	0.013672	-0.490479	0.530567	-79.231083	-176.332044
59707		9.554430	0.006534	2.017305	-0.002845	-0.006859	-0.024466	-0.615479	0.012451	-0.497314	0.585871	-79.234806	-176.388732
59708		9.575021	-0.008642	2.038339	-0.004750	-0.007994	-0.022893	-0.616211	0.012695	-0.494141	0.636846	-79.242286	-176.441413
59709		9.588372	0.020949	1.992372	-0.002828	-0.007108	-0.021280	-0.609863	0.014648	-0.493408	0.682733	-79.246133	-176.487789
59710		9.541399	-0.011023	2.036325	-0.002828	-0.007109	-0.021280	-0.614502	0.006348	-0.494141	0.730028	-79.253101	-176.535601
59711		9.588936	0.021131	2.015103	-0.001366	-0.007553	-0.021357	-0.606689	0.010254	-0.496826	0.777131	-79.257203	-176.582903
59712		9.575028	0.006812	1.987382	-0.003821	-0.005459	-0.017919	-0.614746	0.013428	-0.497559	0.813741	-79.263239	-176.620417
59713		9.575415	0.004665	2.011021	-0.001908	-0.004448	-0.017899	-0.613770	0.020264	-0.495850	0.849900	-79.265546	-176.656858
59714		9.575489	0.006340	2.010665	-0.001457	-0.002993	-0.017800	-0.613770	0.015625	-0.497070	0.887460	-79.270161	-176.693960
59715		9.609462	0.014351	2.010996	-0.002910	-0.002674	-0.016130	-0.609375	0.013428	-0.500732	0.917406	-79.271479	-176.723787
59716		9.555379	0.022745	2.012691	-0.004915	0.000875	-0.012595	-0.619385	0.008301	-0.494629	0.937096	-79.273920	-176.744717
59717		9.561553	-0.005643	1.983124	-0.002910	-0.002674	-0.016130	-0.608643	0.013428	-0.498291	0.967377	-79.275219	-176.775616
59718		9.555412	0.025351	2.012499	-0.003453	0.000431	-0.012672	-0.614258	0.015381	-0.486084	0.988181	-79.277910	-176.796827
59719		9.595461	0.003321	1.983757	-0.004475	0.002454	-0.014087	-0.614746	0.017822	-0.494629	1.010978	-79.276351	-176.820855
59720		9.555334	0.027672	2.012841	-0.002993	0.001761	-0.010983	-0.620605	0.015625	-0.493408	1.026873	-79.278294	-176.836803
59721		9.561446	-0.000920	1.983648	-0.000641	0.004354	-0.012456	-0.611084	0.012451	-0.496826	1.046758	-79.275654	-176.854880
59722		9.575413	0.016327	2.010973	-0.003443	0.000306	-0.011080	-0.608398	0.012451	-0.495850	1.062778	-79.278428	-176.871217
59723		9.609251	0.023841	2.011916	-0.003117	0.006696	-0.012201	-0.610596	0.005615	-0.496338	1.080428	-79.274413	-176.889655
59724		9.575242	0.018518	2.011768	-0.001090	0.002899	-0.012553	-0.612305	0.011719	-0.507324	1.102108	-79.275684	-176.910380
59725		9.575169	0.019567	2.012104	-0.005469	0.004102	-0.010727	-0.614258	0.005127	-0.488770	1.114231	-79.273113	-176.924848
59726		9.520650	0.031209	1.990309	-0.001176	0.007333	-0.007407	-0.614990	0.010986	-0.495850	1.120037	-79.271899	-176.929466
59727		9.594821	0.011426	1.986819	-0.003098	0.006445	-0.009018	-0.613037	0.009521	-0.499756	1.128337	-79.268123	-176.938339
59728		9.540844	0.015430	2.013452	-0.002199	0.009357	-0.008821	-0.607666	0.012451	-0.496826	1.137707	-79.265734	-176.947181
59729		9.574292	0.026471	1.990757	-0.001176	0.007333	-0.007406	-0.613037	0.015381	-0.500488	1.141924	-79.261401	-176.950879
59730		9.560438	0.007231	1.988487	-0.002649	0.007901	-0.008919	-0.619385	0.016602	-0.491699	1.151411	-79.259843	-176.960103
59731		9.574005	0.027922	1.992120	-0.005000	0.005307	-0.007447	-0.618164	0.015625	-0.491943	1.153504	-79.256718	-176.962682
59732		9.560464	0.004768	2.013835	-0.001176	0.007333	-0.007405	-0.614014	0.009033	-0.495361	1.159294	-79.255504	-176.967285
59733		9.560312	0.005433	2.014557	-0.002639	0.007776	-0.007327	-0.612793	0.010986	-0.493896	1.162430	-79.250996	-176.969992
59734		9.553625	0.039481	2.020742	-0.002181	0.009106	-0.005638	-0.614746	0.010742	-0.494141	1.162199	-79.248786	-176.969052
59735		9.573663	0.026564	2.019179	-0.002639	0.007776	-0.007327	-0.611328	0.010254	-0.505127	1.165378	-79.244272	-176.972227
59736		9.559536	0.011043	1.992803	-0.002639	0.007776	-0.007327	-0.621094	0.008057	-0.489746	1.170059	-79.242804	-176.976554
59737		9.559377	0.011597	1.993562	-0.004093	0.008093	-0.005658	-0.616943	0.020996	-0.501221	1.167421	-79.238094	-176.974646
59738		9.538739	0.029416	1.972528	0.000296	0.006766	-0.005891	-0.610352	0.012939	-0.503906	1.169516	-79.237221	-176.974629
59739		9.593228	0.015104	2.019864	-0.008016	0.010624	-0.002145	-0.606934	0.011475	-0.490967	1.153417	-79.231053	-176.960611
59740		9.579332	-0.004523	2.017849	-0.000279	0.010245	-0.007206	-0.611084	0.010254	-0.503662	1.158932	-79.228172	-176.964411
59741		9.558645	0.013183	1.997057	-0.005090	0.009739	-0.002300	-0.614258	0.011963	-0.499512	1.145372	-79.222570	-176.952499
59742		9.552150	0.043024	2.027627	-0.004202	0.012776	-0.003692	-0.617676	0.011963	-0.494141	1.137916	-79.218280	-176.945383
59743		9.625958	0.026730	2.000712	-0.005674	0.013344	-0.005205	-0.612793	0.020996	-0.495361	1.132590	-79.210603	-176.941273
59744		9.584628	-0.033073	1.993019	-0.003288	0.015437	-0.000311	-0.615479	0.011230	-0.500977	1.115357	-79.204826	-176.923670
59745		9.571461	0.029816	2.029545	-0.005301	0.018981	0.003224	-0.610596	0.017578	-0.496826	1.084374	-79.194007	-176.892870
59746		9.570798	0.033400	2.007383	-0.002957	0.021702	0.000164	-0.613770	0.019531	-0.495605	1.065606	-79.184644	-176.873511
59747		9.624503	0.026053	2.007711	-0.003374	0.019744	0.006429	-0.609131	0.005859	-0.489258	1.026094	-79.173447	-176.832742
59748		9.603868	0.038905	2.012052	-0.004396	0.021767	0.005015	-0.621094	0.020508	-0.496338	0.992068	-79.164091	-176.798686
59749		9.644017	0.007213	2.033994	-0.003138	0.030441	0.012055	-0.610352	0.016113	-0.497559	0.935891	-79.146863	-176.741293
59750		9.650031	0.066998	1.997459	-0.004263	0.037022	0.014200	-0.612549	0.015381	-0.493164	0.873984	-79.128839	-176.678766
59751		9.635505	0.045270	1.998516	-0.005492	0.048161	0.019906	-0.606934	0.007813	-0.497070	0.792554	-79.101473	-176.597004
59752		9.634685	0.039043	2.027589	-0.008061	0.054806	0.026904	-0.611084	0.014648	-0.498779	0.690596	-79.073321	-176.495894
59753		9.572239	-0.010378	2.026214	-0.006248	0.060251	0.032086	-0.606201	0.009277	-0.503662	0.573448	-79.039025	-176.379065
59754		9.503561	-0.034002	2.078517	-0.003784	0.058161	0.028659	-0.607666	0.014404	-0.502930	0.469811	-79.008887	-176.273727
59755		9.556364	-0.039921	2.058169	-0.004124	0.052022	0.026594	-0.612305	0.009521	-0.496582	0.371465	-78.979138	-176.174817
59756		9.548787	-0.008877	2.068481	-0.001209	0.051387	0.023267	-0.608887	0.009766	-0.491699	0.286337	-78.952796	-176.086813
59757		9.601731	-0.014475	2.047737	0.001275	0.048793	0.026204	-0.606689	0.013428	-0.495850	0.193492	-78.924975	-175.990098
59758		9.566802	-0.023475	2.051624	0.001728	0.050122	0.027902	-0.602539	0.012451	-0.488281	0.097367	-78.899311	-175.889157
59759		9.593301	0.009809	2.086757	0.001733	0.049870	0.031090	-0.611816	0.015625	-0.495361	-0.008724	-78.870845	-175.778694
59760		9.517208	-0.059459	2.081171	0.002748	0.047844	0.032511	-0.605957	0.013428	-0.494141	-0.116717	-78.846412	-175.665042
59761		9.474986	-0.118100	2.052021	0.002846	0.043665	0.024177	-0.604004	0.010986	-0.495605	-0.201178	-78.821414	-175.575124
59762		9.453959	-0.109908	2.082429	0.005300	0.042454	0.009609	-0.614746	0.013916	-0.500732	-0.240605	-78.800060	-175.529857
59763		9.480537	-0.070329	2.092656	0.007763	0.040865	-0.000185	-0.601807	0.020508	-0.506104	-0.251274	-78.776661	-175.512522
59764		9.507267	-0.033791	2.126546	0.005054	0.032639	-0.007167	-0.608398	0.012939	-0.497559	-0.242339	-78.760968	-175.516698
59765		9.513765	0.024005	2.114117	0.002582	0.034605	-0.002144	-0.599365	0.019775	-0.503174	-0.250681	-78.741112	-175.504564
59766		9.479094	0.025343	2.068037	-0.001692	0.030878	0.000874	-0.603271	0.014404	-0.496338	-0.268757	-78.726407	-175.485141
59767		9.539088	-0.019344	2.088428	-0.004054	0.028286	0.002331	-0.602295	0.018066	-0.502930	-0.293735	-78.710190	-175.460226
59768		9.490859	-0.049772	2.111177	-0.005068	0.030311	0.000916	-0.609619	0.012451	-0.494873	-0.313766	-78.695807	-175.440780
59769		9.571851	-0.013370	2.094676	-0.006305	0.021138	0.000223	-0.609375	0.011230	-0.495850	-0.333815	-78.683715	-175.421881
59770		9.571445	-0.009553	2.072391	-0.002816	0.017021	-0.001788	-0.601318	0.017822	-0.502441	-0.344956	-78.676954	-175.410185
59771		9.598514	0.026115	2.104555	-0.005292	0.018609	0.008006	-0.604980	0.011230	-0.505615	-0.386599	-78.666285	-175.368854
59772		9.590892	-0.028315	2.097776	-0.002366	0.017469	0.011049	-0.604248	0.015381	-0.497314	-0.434095	-78.659211	-175.319814
59773		9.630864	-0.056681	2.095344	-0.001016	0.021581	0.014545	-0.605225	0.013672	-0.493164	-0.491650	-78.646769	-175.260042
59774		9.556108	-0.037606	2.100664	-0.001018	0.021203	0.019321	-0.604248	0.014160	-0.501709	-0.561710	-78.637493	-175.187197
59775		9.569399	-0.019614	2.105801	-0.001469	0.019622	0.020809	-0.601318	0.018555	-0.497314	-0.637173	-78.626178	-175.109249
59776		9.569001	-0.025648	2.131588	-0.004284	0.015451	0.023750	-0.606445	0.012451	-0.506836	-0.721664	-78.620129	-175.023587
59777		9.683349	-0.064381	2.053498	-0.001020	0.020824	0.024100	-0.608887	0.021484	-0.500000	-0.806010	-78.607993	-174.936141
59778		9.541566	0.016771	2.142640	-0.006760	0.017922	0.022405	-0.610352	0.007568	-0.503174	-0.887763	-78.600490	-174.854714
59779		9.668567	-0.093425	2.078920	-0.008674	0.036719	0.035159	-0.597412	0.013916	-0.507568	-1.006592	-78.579120	-174.735961
59780		9.723672	0.072905	2.085344	-0.004968	0.042662	0.046763	-0.594238	0.013184	-0.499756	-1.154587	-78.557116	-174.585893
59781		9.640017	-0.059302	2.118906	-0.003284	0.052656	0.055537	-0.603516	0.007080	-0.501221	-1.325954	-78.526206	-174.412334
59782		9.557254	-0.093515	2.094693	-0.007784	0.058677	0.057732	-0.598877	0.011230	-0.502686	-1.503967	-78.494701	-174.233250
59783		9.700216	0.069582	2.103299	-0.002065	0.060813	0.069001	-0.600586	0.016602	-0.507080	-1.709477	-78.458734	-174.024069
59784		9.778120	-0.084080	2.112131	-0.006040	0.081895	0.101241	-0.598633	0.014893	-0.504150	-2.003794	-78.412851	-173.725205
59785		9.723488	0.004071	2.111043	-0.007613	0.087149	0.101724	-0.595947	0.015381	-0.500000	-2.297908	-78.360676	-173.427677
59786		9.701206	0.002951	2.146349	-0.006065	0.101186	0.120484	-0.591797	0.017578	-0.501709	-2.638200	-78.302638	-173.081770
59787		9.663566	-0.102931	2.141639	-0.003073	0.114518	0.142382	-0.590088	0.015381	-0.504639	-3.031869	-78.233028	-172.680190
59788		9.628230	-0.040529	2.189354	-0.007992	0.113274	0.156868	-0.601318	0.016113	-0.504639	-3.463296	-78.165948	-172.242142
59789		9.619506	-0.022866	2.205577	-0.007618	0.113709	0.169788	-0.592773	0.020020	-0.506104	-3.924355	-78.094547	-171.773858
59790		10.057356	-0.042891	2.173233	-0.012574	0.131636	0.205110	-0.585449	0.024170	-0.503662	-4.474363	-78.013471	-171.217054
59791		9.707557	-0.097969	2.226387	-0.015466	0.146639	0.228960	-0.591309	0.022705	-0.497314	-5.078419	-77.918652	-170.606447
59792		10.179325	-0.336350	2.238658	-0.012036	0.153631	0.208716	-0.594727	0.021240	-0.507813	-5.616077	-77.822544	-170.061579
59793		11.142971	-0.157563	2.184185	-0.005743	0.224863	0.196939	-0.581055	0.024658	-0.509766	-6.090169	-77.682737	-169.576885
59794		10.169280	-0.366062	2.212006	-0.005858	0.295073	0.202927	-0.582764	0.018799	-0.511230	-6.549004	-77.504516	-169.108529
59795		10.335222	-0.196798	2.351285	-0.005535	0.301195	0.205248	-0.587891	0.030762	-0.515625	-6.997684	-77.319006	-168.650445
59796		10.081905	-0.373980	2.204701	-0.000485	0.352103	0.211305	-0.579590	0.025146	-0.511719	-7.429962	-77.106217	-168.205467
59797		9.980458	-0.207192	2.416022	-0.003293	0.359102	0.196118	-0.569824	0.020508	-0.515137	-7.809333	-76.887129	-167.814265
59798		10.995875	0.286823	2.399074	-0.029031	0.367988	0.245639	-0.568848	0.030518	-0.513184	-8.307140	-76.661142	-167.317986
59799		9.869415	-0.413826	2.389087	-0.013618	0.440589	0.260187	-0.567871	0.033203	-0.512451	-8.785955	-76.389085	-166.831659
59800		10.368073	-0.030842	2.497274	-0.018982	0.449010	0.275865	-0.564941	0.032959	-0.509766	-9.283239	-76.112629	-166.328904
59801		10.668213	-0.124636	2.477481	-0.022638	0.492370	0.309159	-0.559570	0.033447	-0.512207	-9.819404	-75.804912	-165.785703
59802		10.560296	-0.125411	2.557426	-0.023307	0.540110	0.336552	-0.552734	0.036865	-0.521240	-10.375292	-75.468803	-165.223661
59803		10.558737	-0.346241	2.563082	-0.030234	0.583464	0.345963	-0.541504	0.031738	-0.524414	-10.910317	-75.103493	-164.684654
59804		10.644259	-0.089844	2.780421	-0.042504	0.629611	0.326678	-0.538818	0.036865	-0.518311	-11.369703	-74.715682	-164.232074
59805		10.924193	-0.888829	2.476390	-0.052913	0.676370	0.312399	-0.538330	0.035645	-0.518799	-11.762232	-74.299949	-163.853776
59806		11.393862	-0.721197	2.627622	-0.029293	0.743572	0.321615	-0.534668	0.032471	-0.523438	-12.113740	-73.847253	-163.503674
59807		11.798943	-1.115990	2.599152	-0.027278	0.834951	0.271731	-0.526367	0.048096	-0.534912	-12.311475	-73.346929	-163.311143
59808		12.753493	-1.020602	2.576661	-0.014805	0.958761	0.253078	-0.506592	0.033936	-0.528809	-12.409886	-72.781509	-163.215108
59809		13.324716	-0.986195	2.613156	-0.006609	1.117888	0.236874	-0.506836	0.045410	-0.532959	-12.406454	-72.126874	-163.219726
59810		13.606314	-1.285249	2.520766	-0.006919	1.302115	0.194754	-0.496338	0.039795	-0.537354	-12.267536	-71.376421	-163.368127
59811		14.420601	-1.444407	2.435947	0.004172	1.527938	0.139165	-0.487549	0.042236	-0.558105	-11.967117	-70.504078	-163.681073
59812		15.288594	-1.291239	2.295312	0.007759	1.793066	0.077898	-0.462646	0.042969	-0.550293	-11.517126	-69.491392	-164.153134
59813		16.546041	-1.154168	2.172930	-0.010181	2.137251	0.034742	-0.453125	0.038818	-0.553711	-10.962810	-68.287045	-164.751415
59814		17.380280	-0.017630	2.092571	-0.032873	2.522159	0.087108	-0.439697	0.031250	-0.560791	-10.457145	-66.860164	-165.316684
59815		17.185687	1.723849	2.166674	-0.102810	2.911663	0.275908	-0.409180	0.049072	-0.571289	-10.199487	-65.191903	-165.660982
59816		17.604522	1.899687	1.900848	-0.217467	3.308291	0.501060	-0.377197	0.039551	-0.578369	-10.219398	-63.277880	-165.775068
59817		18.939367	1.870860	1.545441	-0.301203	3.762760	0.745245	-0.351318	0.053223	-0.583740	-10.459122	-61.082510	-165.696862
59818		19.975386	3.624664	1.456116	-0.395747	4.272528	1.084127	-0.315186	0.056152	-0.575195	-10.958025	-58.564064	-165.379912
59819		21.049475	4.833328	1.782033	-0.553207	4.818417	1.467040	-0.269531	0.056641	-0.584961	-11.713185	-55.695312	-164.855714
59820		22.888059	3.481625	2.711211	-0.687772	5.370155	1.744962	-0.219482	0.074951	-0.588867	-12.567095	-52.479193	-164.285898
59821		24.118332	3.047041	3.527140	-0.760082	5.945810	1.778362	-0.164795	0.069336	-0.587402	-13.285579	-48.935851	-163.917103
59822		23.003429	2.143325	6.917082	-0.816075	6.368979	1.613482	-0.103516	0.067383	-0.568848	-13.803073	-45.173820	-163.846524
59823		19.674625	0.983786	7.413639	-0.819322	6.501529	0.957097	-0.059814	0.086914	-0.554688	-13.931768	-41.432500	-164.338600
59824		18.967566	1.797615	5.004264	-0.820606	6.582682	0.007043	-0.005859	0.088135	-0.545410	-13.662290	-37.770739	-165.495539
59825		18.660633	2.008777	3.638378	-0.994561	6.655026	-0.729999	0.043945	0.098877	-0.540283	-13.289477	-34.167997	-167.093276
59826		21.136327	1.176278	0.600803	-1.208150	6.532412	-0.632502	0.092773	0.114990	-0.511963	-13.214222	-30.609903	-168.522124
59827		21.640827	1.325218	-4.318704	-1.381588	6.634552	-0.245477	0.120117	0.125732	-0.485107	-13.445625	-26.953552	-169.675747
59828		16.380627	2.172960	-8.014846	-1.480603	6.608749	-0.170148	0.166992	0.143066	-0.454834	-13.830851	-23.298812	-170.761951
59829		13.586115	3.749758	-8.850256	-1.638486	6.477816	-0.349247	0.207520	0.150879	-0.427246	-14.332534	-19.760395	-171.938577
59830		12.103270	2.152761	-7.613068	-1.798018	6.492600	-0.682723	0.249756	0.166992	-0.390625	-14.933692	-16.261822	-173.320317
59831		-1.395364	2.947271	-7.006550	-1.837632	6.556651	-0.909487	0.283691	0.184326	-0.362061	-15.594783	-12.789597	-174.858126
59832		-17.026680	2.056702	-4.123061	-1.875412	4.761424	-1.679283	0.299072	0.202393	-0.323486	-16.324155	-10.433027	-176.564023
59833		-7.870170	-0.012761	-5.934038	-1.784204	2.704981	-2.396741	0.297852	0.223389	-0.315918	-17.032863	-9.355764	-178.347788
59834		-7.511523	-2.555293	-4.314075	-1.566686	1.050394	-2.667897	0.289795	0.245850	-0.293213	-17.661045	-9.238926	179.996067
59835		-4.334898	-3.723279	-5.083433	-1.222195	-0.438071	-2.476413	0.270020	0.274658	-0.294189	-18.139669	-9.925793	178.708099
59836		-1.976056	-3.301149	-4.874061	-0.866225	-1.575430	-1.997078	0.250977	0.295410	-0.306641	-18.485551	-11.144071	177.895882
59837		1.339170	-3.185938	-4.754678	-0.533028	-2.373944	-1.537528	0.223389	0.297119	-0.325439	-18.700040	-12.725421	177.488887
59838		2.609647	-3.030234	-4.049573	-0.227710	-2.913739	-1.226994	0.202148	0.311035	-0.339111	-18.798274	-14.534014	177.360312
59839		3.702151	-2.139118	-3.928022	0.039023	-3.292453	-1.002476	0.180420	0.313477	-0.357422	-18.788432	-16.516519	177.429961
59840		3.695294	-1.642509	-3.731810	0.239203	-3.623221	-0.910400	0.143555	0.319824	-0.376953	-18.705645	-18.651747	177.616037
59841		3.677165	-0.847741	-3.557355	0.395849	-3.939641	-0.945349	0.120117	0.312744	-0.403564	-18.549213	-20.976009	177.840189
59842		4.553433	0.148382	-3.340329	0.497415	-4.192857	-1.069269	0.084229	0.324219	-0.422607	-18.336956	-23.450558	178.037807
59843		5.962711	0.711065	-3.001236	0.537056	-4.332643	-1.264271	0.033447	0.317871	-0.453857	-18.065583	-26.048022	178.137304
59844		7.229834	0.943720	-2.442652	0.544314	-4.372675	-1.499474	-0.000244	0.317871	-0.477539	-17.729185	-28.697989	178.088312
59845		8.390294	0.929079	-1.878612	0.545218	-4.325508	-1.733188	-0.041992	0.315918	-0.490723	-17.296817	-31.374308	177.859214
59846		9.053852	0.658851	-1.321237	0.547201	-4.256285	-1.898072	-0.099365	0.319336	-0.501465	-16.775020	-34.026481	177.477502
59847		9.400814	0.295746	-0.907599	0.564662	-4.211502	-1.966295	-0.147217	0.311768	-0.520996	-16.166809	-36.675119	176.994883
59848		9.424422	-0.136123	-0.474582	0.597472	-4.232837	-1.939837	-0.200195	0.309326	-0.519043	-15.507355	-39.313605	176.483110
59849		9.735048	-0.287061	-0.135901	0.641886	-4.315071	-1.835093	-0.250244	0.303711	-0.533691	-14.819823	-41.991224	176.000806
59850		9.929017	-0.264094	0.327723	0.679817	-4.425497	-1.721380	-0.295654	0.296631	-0.531982	-14.128881	-44.694963	175.564689
59851		9.880773	-0.014877	0.900685	0.698016	-4.572618	-1.655385	-0.355225	0.283691	-0.537842	-13.416231	-47.482638	175.138364
59852		10.351396	-0.068773	1.438078	0.722093	-4.736961	-1.648878	-0.397949	0.284180	-0.524902	-12.651362	-50.342041	174.675316
59853		11.474480	-0.241739	2.142587	0.761215	-4.853446	-1.699702	-0.452637	0.275879	-0.509766	-11.748109	-53.283937	174.088234
59854		12.647205	-0.513956	2.825694	0.830352	-4.893188	-1.793572	-0.502686	0.254150	-0.497559	-10.618318	-56.235953	173.290230
59855		13.703160	-0.799541	3.441321	0.926885	-4.859692	-1.890164	-0.545166	0.254639	-0.478271	-9.150252	-59.183723	172.188756
59856		14.366423	-1.248890	3.843265	1.060995	-4.780089	-1.942836	-0.594238	0.242920	-0.470459	-7.285094	-62.056190	170.748789
59857		14.886520	-1.567275	4.283564	1.237161	-4.686086	-1.984609	-0.638428	0.227051	-0.449707	-4.874307	-64.865873	168.853282
59858		15.351230	-2.014817	4.752169	1.439035	-4.583680	-1.973220	-0.668945	0.221191	-0.441406	-1.843866	-67.557203	166.445564
59859		15.792960	-2.340712	5.556126	1.668797	-4.487267	-1.911431	-0.709961	0.203613	-0.432129	1.962770	-70.147025	163.396246
59860		16.415570	-2.373108	6.968311	1.888838	-4.380996	-1.811199	-0.745361	0.181885	-0.406494	6.667116	-72.576475	159.576916
59861		16.231402	-2.142535	9.093708	2.084684	-4.250589	-1.697945	-0.769043	0.168213	-0.402100	12.558053	-74.835593	154.691062
59862		16.626428	-1.779465	11.284997	2.205356	-4.178932	-1.499802	-0.798340	0.151611	-0.388916	19.741883	-76.903086	148.589633
59863		17.978780	-1.733662	13.768008	2.254949	-3.982013	-1.098764	-0.821777	0.137207	-0.379883	28.033612	-78.753940	141.435972
59864		18.680924	-1.234298	16.551267	2.214595	-3.713709	-0.578996	-0.845459	0.131592	-0.369629	37.037591	-80.377465	133.574117
59865		16.083189	-0.274684	19.133499	2.055230	-3.445665	-0.056610	-0.857178	0.126953	-0.348145	46.890250	-81.840152	124.799666
59866		12.290240	-0.192671	20.595587	1.826169	-3.264957	0.236133	-0.869873	0.125244	-0.345215	58.594896	-83.090282	114.051737
59867		10.388912	0.169775	21.649420	1.592464	-3.105494	0.312681	-0.884277	0.135742	-0.341309	73.363878	-83.990990	100.112031
59868		9.470714	0.517149	22.402852	1.336218	-2.902277	0.274718	-0.914795	0.134521	-0.333984	90.166661	-84.392648	83.995279
59869		8.539267	0.057661	22.619613	1.081654	-2.637506	0.134377	-0.914063	0.140137	-0.321533	106.099502	-84.253284	68.610743
59870		8.565462	-0.609644	22.712117	0.891599	-2.252656	-0.047332	-0.931641	0.129883	-0.318848	117.953666	-83.743569	57.207410
59871		8.879391	-1.005649	23.035115	0.740525	-1.740033	-0.104395	-0.941162	0.129150	-0.319092	125.556654	-83.164139	49.984108
59872		8.895599	-1.801146	22.740414	0.623095	-1.145457	-0.074675	-0.939453	0.135010	-0.313721	129.934888	-82.729095	45.934233
59873		36.300152	-10.556557	26.068088	0.768663	0.853434	0.995360	-0.943604	0.128662	-0.323975	130.359048	-83.479087	45.952191
59874		9.829258	-11.699850	23.129888	1.214813	2.986564	1.358503	-0.911377	0.137451	-0.355225	121.830487	-85.122424	55.223479
59875		11.907385	-11.738804	12.709306	1.677628	4.900861	2.507953	-0.878418	0.152344	-0.406738	86.254496	-87.311747	91.830568
59876		10.192059	-7.654043	-4.710986	2.089076	5.310108	1.493662	-0.832031	0.145508	-0.440674	30.431641	-86.328435	148.924943
59877		18.451564	1.241067	-0.298759	2.444805	5.870550	1.005846	-0.798584	0.132568	-0.489502	12.181991	-83.361562	168.649175
59878		5.909821	7.392180	15.568239	1.033093	5.420176	1.474349	-0.751953	0.137207	-0.517090	3.846780	-80.398486	177.665456
59879		-7.211282	-0.768600	11.164335	-0.097870	1.272524	0.418874	-0.733154	0.138184	-0.526367	2.185528	-79.681504	179.296649
59880		4.377654	-3.743341	3.718737	-0.176657	0.341620	0.142953	-0.736816	0.135986	-0.523682	1.588007	-79.491687	179.803238
59881		11.317038	0.885400	1.553323	0.085759	-0.067864	0.007393	-0.734619	0.140869	-0.518066	1.597738	-79.528117	179.844718
59882		8.771929	-1.299016	2.033816	0.061643	0.059966	0.016826	-0.734131	0.133789	-0.529541	1.560127	-79.497135	179.920862
59883		9.278109	-0.066181	1.971183	0.075823	0.049804	-0.171987	-0.728760	0.141113	-0.526611	2.106553	-79.462979	179.410688
59884		9.517664	0.721321	2.064561	0.047628	0.081295	-0.102062	-0.746094	0.130127	-0.524170	2.421979	-79.417262	179.119563
59885		8.955952	0.165358	2.280415	0.006320	0.055059	-0.055308	-0.737549	0.135742	-0.522705	2.565246	-79.381941	178.978886
59886		9.254511	0.029559	2.150993	-0.008036	0.006970	-0.059783	-0.737793	0.132568	-0.530273	2.726933	-79.379529	178.811673
59887		9.544351	0.099566	2.061932	-0.021764	-0.017070	-0.066587	-0.738037	0.132080	-0.525391	2.898109	-79.385000	178.626210
59888		9.581277	-0.064055	2.048283	-0.017490	-0.028394	-0.077500	-0.737061	0.137695	-0.519531	3.114306	-79.402096	178.398036
59889		9.662464	-0.016908	2.027993	-0.001769	-0.033839	-0.085007	-0.732178	0.140625	-0.523926	3.356842	-79.416322	178.151640
59890		9.680088	0.165358	1.987123	-0.002514	-0.026538	-0.076217	-0.740479	0.134033	-0.528564	3.578741	-79.432061	177.926417
59891		9.712406	0.269672	1.980868	-0.005417	-0.012676	-0.047487	-0.741455	0.134766	-0.526855	3.701162	-79.435248	177.800095
59892		9.699856	0.242691	2.023283	-0.009282	-0.012448	-0.023340	-0.735107	0.130859	-0.528809	3.754919	-79.444714	177.741978
59893		9.647182	0.163273	2.006101	-0.017944	-0.000701	-0.004224	-0.731201	0.139648	-0.527100	3.735322	-79.442647	177.752821
59894		9.581755	0.052119	2.032940	-0.016855	-0.003579	0.005032	-0.737793	0.136475	-0.523926	3.695929	-79.448098	177.785044
59895		9.642893	0.023051	1.976259	-0.013672	0.002165	0.002316	-0.747070	0.127686	-0.521973	3.658176	-79.444644	177.816845
59896		9.521555	0.003668	2.023824	-0.007544	0.007068	-0.000592	-0.737793	0.129883	-0.518066	3.639262	-79.443794	177.833664
59897		9.561017	0.064305	2.036844	-0.002120	0.004592	-0.007440	-0.749023	0.135010	-0.525146	3.637571	-79.438609	177.835517
59898		9.560437	0.074993	1.989490	-0.010336	0.003615	-0.005647	-0.743896	0.138184	-0.524658	3.633243	-79.439550	177.835872
59899		9.628121	0.084587	2.015898	-0.006760	-0.001065	-0.001466	-0.741943	0.144287	-0.522705	3.611680	-79.437829	177.855235
59900		9.526950	0.062849	2.012153	-0.003816	-0.001907	-0.001660	-0.736084	0.132813	-0.525635	3.599921	-79.442071	177.866948
59901		9.614743	0.069751	1.987573	-0.005296	-0.001319	-0.003144	-0.742188	0.139648	-0.525635	3.584401	-79.440446	177.881018
59902		9.607370	0.102650	1.994798	-0.006920	0.003396	0.002202	-0.739014	0.138916	-0.526123	3.557987	-79.441792	177.905830
59903		9.594075	0.081854	1.991166	-0.007064	0.007523	0.009032	-0.742920	0.136963	-0.531250	3.502465	-79.435553	177.959562
59904		9.567755	0.035392	2.007606	-0.009137	0.011114	0.011080	-0.738281	0.139404	-0.531494	3.446126	-79.432785	178.013524
59905		9.593637	0.079476	1.993371	-0.014169	0.015882	0.010160	-0.739990	0.135254	-0.526611	3.381675	-79.421799	178.072203
59906		9.614067	0.060278	2.015991	-0.009929	0.019414	0.010377	-0.736816	0.131836	-0.524658	3.325660	-79.414240	178.125377
59907		9.647190	0.071533	1.995207	-0.008465	0.019160	0.008700	-0.736816	0.137207	-0.526611	3.268604	-79.401324	178.179863
59908		9.565863	0.040696	1.966823	-0.009651	0.025165	0.015767	-0.733398	0.135986	-0.530029	3.195484	-79.390629	178.250604
59909		9.618379	0.114397	2.009921	-0.007754	0.026369	0.014228	-0.736084	0.133789	-0.523193	3.121057	-79.373758	178.323186
59910		9.617607	0.117582	1.988856	-0.007463	0.031784	0.022782	-0.731934	0.139404	-0.529785	3.027086	-79.359456	178.416425
59911		9.651107	0.111856	2.041100	-0.010988	0.035293	0.029673	-0.738037	0.134033	-0.524414	2.902998	-79.337908	178.537664
59912		9.644090	0.065300	1.985741	-0.010248	0.041662	0.043113	-0.741943	0.132813	-0.523438	2.744881	-79.318451	178.694566
59913		9.697652	0.049868	2.012411	-0.007635	0.049903	0.048691	-0.734863	0.148193	-0.529785	2.564209	-79.288941	178.875368
59914		9.614545	0.096336	2.029119	-0.009266	0.054616	0.054049	-0.735596	0.131836	-0.524902	2.373325	-79.262159	179.066218
59915		9.693833	0.134831	1.994099	-0.010173	0.066031	0.069689	-0.731201	0.142090	-0.531494	2.128177	-79.223669	179.311212
59916		9.557659	0.093925	2.019188	-0.013279	0.071167	0.075150	-0.730225	0.125488	-0.538574	1.872285	-79.187542	179.565945
59917		9.664875	0.068958	2.047055	-0.018275	0.074429	0.088479	-0.727295	0.136719	-0.531006	1.569214	-79.144163	179.865260
59918		9.595787	0.051408	2.027607	-0.018296	0.075268	0.080588	-0.734619	0.137695	-0.530273	1.297706	-79.105295	-179.866964
59919		9.535216	-0.104990	2.077851	-0.020218	0.074909	0.074230	-0.726807	0.144043	-0.526123	1.040320	-79.060952	-179.615219
59920		9.566194	-0.008830	2.057470	-0.025681	0.078910	0.066848	-0.729004	0.139648	-0.529785	0.808924	-79.019423	-179.392534
59921		9.604505	0.044535	2.077879	-0.023183	0.077107	0.061790	-0.729980	0.144287	-0.525635	0.590254	-78.973358	-179.181879
59922		9.537220	-0.152906	2.069246	-0.025856	0.084716	0.057902	-0.732910	0.134521	-0.531494	0.388296	-78.928138	-178.989222
59923		9.762885	0.105101	2.084973	-0.023519	0.087030	0.059695	-0.721191	0.143311	-0.524414	0.178901	-78.876106	-178.788142
59924		9.693494	0.083409	2.090677	-0.021967	0.094423	0.090881	-0.728516	0.140381	-0.525635	-0.113141	-78.825042	-178.501330
59925		9.797678	0.327349	2.106588	-0.014035	0.109543	0.151550	-0.721436	0.151367	-0.526855	-0.577330	-78.759391	-178.034876
59926		10.038647	0.520371	2.041513	-0.009777	0.141454	0.244639	-0.721191	0.144287	-0.523682	-1.294051	-78.679014	-177.307768
59927		10.117946	0.426973	2.094956	-0.005661	0.187311	0.357006	-0.714111	0.145508	-0.529785	-2.315208	-78.562857	-176.267982
59928		10.115191	0.299857	2.098037	-0.005677	0.242558	0.453096	-0.708252	0.145996	-0.533936	-3.571715	-78.413554	-174.987020
59929		10.245901	0.265593	2.179357	-0.009236	0.272709	0.524316	-0.712402	0.155273	-0.538818	-4.987541	-78.232728	-173.545172
59930		10.429293	0.134074	2.222420	-0.022666	0.322881	0.601415	-0.694336	0.157715	-0.530762	-6.557849	-78.016641	-171.951813
59931		10.853287	-0.007825	2.325693	-0.045796	0.344412	0.645270	-0.699463	0.157959	-0.539795	-8.191117	-77.770712	-170.306665
59932		11.383409	-0.165312	2.410394	-0.084525	0.374894	0.581130	-0.696045	0.161865	-0.532471	-9.604480	-77.509429	-168.907363
59933		16.409285	-1.165418	2.102077	-0.049518	0.508799	0.551325	-0.685791	0.162842	-0.541748	-10.800783	-77.163665	-167.708680
59934		18.445475	-0.909947	1.859194	-0.030080	0.944169	0.577888	-0.677979	0.168213	-0.546631	-11.770689	-76.570626	-166.728444
59935		16.013421	-1.087263	2.217300	0.033754	1.281113	0.581671	-0.671631	0.166992	-0.549561	-12.462056	-75.780270	-165.994839
59936		15.867105	-1.739621	2.107972	0.057205	1.514600	0.398010	-0.655273	0.169922	-0.557617	-12.574279	-74.885874	-165.842951
59937		16.525688	-2.008736	1.780528	0.064509	1.783299	0.171665	-0.628662	0.171875	-0.568604	-12.111180	-73.864230	-166.283664
59938		17.687129	-2.491785	1.552483	0.109088	2.106211	0.030665	-0.621582	0.172363	-0.568848	-11.302186	-72.681232	-167.061065
59939		19.529583	-2.835672	1.048195	0.114246	2.524591	-0.208416	-0.601074	0.168213	-0.587402	-10.062082	-71.279930	-168.294438
59940		23.080346	-0.205275	0.904384	0.098138	3.078008	-0.263703	-0.581055	0.169922	-0.592773	-8.783459	-69.567203	-169.589611
59941		25.771755	5.245565	0.814256	-0.049199	3.774154	0.149262	-0.549316	0.166992	-0.606201	-8.223699	-67.414916	-170.219694
59942		25.646743	7.172743	0.113298	-0.317968	4.503650	0.839746	-0.510986	0.169434	-0.610840	-8.633083	-64.794337	-169.969168
59943		26.570805	6.910238	-0.992590	-0.596774	5.244595	1.471385	-0.458740	0.182861	-0.631592	-9.682130	-61.693951	-169.175491
59944		28.831356	5.641056	-2.457889	-0.812088	6.164157	1.952171	-0.387451	0.203369	-0.632568	-10.958007	-58.021160	-168.236588
59945		30.188526	6.279712	-1.842533	-0.931722	7.130782	2.361618	-0.330322	0.210205	-0.638916	-12.238049	-53.749365	-167.333282
59946		27.062495	5.996114	-0.151919	-1.074930	7.925296	2.314716	-0.239990	0.212646	-0.637451	-13.224298	-49.030049	-166.857683
59947		19.772958	-1.711445	4.264202	-1.074740	8.140271	1.672566	-0.177490	0.226074	-0.626465	-13.677552	-44.276147	-167.077135
59948		14.496052	-4.073132	4.310353	-0.745638	7.843884	0.608614	-0.101807	0.236328	-0.624512	-13.460924	-39.827581	-168.035077
59949		17.887690	-0.736333	2.898488	-0.734178	7.486337	-0.312131	-0.037598	0.239258	-0.597168	-12.985061	-35.698861	-169.492805
59950		22.460367	0.746451	-2.045667	-0.897991	7.343452	-0.066151	0.004395	0.252930	-0.579834	-12.849427	-31.608348	-170.662128
59951		19.230508	1.914983	-7.017606	-1.065439	7.232483	0.265412	0.068359	0.262695	-0.554443	-13.015498	-27.543879	-171.554615
59952		16.304945	4.116343	-10.222522	-1.190386	7.096500	0.265283	0.126221	0.265625	-0.519043	-13.325521	-23.552305	-172.412852
59953		12.224978	6.893714	-10.860366	-1.417054	6.859622	0.131754	0.175049	0.275391	-0.489746	-13.797988	-19.724945	-173.321791
59954		9.506819	7.442753	-11.629666	-1.672739	6.852587	0.139413	0.212402	0.287354	-0.452881	-14.472810	-15.900128	-174.243181
59955		-14.973581	6.222478	-6.015057	-1.930877	6.679790	0.135274	0.261719	0.305908	-0.410400	-15.347293	-12.194665	-175.177408
59956		-11.420818	2.977998	-5.184598	-1.943117	4.386388	-1.547127	0.271240	0.332031	-0.376953	-16.158195	-10.018374	-176.737921
59957		-6.065215	2.521847	-5.649434	-1.898331	2.942463	-2.828289	0.264404	0.354980	-0.362061	-16.902045	-8.873992	-178.795602
59958		-9.768510	-1.099710	-5.822252	-1.722272	1.278360	-3.373868	0.259277	0.394775	-0.337891	-17.567762	-8.749050	179.120626
59959		-7.679970	-3.493206	-6.555247	-1.316480	-0.386405	-3.159787	0.225586	0.419922	-0.332031	-18.049754	-9.523058	177.446739
59960		-3.778350	-4.238496	-6.011730	-0.829986	-1.724207	-2.526669	0.183350	0.428223	-0.323486	-18.331787	-10.915365	176.366847
59961		0.075225	-4.143523	-5.261433	-0.370993	-2.680770	-1.758713	0.170410	0.447754	-0.342529	-18.440475	-12.699324	175.888289
59962		2.863938	-3.684941	-4.768991	0.041579	-3.285283	-1.086824	0.129395	0.446777	-0.361572	-18.416757	-14.683764	175.896949
59963		4.001744	-3.064740	-4.170442	0.390918	-3.676018	-0.608278	0.099609	0.451660	-0.373535	-18.282207	-16.801426	176.245715
59964		4.478929	-1.950439	-3.757048	0.677896	-3.954151	-0.339526	0.076172	0.454590	-0.398682	-18.061769	-19.016483	176.798317
59965		4.903608	-1.001124	-3.346156	0.889985	-4.161411	-0.252806	0.048340	0.451416	-0.419434	-17.767456	-21.339334	177.436647
59966		5.488240	-0.576625	-3.108039	1.054067	-4.282175	-0.369133	0.016602	0.449463	-0.439209	-17.387076	-23.744020	178.024979
59967		6.153507	0.265637	-2.792595	1.177823	-4.328734	-0.633424	-0.023682	0.444824	-0.459717	-16.888697	-26.231473	178.452710
59968		6.956790	1.477463	-2.252350	1.225810	-4.309818	-0.956287	-0.057373	0.431885	-0.483643	-16.279959	-28.756391	178.659864
59969		7.723388	1.581860	-1.502867	1.211982	-4.241024	-1.301389	-0.101074	0.431885	-0.509033	-15.554124	-31.309128	178.605521
59970		8.180471	1.399805	-0.867251	1.205459	-4.176254	-1.630136	-0.156006	0.437988	-0.519043	-14.686552	-33.864755	178.280977
59971		8.190553	1.157367	-0.195761	1.177109	-4.149329	-1.882962	-0.197021	0.433350	-0.525146	-13.683621	-36.446654	177.718301
59972		8.112273	0.716464	0.414220	1.155848	-4.209447	-2.051524	-0.255127	0.421875	-0.540771	-12.559781	-39.064559	176.968009
59973		8.307840	0.243940	1.267751	1.138524	-4.351164	-2.114283	-0.303955	0.416260	-0.542480	-11.335283	-41.767979	176.093005
59974		9.009122	-0.266859	1.980681	1.122460	-4.502249	-2.141922	-0.357422	0.417725	-0.554199	-10.010880	-44.532642	175.100195
59975		9.405922	-1.155087	2.643484	1.137708	-4.652558	-2.141353	-0.413330	0.402100	-0.557373	-8.548711	-47.375745	173.980130
59976		10.092067	-1.692736	3.183546	1.211075	-4.802443	-2.060280	-0.475342	0.387207	-0.551025	-6.943664	-50.263986	172.772722
59977		11.270968	-2.040709	3.593101	1.312465	-4.897524	-1.921992	-0.528076	0.381836	-0.545654	-5.175894	-53.185700	171.485769
59978		12.537845	-2.260950	4.132251	1.432103	-4.914509	-1.774808	-0.592285	0.374023	-0.534912	-3.219767	-56.071305	170.096189
59979		13.416331	-2.087759	4.710010	1.542218	-4.872054	-1.672168	-0.640137	0.361084	-0.532471	-0.990506	-58.911775	168.507221
59980		13.931493	-1.767583	5.186530	1.623116	-4.784605	-1.599604	-0.692871	0.344238	-0.506348	1.565846	-61.651844	166.637580
59981		14.472150	-1.426133	5.783601	1.676306	-4.684231	-1.558377	-0.747070	0.333252	-0.494873	4.561660	-64.300408	164.359358
59982		15.096116	-1.424630	6.368964	1.713289	-4.566788	-1.500459	-0.785645	0.314209	-0.481689	8.051650	-66.810721	161.607123
59983		15.681045	-1.470747	7.495798	1.754787	-4.452700	-1.389725	-0.833740	0.303467	-0.462891	12.113983	-69.199799	158.316881
59984		16.150221	-1.569055	8.809167	1.780989	-4.319042	-1.222114	-0.876465	0.285400	-0.439453	16.749767	-71.426746	154.480220
59985		15.821522	-1.442785	9.912218	1.805899	-4.214989	-0.988737	-0.910645	0.277100	-0.428467	22.035313	-73.533248	150.029140
59986		15.187768	-0.901911	11.562604	1.803515	-4.173192	-0.651082	-0.942627	0.265625	-0.394043	27.941445	-75.548936	144.976628
59987		14.291041	-0.309750	13.639282	1.761221	-4.186835	-0.213583	-0.979248	0.260010	-0.386475	34.628176	-77.551492	139.145284
59988		14.568338	0.234229	14.916967	1.668171	-4.195197	0.197085	-1.003418	0.258789	-0.353027	42.540747	-79.508966	132.050262
59989		13.834290	0.931888	16.374778	1.528360	-4.104823	0.468126	-1.019287	0.251465	-0.333252	52.688322	-81.309040	122.653253
59990		12.942958	1.159340	17.500500	1.389392	-3.963445	0.561358	-1.052490	0.256592	-0.306152	66.333559	-82.751974	109.682923
59991		12.003499	1.656374	18.425435	1.250173	-3.735659	0.512303	-1.065918	0.260986	-0.289795	83.848880	-83.600838	92.770037
59992		11.280837	1.872571	19.028011	1.086136	-3.431483	0.374074	-1.083252	0.253174	-0.252441	102.341243	-83.713267	74.793733
59993		11.276531	2.215034	19.609093	0.915934	-3.001917	0.225472	-1.097900	0.263184	-0.236572	117.514156	-83.244475	60.054386
59994		11.221531	2.422281	19.674785	0.725464	-2.458785	0.055670	-1.107910	0.257324	-0.199707	127.618292	-82.511618	50.293117
59995		10.928153	1.748588	19.370361	0.540712	-1.816899	-0.180733	-1.116211	0.254150	-0.181152	133.222601	-81.755669	44.950722
59996		10.955349	1.122114	19.137872	0.399425	-1.091076	-0.492295	-1.138672	0.253418	-0.169434	135.154580	-81.117921	43.230393
59997		37.197265	-4.596540	22.905104	0.362494	0.890528	0.216712	-1.124023	0.251953	-0.189209	133.560513	-81.563784	45.054429
59998		8.444454	-4.416682	20.374423	0.513647	2.631418	0.533651	-1.109375	0.257324	-0.220703	126.955512	-82.774280	52.020106
59999		18.572027	-7.346271	17.382349	0.564906	4.272981	1.881874	-1.083252	0.263916	-0.260010	112.439077	-84.945762	66.943364
60000		9.845333	-8.250289	5.646398	0.873764	5.570238	2.618759	-1.037842	0.285889	-0.311768	68.912043	-86.608672	111.077286
60001		11.689671	-4.759479	-0.817621	1.365362	5.514284	1.340365	-0.999756	0.296387	-0.361084	29.265129	-85.023550	151.603577
60002		14.192559	0.783495	5.166058	1.311840	5.818868	1.265573	-0.950684	0.290039	-0.404785	13.182666	-82.151069	168.539060
60003		-4.551211	4.778379	17.345258	-0.132269	4.133622	1.184608	-0.917480	0.304199	-0.430664	6.288338	-79.925257	175.441583
60004		2.465488	-2.346191	5.710586	-0.060658	0.563219	0.372031	-0.909424	0.305176	-0.427734	4.888022	-79.628145	176.831140
60005		7.453057	-2.352698	2.926769	-0.094681	0.035585	0.104461	-0.919922	0.304932	-0.433594	4.473199	-79.608319	177.198766
60006		11.373269	-0.219262	0.888679	0.070314	0.110711	0.090656	-0.911377	0.298340	-0.434570	4.190731	-79.552242	177.528908
60007		8.631974	-0.572211	2.295315	0.057194	0.173654	-0.031650	-0.911133	0.301758	-0.432129	4.255102	-79.447281	177.497836
60008		8.876688	0.095988	2.197606	0.060459	0.107567	-0.126487	-0.910889	0.301758	-0.437012	4.636099	-79.383476	177.147460
60009		9.279490	0.411384	2.319113	0.021084	0.082284	-0.081502	-0.921143	0.293945	-0.438965	4.848539	-79.328237	176.944639
60010		9.282143	0.261364	2.216840	0.010302	0.047928	-0.059185	-0.914063	0.309570	-0.438477	5.006565	-79.301249	176.791809
60011		9.276077	0.219026	2.183928	-0.006660	0.000582	-0.063585	-0.911865	0.298828	-0.437744	5.168259	-79.293291	176.624400
60012		9.743891	0.221794	2.031195	-0.013840	-0.013853	-0.058473	-0.910400	0.302246	-0.439697	5.326384	-79.301432	176.457383
60013		9.720584	0.100266	2.003385	-0.003484	-0.006699	-0.048476	-0.918701	0.299072	-0.436768	5.446241	-79.298278	176.334396
60014		9.547425	0.003846	2.031961	0.005148	-0.003888	-0.053245	-0.919678	0.300781	-0.435547	5.596797	-79.300876	176.186154
60015		9.656036	0.229637	2.053016	0.006611	-0.003804	-0.058067	-0.917725	0.304199	-0.431396	5.750349	-79.295431	176.034757
60016		9.658348	0.377953	2.058656	-0.000053	0.002489	-0.023677	-0.910400	0.302490	-0.436035	5.806818	-79.295976	175.979235
60017		9.756378	0.272650	1.986433	-0.009258	0.011731	0.004717	-0.920898	0.296631	-0.436035	5.757270	-79.285255	176.025279
60018		9.665735	0.118952	2.006373	-0.008573	0.028502	0.025600	-0.914063	0.298096	-0.431396	5.652552	-79.273789	176.128835
60019		9.667898	0.025850	2.014743	-0.002277	0.029640	0.012752	-0.912598	0.302002	-0.439697	5.577889	-79.253302	176.204523
60020		9.568955	0.135899	2.066794	0.000463	0.033774	0.011503	-0.912354	0.287842	-0.443848	5.519631	-79.237996	176.266069
60021		9.581155	0.159948	2.050302	0.001522	0.031402	0.016010	-0.914795	0.308105	-0.446533	5.437358	-79.216663	176.351732
60022		9.505515	0.175671	2.057164	-0.003737	0.028890	0.023895	-0.908691	0.299561	-0.437988	5.341402	-79.204777	176.449211
60023		9.520535	0.107339	2.045688	-0.007952	0.025004	0.026814	-0.913086	0.302002	-0.438232	5.223843	-79.187620	176.565286
60024		9.540837	0.087158	2.069059	-0.005854	0.021755	0.021621	-0.909668	0.305176	-0.440918	5.135872	-79.179622	176.653410
60025		9.524981	0.150736	2.084814	-0.006494	0.013874	0.022411	-0.910645	0.302734	-0.437744	5.035784	-79.168528	176.752561
60026		9.478043	0.125656	2.056620	-0.010072	0.018036	0.022961	-0.912842	0.297852	-0.440186	4.942656	-79.162664	176.843481
60027		9.545036	0.143178	2.037254	-0.010285	0.010950	0.030205	-0.907715	0.303955	-0.437500	4.818286	-79.153562	176.965154
60028		9.560324	0.069040	2.048250	-0.014285	0.013485	0.032194	-0.915039	0.300293	-0.436768	4.696598	-79.150667	177.082700
60029		9.593717	0.073379	2.051138	-0.014288	0.013818	0.029039	-0.908203	0.299072	-0.435059	4.573071	-79.139789	177.201192
60030		9.546810	0.043011	2.046663	-0.010920	0.015449	0.019529	-0.914307	0.302490	-0.431641	4.490767	-79.135111	177.280605
60031		9.626735	0.086536	2.007934	-0.009023	0.016661	0.018003	-0.915771	0.294434	-0.438232	4.402767	-79.122061	177.366004
60032		9.543726	0.114698	2.116080	-0.009647	0.019494	0.023112	-0.908691	0.309814	-0.438232	4.309841	-79.115182	177.456982
60033		9.543361	0.117305	2.093951	-0.011971	0.016823	0.024499	-0.907959	0.297852	-0.439941	4.201221	-79.102275	177.561672
60034		9.483396	0.071496	2.061489	-0.017869	0.017815	0.031173	-0.912354	0.303467	-0.439453	4.080319	-79.096625	177.676346
60035		9.571057	0.065352	2.087500	-0.013446	0.016401	0.032488	-0.910156	0.298096	-0.439209	3.947721	-79.084207	177.804608
60036		9.537093	0.054771	2.087352	-0.014296	0.014152	0.025889	-0.908447	0.302246	-0.446533	3.845572	-79.080353	177.902276
60037		9.583514	0.094966	2.023076	-0.015771	0.014400	0.027559	-0.914063	0.299561	-0.441650	3.727063	-79.068807	178.014844
60038		9.523496	0.033759	2.062057	-0.017871	0.017982	0.029602	-0.911133	0.302002	-0.438965	3.611377	-79.062825	178.124218
60039		9.582827	0.083401	2.050375	-0.017022	0.020565	0.033048	-0.919434	0.306152	-0.441162	3.475243	-79.047875	178.254024
60040		9.488999	0.014628	2.088044	-0.017445	0.019777	0.026590	-0.903320	0.306885	-0.444336	3.368734	-79.040674	178.354307
60041		9.636343	0.071799	2.053341	-0.019545	0.023192	0.030214	-0.908936	0.306396	-0.438477	3.239658	-79.024039	178.475468
60042		9.555452	0.022961	2.095484	-0.017027	0.020395	0.034635	-0.906982	0.307617	-0.437256	3.109947	-79.016658	178.599638
60043		9.495277	-0.027784	2.087059	-0.015540	0.021492	0.020333	-0.901611	0.305908	-0.436523	3.013164	-79.000612	178.690256
60044		9.601402	0.055465	2.057866	-0.015544	0.021155	0.023494	-0.904785	0.307373	-0.436279	2.917383	-78.992379	178.780737
60045		9.587884	0.027682	2.079347	-0.012595	0.020489	0.021739	-0.899170	0.310791	-0.440186	2.818756	-78.976905	178.874965
60046		9.566726	0.033125	2.108010	-0.015110	0.023288	0.017322	-0.904297	0.305420	-0.439941	2.741381	-78.967223	178.946954
60047		9.641391	0.028574	2.035121	-0.014255	0.026374	0.016032	-0.901367	0.308594	-0.440918	2.658186	-78.948188	179.024504
60048		9.646177	0.074516	2.073302	-0.017400	0.031834	0.018311	-0.904053	0.308105	-0.440430	2.575807	-78.933602	179.100264
60049		9.658517	0.092439	2.081095	-0.017170	0.037916	0.020558	-0.904297	0.316406	-0.436768	2.476793	-78.908052	179.192246
60050		9.683844	0.135115	2.070302	-0.024941	0.048915	0.028364	-0.906494	0.308838	-0.437988	2.359232	-78.883881	179.299466
60051		9.609709	0.058909	2.084717	-0.026133	0.066967	0.027158	-0.904785	0.308594	-0.444824	2.233573	-78.841802	179.413396
60052		9.740872	0.506285	2.065993	-0.021112	0.080394	0.066830	-0.895508	0.313232	-0.439453	2.004748	-78.800314	179.636296
60053		9.880229	0.265942	2.026519	-0.006928	0.108733	0.165427	-0.892578	0.311035	-0.446289	1.490865	-78.736544	-179.842701
60054		9.697924	0.094302	2.054253	-0.002927	0.145256	0.215718	-0.906006	0.312256	-0.435791	0.847838	-78.658930	-179.186687
60055		9.756328	0.028143	2.085553	-0.003570	0.168120	0.242323	-0.897461	0.315674	-0.445068	0.130351	-78.559327	-178.455704
60056		9.698922	-0.091230	2.156388	-0.002411	0.188654	0.241470	-0.884277	0.322998	-0.447021	-0.564074	-78.453703	-177.746497
60057		9.653552	-0.088500	2.179740	-0.003901	0.189578	0.236945	-0.890625	0.314941	-0.440430	-1.240244	-78.338402	-177.057297
60058		9.548135	-0.228701	2.220972	-0.007066	0.195214	0.237778	-0.884766	0.310303	-0.445068	-1.900746	-78.225771	-176.384889
60059		9.509632	-0.256835	2.236767	-0.008662	0.181747	0.204432	-0.885010	0.318115	-0.435791	-2.465812	-78.112606	-175.811392
60060		9.816414	-0.151008	2.237884	-0.014030	0.176256	0.181621	-0.883301	0.323486	-0.442139	-2.957460	-78.009650	-175.315107
60061		10.521697	0.159776	2.270540	-0.023451	0.198693	0.178001	-0.880859	0.320313	-0.455811	-3.437575	-77.885588	-174.836645
60062		11.874574	0.001293	2.179326	-0.031823	0.297312	0.206945	-0.880859	0.314941	-0.455811	-3.966589	-77.710720	-174.312073
60063		14.126414	-0.344753	2.078017	-0.013087	0.482586	0.205268	-0.868896	0.322510	-0.454102	-4.432481	-77.421641	-173.841373
60064		15.407065	-0.230311	2.171261	-0.001157	0.745646	0.214647	-0.862305	0.319580	-0.457520	-4.834816	-76.988599	-173.427485
60065		16.891292	-0.845041	2.104168	0.015057	1.032598	0.256572	-0.859375	0.328125	-0.460938	-5.241942	-76.381796	-172.998916
60066		17.547431	-0.633694	2.230360	0.058671	1.397349	0.206252	-0.839111	0.325195	-0.475342	-5.394916	-75.576347	-172.804599
60067		16.757852	-1.140688	1.691975	0.064533	1.738452	0.115413	-0.824463	0.330566	-0.483887	-5.272146	-74.574241	-172.892017
60068		15.538770	-0.985577	1.880016	0.114126	2.018297	0.053760	-0.811035	0.326172	-0.493164	-4.964642	-73.422396	-173.141855
60069		16.258315	-1.711116	1.744314	0.133680	2.283373	-0.110202	-0.792725	0.321045	-0.506104	-4.355082	-72.119835	-173.698454
60070		17.710842	-0.957650	1.505740	0.136951	2.630992	-0.232357	-0.777100	0.327393	-0.522949	-3.581615	-70.627951	-174.429751
60071		19.136714	0.239885	1.294676	0.090971	3.060746	-0.269701	-0.754150	0.315186	-0.545410	-2.855257	-68.882674	-175.146967
60072		19.682117	1.594362	1.010186	0.034261	3.547484	-0.058995	-0.729736	0.315674	-0.564697	-2.524660	-66.856777	-175.480513
60073		18.643118	2.162022	0.843251	-0.079190	4.011209	0.240583	-0.691895	0.322510	-0.569092	-2.653527	-64.552646	-175.387533
60074		19.849113	1.711725	0.225592	-0.159850	4.468801	0.510505	-0.656738	0.317871	-0.584229	-3.076152	-61.983613	-175.014817
60075		21.603413	4.232660	0.265577	-0.256334	4.995648	0.906652	-0.597656	0.335938	-0.599854	-3.841173	-59.094321	-174.303481
60076		23.148396	3.976044	-0.078044	-0.434465	5.613516	1.244005	-0.549805	0.326172	-0.607666	-4.827135	-55.836004	-173.427387
60077		24.469638	2.570646	0.308025	-0.507585	6.255278	1.601335	-0.481934	0.339355	-0.629395	-5.917050	-52.182583	-172.438149
60078		24.089008	3.660926	2.565228	-0.541233	6.781490	1.887255	-0.417969	0.351807	-0.632568	-6.995105	-48.202612	-171.436727
60079		19.650512	2.888266	6.365667	-0.611750	6.962680	1.866016	-0.346436	0.363037	-0.640869	-7.912093	-44.111129	-170.648867
60080		17.042292	0.130578	6.473454	-0.607732	6.854913	1.270530	-0.285889	0.363525	-0.632080	-8.409378	-40.122488	-170.424021
60081		17.419426	0.025349	4.227798	-0.516175	6.792552	0.499698	-0.219482	0.364502	-0.627197	-8.478290	-36.234971	-170.786691
60082		19.978237	0.045801	2.145197	-0.613790	6.771633	0.137911	-0.164551	0.380371	-0.612061	-8.493213	-32.388367	-171.380546
60083		19.046150	-0.564084	-2.243946	-0.676520	6.729705	0.423450	-0.109131	0.377197	-0.601074	-8.682339	-28.545685	-171.766333
60084		18.293789	0.674379	-4.441700	-0.693578	6.621430	0.635230	-0.056396	0.387939	-0.580566	-8.968205	-24.743416	-172.010881
60085		15.650031	3.419492	-8.399263	-0.713038	6.671166	0.759750	-0.001221	0.386719	-0.562500	-9.300886	-20.909284	-172.198910
60086		10.735593	7.067521	-7.792001	-0.891936	6.451934	0.627579	0.047363	0.390137	-0.527344	-9.722925	-17.206415	-172.465945
60087		7.373437	9.529104	-8.605056	-1.266695	6.317144	0.551581	0.105469	0.401611	-0.504395	-10.358199	-13.598286	-172.793722
60088		-10.646875	5.849100	-4.426562	-1.622489	6.101778	-0.002569	0.131104	0.424561	-0.465088	-11.149373	-10.166220	-173.457757
60089		-9.505619	4.063748	-3.051778	-1.723080	4.058003	-1.549832	0.147705	0.444336	-0.431396	-11.918305	-8.076334	-174.805988
60090		-4.929345	2.009424	-4.268329	-1.753154	2.594747	-2.619326	0.135010	0.466309	-0.408936	-12.686358	-6.945701	-176.600481
60091		-7.798399	-0.909503	-4.351992	-1.610345	1.019094	-2.875533	0.109131	0.484863	-0.389648	-13.395432	-6.757993	-178.346141
60092		-6.251007	-2.609927	-5.223973	-1.323246	-0.527228	-2.418081	0.085693	0.509766	-0.373291	-13.994106	-7.381636	-179.626438
60093		-3.248913	-2.868752	-4.901641	-0.975676	-1.798490	-1.623719	0.054199	0.529297	-0.375977	-14.457378	-8.617217	179.722282
60094		-0.308912	-2.522837	-4.299173	-0.670499	-2.745778	-0.806646	0.031494	0.538086	-0.383057	-14.832082	-10.258226	179.676260
60095		1.415921	-1.730745	-3.759098	-0.411333	-3.435267	-0.161390	0.001221	0.543457	-0.380859	-15.147318	-12.191219	-179.892070
60096		2.024012	-0.775467	-3.429698	-0.212940	-3.994595	0.224938	-0.026123	0.556641	-0.388916	-15.440187	-14.366950	-179.139961
60097		2.380190	-0.104364	-3.228981	-0.063328	-4.479990	0.356428	-0.055908	0.557373	-0.394043	-15.720676	-16.792765	-178.216189
60098		3.121811	0.231480	-3.272523	0.050443	-4.905167	0.209324	-0.080566	0.565918	-0.405273	-15.980314	-19.465636	-177.282897
60099		4.054382	0.491667	-3.188472	0.166756	-5.236707	-0.174489	-0.110840	0.572998	-0.406494	-16.163551	-22.385083	-176.492465
60100		5.295001	0.715434	-3.251790	0.273304	-5.450694	-0.676551	-0.157471	0.574707	-0.415527	-16.228303	-25.494253	-175.942303
60101		7.071720	1.730076	-2.790436	0.346240	-5.501702	-1.209929	-0.220459	0.581543	-0.432129	-16.137394	-28.724185	-175.699008
60102		8.541710	2.232192	-2.054188	0.337237	-5.449641	-1.666297	-0.263184	0.590332	-0.426270	-15.911937	-31.990782	-175.758817
60103		10.085138	1.916187	-1.530549	0.303973	-5.245960	-2.014329	-0.328125	0.597168	-0.417725	-15.539722	-35.207405	-176.110112
60104		11.217662	1.301422	-0.761291	0.279655	-4.981610	-2.245180	-0.386475	0.601318	-0.418945	-15.015325	-38.301794	-176.715152
60105		11.741429	0.615020	-0.020680	0.258203	-4.739171	-2.322826	-0.433838	0.603027	-0.407227	-14.367498	-41.277980	-177.489981
60106		11.653064	0.044877	0.571399	0.233657	-4.557855	-2.281464	-0.499268	0.608643	-0.404785	-13.648049	-44.130357	-178.350204
60107		10.838593	-0.119265	1.224897	0.200920	-4.504485	-2.162406	-0.550781	0.606934	-0.398926	-12.906972	-46.940205	-179.221290
60108		10.279136	-0.070799	1.841671	0.141664	-4.574278	-1.997201	-0.605225	0.597900	-0.380127	-12.213249	-49.749461	179.961737
60109		10.661687	0.089715	2.362326	0.060379	-4.698582	-1.874802	-0.661377	0.593994	-0.360596	-11.559894	-52.619375	179.173307
60110		11.555432	0.029306	3.032172	-0.031706	-4.803260	-1.849360	-0.713379	0.588379	-0.338379	-10.886150	-55.527408	178.321527
60111		12.589821	-0.427627	3.609832	-0.103287	-4.845851	-1.941688	-0.756104	0.576660	-0.312012	-10.035020	-58.474726	177.241685
60112		13.399809	-1.090683	4.060568	-0.115397	-4.821695	-2.149690	-0.814453	0.561035	-0.275146	-8.786450	-61.404217	175.725432
60113		14.301499	-1.666797	4.510558	-0.069342	-4.755341	-2.375073	-0.869385	0.541992	-0.239746	-6.919632	-64.305025	173.588674
60114		15.252186	-2.383159	4.967042	0.030656	-4.644510	-2.564372	-0.923096	0.533203	-0.218506	-4.241474	-67.099920	170.672613
60115		16.123931	-3.602725	5.893041	0.202261	-4.508625	-2.666572	-0.977295	0.512207	-0.165283	-0.528147	-69.761449	166.810575
60116		16.390829	-4.946633	7.111526	0.436459	-4.351101	-2.738364	-1.021240	0.484863	-0.125244	4.518091	-72.203742	161.741136
60117		17.036507	-5.727243	8.785710	0.695398	-4.178992	-2.780049	-1.069580	0.452393	-0.088623	11.287481	-74.374886	155.096179
60118		17.432401	-6.075403	11.068791	0.934527	-3.979095	-2.687311	-1.107910	0.436035	-0.049561	19.789801	-76.167255	146.862647
60119		16.732033	-5.982848	13.587281	1.138638	-3.807073	-2.354695	-1.142090	0.409912	-0.008057	29.658996	-77.602165	137.405918
60120		14.918491	-5.326509	15.662540	1.270303	-3.728513	-1.794635	-1.167969	0.395508	0.029297	40.280741	-78.772275	127.301645
60121		14.804587	-4.277840	16.969699	1.293611	-3.674101	-1.063648	-1.186279	0.385254	0.068848	51.313983	-79.817002	116.833412
60122		14.119071	-3.365446	18.052825	1.216120	-3.565591	-0.404689	-1.190186	0.386230	0.098877	62.777380	-80.742342	105.913322
60123		12.119953	-2.819918	18.296543	1.093593	-3.439403	0.062905	-1.187012	0.373535	0.134277	75.171428	-81.492690	94.008232
60124		10.914555	-2.699864	18.132985	0.970826	-3.242040	0.213967	-1.194336	0.379150	0.166748	88.236564	-81.888166	81.369778
60125		10.910805	-2.299356	17.934415	0.866897	-2.933984	0.157155	-1.178955	0.377686	0.200928	100.590907	-81.850702	69.395737
60126		11.007737	-1.470729	17.506794	0.766796	-2.523059	0.078360	-1.186279	0.381104	0.221436	110.670170	-81.505634	59.655755
60127		10.956771	-1.117890	16.924252	0.657372	-2.045520	0.053043	-1.171143	0.373779	0.237061	118.128513	-81.049564	52.493886
60128		11.025669	-1.203103	16.210825	0.570869	-1.520838	0.050669	-1.168945	0.377441	0.248779	123.225362	-80.630947	47.664591
60129		11.317877	-1.383725	15.469059	0.524665	-0.936681	0.079150	-1.164795	0.375244	0.256592	126.338053	-80.364112	44.815186
60130		11.342286	-1.692111	14.807800	0.508284	-0.309268	0.107764	-1.163086	0.375000	0.264648	127.706322	-80.307584	43.724609
60131		47.908103	-2.394132	15.872721	0.796837	0.320164	0.452778	-1.147949	0.373535	0.250977	128.266627	-80.628802	43.620636
60132		-1.647335	-10.473195	16.067805	0.804202	3.647447	1.612691	-1.141113	0.386475	0.212402	120.614793	-82.578773	51.821681
60133		15.273965	-8.139781	11.056532	1.214880	4.364721	2.157530	-1.116211	0.407227	0.164795	104.811400	-84.713492	68.419908
60134		9.542592	-4.617434	0.064227	1.588792	5.378239	2.268385	-1.087158	0.428467	0.104004	66.588250	-85.847810	107.676768
60135		12.171869	-3.417995	-0.044957	2.038761	5.598807	1.277045	-1.067871	0.434326	0.037598	33.283351	-84.274031	142.268772
60136		13.253300	-0.561339	5.065036	1.913217	5.793088	1.433322	-1.041504	0.435791	-0.017090	16.937777	-81.589882	159.839560
60137		-2.488567	7.221977	17.352696	0.545075	4.009307	1.460932	-1.019775	0.456055	-0.057129	9.172211	-79.532639	168.027442
60138		1.889347	-0.573294	5.848887	-0.007699	0.630001	0.438877	-1.014160	0.454834	-0.054932	7.548493	-79.215502	169.676968
60139		6.489380	-2.290522	3.445289	-0.112629	0.044211	0.147256	-1.014160	0.456787	-0.058594	6.993832	-79.195112	170.176508
60140		11.606004	-0.471398	0.932289	0.081924	0.048361	0.073892	-1.010742	0.452881	-0.056885	6.789700	-79.176071	170.434097
60141		9.039600	-0.329477	2.176822	0.076285	0.195534	0.050990	-1.014404	0.455566	-0.056396	6.579611	-79.062188	170.693128
60142		8.867669	-0.216734	2.174176	0.064057	0.133497	-0.103008	-1.010254	0.460938	-0.062500	6.858903	-78.982698	170.447994
60143		9.103153	0.711140	2.384238	0.046183	0.137683	-0.098418	-1.010742	0.450195	-0.069092	7.087808	-78.891553	170.242281
60144		9.022461	0.530674	2.388831	0.008137	0.076715	-0.037048	-1.009033	0.453613	-0.065430	7.158720	-78.848705	170.176742
60145		9.009986	0.039021	2.295085	-0.010975	0.002122	-0.048780	-1.014404	0.452881	-0.064209	7.257959	-78.837968	170.069730
60146		9.619863	0.225938	2.118409	-0.026902	-0.024536	-0.066414	-1.016113	0.453857	-0.060303	7.430026	-78.850457	169.880618
60147		9.918637	0.146040	1.988818	-0.014609	-0.011930	-0.044291	-1.008301	0.450684	-0.058594	7.519307	-78.847936	169.781628
60148		9.556873	-0.067890	2.076423	0.000224	0.003951	-0.060137	-1.013428	0.456055	-0.064453	7.678204	-78.844559	169.621782
60149		9.681031	0.371197	2.053660	0.009665	0.010931	-0.070675	-1.005371	0.445313	-0.064697	7.848051	-78.826958	169.454837
60150		9.733019	0.522991	2.048129	-0.005347	0.019574	-0.025669	-1.007324	0.451660	-0.058350	7.898123	-78.817271	169.402654
60151		9.734466	0.365913	2.080183	-0.013490	0.036511	0.015476	-1.011719	0.447510	-0.056152	7.797181	-78.791867	169.498211
60152		9.572234	0.222354	2.093264	-0.018107	0.045211	0.040900	-1.014404	0.448486	-0.057861	7.639366	-78.772774	169.650503
60153		9.531184	0.084942	2.133522	-0.017952	0.036288	0.025213	-1.005859	0.458252	-0.065674	7.509226	-78.748164	169.773247
60154		9.576038	0.125275	2.099007	-0.005925	0.040351	0.018942	-1.011230	0.447021	-0.057373	7.423869	-78.730067	169.858799
60155		9.541830	0.115014	2.100332	-0.009306	0.040121	0.015850	-1.014160	0.442139	-0.064697	7.324813	-78.702524	169.954923
60156		9.477834	0.148971	2.114202	0.000193	0.028741	0.010609	-1.009766	0.449219	-0.061035	7.271474	-78.690370	170.011410
60157		9.456220	0.152844	2.143407	-0.000731	0.019827	0.007737	-1.006836	0.456543	-0.061523	7.208305	-78.673751	170.075963
60158		9.526148	0.227997	2.142430	-0.003830	0.013914	0.010185	-1.011963	0.449463	-0.067627	7.159411	-78.669972	170.125572
60159		9.513613	0.206565	2.137561	-0.007614	0.011306	0.013145	-1.007080	0.459717	-0.068359	7.080299	-78.658567	170.202373
60160		9.534534	0.193063	2.134975	-0.009911	0.007852	0.019118	-1.007324	0.453613	-0.069580	7.004824	-78.658840	170.275541
60161		9.488701	0.155306	2.150397	-0.011804	0.006548	0.020598	-1.010010	0.452393	-0.064697	6.904111	-78.650629	170.371935
60162		9.539639	0.104880	2.110787	-0.008541	0.001702	0.014964	-1.011475	0.446533	-0.070313	6.843332	-78.654072	170.430916
60163		9.506187	0.088085	2.131772	-0.007049	0.002007	0.010158	-1.011963	0.449463	-0.062744	6.776609	-78.647705	170.495430
60164		9.576550	0.170288	2.105985	-0.002981	0.000081	0.004922	-1.007568	0.454346	-0.064453	6.748006	-78.651371	170.524842
60165		9.522023	0.166090	2.130401	-0.004068	0.001926	0.005236	-1.008301	0.450439	-0.062500	6.697040	-78.644720	170.575035
60166		9.555477	0.187903	2.086337	-0.004472	0.000236	0.006601	-1.010254	0.446289	-0.061523	6.662754	-78.648401	170.609373
60167		9.509745	0.151584	2.101066	-0.009340	0.000165	0.005183	-1.013672	0.458984	-0.066895	6.609610	-78.642756	170.658713
60168		9.576547	0.167347	2.106236	-0.010834	-0.000370	0.011554	-1.012695	0.450928	-0.061279	6.557815	-78.647096	170.707193
60169		9.588869	0.193045	2.089222	-0.010714	0.005392	0.015596	-1.008789	0.451416	-0.062500	6.472784	-78.639155	170.788263
60170		9.576339	0.156942	2.130620	-0.010996	0.009925	0.017875	-1.011719	0.454834	-0.061768	6.399665	-78.638015	170.858398
60171		9.618352	0.138279	2.101225	-0.010596	0.010923	0.021203	-1.014404	0.456543	-0.058838	6.297320	-78.627257	170.957209
60172		9.597029	0.147698	2.106025	-0.006009	0.015525	0.024902	-1.007813	0.451416	-0.063232	6.205527	-78.623321	171.049309
60173		9.596707	0.144882	2.107689	-0.009675	0.018911	0.030341	-1.005371	0.452148	-0.062256	6.075804	-78.608528	171.176603
60174		9.562835	0.126525	2.130491	-0.006973	0.023363	0.027701	-1.010498	0.455078	-0.060791	5.973457	-78.600222	171.278913
60175		9.574762	0.143848	2.138619	-0.006698	0.018367	0.028551	-1.002441	0.458496	-0.068115	5.851246	-78.585557	171.400303
60176		9.628943	0.144320	2.116225	-0.009278	0.020138	0.032111	-1.010254	0.456543	-0.068115	5.736420	-78.579263	171.514006
60177		9.628662	0.147791	2.094762	-0.009290	0.019214	0.038370	-1.010498	0.453125	-0.064697	5.585386	-78.564588	171.663306
60178		9.607099	0.148644	2.123792	-0.009163	0.025436	0.039291	-1.014404	0.458252	-0.064453	5.449323	-78.555560	171.798752
60179		9.601564	0.228351	2.151807	-0.012838	0.028360	0.047861	-1.007324	0.460938	-0.072266	5.267911	-78.536047	171.977002
60180		9.743350	0.230626	2.133102	-0.024795	0.046593	0.065419	-1.001953	0.458740	-0.063721	5.044757	-78.516123	172.192193
60181		9.709126	0.228796	2.089392	-0.029176	0.069335	0.081770	-0.994141	0.458252	-0.065430	4.750726	-78.474618	172.475866
60182		9.698668	0.236969	2.153748	-0.036147	0.093617	0.103261	-1.006836	0.460938	-0.065430	4.407150	-78.429137	172.807384
60183		9.726593	0.188508	2.127088	-0.044868	0.106539	0.118340	-1.005371	0.462891	-0.068115	3.999746	-78.367257	173.197738
60184		9.774908	0.119433	2.122171	-0.055602	0.130077	0.130297	-0.997314	0.467041	-0.068848	3.569934	-78.301038	173.606070
60185		9.977383	0.218888	2.121435	-0.056710	0.134178	0.158208	-0.990234	0.460693	-0.069824	3.050925	-78.223489	174.103701
60186		9.798404	0.035768	2.160063	-0.049710	0.163987	0.170531	-0.998535	0.453613	-0.072021	2.520868	-78.137555	174.618126
60187		10.067039	0.423173	2.229117	-0.049641	0.165708	0.254126	-0.991699	0.464600	-0.065918	1.757316	-78.041993	175.370169
60188		9.909372	0.102331	2.155451	-0.040531	0.198125	0.308546	-0.981689	0.471191	-0.073242	0.877610	-77.935648	176.247808
60189		9.940962	-0.164139	2.181337	-0.031857	0.209626	0.332652	-0.984131	0.469238	-0.072998	-0.058409	-77.810644	177.187340
60190		10.077253	-0.206887	2.229590	-0.028757	0.231981	0.337809	-0.984863	0.472412	-0.077148	-0.974046	-77.678960	178.109455
60191		11.182512	-0.063260	2.290494	-0.018445	0.280446	0.337193	-0.974121	0.475098	-0.076172	-1.869635	-77.507129	179.016515
60192		13.131363	-0.169442	2.093433	-0.017579	0.442959	0.332123	-0.973145	0.474854	-0.077881	-2.697252	-77.248812	179.856295
60193		11.562815	-0.076077	2.322299	-0.016137	0.598402	0.361582	-0.970947	0.475830	-0.088135	-3.549218	-76.888746	-179.278121
60194		11.338749	-0.583510	2.293079	-0.011148	0.656554	0.360068	-0.968506	0.484863	-0.089111	-4.329781	-76.502041	-178.480603
60195		12.095630	-0.340864	2.373905	0.004507	0.747760	0.333248	-0.947266	0.478760	-0.090332	-4.985001	-76.053062	-177.802490
60196		13.082591	-0.445877	2.337581	0.013643	0.882113	0.320171	-0.947510	0.487061	-0.097168	-5.528253	-75.535645	-177.232040
60197		13.402605	-0.570924	2.411854	0.019917	1.046084	0.288316	-0.937256	0.487305	-0.112793	-5.931948	-74.916425	-176.801722
60198		13.631495	-0.722032	2.420821	0.019854	1.205382	0.217852	-0.923340	0.494385	-0.131104	-6.118926	-74.219139	-176.593939
60199		14.428597	-0.984972	2.274535	0.023968	1.395129	0.141914	-0.922363	0.486328	-0.130615	-6.107311	-73.409551	-176.590704
60200		15.607339	-0.640047	2.283015	0.039090	1.640324	0.092548	-0.909180	0.490234	-0.147461	-5.945192	-72.471975	-176.734820
60201		16.275294	-0.405005	2.244009	0.026775	1.928578	0.085613	-0.904541	0.490723	-0.163574	-5.749578	-71.362057	-176.923447
60202		16.496278	0.268343	2.191134	0.006352	2.231037	0.125002	-0.887939	0.485352	-0.175049	-5.596863	-70.085604	-177.079309
60203		16.699599	0.572948	2.060470	-0.050490	2.545439	0.224174	-0.873047	0.491211	-0.195801	-5.600171	-68.616565	-177.105686
60204		17.384797	0.457300	1.762120	-0.114550	2.887348	0.301845	-0.849365	0.488525	-0.213867	-5.695542	-66.955906	-177.071474
60205		19.038593	1.028340	1.448195	-0.169791	3.313844	0.431830	-0.829590	0.491455	-0.227539	-5.924152	-65.037708	-176.926687
60206		20.450001	3.057876	1.312937	-0.265528	3.801347	0.681364	-0.790527	0.485107	-0.249512	-6.397544	-62.832995	-176.566986
60207		23.081773	5.006091	1.095864	-0.416954	4.353288	1.066374	-0.755127	0.490967	-0.267090	-7.217910	-60.280893	-175.904593
60208		23.471315	7.267098	0.873373	-0.626965	4.973081	1.637755	-0.710938	0.504150	-0.291748	-8.474532	-57.332511	-174.853707
60209		25.073325	6.337883	0.925659	-0.851587	5.636404	2.144564	-0.648926	0.503906	-0.305664	-9.982651	-53.946535	-173.616432
60210		27.146397	6.120220	1.722587	-0.990143	6.350657	2.607318	-0.584717	0.512695	-0.325439	-11.562248	-50.094906	-172.330749
60211		23.167219	3.723987	5.165378	-1.132334	6.872141	2.508211	-0.518066	0.512451	-0.327637	-12.847881	-45.943921	-171.471424
60212		18.389784	-0.072370	6.861061	-1.114240	6.927982	1.867127	-0.457031	0.521729	-0.338867	-13.616238	-41.837167	-171.281705
60213		16.922236	-0.716026	3.993213	-0.948729	6.845469	1.014436	-0.391846	0.515137	-0.336182	-13.852623	-37.892229	-171.755895
60214		18.070042	0.942132	2.444669	-1.003751	6.788829	0.327204	-0.353516	0.515625	-0.341797	-13.883902	-34.072999	-172.678042
60215		21.144183	0.526017	-1.703108	-1.124644	6.751147	0.694612	-0.297119	0.511475	-0.346680	-14.179607	-30.228805	-173.326362
60216		19.586090	0.939747	-4.858487	-1.165212	6.724720	1.115689	-0.249268	0.518066	-0.325928	-14.664386	-26.340108	-173.708443
60217		16.199890	2.836738	-8.597134	-1.182450	6.721483	1.084786	-0.196533	0.505371	-0.313965	-15.162370	-22.466901	-174.133628
60218		8.770682	7.935526	-10.048198	-1.291502	6.454349	0.759122	-0.152588	0.507324	-0.298828	-15.689660	-18.788354	-174.732257
60219		1.258306	11.010440	-9.837105	-1.633514	5.983596	0.640149	-0.115723	0.515869	-0.281494	-16.438919	-15.402902	-175.352242
60220		-13.007474	6.943887	-6.857095	-1.975801	5.474410	0.327024	-0.084473	0.510498	-0.243652	-17.389132	-12.349366	-176.103260
60221		-12.512772	4.033913	-3.266635	-2.015791	3.315435	-1.613091	-0.084229	0.519531	-0.220459	-18.239450	-10.833164	-177.591160
60222		-4.290070	2.398676	-4.424229	-1.939939	1.820197	-2.910543	-0.107666	0.524414	-0.201172	-18.991596	-10.378898	-179.533449
60223		-6.376127	-0.281176	-4.872975	-1.733306	0.381627	-3.271429	-0.132080	0.538330	-0.182129	-19.634813	-10.800380	178.596824
60224		-4.364917	-1.994713	-5.562290	-1.383764	-0.976446	-2.928566	-0.161377	0.533447	-0.176514	-20.148091	-11.899096	177.185960
60225		-1.069332	-3.367004	-5.366373	-0.964867	-1.998325	-2.291090	-0.189697	0.545166	-0.162598	-20.508442	-13.435537	176.335370
60226		1.459396	-4.175474	-4.871066	-0.525004	-2.726666	-1.683959	-0.202393	0.542236	-0.160400	-20.718158	-15.239095	175.975315
60227		2.677311	-4.283009	-4.387889	-0.068666	-3.255943	-1.258819	-0.232178	0.538330	-0.162842	-20.749364	-17.245882	175.964207
60228		3.257821	-3.230951	-4.059235	0.340232	-3.687778	-1.031258	-0.256592	0.539795	-0.157715	-20.618010	-19.432957	176.172504
60229		4.005631	-1.973482	-3.641145	0.665665	-4.035115	-0.943185	-0.278564	0.525391	-0.159424	-20.347756	-21.795161	176.499920
60230		5.464436	-0.984941	-3.451830	0.907480	-4.258738	-0.924316	-0.306152	0.518066	-0.161621	-19.973769	-24.269923	176.878067
60231		6.593208	-0.335944	-3.205349	1.086264	-4.348718	-0.954007	-0.318848	0.519043	-0.164307	-19.505885	-26.807989	177.244830
60232		7.658359	0.335313	-2.692554	1.195233	-4.317395	-1.074399	-0.354980	0.510010	-0.175293	-18.945714	-29.348139	177.513956
60233		8.284024	0.951484	-1.769085	1.227852	-4.219861	-1.295011	-0.378418	0.504883	-0.168213	-18.281701	-31.885840	177.598255
60234		8.681917	1.035796	-1.190563	1.209248	-4.084320	-1.553318	-0.402344	0.491455	-0.171875	-17.505973	-34.388048	177.450429
60235		8.169629	0.794901	-0.711670	1.183558	-3.998864	-1.797808	-0.435059	0.475586	-0.174805	-16.602760	-36.891538	177.070327
60236		7.769772	0.767696	-0.500362	1.145380	-4.030467	-1.994453	-0.461914	0.467041	-0.162109	-15.587903	-39.429080	176.493404
60237		8.026180	0.729403	-0.083136	1.084167	-4.153305	-2.107408	-0.496582	0.454590	-0.164063	-14.493447	-42.052769	175.774213
60238		8.472476	0.513081	0.478925	0.996514	-4.325798	-2.130714	-0.527100	0.442139	-0.158936	-13.367780	-44.754427	174.970154
60239		9.042840	0.297048	1.072555	0.893440	-4.524739	-2.056142	-0.559570	0.419922	-0.145264	-12.257541	-47.556914	174.146389
60240		9.929716	0.029695	1.797379	0.790746	-4.722508	-1.915107	-0.602295	0.406494	-0.128662	-11.203848	-50.431597	173.353437
60241		11.243018	-0.354235	2.541476	0.711023	-4.868696	-1.740696	-0.612061	0.388672	-0.112793	-10.206451	-53.372096	172.609306
60242		12.416951	-0.825232	3.231682	0.671546	-4.940758	-1.583844	-0.645264	0.368896	-0.091553	-9.233520	-56.317955	171.892647
60243		13.497812	-1.003472	3.987311	0.690728	-4.943877	-1.487266	-0.668945	0.343506	-0.079346	-8.180271	-59.261985	171.120901
60244		14.827388	-0.981627	4.774127	0.740324	-4.872808	-1.401485	-0.689941	0.331543	-0.059082	-6.999272	-62.138101	170.255660
60245		15.627846	-0.652556	5.551075	0.802651	-4.747732	-1.377002	-0.708008	0.307373	-0.036377	-5.559947	-64.944023	169.166796
60246		16.176899	-0.553945	6.413713	0.858127	-4.597672	-1.419995	-0.714844	0.291504	-0.012939	-3.712388	-67.638364	167.688570
60247		16.783236	-1.123890	7.261290	0.934885	-4.422255	-1.547210	-0.732178	0.262207	0.001709	-1.153133	-70.223719	165.525280
60248		17.260842	-1.584192	8.162324	1.053096	-4.213494	-1.705186	-0.747070	0.233154	0.018555	2.430822	-72.630735	162.383879
60249		17.552888	-1.770867	9.177994	1.173869	-4.012507	-1.793257	-0.755127	0.217529	0.035400	7.292430	-74.851377	158.025951
60250		16.946780	-1.794954	10.239818	1.292553	-3.858058	-1.737701	-0.758057	0.204834	0.042480	13.493739	-76.851915	152.397637
60251		15.248871	-1.621964	11.138486	1.385512	-3.850961	-1.511424	-0.777588	0.189697	0.064697	21.170112	-78.717708	145.361519
60252		15.000184	-1.640536	11.847675	1.466029	-3.912856	-1.078185	-0.780762	0.169189	0.064209	30.349199	-80.477255	136.886639
60253		14.315553	-1.323606	12.369216	1.523598	-4.000957	-0.588939	-0.784668	0.158691	0.080322	41.919242	-82.148217	126.071458
60254		14.082100	-0.793616	12.872946	1.545801	-4.024924	-0.200821	-0.794434	0.148193	0.088135	57.480864	-83.568268	111.285228
60255		14.018031	-0.583847	13.683360	1.526447	-3.875824	-0.075337	-0.797363	0.144531	0.118164	78.196916	-84.383816	91.339921
60256		13.704710	-0.749382	14.522740	1.466885	-3.561315	-0.197824	-0.793945	0.131348	0.125000	99.811821	-84.308108	70.468188
60257		13.661923	-1.580314	15.118587	1.390355	-3.080864	-0.478259	-0.811279	0.135010	0.130371	115.700093	-83.500890	55.295116
60258		13.244283	-2.537383	15.620830	1.334557	-2.490470	-0.763997	-0.823486	0.116455	0.144531	124.702834	-82.403300	46.996896
60259		12.439527	-2.747046	16.608857	1.253370	-1.896948	-0.865989	-0.822266	0.112793	0.146484	129.448563	-81.349922	42.931186
60260		11.703042	-2.739911	17.511826	1.115575	-1.324121	-0.678245	-0.822510	0.099609	0.154785	132.131415	-80.560535	40.863812
60261		10.770135	-2.581911	17.877952	0.937839	-0.799066	-0.283427	-0.833008	0.093018	0.156250	134.010596	-80.129648	39.504654
60262		9.790960	-2.101203	17.776556	0.740232	-0.318669	0.110364	-0.831787	0.083984	0.152344	135.459353	-80.046329	38.466465
60263		9.298229	-1.756332	17.232587	0.558843	0.125075	0.298190	-0.831543	0.086914	0.163330	136.213267	-80.219780	38.027595
60264		34.339248	-8.534291	21.696466	0.635843	1.990521	1.257017	-0.816162	0.091064	0.150391	134.831207	-81.538513	39.798193
60265		17.694469	-5.798699	13.821101	0.693862	3.372691	1.706494	-0.804443	0.100830	0.123779	129.259702	-83.568128	45.817958
60266		14.199764	-11.563706	13.917261	1.118011	4.817980	2.568303	-0.792725	0.115479	0.098389	111.436712	-86.269298	64.350156
60267		7.647078	-6.825623	-4.303443	1.648936	5.278890	1.794221	-0.778564	0.125488	0.054688	56.478685	-87.072905	120.333078
60268		14.030493	-3.214836	-1.655584	2.283848	5.532251	0.561208	-0.764160	0.127441	0.022949	24.857380	-84.788769	153.337715
60269		13.463628	2.169131	6.080063	2.006375	5.937286	1.076346	-0.748047	0.125488	-0.019775	11.876807	-81.727362	167.561405
60270		-6.092561	7.402238	19.092722	0.265909	4.180936	1.226109	-0.739258	0.133057	-0.028076	5.617007	-79.466430	174.061435
60271		2.204377	-1.815201	5.803446	0.022679	0.480092	0.226839	-0.727539	0.141113	-0.035400	4.775954	-79.196307	174.931121
60272		8.775542	-1.919649	2.529648	-0.128620	0.028063	0.070437	-0.727783	0.140625	-0.036621	4.470436	-79.186798	175.169110
60273		11.533898	-0.184243	0.926259	0.075622	0.086882	0.104376	-0.727539	0.134766	-0.037598	4.147221	-79.133136	175.542879
60274		8.585002	-0.675807	2.345902	0.052411	0.180653	0.021557	-0.730225	0.142334	-0.035645	4.060647	-79.034016	175.663610
60275		9.076851	-0.149026	2.119754	0.071102	0.130776	-0.102020	-0.724854	0.137207	-0.043213	4.337612	-78.946603	175.423525
60276		9.378510	0.542746	2.286774	0.044876	0.141385	-0.066221	-0.728516	0.134766	-0.037842	4.510425	-78.866165	175.275603
60277		9.115560	0.570008	2.376612	0.007490	0.077851	-0.038072	-0.731689	0.129150	-0.040771	4.572250	-78.811604	175.217514
60278		9.358178	0.339070	2.247395	-0.030785	0.038861	-0.000380	-0.729736	0.129395	-0.043945	4.533007	-78.792653	175.241517
60279		9.669045	0.139871	2.049947	-0.052318	0.028458	0.014925	-0.727295	0.130127	-0.034180	4.419429	-78.768670	175.327306
60280		9.442724	-0.407101	2.084914	-0.030655	0.028654	-0.008078	-0.722900	0.136230	-0.035400	4.404978	-78.755199	175.326112
60281		9.538197	0.005316	2.093288	0.004916	0.001106	-0.055867	-0.729492	0.139648	-0.040283	4.533690	-78.743723	175.198308
60282		9.642462	0.243366	2.079784	0.003521	0.005719	-0.039263	-0.726807	0.137451	-0.044434	4.633374	-78.741922	175.100706
60283		9.709250	0.268596	2.062075	-0.003680	0.017547	-0.016755	-0.728271	0.130615	-0.043701	4.640948	-78.722835	175.091391
60284		9.549684	0.183348	2.090836	-0.008068	0.022144	0.006320	-0.722900	0.139648	-0.041748	4.599476	-78.713745	175.130947
60285		9.562267	0.064939	2.062545	-0.009825	0.026912	0.010187	-0.723877	0.133057	-0.033203	4.524645	-78.690583	175.202084
60286		9.628419	0.073871	2.093672	-0.006050	0.028840	0.011916	-0.721680	0.133789	-0.041748	4.467072	-78.677903	175.259244
60287		9.581721	0.037960	2.112064	0.004323	0.025665	0.014371	-0.728271	0.123047	-0.048584	4.389230	-78.655649	175.341737
60288		9.564227	0.101486	2.131038	0.004175	0.019427	0.013566	-0.726074	0.129639	-0.033203	4.335172	-78.648392	175.401294
60289		9.576527	0.126414	2.114679	0.002663	0.019014	0.019943	-0.720459	0.136719	-0.036865	4.242474	-78.630173	175.497988
60290		9.555152	0.136678	2.119543	0.003071	0.020475	0.020122	-0.728271	0.136475	-0.040527	4.169176	-78.622561	175.576530
60291		9.600764	0.162657	2.129092	-0.003064	0.014407	0.030694	-0.727295	0.132080	-0.034424	4.044230	-78.607392	175.702794
60292		9.458139	0.009258	2.140367	-0.010082	0.017647	0.032929	-0.726807	0.129395	-0.044678	3.927933	-78.601847	175.817518
60293		9.588122	-0.001664	2.090728	-0.006025	0.015401	0.029322	-0.726807	0.144531	-0.039551	3.805602	-78.585986	175.939407
60294		9.646241	0.044199	2.105674	-0.002226	0.017932	0.026345	-0.719971	0.141113	-0.041992	3.712720	-78.579941	176.034844
60295		9.524237	0.023591	2.126564	-0.000711	0.018344	0.019969	-0.718262	0.139160	-0.034912	3.619895	-78.562015	176.129759
60296		9.506960	0.086563	2.144983	-0.001521	0.015626	0.018044	-0.730469	0.133301	-0.043457	3.551568	-78.556934	176.200564
60297		9.507178	0.097312	2.099160	-0.005289	0.013906	0.014742	-0.729492	0.145752	-0.040039	3.472118	-78.541348	176.279174
60298		9.535786	0.038604	2.136370	-0.013132	0.014028	0.018188	-0.723877	0.141357	-0.043945	3.397196	-78.537149	176.349925
60299		9.540111	0.101420	2.104295	-0.011676	0.013023	0.022803	-0.724365	0.131104	-0.045166	3.291925	-78.522332	176.451165
60300		9.535516	0.040216	2.115257	-0.013560	0.012163	0.021152	-0.721924	0.139404	-0.045898	3.208889	-78.519250	176.529951
60301		9.514267	0.049998	2.119571	-0.012341	0.016340	0.023259	-0.723389	0.134033	-0.039307	3.101912	-78.502526	176.632562
60302		9.522402	0.015108	2.112528	-0.015054	0.012359	0.022821	-0.718750	0.135010	-0.042969	3.013486	-78.499331	176.715979
60303		9.534659	0.032839	2.119247	-0.014645	0.013818	0.023001	-0.724609	0.139893	-0.042725	2.906768	-78.484015	176.816999
60304		9.555324	0.018074	2.117613	-0.014655	0.013615	0.024572	-0.724365	0.138428	-0.040527	2.813667	-78.480094	176.905427
60305		9.521547	0.007517	2.116420	-0.016120	0.014420	0.021529	-0.719238	0.140381	-0.045898	2.710615	-78.464367	177.001862
60306		9.584309	0.112038	2.121376	-0.018883	0.009423	0.028941	-0.717773	0.133789	-0.044189	2.603598	-78.462898	177.102026
60307		9.609226	0.011850	2.097424	-0.014909	0.018391	0.025212	-0.728027	0.133301	-0.040527	2.490938	-78.444964	177.208996
60308		9.520274	-0.007275	2.144354	-0.018959	0.020844	0.027253	-0.719971	0.137207	-0.041504	2.387467	-78.436840	177.305504
60309		9.579095	0.050304	2.112569	-0.017929	0.018170	0.033261	-0.719727	0.142822	-0.035400	2.251211	-78.419180	177.434815
60310		9.519716	-0.007830	2.124641	-0.017760	0.024610	0.032509	-0.721436	0.134766	-0.039063	2.133742	-78.408932	177.546324
60311		9.544277	0.029086	2.138220	-0.021378	0.028931	0.031591	-0.717041	0.139160	-0.048096	1.999860	-78.385008	177.671223
60312		9.611267	0.053686	2.099354	-0.018957	0.036868	0.038960	-0.717041	0.140625	-0.039551	1.863188	-78.367763	177.801650
60313		9.571984	-0.023877	2.133872	-0.021398	0.044545	0.046440	-0.716064	0.136719	-0.036621	1.687857	-78.335083	177.968895
60314		9.588546	0.056458	2.110732	-0.027982	0.049669	0.045716	-0.718506	0.145996	-0.041504	1.527374	-78.310466	178.118382
60315		9.595779	0.018929	2.107334	-0.022985	0.055750	0.049583	-0.713867	0.138672	-0.038330	1.343538	-78.271263	178.293438
60316		9.707942	0.193905	2.163162	-0.021782	0.063286	0.074525	-0.710205	0.142334	-0.041260	1.108087	-78.238998	178.523159
60317		9.798502	0.102673	2.149853	-0.022441	0.074150	0.114356	-0.717773	0.141602	-0.042236	0.748872	-78.189594	178.877763
60318		9.971256	0.342711	2.127800	-0.016720	0.089448	0.167414	-0.709229	0.140137	-0.042236	0.265388	-78.142227	179.363943
60319		10.003154	0.329594	2.141470	-0.019833	0.128169	0.243078	-0.714600	0.143066	-0.044434	-0.434246	-78.060552	-179.931839
60320		9.938408	0.338571	2.164609	-0.020809	0.163769	0.313569	-0.718262	0.140137	-0.043945	-1.299731	-77.966961	-179.057268
60321		9.985155	0.245570	2.168830	-0.019206	0.202285	0.392514	-0.698730	0.146484	-0.043213	-2.367763	-77.835772	-177.975312
60322		9.950717	0.228627	2.272361	-0.029181	0.229306	0.462348	-0.701904	0.148926	-0.045166	-3.587233	-77.693623	-176.742622
60323		9.972062	-0.003029	2.248272	-0.037379	0.248206	0.505554	-0.702148	0.148926	-0.046631	-4.898513	-77.522045	-175.420968
60324		10.118311	-0.376809	2.319045	-0.052981	0.257735	0.480380	-0.691162	0.156250	-0.049316	-6.109059	-77.351313	-174.209840
60325		11.899684	-0.642659	2.235338	-0.040728	0.302918	0.440242	-0.690674	0.157227	-0.041260	-7.171294	-77.141278	-173.143534
60326		12.924710	-0.586819	2.131453	-0.017281	0.492148	0.437518	-0.689453	0.164307	-0.048584	-8.108194	-76.830993	-172.190110
60327		11.423744	-0.538741	2.354305	-0.013603	0.603603	0.424730	-0.691895	0.161377	-0.058105	-8.931961	-76.444486	-171.350223
60328		11.290341	-0.722052	2.433239	-0.005225	0.655817	0.389380	-0.678467	0.167969	-0.057373	-9.600723	-76.040125	-170.662795
60329		12.217543	-0.896336	2.338252	0.011953	0.736571	0.361356	-0.673584	0.176758	-0.049805	-10.131170	-75.580470	-170.107321
60330		12.821548	-0.871491	2.425315	0.034872	0.857514	0.310388	-0.669922	0.174805	-0.055420	-10.456796	-75.067630	-169.748054
60331		13.391029	-1.137564	2.383132	0.050810	1.007825	0.249667	-0.669678	0.175049	-0.060547	-10.572271	-74.465567	-169.596895
60332		13.855479	-0.807072	2.470734	0.061910	1.178365	0.171615	-0.664063	0.177246	-0.071533	-10.455147	-73.786144	-169.679764
60333		14.725109	-0.934126	2.338863	0.053152	1.378587	0.098592	-0.663574	0.177979	-0.074951	-10.151319	-72.991033	-169.963738
60334		15.186127	-1.056360	2.263546	0.066255	1.623002	0.086876	-0.647705	0.180908	-0.084229	-9.768311	-72.068898	-170.323422
60335		15.581513	-0.348944	2.274688	0.052546	1.884158	0.094917	-0.654785	0.187744	-0.086182	-9.374092	-70.988020	-170.706033
60336		16.633102	-0.639002	2.112206	0.025824	2.175481	0.102748	-0.642334	0.190918	-0.087891	-8.973774	-69.750539	-171.113259
60337		18.151876	-0.464436	1.802629	-0.010143	2.540458	0.126011	-0.632324	0.191650	-0.098633	-8.596914	-68.294458	-171.521825
60338		20.343223	0.896728	1.650518	-0.075468	3.008222	0.245599	-0.619873	0.197998	-0.114014	-8.370307	-66.571441	-171.811914
60339		22.379905	2.098327	1.119374	-0.181962	3.573671	0.476604	-0.598877	0.212646	-0.122803	-8.420154	-64.500607	-171.870398
60340		23.051458	6.223588	1.198925	-0.322266	4.201788	0.996651	-0.586426	0.218506	-0.134766	-9.007029	-62.036878	-171.417999
60341		22.718178	8.127065	0.916773	-0.626661	4.813158	1.575094	-0.549805	0.225098	-0.140381	-10.136837	-59.163836	-170.531833
60342		24.731998	4.313173	0.134655	-0.868974	5.517817	1.931191	-0.515137	0.239258	-0.153320	-11.417728	-55.853451	-169.601780
60343		27.038067	3.146423	0.682931	-0.902093	6.301066	2.114499	-0.478760	0.255127	-0.159668	-12.535537	-52.069105	-168.856245
60344		24.239009	4.051361	3.188803	-0.990499	6.892413	1.941877	-0.439697	0.264160	-0.172852	-13.344732	-47.973356	-168.538835
60345		19.009336	-1.069303	6.815036	-1.003631	6.988274	1.519104	-0.403809	0.275391	-0.173584	-13.821763	-43.878511	-168.671049
60346		15.249597	-2.067490	4.521317	-0.807236	6.831577	0.707283	-0.365967	0.286133	-0.172119	-13.800085	-39.982791	-169.392577
60347		17.939979	0.031361	2.862866	-0.817483	6.662771	-0.009809	-0.345703	0.289551	-0.166748	-13.554123	-36.277810	-170.543538
60348		21.388418	0.711668	-0.580729	-0.952728	6.630841	0.277358	-0.314697	0.302490	-0.169189	-13.595719	-32.549509	-171.432237
60349		19.505540	1.512408	-4.445844	-1.068607	6.661228	0.637748	-0.286621	0.314941	-0.167236	-13.879081	-28.761107	-172.069793
60350		17.182721	2.488121	-6.780515	-1.152889	6.676016	0.539285	-0.258301	0.319336	-0.151367	-14.221222	-24.977516	-172.770177
60351		11.277866	5.898768	-9.427381	-1.259232	6.579796	0.201109	-0.221924	0.320313	-0.140381	-14.586814	-21.306485	-173.665027
60352		2.421466	10.240850	-10.699193	-1.575861	6.203192	0.034342	-0.213623	0.333008	-0.115479	-15.171409	-17.868429	-174.609125
60353		-8.689751	7.425284	-8.560839	-1.986292	5.673005	0.187321	-0.187012	0.337402	-0.097168	-16.079553	-14.719961	-175.410041
60354		-16.361843	2.203734	-3.315633	-2.104449	3.885404	-1.214919	-0.186768	0.349121	-0.074707	-16.966206	-12.785552	-176.744616
60355		-2.502565	2.290669	-4.333598	-2.013369	2.238418	-2.559769	-0.206787	0.355469	-0.066895	-17.722700	-12.006816	-178.566063
60356		-5.861854	-0.317615	-4.913350	-1.891281	0.944033	-2.976103	-0.212158	0.372070	-0.030518	-18.424596	-12.023439	179.609261
60357		-5.046210	-2.873896	-5.797672	-1.555863	-0.452953	-2.879230	-0.239746	0.369873	-0.022461	-18.984899	-12.805530	178.097885
60358		-1.832896	-3.752660	-5.398728	-1.118917	-1.541850	-2.393181	-0.255127	0.373047	-0.006348	-19.384804	-14.092240	177.069124
60359		0.742770	-4.390165	-4.629181	-0.668688	-2.341605	-1.834111	-0.280029	0.373535	0.007324	-19.619051	-15.714161	176.511045
60360		2.428020	-4.548588	-3.996265	-0.222525	-2.907400	-1.399057	-0.297363	0.371338	0.018799	-19.687709	-17.554235	176.312269
60361		3.157140	-4.041808	-3.498357	0.206073	-3.351992	-1.123955	-0.318604	0.378418	0.024170	-19.579603	-19.586193	176.356977
60362		4.035138	-3.116528	-3.263832	0.572022	-3.697911	-0.974281	-0.337158	0.378174	0.027100	-19.319065	-21.771620	176.552873
60363		5.343646	-2.006471	-3.001603	0.856460	-3.914793	-0.887658	-0.347168	0.369629	0.037109	-18.934158	-24.064835	176.833309
60364		6.216517	-1.383981	-2.717430	1.067741	-4.035380	-0.865967	-0.361816	0.363037	0.038330	-18.450085	-26.415757	177.137469
60365		6.817981	-0.600686	-2.370855	1.210455	-4.052786	-0.881405	-0.376953	0.359619	0.053223	-17.883453	-28.788034	177.417620
60366		7.109015	0.364113	-1.749261	1.275518	-4.037871	-0.959670	-0.398438	0.357666	0.050537	-17.253399	-31.161457	177.623356
60367		7.011766	0.859507	-1.087092	1.259284	-4.030384	-1.144810	-0.402832	0.356445	0.069092	-16.559694	-33.571433	177.680435
60368		6.850215	0.938355	-0.641716	1.211541	-4.062550	-1.358387	-0.427490	0.350830	0.086914	-15.797557	-36.025714	177.564941
60369		6.961305	1.067792	-0.213348	1.149624	-4.141159	-1.549991	-0.444580	0.344971	0.096436	-14.966308	-38.559982	177.284941
60370		7.583688	1.279294	0.334542	1.060887	-4.248875	-1.689096	-0.458496	0.336914	0.117432	-14.087344	-41.161397	176.865231
60371		8.494674	1.465319	1.077660	0.939111	-4.359463	-1.773817	-0.469727	0.343994	0.133057	-13.184112	-43.840485	176.329514
60372		9.263915	1.496818	1.772185	0.808224	-4.457106	-1.807495	-0.490479	0.333984	0.164795	-12.272212	-46.561853	175.700046
60373		9.883293	1.517905	2.471159	0.657121	-4.543225	-1.797538	-0.495361	0.332275	0.184570	-11.369393	-49.333902	174.996122
60374		10.569893	1.097495	3.212637	0.507786	-4.610461	-1.780997	-0.506348	0.321045	0.215088	-10.467580	-52.123331	174.209863
60375		11.530424	0.228173	3.765056	0.423244	-4.648546	-1.796031	-0.506836	0.322754	0.260986	-9.477423	-54.938831	173.285151
60376		12.550103	-0.727817	4.013708	0.409514	-4.620392	-1.801399	-0.499268	0.327881	0.302979	-8.330762	-57.716529	172.191981
60377		13.478822	-1.446368	4.214930	0.477771	-4.553834	-1.793412	-0.487549	0.320801	0.335205	-6.933890	-60.453933	170.887885
60378		14.395656	-1.796812	4.625319	0.598475	-4.456631	-1.756087	-0.461914	0.338379	0.366943	-5.235626	-63.102508	169.352375
60379		15.090015	-1.779177	5.136300	0.724231	-4.337075	-1.677501	-0.438721	0.347168	0.405762	-3.200553	-65.667001	167.560642
60380		15.434140	-1.780967	5.761774	0.845518	-4.213058	-1.613370	-0.395264	0.357910	0.429688	-0.751887	-68.114627	165.427786
60381		15.810690	-2.023883	6.344512	0.978703	-4.089609	-1.587066	-0.350342	0.375977	0.443359	2.302032	-70.461386	162.767372
60382		16.065498	-2.117685	7.065459	1.136565	-3.958981	-1.555977	-0.309326	0.412354	0.447021	6.112735	-72.662321	159.439764
60383		15.677027	-1.795428	7.944732	1.295525	-3.867871	-1.444201	-0.263428	0.446045	0.437500	10.779311	-74.749361	155.356378
60384		14.860919	-1.410326	9.143669	1.436155	-3.876563	-1.236398	-0.220215	0.478027	0.402100	16.358991	-76.747750	150.451561
60385		15.729538	-0.828632	10.323794	1.559671	-3.890438	-0.868205	-0.177734	0.517822	0.358887	22.867607	-78.696907	144.710342
60386		15.536329	-0.116261	11.667859	1.648262	-3.873292	-0.420941	-0.148193	0.549316	0.294189	30.432397	-80.579574	137.983431
60387		14.224462	0.538501	12.545562	1.702285	-3.874961	-0.003753	-0.107178	0.589600	0.240723	40.037500	-82.408557	129.262948
60388		13.010536	-0.996742	12.481870	1.796617	-3.783483	0.109425	-0.093994	0.608643	0.177490	53.994811	-83.946746	116.246862
60389		12.894897	-0.771195	13.594379	1.929114	-3.568958	-0.378718	-0.098389	0.639404	0.110107	74.698482	-84.653405	96.556693
60390		13.255805	-0.910512	14.846294	1.940218	-3.209790	-0.865636	-0.107422	0.667480	0.039795	95.358436	-84.317381	76.921407
60391		12.956833	-1.298105	15.553141	1.899671	-2.770962	-1.054713	-0.136963	0.674072	-0.041992	109.719741	-83.377263	63.575667
60392		12.615809	-1.643762	15.820580	1.797299	-2.311732	-0.978586	-0.168701	0.684082	-0.093262	118.595738	-82.322972	55.670495
60393		12.327274	-1.447753	16.091359	1.627734	-1.838059	-0.671808	-0.201172	0.690186	-0.148682	124.458406	-81.443423	50.693175
60394		11.251178	-0.521933	16.236563	1.376794	-1.406675	-0.215922	-0.234131	0.703125	-0.190674	128.954622	-80.863097	46.943225
60395		9.875328	0.992771	16.389261	1.012682	-1.036947	0.237474	-0.254639	0.693604	-0.225830	132.854928	-80.578277	43.581003
60396		9.448409	2.367943	16.249764	0.557406	-0.662466	0.542070	-0.271729	0.694092	-0.247070	136.139972	-80.534058	40.576573
60397		9.899249	3.421140	15.968700	0.053207	-0.227956	0.611430	-0.284180	0.699219	-0.265381	138.273098	-80.679620	38.446632
60398		49.870060	-1.679175	15.381347	-0.204428	0.386880	0.785361	-0.290283	0.695557	-0.275146	139.391446	-81.142671	37.197424
60399		-0.405895	-7.358824	17.347826	-0.302435	3.303430	1.676528	-0.265869	0.691162	-0.272705	134.987723	-83.191523	41.467811
60400		15.905188	-12.932696	10.863304	0.093242	3.961534	2.686747	-0.232910	0.691650	-0.278320	127.986900	-85.853921	48.554386
60401		7.331241	-10.990449	1.509547	0.660537	4.943142	2.954215	-0.179932	0.687256	-0.280762	80.162529	-88.415605	96.801136
60402		6.115681	-13.550065	-4.005426	1.571170	4.949220	0.537215	-0.161621	0.670166	-0.295654	22.517774	-86.665310	155.387587
60403		15.308678	-2.369100	-2.265873	2.697789	5.354062	-0.864493	-0.139404	0.663818	-0.330811	17.180961	-83.602003	162.293796
60404		10.716843	8.221664	12.405344	1.839055	5.018213	0.400260	-0.116211	0.647949	-0.338135	11.380537	-80.871029	169.211396
60405		-3.773735	5.682107	15.332275	0.136744	2.513375	0.677043	-0.103760	0.645752	-0.338623	7.811552	-79.508223	172.913156
60406		2.925414	-0.013570	5.819713	-0.085014	0.526622	0.243858	-0.090820	0.646484	-0.331543	6.806221	-79.230114	173.888456
60407		10.170849	-1.582826	1.677457	-0.060980	-0.024580	0.088244	-0.108643	0.649414	-0.336670	6.477181	-79.240640	174.188355
60408		10.691242	-0.315542	1.269986	0.070437	0.124760	0.047961	-0.093506	0.651855	-0.331299	6.318657	-79.176024	174.392793
60409		8.767026	-0.180791	2.347848	0.038883	0.123445	-0.027570	-0.095215	0.644043	-0.339844	6.343342	-79.094841	174.390868
60410		9.608527	0.129379	1.906693	0.064680	0.113781	-0.083715	-0.095947	0.642578	-0.338867	6.575473	-79.028028	174.194164
60411		9.483907	0.412055	2.162728	0.046634	0.145018	-0.064952	-0.099365	0.657471	-0.341553	6.704188	-78.932106	174.090754
60412		9.169613	0.505304	2.220307	0.025099	0.109171	-0.036790	-0.091553	0.648193	-0.344971	6.774589	-78.870891	174.035646
60413		9.118333	0.408185	2.278498	-0.004196	0.056535	-0.010471	-0.094482	0.644775	-0.338135	6.745343	-78.828953	174.063506
60414		9.565048	0.251675	2.069837	-0.025990	0.026807	0.007255	-0.098633	0.647461	-0.334717	6.687295	-78.817560	174.109475
60415		9.428299	-0.182301	2.039246	-0.020621	0.014167	-0.018333	-0.099365	0.647217	-0.332764	6.686127	-78.799221	174.099134
60416		9.642353	0.113105	1.987825	-0.001760	0.005044	-0.050268	-0.098877	0.647705	-0.340332	6.814698	-78.796343	173.969018
60417		9.673088	0.258414	2.049015	0.001410	0.015799	-0.041083	-0.102783	0.644531	-0.339355	6.890464	-78.775582	173.893106
60418		9.660419	0.241393	2.045550	-0.002271	0.018743	-0.031059	-0.102051	0.649902	-0.338135	6.958585	-78.766161	173.824309
60419		9.699885	0.363544	2.052988	-0.006848	0.034878	-0.009840	-0.094727	0.650635	-0.335205	6.933395	-78.736751	173.846500
60420		9.534490	0.170699	2.057937	-0.009852	0.034123	0.002892	-0.094727	0.646973	-0.332520	6.894705	-78.720927	173.882175
60421		9.546011	0.190688	2.066331	-0.013221	0.033433	0.002910	-0.099854	0.650391	-0.330078	6.830523	-78.693264	173.940420
60422		9.587694	0.166639	2.063492	-0.007778	0.024558	-0.001525	-0.101074	0.651611	-0.342041	6.809096	-78.682569	173.959707
60423		9.541826	0.143107	2.034450	-0.007109	0.020477	0.004321	-0.102783	0.648682	-0.335205	6.749259	-78.662414	174.017109
60424		9.511244	0.181238	2.070579	-0.004231	0.014033	-0.001332	-0.105225	0.641846	-0.336182	6.732967	-78.657716	174.033234
60425		9.486589	0.140064	2.061348	-0.005440	0.009066	0.002868	-0.097656	0.645508	-0.334961	6.682330	-78.644002	174.082241
60426		9.501969	0.213216	2.080156	-0.009303	0.001052	-0.001188	-0.097412	0.651367	-0.335449	6.667078	-78.646696	174.094341
60427		9.502144	0.218574	2.056458	-0.009732	-0.001563	0.008052	-0.092773	0.655518	-0.333008	6.603007	-78.639417	174.154554
60428		9.544387	0.187880	2.074074	-0.013213	-0.008687	0.008869	-0.102051	0.653809	-0.331299	6.560176	-78.648311	174.192499
60429		9.562369	0.122034	2.057601	-0.013100	-0.002252	0.008068	-0.091553	0.653809	-0.334961	6.494533	-78.641460	174.252360
60430		9.529243	0.118525	2.031282	-0.011998	-0.003528	0.003103	-0.097412	0.655518	-0.334717	6.467003	-78.647031	174.275408
60431		9.508028	0.124395	2.057403	-0.009400	-0.004806	-0.005090	-0.100342	0.649414	-0.335205	6.441692	-78.640835	174.296304
60432		9.529137	0.107310	2.077650	-0.009084	-0.008625	-0.013530	-0.099854	0.648193	-0.332764	6.464604	-78.648234	174.269607
60433		9.541805	0.140963	2.034698	-0.005701	-0.007359	-0.018248	-0.091553	0.653076	-0.333252	6.479564	-78.642701	174.251596
60434		9.599697	0.191866	2.046734	-0.008691	-0.007353	-0.011792	-0.097656	0.647949	-0.327881	6.497389	-78.649486	174.230316
60435		9.557507	0.216278	2.051866	-0.012365	-0.003841	-0.006473	-0.097900	0.649414	-0.333008	6.474098	-78.642777	174.247433
60436		9.578716	0.204559	2.048721	-0.010497	-0.003341	-0.001691	-0.098633	0.659424	-0.337158	6.460951	-78.647931	174.256688
60437		9.566564	0.183740	2.043316	-0.013084	-0.001681	0.003366	-0.095947	0.649658	-0.342773	6.408830	-78.640682	174.302802
