// General information: 
//  MT Manager version: 2022.2.0 
//  XDA version: 2022.2.0 build 7381 rev 124627 built on 2023-07-19
// Device information: 
//  DeviceId: 00B4C3A0
//  ProductCode: MTW2-3A7G6
//  Firmware Version: 4.6.0
//  Hardware Version: 2.0.0
// Device settings: 
//  Filter Profile: human(46.1)
//  Option Flags: Orientation Smoother Disabled, Position/Velocity Smoother Disabled, Continuous Zero Rotation Update Disabled, AHS Disabled, ICC Disabled
// Coordinate system: ENU
PacketCounter	SampleTimeFine	Acc_X	Acc_Y	Acc_Z	Gyr_X	Gyr_Y	Gyr_Z	Mag_X	Mag_Y	Mag_Z	Roll	Pitch	Yaw
24131		-0.231475	-0.102729	10.350394	-0.012214	0.008021	0.004242	-1.162109	0.959961	-2.002686	-0.551240	1.348995	-112.365817
24132		-0.265069	-0.114339	10.315777	-0.006985	0.007510	0.004420	-1.172607	0.960693	-2.004395	-0.550123	1.349126	-112.366885
24133		-0.240246	-0.121056	10.293346	-0.007426	0.007031	0.005848	-1.168213	0.963623	-2.003418	-0.549176	1.348960	-112.367064
24134		-0.224538	-0.116539	10.310618	-0.008307	0.006070	0.008704	-1.162598	0.962158	-1.998535	-0.548635	1.348206	-112.365535
24135		-0.250793	-0.111422	10.332995	-0.008868	0.006844	0.005237	-1.163574	0.963867	-2.003906	-0.548522	1.347930	-112.366064
24136		-0.264052	-0.125884	10.348955	-0.008330	0.008106	0.007502	-1.168945	0.970215	-2.007080	-0.548063	1.348479	-112.365428
24137		-0.243157	-0.124454	10.293237	-0.008868	0.006844	0.005236	-1.159668	0.968750	-2.000977	-0.547950	1.348203	-112.365957
24138		-0.240554	-0.100371	10.316928	-0.006867	0.006259	0.009314	-1.165527	0.963379	-2.001221	-0.546753	1.347712	-112.364047
24139		-0.244718	-0.125990	10.293181	-0.007911	0.010622	0.004873	-1.170410	0.968750	-2.003906	-0.546098	1.349599	-112.364804
24140		-0.241692	-0.135235	10.326436	-0.010752	0.006178	0.006051	-1.160400	0.970215	-2.004883	-0.547107	1.348930	-112.364790
24141		-0.229962	-0.122665	10.310427	-0.009332	0.008401	0.005462	-1.163574	0.967041	-2.004883	-0.547258	1.349547	-112.365198
24142		-0.272810	-0.122919	10.315477	-0.009332	0.008401	0.005462	-1.163086	0.968994	-1.998291	-0.547495	1.350328	-112.365564
24143		-0.248101	-0.129776	10.293053	-0.007891	0.008588	0.006073	-1.160400	0.958740	-2.002930	-0.546812	1.351057	-112.365623
24144		-0.232588	-0.125310	10.310336	-0.008332	0.008108	0.007501	-1.169189	0.969482	-2.003662	-0.546384	1.351622	-112.365003
24145		-0.236626	-0.151063	10.286574	-0.009312	0.006367	0.006662	-1.160889	0.974365	-2.003662	-0.546506	1.351081	-112.364712
24146		-0.268865	-0.109731	10.372372	-0.005986	0.007221	0.006458	-1.158936	0.971191	-2.007813	-0.544909	1.351093	-112.364377
24147		-0.234931	-0.127722	10.310254	-0.008796	0.009664	0.007727	-1.170410	0.965576	-1.996826	-0.544722	1.352447	-112.363494
24148		-0.245568	-0.084281	10.340383	-0.010754	0.006182	0.006048	-1.171875	0.959473	-2.001465	-0.545792	1.351848	-112.363501
24149		-0.252869	-0.135027	10.292870	-0.009775	0.007923	0.006887	-1.160400	0.966553	-1.997803	-0.546178	1.352200	-112.363090
24150		-0.237926	-0.097549	10.300624	-0.009334	0.008404	0.005460	-1.165283	0.968750	-2.000000	-0.546342	1.352796	-112.363588
24151		-0.267521	-0.117314	10.299229	-0.008408	0.005294	0.005006	-1.165771	0.974854	-2.000977	-0.545969	1.351632	-112.364241
24152		-0.235415	-0.107589	10.333859	-0.007429	0.007036	0.005845	-1.166260	0.967285	-1.993652	-0.545239	1.351475	-112.364301
24153		-0.239467	-0.133380	10.310078	-0.011218	0.007739	0.006274	-1.170898	0.965576	-1.998291	-0.546460	1.351718	-112.364240
24154		-0.227757	-0.120920	10.294094	-0.011219	0.007739	0.006274	-1.161377	0.960693	-1.997070	-0.547817	1.351827	-112.364196
24155		-0.227884	-0.154950	10.303590	-0.005526	0.005667	0.006230	-1.166992	0.962646	-1.995117	-0.545776	1.350882	-112.364149
24156		-0.254795	-0.116540	10.316416	-0.009335	0.008407	0.005459	-1.167480	0.970215	-1.999756	-0.545946	1.351481	-112.364767
24157		-0.242463	-0.137014	10.309960	-0.008316	0.006076	0.008698	-1.159668	0.972168	-2.001953	-0.545471	1.350785	-112.363308
24158		-0.252472	-0.126605	10.349638	-0.007893	0.008593	0.006072	-1.164307	0.964600	-2.001953	-0.544983	1.351578	-112.363291
24159		-0.227727	-0.133611	10.327236	-0.012219	0.008037	0.004232	-1.158203	0.966553	-2.004639	-0.546804	1.351981	-112.364401
24160		-0.267063	-0.109224	10.356005	-0.010738	0.004150	0.007244	-1.168213	0.963379	-1.996338	-0.547764	1.350325	-112.363824
24161		-0.275007	-0.126673	10.298921	-0.008819	0.011705	0.006526	-1.170410	0.967773	-2.002441	-0.547607	1.352842	-112.363640
24162		-0.259511	-0.122253	10.316232	-0.007412	0.005002	0.007043	-1.174316	0.967285	-2.004150	-0.546710	1.351417	-112.363099
24163		-0.247630	-0.109375	10.300277	-0.006988	0.007520	0.004417	-1.169434	0.965820	-2.003662	-0.545532	1.351525	-112.364101
24164		-0.247795	-0.143466	10.309745	-0.010758	0.006188	0.006043	-1.169922	0.966553	-2.005371	-0.546539	1.350777	-112.364011
24165		-0.232668	-0.105968	10.317573	-0.007432	0.007039	0.005843	-1.166016	0.963135	-1.994141	-0.545596	1.350617	-112.364193
24166		-0.262314	-0.125773	10.316119	-0.011665	0.007263	0.007696	-1.158691	0.964355	-2.002686	-0.547107	1.350534	-112.363327
24167		-0.233596	-0.141122	10.327005	-0.007876	0.006559	0.007269	-1.169678	0.964355	-2.002441	-0.546399	1.350107	-112.362689
24168		-0.256803	-0.111239	10.373121	-0.009799	0.009967	0.005685	-1.164063	0.957520	-1.999023	-0.546823	1.351697	-112.363026
24169		-0.264772	-0.128605	10.316022	-0.008874	0.006856	0.005229	-1.163086	0.958984	-1.998291	-0.546715	1.351429	-112.363559
24170		-0.236561	-0.110829	10.317433	-0.011758	0.006487	0.004001	-1.161621	0.962646	-1.993164	-0.548182	1.350973	-112.365042
24171		-0.249696	-0.125363	10.333323	-0.006417	0.004707	0.009081	-1.174561	0.972168	-1.993164	-0.546613	1.349494	-112.363355
24172		-0.266624	-0.131443	10.315938	-0.010760	0.006191	0.006041	-1.165039	0.964355	-1.999268	-0.547770	1.348691	-112.363456
24173		-0.238381	-0.113565	10.317362	-0.007877	0.006560	0.007268	-1.165039	0.964844	-1.995605	-0.547063	1.348264	-112.362819
24174		-0.255515	-0.119643	10.299970	-0.009338	0.008414	0.005456	-1.169189	0.969727	-2.006104	-0.547291	1.348872	-112.363318
24175		-0.247095	-0.131711	10.260225	-0.008340	0.008117	0.007496	-1.169678	0.964355	-1.997803	-0.546847	1.349338	-112.362559
24176		-0.266410	-0.110257	10.339623	-0.009320	0.006377	0.006654	-1.167236	0.962158	-1.998535	-0.547057	1.348742	-112.362188
24177		-0.254053	-0.130747	10.333150	-0.008432	0.007340	0.003802	-1.167236	0.969482	-2.002197	-0.546714	1.348743	-112.363542
24178		-0.229616	-0.104439	10.301324	-0.009765	0.005896	0.008079	-1.169922	0.966309	-1.996826	-0.547148	1.347913	-112.362430
24179		-0.271957	-0.137762	10.315716	-0.007915	0.010637	0.004872	-1.164551	0.968262	-1.997070	-0.546496	1.349808	-112.363188
24180		-0.234719	-0.131138	10.277442	-0.012222	0.008049	0.004226	-1.163086	0.967285	-2.004883	-0.548466	1.350142	-112.364305
24181		-0.228344	-0.115791	10.334505	-0.007417	0.005006	0.007039	-1.169678	0.965332	-2.000000	-0.547498	1.348823	-112.363791
24182		-0.257873	-0.135499	10.332994	-0.010318	0.006677	0.004612	-1.163330	0.972900	-2.004150	-0.548283	1.348474	-112.364647
24183		-0.233417	-0.109183	10.301189	-0.007880	0.006562	0.007267	-1.170898	0.964355	-1.993896	-0.547577	1.348048	-112.364011
24184		-0.259243	-0.137295	10.332936	-0.009322	0.006379	0.006652	-1.165771	0.968750	-1.999512	-0.547861	1.347474	-112.363677
24185		-0.244080	-0.099833	10.340856	-0.008877	0.006862	0.005226	-1.166748	0.962646	-2.003174	-0.547754	1.347208	-112.364212
24186		-0.273717	-0.119535	10.339329	-0.008878	0.006862	0.005226	-1.163086	0.968262	-2.004639	-0.547702	1.346959	-112.364747
24187		-0.236239	-0.112684	10.301087	-0.006991	0.007527	0.004415	-1.167480	0.972900	-1.994873	-0.546526	1.347070	-112.365750
24188		-0.253424	-0.118696	10.283672	-0.009696	0.008713	0.010573	-1.162109	0.970947	-1.999023	-0.547010	1.347913	-112.363155
24189		-0.263559	-0.108553	10.323358	-0.009875	0.007162	0.003185	-1.159180	0.964111	-1.999756	-0.547502	1.347809	-112.364861
24190		-0.238693	-0.115518	10.300999	-0.009786	0.007938	0.006879	-1.167480	0.961426	-2.003174	-0.548014	1.348297	-112.364510
24191		-0.223100	-0.111324	10.318363	-0.009324	0.006382	0.006650	-1.164795	0.960938	-1.993408	-0.548144	1.347764	-112.364226
24192		-0.240127	-0.117410	10.300945	-0.008879	0.006864	0.005225	-1.161377	0.971680	-2.000977	-0.548015	1.347472	-112.364898
24193		-0.266027	-0.145566	10.332651	-0.008879	0.006864	0.005225	-1.167480	0.974854	-2.000977	-0.547910	1.347208	-112.365434
24194		-0.225124	-0.113982	10.318290	-0.007421	0.005008	0.007036	-1.168213	0.968506	-1.997559	-0.547188	1.345947	-112.364781
24195		-0.242272	-0.119912	10.300866	-0.007916	0.010643	0.004872	-1.171143	0.961426	-2.004150	-0.546536	1.347846	-112.365539
24196		-0.243261	-0.120788	10.300832	-0.009342	0.008422	0.005452	-1.167480	0.968750	-1.996338	-0.546734	1.348397	-112.365934
24197		-0.257108	-0.101994	10.307264	-0.006443	0.006748	0.007880	-1.166748	0.972656	-1.996582	-0.545197	1.348081	-112.364948
24198		-0.257817	-0.102767	10.307239	-0.008880	0.006866	0.005223	-1.162598	0.968994	-1.999512	-0.545328	1.347740	-112.365417
24199		-0.232957	-0.109578	10.284895	-0.007901	0.008605	0.006067	-1.166016	0.962646	-1.999512	-0.544651	1.348478	-112.365479
24200		-0.275742	-0.109683	10.289774	-0.010322	0.006685	0.004607	-1.172607	0.970459	-2.008789	-0.545457	1.348146	-112.366409
24201		-0.234062	-0.144747	10.294225	-0.009789	0.007942	0.006876	-1.164063	0.965088	-2.001465	-0.545851	1.348508	-112.366004
24202		-0.247888	-0.126102	10.300658	-0.008881	0.006868	0.005222	-1.167725	0.972412	-2.000977	-0.545806	1.348265	-112.366432
24203		-0.244809	-0.135481	10.333889	-0.008419	0.005311	0.004994	-1.171143	0.973633	-1.999023	-0.545440	1.347110	-112.367091
24204		-0.220201	-0.109041	10.302176	-0.007886	0.006567	0.007263	-1.161621	0.968750	-2.001465	-0.544990	1.346604	-112.366275
24205		-0.262940	-0.109180	10.307044	-0.011231	0.007762	0.006259	-1.168701	0.970215	-1.998291	-0.546219	1.346859	-112.366222
24206		-0.247387	-0.105002	10.324430	-0.007440	0.007050	0.005838	-1.158203	0.965088	-2.009277	-0.545442	1.346731	-112.366357
24207		-0.277055	-0.124589	10.322824	-0.008882	0.006869	0.005222	-1.159668	0.961914	-2.001221	-0.545339	1.346470	-112.366895
24208		-0.252063	-0.131544	10.300489	-0.010770	0.006206	0.006029	-1.165771	0.965332	-1.993896	-0.546251	1.346098	-112.367071
24209		-0.249383	-0.107883	10.324353	-0.009862	0.005131	0.004376	-1.166748	0.960693	-2.007568	-0.546720	1.344836	-112.368084
24210		-0.240927	-0.119882	10.284596	-0.008379	0.012206	0.005100	-1.167480	0.964600	-2.001709	-0.546321	1.347640	-112.368793
24211		-0.238192	-0.129218	10.317817	-0.007527	0.006278	0.002143	-1.170410	0.967285	-2.010498	-0.545482	1.347023	-112.371091
24212		-0.255644	-0.101999	10.291010	-0.010239	0.007463	0.008298	-1.169922	0.966797	-1.998047	-0.546117	1.347137	-112.369790
24213		-0.219560	-0.134440	10.368443	-0.007427	0.005012	0.007032	-1.166504	0.967529	-1.999268	-0.545156	1.345822	-112.369280
24214		-0.256474	-0.136968	10.300309	-0.009330	0.006389	0.006644	-1.166016	0.962158	-1.998535	-0.545414	1.345220	-112.368977
24215		-0.241261	-0.099553	10.308365	-0.008883	0.006872	0.005220	-1.166016	0.966309	-2.002930	-0.545311	1.344960	-112.369515
24216		-0.228985	-0.120095	10.301862	-0.009792	0.007947	0.006873	-1.169434	0.962402	-2.000244	-0.545731	1.345342	-112.369160
24217		-0.264845	-0.103947	10.363854	-0.006995	0.007536	0.004413	-1.168213	0.962402	-2.000488	-0.544558	1.345458	-112.370165
24218		-0.243179	-0.135397	10.317622	-0.008884	0.006873	0.005219	-1.167480	0.962646	-1.997559	-0.544439	1.345137	-112.370766
24219		-0.278829	-0.119327	10.379614	-0.009317	0.004350	0.007837	-1.169922	0.971924	-1.998535	-0.544550	1.343447	-112.369791
24220		-0.231743	-0.123502	10.301760	-0.006995	0.007537	0.004413	-1.163330	0.969482	-1.996582	-0.543514	1.343473	-112.370771
24221		-0.248891	-0.129345	10.284292	-0.007905	0.008612	0.006065	-1.170410	0.968018	-1.995850	-0.542840	1.344214	-112.370834
24222		-0.242963	-0.114024	10.341428	-0.007919	0.010653	0.004871	-1.167725	0.968750	-2.002441	-0.542388	1.346050	-112.371569
24223		-0.260239	-0.120009	10.323951	-0.009794	0.007949	0.006871	-1.156494	0.961670	-1.992188	-0.542785	1.346417	-112.371167
24224		-0.261021	-0.120883	10.323921	-0.007444	0.007055	0.005835	-1.160645	0.964355	-1.999512	-0.541943	1.346335	-112.371445
24225		-0.219709	-0.122385	10.319062	-0.005093	0.006160	0.004800	-1.169678	0.961670	-2.000488	-0.539674	1.345665	-112.372221
24226		-0.249664	-0.108769	10.308072	-0.012664	0.005550	0.006829	-1.168457	0.964355	-2.002930	-0.541723	1.344686	-112.371912
24227		-0.250457	-0.109858	10.308041	-0.008815	0.009688	0.007717	-1.167480	0.960205	-2.007324	-0.541549	1.346054	-112.371035
24228		-0.234626	-0.138876	10.334772	-0.007893	0.006573	0.007258	-1.162842	0.965332	-2.002197	-0.540777	1.345668	-112.370431
24229		-0.235631	-0.106383	10.325442	-0.006983	0.005498	0.005605	-1.163086	0.963135	-1.998291	-0.539580	1.344624	-112.370741
24230		-0.265184	-0.126023	10.323753	-0.011224	0.005731	0.007445	-1.175537	0.962402	-2.003418	-0.540826	1.343814	-112.370067
24231		-0.243840	-0.124372	10.268205	-0.008355	0.008132	0.007487	-1.169189	0.969727	-2.000732	-0.540390	1.344288	-112.369313
24232		-0.237885	-0.109222	10.325360	-0.009809	0.009994	0.005676	-1.168701	0.969971	-1.998291	-0.563724	1.344500	-112.338345
24233		-0.242060	-0.134734	10.301382	-0.006997	0.007541	0.004411	-1.164551	0.961182	-2.006348	-0.562565	1.344619	-112.339339
24234		-0.239431	-0.110960	10.325306	-0.010315	0.004658	0.005791	-1.162598	0.963135	-1.997559	-0.563324	1.343118	-112.339430
24235		-0.243471	-0.136852	10.301321	-0.014051	0.010229	0.007514	-1.160156	0.964111	-1.999756	-0.566166	1.344794	-112.338660
24236		-0.253809	-0.126929	10.341017	-0.006997	0.007542	0.004411	-1.164551	0.970459	-1.996338	-0.565033	1.345009	-112.340469
24237		-0.249118	-0.096791	10.258735	-0.007446	0.007058	0.005834	-1.167725	0.962402	-1.993896	-0.564112	1.344859	-112.340645
24238		-0.229596	-0.134361	10.318697	-0.007446	0.007059	0.005833	-1.165771	0.962646	-2.003174	-0.563325	1.344646	-112.340977
24239		-0.272408	-0.134314	10.323461	-0.009349	0.008439	0.005445	-1.165039	0.967285	-2.001465	-0.563500	1.345285	-112.341383
24240		-0.244159	-0.116445	10.325135	-0.006986	0.005501	0.005603	-1.164063	0.965820	-2.001953	-0.562339	1.344294	-112.341759
24241		-0.235388	-0.128156	10.285378	-0.007447	0.007059	0.005833	-1.171387	0.967773	-2.003662	-0.561419	1.344144	-112.341936
24242		-0.245682	-0.118203	10.325079	-0.012694	0.009642	0.004437	-1.163574	0.967041	-2.000000	-0.563586	1.345473	-112.342601
24243		-0.253364	-0.135407	10.267834	-0.010779	0.006220	0.006018	-1.164307	0.970947	-1.998535	-0.564572	1.344843	-112.342667
24244		-0.231004	-0.115247	10.342495	-0.006468	0.008797	0.006682	-1.173096	0.970947	-1.999023	-0.563231	1.345741	-112.342446
24245		-0.235397	-0.107341	10.309232	-0.007898	0.006577	0.007255	-1.162598	0.961670	-2.003662	-0.562549	1.345323	-112.341805
24246		-0.235779	-0.141378	10.318464	-0.007448	0.007061	0.005832	-1.162842	0.966064	-1.999756	-0.561695	1.345156	-112.341733
24247		-0.282140	-0.132644	10.289968	-0.008809	0.007652	0.008907	-1.165527	0.972412	-2.001953	-0.561513	1.345363	-112.340152
24248		-0.250308	-0.123516	10.324906	-0.009339	0.006400	0.006635	-1.163574	0.967773	-1.996826	-0.561807	1.344902	-112.339841
24249		-0.267468	-0.129485	10.307386	-0.009362	0.010485	0.004251	-1.161133	0.970215	-1.995361	-0.562006	1.346707	-112.340943
24250		-0.248686	-0.100747	10.348833	-0.008338	0.004052	0.009868	-1.164063	0.961670	-2.001465	-0.561726	1.344895	-112.339135
24251		-0.226853	-0.132346	10.302569	-0.012234	0.008089	0.004204	-1.168701	0.961426	-1.997314	-0.563571	1.345326	-112.340251
24252		-0.240589	-0.113648	10.309045	-0.005547	0.005681	0.006221	-1.164307	0.962402	-1.996826	-0.561525	1.344375	-112.340482
24253		-0.257497	-0.119407	10.291529	-0.009341	0.006402	0.006634	-1.169922	0.962646	-1.996338	-0.561679	1.343853	-112.340195
24254		-0.228959	-0.134898	10.302489	-0.008361	0.008138	0.007484	-1.168945	0.965332	-2.002441	-0.561285	1.344262	-112.339664
24255		-0.242749	-0.116244	10.308965	-0.010332	0.006709	0.004592	-1.168213	0.970459	-2.001709	-0.562034	1.343905	-112.340550
24256		-0.269279	-0.111235	10.331176	-0.007911	0.008623	0.006061	-1.166260	0.965820	-1.994141	-0.561472	1.344628	-112.340173
24257		-0.244475	-0.117876	10.308906	-0.006020	0.009284	0.005259	-1.166504	0.971191	-2.003662	-0.559742	1.345750	-112.340691
24258		-0.245135	-0.118735	10.308880	-0.010852	0.003415	0.003510	-1.168701	0.956055	-2.006836	-0.560950	1.343482	-112.342031
24259		-0.245609	-0.119568	10.308859	-0.005549	0.005682	0.006220	-1.159912	0.960693	-2.006836	-0.558936	1.342546	-112.341978
24260		-0.259520	-0.100765	10.315338	-0.010275	0.011565	0.005902	-1.160889	0.963379	-2.005615	-0.559444	1.345124	-112.342585
24261		-0.263605	-0.126350	10.291291	-0.009333	0.004361	0.007823	-1.155029	0.959717	-2.009033	-0.559577	1.343439	-112.341606
24262		-0.257379	-0.111313	10.348512	-0.007902	0.006581	0.007252	-1.165771	0.971924	-2.004639	-0.558781	1.343327	-112.341794
24263		-0.268393	-0.119398	10.258010	-0.009343	0.006405	0.006631	-1.176025	0.972412	-2.000488	-0.558936	1.342807	-112.341509
24264		-0.229465	-0.127817	10.359455	-0.010334	0.006713	0.004589	-1.163330	0.968018	-2.002686	-0.559889	1.342376	-112.341505
24265		-0.266343	-0.129933	10.291176	-0.006472	0.008802	0.006681	-1.169434	0.968262	-2.000488	-0.558398	1.343229	-112.341206
24266		-0.221549	-0.140558	10.319657	-0.012677	0.005569	0.006811	-1.164307	0.968018	-1.997070	-0.560573	1.342251	-112.340619
24267		-0.251621	-0.127017	10.308625	-0.008825	0.009701	0.007713	-1.163086	0.960449	-1.994629	-0.560417	1.343626	-112.339733
24268		-0.248947	-0.136565	10.341819	-0.007904	0.006583	0.007251	-1.168457	0.968018	-2.001221	-0.559817	1.343213	-112.339553
24269		-0.265859	-0.142339	10.324275	-0.007981	0.005816	0.003556	-1.166504	0.967529	-2.005859	-0.559233	1.342338	-112.341027
24270		-0.250349	-0.138183	10.341764	-0.007913	0.008627	0.006060	-1.170410	0.965088	-2.000732	-0.558656	1.343109	-112.340757
24271		-0.241635	-0.150027	10.301990	-0.010787	0.006232	0.006009	-1.170166	0.962402	-2.003174	-0.559647	1.342486	-112.340828
24272		-0.242632	-0.117789	10.292778	-0.009807	0.007967	0.006860	-1.166260	0.968506	-1.996094	-0.560065	1.342792	-112.340133
24273		-0.268962	-0.146136	10.324141	-0.009807	0.007968	0.006860	-1.164307	0.973877	-2.000732	-0.560483	1.343168	-112.339726
24274		-0.224469	-0.123501	10.343466	-0.008895	0.006893	0.005208	-1.165771	0.968994	-2.004883	-0.560620	1.342923	-112.340093
24275		-0.244867	-0.120609	10.292692	-0.008434	0.005334	0.004976	-1.172363	0.963623	-2.001221	-0.560277	1.341780	-112.340751
24276		-0.242244	-0.130290	10.325881	-0.010277	0.011573	0.005901	-1.164063	0.960938	-2.000732	-0.561025	1.344194	-112.340574
24277		-0.259098	-0.169443	10.317482	-0.007898	0.004540	0.008439	-1.165283	0.960938	-1.998779	-0.560328	1.342616	-112.339242
24278		-0.243925	-0.098773	10.316662	-0.008895	0.006895	0.005207	-1.166748	0.968750	-2.000488	-0.560198	1.342403	-112.340212
24279		-0.247951	-0.124271	10.292575	-0.009808	0.007970	0.006859	-1.169678	0.962646	-2.004639	-0.560617	1.342781	-112.339806
24280		-0.271009	-0.127961	10.347972	-0.007455	0.007070	0.005828	-1.170410	0.961182	-2.007813	-0.559741	1.342629	-112.339773
24281		-0.207466	-0.127105	10.287846	-0.011702	0.007311	0.007657	-1.159912	0.964355	-2.000732	-0.561234	1.342633	-112.338906
24282		-0.250173	-0.127200	10.292485	-0.009801	0.005926	0.008047	-1.157227	0.962891	-1.995605	-0.561581	1.341935	-112.337966
24283		-0.276689	-0.122243	10.314659	-0.009357	0.008456	0.005437	-1.168701	0.968018	-1.999023	-0.561760	1.342584	-112.338377
24284		-0.264604	-0.109355	10.298958	-0.006459	0.004716	0.009059	-1.160400	0.964111	-1.993408	-0.560322	1.341152	-112.337059
24285		-0.232608	-0.133500	10.343162	-0.007463	0.009117	0.004638	-1.163330	0.962158	-1.998535	-0.559428	1.342175	-112.337932
24286		-0.253321	-0.130540	10.292366	-0.009818	0.010018	0.005668	-1.163574	0.960938	-2.000244	-0.559920	1.343768	-112.338811
24287		-0.237986	-0.126637	10.309879	-0.010263	0.007488	0.008277	-1.171631	0.962891	-1.993896	-0.560580	1.343878	-112.337590
24288		-0.267973	-0.112914	10.298832	-0.008897	0.006898	0.005205	-1.166748	0.979004	-1.998779	-0.560510	1.343555	-112.338292
24289		-0.239439	-0.128460	10.309823	-0.007909	0.006588	0.007247	-1.165039	0.963623	-1.992432	-0.559836	1.343144	-112.337655
24290		-0.253246	-0.109791	10.316326	-0.010724	0.009050	0.008508	-1.164551	0.975098	-1.996826	-0.561016	1.344097	-112.336160
24291		-0.237964	-0.105858	10.333847	-0.008452	0.009430	0.002595	-1.164307	0.965332	-2.001465	-0.560715	1.345287	-112.338206
24292		-0.245527	-0.122533	10.276513	-0.009886	0.007211	0.003161	-1.165527	0.963379	-1.998291	-0.561414	1.345242	-112.339841
24293		-0.242700	-0.132143	10.309700	-0.006463	0.004717	0.009057	-1.161377	0.964844	-1.997559	-0.559887	1.343768	-112.338157
24294		-0.230524	-0.119153	10.294024	-0.007457	0.007074	0.005826	-1.169434	0.966309	-2.002441	-0.559022	1.343665	-112.338665
24295		-0.215022	-0.115009	10.311560	-0.007458	0.007075	0.005826	-1.166748	0.969727	-2.005615	-0.558108	1.343524	-112.338846
24296		-0.257816	-0.114935	10.316157	-0.011253	0.007803	0.006232	-1.163086	0.969482	-1.997070	-0.559442	1.343815	-112.338458
24297		-0.255196	-0.124674	10.349336	-0.007385	0.007839	0.009519	-1.167725	0.966553	-1.999756	-0.558437	1.344132	-112.336527
24298		-0.259496	-0.116774	10.316094	-0.010346	0.008775	0.003392	-1.170654	0.966553	-2.000000	-0.559352	1.344949	-112.338095
24299		-0.243995	-0.113007	10.333631	-0.011702	0.005273	0.008839	-1.161377	0.967285	-2.000488	-0.560829	1.343793	-112.336538
24300		-0.264053	-0.143264	10.291927	-0.005558	0.005689	0.006216	-1.167480	0.968262	-1.998291	-0.558912	1.342868	-112.336441
24301		-0.219574	-0.120603	10.311400	-0.010274	0.009539	0.007085	-1.156006	0.970215	-1.999512	-0.559595	1.344147	-112.335913
24302		-0.249551	-0.140175	10.309430	-0.009360	0.008464	0.005434	-1.170166	0.967285	-2.003174	-0.559939	1.344893	-112.336487
24303		-0.276209	-0.135154	10.331573	-0.008374	0.008152	0.007476	-1.165283	0.962402	-2.002686	-0.559527	1.345379	-112.335728
24304		-0.238387	-0.128253	10.293736	-0.008900	0.006905	0.005201	-1.167725	0.962402	-2.006104	-0.559457	1.345139	-112.336140
24305		-0.239161	-0.129202	10.293706	-0.009815	0.007980	0.006852	-1.159912	0.966797	-1.995361	-0.559880	1.345522	-112.335738
24306		-0.239774	-0.130104	10.293681	-0.007980	0.003783	0.004737	-1.165527	0.966797	-2.002441	-0.559307	1.343554	-112.336714
24307		-0.253406	-0.111382	10.300202	-0.009744	0.008743	0.010546	-1.160645	0.963867	-1.995850	-0.559640	1.344396	-112.334199
24308		-0.221631	-0.135961	10.344408	-0.009887	0.007219	0.003158	-1.165771	0.963867	-2.000732	-0.560217	1.344384	-112.336141
24309		-0.255043	-0.113228	10.300141	-0.006934	0.008326	0.008098	-1.165039	0.971191	-2.002197	-0.558973	1.344973	-112.335026
24310		-0.252504	-0.122836	10.333314	-0.008375	0.008155	0.007475	-1.167236	0.966797	-1.997559	-0.558655	1.345496	-112.334200
24311		-0.253492	-0.090442	10.324218	-0.009816	0.007983	0.006851	-1.163574	0.963135	-2.001709	-0.559078	1.345881	-112.333798
24312		-0.237993	-0.119804	10.350840	-0.007921	0.008641	0.006055	-1.164551	0.967041	-2.004395	-0.558477	1.346647	-112.333940
24313		-0.258273	-0.116758	10.300021	-0.010793	0.004203	0.007181	-1.163574	0.965332	-1.998291	-0.559455	1.344869	-112.333327
24314		-0.246137	-0.137497	10.293434	-0.011268	0.011906	0.003853	-1.170166	0.968262	-1.999756	-0.560811	1.347549	-112.334737
24315		-0.260181	-0.118944	10.299948	-0.009747	0.008746	0.010544	-1.167969	0.972656	-2.004883	-0.561145	1.348392	-112.332223
24316		-0.244700	-0.115018	10.317515	-0.008443	0.005348	0.004966	-1.168213	0.964600	-1.996338	-0.560960	1.347212	-112.332458
24317		-0.261634	-0.120764	10.299890	-0.009363	0.008471	0.005431	-1.161621	0.968506	-1.993164	-0.561143	1.347869	-112.332873
24318		-0.275356	-0.135417	10.315455	-0.009363	0.008471	0.005430	-1.169434	0.968750	-1.994873	-0.561468	1.348475	-112.333431
24319		-0.247099	-0.117806	10.317427	-0.008903	0.006910	0.005198	-1.169189	0.966553	-2.002441	-0.561391	1.348237	-112.333970
24320		-0.218638	-0.133497	10.328444	-0.008903	0.006911	0.005198	-1.165771	0.961182	-2.008545	-0.561438	1.347896	-112.334272
24321		-0.232326	-0.114788	10.334976	-0.008904	0.006911	0.005197	-1.166992	0.973633	-2.000000	-0.561361	1.347658	-112.334811
24322		-0.258911	-0.109904	10.357096	-0.011260	0.007815	0.006224	-1.163818	0.967773	-2.005371	-0.562673	1.347996	-112.334601
24323		-0.250008	-0.121496	10.317314	-0.005563	0.005692	0.006213	-1.164307	0.967773	-2.000000	-0.560668	1.347065	-112.334552
24324		-0.237890	-0.108707	10.301700	-0.012632	0.008406	0.009293	-1.171143	0.970215	-2.001465	-0.562751	1.347792	-112.332736
24325		-0.254847	-0.114498	10.284061	-0.006548	0.006008	0.004170	-1.164063	0.967773	-1.997070	-0.561338	1.347031	-112.333860
24326		-0.258930	-0.106359	10.250841	-0.008380	0.008159	0.007472	-1.161377	0.961914	-1.995117	-0.561079	1.347470	-112.332904
24327		-0.224019	-0.106466	10.319232	-0.008380	0.008159	0.007472	-1.158936	0.976074	-1.999512	-0.560672	1.347960	-112.332147
24328		-0.253970	-0.092535	10.308154	-0.008905	0.006914	0.005196	-1.162842	0.971191	-2.000977	-0.560766	1.347828	-112.332939
24329		-0.241905	-0.112956	10.301560	-0.006943	0.010379	0.006911	-1.167725	0.979736	-1.998291	-0.559543	1.349586	-112.332516
24330		-0.255604	-0.127662	10.317102	-0.012699	0.005601	0.006782	-1.167969	0.960938	-1.999268	-0.561924	1.348617	-112.331788
24331		-0.252953	-0.104163	10.341263	-0.005565	0.005694	0.006212	-1.159912	0.977783	-1.989990	-0.559920	1.347687	-112.331740
24332		-0.256771	-0.129460	10.317051	-0.011716	0.005286	0.008825	-1.169922	0.966553	-2.002197	-0.561612	1.346509	-112.330268
24333		-0.257694	-0.130404	10.317016	-0.006947	0.012428	0.005726	-1.166992	0.963379	-1.999512	-0.560408	1.349434	-112.330536
24334		-0.236140	-0.128244	10.261659	-0.009819	0.005943	0.008031	-1.163818	0.968262	-2.004883	-0.560839	1.348606	-112.329347
24335		-0.259323	-0.132200	10.316952	-0.008906	0.006916	0.005194	-1.167480	0.969971	-1.998291	-0.560764	1.348371	-112.329888
24336		-0.234280	-0.139112	10.294789	-0.010807	0.008309	0.004802	-1.167236	0.964111	-1.996338	-0.561899	1.348961	-112.330529
24337		-0.244678	-0.129517	10.334517	-0.010804	0.006261	0.005987	-1.163330	0.968262	-1.999756	-0.562901	1.348355	-112.330613
24338		-0.261627	-0.135277	10.316854	-0.008383	0.008163	0.007470	-1.175537	0.964355	-2.000488	-0.562578	1.348834	-112.329931
24339		-0.265887	-0.093753	10.274656	-0.006486	0.008819	0.006678	-1.168213	0.967041	-2.000977	-0.561096	1.349697	-112.329633
24340		-0.221380	-0.137954	10.312300	-0.009367	0.008481	0.005426	-1.165039	0.965088	-1.998779	-0.561323	1.350224	-112.329758
24341		-0.218847	-0.114407	10.336485	-0.007465	0.005039	0.007003	-1.166260	0.968262	-1.993164	-0.560398	1.348923	-112.329252
24342		-0.277719	-0.118862	10.323307	-0.008450	0.007406	0.003775	-1.166504	0.969727	-2.004395	-0.560201	1.348911	-112.330680
24343		-0.249447	-0.101225	10.325371	-0.008384	0.008164	0.007469	-1.170654	0.968506	-2.002686	-0.559797	1.349403	-112.329925
24344		-0.250217	-0.102048	10.325344	-0.007925	0.006602	0.007236	-1.167725	0.965332	-1.992676	-0.559226	1.348989	-112.328993
24345		-0.221795	-0.117683	10.336386	-0.007468	0.007089	0.005818	-1.166992	0.969238	-1.999756	-0.558318	1.348856	-112.329178
24346		-0.225794	-0.109713	10.303176	-0.011789	0.006582	0.003940	-1.167969	0.964600	-2.000488	-0.560045	1.348337	-112.330396
24347		-0.268513	-0.109575	10.307619	-0.007926	0.006603	0.007235	-1.169434	0.968506	-1.997559	-0.559381	1.347934	-112.329766
24348		-0.253022	-0.138914	10.334194	-0.007010	0.007577	0.004400	-1.162354	0.966797	-1.999023	-0.558312	1.347997	-112.330645
24349		-0.253885	-0.106348	10.325211	-0.008386	0.008166	0.007468	-1.161865	0.970703	-1.999023	-0.557909	1.348491	-112.329890
24350		-0.257803	-0.131604	10.300953	-0.008908	0.004872	0.006375	-1.163086	0.965332	-1.993896	-0.557954	1.347178	-112.329855
24351		-0.229462	-0.147352	10.311994	-0.008387	0.010216	0.006284	-1.160889	0.970215	-1.999268	-0.557568	1.348839	-112.329790
24352		-0.230363	-0.114904	10.303018	-0.009368	0.006436	0.006608	-1.161133	0.962158	-2.005615	-0.557877	1.348390	-112.329708
24353		-0.231261	-0.115707	10.302989	-0.006489	0.010872	0.005494	-1.168213	0.968506	-1.996338	-0.556414	1.350423	-112.330100
24354		-0.257947	-0.110508	10.325067	-0.007469	0.005042	0.007000	-1.179688	0.975098	-1.998047	-0.555518	1.349172	-112.329673
24355		-0.248879	-0.155551	10.294212	-0.013167	0.007176	0.007004	-1.160889	0.969971	-2.003662	-0.557860	1.349096	-112.329179
24356		-0.220621	-0.104880	10.287389	-0.009370	0.008487	0.005424	-1.163330	0.966797	-1.995605	-0.558257	1.349672	-112.329158
24357		-0.260308	-0.113634	10.324974	-0.008911	0.008975	0.004006	-1.168457	0.961914	-1.991455	-0.558201	1.350609	-112.330392
24358		-0.232086	-0.129404	10.336020	-0.008388	0.008169	0.007467	-1.163330	0.970703	-1.999512	-0.557888	1.351017	-112.329818
24359		-0.252282	-0.092689	10.276227	-0.009370	0.006438	0.006606	-1.162842	0.965576	-2.001953	-0.558059	1.350516	-112.329548
24360		-0.236768	-0.122261	10.302788	-0.009370	0.006439	0.006606	-1.163574	0.963867	-1.998047	-0.558328	1.350099	-112.329326
24361		-0.234165	-0.132309	10.335936	-0.011269	0.005784	0.007395	-1.170166	0.965088	-1.995605	-0.559577	1.349227	-112.328600
24362		-0.234853	-0.099830	10.326997	-0.006031	0.007262	0.006443	-1.166504	0.966064	-1.997070	-0.557889	1.349134	-112.328504
24363		-0.242094	-0.115834	10.269536	-0.007012	0.007582	0.004399	-1.165039	0.966064	-2.012207	-0.556740	1.349275	-112.329505
24364		-0.236315	-0.134651	10.335857	-0.008849	0.005633	0.010065	-1.168945	0.958008	-2.000977	-0.556567	1.348407	-112.327196
24365		-0.240333	-0.126681	10.302653	-0.011730	0.009399	0.006445	-1.165039	0.961182	-2.001221	-0.558094	1.349602	-112.327034
24366		-0.208930	-0.118328	10.337973	-0.009371	0.008491	0.005422	-1.161621	0.969482	-2.007324	-0.558167	1.350263	-112.327633
24367		-0.267994	-0.122830	10.324672	-0.009831	0.008004	0.006838	-1.170410	0.963135	-1.996826	-0.558600	1.350660	-112.327238
24368		-0.226823	-0.124920	10.320235	-0.007931	0.008659	0.006049	-1.162842	0.971924	-1.994873	-0.557994	1.351459	-112.327266
24369		-0.240597	-0.106214	10.326801	-0.010291	0.007518	0.008254	-1.168457	0.963379	-2.002197	-0.558672	1.351586	-112.326057
24370		-0.241417	-0.140508	10.335661	-0.007994	0.007905	0.002354	-1.170166	0.967041	-2.003906	-0.558226	1.351889	-112.328215
24371		-0.245432	-0.132407	10.302460	-0.010292	0.007518	0.008253	-1.169189	0.960938	-2.001465	-0.558904	1.352015	-112.327007
24372		-0.233248	-0.119698	10.286948	-0.009894	0.007251	0.003142	-1.163574	0.963135	-2.002441	-0.559400	1.351909	-112.328623
24373		-0.230787	-0.129621	10.320089	-0.007474	0.007097	0.005814	-1.167236	0.963867	-2.001953	-0.558496	1.351781	-112.328810
24374		-0.270362	-0.104996	10.348737	-0.010293	0.007519	0.008252	-1.162842	0.966309	-2.001953	-0.559146	1.351955	-112.327688
24375		-0.235584	-0.122474	10.286862	-0.009373	0.008495	0.005420	-1.168457	0.971191	-1.998047	-0.559336	1.352625	-112.328109
24376		-0.229960	-0.108134	10.344295	-0.008914	0.006932	0.005186	-1.164551	0.961182	-2.007813	-0.559391	1.352408	-112.328584
24377		-0.237112	-0.124232	10.286806	-0.007474	0.007098	0.005814	-1.164063	0.961670	-2.001953	-0.558488	1.352281	-112.328772
24378		-0.263681	-0.119212	10.308851	-0.009835	0.005957	0.008017	-1.164795	0.966797	-1.998779	-0.558798	1.351621	-112.327848
24379		-0.222320	-0.154842	10.313312	-0.010815	0.006279	0.005973	-1.166748	0.959717	-2.003174	-0.559806	1.351025	-112.327940
24380		-0.261667	-0.096822	10.333103	-0.006497	0.004726	0.009039	-1.172363	0.970703	-2.003662	-0.558281	1.349575	-112.326357
24381		-0.236538	-0.103615	10.311008	-0.011273	0.009895	0.005025	-1.166016	0.970215	-2.004150	-0.559565	1.351046	-112.327013
24382		-0.247099	-0.127452	10.359601	-0.008917	0.004882	0.006366	-1.168945	0.961182	-2.000244	-0.559606	1.349631	-112.326578
24383		-0.244381	-0.120821	10.253479	-0.009835	0.008010	0.006835	-1.164063	0.958496	-2.007080	-0.560041	1.350032	-112.326185
24384		-0.238867	-0.139965	10.319770	-0.009835	0.008011	0.006834	-1.161865	0.969971	-2.000000	-0.560343	1.350472	-112.325943
24385		-0.226734	-0.127147	10.304286	-0.008395	0.008177	0.007463	-1.164551	0.956055	-2.002930	-0.559945	1.350972	-112.325191
24386		-0.253419	-0.122134	10.326318	-0.008916	0.006936	0.005184	-1.166016	0.968750	-2.001221	-0.559848	1.350835	-112.325918
24387		-0.225095	-0.104663	10.328551	-0.009375	0.008500	0.005418	-1.163818	0.965332	-1.993896	-0.560039	1.351509	-112.326340
24388		-0.229044	-0.129861	10.304201	-0.008458	0.005372	0.004949	-1.166748	0.966553	-1.997559	-0.559829	1.350377	-112.327050
24389		-0.213533	-0.126167	10.321889	-0.010357	0.006771	0.004554	-1.168701	0.963379	-1.997803	-0.560594	1.350056	-112.327958
24390		-0.256381	-0.125862	10.326200	-0.007936	0.008666	0.006047	-1.165527	0.969727	-1.996582	-0.560017	1.350753	-112.328032
24391		-0.231283	-0.132478	10.304117	-0.006498	0.006779	0.007856	-1.169678	0.971680	-1.999512	-0.558527	1.350454	-112.327047
24392		-0.244816	-0.113546	10.310710	-0.007480	0.005050	0.006992	-1.171387	0.965088	-2.003174	-0.557813	1.349095	-112.326382
24393		-0.245612	-0.114348	10.310682	-0.008394	0.010232	0.006281	-1.170898	0.966064	-1.997559	-0.557431	1.350765	-112.326319
24394		-0.243326	-0.091072	10.334988	-0.011278	0.007850	0.006203	-1.166992	0.965088	-2.001221	-0.558752	1.350953	-112.326145
24395		-0.231103	-0.111713	10.328345	-0.008459	0.005375	0.004947	-1.170654	0.968750	-2.003174	-0.558425	1.349833	-112.326820
24396		-0.251090	-0.141452	10.286252	-0.007940	0.006616	0.007226	-1.170898	0.963379	-2.000244	-0.557829	1.349403	-112.326066
24397		-0.245509	-0.127250	10.343720	-0.010817	0.008340	0.004787	-1.166992	0.961182	-1.998779	-0.558855	1.349981	-112.326849
24398		-0.249421	-0.119085	10.310537	-0.007940	0.006616	0.007226	-1.157959	0.967773	-2.001221	-0.558178	1.349510	-112.326266
24399		-0.237227	-0.139500	10.303889	-0.007479	0.007105	0.005811	-1.169678	0.964844	-2.000732	-0.557277	1.349386	-112.326455
24400		-0.260758	-0.143496	10.359056	-0.007479	0.007105	0.005811	-1.165527	0.961914	-2.001709	-0.556437	1.349336	-112.326700
24401		-0.222475	-0.103003	10.312772	-0.007479	0.007105	0.005810	-1.164795	0.974365	-1.995850	-0.555537	1.349213	-112.326890
24402		-0.252232	-0.122282	10.310431	-0.010363	0.004724	0.005730	-1.166748	0.964844	-2.010010	-0.556424	1.347733	-112.327093
24403		-0.237012	-0.152148	10.336924	-0.011219	0.010659	0.008715	-1.164551	0.964111	-1.997559	-0.557627	1.349662	-112.325638
24404		-0.224726	-0.106006	10.312692	-0.008461	0.005378	0.004945	-1.165283	0.962891	-1.998779	-0.557284	1.348612	-112.326340
24405		-0.228558	-0.097773	10.279518	-0.009378	0.008507	0.005415	-1.164063	0.964600	-2.002197	-0.557477	1.349289	-112.326763
24406		-0.252279	-0.135430	10.343453	-0.010360	0.006779	0.004550	-1.165039	0.961914	-1.995361	-0.558248	1.349016	-112.327782
24407		-0.239885	-0.122711	10.328020	-0.009902	0.005215	0.004314	-1.168213	0.968262	-1.992676	-0.558756	1.347801	-112.328819
24408		-0.243596	-0.114542	10.294847	-0.009383	0.006455	0.006594	-1.169678	0.974365	-2.004639	-0.559051	1.347214	-112.328636
24409		-0.238051	-0.133953	10.361111	-0.012263	0.006128	0.005333	-1.169434	0.958252	-1.997803	-0.560898	1.346528	-112.329093
24410		-0.258069	-0.130404	10.310187	-0.007476	0.009161	0.004631	-1.160889	0.973145	-1.993896	-0.560070	1.347515	-112.329864
24411		-0.255736	-0.106920	10.334536	-0.007425	0.007859	0.009504	-1.162842	0.968262	-2.002686	-0.559089	1.347844	-112.327942
24412		-0.243690	-0.127407	10.327874	-0.009379	0.008510	0.005414	-1.163086	0.967285	-1.992432	-0.559485	1.348611	-112.328367
24413		-0.231438	-0.114602	10.312452	-0.009384	0.006457	0.006593	-1.166748	0.965820	-2.001709	-0.559665	1.348120	-112.328104
24414		-0.248356	-0.153616	10.303426	-0.010825	0.006294	0.005962	-1.164551	0.970947	-2.001221	-0.560791	1.347525	-112.328254
24415		-0.232629	-0.083258	10.303648	-0.009385	0.006457	0.006592	-1.171143	0.964600	-1.996826	-0.560972	1.347035	-112.327992
24416		-0.262700	-0.135955	10.309998	-0.009380	0.008512	0.005414	-1.160645	0.971436	-2.004639	-0.561284	1.347664	-112.328339
24417		-0.231406	-0.127499	10.345483	-0.004597	0.009489	0.005892	-1.167480	0.958252	-2.002686	-0.558731	1.348907	-112.328495
24418		-0.248232	-0.132732	10.327699	-0.008414	0.004078	0.009814	-1.154785	0.965820	-2.001465	-0.558301	1.347181	-112.326430
24419		-0.249006	-0.133558	10.327669	-0.007935	0.010730	0.004866	-1.165283	0.969238	-2.003418	-0.557675	1.349129	-112.327181
24420		-0.236645	-0.087393	10.303522	-0.011753	0.005319	0.008787	-1.161377	0.960449	-1.999512	-0.559255	1.348189	-112.325745
24421		-0.237595	-0.155248	10.320967	-0.008923	0.006949	0.005177	-1.165283	0.966553	-2.001465	-0.559190	1.347972	-112.326297
24422		-0.267131	-0.107777	10.301079	-0.010827	0.006298	0.005959	-1.159668	0.966797	-1.991943	-0.560199	1.347464	-112.326536
24423		-0.225856	-0.110038	10.296806	-0.007941	0.008677	0.006044	-1.162109	0.967285	-1.999756	-0.559560	1.348242	-112.326601
24424		-0.252751	-0.138446	10.327514	-0.009387	0.006461	0.006590	-1.168945	0.964844	-2.009277	-0.559881	1.347824	-112.326476
24425		-0.266536	-0.119686	10.334123	-0.007936	0.010732	0.004866	-1.167480	0.972656	-1.992188	-0.559255	1.349774	-112.327227
24426		-0.238316	-0.135595	10.345223	-0.008418	0.004079	0.009812	-1.168213	0.969727	-2.000244	-0.558962	1.347896	-112.324976
24427		-0.251800	-0.116886	10.351842	-0.009900	0.007278	0.003131	-1.165527	0.959473	-1.995605	-0.559484	1.347857	-112.326702
24428		-0.255616	-0.108702	10.318677	-0.010311	0.007538	0.008238	-1.165283	0.969482	-2.001465	-0.560225	1.347946	-112.325548
24429		-0.243565	-0.129342	10.311998	-0.009382	0.008517	0.005411	-1.173096	0.965820	-2.000977	-0.560420	1.348629	-112.325974
24430		-0.228276	-0.125652	10.329748	-0.007485	0.007114	0.005807	-1.163086	0.964355	-2.000244	-0.559611	1.348452	-112.326044
24431		-0.232132	-0.117210	10.296587	-0.007943	0.008680	0.006043	-1.157471	0.971680	-1.998291	-0.558974	1.349232	-112.326110
24432		-0.262064	-0.136421	10.294127	-0.009854	0.005974	0.008001	-1.169189	0.968750	-2.006592	-0.586423	1.336629	-112.343265
24433		-0.243442	-0.108500	10.336316	-0.006045	0.007276	0.006438	-1.166016	0.967773	-1.993896	-0.584708	1.336600	-112.343106
24434		-0.260456	-0.147359	10.327199	-0.011805	0.006631	0.003910	-1.161621	0.976318	-2.003906	-0.586416	1.336165	-112.344388
24435		-0.247944	-0.101150	10.303131	-0.007433	0.007863	0.009501	-1.165527	0.963379	-2.000977	-0.585455	1.336490	-112.342477
24436		-0.248681	-0.102072	10.303104	-0.010830	0.006304	0.005955	-1.170166	0.968994	-1.999756	-0.586588	1.335990	-112.342666
24437		-0.233466	-0.132039	10.329552	-0.010366	0.006794	0.004541	-1.163330	0.961670	-1.996582	-0.587374	1.335673	-112.343591
24438		-0.263222	-0.117876	10.318385	-0.008409	0.008192	0.007455	-1.166992	0.968994	-1.997803	-0.587045	1.336148	-112.342864
24439		-0.247999	-0.114254	10.336146	-0.009384	0.008522	0.005410	-1.165039	0.967529	-2.001953	-0.587257	1.336826	-112.343301
24440		-0.236000	-0.134727	10.329460	-0.006970	0.008354	0.008087	-1.165283	0.964111	-1.997070	-0.586140	1.337432	-112.342247
24441		-0.233440	-0.111542	10.353886	-0.012279	0.004090	0.006496	-1.164307	0.965332	-1.993896	-0.587995	1.335578	-112.342036
24442		-0.224469	-0.156356	10.322745	-0.007480	0.009173	0.004629	-1.170410	0.963623	-1.998291	-0.587184	1.336607	-112.343047
24443		-0.254204	-0.108632	10.302902	-0.008868	0.009760	0.007691	-1.162354	0.959229	-1.996094	-0.587070	1.338008	-112.342184
24444		-0.229354	-0.148726	10.289554	-0.007022	0.007608	0.004392	-1.171143	0.963379	-2.010010	-0.585915	1.338126	-112.343157
24445		-0.255821	-0.110214	10.302845	-0.008419	0.006139	0.008630	-1.167480	0.968018	-1.990723	-0.585531	1.337458	-112.341735
24446		-0.253525	-0.120287	10.335943	-0.007488	0.007118	0.005805	-1.170654	0.965820	-1.999756	-0.584685	1.337280	-112.341830
24447		-0.241134	-0.107367	10.320599	-0.009394	0.006469	0.006584	-1.163330	0.962158	-2.008057	-0.584886	1.336789	-112.341582
24448		-0.261233	-0.136945	10.278293	-0.008920	0.009015	0.003996	-1.168457	0.965088	-2.000977	-0.584816	1.337779	-112.342651
24449		-0.245945	-0.133450	10.296069	-0.010834	0.006310	0.005950	-1.167969	0.960693	-2.009277	-0.585851	1.337193	-112.342766
24450		-0.217562	-0.116105	10.298538	-0.007480	0.009176	0.004629	-1.162598	0.969238	-2.005371	-0.584914	1.338268	-112.343396
24451		-0.244599	-0.144447	10.329128	-0.007955	0.006630	0.007216	-1.168945	0.969238	-1.995117	-0.584283	1.337873	-112.342787
24452		-0.248023	-0.102534	10.287338	-0.007955	0.006630	0.007216	-1.164063	0.971680	-2.007568	-0.583766	1.337495	-112.342238
24453		-0.248989	-0.136665	10.295953	-0.006050	0.007280	0.006437	-1.165039	0.965088	-2.008545	-0.582054	1.337468	-112.342079
24454		-0.246488	-0.113386	10.320408	-0.010835	0.006312	0.005949	-1.163818	0.968506	-1.998535	-0.583110	1.337019	-112.342061
24455		-0.231193	-0.109858	10.338197	-0.007947	0.008688	0.006040	-1.160400	0.957520	-1.999023	-0.582490	1.337796	-112.342138
24456		-0.235200	-0.134793	10.313683	-0.007956	0.006631	0.007215	-1.161133	0.963623	-1.999756	-0.581858	1.337477	-112.341605
24457		-0.249102	-0.149529	10.328949	-0.010827	0.008370	0.004773	-1.166016	0.967529	-1.999756	-0.582905	1.338065	-112.342407
24458		-0.249499	-0.117075	10.320294	-0.008433	0.004085	0.009801	-1.166748	0.966309	-2.005859	-0.582557	1.336281	-112.340358
24459		-0.234021	-0.113533	10.338094	-0.009903	0.007294	0.003123	-1.168945	0.970459	-2.003418	-0.583096	1.336243	-112.342099
24460		-0.260754	-0.108429	10.360029	-0.005078	0.006950	0.008482	-1.165771	0.967773	-2.005371	-0.580854	1.336062	-112.340648
24461		-0.254658	-0.110273	10.287096	-0.011285	0.009939	0.005009	-1.168457	0.971680	-2.004883	-0.582161	1.337550	-112.341323
24462		-0.226601	-0.126485	10.298221	-0.008931	0.006964	0.005168	-1.166992	0.968750	-1.997803	-0.582195	1.337379	-112.341799
24463		-0.266410	-0.135284	10.335434	-0.008425	0.006143	0.008626	-1.160645	0.971924	-1.999023	-0.581814	1.336713	-112.340380
24464		-0.227704	-0.094731	10.289563	-0.007491	0.007124	0.005802	-1.165283	0.967285	-1.998779	-0.581092	1.336625	-112.340739
24465		-0.244605	-0.100021	10.271702	-0.008921	0.009023	0.003993	-1.165527	0.970215	-1.999023	-0.581058	1.337582	-112.341991
24466		-0.242685	-0.143620	10.313391	-0.007502	0.005067	0.006976	-1.160645	0.964111	-1.998047	-0.580287	1.336295	-112.341593
24467		-0.256206	-0.124705	10.320041	-0.007025	0.007615	0.004390	-1.166016	0.969727	-2.002686	-0.579161	1.336448	-112.342609
24468		-0.230901	-0.131371	10.298064	-0.008894	0.005654	0.010036	-1.167725	0.972656	-2.000000	-0.579095	1.335576	-112.340443
24469		-0.241309	-0.088598	10.329230	-0.010361	0.008866	0.003359	-1.176270	0.969482	-1.995361	-0.579895	1.336440	-112.342057
24470		-0.248604	-0.137746	10.280161	-0.008417	0.008202	0.007450	-1.169922	0.961670	-1.998779	-0.579704	1.336800	-112.341328
24471		-0.246172	-0.114476	10.304653	-0.007960	0.006635	0.007212	-1.161133	0.961670	-2.001221	-0.579076	1.336408	-112.340721
24472		-0.230975	-0.111014	10.322467	-0.011286	0.009945	0.005007	-1.158691	0.961670	-2.007324	-0.580340	1.337917	-112.341353
24473		-0.261038	-0.130295	10.319850	-0.009401	0.006478	0.006577	-1.167480	0.962646	-2.002686	-0.580546	1.337431	-112.341110
24474		-0.235733	-0.137086	10.297881	-0.008933	0.006969	0.005166	-1.166992	0.965576	-2.005615	-0.580421	1.337346	-112.341576
24475		-0.262342	-0.098790	10.311211	-0.010819	0.010437	0.003595	-1.169434	0.962158	-1.995605	-0.581480	1.339111	-112.343064
24476		-0.234320	-0.114967	10.322348	-0.007962	0.006636	0.007211	-1.162842	0.969238	-2.002197	-0.580853	1.338686	-112.342381
24477		-0.264323	-0.134067	10.319718	-0.009391	0.008537	0.005403	-1.165039	0.974121	-2.008057	-0.581069	1.339374	-112.342823
24478		-0.238750	-0.107530	10.289187	-0.011310	0.005832	0.007352	-1.161865	0.967285	-2.003662	-0.582478	1.338630	-112.342128
24479		-0.236528	-0.117931	10.322265	-0.008934	0.006971	0.005165	-1.171387	0.959717	-1.998047	-0.582436	1.338419	-112.342696
24480		-0.253312	-0.123184	10.304380	-0.007495	0.007128	0.005800	-1.177246	0.962891	-1.996094	-0.581548	1.338303	-112.342850
24481		-0.238077	-0.119624	10.322210	-0.009392	0.008539	0.005402	-1.162842	0.963135	-2.001465	-0.581765	1.338991	-112.343292
24482		-0.239063	-0.120454	10.322177	-0.006970	0.010421	0.006911	-1.167480	0.967285	-2.003418	-0.580575	1.340672	-112.342808
24483		-0.237192	-0.130519	10.355248	-0.006513	0.008854	0.006673	-1.175049	0.965820	-1.996582	-0.579125	1.341548	-112.342524
24484		-0.243681	-0.112505	10.289018	-0.008478	0.005405	0.004925	-1.173584	0.970459	-2.003418	-0.578891	1.340332	-112.343138
24485		-0.225410	-0.118374	10.339961	-0.008935	0.006973	0.005163	-1.166260	0.968018	-2.000488	-0.578849	1.340121	-112.343707
24486		-0.245111	-0.114266	10.288965	-0.008422	0.008207	0.007447	-1.169434	0.957520	-2.004639	-0.578586	1.340579	-112.342905
24487		-0.245883	-0.115091	10.288937	-0.007965	0.006639	0.007209	-1.171631	0.963867	-2.000244	-0.577961	1.340189	-112.342300
24488		-0.256657	-0.105715	10.328699	-0.009393	0.008542	0.005401	-1.168701	0.964355	-2.004150	-0.578098	1.340821	-112.342576
24489		-0.244782	-0.126349	10.321973	-0.009850	0.010110	0.005639	-1.166016	0.965088	-2.000732	-0.578575	1.342411	-112.342891
24490		-0.248474	-0.117943	10.288843	-0.009875	0.005993	0.007983	-1.164551	0.956787	-2.001953	-0.579039	1.341663	-112.341770
24491		-0.233144	-0.114406	10.306692	-0.007028	0.007623	0.004388	-1.161133	0.965332	-1.999756	-0.577915	1.341821	-112.342788
24492		-0.250084	-0.119600	10.288784	-0.008881	0.009777	0.007684	-1.171631	0.969971	-2.001465	-0.577753	1.343315	-112.341946
24493		-0.248159	-0.130038	10.321846	-0.011303	0.007897	0.006174	-1.168945	0.961426	-2.001953	-0.579055	1.343640	-112.341942
24494		-0.222884	-0.136869	10.299906	-0.007968	0.006641	0.007208	-1.162842	0.970703	-2.007324	-0.578467	1.343186	-112.341244
24495		-0.246435	-0.107837	10.346367	-0.008937	0.006977	0.005161	-1.166748	0.960693	-2.003906	-0.578427	1.342978	-112.341815
24496		-0.221461	-0.148083	10.332945	-0.009407	0.006486	0.006571	-1.162598	0.968994	-1.995361	-0.578634	1.342595	-112.341503
24497		-0.282791	-0.109072	10.277447	-0.009864	0.008055	0.006809	-1.168701	0.966064	-2.001953	-0.579102	1.343014	-112.341136
24498		-0.248796	-0.110635	10.346281	-0.007486	0.009193	0.004625	-1.166504	0.958740	-2.001709	-0.578342	1.344068	-112.342082
24499		-0.239707	-0.121717	10.306458	-0.009395	0.008547	0.005399	-1.163818	0.961914	-2.000977	-0.578561	1.344761	-112.342526
24500		-0.240594	-0.122672	10.306426	-0.009395	0.008547	0.005398	-1.165039	0.965088	-2.000732	-0.578708	1.345491	-112.342942
24501		-0.238649	-0.133017	10.339486	-0.008427	0.008212	0.007445	-1.168213	0.966064	-1.995361	-0.578344	1.346004	-112.342212
24502		-0.242394	-0.124524	10.306361	-0.010323	0.009625	0.007046	-1.152100	0.969727	-2.005859	-0.579145	1.347289	-112.341755
24503		-0.227307	-0.121241	10.324223	-0.010835	0.008393	0.004761	-1.156982	0.966553	-1.992676	-0.580197	1.347890	-112.342564
24504		-0.256938	-0.106972	10.312999	-0.009410	0.006489	0.006568	-1.171143	0.967285	-2.001221	-0.580520	1.347641	-112.342539
24505		-0.244684	-0.127507	10.306271	-0.007985	0.004584	0.008376	-1.168701	0.969971	-1.997314	-0.579889	1.346081	-112.341254
24506		-0.242279	-0.104251	10.330850	-0.006975	0.010428	0.006910	-1.166748	0.962646	-1.993408	-0.578823	1.347768	-112.340819
24507		-0.259658	-0.143048	10.321391	-0.012275	0.008241	0.004122	-1.167480	0.963379	-1.997314	-0.580709	1.348278	-112.341992
24508		-0.217873	-0.112036	10.308903	-0.006547	0.004740	0.009013	-1.168457	0.966064	-1.999268	-0.579289	1.346731	-112.340403
24509		-0.244629	-0.106919	10.330767	-0.007958	0.008706	0.006034	-1.168457	0.965088	-1.996582	-0.578675	1.347518	-112.340483
24510		-0.232592	-0.127460	10.324031	-0.009411	0.006491	0.006567	-1.163086	0.964844	-1.996094	-0.578958	1.346965	-112.340252
24511		-0.246179	-0.108780	10.330711	-0.009868	0.008061	0.006806	-1.168457	0.975342	-1.999268	-0.579429	1.347387	-112.339887
24512		-0.220986	-0.115607	10.308797	-0.009398	0.008553	0.005396	-1.161133	0.965820	-1.997803	-0.579815	1.348062	-112.340398
24513		-0.266914	-0.139115	10.288116	-0.010866	0.004278	0.007099	-1.169922	0.957764	-1.999512	-0.580853	1.346319	-112.339843
24514		-0.222259	-0.117496	10.308748	-0.006063	0.007293	0.006432	-1.164307	0.966309	-2.004639	-0.579129	1.346295	-112.339706
24515		-0.249540	-0.146057	10.339052	-0.012276	0.008246	0.004120	-1.169678	0.969482	-2.006348	-0.581016	1.346808	-112.340881
24516		-0.234056	-0.109337	10.348482	-0.008887	0.009785	0.007681	-1.164307	0.964844	-2.003418	-0.580955	1.348272	-112.339935
24517		-0.266875	-0.118790	10.312618	-0.007046	0.005570	0.005555	-1.165771	0.966797	-2.001709	-0.579825	1.347261	-112.340272
24518		-0.228229	-0.111555	10.275558	-0.007503	0.007140	0.005794	-1.170654	0.974365	-2.010986	-0.578982	1.347201	-112.340460
24519		-0.268248	-0.120381	10.312564	-0.009414	0.006494	0.006565	-1.157715	0.963867	-2.004395	-0.579196	1.346725	-112.340224
24520		-0.242882	-0.127156	10.290662	-0.008943	0.006987	0.005156	-1.173096	0.963867	-2.001953	-0.579205	1.346653	-112.340718
24521		-0.224969	-0.133107	10.341636	-0.006049	0.009355	0.005262	-1.165283	0.969238	-1.993164	-0.577509	1.347809	-112.341245
24522		-0.257381	-0.109162	10.297320	-0.011821	0.006680	0.003879	-1.166992	0.961670	-1.995850	-0.579233	1.347328	-112.342557
24523		-0.245156	-0.129752	10.290576	-0.006552	0.004741	0.009010	-1.162598	0.957275	-2.000732	-0.577773	1.345861	-112.340909
24524		-0.255921	-0.120408	10.330345	-0.009400	0.008558	0.005394	-1.166748	0.965332	-2.001953	-0.577935	1.346567	-112.341394
24525		-0.204639	-0.133073	10.286582	-0.009872	0.008066	0.006803	-1.161377	0.972412	-1.993652	-0.578408	1.346993	-112.341031
24526		-0.257082	-0.088908	10.321862	-0.009888	0.006005	0.007971	-1.170654	0.968262	-2.008301	-0.579015	1.346260	-112.340054
24527		-0.232207	-0.129210	10.308389	-0.009400	0.008559	0.005394	-1.160156	0.956055	-2.001465	-0.579237	1.346959	-112.340501
24528		-0.233080	-0.130114	10.308358	-0.008434	0.008220	0.007441	-1.169434	0.968262	-1.997559	-0.578808	1.347549	-112.339710
24529		-0.260041	-0.125102	10.330187	-0.007962	0.008713	0.006032	-1.162354	0.960693	-1.992676	-0.578197	1.348340	-112.339792
24530		-0.234615	-0.131922	10.308300	-0.011344	0.003792	0.008500	-1.168701	0.957275	-2.001221	-0.579567	1.346271	-112.338508
24531		-0.234740	-0.099685	10.299867	-0.013224	0.007271	0.006932	-1.173340	0.960449	-1.991211	-0.581959	1.346242	-112.338066
24532		-0.236037	-0.134172	10.308238	-0.006523	0.008866	0.006671	-1.170654	0.968750	-1.990723	-0.580464	1.346981	-112.337781
24533		-0.247156	-0.125078	10.348000	-0.013665	0.010904	0.006002	-1.170410	0.968018	-2.001465	-0.583121	1.349028	-112.337893
24534		-0.224727	-0.122450	10.293043	-0.007506	0.007145	0.005792	-1.166992	0.968262	-1.991455	-0.582397	1.348787	-112.338115
24535		-0.222757	-0.132760	10.326086	-0.007507	0.007145	0.005792	-1.169434	0.965088	-1.997314	-0.581529	1.348679	-112.338325
24536		-0.265636	-0.132001	10.329958	-0.008436	0.008223	0.007439	-1.157471	0.962158	-1.995117	-0.581294	1.349096	-112.337653
24537		-0.239811	-0.105352	10.299694	-0.011331	0.005857	0.007329	-1.161133	0.965332	-2.002441	-0.582596	1.348259	-112.336976
24538		-0.240674	-0.106128	10.299665	-0.004103	0.010742	0.008189	-1.168213	0.968750	-2.000977	-0.579765	1.350354	-112.335915
24539		-0.244805	-0.130615	10.274951	-0.007034	0.007639	0.004383	-1.167969	0.963623	-2.001465	-0.578644	1.350520	-112.336936
24540		-0.227127	-0.136797	10.325938	-0.010315	0.011705	0.005871	-1.162842	0.969482	-2.005371	-0.579434	1.353003	-112.337094
24541		-0.256839	-0.122418	10.314679	-0.009894	0.006010	0.007966	-1.163086	0.970947	-1.999023	-0.579903	1.352257	-112.336052
24542		-0.247410	-0.133392	10.274853	-0.007508	0.007147	0.005790	-1.173340	0.968506	-1.996338	-0.579154	1.352238	-112.336265
24543		-0.232164	-0.129970	10.292785	-0.008947	0.006996	0.005151	-1.169678	0.971924	-1.994873	-0.579120	1.352041	-112.336842
24544		-0.242502	-0.087244	10.324192	-0.007982	0.006655	0.007198	-1.161377	0.964600	-2.002441	-0.578683	1.351507	-112.336247
24545		-0.246924	-0.145340	10.307832	-0.005596	0.007792	0.005022	-1.164551	0.972412	-2.000000	-0.576730	1.351766	-112.336902
24546		-0.260430	-0.126606	10.314539	-0.012773	0.005709	0.006685	-1.171143	0.964844	-2.001465	-0.578957	1.350919	-112.336605
24547		-0.261077	-0.127658	10.314510	-0.007983	0.006656	0.007197	-1.166504	0.967529	-1.997559	-0.578342	1.350538	-112.336008
24548		-0.216567	-0.106106	10.335324	-0.007035	0.007642	0.004382	-1.159180	0.966064	-2.007568	-0.577283	1.350654	-112.337011
24549		-0.249309	-0.115467	10.299360	-0.010352	0.007583	0.008204	-1.171387	0.970215	-2.005615	-0.578012	1.350811	-112.335841
24550		-0.247492	-0.125988	10.332388	-0.007966	0.008720	0.006030	-1.161865	0.970703	-2.000488	-0.577436	1.351700	-112.335857
24551		-0.248205	-0.126848	10.332360	-0.008967	0.004936	0.006316	-1.171387	0.965820	-2.008545	-0.577397	1.350329	-112.335754
24552		-0.238757	-0.137796	10.292533	-0.008440	0.008228	0.007437	-1.164551	0.969238	-2.003906	-0.577096	1.350893	-112.334974
24553		-0.236473	-0.114856	10.317218	-0.010369	0.008913	0.003341	-1.165771	0.963379	-1.995605	-0.577901	1.351784	-112.336599
24554		-0.237363	-0.115813	10.317187	-0.008441	0.008229	0.007436	-1.166260	0.965576	-1.994873	-0.577606	1.352324	-112.335887
24555		-0.280188	-0.114760	10.321005	-0.002739	0.006032	0.007470	-1.166260	0.964844	-2.003418	-0.573983	1.351587	-112.335129
24556		-0.252253	-0.130787	10.332213	-0.008897	0.009800	0.007676	-1.167725	0.970459	-1.998047	-0.573933	1.353001	-112.334288
24557		-0.226477	-0.104101	10.302033	-0.010389	0.006851	0.004507	-1.164795	0.966553	-2.001709	-0.574733	1.352717	-112.335233
24558		-0.225159	-0.148307	10.343384	-0.010845	0.008423	0.004747	-1.169189	0.970459	-1.995361	-0.575893	1.353332	-112.336047
24559		-0.244088	-0.110451	10.283990	-0.009881	0.008080	0.006794	-1.155762	0.961914	-2.001465	-0.576372	1.353765	-112.335689
24560		-0.271607	-0.139100	10.314090	-0.009406	0.008574	0.005387	-1.163574	0.972412	-2.000000	-0.576667	1.354525	-112.336185
24561		-0.245766	-0.112285	10.283930	-0.007512	0.007153	0.005788	-1.167725	0.972656	-2.003662	-0.575802	1.354421	-112.336398
24562		-0.220264	-0.119024	10.262094	-0.010409	0.004790	0.005672	-1.178223	0.963867	-2.001709	-0.576754	1.352991	-112.336634
24563		-0.244357	-0.123757	10.316931	-0.007988	0.006660	0.007194	-1.171631	0.964355	-2.004639	-0.576142	1.352613	-112.336038
24564		-0.232427	-0.144280	10.310150	-0.008899	0.009803	0.007675	-1.172852	0.971191	-2.002930	-0.576036	1.353912	-112.335097
24565		-0.232777	-0.111654	10.301814	-0.008476	0.007498	0.003739	-1.170410	0.967041	-1.998291	-0.575750	1.353994	-112.336486
24566		-0.218109	-0.141804	10.328085	-0.007989	0.006661	0.007193	-1.164307	0.962891	-2.009521	-0.575243	1.353526	-112.335840
24567		-0.244454	-0.103370	10.341562	-0.009883	0.008083	0.006793	-1.168945	0.964844	-2.005371	-0.575723	1.353961	-112.335482
24568		-0.248416	-0.128115	10.316781	-0.007514	0.007155	0.005787	-1.160889	0.970459	-2.007568	-0.574806	1.353932	-112.335635
24569		-0.249210	-0.128996	10.316751	-0.009884	0.008084	0.006792	-1.164795	0.963135	-1.997070	-0.575286	1.354368	-112.335277
24570		-0.236665	-0.115962	10.301678	-0.006075	0.007305	0.006428	-1.172363	0.969238	-2.000000	-0.573637	1.354442	-112.335131
24571		-0.234889	-0.126405	10.334696	-0.009408	0.008578	0.005385	-1.170654	0.970459	-1.999268	-0.573864	1.355153	-112.335582
24572		-0.251536	-0.131393	10.316664	-0.006572	0.004748	0.008999	-1.167725	0.972900	-2.003418	-0.572544	1.353590	-112.333900
24573		-0.238904	-0.118335	10.301599	-0.008933	0.009073	0.003979	-1.168457	0.971680	-1.999756	-0.572518	1.354576	-112.335161
24574		-0.253069	-0.133111	10.316605	-0.009429	0.006515	0.006550	-1.168945	0.965088	-1.996826	-0.572894	1.354096	-112.334890
24575		-0.237836	-0.129797	10.334586	-0.007515	0.007157	0.005786	-1.168945	0.962158	-2.002686	-0.572030	1.353995	-112.335104
24576		-0.251306	-0.111008	10.341319	-0.009906	0.006022	0.007956	-1.161133	0.970459	-1.996338	-0.572519	1.353207	-112.334068
24577		-0.267972	-0.115960	10.323280	-0.005600	0.007800	0.005022	-1.163086	0.966797	-1.997070	-0.570569	1.353470	-112.334724
24578		-0.213197	-0.104444	10.304454	-0.007536	0.005093	0.006950	-1.165039	0.966064	-2.003906	-0.569829	1.352237	-112.334311
24579		-0.255928	-0.103665	10.308202	-0.009916	0.007355	0.003095	-1.167725	0.963379	-1.993896	-0.570377	1.352233	-112.336069
24580		-0.243976	-0.124324	10.301410	-0.009410	0.008582	0.005384	-1.165039	0.972656	-2.009277	-0.570644	1.352937	-112.336541
24581		-0.244883	-0.125130	10.301378	-0.006533	0.008879	0.006668	-1.151611	0.965576	-1.998779	-0.569206	1.353827	-112.336259
24582		-0.242555	-0.102009	10.326134	-0.007516	0.007159	0.005785	-1.163330	0.959717	-2.004883	-0.568417	1.353913	-112.336483
24583		-0.233703	-0.146325	10.294558	-0.008478	0.007505	0.003736	-1.170654	0.958984	-2.008057	-0.568133	1.353999	-112.337874
24584		-0.257502	-0.117606	10.341093	-0.009887	0.008090	0.006789	-1.170654	0.968262	-1.998047	-0.568498	1.354490	-112.337499
24585		-0.232033	-0.124391	10.319288	-0.008977	0.004947	0.006306	-1.162109	0.965820	-1.999023	-0.568465	1.353126	-112.337402
24586		-0.258760	-0.119522	10.341040	-0.009909	0.006025	0.007953	-1.171631	0.960938	-2.000244	-0.569033	1.352370	-112.336380
24587		-0.217437	-0.122188	10.337262	-0.009411	0.008585	0.005383	-1.164551	0.968018	-2.000488	-0.569262	1.353085	-112.336833
24588		-0.237358	-0.151133	10.294405	-0.009917	0.007360	0.003093	-1.173340	0.968262	-1.995605	-0.569839	1.353056	-112.338592
24589		-0.234904	-0.128253	10.319175	-0.008472	0.006174	0.008595	-1.161621	0.961670	-2.001709	-0.569485	1.352408	-112.337191
24590		-0.245795	-0.119199	10.358953	-0.009434	0.006520	0.006546	-1.158691	0.968994	-2.000977	-0.569762	1.351913	-112.336980
24591		-0.236307	-0.129996	10.319122	-0.007041	0.007656	0.004378	-1.165771	0.970947	-2.003906	-0.568646	1.352089	-112.338004
24592		-0.249929	-0.111083	10.325864	-0.007974	0.008734	0.006025	-1.173096	0.971680	-1.992920	-0.568148	1.352991	-112.338076
24593		-0.240491	-0.121917	10.286031	-0.009434	0.006521	0.006545	-1.160400	0.961914	-2.002686	-0.568374	1.352530	-112.337852
24594		-0.238661	-0.132577	10.319035	-0.008957	0.007016	0.005140	-1.165527	0.967285	-2.007324	-0.568435	1.352314	-112.338449
24595		-0.236479	-0.109760	10.343814	-0.010323	0.011733	0.005864	-1.165771	0.967285	-1.998535	-0.569180	1.354835	-112.338644
24596		-0.230336	-0.144579	10.279159	-0.010874	0.006376	0.005901	-1.176025	0.967285	-1.993408	-0.570293	1.354327	-112.338768
24597		-0.227812	-0.121620	10.303952	-0.005626	0.005738	0.006185	-1.163086	0.965088	-1.998047	-0.568342	1.353415	-112.338745
24598		-0.241306	-0.102653	10.310704	-0.008453	0.008242	0.007429	-1.162842	0.970947	-2.008545	-0.568089	1.353847	-112.338042
24599		-0.226899	-0.132979	10.336926	-0.009413	0.008590	0.005380	-1.163574	0.967529	-2.000977	-0.568319	1.354564	-112.338496
24600		-0.272315	-0.122459	10.307576	-0.008958	0.007018	0.005139	-1.173584	0.967773	-2.005859	-0.568363	1.354481	-112.339049
24601		-0.230956	-0.125082	10.303841	-0.008959	0.007018	0.005138	-1.168945	0.967285	-1.995850	-0.568335	1.354297	-112.339633
24602		-0.245094	-0.139850	10.318788	-0.008959	0.007019	0.005138	-1.168213	0.977051	-2.006348	-0.568384	1.354036	-112.340185
24603		-0.245858	-0.140664	10.318759	-0.007043	0.007660	0.004377	-1.162109	0.965576	-2.002197	-0.567269	1.354215	-112.341209
24604		-0.261821	-0.112036	10.292487	-0.008956	0.005683	0.009996	-1.160889	0.971191	-2.001953	-0.567285	1.353357	-112.338953
24605		-0.260171	-0.122723	10.325479	-0.009391	0.010659	0.004217	-1.162109	0.963135	-1.997070	-0.567518	1.355253	-112.340086
24606		-0.247729	-0.109845	10.310478	-0.009893	0.008099	0.006784	-1.171387	0.965088	-2.001953	-0.568082	1.355774	-112.339759
24607		-0.246015	-0.120645	10.343470	-0.010398	0.006875	0.004493	-1.168701	0.971191	-2.004150	-0.568888	1.355504	-112.340712
24608		-0.262060	-0.092081	10.317204	-0.007017	0.008391	0.008072	-1.168945	0.961914	-2.009033	-0.567774	1.356088	-112.339580
24609		-0.247585	-0.122438	10.343412	-0.010877	0.006381	0.005897	-1.161865	0.968506	-1.997559	-0.568836	1.355543	-112.339726
24610		-0.251044	-0.113645	10.310357	-0.008409	0.012380	0.005103	-1.166748	0.965088	-1.994141	-0.568508	1.358477	-112.340357
24611		-0.239227	-0.134200	10.303538	-0.008960	0.005685	0.009993	-1.155762	0.965576	-2.002441	-0.568415	1.357556	-112.338151
24612		-0.239924	-0.135007	10.303511	-0.007044	0.007663	0.004376	-1.170410	0.967285	-1.998291	-0.567357	1.357801	-112.339220
24613		-0.250245	-0.092432	10.335128	-0.009919	0.006034	0.007944	-1.169434	0.969727	-2.001221	-0.567842	1.357069	-112.338190
24614		-0.235783	-0.122883	10.361329	-0.009416	0.008597	0.005378	-1.162354	0.968994	-2.008057	-0.568172	1.357723	-112.338623
24615		-0.255575	-0.151546	10.318368	-0.007068	0.005596	0.005538	-1.160889	0.966797	-2.000732	-0.567056	1.356726	-112.338970
24616		-0.223756	-0.110603	10.346335	-0.007524	0.007169	0.005780	-1.164795	0.961914	-1.999023	-0.566247	1.356750	-112.339174
24617		-0.237902	-0.125204	10.361253	-0.007044	0.006326	0.009233	-1.166260	0.963379	-1.997559	-0.565067	1.356192	-112.337408
24618		-0.243503	-0.106565	10.295195	-0.011838	0.006735	0.003845	-1.166260	0.970215	-1.998779	-0.566720	1.355830	-112.338776
24619		-0.257593	-0.121317	10.310108	-0.005631	0.005742	0.006182	-1.161865	0.964844	-2.004395	-0.564772	1.354921	-112.338755
24620		-0.212987	-0.100170	10.331305	-0.010880	0.006386	0.005893	-1.170166	0.960693	-2.000244	-0.565903	1.354428	-112.338897
24621		-0.230409	-0.138930	10.321333	-0.011790	0.009533	0.006378	-1.164551	0.972412	-1.999268	-0.567481	1.355691	-112.338785
24622		-0.273371	-0.138152	10.324943	-0.007525	0.007171	0.005779	-1.169434	0.964844	-1.997314	-0.566689	1.355575	-112.339002
24623		-0.260661	-0.125121	10.309985	-0.008963	0.007027	0.005134	-1.165527	0.970459	-1.998779	-0.566665	1.355396	-112.339589
24624		-0.248620	-0.145735	10.303159	-0.009443	0.006533	0.006537	-1.168701	0.967041	-2.007080	-0.566994	1.354900	-112.339370
24625		-0.235166	-0.099251	10.280080	-0.008963	0.007028	0.005134	-1.166748	0.965576	-1.997803	-0.566969	1.354721	-112.339957
24626		-0.246881	-0.123752	10.327987	-0.007048	0.006327	0.009231	-1.167969	0.966797	-2.006104	-0.565830	1.354162	-112.338177
24627		-0.247612	-0.124463	10.327961	-0.007045	0.007668	0.004375	-1.164795	0.968750	-1.998779	-0.564717	1.354346	-112.339202
24628		-0.222302	-0.131235	10.306211	-0.011792	0.009537	0.006376	-1.169922	0.972412	-2.004395	-0.566361	1.355633	-112.339071
24629		-0.235908	-0.112610	10.312980	-0.008964	0.007029	0.005133	-1.167480	0.961182	-2.000000	-0.566337	1.355455	-112.339658
24630		-0.236638	-0.113522	10.312953	-0.008964	0.007030	0.005133	-1.167480	0.962158	-1.999756	-0.566363	1.355256	-112.340227
24631		-0.211225	-0.120217	10.291212	-0.008462	0.008252	0.007424	-1.166260	0.973389	-1.999756	-0.566020	1.355792	-112.339508
24632		-0.267548	-0.133286	10.309706	-0.010884	0.006392	0.005890	-1.168701	0.963867	-1.998291	-0.567172	1.355240	-112.339651
24633		-0.252283	-0.130247	10.327776	-0.008510	0.005457	0.004889	-1.165039	0.967773	-2.000000	-0.566890	1.354160	-112.340369
24634		-0.239740	-0.117235	10.312840	-0.008411	0.012391	0.005103	-1.166260	0.970459	-2.000000	-0.566607	1.357036	-112.341015
24635		-0.243822	-0.141649	10.287902	-0.005635	0.005745	0.006181	-1.167725	0.957520	-2.003174	-0.564661	1.356127	-112.340995
24636		-0.249246	-0.118812	10.385597	-0.010885	0.006393	0.005888	-1.155518	0.964844	-1.996582	-0.565736	1.355592	-112.341159
24637		-0.241996	-0.119741	10.312758	-0.008009	0.006680	0.007180	-1.165771	0.966797	-2.001221	-0.565137	1.355226	-112.340571
24638		-0.226808	-0.116613	10.330838	-0.009447	0.006538	0.006534	-1.168701	0.973633	-1.996094	-0.565431	1.354858	-112.340382
24639		-0.256113	-0.101825	10.319514	-0.008009	0.006681	0.007180	-1.170166	0.974854	-1.998047	-0.564832	1.354492	-112.339794
24640		-0.229043	-0.151944	10.338865	-0.009421	0.008607	0.005374	-1.152100	0.968018	-2.001221	-0.565284	1.355138	-112.340196
24641		-0.257777	-0.103689	10.319454	-0.009902	0.008113	0.006776	-1.169434	0.963867	-2.000244	-0.565776	1.355590	-112.339847
24642		-0.256194	-0.114372	10.352424	-0.006091	0.007320	0.006423	-1.165283	0.968018	-1.998535	-0.564132	1.355686	-112.339717
24643		-0.230624	-0.121071	10.330702	-0.011388	0.005175	0.003594	-1.166748	0.964600	-2.001953	-0.565518	1.354437	-112.341176
24644		-0.233688	-0.112151	10.297679	-0.007509	0.007904	0.009472	-1.169434	0.969727	-2.003662	-0.564657	1.354790	-112.339286
24645		-0.247983	-0.126837	10.312531	-0.008486	0.007531	0.003727	-1.166992	0.966553	-2.001465	-0.564378	1.354891	-112.340682
24646		-0.245659	-0.104096	10.337433	-0.009904	0.008115	0.006775	-1.164063	0.963379	-1.991699	-0.564939	1.355336	-112.340304
24647		-0.249561	-0.128754	10.312469	-0.009450	0.006541	0.006532	-1.163574	0.964844	-1.999756	-0.565174	1.354886	-112.340087
24648		-0.234490	-0.125651	10.330561	-0.007984	0.008753	0.006019	-1.163330	0.963867	-1.997803	-0.564631	1.355700	-112.340227
24649		-0.219529	-0.122553	10.348653	-0.009423	0.008611	0.005372	-1.171631	0.963379	-2.001953	-0.564867	1.356429	-112.340686
24650		-0.238423	-0.117546	10.297510	-0.008522	0.004119	0.009739	-1.162109	0.961914	-1.998535	-0.564541	1.354587	-112.338642
24651		-0.251963	-0.098962	10.304298	-0.013208	0.011477	0.004564	-1.163330	0.962158	-1.992432	-0.566956	1.356954	-112.339581
24652		-0.252856	-0.099919	10.304267	-0.005639	0.005748	0.006179	-1.173828	0.969482	-2.000244	-0.565034	1.356063	-112.339631
24653		-0.254302	-0.134226	10.312284	-0.008969	0.007039	0.005128	-1.164063	0.963867	-2.000244	-0.565013	1.355890	-112.340222
24654		-0.251965	-0.111452	10.337205	-0.008468	0.008260	0.007421	-1.168457	0.958496	-1.995850	-0.564737	1.356386	-112.339497
24655		-0.226443	-0.118118	10.315499	-0.008515	0.005465	0.004884	-1.153320	0.968994	-2.004639	-0.564459	1.355311	-112.340218
24656		-0.240559	-0.132939	10.330330	-0.009935	0.006048	0.007931	-1.166992	0.963379	-2.002441	-0.564966	1.354680	-112.339230
24657		-0.273040	-0.141847	10.294029	-0.009424	0.008615	0.005371	-1.163818	0.967041	-2.000244	-0.565202	1.355412	-112.339690
24658		-0.226285	-0.130900	10.348405	-0.008970	0.007041	0.005127	-1.162598	0.971191	-1.999268	-0.565211	1.355268	-112.340287
24659		-0.257866	-0.106153	10.304080	-0.008980	0.005695	0.009980	-1.167480	0.966797	-1.994629	-0.565130	1.354352	-112.338089
24660		-0.245728	-0.126724	10.297230	-0.008516	0.005467	0.004883	-1.166016	0.969727	-2.003418	-0.564983	1.353268	-112.338802
24661		-0.217082	-0.109797	10.300498	-0.009425	0.008617	0.005370	-1.168701	0.962402	-2.000244	-0.565220	1.354001	-112.339262
24662		-0.257667	-0.118818	10.336982	-0.008971	0.007042	0.005126	-1.174316	0.970703	-2.001709	-0.565238	1.353830	-112.339847
24663		-0.232129	-0.125556	10.315285	-0.009454	0.006547	0.006528	-1.162842	0.962891	-1.994629	-0.565476	1.353383	-112.339633
24664		-0.261487	-0.110772	10.303941	-0.009425	0.008618	0.005370	-1.167236	0.964111	-2.004883	-0.565795	1.354060	-112.340094
24665		-0.246540	-0.107713	10.322055	-0.007988	0.008759	0.006018	-1.168457	0.961182	-1.997803	-0.565200	1.354878	-112.340184
24666		-0.231627	-0.104728	10.340172	-0.010846	0.009202	0.008416	-1.166992	0.968994	-1.999268	-0.566195	1.355951	-112.338930
24667		-0.237897	-0.119357	10.282180	-0.008017	0.006689	0.007175	-1.172363	0.960449	-2.004150	-0.565600	1.355589	-112.338345
24668		-0.264798	-0.114243	10.303818	-0.005642	0.005751	0.006178	-1.163330	0.961914	-2.001465	-0.563676	1.354644	-112.338332
24669		-0.223438	-0.116948	10.300284	-0.010864	0.008480	0.004721	-1.172363	0.961914	-2.001221	-0.564747	1.355294	-112.339164
24670		-0.264131	-0.125998	10.336734	-0.007989	0.008761	0.006017	-1.168457	0.963867	-1.996094	-0.564126	1.356101	-112.339289
24671		-0.254645	-0.136752	10.296885	-0.012286	0.009064	0.007767	-1.155762	0.968506	-1.999023	-0.565970	1.357103	-112.338379
24672		-0.264987	-0.094504	10.328684	-0.008519	0.005471	0.004880	-1.157227	0.971924	-1.998047	-0.565773	1.356080	-112.339116
24673		-0.213206	-0.106938	10.285351	-0.007989	0.008762	0.006017	-1.166016	0.966064	-2.004883	-0.565179	1.356899	-112.339207
24674		-0.227526	-0.121738	10.300139	-0.009941	0.006055	0.007926	-1.167969	0.963135	-2.000977	-0.565771	1.356274	-112.338160
24675		-0.280767	-0.111004	10.343414	-0.007052	0.007684	0.004371	-1.165283	0.974365	-2.000488	-0.564661	1.356467	-112.339187
24676		-0.242542	-0.137255	10.314897	-0.008020	0.006691	0.007173	-1.166260	0.967529	-1.996338	-0.564165	1.356107	-112.338576
24677		-0.240240	-0.114515	10.339872	-0.008943	0.009120	0.003967	-1.160889	0.963135	-2.002930	-0.564145	1.357120	-112.339844
24678		-0.259255	-0.109324	10.288701	-0.008475	0.008267	0.007417	-1.171143	0.966797	-2.005371	-0.563856	1.357706	-112.339143
24679		-0.271255	-0.134066	10.336448	-0.008520	0.005474	0.004878	-1.166504	0.966797	-1.998535	-0.563581	1.356636	-112.339868
24680		-0.219371	-0.146548	10.293133	-0.008974	0.007049	0.005123	-1.170898	0.963623	-2.004395	-0.563617	1.356442	-112.340446
24681		-0.245445	-0.107980	10.306794	-0.007083	0.005613	0.005527	-1.167480	0.961182	-2.003418	-0.562510	1.355455	-112.340800
24682		-0.259717	-0.122812	10.321564	-0.011351	0.007990	0.006118	-1.165771	0.971924	-2.008057	-0.563801	1.355821	-112.340850
24683		-0.247777	-0.143486	10.314687	-0.008022	0.006693	0.007172	-1.157227	0.975586	-2.003662	-0.563210	1.355462	-112.340267
24684		-0.235121	-0.130398	10.299862	-0.007961	0.010838	0.004860	-1.165527	0.965820	-2.004639	-0.562758	1.357609	-112.340938
24685		-0.232836	-0.107527	10.324858	-0.006131	0.005257	0.007576	-1.167725	0.965332	-2.002197	-0.561078	1.356429	-112.340115
24686		-0.265186	-0.116115	10.288475	-0.009914	0.008131	0.006766	-1.165771	0.967285	-2.000488	-0.561598	1.356917	-112.339768
24687		-0.239664	-0.122963	10.266810	-0.010898	0.006417	0.005872	-1.171875	0.962891	-2.000000	-0.562672	1.356392	-112.339928
24688		-0.248571	-0.124310	10.339562	-0.008976	0.007052	0.005121	-1.161865	0.962402	-1.996826	-0.562695	1.356181	-112.340533
24689		-0.235761	-0.111228	10.324753	-0.007053	0.007688	0.004370	-1.169189	0.958740	-1.997314	-0.561587	1.356376	-112.341562
24690		-0.255418	-0.139539	10.281506	-0.009947	0.006060	0.007921	-1.164063	0.967529	-2.010254	-0.562076	1.355639	-112.340619
24691		-0.226633	-0.122715	10.284888	-0.008995	0.005702	0.009971	-1.175293	0.966553	-1.998535	-0.562004	1.354728	-112.338426
24692		-0.251363	-0.127909	10.339451	-0.009929	0.007412	0.003070	-1.160156	0.969482	-1.995605	-0.562601	1.354742	-112.340172
24693		-0.228030	-0.124534	10.284835	-0.007073	0.006338	0.009220	-1.163330	0.962646	-2.005859	-0.561438	1.354190	-112.338413
24694		-0.226587	-0.135325	10.317769	-0.007993	0.008769	0.006015	-1.167969	0.958740	-1.998535	-0.560899	1.355102	-112.338506
24695		-0.256013	-0.120307	10.306400	-0.007993	0.008770	0.006015	-1.168213	0.968506	-2.002441	-0.560307	1.355926	-112.338598
24696		-0.238806	-0.127270	10.357525	-0.007540	0.007194	0.005770	-1.167969	0.969238	-1.997559	-0.559473	1.355816	-112.338848
24697		-0.241826	-0.118116	10.324536	-0.009917	0.008136	0.006764	-1.162598	0.967285	-1.995361	-0.559973	1.356281	-112.338507
24698		-0.247902	-0.132629	10.266495	-0.009949	0.006063	0.007919	-1.163574	0.960693	-1.995117	-0.560609	1.355543	-112.337482
24699		-0.257047	-0.133936	10.339234	-0.007962	0.010844	0.004859	-1.169678	0.966797	-1.995117	-0.560015	1.357549	-112.338247
24700		-0.233828	-0.130533	10.284630	-0.008999	0.005705	0.009968	-1.163086	0.967285	-2.000000	-0.560007	1.356579	-112.336100
24701		-0.231483	-0.107896	10.309662	-0.008946	0.009131	0.003964	-1.162109	0.963623	-1.997314	-0.559989	1.357599	-112.337369
24702		-0.235503	-0.132323	10.284569	-0.008481	0.008275	0.007413	-1.160156	0.969971	-1.995605	-0.559719	1.358197	-112.336669
24703		-0.246848	-0.123617	10.324353	-0.009919	0.008138	0.006763	-1.165771	0.971436	-2.000732	-0.560220	1.358664	-112.336329
24704		-0.237202	-0.134256	10.284505	-0.009919	0.008139	0.006762	-1.172119	0.966553	-1.995117	-0.560881	1.359167	-112.335944
24705		-0.232677	-0.121823	10.342497	-0.010417	0.006922	0.004467	-1.166748	0.965820	-2.004150	-0.561699	1.358924	-112.336913
24706		-0.262886	-0.140528	10.339000	-0.008482	0.008277	0.007413	-1.174316	0.959717	-1.998291	-0.561433	1.359407	-112.336202
24707		-0.246941	-0.103926	10.349304	-0.008029	0.006700	0.007167	-1.155273	0.965576	-2.007568	-0.560845	1.359052	-112.335621
24708		-0.252890	-0.118068	10.291253	-0.005651	0.005758	0.006173	-1.165039	0.974121	-1.999023	-0.558880	1.358204	-112.335637
24709		-0.209409	-0.130918	10.320788	-0.010374	0.009718	0.007007	-1.158936	0.966553	-2.008301	-0.559639	1.359577	-112.335166
24710		-0.251321	-0.096358	10.316276	-0.009500	0.004491	0.007670	-1.167725	0.974121	-2.007813	-0.559993	1.358070	-112.334226
24711		-0.241396	-0.106855	10.276438	-0.008030	0.006702	0.007167	-1.160645	0.971191	-1.995361	-0.559407	1.357716	-112.333646
24712		-0.240945	-0.151382	10.317221	-0.008483	0.008279	0.007412	-1.170166	0.966309	-2.001709	-0.559241	1.358314	-112.332855
24713		-0.240889	-0.118608	10.309329	-0.007997	0.008776	0.006013	-1.166748	0.966309	-1.996338	-0.558651	1.359142	-112.332948
24714		-0.239711	-0.129611	10.342242	-0.009887	0.010217	0.005607	-1.164795	0.969727	-1.998291	-0.559221	1.360735	-112.333286
24715		-0.241804	-0.086816	10.301411	-0.008031	0.006703	0.007166	-1.165283	0.967529	-2.009766	-0.558635	1.360382	-112.332706
24716		-0.243356	-0.121160	10.309241	-0.006628	0.004765	0.008970	-1.165039	0.965576	-2.004395	-0.557289	1.358984	-112.331043
24717		-0.254572	-0.112450	10.349030	-0.010872	0.008506	0.004709	-1.164795	0.962646	-1.996094	-0.558364	1.359649	-112.331882
24718		-0.247968	-0.146560	10.284083	-0.008982	0.007065	0.005115	-1.163086	0.967041	-1.994629	-0.558370	1.359510	-112.332508
24719		-0.226667	-0.096693	10.352487	-0.009469	0.006568	0.006513	-1.171631	0.970215	-1.995605	-0.558617	1.359075	-112.332302
24720		-0.246260	-0.124879	10.309128	-0.008032	0.006704	0.007165	-1.176025	0.969238	-1.995850	-0.558179	1.358643	-112.331712
24721		-0.262747	-0.129485	10.290869	-0.008033	0.006705	0.007165	-1.166016	0.969727	-2.004150	-0.557593	1.358290	-112.331133
24722		-0.260417	-0.106822	10.315948	-0.008486	0.008282	0.007410	-1.161865	0.965820	-2.013672	-0.557383	1.358751	-112.330384
24723		-0.261282	-0.107880	10.315915	-0.012310	0.008374	0.004056	-1.166504	0.969482	-2.001953	-0.559292	1.359337	-112.331596
24724		-0.233559	-0.124706	10.327246	-0.005655	0.005761	0.006172	-1.159424	0.968262	-2.005859	-0.557372	1.358552	-112.331545
24725		-0.260691	-0.119731	10.348796	-0.010377	0.009725	0.007004	-1.163574	0.963623	-2.003906	-0.558133	1.359929	-112.331075
24726		-0.248053	-0.106873	10.334061	-0.010378	0.009726	0.007003	-1.161133	0.969971	-2.004639	-0.558904	1.361436	-112.330601
24727		-0.239402	-0.151036	10.302028	-0.008976	0.007787	0.008808	-1.173584	0.966797	-2.004395	-0.558837	1.361712	-112.329086
24728		-0.249660	-0.108741	10.334003	-0.008530	0.005492	0.004867	-1.164307	0.962646	-1.999268	-0.558627	1.360667	-112.329782
24729		-0.236597	-0.095840	10.319287	-0.011398	0.005940	0.007257	-1.164063	0.959717	-1.998291	-0.559969	1.359877	-112.329146
24730		-0.222505	-0.126574	10.345315	-0.006109	0.007340	0.006417	-1.166748	0.962891	-1.994629	-0.558270	1.359897	-112.329072
24731		-0.267509	-0.115078	10.315677	-0.007058	0.007703	0.004366	-1.166016	0.969971	-1.992188	-0.557165	1.360101	-112.330102
24732		-0.252420	-0.112272	10.333898	-0.011887	0.005443	0.008654	-1.165283	0.973389	-2.008545	-0.558889	1.358952	-112.328684
24733		-0.242709	-0.122830	10.294049	-0.007964	0.010859	0.004859	-1.170898	0.971436	-2.004883	-0.558297	1.360967	-112.329450
24734		-0.238398	-0.110482	10.352086	-0.010911	0.006440	0.005857	-1.161133	0.971436	-2.005859	-0.559489	1.360484	-112.329529
24735		-0.233880	-0.134411	10.254165	-0.010380	0.009730	0.007002	-1.161621	0.957031	-2.004639	-0.560252	1.361863	-112.329060
24736		-0.226427	-0.098586	10.337350	-0.008037	0.006709	0.007162	-1.164551	0.969482	-1.995361	-0.559645	1.361644	-112.328500
24737		-0.272351	-0.120951	10.315483	-0.010422	0.006939	0.004458	-1.163330	0.966797	-2.004150	-0.560466	1.361410	-112.329474
24738		-0.243912	-0.104240	10.319035	-0.008418	0.012439	0.005105	-1.164795	0.977051	-2.006836	-0.560224	1.364357	-112.330092
24739		-0.260672	-0.108821	10.300742	-0.008038	0.006710	0.007161	-1.161621	0.965576	-1.999023	-0.559642	1.364008	-112.329515
24740		-0.261420	-0.109584	10.300715	-0.007060	0.007706	0.004365	-1.162354	0.969727	-2.005127	-0.558660	1.364282	-112.330482
24741		-0.246399	-0.106678	10.318951	-0.009476	0.006577	0.006508	-1.167480	0.966797	-1.999756	-0.558911	1.363852	-112.330279
24742		-0.218679	-0.123655	10.330297	-0.010424	0.006941	0.004456	-1.167725	0.964355	-1.997803	-0.559805	1.363652	-112.331229
24743		-0.232084	-0.104793	10.337163	-0.006113	0.007343	0.006416	-1.168457	0.974121	-1.996094	-0.558130	1.363661	-112.331083
24744		-0.248684	-0.109244	10.318869	-0.008003	0.008788	0.006009	-1.168457	0.968750	-1.997559	-0.557680	1.364416	-112.331155
24745		-0.236955	-0.129979	10.311942	-0.012309	0.009103	0.007744	-1.161621	0.967773	-1.993896	-0.559537	1.365441	-112.330258
24746		-0.239713	-0.120672	10.278992	-0.005208	0.004187	0.005923	-1.166748	0.958740	-2.003906	-0.557477	1.363601	-112.330373
24747		-0.251076	-0.112146	10.318780	-0.014200	0.010549	0.007336	-1.162842	0.967041	-2.005127	-0.560424	1.365452	-112.329717
24748		-0.236106	-0.109458	10.337024	-0.006155	0.004552	0.003871	-1.162598	0.960205	-2.002441	-0.558764	1.363904	-112.331051
24749		-0.252416	-0.113999	10.318727	-0.009968	0.006082	0.007903	-1.166504	0.963379	-1.994629	-0.559278	1.363199	-112.330045
24750		-0.226754	-0.120666	10.297159	-0.007551	0.007211	0.005762	-1.164795	0.961426	-2.007080	-0.558426	1.363129	-112.330340
24751		-0.265556	-0.139982	10.366230	-0.011368	0.008026	0.006098	-1.159424	0.960938	-1.999268	-0.559767	1.363527	-112.330380
24752		-0.228337	-0.122587	10.297101	-0.007551	0.007212	0.005762	-1.158447	0.961914	-1.999023	-0.558867	1.363547	-112.330668
24753		-0.225983	-0.100009	10.322257	-0.008989	0.007079	0.005108	-1.174805	0.968994	-2.002441	-0.558858	1.363398	-112.331270
24754		-0.243622	-0.138342	10.311678	-0.010388	0.009024	0.003303	-1.161133	0.970947	-2.001465	-0.559716	1.364337	-112.332929
24755		-0.257044	-0.119621	10.318549	-0.009024	0.005718	0.009952	-1.162109	0.969238	-1.998535	-0.559660	1.363435	-112.330747
24756		-0.226238	-0.113175	10.355093	-0.009936	0.007446	0.003056	-1.167236	0.965820	-1.996094	-0.560348	1.363549	-112.332483
24757		-0.244842	-0.107515	10.303863	-0.007059	0.008426	0.008059	-1.164307	0.966309	-1.996094	-0.559193	1.364188	-112.331401
24758		-0.246697	-0.141911	10.311556	-0.008044	0.006715	0.007158	-1.165527	0.964844	-2.002686	-0.558702	1.363794	-112.330844
24759		-0.230662	-0.105488	10.322099	-0.009933	0.008162	0.006750	-1.165527	0.962891	-1.997559	-0.559212	1.364274	-112.330511
24760		-0.243153	-0.130619	10.369603	-0.008990	0.007082	0.005106	-1.161621	0.963867	-1.997559	-0.559220	1.364124	-112.331148
24761		-0.235316	-0.130835	10.296843	-0.010425	0.007664	0.008147	-1.167725	0.963135	-1.995605	-0.559992	1.364327	-112.330011
24762		-0.204604	-0.124444	10.333403	-0.008990	0.007083	0.005106	-1.174805	0.970215	-1.995361	-0.560023	1.364156	-112.330661
24763		-0.263338	-0.126952	10.318303	-0.008950	0.009875	0.007651	-1.165527	0.960693	-2.005859	-0.559958	1.365623	-112.329821
24764		-0.250425	-0.113924	10.303660	-0.009028	0.005720	0.009950	-1.165283	0.964844	-2.002686	-0.559945	1.364644	-112.327655
24765		-0.222787	-0.130961	10.315020	-0.010880	0.008532	0.004698	-1.159912	0.973145	-2.003662	-0.561026	1.365324	-112.328500
24766		-0.264622	-0.096235	10.310512	-0.008991	0.007085	0.005105	-1.167480	0.969727	-1.998535	-0.561096	1.365259	-112.329065
24767		-0.252778	-0.116828	10.303570	-0.008499	0.008297	0.007404	-1.168701	0.969727	-1.994141	-0.560775	1.365820	-112.328359
24768		-0.239823	-0.103729	10.288940	-0.008046	0.006718	0.007156	-1.161133	0.971924	-2.002686	-0.560347	1.365391	-112.327757
24769		-0.252242	-0.128762	10.336420	-0.008538	0.006220	0.008552	-1.170898	0.970703	-1.996582	-0.560033	1.364768	-112.326381
24770		-0.270660	-0.123048	10.285181	-0.008992	0.007087	0.005104	-1.170410	0.968750	-1.999512	-0.560172	1.364609	-112.326930
24771		-0.252621	-0.096844	10.328684	-0.007555	0.007931	0.009454	-1.165771	0.966797	-1.998779	-0.559282	1.364972	-112.325046
24772		-0.214350	-0.123264	10.300230	-0.010921	0.006458	0.005845	-1.165527	0.962402	-1.993164	-0.560457	1.364416	-112.325212
24773		-0.270889	-0.136119	10.317991	-0.009484	0.006589	0.006500	-1.164307	0.971191	-2.000000	-0.560713	1.363993	-112.325014
24774		-0.215692	-0.125288	10.300177	-0.009977	0.006091	0.007896	-1.164063	0.967041	-2.007813	-0.561321	1.363269	-112.324021
24775		-0.269240	-0.114651	10.343162	-0.008008	0.008799	0.006007	-1.166016	0.972412	-2.002441	-0.560739	1.364110	-112.324118
24776		-0.215378	-0.137397	10.333020	-0.009938	0.008170	0.006747	-1.164307	0.959717	-2.000977	-0.561318	1.364656	-112.323739
24777		-0.230820	-0.108388	10.307012	-0.009445	0.007957	0.001656	-1.168945	0.961426	-1.996338	-0.561618	1.364990	-112.326325
24778		-0.248294	-0.146596	10.296326	-0.008582	0.004144	0.009698	-1.169434	0.964111	-1.999756	-0.561275	1.363150	-112.324362
24779		-0.245990	-0.124078	10.321538	-0.007969	0.010879	0.004858	-1.162598	0.967773	-2.009033	-0.560686	1.365176	-112.325128
24780		-0.250092	-0.148314	10.296257	-0.009446	0.008670	0.005350	-1.170654	0.968506	-2.003906	-0.560946	1.365976	-112.325600
24781		-0.231983	-0.122217	10.339799	-0.008091	0.004644	0.008301	-1.166260	0.974854	-2.003174	-0.560378	1.364449	-112.324359
24782		-0.248290	-0.126742	10.321451	-0.009487	0.006593	0.006498	-1.172119	0.970459	-1.994385	-0.560755	1.364012	-112.324095
24783		-0.249111	-0.127680	10.321420	-0.008954	0.009171	0.003954	-1.165771	0.975586	-1.997803	-0.560742	1.365054	-112.325369
24784		-0.249856	-0.128521	10.321391	-0.007599	0.005143	0.006905	-1.169678	0.966064	-2.002686	-0.560117	1.363707	-112.324865
24785		-0.224104	-0.135058	10.299874	-0.007558	0.007223	0.005758	-1.166016	0.972656	-2.002197	-0.559279	1.363643	-112.325095
24786		-0.251248	-0.130128	10.321337	-0.008995	0.007093	0.005101	-1.170654	0.961670	-2.000488	-0.559358	1.363488	-112.325665
24787		-0.222747	-0.113550	10.325074	-0.010352	0.011833	0.005845	-1.170898	0.963379	-2.001709	-0.560121	1.366066	-112.325871
24788		-0.251986	-0.098420	10.313640	-0.008543	0.005514	0.004853	-1.166016	0.975098	-1.993896	-0.559836	1.364939	-112.326661
24789		-0.267644	-0.147008	10.335790	-0.010885	0.008545	0.004692	-1.165283	0.966553	-2.000977	-0.560919	1.365626	-112.327510
24790		-0.239022	-0.130587	10.339537	-0.011378	0.008046	0.006087	-1.157959	0.976074	-1.999756	-0.562421	1.366012	-112.327514
24791		-0.226031	-0.117682	10.324956	-0.008996	0.007095	0.005100	-1.170166	0.968018	-1.995361	-0.562417	1.365871	-112.328121
24792		-0.245612	-0.145573	10.281313	-0.009942	0.008176	0.006743	-1.154053	0.962158	-2.001709	-0.563104	1.366365	-112.327737
24793		-0.256096	-0.103498	10.313489	-0.008958	0.009886	0.007648	-1.167969	0.968506	-1.998047	-0.563043	1.367838	-112.326899
24794		-0.258142	-0.138066	10.321064	-0.008997	0.007096	0.005099	-1.166992	0.961182	-2.010010	-0.563069	1.367780	-112.327531
24795		-0.255721	-0.115646	10.346317	-0.008545	0.005516	0.004851	-1.167480	0.962158	-1.996826	-0.562810	1.366733	-112.328271
24796		-0.217424	-0.142042	10.317876	-0.009449	0.008677	0.005348	-1.166016	0.962402	-2.000732	-0.562999	1.367507	-112.328803
24797		-0.243536	-0.103478	10.331722	-0.007564	0.007936	0.009451	-1.162354	0.963867	-2.000732	-0.562115	1.367873	-112.326921
24798		-0.275774	-0.111546	10.294995	-0.009944	0.008179	0.006742	-1.163574	0.970215	-2.002197	-0.562620	1.368395	-112.326638
24799		-0.232527	-0.125064	10.324725	-0.009492	0.006599	0.006493	-1.168457	0.975342	-1.999512	-0.562881	1.367977	-112.326444
24800		-0.248938	-0.129591	10.306345	-0.008998	0.007099	0.005098	-1.164795	0.968750	-2.000488	-0.563036	1.367840	-112.326978
24801		-0.230955	-0.103747	10.349963	-0.011381	0.008052	0.006084	-1.172607	0.973877	-2.007324	-0.564385	1.368253	-112.327026
24802		-0.250528	-0.131514	10.306283	-0.006126	0.007356	0.006413	-1.158691	0.968018	-2.002197	-0.562823	1.368255	-112.326820
24803		-0.248223	-0.109207	10.331552	-0.013313	0.007425	0.006821	-1.176270	0.968506	-2.000244	-0.565268	1.368313	-112.326443
24804		-0.222588	-0.116009	10.310059	-0.007068	0.007728	0.004361	-1.166992	0.962646	-2.003662	-0.564241	1.368510	-112.327460
24805		-0.249815	-0.111135	10.331493	-0.010440	0.007682	0.008135	-1.168945	0.968994	-2.000244	-0.565023	1.368723	-112.326331
24806		-0.237921	-0.131715	10.324520	-0.006616	0.006148	0.004112	-1.166992	0.967041	-2.000000	-0.563691	1.368012	-112.327511
24807		-0.224855	-0.118604	10.309980	-0.009946	0.008182	0.006740	-1.172852	0.965088	-1.991943	-0.564208	1.368504	-112.327184
24808		-0.241231	-0.123134	10.291590	-0.009043	0.005021	0.006242	-1.168457	0.964600	-1.997559	-0.564294	1.367066	-112.327145
24809		-0.252623	-0.114945	10.331383	-0.013315	0.007428	0.006818	-1.167725	0.972900	-2.001709	-0.566741	1.367126	-112.326769
24810		-0.255261	-0.105538	10.298481	-0.006127	0.007358	0.006413	-1.163818	0.965088	-1.995605	-0.565168	1.367100	-112.326607
24811		-0.241554	-0.136635	10.324372	-0.013315	0.007429	0.006818	-1.170166	0.970215	-1.997803	-0.567615	1.367161	-112.326231
24812		-0.239172	-0.114331	10.349665	-0.005676	0.005777	0.006163	-1.164551	0.967285	-2.007568	-0.565790	1.366219	-112.326223
24813		-0.256798	-0.152346	10.338813	-0.009948	0.008185	0.006739	-1.167969	0.974609	-1.996094	-0.566309	1.366712	-112.325896
24814		-0.242537	-0.105633	10.316742	-0.008060	0.006732	0.007148	-1.168457	0.970215	-2.000000	-0.565850	1.366390	-112.325279
24815		-0.227634	-0.102999	10.335089	-0.009948	0.008186	0.006739	-1.162354	0.965576	-2.005859	-0.566369	1.366884	-112.324953
24816		-0.247155	-0.130790	10.291355	-0.009497	0.006605	0.006489	-1.171387	0.973389	-2.000000	-0.566678	1.366511	-112.324748
24817		-0.229113	-0.105006	10.335036	-0.010438	0.006979	0.004437	-1.171143	0.962891	-2.001221	-0.567509	1.366300	-112.325734
24818		-0.232880	-0.129151	10.309675	-0.007120	0.006359	0.009200	-1.165527	0.961426	-1.997314	-0.566444	1.365674	-112.323974
24819		-0.249327	-0.133673	10.291265	-0.012326	0.008434	0.004027	-1.163574	0.968018	-1.999512	-0.568363	1.366294	-112.325203
24820		-0.262670	-0.114871	10.298195	-0.005678	0.005779	0.006163	-1.164063	0.972168	-1.994629	-0.566469	1.365417	-112.325230
24821		-0.245921	-0.122458	10.349414	-0.008017	0.008815	0.006003	-1.172119	0.968750	-2.004395	-0.565892	1.366266	-112.325329
24822		-0.251626	-0.136162	10.291177	-0.009498	0.006608	0.006488	-1.170898	0.971924	-1.997559	-0.566278	1.365814	-112.325101
24823		-0.249278	-0.113783	10.316495	-0.007566	0.007234	0.005753	-1.163818	0.968262	-2.001221	-0.565445	1.365757	-112.325334
24824		-0.250056	-0.114695	10.316466	-0.010447	0.007689	0.008130	-1.169189	0.960205	-1.999023	-0.566345	1.365947	-112.324175
24825		-0.238201	-0.135423	10.309473	-0.009499	0.006609	0.006487	-1.160889	0.966309	-2.000977	-0.566610	1.365535	-112.323984
24826		-0.251630	-0.116569	10.316407	-0.007522	0.009317	0.004609	-1.164307	0.966064	-1.996826	-0.565754	1.366685	-112.324936
24827		-0.252451	-0.117508	10.316376	-0.010936	0.006484	0.005828	-1.163818	0.958984	-2.000977	-0.566852	1.366198	-112.325123
24828		-0.240442	-0.138116	10.309385	-0.006672	0.004780	0.008948	-1.170166	0.966064	-2.004150	-0.565447	1.364778	-112.323572
24829		-0.253712	-0.119141	10.316326	-0.008011	0.008111	0.002307	-1.172607	0.964111	-2.004150	-0.564917	1.365203	-112.325785
24830		-0.254640	-0.120079	10.316293	-0.010404	0.009774	0.006985	-1.165283	0.964600	-1.998535	-0.565681	1.366558	-112.325345
24831		-0.243010	-0.140731	10.309290	-0.008019	0.008819	0.006002	-1.168457	0.969238	-1.995850	-0.565105	1.367410	-112.325444
24832		-0.255058	-0.088271	10.308743	-0.010486	0.004904	0.005576	-1.166504	0.966064	-2.004150	-0.579365	1.347328	-112.340033
24833		-0.255229	-0.133231	10.349055	-0.005644	0.008570	0.008713	-1.169922	0.970703	-2.000000	-0.577400	1.348041	-112.338587
24834		-0.243865	-0.109616	10.301724	-0.010486	0.004905	0.005576	-1.170166	0.965332	-1.998047	-0.578306	1.346634	-112.338989
24835		-0.230123	-0.141017	10.327575	-0.013323	0.007443	0.006808	-1.167236	0.963379	-1.996826	-0.580765	1.346691	-112.338628
24836		-0.256165	-0.102592	10.341488	-0.006584	0.008946	0.006661	-1.165039	0.965576	-1.998291	-0.579392	1.347558	-112.338258
24837		-0.246225	-0.112526	10.301636	-0.007072	0.007739	0.004358	-1.166016	0.963623	-2.002686	-0.578303	1.347771	-112.339302
24838		-0.245246	-0.123893	10.334457	-0.010451	0.007695	0.008127	-1.174316	0.967041	-2.005615	-0.579108	1.348007	-112.338073
24839		-0.235107	-0.134045	10.294606	-0.007616	0.005157	0.006894	-1.159912	0.968994	-2.005371	-0.578296	1.346754	-112.337650
24840		-0.246618	-0.125700	10.334402	-0.009955	0.008197	0.006734	-1.170654	0.962891	-2.001953	-0.578852	1.347288	-112.337376
24841		-0.234848	-0.146160	10.327397	-0.004698	0.007490	0.007071	-1.169922	0.967041	-2.000732	-0.576366	1.347373	-112.336865
24842		-0.248036	-0.127257	10.334349	-0.011484	0.003908	0.008358	-1.164063	0.968262	-2.003174	-0.577760	1.345372	-112.335539
24843		-0.236530	-0.103738	10.287047	-0.007073	0.007742	0.004358	-1.167236	0.966553	-1.997803	-0.576671	1.345585	-112.336584
24844		-0.222917	-0.134871	10.312886	-0.010940	0.006492	0.005823	-1.164307	0.963867	-1.996338	-0.577832	1.345118	-112.336791
24845		-0.250180	-0.130158	10.334262	-0.009458	0.008699	0.005340	-1.162598	0.971436	-2.008301	-0.578097	1.345886	-112.337278
24846		-0.249797	-0.097282	10.326786	-0.006586	0.008948	0.006661	-1.166016	0.959473	-1.994141	-0.576742	1.346882	-112.337010
24847		-0.251995	-0.131810	10.334197	-0.009956	0.008200	0.006732	-1.172852	0.963623	-2.003418	-0.577274	1.347371	-112.336697
24848		-0.238884	-0.118754	10.319747	-0.008069	0.006742	0.007142	-1.162109	0.974365	-2.000732	-0.576695	1.346977	-112.335958
24849		-0.266273	-0.113891	10.341115	-0.009412	0.010785	0.004198	-1.156006	0.970947	-2.000000	-0.576949	1.348933	-112.337112
24850		-0.254520	-0.134478	10.334100	-0.007619	0.005160	0.006891	-1.164307	0.960938	-2.002441	-0.576276	1.347811	-112.336849
24851		-0.242975	-0.110932	10.286821	-0.010942	0.006495	0.005820	-1.173828	0.966553	-1.998535	-0.577385	1.347319	-112.337049
24852		-0.254669	-0.102740	10.326614	-0.008973	0.009908	0.007642	-1.172119	0.961670	-1.999268	-0.577338	1.348761	-112.336127
24853		-0.230305	-0.143148	10.312612	-0.009993	0.005415	0.004177	-1.165771	0.964600	-2.001221	-0.577926	1.347640	-112.337262
24854		-0.283932	-0.132543	10.355370	-0.007573	0.007244	0.005749	-1.168213	0.967285	-1.994385	-0.577094	1.347546	-112.337391
24855		-0.244186	-0.125164	10.319547	-0.009056	0.005038	0.006229	-1.161865	0.963379	-1.998047	-0.577117	1.346221	-112.337348
24856		-0.244909	-0.126030	10.319519	-0.008024	0.008828	0.006000	-1.162842	0.966797	-2.004395	-0.576607	1.347063	-112.337401
24857		-0.230007	-0.123385	10.337927	-0.007621	0.005162	0.006890	-1.169922	0.961182	-2.006104	-0.575798	1.345813	-112.336979
24858		-0.261976	-0.131071	10.301029	-0.008523	0.008327	0.007391	-1.165771	0.965576	-1.994873	-0.575466	1.346438	-112.336191
24859		-0.247068	-0.128503	10.319437	-0.008559	0.005540	0.004837	-1.172119	0.964600	-1.994873	-0.575223	1.345393	-112.336949
24860		-0.233845	-0.115494	10.305016	-0.010459	0.007704	0.008121	-1.167725	0.964844	-2.004395	-0.576088	1.345527	-112.335805
24861		-0.262726	-0.100035	10.293543	-0.006186	0.005286	0.007550	-1.161377	0.964111	-1.993408	-0.574448	1.344352	-112.335006
24862		-0.219517	-0.113703	10.323410	-0.009509	0.006623	0.006478	-1.164307	0.976074	-1.992920	-0.574750	1.343969	-112.334749
24863		-0.251550	-0.121459	10.286496	-0.008524	0.008329	0.007390	-1.170654	0.972168	-2.001465	-0.574452	1.344536	-112.334059
24864		-0.250632	-0.132852	10.319296	-0.008074	0.006747	0.007139	-1.162598	0.964600	-1.999023	-0.574090	1.344162	-112.333733
24865		-0.221820	-0.116178	10.323333	-0.006139	0.007371	0.006409	-1.167236	0.956543	-2.005615	-0.572439	1.344175	-112.333600
24866		-0.264745	-0.114732	10.326234	-0.011397	0.008086	0.006067	-1.164307	0.975830	-2.004883	-0.573738	1.344653	-112.333472
24867		-0.226551	-0.141268	10.297828	-0.009462	0.008710	0.005337	-1.168945	0.963135	-2.003662	-0.574005	1.345427	-112.333961
24868		-0.221239	-0.096041	10.348695	-0.010947	0.006503	0.005815	-1.165527	0.963135	-2.001465	-0.575179	1.344985	-112.334238
24869		-0.242208	-0.112949	10.271944	-0.007624	0.005165	0.006888	-1.164307	0.973633	-1.999512	-0.574372	1.343737	-112.333819
24870		-0.241243	-0.124388	10.304742	-0.009462	0.008711	0.005337	-1.166748	0.977295	-2.001709	-0.574712	1.344551	-112.334342
24871		-0.243640	-0.114749	10.271891	-0.009061	0.005043	0.006225	-1.168457	0.972656	-1.989746	-0.574737	1.343229	-112.334301
24872		-0.242575	-0.126195	10.304688	-0.008076	0.006749	0.007138	-1.164307	0.976074	-1.996582	-0.574401	1.342840	-112.333975
24873		-0.243354	-0.127108	10.304659	-0.009963	0.008211	0.006727	-1.172852	0.974121	-2.002930	-0.574936	1.343336	-112.333665
24874		-0.239328	-0.115468	10.362915	-0.007626	0.005166	0.006887	-1.156006	0.969238	-2.001465	-0.574312	1.342061	-112.333471
24875		-0.230945	-0.114807	10.290242	-0.007978	0.010920	0.004858	-1.164307	0.969727	-1.995361	-0.573736	1.344099	-112.334247
24876		-0.245757	-0.129648	10.304570	-0.009078	0.005747	0.009919	-1.167236	0.961914	-2.007324	-0.573820	1.343301	-112.332116
24877		-0.230812	-0.127253	10.323005	-0.010449	0.007009	0.004422	-1.163330	0.964355	-2.004883	-0.574665	1.343096	-112.333120
24878		-0.259719	-0.111900	10.311519	-0.009013	0.007131	0.005084	-1.170410	0.968018	-2.008789	-0.574617	1.343048	-112.333628
24879		-0.260410	-0.112864	10.311491	-0.010014	0.006128	0.007865	-1.165771	0.965576	-1.994873	-0.575167	1.342358	-112.332654
24880		-0.264263	-0.136855	10.285984	-0.007528	0.009338	0.004607	-1.160400	0.968506	-1.998047	-0.574367	1.343486	-112.333564
24881		-0.222889	-0.140066	10.283067	-0.009064	0.005047	0.006223	-1.168701	0.966797	-2.002930	-0.574394	1.342167	-112.333525
24882		-0.247155	-0.112186	10.329872	-0.009915	0.010300	0.005586	-1.165527	0.967529	-1.996582	-0.574974	1.343897	-112.333881
24883		-0.251089	-0.136195	10.304357	-0.008079	0.006752	0.007136	-1.169678	0.973389	-2.001953	-0.574425	1.343560	-112.333328
24884		-0.248849	-0.113991	10.329812	-0.009465	0.008717	0.005334	-1.164551	0.958984	-2.000732	-0.574803	1.344320	-112.333899
24885		-0.235378	-0.145208	10.355583	-0.007629	0.005169	0.006884	-1.170166	0.965332	-2.004395	-0.573999	1.343074	-112.333481
24886		-0.239296	-0.124807	10.289935	-0.009015	0.007134	0.005082	-1.164063	0.968750	-2.010498	-0.573968	1.342961	-112.334002
24887		-0.238378	-0.136374	10.322717	-0.009516	0.006633	0.006473	-1.160156	0.958984	-1.999023	-0.574251	1.342552	-112.333828
24888		-0.240727	-0.126686	10.289879	-0.009015	0.007135	0.005082	-1.166992	0.964844	-1.994141	-0.574232	1.342543	-112.334360
24889		-0.252382	-0.118381	10.329677	-0.006645	0.006874	0.007798	-1.168945	0.966309	-2.000000	-0.572852	1.342280	-112.333428
24890		-0.239192	-0.105309	10.315322	-0.011403	0.008098	0.006061	-1.162842	0.970947	-2.002686	-0.574275	1.342663	-112.333485
24891		-0.227576	-0.126073	10.308271	-0.008982	0.009923	0.007639	-1.158447	0.972412	-1.999023	-0.574237	1.344146	-112.332662
24892		-0.270554	-0.124687	10.311094	-0.010953	0.006515	0.005808	-1.165283	0.969238	-1.998047	-0.575469	1.343771	-112.332924
24893		-0.244742	-0.131369	10.289725	-0.007580	0.007257	0.005745	-1.170898	0.966064	-2.002441	-0.574653	1.343715	-112.333171
24894		-0.256485	-0.123176	10.329520	-0.009968	0.008220	0.006723	-1.163574	0.963379	-2.000244	-0.575251	1.344198	-112.332882
24895		-0.215139	-0.126571	10.326643	-0.009518	0.006636	0.006471	-1.160645	0.965332	-2.004883	-0.575535	1.343790	-112.332709
24896		-0.257986	-0.125033	10.329460	-0.007581	0.007258	0.005744	-1.168945	0.975342	-2.004150	-0.574709	1.343831	-112.332884
24897		-0.232284	-0.131640	10.308096	-0.009467	0.008723	0.005332	-1.169189	0.972412	-2.000244	-0.574980	1.344613	-112.333376
24898		-0.259467	-0.126944	10.329400	-0.010988	0.003732	0.003249	-1.168945	0.963623	-2.003418	-0.576290	1.342505	-112.335154
24899		-0.244543	-0.124514	10.347867	-0.006596	0.008963	0.006660	-1.163574	0.970459	-1.989990	-0.574898	1.343431	-112.334887
24900		-0.260937	-0.128730	10.329340	-0.010955	0.006519	0.005806	-1.167480	0.970215	-2.002441	-0.576089	1.342932	-112.335096
24901		-0.247744	-0.115704	10.315008	-0.008032	0.008844	0.005996	-1.162598	0.963623	-2.003662	-0.575528	1.343786	-112.335209
24902		-0.275116	-0.110831	10.336304	-0.009018	0.007141	0.005080	-1.165039	0.968262	-2.002441	-0.575570	1.343716	-112.335821
24903		-0.222770	-0.123299	10.293625	-0.010454	0.007022	0.004415	-1.164551	0.971924	-1.999023	-0.576418	1.343517	-112.336829
24904		-0.276571	-0.112767	10.336244	-0.008085	0.006758	0.007133	-1.166992	0.969238	-1.996094	-0.575964	1.343221	-112.336311
24905		-0.250816	-0.119343	10.314893	-0.008536	0.008343	0.007385	-1.166260	0.964600	-2.002197	-0.575673	1.343797	-112.335624
24906		-0.253247	-0.109668	10.282066	-0.011407	0.008106	0.006056	-1.162354	0.961426	-2.004883	-0.577099	1.344224	-112.335696
24907		-0.238384	-0.151714	10.340589	-0.007081	0.007764	0.004354	-1.167236	0.970215	-1.994141	-0.576016	1.344451	-112.336743
24908		-0.237678	-0.118760	10.333310	-0.008086	0.006759	0.007132	-1.169189	0.964111	-2.001221	-0.575505	1.344144	-112.336167
24909		-0.254041	-0.122901	10.314772	-0.008537	0.008344	0.007384	-1.158447	0.969727	-2.006592	-0.575215	1.344721	-112.335480
24910		-0.253261	-0.134513	10.347532	-0.009522	0.006642	0.006467	-1.163086	0.967529	-2.006104	-0.575522	1.344397	-112.335289
24911		-0.255598	-0.124804	10.314711	-0.009973	0.008227	0.006719	-1.168213	0.969238	-2.003662	-0.576063	1.344903	-112.334983
24912		-0.243841	-0.145449	10.307644	-0.008088	0.006761	0.007131	-1.168945	0.970703	-1.998535	-0.575554	1.344629	-112.334437
24913		-0.241699	-0.123341	10.333163	-0.009920	0.010315	0.005583	-1.165283	0.964111	-2.006836	-0.576081	1.346325	-112.334795
24914		-0.259624	-0.116809	10.281829	-0.007638	0.005176	0.006878	-1.166016	0.967285	-1.994385	-0.575320	1.345098	-112.334383
24915		-0.227654	-0.121969	10.351623	-0.012342	0.008495	0.004000	-1.168213	0.958740	-1.994385	-0.577255	1.345742	-112.335637
24916		-0.259795	-0.129572	10.314547	-0.007982	0.010937	0.004858	-1.164551	0.968994	-2.004395	-0.576713	1.347730	-112.336379
24917		-0.257599	-0.107427	10.340078	-0.009075	0.005059	0.006212	-1.163818	0.963867	-2.001465	-0.576746	1.346418	-112.336346
24918		-0.250348	-0.140388	10.274660	-0.009471	0.008732	0.005329	-1.160400	0.962402	-2.003418	-0.577040	1.347269	-112.336818
24919		-0.245212	-0.095187	10.325761	-0.006601	0.008968	0.006659	-1.162842	0.963379	-1.996094	-0.575651	1.348199	-112.336551
24920		-0.235045	-0.104983	10.285909	-0.009022	0.007148	0.005076	-1.165771	0.968750	-1.999268	-0.575660	1.348151	-112.337120
24921		-0.249811	-0.119974	10.300135	-0.010457	0.007031	0.004410	-1.166504	0.967041	-1.994629	-0.576510	1.347958	-112.338130
24922		-0.275703	-0.125893	10.354179	-0.007533	0.009354	0.004605	-1.160400	0.967773	-1.993164	-0.575773	1.349075	-112.339055
24923		-0.206249	-0.101077	10.322891	-0.006710	0.004793	0.008930	-1.163086	0.965088	-1.994385	-0.574415	1.347625	-112.337462
24924		-0.252053	-0.122470	10.300051	-0.010481	0.007730	0.008105	-1.165283	0.967041	-1.995605	-0.575319	1.347872	-112.336344
24925		-0.249696	-0.100468	10.325603	-0.009077	0.005062	0.006210	-1.167725	0.964355	-2.001953	-0.575354	1.346561	-112.336312
24926		-0.279983	-0.118693	10.321284	-0.009977	0.008233	0.006716	-1.163574	0.974121	-1.989014	-0.575939	1.347059	-112.336000
24927		-0.238642	-0.122084	10.318500	-0.008092	0.006765	0.007128	-1.164307	0.964355	-2.001709	-0.575398	1.346729	-112.335452
24928		-0.255007	-0.126151	10.299934	-0.008038	0.008854	0.005993	-1.163330	0.956055	-1.999512	-0.574961	1.347589	-112.335579
24929		-0.240282	-0.123843	10.318441	-0.010459	0.007035	0.004408	-1.172119	0.972900	-2.007080	-0.575812	1.347398	-112.336591
24930		-0.256417	-0.127886	10.299878	-0.005253	0.004214	0.005899	-1.163818	0.962402	-2.002197	-0.573648	1.345611	-112.336715
24931		-0.241481	-0.125586	10.318392	-0.013354	0.007499	0.006771	-1.168457	0.972168	-1.996094	-0.576126	1.345699	-112.336375
24932		-0.240811	-0.092861	10.311184	-0.006603	0.008972	0.006659	-1.166260	0.966553	-1.998535	-0.574802	1.346631	-112.336111
24933		-0.240157	-0.104420	10.343929	-0.009024	0.007154	0.005073	-1.167236	0.964844	-1.998047	-0.574822	1.346512	-112.336742
24934		-0.259449	-0.131494	10.299756	-0.008094	0.006767	0.007127	-1.167969	0.969727	-1.999268	-0.574326	1.346165	-112.336190
24935		-0.255757	-0.120114	10.358097	-0.008039	0.008856	0.005993	-1.168945	0.967773	-2.001709	-0.573770	1.347027	-112.336304
24936		-0.242539	-0.106903	10.343848	-0.007590	0.007271	0.005739	-1.160645	0.958252	-2.002197	-0.573036	1.346954	-112.336574
24937		-0.249443	-0.153768	10.292603	-0.010935	0.009321	0.008355	-1.170654	0.969727	-1.996094	-0.574107	1.348096	-112.335337
24938		-0.261265	-0.101451	10.292466	-0.011896	0.006924	0.003739	-1.167480	0.969727	-1.995850	-0.575803	1.347845	-112.336713
24939		-0.247933	-0.132865	10.318148	-0.005705	0.005801	0.006152	-1.167236	0.965088	-2.000000	-0.573907	1.346958	-112.336718
24940		-0.248577	-0.133710	10.318122	-0.010966	0.006538	0.005793	-1.167480	0.968750	-2.008057	-0.575105	1.346460	-112.336943
24941		-0.246438	-0.111822	10.343704	-0.009925	0.010329	0.005579	-1.169189	0.971191	-2.011963	-0.575635	1.348163	-112.337303
24942		-0.247355	-0.112714	10.343672	-0.007591	0.007273	0.005738	-1.164063	0.961182	-2.003174	-0.574849	1.348182	-112.337562
24943		-0.251098	-0.136531	10.318024	-0.009532	0.006654	0.006459	-1.167480	0.969238	-1.997803	-0.575142	1.347785	-112.337397
24944		-0.236247	-0.089692	10.296654	-0.008547	0.008356	0.007379	-1.167725	0.960449	-1.999268	-0.574879	1.348387	-112.336702
24945		-0.238631	-0.124378	10.303761	-0.009956	0.007547	0.003017	-1.167969	0.960449	-2.005859	-0.575461	1.348481	-112.338514
24946		-0.212698	-0.130998	10.282475	-0.007648	0.005184	0.006871	-1.166504	0.969971	-2.001465	-0.574601	1.347248	-112.338078
24947		-0.238239	-0.092397	10.296584	-0.009589	0.004566	0.007591	-1.167969	0.961670	-2.000244	-0.574910	1.345661	-112.337251
24948		-0.268641	-0.110646	10.292182	-0.010856	0.010721	0.003524	-1.166260	0.962646	-2.010986	-0.576033	1.347576	-112.338789
24949		-0.241432	-0.128050	10.303651	-0.006214	0.005300	0.007538	-1.154785	0.968994	-2.007080	-0.574409	1.346409	-112.337997
24950		-0.257664	-0.132060	10.285055	-0.009984	0.008243	0.006711	-1.166992	0.964111	-1.999756	-0.574925	1.347107	-112.337656
24951		-0.239909	-0.106855	10.329234	-0.008099	0.006772	0.007124	-1.161377	0.971924	-1.998535	-0.574388	1.346782	-112.337110
24952		-0.242215	-0.141474	10.336321	-0.009028	0.007161	0.005070	-1.162842	0.977051	-1.995850	-0.574490	1.346697	-112.337739
24953		-0.230393	-0.117428	10.289356	-0.006608	0.008977	0.006659	-1.171143	0.970947	-1.998291	-0.573105	1.347632	-112.337472
24954		-0.245325	-0.132232	10.303506	-0.009029	0.007162	0.005069	-1.169922	0.968750	-2.003906	-0.573318	1.347482	-112.338130
24955		-0.241682	-0.120987	10.361877	-0.007621	0.007971	0.009432	-1.171875	0.968750	-1.997314	-0.572476	1.347856	-112.336268
24956		-0.259343	-0.114002	10.310523	-0.005709	0.005805	0.006150	-1.167480	0.962158	-1.993896	-0.570662	1.346905	-112.336295
24957		-0.230558	-0.097678	10.314900	-0.011363	0.010223	0.004909	-1.166016	0.973145	-1.999268	-0.572025	1.348544	-112.337038
24958		-0.261134	-0.115953	10.310456	-0.009986	0.008247	0.006709	-1.167725	0.966797	-2.002441	-0.572666	1.349026	-112.336745
24959		-0.233902	-0.133361	10.321935	-0.006666	0.006889	0.007791	-1.168701	0.967285	-1.993164	-0.571299	1.348770	-112.335818
24960		-0.262737	-0.117607	10.310397	-0.009479	0.008752	0.005322	-1.162842	0.968018	-2.000000	-0.571649	1.349522	-112.336326
24961		-0.249562	-0.104531	10.296200	-0.008972	0.009256	0.003936	-1.174072	0.963867	-2.000488	-0.571655	1.350601	-112.337621
24962		-0.237756	-0.125161	10.289097	-0.008667	0.004181	0.009641	-1.159912	0.970703	-2.000732	-0.571446	1.348777	-112.335623
24963		-0.249538	-0.117194	10.328894	-0.009480	0.008753	0.005322	-1.166260	0.966309	-1.992188	-0.571724	1.349576	-112.336121
24964		-0.239288	-0.127088	10.289038	-0.010495	0.007746	0.008094	-1.166016	0.966553	-2.000244	-0.572651	1.349839	-112.335019
24965		-0.266708	-0.122330	10.310240	-0.008523	0.007671	0.003681	-1.163818	0.971924	-2.002441	-0.572403	1.350008	-112.336451
24966		-0.236441	-0.116945	10.347395	-0.009539	0.006664	0.006453	-1.162354	0.963867	-2.001465	-0.572778	1.349657	-112.336283
24967		-0.227457	-0.116039	10.274800	-0.011931	0.007634	0.007425	-1.163818	0.967041	-2.004639	-0.574432	1.349827	-112.335570
24968		-0.253478	-0.122105	10.328741	-0.006162	0.007394	0.006404	-1.166504	0.965088	-1.996338	-0.572798	1.349939	-112.335422
24969		-0.254377	-0.122945	10.328709	-0.010438	0.009839	0.006962	-1.164307	0.969238	-1.998535	-0.573603	1.351370	-112.334987
24970		-0.225534	-0.106703	10.333137	-0.007655	0.005191	0.006866	-1.166504	0.967285	-2.001953	-0.572889	1.350130	-112.334580
24971		-0.254195	-0.091000	10.321598	-0.009959	0.007561	0.003011	-1.171387	0.963623	-1.997070	-0.573473	1.350233	-112.336395
24972		-0.231579	-0.165158	10.314451	-0.008105	0.006779	0.007120	-1.160400	0.968262	-1.996826	-0.572972	1.349867	-112.335860
24973		-0.258742	-0.115758	10.295853	-0.010917	0.008645	0.004652	-1.152832	0.961182	-2.000000	-0.574082	1.350600	-112.336742
24974		-0.244154	-0.113591	10.314424	-0.008047	0.008871	0.005989	-1.164551	0.968018	-2.002441	-0.573558	1.351618	-112.336826
24975		-0.244963	-0.114482	10.314395	-0.009541	0.006667	0.006451	-1.166016	0.969971	-1.994629	-0.573856	1.351228	-112.336665
24976		-0.233157	-0.135266	10.307278	-0.010976	0.006555	0.005782	-1.166748	0.960693	-2.004395	-0.575082	1.350775	-112.336884
24977		-0.245070	-0.127492	10.347069	-0.009991	0.008255	0.006705	-1.168701	0.965820	-2.000488	-0.575634	1.351296	-112.336586
24978		-0.233084	-0.103535	10.300185	-0.009034	0.007172	0.005065	-1.163086	0.969971	-2.006836	-0.575634	1.351190	-112.337227
24979		-0.249236	-0.107548	10.281549	-0.008585	0.005585	0.004810	-1.166260	0.961426	-2.004883	-0.575406	1.350171	-112.338000
24980		-0.234389	-0.105277	10.300137	-0.008108	0.006781	0.007119	-1.171631	0.967773	-2.003906	-0.574860	1.349935	-112.337443
24981		-0.264743	-0.123356	10.295613	-0.010469	0.007062	0.004395	-1.163330	0.962158	-1.997803	-0.575717	1.349760	-112.338463
24982		-0.234482	-0.118154	10.332813	-0.009543	0.006669	0.006450	-1.166992	0.968750	-1.995361	-0.576032	1.349363	-112.338308
24983		-0.264872	-0.136133	10.328280	-0.007091	0.007790	0.004348	-1.165283	0.964355	-1.997070	-0.574955	1.349604	-112.339359
24984		-0.262662	-0.114033	10.353964	-0.007600	0.007286	0.005733	-1.169434	0.973389	-2.007813	-0.574227	1.349535	-112.339617
24985		-0.238161	-0.109718	10.300005	-0.009993	0.008258	0.006704	-1.162598	0.967773	-1.999512	-0.574781	1.350059	-112.339321
24986		-0.253067	-0.124588	10.314082	-0.006642	0.006203	0.004093	-1.165771	0.971680	-1.999268	-0.573534	1.349434	-112.340493
24987		-0.225825	-0.142101	10.325577	-0.010503	0.007755	0.008089	-1.167236	0.959717	-2.002686	-0.574361	1.349676	-112.339400
24988		-0.251599	-0.103663	10.339745	-0.009961	0.007569	0.003008	-1.166992	0.964600	-1.995605	-0.574974	1.349793	-112.341218
24989		-0.213155	-0.129991	10.311421	-0.007152	0.005700	0.005477	-1.164795	0.970459	-2.002197	-0.573916	1.348844	-112.341609
24990		-0.252992	-0.105433	10.339693	-0.010504	0.007756	0.008088	-1.161865	0.958984	-1.999268	-0.574816	1.349088	-112.340514
24991		-0.242491	-0.115227	10.299843	-0.009097	0.005085	0.006192	-1.170654	0.965820	-2.002686	-0.574863	1.347790	-112.340492
24992		-0.254177	-0.107302	10.339645	-0.008172	0.004691	0.008247	-1.160400	0.967285	-1.998779	-0.574325	1.346294	-112.339300
24993		-0.257979	-0.131019	10.313881	-0.009425	0.010859	0.004189	-1.162354	0.967773	-2.001221	-0.574587	1.348292	-112.340460
24994		-0.244682	-0.118127	10.299759	-0.012926	0.005948	0.006491	-1.163818	0.960449	-1.993408	-0.576887	1.347579	-112.340250
24995		-0.245245	-0.119121	10.299734	-0.006738	0.004803	0.008916	-1.174561	0.967529	-1.992920	-0.575546	1.346135	-112.338666
24996		-0.242962	-0.097125	10.325450	-0.009486	0.008768	0.005318	-1.159180	0.966797	-2.004883	-0.575888	1.346833	-112.339196
24997		-0.246837	-0.120928	10.299675	-0.009996	0.008264	0.006702	-1.165039	0.965820	-2.002930	-0.576443	1.347359	-112.338901
24998		-0.258860	-0.113188	10.339466	-0.010506	0.007759	0.008086	-1.163818	0.965332	-2.000488	-0.577284	1.347720	-112.337788
24999		-0.235531	-0.097980	10.252826	-0.009548	0.006676	0.006446	-1.171875	0.968018	-1.996094	-0.577585	1.347335	-112.337630
25000		-0.233734	-0.120910	10.318222	-0.009997	0.008265	0.006701	-1.169434	0.967041	-2.000977	-0.578203	1.347824	-112.337343
25001		-0.264307	-0.138817	10.313619	-0.006107	0.009495	0.005274	-1.164063	0.967041	-2.000000	-0.576550	1.349048	-112.337873
25002		-0.236740	-0.111717	10.285452	-0.012928	0.005953	0.006488	-1.166992	0.964844	-1.996094	-0.578839	1.348251	-112.337685
25003		-0.262741	-0.117932	10.339315	-0.005720	0.005814	0.006146	-1.161865	0.961914	-1.997314	-0.576952	1.347371	-112.337694
25004		-0.249147	-0.104796	10.325227	-0.012005	0.005559	0.008542	-1.157715	0.958252	-1.995361	-0.578652	1.346363	-112.336340
25005		-0.254182	-0.117592	10.266727	-0.007542	0.009387	0.004603	-1.166992	0.964600	-1.996338	-0.577830	1.347521	-112.337254
25006		-0.238319	-0.126301	10.318053	-0.007604	0.007293	0.005731	-1.169678	0.968018	-1.994873	-0.577022	1.347518	-112.337524
25007		-0.281282	-0.124503	10.320545	-0.009488	0.008773	0.005316	-1.167236	0.971436	-1.999023	-0.577305	1.348328	-112.338026
25008		-0.239940	-0.128088	10.317993	-0.008627	0.006284	0.008499	-1.163330	0.963623	-2.000488	-0.577176	1.347669	-112.336686
25009		-0.226375	-0.114775	10.303918	-0.005722	0.005815	0.006146	-1.161133	0.965820	-1.999756	-0.575290	1.346790	-112.336695
25010		-0.242518	-0.118580	10.285240	-0.009587	0.007369	0.010138	-1.159668	0.963379	-2.000000	-0.575579	1.346901	-112.334418
25011		-0.254514	-0.111000	10.325031	-0.013380	0.007547	0.006741	-1.163818	0.965576	-2.007080	-0.578073	1.347017	-112.334097
25012		-0.242793	-0.131665	10.317881	-0.004700	0.006826	0.003378	-1.173096	0.974854	-1.997803	-0.575620	1.346819	-112.335686
25013		-0.271523	-0.115668	10.306317	-0.009489	0.008776	0.005315	-1.164551	0.970947	-2.002441	-0.575903	1.347631	-112.336188
25014		-0.242668	-0.099573	10.310905	-0.009552	0.006682	0.006442	-1.172607	0.967285	-1.999756	-0.576362	1.347211	-112.336006
25015		-0.257688	-0.114503	10.324915	-0.008055	0.008886	0.005986	-1.167969	0.963379	-1.995361	-0.575815	1.348090	-112.336124
25016		-0.274028	-0.118437	10.306219	-0.010001	0.008272	0.006698	-1.166504	0.970215	-1.999023	-0.576420	1.348532	-112.335856
25017		-0.245208	-0.102174	10.310819	-0.005661	0.007911	0.005018	-1.160645	0.970215	-2.005859	-0.574514	1.348846	-112.336523
25018		-0.247592	-0.136680	10.317702	-0.008693	0.004193	0.009624	-1.163818	0.974121	-1.998535	-0.574372	1.347134	-112.334495
25019		-0.234001	-0.123439	10.303648	-0.007095	0.007803	0.004346	-1.168457	0.968750	-2.000732	-0.573297	1.347384	-112.335547
25020		-0.234861	-0.124282	10.303618	-0.009490	0.008779	0.005314	-1.161865	0.966064	-2.001465	-0.573715	1.348201	-112.336020
25021		-0.251240	-0.128400	10.284913	-0.012397	0.009250	0.007665	-1.160400	0.967773	-2.007080	-0.575633	1.349299	-112.335178
25022		-0.250280	-0.095750	10.277988	-0.010066	0.006180	0.007824	-1.168213	0.968506	-2.006348	-0.576229	1.348776	-112.334202
25023		-0.251558	-0.141443	10.317542	-0.007096	0.007805	0.004345	-1.168213	0.966797	-1.999268	-0.575155	1.349026	-112.335254
25024		-0.247650	-0.085780	10.336430	-0.010003	0.008276	0.006696	-1.173340	0.968750	-2.001953	-0.575756	1.349556	-112.334957
25025		-0.236077	-0.106519	10.329268	-0.009491	0.008782	0.005313	-1.164795	0.961426	-2.003174	-0.576041	1.350371	-112.335460
25026		-0.255217	-0.133123	10.284755	-0.007673	0.005205	0.006855	-1.159424	0.966797	-1.991943	-0.575262	1.349124	-112.335075
25027		-0.212606	-0.147907	10.314948	-0.012360	0.008567	0.003968	-1.171875	0.972168	-1.998779	-0.577209	1.349809	-112.336348
25028		-0.238373	-0.109408	10.329185	-0.007097	0.007806	0.004345	-1.164307	0.968750	-2.000244	-0.576271	1.350026	-112.337387
25029		-0.242101	-0.132987	10.303342	-0.009556	0.006688	0.006439	-1.170410	0.965576	-1.998291	-0.576578	1.349648	-112.337233
25030		-0.228590	-0.119813	10.289311	-0.007610	0.007301	0.005728	-1.160889	0.975098	-1.989502	-0.575842	1.349594	-112.337491
25031		-0.256129	-0.114902	10.310420	-0.008058	0.008892	0.005985	-1.168457	0.962646	-2.004883	-0.575297	1.350476	-112.337610
25032		-0.258752	-0.149561	10.317249	-0.009044	0.007195	0.005055	-1.166748	0.967285	-1.998535	-0.587129	1.350342	-112.340040
25033		-0.240439	-0.080047	10.322191	-0.011505	0.006077	0.007148	-1.170166	0.964111	-2.001953	-0.588550	1.349618	-112.339478
25034		-0.258359	-0.117707	10.310333	-0.006176	0.007410	0.006400	-1.160156	0.968506	-1.999023	-0.586952	1.349624	-112.339314
25035		-0.243725	-0.115408	10.328995	-0.007098	0.007809	0.004345	-1.162109	0.970459	-2.002441	-0.585886	1.349876	-112.340368
25036		-0.264040	-0.130934	10.251763	-0.010993	0.006584	0.005764	-1.169922	0.968018	-2.006348	-0.587111	1.349533	-112.340643
25037		-0.218519	-0.123126	10.307808	-0.010520	0.007776	0.008076	-1.167725	0.964600	-1.993408	-0.587956	1.349788	-112.339558
25038		-0.261483	-0.121427	10.310211	-0.010007	0.008282	0.006694	-1.171631	0.964600	-2.000244	-0.588561	1.350285	-112.339232
25039		-0.232674	-0.105361	10.314892	-0.008573	0.008389	0.007366	-1.157471	0.972168	-2.003662	-0.588300	1.350887	-112.338558
25040		-0.236453	-0.128960	10.289023	-0.009046	0.007198	0.005053	-1.171143	0.964355	-2.006104	-0.588392	1.350846	-112.339181
25041		-0.236030	-0.140848	10.321671	-0.006691	0.006906	0.007782	-1.165039	0.968018	-2.001709	-0.587047	1.350601	-112.338260
25042		-0.250319	-0.110849	10.296116	-0.010074	0.006188	0.007818	-1.169434	0.961182	-1.996826	-0.587642	1.349955	-112.337228
25043		-0.262458	-0.103164	10.335905	-0.009022	0.009981	0.007623	-1.170654	0.966797	-1.996094	-0.587635	1.351470	-112.336416
25044		-0.236657	-0.109832	10.314755	-0.009967	0.007600	0.002997	-1.167969	0.960449	-2.000732	-0.588256	1.351499	-112.338254
25045		-0.248601	-0.102112	10.354551	-0.008192	0.004704	0.008233	-1.161377	0.967285	-2.008057	-0.587764	1.349995	-112.337061
25046		-0.240885	-0.134318	10.288851	-0.009047	0.007201	0.005052	-1.166016	0.970215	-2.000732	-0.587768	1.349978	-112.337670
25047		-0.239806	-0.101438	10.282009	-0.009047	0.007201	0.005052	-1.165283	0.968262	-1.993896	-0.587809	1.349886	-112.338315
25048		-0.253753	-0.127494	10.328611	-0.008576	0.008392	0.007365	-1.168457	0.960449	-1.996582	-0.587652	1.350479	-112.337671
25049		-0.227822	-0.134112	10.307470	-0.009562	0.006696	0.006434	-1.171631	0.965332	-1.998535	-0.587969	1.350106	-112.337521
25050		-0.256395	-0.118238	10.295884	-0.009048	0.007203	0.005052	-1.162598	0.971680	-2.001953	-0.588010	1.349930	-112.338171
25051		-0.241718	-0.116180	10.314568	-0.008128	0.006802	0.007107	-1.165283	0.969482	-1.996094	-0.587498	1.349622	-112.337636
25052		-0.257985	-0.120120	10.295822	-0.011893	0.009773	0.006274	-1.163818	0.958496	-1.992188	-0.589264	1.351048	-112.337612
25053		-0.228072	-0.115192	10.333220	-0.006180	0.007414	0.006399	-1.161377	0.959961	-2.001709	-0.587645	1.351086	-112.337486
25054		-0.259617	-0.121753	10.295762	-0.008129	0.006803	0.007107	-1.164795	0.967041	-1.998291	-0.587076	1.350815	-112.337070
25055		-0.257385	-0.099955	10.321609	-0.009049	0.007205	0.005051	-1.164795	0.959961	-2.004639	-0.587118	1.350726	-112.337716
25056		-0.234397	-0.129311	10.274602	-0.010527	0.007784	0.008071	-1.163330	0.965332	-2.000977	-0.587947	1.351030	-112.336640
25057		-0.243496	-0.098908	10.340274	-0.006653	0.006226	0.004085	-1.169434	0.963867	-2.005615	-0.586629	1.350373	-112.337834
25058		-0.235934	-0.131070	10.274544	-0.010975	0.009375	0.008329	-1.165771	0.961670	-2.000488	-0.587715	1.351581	-112.336574
25059		-0.232489	-0.120506	10.333061	-0.007706	0.002434	0.004276	-1.160889	0.964600	-1.993408	-0.586998	1.348754	-112.337636
25060		-0.260906	-0.104536	10.321475	-0.009498	0.008798	0.005308	-1.160889	0.964844	-2.002930	-0.587304	1.349602	-112.338228
25061		-0.232731	-0.133461	10.365667	-0.008602	0.005616	0.004792	-1.165283	0.964844	-2.001221	-0.587094	1.348601	-112.339013
25062		-0.249950	-0.126079	10.314256	-0.008579	0.008397	0.007364	-1.167236	0.967285	-2.001465	-0.586835	1.349289	-112.338348
25063		-0.219930	-0.121231	10.351683	-0.010081	0.006195	0.007812	-1.157715	0.963623	-1.996094	-0.587431	1.348637	-112.337406
25064		-0.251418	-0.127918	10.314197	-0.007617	0.007313	0.005724	-1.160645	0.968506	-2.004639	-0.586678	1.348670	-112.337718
25065		-0.236924	-0.125944	10.332896	-0.010462	0.009885	0.006946	-1.163818	0.968262	-2.004883	-0.587505	1.350127	-112.337293
25066		-0.251325	-0.096017	10.307378	-0.009051	0.007209	0.005049	-1.161621	0.961670	-2.001953	-0.587584	1.350161	-112.337897
25067		-0.235705	-0.105271	10.358734	-0.010060	0.008977	0.010383	-1.163330	0.964844	-1.999023	-0.588134	1.351118	-112.335497
25068		-0.242392	-0.151337	10.306899	-0.005736	0.005827	0.006140	-1.168701	0.959473	-1.998291	-0.586248	1.350316	-112.335554
25069		-0.252515	-0.109801	10.339948	-0.011001	0.006601	0.005754	-1.165283	0.969727	-2.000488	-0.587399	1.349885	-112.335794
25070		-0.241873	-0.119396	10.300100	-0.009052	0.007211	0.005048	-1.166260	0.958252	-1.996338	-0.587460	1.349779	-112.336450
25071		-0.256807	-0.134401	10.313982	-0.009636	0.004607	0.007551	-1.170654	0.972168	-2.009521	-0.587805	1.348215	-112.335647
25072		-0.239173	-0.109877	10.358607	-0.009500	0.008804	0.005306	-1.173096	0.961426	-1.992920	-0.588101	1.349035	-112.336106
25073		-0.241148	-0.099658	10.325930	-0.009500	0.008804	0.005306	-1.166504	0.968750	-2.004883	-0.588399	1.349863	-112.336615
25074		-0.247835	-0.145889	10.274064	-0.010085	0.006200	0.007809	-1.163818	0.968262	-1.989746	-0.589027	1.349140	-112.335664
25075		-0.257923	-0.104465	10.307133	-0.008605	0.005622	0.004789	-1.167480	0.965088	-1.995850	-0.588818	1.348142	-112.336451
25076		-0.229886	-0.133451	10.351317	-0.009031	0.009993	0.007620	-1.170166	0.969238	-2.007324	-0.588918	1.349605	-112.335723
25077		-0.261452	-0.140064	10.313790	-0.008606	0.005623	0.004788	-1.163574	0.964355	-2.000000	-0.588710	1.348607	-112.336510
25078		-0.229554	-0.101386	10.344545	-0.008067	0.008909	0.005981	-1.171631	0.973389	-1.994873	-0.588196	1.349530	-112.336577
25079		-0.233318	-0.124890	10.318588	-0.009570	0.006708	0.006427	-1.166260	0.960938	-2.000244	-0.588518	1.349163	-112.336431
25080		-0.248265	-0.139976	10.332449	-0.010557	0.005014	0.005492	-1.171143	0.961914	-2.001221	-0.589492	1.347751	-112.336809
25081		-0.234599	-0.126814	10.318536	-0.007104	0.007825	0.004342	-1.162842	0.961182	-2.008301	-0.588429	1.348013	-112.337864
25082		-0.223840	-0.136151	10.278693	-0.008723	0.004207	0.009604	-1.165771	0.970215	-2.003174	-0.588146	1.346274	-112.335856
25083		-0.248442	-0.108706	10.325666	-0.007999	0.011010	0.004860	-1.167969	0.957031	-1.997803	-0.587590	1.348363	-112.336634
25084		-0.236950	-0.129278	10.318452	-0.008138	0.006813	0.007102	-1.169678	0.966553	-1.999756	-0.587076	1.348060	-112.336110
25085		-0.251095	-0.099196	10.292973	-0.009572	0.006711	0.006426	-1.161621	0.958008	-1.996582	-0.587399	1.347695	-112.335965
