// General information: 
//  MT Manager version: 2022.2.0 
//  XDA version: 2022.2.0 build 7381 rev 124627 built on 2023-07-19
// Device information: 
//  DeviceId: 00B4C3A0
//  ProductCode: MTW2-3A7G6
//  Firmware Version: 4.6.0
//  Hardware Version: 2.0.0
// Device settings: 
//  Filter Profile: human(46.1)
//  Option Flags: Orientation Smoother Disabled, Position/Velocity Smoother Disabled, Continuous Zero Rotation Update Disabled, AHS Disabled, ICC Disabled
// Coordinate system: ENU
PacketCounter	SampleTimeFine	Acc_X	Acc_Y	Acc_Z	Gyr_X	Gyr_Y	Gyr_Z	Mag_X	Mag_Y	Mag_Z	Roll	Pitch	Yaw
51975		9.171338	0.309753	3.519361	-0.012028	0.018479	0.008583	-0.727783	-0.181885	0.216309	5.170842	-69.271994	32.522562
51976		9.118573	0.321687	3.530138	-0.014844	0.016653	0.009228	-0.724609	-0.183105	0.228516	5.147439	-69.265069	32.540398
51977		9.147548	0.302196	3.529500	-0.010178	0.008320	0.012833	-0.727783	-0.184326	0.228516	5.123845	-69.263977	32.561413
51978		9.118779	0.288746	3.514862	-0.013179	0.006267	0.011968	-0.727783	-0.189941	0.222656	5.098822	-69.263311	32.584020
51979		9.135648	0.285003	3.485484	-0.018275	0.005122	0.008143	-0.728027	-0.178223	0.226318	5.078093	-69.263799	32.597013
51980		9.100534	0.294690	3.464723	-0.020590	-0.004966	0.005137	-0.733887	-0.192139	0.230713	5.060555	-69.269087	32.605902
51981		9.156825	0.323961	3.414153	-0.019208	-0.008526	0.000726	-0.721436	-0.185791	0.227051	5.052291	-69.276987	32.604994
51982		9.158149	0.317088	3.494195	-0.015430	-0.007227	-0.004679	-0.723389	-0.186523	0.227051	5.053074	-69.283161	32.595111
51983		9.175988	0.284947	3.447114	-0.009575	0.007419	-0.005918	-0.718994	-0.202148	0.227295	5.058228	-69.281626	32.585759
51984		9.175697	0.285429	3.447852	-0.010525	0.008028	-0.012131	-0.730225	-0.193115	0.223633	5.071289	-69.278711	32.560789
51985		9.171585	0.242723	3.489301	-0.005164	0.004169	-0.010798	-0.726563	-0.184570	0.221436	5.086764	-69.278781	32.543102
51986		9.241763	0.221640	3.531109	-0.004715	-0.000606	-0.011782	-0.731201	-0.190674	0.226563	5.103388	-69.280671	32.521994
51987		9.243459	0.162667	3.496628	-0.002805	-0.001741	-0.010332	-0.726807	-0.186279	0.222412	5.120313	-69.284134	32.504204
51988		9.243524	0.163386	3.496422	-0.002225	-0.002804	-0.007138	-0.732666	-0.183838	0.228760	5.131649	-69.287557	32.491201
51989		9.214134	0.181644	3.498259	-0.003451	0.002723	0.000118	-0.726807	-0.193115	0.220459	5.131835	-69.289007	32.490910
51990		9.165655	0.237973	3.466959	0.006713	0.006755	0.009105	-0.740723	-0.186768	0.225342	5.122454	-69.287808	32.505725
51991		9.151413	0.312975	3.473860	0.010109	0.007518	0.011656	-0.720703	-0.195068	0.229492	5.112348	-69.287111	32.524745
51992		9.144497	0.335096	3.469329	0.019297	0.013901	0.015764	-0.731201	-0.186035	0.223145	5.099286	-69.282222	32.550030
51993		9.113822	0.382284	3.489615	0.020785	0.015798	0.016864	-0.734375	-0.192871	0.224121	5.086334	-69.277061	32.578633
51994		9.103724	0.331085	3.509111	0.018930	0.013446	0.012745	-0.732422	-0.189453	0.227295	5.077590	-69.272185	32.599518
51995		9.161163	0.324527	3.523949	0.016626	0.015870	0.009608	-0.732910	-0.193604	0.223633	5.073205	-69.266612	32.616415
51996		9.167249	0.301515	3.530711	0.011559	0.012982	0.004447	-0.727051	-0.181396	0.221191	5.072942	-69.261618	32.622381
51997		9.208415	0.267607	3.558394	0.004686	0.016687	0.003343	-0.730713	-0.187500	0.227295	5.071058	-69.255261	32.629290
51998		9.202813	0.230577	3.520419	0.000053	0.023278	-0.001598	-0.726563	-0.187988	0.214355	5.071758	-69.244115	32.631593
51999		9.242957	0.226845	3.565719	-0.000592	0.015315	-0.001994	-0.732178	-0.187012	0.230469	5.075075	-69.238271	32.629706
52000		9.172215	0.249041	3.525361	0.009072	0.015178	-0.000198	-0.726318	-0.183350	0.224365	5.079983	-69.231775	32.630613
52001		9.178333	0.226532	3.532002	0.008006	0.010248	-0.000946	-0.729492	-0.184326	0.224365	5.087323	-69.228875	32.629692
52002		9.148551	0.244878	3.534802	0.012889	0.012909	0.002707	-0.733154	-0.185059	0.224121	5.090282	-69.223892	32.637743
52003		9.123675	0.276601	3.479296	0.013942	0.005328	0.003589	-0.727539	-0.182861	0.229004	5.094859	-69.224031	32.643414
52004		9.152077	0.288581	3.495005	0.014546	0.002523	0.005451	-0.729492	-0.184082	0.219238	5.096039	-69.225144	32.654719
52005		9.081737	0.310511	3.453636	0.018825	0.007988	0.007241	-0.728516	-0.186768	0.226318	5.097563	-69.223951	32.666648
52006		9.138258	0.334118	3.485825	0.018969	0.024213	0.011277	-0.728760	-0.187256	0.224121	5.089639	-69.212910	32.688451
52007		9.166604	0.315752	3.486807	0.018802	0.036493	0.009627	-0.724854	-0.185791	0.216553	5.083764	-69.195570	32.708283
52008		9.170240	0.352189	3.529817	0.013686	0.035274	0.016770	-0.721924	-0.197510	0.222656	5.063194	-69.178464	32.738842
52009		9.204206	0.340240	3.553698	0.009225	0.029581	0.013470	-0.724854	-0.187256	0.218506	5.047040	-69.165258	32.763804
52010		9.197788	0.332473	3.533001	0.012109	0.013662	0.008976	-0.732422	-0.182373	0.223145	5.040440	-69.160111	32.774006
52011		9.198222	0.302086	3.517016	0.009107	0.011611	0.008108	-0.732910	-0.184570	0.225342	5.034661	-69.156889	32.787797
52012		9.185599	0.317842	3.489876	0.009318	0.011911	-0.001357	-0.731934	-0.189697	0.227539	5.041850	-69.152265	32.789247
52013		9.121612	0.317427	3.454580	0.005715	0.012664	-0.004090	-0.729980	-0.193604	0.225098	5.052270	-69.147828	32.783624
52014		9.099151	0.283309	3.445944	0.001902	0.014933	-0.007001	-0.726318	-0.185791	0.224609	5.063577	-69.141229	32.770419
52015		9.103484	0.321096	3.486896	-0.000890	0.011366	-0.007692	-0.727295	-0.182617	0.223633	5.075772	-69.137349	32.758847
52016		9.144549	0.287847	3.514713	-0.009484	0.016435	-0.008756	-0.730957	-0.191895	0.228271	5.082774	-69.129819	32.747996
52017		9.183955	0.290461	3.479152	-0.006851	0.016214	-0.001263	-0.728027	-0.193848	0.221680	5.081277	-69.123499	32.747421
52018		9.256529	0.341630	3.499176	-0.009051	0.024095	0.001097	-0.732666	-0.189697	0.220459	5.073002	-69.112074	32.747489
52019		9.267946	0.325574	3.529464	-0.000666	0.020542	0.001985	-0.727051	-0.190186	0.228760	5.069622	-69.103447	32.752723
52020		9.231347	0.366166	3.527419	-0.000093	0.019483	0.005181	-0.739014	-0.181396	0.222900	5.060908	-69.094871	32.760907
52021		9.185058	0.356154	3.543466	0.001841	0.016604	0.005306	-0.736572	-0.182129	0.225342	5.054533	-69.088659	32.770885
52022		9.121072	0.354828	3.508282	0.003984	0.012210	0.005609	-0.733154	-0.185303	0.217773	5.048155	-69.084223	32.785508
52023		9.087155	0.329197	3.551973	0.005499	0.012363	0.005379	-0.729248	-0.195557	0.220947	5.044334	-69.080435	32.794997
52024		9.046064	0.332888	3.509431	0.004928	0.013422	0.002182	-0.731689	-0.184570	0.224121	5.043769	-69.075061	32.796672
52025		9.035817	0.282295	3.528915	0.001898	0.013116	0.002642	-0.732178	-0.184570	0.218262	5.041875	-69.070705	32.801889
52026		9.046265	0.302697	3.494120	0.001696	0.000381	0.001279	-0.722900	-0.177246	0.224365	5.042375	-69.072785	32.804919
52027		9.104176	0.296309	3.507820	-0.008853	-0.004178	0.000228	-0.728027	-0.185059	0.222168	5.040201	-69.078178	32.803840
52028		9.196577	0.285063	3.461632	-0.010368	-0.004331	0.000458	-0.736816	-0.185547	0.223389	5.035653	-69.083007	32.806911
52029		9.281247	0.350581	3.524875	-0.008089	-0.003194	-0.004708	-0.729248	-0.195557	0.220459	5.041160	-69.087590	32.798079
52030		9.283007	0.290983	3.490665	-0.004561	0.003101	-0.007620	-0.729980	-0.183350	0.227539	5.051195	-69.087662	32.782822
52031		9.282885	0.292141	3.490893	-0.002977	0.001583	-0.020156	-0.739990	-0.190918	0.221924	5.082078	-69.088736	32.749959
52032		9.255757	0.245885	3.539262	0.002874	0.003711	-0.021255	-0.730225	-0.192383	0.221924	5.116562	-69.087823	32.716113
52033		9.214910	0.252031	3.495940	0.003638	0.004696	-0.026192	-0.736816	-0.179932	0.220459	5.159833	-69.086795	32.674046
52034		9.174596	0.252692	3.533437	0.013131	0.006146	-0.035528	-0.727539	-0.181152	0.217041	5.221100	-69.083683	32.618338
52035		9.179744	0.263265	3.557087	0.011078	0.015997	-0.030330	-0.726563	-0.185059	0.222412	5.273241	-69.075961	32.571337
52036		9.133283	0.256610	3.573243	0.009054	0.024105	-0.026463	-0.729980	-0.184082	0.223877	5.316073	-69.063077	32.534689
52037		9.159755	0.300921	3.608278	0.007808	0.029639	-0.019222	-0.723877	-0.180908	0.220215	5.347801	-69.048140	32.507532
52038		9.134230	0.333768	3.554725	0.007491	0.034573	-0.005764	-0.722168	-0.191406	0.225098	5.357370	-69.030432	32.506314
52039		9.086326	0.354608	3.589292	0.006694	0.035332	0.000503	-0.729492	-0.189209	0.217041	5.358256	-69.013298	32.511498
52040		9.101272	0.381859	3.580003	-0.001952	0.040323	0.010399	-0.730713	-0.198975	0.223145	5.337836	-68.993143	32.530797
52041		9.146650	0.360470	3.552040	-0.001110	0.034261	0.011113	-0.730469	-0.191650	0.224854	5.318676	-68.977184	32.552667
52042		9.181369	0.318096	3.559386	-0.005181	0.037971	0.018988	-0.725586	-0.189941	0.225586	5.284209	-68.958838	32.582218
52043		9.151601	0.304484	3.547461	-0.001411	0.041005	0.014925	-0.734863	-0.192139	0.218994	5.258383	-68.939224	32.611050
52044		9.179557	0.285233	3.549753	0.001055	0.042370	0.011270	-0.734375	-0.190430	0.218506	5.238306	-68.917947	32.631822
52045		9.178021	0.284527	3.553778	0.006344	0.045558	0.006980	-0.729492	-0.185547	0.217285	5.228151	-68.895314	32.648628
52046		9.175405	0.314363	3.575062	0.005426	0.046157	0.000761	-0.727051	-0.188965	0.221436	5.225515	-68.871252	32.655434
52047		9.156130	0.323588	3.528404	0.008492	0.048275	-0.009339	-0.731934	-0.187012	0.214844	5.240342	-68.846214	32.646781
52048		9.073786	0.320048	3.606784	0.001808	0.055758	-0.017286	-0.728271	-0.187012	0.221191	5.260970	-68.815770	32.626281
52049		9.003334	0.307746	3.632364	0.002073	0.041807	-0.027930	-0.736572	-0.191406	0.214844	5.300274	-68.793440	32.587426
52050		9.024781	0.315244	3.628626	-0.000229	0.031722	-0.030931	-0.729980	-0.197510	0.221436	5.342941	-68.775960	32.541556
52051		9.006415	0.320469	3.660517	-0.008490	0.015788	-0.037020	-0.732422	-0.193604	0.222656	5.392984	-68.767964	32.484680
52052		9.057857	0.316291	3.572961	-0.018037	0.019631	-0.034697	-0.721191	-0.192871	0.227051	5.432775	-68.757225	32.426739
52053		9.028629	0.300247	3.640264	-0.026524	0.028400	-0.031629	-0.726074	-0.183594	0.216553	5.462725	-68.742300	32.380327
52054		9.043752	0.323211	3.711323	-0.029694	0.035061	-0.025857	-0.731934	-0.187744	0.217041	5.480483	-68.723303	32.344329
52055		9.065318	0.329069	3.707418	-0.026847	0.031585	-0.019505	-0.730469	-0.192139	0.224365	5.491948	-68.707215	32.317545
52056		9.077313	0.283855	3.721327	-0.023616	0.026823	-0.011462	-0.732422	-0.185791	0.223877	5.493146	-68.693626	32.302565
52057		9.070971	0.276807	3.700829	-0.025805	0.020452	-0.010298	-0.741211	-0.191650	0.215332	5.493274	-68.684390	32.288586
52058		9.099721	0.258282	3.701164	-0.031881	0.016268	-0.001089	-0.729248	-0.188965	0.217285	5.475922	-68.677338	32.289880
52059		9.086163	0.309316	3.610520	-0.029313	0.008851	-0.000420	-0.729492	-0.183838	0.228760	5.461233	-68.675261	32.289649
52060		9.074027	0.317449	3.663309	-0.027281	-0.002811	0.004029	-0.729492	-0.193604	0.221680	5.441776	-68.679501	32.297508
52061		9.102519	0.334562	3.598086	-0.027244	-0.004553	0.002696	-0.719727	-0.190430	0.216064	5.425584	-68.685238	32.300162
52062		9.078661	0.358379	3.621948	-0.033864	-0.004119	0.000391	-0.725098	-0.187988	0.228271	5.408019	-68.689954	32.297368
52063		9.082951	0.400710	3.581350	-0.038715	0.005716	-0.003428	-0.727051	-0.193115	0.220703	5.392781	-68.689503	32.291943
52064		9.100199	0.391345	3.632848	-0.034615	0.002023	-0.011298	-0.728516	-0.192139	0.216553	5.391035	-68.690192	32.273190
52065		9.099994	0.391169	3.633379	-0.045244	0.006235	-0.016710	-0.729248	-0.196045	0.221680	5.391407	-68.688730	32.246994
52066		9.130335	0.343520	3.615349	-0.054209	0.003641	-0.027681	-0.736328	-0.193848	0.211182	5.402166	-68.687475	32.200442
52067		9.084267	0.334325	3.630014	-0.064835	0.007851	-0.033094	-0.732910	-0.191650	0.222412	5.415036	-68.684203	32.148781
52068		9.129608	0.344777	3.617064	-0.069762	0.008665	-0.034115	-0.734619	-0.190186	0.215576	5.425423	-68.679654	32.094890
52069		9.111732	0.347580	3.647735	-0.066689	0.007237	-0.035900	-0.735352	-0.193604	0.215332	5.441394	-68.676572	32.038757
52070		9.152967	0.321484	3.594463	-0.064536	0.002848	-0.035601	-0.733154	-0.186279	0.223877	5.457676	-68.675235	31.983035
52071		9.153935	0.292706	3.577670	-0.053582	0.004403	-0.034140	-0.723877	-0.197266	0.208984	5.478968	-68.673853	31.929251
52072		9.161571	0.240764	3.566228	-0.056835	0.002012	-0.025569	-0.731934	-0.188477	0.212646	5.485187	-68.673605	31.889409
52073		9.150635	0.220264	3.601554	-0.053379	-0.000701	-0.025669	-0.731445	-0.188965	0.219727	5.494934	-68.675591	31.848143
52074		9.186780	0.186391	3.524866	-0.046891	0.000490	-0.011047	-0.731201	-0.193848	0.228027	5.485692	-68.676999	31.833926
52075		9.191966	0.192473	3.548229	-0.037654	0.010579	-0.002666	-0.732178	-0.182129	0.214600	5.469262	-68.673812	31.830433
52076		9.172798	0.229924	3.516085	-0.029720	0.018993	0.006113	-0.737061	-0.190186	0.213867	5.442221	-68.665719	31.846729
52077		9.160059	0.236778	3.570377	-0.028471	0.018810	0.015356	-0.732910	-0.193604	0.216553	5.403602	-68.658816	31.872707
52078		9.146312	0.279988	3.561077	-0.025550	0.011839	0.019020	-0.730469	-0.195557	0.219482	5.361120	-68.655347	31.905170
52079		9.151241	0.284302	3.585232	-0.024670	0.016542	0.018280	-0.734863	-0.194580	0.217041	5.320756	-68.649879	31.935360
52080		9.109159	0.315796	3.560332	-0.020721	0.019829	0.015759	-0.736084	-0.199463	0.221191	5.284915	-68.641739	31.961241
52081		9.049516	0.349842	3.565269	-0.023652	0.019635	0.005224	-0.730713	-0.187988	0.216797	5.263801	-68.633807	31.971391
52082		9.043516	0.341956	3.544166	-0.020888	0.016040	-0.000923	-0.735352	-0.193359	0.220947	5.252708	-68.626967	31.971601
52083		9.001662	0.375378	3.518587	-0.025022	0.005368	-0.006789	-0.731934	-0.195068	0.213135	5.250249	-68.626543	31.960877
52084		9.013495	0.359281	3.547117	-0.031517	0.000595	-0.013123	-0.730469	-0.204834	0.218506	5.252924	-68.627842	31.939402
52085		9.025470	0.343352	3.575264	-0.035980	-0.003356	-0.015143	-0.733398	-0.191650	0.216064	5.257539	-68.631957	31.914340
52086		9.044202	0.304206	3.608425	-0.042785	-0.006747	-0.010674	-0.733398	-0.203857	0.209229	5.251319	-68.637581	31.892710
52087		9.084869	0.306564	3.571206	-0.048246	-0.010200	-0.007939	-0.726074	-0.198486	0.213867	5.239323	-68.645980	31.877938
52088		9.102635	0.303401	3.540962	-0.051222	-0.005100	-0.001961	-0.725098	-0.195068	0.220459	5.215367	-68.651016	31.867953
52089		9.097543	0.294781	3.517582	-0.050028	-0.010723	0.001742	-0.739502	-0.193359	0.209717	5.188278	-68.660220	31.868292
52090		9.144990	0.272858	3.485302	-0.056830	-0.014121	0.006208	-0.738770	-0.192627	0.214355	5.150157	-68.670910	31.875777
52091		9.145383	0.270604	3.484444	-0.051963	-0.007856	0.001621	-0.727295	-0.191650	0.217773	5.121732	-68.678472	31.876359
52092		9.110676	0.279809	3.462956	-0.049780	-0.001476	0.000503	-0.724609	-0.190674	0.218750	5.094241	-68.681682	31.878463
52093		9.133343	0.275936	3.537021	-0.045470	0.005871	-0.007273	-0.735596	-0.193604	0.209961	5.080739	-68.680957	31.867021
52094		9.172056	0.300328	3.599451	-0.054020	0.009175	-0.009702	-0.727051	-0.200684	0.223389	5.064368	-68.677566	31.854466
52095		9.184870	0.253865	3.611070	-0.055686	0.012417	-0.019283	-0.730713	-0.202393	0.211182	5.061720	-68.672500	31.825087
52096		9.244679	0.188030	3.591337	-0.072854	0.009986	-0.021404	-0.738525	-0.193115	0.219482	5.051866	-68.668102	31.787392
52097		9.319671	0.179559	3.576663	-0.081428	0.002518	-0.022447	-0.735107	-0.197510	0.211914	5.040364	-68.668529	31.751682
52098		9.415203	0.234719	3.589963	-0.083954	-0.000795	-0.009189	-0.727295	-0.190186	0.215576	5.007352	-68.670855	31.737488
52099		9.389843	0.294805	3.551966	-0.068722	0.004501	-0.007181	-0.729980	-0.201660	0.212158	4.980565	-68.670924	31.726003
52100		9.335991	0.335704	3.578846	-0.053198	0.004824	-0.007699	-0.733887	-0.189941	0.220703	4.962367	-68.670153	31.714260
52101		9.226943	0.324287	3.555937	-0.041560	0.003754	-0.015344	-0.733154	-0.205078	0.224609	4.963169	-68.670246	31.689864
52102		9.224086	0.258821	3.497757	-0.038711	-0.003265	-0.024206	-0.725830	-0.197510	0.217773	4.978515	-68.673419	31.650627
52103		9.168733	0.198962	3.528556	-0.030781	0.001620	-0.030555	-0.731689	-0.198486	0.214111	5.008010	-68.673966	31.602061
52104		9.110570	0.198743	3.595395	-0.028817	0.009522	-0.031814	-0.731934	-0.199463	0.212158	5.038484	-68.669352	31.552265
52105		9.086988	0.195285	3.603942	-0.032161	0.026664	-0.028856	-0.728271	-0.188965	0.216064	5.061447	-68.655674	31.509858
52106		9.107380	0.231022	3.617724	-0.040110	0.034269	-0.022527	-0.733154	-0.196533	0.213379	5.068450	-68.637368	31.481507
52107		9.076506	0.248809	3.622792	-0.041983	0.037154	-0.010146	-0.734375	-0.201416	0.215088	5.057065	-68.618645	31.469931
52108		9.094439	0.349608	3.591736	-0.040209	0.025050	0.003649	-0.735840	-0.196289	0.223633	5.027100	-68.606900	31.478292
52109		9.139487	0.358029	3.580094	-0.023858	0.015681	0.012073	-0.724609	-0.195801	0.220215	4.996505	-68.601550	31.498500
52110		9.138997	0.356125	3.581535	-0.012326	0.014438	0.015416	-0.732910	-0.199463	0.215576	4.966831	-68.596639	31.525966
52111		9.150333	0.337986	3.611308	-0.010408	0.024069	0.015519	-0.729980	-0.203857	0.214111	4.937894	-68.586663	31.552673
52112		9.157476	0.284145	3.600877	-0.013536	0.025454	0.004813	-0.730225	-0.192871	0.218750	4.921691	-68.574773	31.560617
52113		9.077380	0.254847	3.577618	-0.013789	0.021577	-0.000918	-0.733398	-0.197266	0.212646	4.915078	-68.565407	31.561265
52114		9.049523	0.205261	3.625977	-0.020773	0.016197	-0.011838	-0.735596	-0.191162	0.211182	4.919928	-68.558027	31.546870
52115		9.077169	0.217494	3.643407	-0.027248	0.011452	-0.018217	-0.734863	-0.195801	0.218994	4.932009	-68.553589	31.519148
52116		9.088448	0.201897	3.672997	-0.032317	0.022820	-0.022111	-0.731201	-0.202148	0.212402	4.944210	-68.541895	31.491180
52117		9.115463	0.214308	3.691958	-0.030531	0.037628	-0.017946	-0.730469	-0.198730	0.214844	4.950691	-68.522526	31.467450
52118		9.124921	0.236182	3.660912	-0.028936	0.041454	-0.013944	-0.727051	-0.193115	0.212402	4.950818	-68.500582	31.449523
52119		9.133064	0.287075	3.647609	-0.018740	0.034873	-0.001940	-0.730225	-0.207031	0.217529	4.941171	-68.483576	31.450383
52120		9.132106	0.286441	3.650058	-0.011135	0.017819	0.003896	-0.723633	-0.203613	0.207764	4.928647	-68.476061	31.457451
52121		9.064503	0.373376	3.667375	-0.008758	0.006539	0.011246	-0.726807	-0.196777	0.216797	4.909185	-68.475877	31.475010
52122		9.052416	0.388414	3.639982	-0.005349	0.005565	0.012491	-0.737793	-0.198975	0.208008	4.889097	-68.475747	31.493297
52123		9.013568	0.361994	3.578609	-0.009980	0.008519	0.015842	-0.727051	-0.199951	0.217285	4.862038	-68.474652	31.518270
52124		8.990431	0.355208	3.586101	-0.011997	0.007724	0.011514	-0.731201	-0.198486	0.209717	4.839201	-68.473201	31.536365
52125		8.962006	0.342284	3.570714	-0.016289	0.009375	0.004049	-0.728271	-0.191895	0.208984	4.825497	-68.471040	31.543095
52126		9.004616	0.277979	3.579760	-0.016490	0.003780	-0.003040	-0.730225	-0.199707	0.207520	4.821520	-68.471104	31.540725
52127		9.039225	0.266523	3.601487	-0.021959	0.005686	-0.007261	-0.734131	-0.198730	0.212402	4.821387	-68.470505	31.529375
52128		9.107803	0.281975	3.581645	-0.019762	-0.000419	-0.008347	-0.729980	-0.207275	0.214600	4.823827	-68.472699	31.515457
52129		9.141231	0.300140	3.620690	-0.019001	-0.003031	-0.004996	-0.722900	-0.208252	0.209717	4.823178	-68.477185	31.506483
52130		9.188510	0.280819	3.589185	-0.011098	-0.001785	-0.003041	-0.724609	-0.194336	0.208984	4.823434	-68.480475	31.494143
52131		9.200969	0.272770	3.536494	-0.009416	-0.001411	-0.001741	-0.738037	-0.196533	0.216309	4.823368	-68.484193	31.490446
52132		9.241056	0.267958	3.580550	-0.009584	-0.001620	-0.003256	-0.732422	-0.195557	0.210693	4.824341	-68.487399	31.487539
52133		9.201140	0.272583	3.536063	-0.007264	-0.005791	-0.001474	-0.731201	-0.208496	0.207031	4.825659	-68.493631	31.483680
52134		9.148918	0.285159	3.543888	-0.005706	-0.007349	-0.003043	-0.725586	-0.205322	0.219482	4.829401	-68.500023	31.475340
52135		9.166225	0.275373	3.594356	0.000045	-0.001724	-0.001354	-0.729004	-0.193359	0.213379	4.834238	-68.503939	31.472200
52136		9.159504	0.298506	3.589490	0.003901	0.005042	-0.001125	-0.738281	-0.197021	0.223633	4.839258	-68.503543	31.470415
52137		9.149616	0.247444	3.607008	-0.004563	0.011999	0.000661	-0.731689	-0.202637	0.210449	4.836851	-68.499721	31.472223
52138		9.147747	0.276493	3.626115	-0.007467	0.013600	0.003959	-0.728271	-0.207520	0.218018	4.826859	-68.494647	31.479716
52139		9.108806	0.251051	3.564880	-0.004508	0.004884	0.006221	-0.732910	-0.200439	0.216553	4.817300	-68.495154	31.489245
52140		9.111159	0.315937	3.623861	0.002397	-0.000514	0.006004	-0.732422	-0.204346	0.214600	4.811916	-68.498260	31.494646
52141		9.076365	0.326878	3.602655	0.008238	0.001663	0.004986	-0.730469	-0.202393	0.207764	4.811841	-68.500547	31.501830
52142		9.034850	0.360896	3.576603	0.009706	0.003552	0.006126	-0.731445	-0.203857	0.211426	4.809872	-68.501208	31.508342
52143		9.041357	0.337919	3.581981	0.013867	0.005354	0.003807	-0.734619	-0.199951	0.223145	4.814280	-68.501330	31.514174
52144		9.008821	0.281881	3.605497	0.011568	-0.002970	0.002010	-0.729004	-0.200195	0.212891	4.820160	-68.505635	31.514556
52145		9.056251	0.263227	3.573579	0.003465	-0.009806	-0.007038	-0.724365	-0.202637	0.216064	4.836190	-68.513891	31.501493
52146		9.127575	0.212021	3.597261	0.003465	-0.009806	-0.007038	-0.725586	-0.200684	0.218262	4.851432	-68.521643	31.486855
52147		9.157187	0.194877	3.595379	0.000159	0.005598	-0.005401	-0.732910	-0.207520	0.206543	4.861311	-68.521181	31.478367
52148		9.188813	0.242802	3.653299	0.003341	0.013244	0.002614	-0.732666	-0.203857	0.210938	4.859648	-68.516173	31.480128
52149		9.192769	0.287034	3.614645	0.005996	0.009492	0.007426	-0.725586	-0.202148	0.205322	4.853785	-68.514110	31.492151
52150		9.191165	0.315980	3.633083	0.010422	0.002666	0.010830	-0.731201	-0.197021	0.207031	4.845486	-68.515461	31.506354
52151		9.151045	0.320072	3.589198	0.013404	0.004720	0.011754	-0.729248	-0.197754	0.218506	4.838176	-68.516331	31.524494
52152		9.139971	0.298114	3.624037	0.016734	0.000086	0.008779	-0.733398	-0.196289	0.217285	4.836664	-68.519163	31.539210
52153		9.117105	0.292952	3.630653	0.013037	-0.001082	0.003150	-0.732910	-0.203613	0.213623	4.842336	-68.522929	31.543171
52154		9.071234	0.282879	3.644209	0.013701	0.005143	0.002290	-0.729980	-0.200439	0.226074	4.847957	-68.522585	31.546358
52155		9.042843	0.271425	3.628595	0.008355	0.008984	0.000935	-0.732422	-0.195313	0.213867	4.852922	-68.520498	31.548197
52156		9.086864	0.311225	3.634022	0.006919	0.012478	0.005370	-0.729492	-0.203125	0.217529	4.849305	-68.516222	31.558391
52157		9.086496	0.310833	3.634975	0.001289	0.008789	0.006550	-0.727783	-0.200439	0.214600	4.842102	-68.514518	31.568956
52158		9.125572	0.343365	3.616838	-0.000085	-0.001936	0.009624	-0.727539	-0.201416	0.216797	4.830193	-68.518600	31.580873
52159		9.107921	0.343800	3.646501	-0.002068	0.002654	0.010868	-0.732910	-0.197998	0.214844	4.815553	-68.520605	31.597363
52160		9.142709	0.332024	3.667783	0.003619	-0.002491	0.001409	-0.731201	-0.194336	0.212646	4.817673	-68.524596	31.597973
52161		9.134997	0.260364	3.586249	0.006263	0.004529	-0.007614	-0.729492	-0.200684	0.212402	4.834393	-68.524640	31.585891
52162		9.174769	0.256500	3.630977	0.001297	0.007065	-0.007294	-0.732666	-0.200195	0.219971	4.846539	-68.522693	31.575966
52163		9.152891	0.222671	3.620696	-0.001400	0.012541	-0.010755	-0.736328	-0.194092	0.217529	4.862437	-68.518008	31.560049
52164		9.158255	0.238483	3.564199	0.000661	0.011610	-0.007779	-0.730957	-0.199707	0.208740	4.874353	-68.513544	31.550302
52165		9.163090	0.245610	3.588085	0.003100	0.009374	-0.003126	-0.728516	-0.202148	0.211670	4.882147	-68.511037	31.545865
52166		9.097087	0.304099	3.587011	0.006420	0.006463	0.007746	-0.723389	-0.203857	0.219971	4.875560	-68.510118	31.556848
52167		9.108730	0.287177	3.615575	0.006587	0.006673	0.009260	-0.733643	-0.196045	0.209229	4.867726	-68.509755	31.571354
52168		9.119536	0.307913	3.581607	0.010070	0.009357	0.014728	-0.735840	-0.196045	0.209961	4.852797	-68.507624	31.594091
52169		9.078552	0.303194	3.618949	0.011115	0.014276	0.015543	-0.733887	-0.196777	0.215088	4.837518	-68.503222	31.619386
52170		9.101000	0.307520	3.613502	0.010615	0.013646	0.010999	-0.727051	-0.194092	0.212158	4.827588	-68.498390	31.639751
52171		9.101880	0.277420	3.597025	0.005105	0.017277	0.008125	-0.730469	-0.199951	0.214600	4.819264	-68.491913	31.653873
52172		9.165465	0.248108	3.618511	-0.001283	0.021583	-0.000970	-0.729248	-0.200195	0.216064	4.819026	-68.482030	31.655578
52173		9.187520	0.253429	3.614014	-0.002251	0.025708	-0.004486	-0.732666	-0.200195	0.210205	4.823726	-68.470133	31.651170
52174		9.191876	0.260596	3.639038	0.004320	0.019885	-0.007719	-0.722656	-0.203613	0.208984	4.836737	-68.460873	31.639878
52175		9.208903	0.260001	3.611158	0.009618	0.017768	-0.005005	-0.733887	-0.192871	0.217773	4.849945	-68.453483	31.633632
52176		9.177347	0.308271	3.632010	0.016309	0.013880	-0.005369	-0.731445	-0.195068	0.221191	4.867126	-68.447799	31.626589
52177		9.166479	0.296034	3.587332	0.018533	0.013161	-0.000877	-0.729004	-0.202393	0.211914	4.880031	-68.443240	31.626162
52178		9.179163	0.250766	3.598871	0.015035	0.017586	0.000575	-0.732422	-0.191650	0.212402	4.887460	-68.435785	31.628536
52179		9.117948	0.316475	3.621542	0.017641	0.020944	-0.000177	-0.727539	-0.191650	0.215576	4.897877	-68.426816	31.630235
52180		9.124569	0.302403	3.548048	0.019275	0.023044	0.002476	-0.732422	-0.204102	0.207031	4.904068	-68.416314	31.641595
52181		9.165084	0.268634	3.576587	0.016247	0.022715	0.002900	-0.731689	-0.206787	0.214600	4.909023	-68.406485	31.648309
52182		9.150950	0.314637	3.568689	0.012703	0.028867	0.005699	-0.732178	-0.197510	0.223145	4.906471	-68.392704	31.655039
52183		9.160115	0.327609	3.617500	0.007269	0.036158	0.007032	-0.731934	-0.198486	0.219238	4.898680	-68.375403	31.669930
52184		9.125655	0.309203	3.581386	0.011741	0.032987	0.002179	-0.729980	-0.202881	0.210938	4.900060	-68.359347	31.677156
52185		9.114890	0.258301	3.600881	0.011448	0.025461	0.004724	-0.730469	-0.195313	0.212158	4.899326	-68.348039	31.687035
52186		9.089669	0.282619	3.627369	0.009053	0.020589	0.005638	-0.734375	-0.202637	0.214600	4.895685	-68.339046	31.697061
52187		9.072625	0.254372	3.640883	0.009264	0.019074	0.005802	-0.727295	-0.193604	0.216064	4.892948	-68.331437	31.707751
52188		9.099334	0.303484	3.596638	0.010169	0.029170	0.010663	-0.735840	-0.202393	0.211670	4.881703	-68.317874	31.727291
52189		9.084005	0.340310	3.669878	0.004900	0.036673	0.013502	-0.734619	-0.197021	0.208008	4.863280	-68.300592	31.752172
52190		9.110635	0.350920	3.689865	-0.002375	0.043379	0.012008	-0.723633	-0.195801	0.213623	4.841189	-68.278836	31.774583
52191		9.107554	0.379577	3.711692	-0.008318	0.044647	0.003222	-0.733643	-0.199707	0.214600	4.829029	-68.256498	31.784577
52192		9.109497	0.415243	3.756550	-0.015238	0.044662	-0.002162	-0.729004	-0.198975	0.220215	4.819867	-68.233474	31.786133
52193		9.087458	0.388844	3.668931	-0.023017	0.045345	-0.013770	-0.739258	-0.191650	0.208496	4.823517	-68.209919	31.770035
52194		9.109194	0.356590	3.728936	-0.028509	0.036485	-0.016656	-0.734863	-0.195313	0.214844	4.828302	-68.190855	31.750508
52195		9.091477	0.329212	3.743813	-0.035118	0.031534	-0.024582	-0.731689	-0.199707	0.208496	4.842060	-68.174661	31.716050
52196		9.080248	0.316726	3.700567	-0.043362	0.024491	-0.022675	-0.732666	-0.197998	0.204346	4.848369	-68.162103	31.684334
52197		9.057890	0.282208	3.691541	-0.047210	0.023113	-0.017343	-0.732422	-0.201660	0.212402	4.845856	-68.151064	31.659935
52198		9.068358	0.303246	3.659105	-0.054248	0.021194	-0.013111	-0.733154	-0.196045	0.206055	4.832717	-68.140791	31.641046
52199		9.026583	0.298509	3.697349	-0.050994	0.025388	-0.007795	-0.725830	-0.197998	0.208252	4.814165	-68.128916	31.631590
52200		9.060246	0.285923	3.721278	-0.056840	0.023213	-0.006804	-0.740723	-0.196777	0.212158	4.790260	-68.117812	31.624905
52201		9.065513	0.299452	3.666460	-0.054752	0.033043	-0.005165	-0.727783	-0.194092	0.205811	4.764921	-68.101696	31.620440
52202		9.103740	0.293084	3.714513	-0.050568	0.040218	-0.001892	-0.728516	-0.205322	0.209229	4.735546	-68.081144	31.625169
52203		9.159558	0.285102	3.733993	-0.048371	0.051978	0.002621	-0.734131	-0.199463	0.204590	4.700638	-68.054584	31.634961
52204		9.255962	0.280640	3.718536	-0.050616	0.059795	0.005047	-0.732178	-0.203613	0.201904	4.659464	-68.023147	31.647170
52205		9.293021	0.273326	3.769442	-0.050303	0.072692	0.008093	-0.737793	-0.204834	0.204346	4.613460	-67.985006	31.667738
52206		9.308181	0.269443	3.747273	-0.049835	0.080423	0.007077	-0.738037	-0.198730	0.207031	4.567680	-67.941788	31.684312
52207		9.287129	0.268402	3.784288	-0.047116	0.080336	0.003631	-0.738281	-0.200684	0.206299	4.529153	-67.899066	31.698795
52208		9.231482	0.317401	3.737275	-0.048370	0.084048	-0.002920	-0.739746	-0.199219	0.204346	4.497945	-67.853423	31.704261
52209		9.188992	0.321165	3.700338	-0.055678	0.081734	-0.014242	-0.739014	-0.197754	0.200195	4.479584	-67.809096	31.691680
52210		9.103905	0.350953	3.716632	-0.058488	0.074519	-0.019268	-0.740967	-0.195557	0.201660	4.466500	-67.768100	31.672437
52211		9.043630	0.356955	3.708128	-0.059105	0.073693	-0.025338	-0.732422	-0.194336	0.202637	4.462540	-67.727872	31.642166
52212		8.877979	0.350036	3.777079	-0.057949	0.075163	-0.027222	-0.745605	-0.204346	0.203613	4.460650	-67.686216	31.614025
52213		8.858452	0.322113	3.795540	-0.057477	0.082893	-0.028225	-0.737061	-0.196777	0.206787	4.460527	-67.640606	31.580597
52214		8.808054	0.246818	3.755967	-0.053084	0.076060	-0.024802	-0.738037	-0.206543	0.194824	4.458024	-67.598597	31.552833
52215		8.854954	0.198822	3.713682	-0.050094	0.065626	-0.023893	-0.736572	-0.190918	0.200439	4.457876	-67.563043	31.523988
52216		8.898501	0.171024	3.768741	-0.039537	0.048906	-0.018434	-0.740479	-0.211182	0.203857	4.457057	-67.536719	31.503942
52217		8.921822	0.147388	3.747996	-0.026352	0.030199	-0.019278	-0.737549	-0.201172	0.206055	4.467881	-67.521607	31.477934
52218		8.989541	0.125792	3.794064	-0.006700	0.021618	-0.020541	-0.729492	-0.201416	0.202637	4.492002	-67.510928	31.446715
52219		9.004891	0.155627	3.785454	0.004707	0.034570	-0.015644	-0.733154	-0.199951	0.195068	4.515076	-67.493476	31.426703
52220		8.942356	0.221699	3.809399	0.012711	0.041369	-0.006486	-0.730957	-0.200928	0.194092	4.528549	-67.472076	31.422392
52221		8.900523	0.295169	3.723276	0.014207	0.027282	0.004399	-0.733398	-0.207764	0.198486	4.530218	-67.459690	31.431443
52222		8.860851	0.300011	3.679745	0.017754	0.006905	0.012690	-0.737305	-0.206543	0.193604	4.524026	-67.458776	31.448761
52223		8.854441	0.322087	3.674434	0.021602	-0.013066	0.024018	-0.739014	-0.196533	0.198730	4.507321	-67.470320	31.482292
52224		8.883183	0.370495	3.627861	0.020843	-0.012219	0.031799	-0.732666	-0.199463	0.199463	4.478464	-67.481151	31.528415
52225		8.941072	0.362417	3.642520	0.013759	-0.010676	0.026199	-0.733154	-0.199219	0.199219	4.453943	-67.491416	31.565536
52226		9.014768	0.344232	3.708881	0.010625	-0.000453	0.023764	-0.732666	-0.202393	0.199463	4.429062	-67.495266	31.602031
52227		9.127650	0.359863	3.758660	0.005640	0.005561	0.014260	-0.733154	-0.207520	0.198242	4.414587	-67.495717	31.623241
52228		9.229267	0.392902	3.780220	0.003961	-0.003800	0.003118	-0.730957	-0.203369	0.199951	4.414928	-67.500532	31.623786
52229		9.259166	0.375907	3.778209	0.004556	-0.013844	-0.016002	-0.738281	-0.196777	0.192627	4.443641	-67.510730	31.597577
52230		9.245045	0.320357	3.769782	0.002551	-0.018258	-0.024588	-0.730957	-0.199219	0.200684	4.482751	-67.522513	31.558939
52231		9.245623	0.323074	3.768130	0.004767	-0.017225	-0.031211	-0.730957	-0.191895	0.199219	4.533015	-67.533944	31.509544
52232		9.174164	0.274849	3.743905	0.009161	-0.016926	-0.033321	-0.734619	-0.200439	0.196777	4.587846	-67.544666	31.461536
52233		9.096009	0.249490	3.715054	0.000687	-0.009995	-0.031614	-0.731445	-0.205322	0.201416	4.635620	-67.551915	31.412314
52234		9.060853	0.198122	3.633088	0.005083	-0.007826	-0.018357	-0.734863	-0.201660	0.197021	4.666688	-67.558043	31.382358
52235		9.052204	0.213428	3.708130	0.003635	-0.000718	-0.009695	-0.730225	-0.198975	0.201416	4.684839	-67.560996	31.367016
52236		9.072953	0.210128	3.782560	0.002550	0.005080	0.000643	-0.738770	-0.206787	0.202393	4.686628	-67.560652	31.369254
52237		9.064149	0.262155	3.796534	0.007103	0.014578	0.009871	-0.735107	-0.204346	0.200684	4.677981	-67.555785	31.385056
52238		9.075219	0.283189	3.763804	0.006926	0.019730	0.013943	-0.729248	-0.208252	0.198486	4.662403	-67.547706	31.405408
52239		9.079265	0.288518	3.788638	0.013652	0.019500	0.017863	-0.729248	-0.207275	0.210693	4.645929	-67.540398	31.433741
52240		9.068159	0.369118	3.821861	0.012601	0.027066	0.017063	-0.739258	-0.203369	0.198242	4.628759	-67.528391	31.457119
52241		9.000448	0.361250	3.762148	0.011868	0.022562	0.019257	-0.731445	-0.203125	0.192871	4.609035	-67.519392	31.487867
52242		8.958557	0.356117	3.798992	0.016125	0.010177	0.015592	-0.746094	-0.199707	0.196777	4.597462	-67.516715	31.510510
52243		8.960301	0.325903	3.781233	0.016289	-0.002098	0.017071	-0.732910	-0.208496	0.209473	4.586038	-67.521692	31.535017
52244		8.937676	0.319811	3.786508	0.013177	-0.016832	0.014554	-0.737305	-0.200928	0.196289	4.577287	-67.534543	31.552518
52245		8.969796	0.271807	3.765722	0.006965	-0.017705	0.013825	-0.738770	-0.203857	0.195313	4.566700	-67.548283	31.570335
52246		9.016530	0.281567	3.751821	0.001092	-0.016406	0.004995	-0.731201	-0.199707	0.195557	4.564025	-67.560279	31.574480
52247		9.120526	0.285535	3.753867	0.005371	-0.012674	0.005599	-0.736084	-0.199951	0.211426	4.563325	-67.570769	31.580610
52248		9.132299	0.269130	3.780821	0.007283	-0.012053	-0.004057	-0.733643	-0.198975	0.201416	4.576322	-67.580087	31.573489
52249		9.174073	0.274206	3.744175	0.014614	-0.013346	-0.009435	-0.738037	-0.200195	0.199463	4.601815	-67.590273	31.557013
52250		9.191041	0.303470	3.731645	0.012400	-0.014375	-0.002813	-0.728760	-0.200928	0.207031	4.616211	-67.600877	31.551750
52251		9.114165	0.340926	3.761748	0.012668	-0.017607	-0.004008	-0.729004	-0.196289	0.198486	4.633576	-67.613744	31.542860
52252		9.118375	0.282735	3.724175	0.009674	-0.014300	0.000616	-0.730225	-0.197266	0.197510	4.641771	-67.624563	31.542966
52253		9.073109	0.310532	3.673158	0.006565	-0.007556	0.007953	-0.730713	-0.194092	0.203125	4.637928	-67.632243	31.553231
52254		9.058818	0.252255	3.665505	0.001075	-0.011045	0.010584	-0.729980	-0.197754	0.202393	4.626820	-67.641598	31.570964
52255		9.093629	0.239627	3.686362	0.000531	-0.011701	0.018526	-0.735840	-0.204346	0.210693	4.605285	-67.652131	31.596620
52256		9.098931	0.244134	3.708248	-0.000108	-0.014280	0.023595	-0.740723	-0.193848	0.199707	4.576014	-67.664042	31.629560
52257		9.145308	0.252474	3.695166	0.002707	0.000045	0.023070	-0.743164	-0.198730	0.202393	4.548058	-67.668064	31.663501
52258		9.161685	0.278656	3.684315	-0.001731	0.008589	0.020986	-0.737061	-0.193115	0.199707	4.518522	-67.666597	31.699293
52259		9.085783	0.284230	3.698720	0.002662	0.008882	0.018874	-0.738525	-0.193604	0.202637	4.495397	-67.665370	31.727985
52260		9.077317	0.335238	3.712229	0.006071	0.002545	0.014570	-0.728271	-0.197998	0.200195	4.479890	-67.667103	31.754942
52261		9.015149	0.334276	3.673584	0.007033	0.000174	0.006950	-0.739990	-0.202393	0.201904	4.476796	-67.670311	31.764685
52262		8.964821	0.355684	3.600274	0.007049	-0.005187	0.001366	-0.729248	-0.189941	0.203857	4.481400	-67.675872	31.764814
52263		8.958417	0.378640	3.594914	0.008605	-0.001379	0.005395	-0.728027	-0.199463	0.206055	4.481534	-67.679898	31.772039
52264		8.970448	0.400384	3.559815	0.013209	-0.015080	0.003414	-0.725830	-0.197021	0.197510	4.487841	-67.691353	31.778027
52265		8.966809	0.432359	3.472415	0.009971	-0.026378	0.003619	-0.735840	-0.199951	0.208984	4.493960	-67.709579	31.779629
52266		9.006804	0.438358	3.329778	0.000035	-0.053396	0.009661	-0.732666	-0.200195	0.196777	4.488312	-67.743129	31.787433
52267		9.094577	0.481298	3.293889	0.001193	-0.076885	0.007722	-0.737061	-0.199951	0.207520	4.489203	-67.790389	31.789248
52268		9.158088	0.498663	3.528599	-0.011083	-0.053455	0.007862	-0.733154	-0.197021	0.203613	4.479671	-67.823826	31.793296
52269		9.156859	0.621500	3.621952	-0.022783	0.011718	0.004390	-0.734619	-0.203613	0.205566	4.461746	-67.820326	31.800596
52270		9.153567	0.782299	3.658990	-0.040387	0.076434	0.003238	-0.729980	-0.194580	0.204346	4.427798	-67.779416	31.812839
52271		9.070139	0.857961	3.534665	-0.072648	0.129380	-0.002543	-0.733398	-0.188232	0.199463	4.378370	-67.708391	31.823312
52272		8.991565	0.871835	3.481633	-0.121378	0.157500	-0.015855	-0.736084	-0.198486	0.202637	4.315978	-67.620342	31.822342
52273		8.910865	0.676036	3.541160	-0.161480	0.194835	-0.039128	-0.736816	-0.197754	0.210205	4.259919	-67.510343	31.784938
52274		8.811700	0.414049	3.675916	-0.234302	0.214831	-0.081505	-0.742920	-0.205566	0.196289	4.218003	-67.386904	31.688800
52275		8.800111	0.034218	3.746828	-0.307486	0.205751	-0.118895	-0.737549	-0.205811	0.196289	4.186290	-67.267341	31.534284
52276		8.968775	-0.372903	3.684392	-0.352487	0.206109	-0.159150	-0.735596	-0.212891	0.187012	4.182386	-67.145483	31.318835
52277		9.302408	-0.703556	3.621957	-0.358032	0.243082	-0.195693	-0.734375	-0.213623	0.182617	4.220011	-67.001365	31.057302
52278		9.483096	-1.094511	3.710635	-0.340016	0.269476	-0.228898	-0.734131	-0.210449	0.183350	4.307388	-66.840071	30.745507
52279		9.723829	-1.236689	3.647990	-0.305217	0.258826	-0.237830	-0.734131	-0.211182	0.187500	4.425172	-66.684828	30.429064
52280		9.829145	-1.202503	3.615908	-0.225826	0.209809	-0.211314	-0.731201	-0.217041	0.184814	4.555079	-66.558146	30.147458
52281		9.664185	-0.870045	3.400728	-0.161130	0.154566	-0.154430	-0.741211	-0.213867	0.179932	4.651894	-66.465767	29.943295
52282		9.471462	-0.582321	3.016304	-0.097948	0.063488	-0.082452	-0.738037	-0.210205	0.177734	4.698715	-66.428349	29.831646
52283		9.431851	-0.304408	3.033513	-0.127426	0.003871	-0.022999	-0.735107	-0.217041	0.181885	4.657936	-66.428060	29.798540
52284		9.524993	-0.292909	3.112957	-0.297457	-0.027882	0.007436	-0.739990	-0.214600	0.179199	4.482134	-66.447041	29.807520
52285		10.060214	-0.051357	2.798038	-0.329154	-0.042398	0.027792	-0.732910	-0.211914	0.186523	4.263855	-66.475474	29.841961
52286		10.020818	-0.142331	2.975371	-0.180892	-0.003061	0.022180	-0.733643	-0.208008	0.176025	4.132756	-66.481043	29.876331
52287		9.810578	-0.177294	3.148740	-0.111416	0.032040	0.001922	-0.743896	-0.220215	0.168701	4.065858	-66.465810	29.881730
52288		9.714757	-0.134581	3.135296	-0.133910	0.101301	-0.006167	-0.736816	-0.224121	0.173340	3.988982	-66.410297	29.884688
52289		9.511653	-0.027531	3.082630	-0.131279	0.205169	-0.012667	-0.737793	-0.219727	0.183105	3.914254	-66.295522	29.886216
52290		9.186813	-0.050749	2.935194	-0.136850	0.239041	-0.023448	-0.744141	-0.204834	0.167725	3.846852	-66.160884	29.872873
52291		8.968730	-0.276768	2.919273	-0.186423	0.256626	-0.029688	-0.733643	-0.224365	0.165771	3.758755	-66.016043	29.854466
52292		8.746373	-0.743123	2.727770	-0.233690	0.212621	-0.032999	-0.739014	-0.221191	0.171387	3.650511	-65.896008	29.829819
52293		8.586008	-1.024995	2.881533	-0.233396	0.128595	-0.033862	-0.742920	-0.226807	0.169922	3.552064	-65.824256	29.793228
52294		8.710692	-0.957563	3.080005	-0.192371	0.099758	-0.019425	-0.736816	-0.220947	0.162354	3.460193	-65.769546	29.772160
52295		8.729285	-0.937930	3.333751	-0.130137	0.150768	0.003663	-0.730225	-0.225342	0.164795	3.371945	-65.686442	29.789243
52296		8.613189	-0.899938	3.483016	-0.082438	0.200739	0.036083	-0.731934	-0.215576	0.157227	3.265699	-65.575784	29.852703
52297		8.407442	-0.874452	3.575579	-0.032339	0.216338	0.095032	-0.736816	-0.223633	0.162598	3.114979	-65.458055	30.000029
52298		8.272123	-0.825796	3.549270	0.037998	0.192093	0.148308	-0.729980	-0.213867	0.157227	2.939584	-65.355611	30.217718
52299		8.165266	-0.630984	3.585524	0.131315	0.185488	0.224161	-0.736816	-0.215576	0.159912	2.726708	-65.258815	30.536906
52300		8.076633	-0.272733	3.657806	0.246150	0.205199	0.318724	-0.738770	-0.217041	0.151855	2.462044	-65.152679	30.986192
52301		7.922007	-0.068420	3.851428	0.342488	0.250689	0.416982	-0.742188	-0.201416	0.157471	2.134128	-65.021743	31.566195
52302		7.801673	0.058143	4.007412	0.402447	0.288300	0.530067	-0.737305	-0.199951	0.149658	1.704066	-64.869754	32.297949
52303		7.944649	0.048351	4.050734	0.423554	0.244249	0.650353	-0.736572	-0.200928	0.152832	1.149626	-64.742135	33.180953
52304		8.414165	0.021861	4.165440	0.384473	0.092928	0.805983	-0.743652	-0.197266	0.145752	0.391199	-64.698010	34.264580
52305		9.053578	0.066736	4.038683	0.106113	-0.140023	0.960728	-0.749268	-0.182373	0.157715	-0.713096	-64.779704	35.554946
52306		9.162295	0.842682	3.366515	-0.052392	-0.295505	1.051605	-0.748291	-0.177979	0.154297	-2.034882	-64.937354	36.981999
52307		10.041194	0.859236	3.681481	0.158124	-0.239192	1.056625	-0.744629	-0.164795	0.159424	-3.252712	-65.049346	38.427839
52308		10.431322	0.787316	3.894827	0.148657	-0.175168	1.017547	-0.743896	-0.155518	0.155518	-4.434045	-65.113308	39.826087
52309		10.341593	0.881271	3.904506	0.252325	-0.077876	0.913171	-0.751465	-0.150391	0.161621	-5.420082	-65.115826	41.074489
52310		10.328047	1.187372	3.033448	0.799457	0.269396	0.822608	-0.748535	-0.149658	0.151123	-5.935995	-64.918421	42.152052
52311		11.565911	0.482126	4.216677	0.884596	0.605049	0.581301	-0.752197	-0.142090	0.151367	-6.052859	-64.541857	42.843837
52312		11.325037	0.222858	3.275260	0.272704	0.458638	0.224608	-0.757568	-0.138428	0.149658	-6.104950	-64.269511	43.072656
52313		10.216147	0.657668	2.548475	0.369924	0.397583	-0.004679	-0.756592	-0.135254	0.146240	-5.837240	-64.046224	43.012800
52314		9.762509	0.612833	2.307899	0.770815	0.217989	-0.169255	-0.754395	-0.128418	0.147949	-5.172811	-63.933990	42.766053
52315		9.567015	0.274673	1.830995	1.061204	-0.039489	-0.296583	-0.754150	-0.134277	0.150146	-4.220584	-63.973455	42.385045
52316		9.393661	0.030397	1.493895	1.005685	-0.150038	-0.369273	-0.754150	-0.136475	0.154785	-3.222401	-64.076027	41.920664
52317		9.344559	-0.329171	1.420154	0.803258	-0.316052	-0.402080	-0.754150	-0.143311	0.143799	-2.303090	-64.271013	41.412745
52318		9.795707	-0.207898	1.981476	0.621911	-0.605610	-0.438843	-0.745850	-0.145996	0.155273	-1.443944	-64.628867	40.856269
52319		9.441748	-0.102956	3.147562	0.344248	-0.879833	-0.400506	-0.744385	-0.146240	0.169922	-0.776246	-65.140338	40.338778
52320		9.953035	0.257499	3.771834	-0.131108	-0.616424	-0.365174	-0.742432	-0.151123	0.171875	-0.402621	-65.498829	39.844698
52321		10.276010	1.072391	2.663081	-0.099927	0.012139	-0.329158	-0.740234	-0.152100	0.169678	-0.044090	-65.495617	39.389836
52322		9.525508	1.298437	1.994210	0.517157	0.251536	-0.236207	-0.742920	-0.154785	0.170166	0.548310	-65.354170	39.064320
52323		8.928168	1.342411	1.874476	0.887490	0.243691	-0.155795	-0.745850	-0.149414	0.170654	1.248045	-65.216170	38.855875
52324		9.413649	0.780213	1.724167	0.977031	0.072674	0.041173	-0.751709	-0.152588	0.163574	1.755976	-65.178566	38.914627
52325		8.604303	1.809568	2.774168	0.550286	0.101997	0.050806	-0.747070	-0.153564	0.169189	2.006488	-65.124118	38.988095
52326		8.778737	2.063682	2.607769	0.213887	0.113693	0.079221	-0.754395	-0.153320	0.170654	2.028377	-65.063667	39.098825
52327		9.356807	2.110946	2.522657	0.307316	0.139352	0.117283	-0.745117	-0.151367	0.166260	2.056361	-64.989273	39.264276
52328		9.219338	2.045248	2.345673	0.357351	0.303953	0.113894	-0.743408	-0.150146	0.165771	2.110776	-64.820979	39.429693
52329		9.004319	1.573262	2.022335	0.288232	0.396794	0.082040	-0.746338	-0.148438	0.159912	2.160784	-64.598546	39.559122
52330		8.756398	1.256722	1.890466	0.000938	0.353597	0.035426	-0.746338	-0.145020	0.158936	2.105637	-64.400270	39.620560
52331		8.633959	1.016005	1.916475	-0.310176	0.258347	0.016278	-0.749512	-0.148926	0.147217	1.899955	-64.255668	39.653680
52332		8.458616	0.645901	2.066876	-0.491939	0.179398	-0.022753	-0.753418	-0.152588	0.149902	1.640816	-64.155771	39.629594
52333		8.690919	0.567629	2.437945	-0.392473	0.158965	-0.098754	-0.757568	-0.154541	0.146484	1.529435	-64.066166	39.505542
52334		8.388213	0.153852	2.405531	-0.164598	0.120023	-0.150558	-0.755127	-0.158936	0.150879	1.610972	-63.998372	39.309678
52335		8.303746	-0.104137	1.948277	-0.177453	0.193209	-0.132954	-0.749756	-0.158203	0.146484	1.660714	-63.888547	39.143233
52336		8.425077	0.014774	2.163055	-0.186352	0.097669	-0.051830	-0.750244	-0.160645	0.131592	1.613982	-63.835547	39.076205
52337		9.095882	0.064842	2.546277	-0.102670	0.066364	0.017311	-0.747559	-0.152588	0.141602	1.535004	-63.800815	39.100765
52338		9.551796	0.057607	2.822913	-0.042520	0.070606	0.068986	-0.751709	-0.161865	0.142334	1.430548	-63.765201	39.192150
52339		9.918847	-0.003154	2.736537	0.021229	-0.007226	0.111319	-0.757080	-0.155762	0.143311	1.315619	-63.773874	39.335935
52340		10.073857	0.074636	2.317170	0.105776	-0.041308	0.152819	-0.759277	-0.164551	0.143311	1.201708	-63.803677	39.532693
52341		10.107063	0.310561	1.913571	0.256038	-0.006676	0.198072	-0.753418	-0.152100	0.137695	1.119985	-63.812806	39.789355
52342		9.921239	0.241893	1.699031	0.341705	0.018980	0.223828	-0.756836	-0.154297	0.132080	1.056803	-63.808686	40.080475
52343		9.693103	0.347898	1.408112	0.377895	0.059473	0.214146	-0.750000	-0.156250	0.134521	1.024896	-63.779851	40.359464
52344		9.236679	0.569317	1.053873	0.216839	-0.085921	0.220437	-0.754150	-0.153564	0.136475	0.896197	-63.835639	40.644059
52345		9.241645	0.790069	0.719293	-0.019708	-0.252850	0.199799	-0.754150	-0.150146	0.130615	0.657208	-63.985057	40.899689
52346		9.803145	0.909387	0.693047	-0.257483	-0.219759	0.183135	-0.760986	-0.148438	0.130371	0.298319	-64.116438	41.137584
52347		10.933416	1.307856	0.708516	-0.406743	0.115275	0.118291	-0.762695	-0.151611	0.134033	-0.072498	-64.053532	41.292854
52348		11.136856	1.374627	2.886316	-0.199081	0.201658	0.032923	-0.761475	-0.158691	0.133057	-0.222509	-63.942704	41.335822
52349		10.812852	1.557648	6.104494	-0.155794	-0.234954	-0.065984	-0.751953	-0.153564	0.143066	-0.233371	-64.080480	41.250701
52350		11.651639	1.501361	7.613702	-0.094448	-0.693815	-0.247588	-0.761719	-0.156738	0.141357	0.007698	-64.483072	40.926136
52351		12.715566	0.306768	5.987860	0.136869	-0.969936	-0.447811	-0.758301	-0.155273	0.148438	0.639090	-65.040362	40.316903
52352		12.398514	-0.952678	5.135322	0.417768	-0.915463	-0.624673	-0.752441	-0.166016	0.150635	1.682244	-65.562270	39.435292
52353		11.322226	-1.272373	5.357078	0.159683	-0.805619	-0.740830	-0.746094	-0.168457	0.166504	2.758923	-66.010085	38.357151
52354		11.316318	-1.493974	3.902873	0.279559	-0.678967	-0.916338	-0.751465	-0.185303	0.165039	4.163011	-66.371436	37.000576
52355		9.836870	-1.919342	3.213747	0.728256	-0.713425	-0.885683	-0.751465	-0.191406	0.177246	5.830660	-66.737461	35.639741
52356		9.664949	-0.465127	4.141755	0.137480	-0.875966	-0.657073	-0.748779	-0.199219	0.186523	6.923990	-67.199175	34.540260
52357		10.274950	2.033143	5.961970	-0.448597	-0.680128	-0.306818	-0.747559	-0.199951	0.182861	7.203634	-67.567269	33.960927
52358		10.399006	2.845633	7.074746	-0.410708	-0.490952	0.080412	-0.745850	-0.200928	0.185303	6.944854	-67.856765	33.989214
52359		10.622787	2.505124	6.645160	-0.210971	-0.606315	0.246600	-0.745117	-0.198242	0.187256	6.580333	-68.221362	34.253953
52360		10.329919	1.742876	5.339493	-0.153402	-0.384269	0.254036	-0.736084	-0.200684	0.189209	6.193577	-68.460909	34.578501
52361		9.813555	1.165111	4.653629	-0.232329	-0.060883	0.126814	-0.740234	-0.197510	0.201904	5.889291	-68.506233	34.764523
52362		9.584094	0.750395	4.503680	-0.507670	0.061940	-0.071973	-0.742676	-0.200684	0.187012	5.697148	-68.471264	34.661411
52363		9.489717	0.664366	4.508197	-0.548431	0.069647	-0.265407	-0.735107	-0.207520	0.182129	5.758633	-68.419370	34.259477
52364		8.632359	-0.066918	4.191243	-0.395902	-0.003080	-0.414606	-0.744873	-0.214844	0.182373	6.133150	-68.400971	33.615772
52365		8.774926	-0.377694	3.781546	-0.434373	-0.395749	-0.476476	-0.742432	-0.223633	0.185791	6.639900	-68.598934	32.805664
52366		9.106951	-0.241355	4.116362	-0.381282	-0.277672	-0.480578	-0.741943	-0.223145	0.195313	7.174216	-68.728171	32.000475
52367		9.290921	-0.297590	4.268670	-0.244835	-0.178874	-0.484430	-0.741699	-0.232666	0.189209	7.779381	-68.796649	31.202741
52368		9.590733	-0.368235	4.124332	-0.199997	0.016020	-0.484127	-0.740234	-0.232422	0.186768	8.372764	-68.752950	30.446179
52369		9.067517	-0.350010	3.863493	-0.074968	0.265659	-0.360798	-0.738770	-0.238281	0.182617	8.798076	-68.574551	29.945484
52370		8.595975	-0.072875	3.677398	0.110353	0.473050	-0.194909	-0.746094	-0.242188	0.185303	9.038311	-68.293803	29.758033
52371		8.294942	-0.268478	3.444696	0.089391	0.240886	-0.038171	-0.746582	-0.238525	0.185059	9.092331	-68.157028	29.757048
52372		8.326387	-0.621395	3.482485	0.009146	-0.038017	0.150029	-0.752197	-0.241943	0.177490	8.898124	-68.196294	29.974725
52373		8.446593	-0.785126	3.680211	0.064616	-0.185211	0.294586	-0.747314	-0.239990	0.179199	8.560233	-68.329767	30.380369
52374		8.729908	-0.802475	3.286431	-0.006117	-0.198475	0.341173	-0.747559	-0.236328	0.180908	8.113623	-68.474937	30.859673
52375		8.535613	-0.509333	2.842820	-0.332801	-0.043249	0.324804	-0.749023	-0.233887	0.185791	7.466382	-68.527688	31.352400
52376		8.141658	0.092674	2.409499	-0.442786	0.116154	0.277977	-0.744385	-0.241699	0.172852	6.793830	-68.485754	31.805221
52377		7.612050	0.382267	2.723041	-0.212659	0.188871	0.249962	-0.752441	-0.232666	0.177734	6.283514	-68.397536	32.224941
52378		7.562525	-0.058736	3.088393	-0.152125	0.168487	0.174937	-0.751221	-0.239014	0.170898	5.922572	-68.316560	32.522143
52379		7.363198	-0.125598	2.919712	-0.419324	0.089467	0.109147	-0.752441	-0.238037	0.177002	5.515895	-68.274776	32.703295
52380		7.666851	-0.303182	2.882342	-0.477538	0.072126	0.023188	-0.745361	-0.241699	0.167969	5.202520	-68.239226	32.748732
52381		7.941907	-0.467395	3.139574	-0.653869	0.280748	-0.054007	-0.742920	-0.245850	0.170410	4.872197	-68.079267	32.703022
52382		7.498028	-0.931918	3.199621	-0.889629	0.318254	-0.177977	-0.751465	-0.246826	0.162354	4.579594	-67.893495	32.471421
52383		7.235980	-1.151952	2.851766	-1.135405	0.145740	-0.238782	-0.745850	-0.248535	0.155273	4.250876	-67.802705	32.125989
52384		8.143915	-1.312163	2.066450	-1.231842	0.302729	-0.252371	-0.749268	-0.238525	0.146484	3.869736	-67.623802	31.777643
52385		8.108825	-1.720388	1.919309	-1.081107	0.704631	-0.245236	-0.759766	-0.254395	0.138184	3.527304	-67.214857	31.479691
52386		8.304917	-1.814971	1.968840	-0.772735	0.646481	-0.203022	-0.758789	-0.258789	0.130371	3.308848	-66.842578	31.238530
52387		9.016056	-1.626963	2.189597	-0.454264	0.533375	-0.125077	-0.757324	-0.259277	0.134277	3.176881	-66.536414	31.100873
52388		8.699630	-1.421100	2.667517	-0.087250	0.446389	-0.097338	-0.757324	-0.262451	0.124756	3.223936	-66.282402	30.997336
52389		8.937110	-1.772475	2.618395	0.084253	0.354601	-0.070558	-0.754883	-0.268799	0.115479	3.339661	-66.080252	30.925668
52390		8.472023	-1.376112	2.402680	-0.034731	0.309570	-0.027892	-0.758789	-0.264404	0.124023	3.334467	-65.906760	30.911837
52391		8.187382	-1.032140	2.329545	-0.155412	0.017319	-0.058473	-0.754150	-0.266357	0.113281	3.321282	-65.897911	30.830802
52392		8.270159	-0.906636	1.903869	-0.079045	-0.038816	-0.050535	-0.760742	-0.265381	0.119873	3.345469	-65.922986	30.756895
52393		8.007401	-0.660319	1.790826	0.092558	0.079390	-0.127473	-0.760742	-0.270996	0.115479	3.557738	-65.876186	30.584519
52394		7.338825	-0.461677	1.173181	0.478512	-0.072484	-0.215054	-0.753906	-0.272705	0.118164	4.114816	-65.913997	30.276744
52395		7.233857	-0.596110	0.510355	1.011331	-0.223722	-0.299899	-0.760986	-0.276611	0.120361	5.104085	-66.030954	29.830113
52396		7.596000	-0.670255	0.487846	1.283653	-0.375101	-0.353869	-0.760498	-0.274170	0.124756	6.346069	-66.229272	29.278390
52397		8.343380	-0.876478	0.839005	1.240973	-0.470114	-0.389372	-0.758057	-0.277588	0.144043	7.640463	-66.472445	28.643603
52398		9.345281	-0.773461	1.444197	0.921920	-0.410273	-0.419665	-0.759277	-0.290527	0.141602	8.797978	-66.675517	27.959921
52399		10.654409	-0.518625	1.335269	0.599056	-0.231914	-0.456314	-0.748535	-0.285889	0.145264	9.793941	-66.767381	27.251404
52400		11.394512	-0.657498	0.873939	0.533274	0.147149	-0.448759	-0.757813	-0.290527	0.139404	10.655170	-66.643653	26.648527
52401		11.328702	-0.829640	0.425755	0.684856	0.499432	-0.382180	-0.754639	-0.292236	0.139404	11.418882	-66.323816	26.245638
52402		10.197770	-1.397045	4.556352	1.175076	0.404571	-0.259608	-0.756592	-0.290771	0.146729	12.316976	-66.071411	26.002030
52403		11.347242	-0.953240	8.611840	0.800279	-0.192422	-0.085505	-0.754883	-0.300049	0.141113	12.941405	-66.171210	25.822662
52404		12.394761	2.288516	8.833519	1.045296	0.415861	0.299171	-0.750732	-0.293457	0.140869	13.045808	-65.982530	26.365590
52405		11.561283	4.871668	8.528613	0.739954	0.205888	0.809385	-0.765869	-0.289307	0.145752	12.399988	-65.972521	27.538879
52406		11.125214	4.555622	7.631332	-0.338442	-0.608722	1.444910	-0.761475	-0.278809	0.145752	10.523835	-66.483703	29.379010
52407		11.033375	3.952393	5.334042	-1.091876	-1.428565	1.889459	-0.769531	-0.260498	0.155762	7.690723	-67.466412	31.779484
52408		10.381375	1.625411	3.375760	-0.784669	-1.660070	1.715801	-0.772705	-0.252686	0.167969	5.087137	-68.525967	34.104622
52409		11.352328	-1.141984	3.567194	-0.334313	-1.249989	1.313847	-0.770996	-0.236328	0.180664	3.083230	-69.297072	36.049024
52410		12.741039	-2.900871	6.188968	-0.210305	-0.616444	0.774703	-0.769043	-0.239258	0.177246	1.818997	-69.673678	37.272216
52411		12.249108	-2.926782	8.186958	-0.199523	-0.146520	0.212686	-0.780762	-0.235352	0.180908	1.383615	-69.764010	37.616511
52412		9.917841	-1.761122	7.304776	-0.164670	-0.009689	-0.012337	-0.770752	-0.228027	0.172363	1.309270	-69.774010	37.596985
52413		9.685410	-0.323735	5.389700	0.197523	-0.103428	-0.006386	-0.770264	-0.248535	0.175049	1.438444	-69.836175	37.581947
52414		10.051858	1.163896	4.280933	0.627854	0.017850	0.126197	-0.778320	-0.230713	0.181641	1.600977	-69.832367	37.793709
52415		9.574941	1.928964	4.155106	0.757307	0.109435	0.306429	-0.773682	-0.229248	0.180176	1.555276	-69.777533	38.306741
52416		9.324672	2.124515	4.281555	0.680055	0.149471	0.534396	-0.780273	-0.230225	0.172119	1.110648	-69.703491	39.197775
52417		9.472922	1.491600	4.563175	0.294409	0.405826	0.755273	-0.781494	-0.222900	0.174561	0.111744	-69.478596	40.445570
52418		10.261915	1.208504	4.039604	-0.530041	0.190301	0.824570	-0.791016	-0.213867	0.173828	-1.446760	-69.368444	41.787691
52419		10.506391	1.693757	3.635357	-0.752478	-0.315044	0.703866	-0.786865	-0.221191	0.183594	-2.969901	-69.536295	42.955892
52420		10.117529	1.531975	3.169527	-0.680970	-0.179241	0.474912	-0.785400	-0.211426	0.189941	-4.106781	-69.626363	43.754545
52421		9.045961	1.139600	3.032993	-0.462215	0.201292	0.213452	-0.793945	-0.215820	0.177246	-4.673825	-69.505012	44.079068
52422		8.285020	0.980846	3.135154	-0.412439	0.275739	-0.063724	-0.789795	-0.210205	0.166992	-4.778625	-69.354933	43.940573
52423		8.112725	1.140476	3.207964	-0.489712	0.241995	-0.349782	-0.794434	-0.228271	0.173828	-4.499681	-69.235947	43.344431
52424		8.291988	1.952596	3.212157	-0.112032	0.099922	-0.652481	-0.787842	-0.227051	0.174072	-3.570126	-69.209508	42.283625
52425		7.961940	2.034537	3.023642	0.409249	-0.022375	-0.887626	-0.791992	-0.243652	0.175781	-1.996295	-69.250021	40.853211
52426		7.385873	1.509298	3.151082	0.647586	0.078477	-0.868843	-0.791748	-0.243164	0.178955	-0.309139	-69.219461	39.447877
52427		6.572390	1.199548	3.199650	0.577197	0.198489	-0.676835	-0.789307	-0.252686	0.171875	1.040599	-69.106268	38.359560
52428		6.785219	0.131795	2.953722	0.392219	0.018810	-0.562475	-0.793457	-0.251709	0.173584	2.109895	-69.090995	37.457796
52429		6.707817	0.336954	3.238063	0.356632	0.082186	-0.462465	-0.786133	-0.253174	0.174316	3.002956	-69.035140	36.722403
52430		7.264008	1.101556	2.428919	0.032586	0.134802	-0.290958	-0.784912	-0.263184	0.173584	3.445876	-68.952980	36.270259
52431		7.057714	0.815423	2.384231	0.097044	0.487624	-0.125456	-0.787354	-0.266846	0.172852	3.644469	-68.672685	36.118927
52432		6.770803	0.521161	2.820283	0.114913	0.692447	-0.007783	-0.785645	-0.263184	0.159180	3.659778	-68.280798	36.175610
52433		6.535818	0.881939	3.050990	0.052820	0.505702	0.097302	-0.792236	-0.274414	0.162842	3.508663	-67.998107	36.373074
52434		7.013653	1.086535	2.925926	0.077681	0.181403	0.210711	-0.787842	-0.272705	0.167480	3.242736	-67.905775	36.710393
52435		7.538109	1.117451	2.910171	0.023505	0.003095	0.279333	-0.794434	-0.260986	0.170898	2.864555	-67.915535	37.135102
52436		8.129776	1.175620	2.864285	0.014461	0.024263	0.313145	-0.800293	-0.260742	0.176270	2.431757	-67.914247	37.613549
52437		8.273539	1.486786	2.756418	-0.047922	0.157142	0.400804	-0.798828	-0.264404	0.166260	1.833869	-67.835827	38.231358
52438		8.315301	1.671780	2.879466	-0.122744	0.300832	0.389998	-0.800781	-0.260986	0.161865	1.208354	-67.673776	38.833691
52439		8.501215	1.702574	2.622811	-0.272935	0.593351	0.349028	-0.803223	-0.257568	0.153320	0.558513	-67.339942	39.369822
52440		7.793247	1.707257	2.257532	-0.220469	0.559740	0.299348	-0.807617	-0.252686	0.159668	0.022752	-67.024450	39.816627
52441		8.069960	1.693685	2.103173	-0.116723	0.283586	0.240113	-0.804443	-0.256348	0.153809	-0.364261	-66.864569	40.166603
52442		8.727580	1.567001	1.849246	0.183214	0.313991	0.160622	-0.804932	-0.251465	0.152344	-0.468580	-66.688384	40.397067
52443		8.832026	0.919327	1.722726	0.347038	0.471376	0.123130	-0.818604	-0.253174	0.152588	-0.425625	-66.420775	40.569035
52444		8.774841	0.358025	1.945974	0.180692	0.409321	0.143564	-0.818359	-0.249512	0.144287	-0.502964	-66.190045	40.769377
52445		8.954183	-0.149456	1.917449	-0.045304	0.282245	0.179606	-0.826660	-0.248535	0.145264	-0.755328	-66.030222	41.019063
52446		8.634217	-0.419520	1.840017	-0.262798	0.158516	0.241976	-0.816650	-0.247314	0.148438	-1.211405	-65.941554	41.356373
52447		8.683210	-0.697069	1.466447	-0.336001	-0.131122	0.327258	-0.824219	-0.254395	0.146729	-1.827155	-66.014696	41.821806
52448		8.653720	-0.515852	1.224511	-0.451406	-0.365937	0.397564	-0.828369	-0.243408	0.149170	-2.616340	-66.219973	42.404876
52449		9.704380	-0.482338	1.168528	-0.515836	-0.434722	0.435545	-0.830811	-0.245605	0.156250	-3.509392	-66.458375	43.059269
52450		10.395031	-0.331858	1.581424	-0.681432	-0.307561	0.434002	-0.828857	-0.250000	0.150635	-4.498240	-66.621496	43.714442
52451		11.190558	0.061273	1.326586	-0.854354	0.029135	0.446295	-0.825439	-0.244873	0.155273	-5.571721	-66.585429	44.352785
52452		11.805459	0.704727	1.229255	-0.611518	0.227238	0.392454	-0.830566	-0.228271	0.154785	-6.404256	-66.437280	44.881375
52453		11.544552	1.151196	1.381216	-0.133371	0.208119	0.293678	-0.833496	-0.241943	0.157715	-6.830111	-66.302438	45.264855
52454		10.549125	1.433847	1.508369	0.263978	0.036632	0.145593	-0.845947	-0.240479	0.155273	-6.860610	-66.276587	45.466347
52455		9.168997	2.011467	3.038158	0.452158	0.028544	0.056715	-0.837158	-0.244629	0.158203	-6.669389	-66.259515	45.542522
52456		8.372673	1.957671	7.942963	0.157448	-0.457361	0.007887	-0.842285	-0.242432	0.172607	-6.657675	-66.524277	45.631324
52457		8.955792	0.395989	8.968974	0.062289	-0.898082	-0.187178	-0.836670	-0.246582	0.176025	-6.509958	-67.050741	45.511483
52458		10.329248	-3.048462	7.575166	-0.140347	-1.349133	-0.463438	-0.843018	-0.249756	0.195801	-6.158529	-67.853147	45.047061
52459		13.374149	-5.512855	5.680586	-0.078191	-1.342167	-0.859669	-0.837402	-0.262939	0.206787	-5.162993	-68.670026	43.929140
52460		12.773012	-4.896863	6.359178	0.535564	-1.041597	-1.369061	-0.821533	-0.271973	0.222168	-2.925805	-69.325494	41.864420
52461		12.893991	-3.470540	3.279693	0.783157	-1.008296	-1.519751	-0.832031	-0.289063	0.231445	-0.173172	-69.929683	39.408882
52462		10.149749	-0.398737	2.770331	0.762810	-0.661189	-1.153700	-0.818848	-0.293213	0.239990	2.111393	-70.302056	37.446997
52463		10.352747	3.242055	6.310716	0.241065	-0.352387	-0.560991	-0.821045	-0.291016	0.242920	3.179638	-70.491923	36.461653
52464		11.871245	5.438026	9.351719	-0.197912	-0.485120	0.052973	-0.823975	-0.293945	0.255127	3.025792	-70.775780	36.507306
52465		12.586043	4.681753	8.275389	-0.144653	-0.947697	0.453045	-0.820557	-0.297119	0.260742	2.262899	-71.333187	37.228252
52466		11.353477	2.185030	5.166688	0.088569	-1.043088	0.493855	-0.810059	-0.294678	0.273438	1.524418	-71.944354	38.062745
52467		11.505518	0.962062	4.253537	0.184574	-0.571608	0.256352	-0.819092	-0.291992	0.283936	1.201615	-72.278277	38.515053
52468		10.680279	-0.046745	4.211653	-0.477480	0.220072	-0.129962	-0.818115	-0.288574	0.278076	1.155465	-72.155121	38.279198
52469		10.238129	-0.098735	4.864799	-0.548682	0.375173	-0.505522	-0.815674	-0.305664	0.275146	1.720267	-71.935967	37.357006
52470		10.079925	-1.273132	4.728231	-0.280275	0.114783	-0.719908	-0.815674	-0.309326	0.281250	2.816175	-71.858297	36.038053
52471		9.820322	-2.363300	4.206812	-0.096379	-0.161588	-0.746951	-0.813232	-0.313477	0.285400	4.087077	-71.927957	34.644829
52472		10.122506	-1.888581	3.396160	-0.072835	-0.225725	-0.612133	-0.809814	-0.330566	0.292236	5.156027	-72.032911	33.479720
52473		9.790090	-1.084790	2.901507	0.010422	0.025940	-0.456649	-0.805420	-0.322754	0.289063	5.962625	-71.995766	32.639945
52474		9.380886	-0.759960	2.963575	0.255880	0.191180	-0.289037	-0.809814	-0.329590	0.287598	6.581314	-71.873071	32.146154
52475		8.970224	-1.057702	2.993544	0.367934	0.327573	-0.102027	-0.812012	-0.332764	0.286377	6.904609	-71.682808	32.029718
52476		8.383733	-1.224573	3.087433	0.417307	0.457567	0.091944	-0.808105	-0.329834	0.291748	6.896422	-71.433144	32.293093
52477		7.615576	-1.282897	3.981676	0.293929	0.388975	0.292151	-0.806396	-0.330811	0.288086	6.498823	-71.234307	32.892519
52478		7.343657	-1.483966	4.200939	-0.022235	-0.137185	0.453937	-0.811279	-0.321533	0.296143	5.750851	-71.344462	33.671366
52479		7.354489	-1.201327	3.908226	-0.332869	-0.508525	0.516032	-0.805420	-0.319336	0.303711	4.762592	-71.664694	34.514327
52480		6.765979	-0.429757	3.029621	-0.529362	-0.390980	0.547462	-0.812744	-0.321045	0.304932	3.560674	-71.915092	35.462772
52481		6.154639	-0.198340	2.272462	-0.470786	-0.187090	0.515135	-0.812256	-0.316162	0.314453	2.404606	-72.040511	36.396811
52482		6.277636	-0.357796	1.713598	-0.302308	0.020089	0.403619	-0.804688	-0.320313	0.312256	1.519546	-72.041111	37.147526
52483		6.492510	-0.442220	1.336451	-0.196817	0.354258	0.287086	-0.812256	-0.311768	0.304932	0.891464	-71.844652	37.691519
52484		6.810649	-0.491920	1.318006	-0.209273	0.786440	0.158817	-0.820068	-0.313965	0.312256	0.483483	-71.399381	37.997458
52485		6.669577	-0.471346	2.223114	-0.282663	1.180337	0.067952	-0.819336	-0.307617	0.294434	0.198381	-70.726355	38.129644
52486		6.767802	-0.973380	2.939507	-0.318901	1.294650	-0.000293	-0.817627	-0.315918	0.292969	0.014174	-69.988794	38.133596
52487		7.419807	-1.123282	5.340235	-0.079744	0.868792	-0.080051	-0.826660	-0.327393	0.281738	0.093490	-69.493985	38.002360
52488		7.757080	-1.444737	3.592677	-0.354919	0.384153	-0.191840	-0.828125	-0.317383	0.281738	0.182728	-69.277768	37.692056
52489		8.135204	-1.134156	2.708069	-0.348963	0.206543	-0.330882	-0.835938	-0.332275	0.279785	0.482601	-69.161342	37.159484
52490		8.071488	-1.391394	2.103069	-0.330525	-0.062372	-0.477486	-0.828613	-0.328613	0.285156	1.015612	-69.197641	36.388863
52491		8.238997	-1.734419	1.845438	-0.471897	-0.141190	-0.482989	-0.820068	-0.338623	0.281494	1.481791	-69.275502	35.603166
52492		9.337975	-1.728663	1.463449	-0.384453	0.020608	-0.487317	-0.818359	-0.341064	0.284180	1.999712	-69.259400	34.816023
52493		9.716224	-1.476794	1.031561	0.135672	0.439730	-0.467060	-0.812744	-0.348389	0.285889	2.753642	-68.999578	34.094369
52494		9.404499	-1.337537	2.371316	0.394995	0.625911	-0.426596	-0.822266	-0.353760	0.284424	3.560645	-68.632303	33.473715
52495		8.915198	-0.943195	2.359549	0.398108	0.589894	-0.440097	-0.825195	-0.350098	0.287842	4.369257	-68.280692	32.851635
52496		8.598535	-0.181851	1.938299	0.453181	0.622049	-0.419824	-0.819824	-0.354004	0.281494	5.153565	-67.909852	32.288229
52497		8.069976	0.612773	1.819417	0.615046	0.573177	-0.355959	-0.816406	-0.362061	0.283691	5.927102	-67.566284	31.835212
52498		7.631729	0.851540	1.458452	0.935252	0.359351	-0.285661	-0.821045	-0.352783	0.284912	6.802173	-67.347867	31.470039
52499		7.520146	0.879259	1.050260	1.190890	0.180432	-0.257010	-0.822021	-0.351074	0.293457	7.804978	-67.229591	31.124673
52500		7.913674	0.330221	1.292059	1.310085	-0.023857	-0.210366	-0.818604	-0.358154	0.296387	8.847123	-67.230061	30.810677
52501		8.312767	0.048629	1.254926	0.960655	-0.295015	-0.178809	-0.816406	-0.353760	0.315674	9.707639	-67.383334	30.476601
52502		8.798263	-0.439762	1.149651	0.676230	-0.547646	-0.170785	-0.810547	-0.356934	0.318848	10.463871	-67.679585	30.079713
52503		9.517522	-0.635941	1.062708	0.482708	-0.683449	-0.237074	-0.814941	-0.357178	0.328613	11.253021	-68.041530	29.528376
52504		10.281353	-0.932081	0.138316	0.706606	-0.328198	-0.310469	-0.805908	-0.358154	0.339355	12.189865	-68.194052	28.957248
52505		11.010638	-1.790127	-0.287655	0.852315	0.117029	-0.359632	-0.807617	-0.364502	0.353516	13.146301	-68.086376	28.454924
52506		10.999048	-2.108748	-0.479721	0.878148	0.791052	-0.385173	-0.807373	-0.357178	0.350098	13.919237	-67.598762	28.165753
52507		10.027020	-1.762986	2.422427	1.312989	0.966935	-0.356586	-0.812012	-0.353027	0.349121	14.819799	-67.014292	28.007091
52508		10.589193	-1.169234	5.415502	0.779158	0.237248	-0.280877	-0.804688	-0.356201	0.354980	15.550576	-66.845748	27.700065
52509		10.897546	-0.196816	4.908823	0.739970	0.349779	-0.137359	-0.807861	-0.352295	0.357666	16.027757	-66.634378	27.644204
52510		11.201112	1.620003	8.420835	0.737384	0.604416	0.053291	-0.812988	-0.357910	0.358887	16.165478	-66.314882	27.956711
52511		11.793587	5.533745	10.696419	0.619096	0.694265	0.459312	-0.811035	-0.347168	0.371094	15.704178	-66.007513	28.850897
52512		12.536684	7.686105	10.750282	-0.209610	0.236064	1.073495	-0.821777	-0.338623	0.364014	14.172327	-66.039959	30.397872
52513		11.331941	8.214238	10.787650	-1.247660	-0.647509	1.641214	-0.813721	-0.334961	0.359863	11.558189	-66.614034	32.473637
52514		9.014370	4.988011	4.736187	-1.428824	-1.289661	1.898214	-0.821289	-0.314697	0.372314	8.514249	-67.535721	34.891705
52515		7.837899	1.127713	0.564185	-1.188808	-1.108126	1.693013	-0.820313	-0.305420	0.379395	5.656704	-68.288569	37.242410
52516		8.788176	-0.504498	2.960531	-0.847992	-0.887236	1.288268	-0.817383	-0.307861	0.392578	3.400016	-68.858065	39.146865
52517		8.692926	-1.840161	7.260456	-0.782773	-0.914708	0.926180	-0.812256	-0.293213	0.413818	1.623322	-69.407957	40.570283
52518		8.723521	-2.715823	8.843322	-0.665104	-1.164390	0.610170	-0.809082	-0.294189	0.419189	0.326839	-70.085291	41.548063
52519		10.270456	-3.213363	8.074330	-0.638384	-1.255438	0.313033	-0.802734	-0.292969	0.426514	-0.545802	-70.807282	42.087945
52520		11.278708	-2.782350	6.052808	-0.344838	-0.975571	0.031355	-0.799072	-0.299072	0.430420	-0.814749	-71.370101	42.165199
52521		11.357056	-1.661366	4.830690	0.397620	-0.429431	-0.055836	-0.794922	-0.290039	0.442627	-0.497868	-71.619513	42.073273
52522		11.126940	-0.322788	4.567571	0.999766	0.107266	0.010194	-0.799561	-0.302002	0.450928	0.058322	-71.562075	42.092478
52523		9.609884	0.544194	4.202256	0.937684	0.159071	0.329342	-0.790039	-0.287109	0.441895	0.032819	-71.474100	42.687828
52524		11.579408	0.074242	4.002353	0.005916	-0.320659	0.573593	-0.799072	-0.274902	0.451660	-0.954100	-71.659174	43.733351
52525		12.356082	0.719752	3.830547	-0.783705	-0.715739	0.670840	-0.787598	-0.277588	0.460693	-2.612990	-72.060140	45.008460
52526		11.806208	1.738202	3.880124	-0.832136	-0.700417	0.642465	-0.793457	-0.276123	0.467285	-4.313985	-72.442461	46.295516
52527		10.867364	2.196566	3.583270	-0.412570	-0.011809	0.516669	-0.790527	-0.262207	0.466309	-5.482759	-72.426933	47.275482
52528		9.703931	1.770763	3.130426	-0.238109	0.377562	0.273411	-0.790039	-0.271973	0.467285	-6.040524	-72.199903	47.719504
52529		8.627655	1.546501	2.950883	-0.574784	0.370986	-0.035383	-0.783936	-0.278809	0.462158	-6.236089	-71.993734	47.580918
52530		8.028695	1.757151	2.401314	-0.728708	0.264975	-0.323079	-0.790283	-0.280029	0.452393	-6.040145	-71.866506	46.937513
52531		7.432777	2.016789	2.715521	-0.289942	0.273054	-0.588192	-0.788818	-0.284424	0.451904	-5.138234	-71.746625	45.815264
52532		7.092704	1.423568	3.008420	0.301671	0.259761	-0.707096	-0.777100	-0.290527	0.460938	-3.709713	-71.633433	44.494640
52533		6.517367	1.025555	3.488488	0.652298	0.127614	-0.722992	-0.777832	-0.297363	0.462646	-2.078970	-71.584338	43.171976
52534		6.640285	0.917355	3.106474	0.673885	-0.021958	-0.673333	-0.771973	-0.297119	0.468506	-0.533358	-71.609642	41.952066
52535		6.987335	0.944048	2.582484	0.729394	-0.018729	-0.557276	-0.764893	-0.302734	0.469727	0.847423	-71.622515	40.939406
52536		7.713570	1.391293	2.605430	0.765703	0.091970	-0.428263	-0.772217	-0.293213	0.479492	2.021140	-71.567602	40.166917
52537		8.361985	1.349024	2.222232	0.536074	0.449241	-0.279960	-0.766357	-0.292480	0.481934	2.775836	-71.306730	39.696800
52538		8.695561	1.213861	2.311660	0.268235	0.736613	-0.155375	-0.770752	-0.290039	0.471924	3.127886	-70.884568	39.489344
52539		8.690204	1.166107	3.115765	-0.225165	0.687040	-0.077480	-0.775635	-0.295898	0.455566	3.067141	-70.492110	39.419009
52540		8.712327	1.453371	2.114121	-0.297267	0.452916	-0.007167	-0.778320	-0.294922	0.469238	2.872969	-70.236659	39.446612
52541		8.349335	1.169087	2.135349	-0.214596	0.499476	0.077084	-0.770264	-0.296875	0.464355	2.592879	-69.955923	39.615737
52542		8.091988	0.752934	2.512203	-0.191579	0.317980	0.162678	-0.776611	-0.297852	0.459961	2.210608	-69.781745	39.908333
52543		7.692773	0.799274	2.369025	-0.203575	0.214576	0.209008	-0.770508	-0.300293	0.463867	1.760761	-69.666039	40.265563
52544		7.790018	0.864046	2.254587	-0.252672	0.289039	0.244310	-0.778564	-0.292969	0.459961	1.230652	-69.508101	40.679120
52545		7.531358	0.926606	2.148159	-0.218751	0.205014	0.227997	-0.774414	-0.288086	0.462646	0.753573	-69.395932	41.056778
52546		8.251402	1.132718	2.397675	-0.348172	0.412038	0.218649	-0.779297	-0.290283	0.459229	0.219799	-69.164905	41.416632
52547		8.187190	1.359752	2.105523	-0.353025	0.613455	0.222226	-0.782227	-0.288574	0.459717	-0.311289	-68.816336	41.770886
52548		8.552705	1.389625	1.795824	-0.326649	0.696182	0.188787	-0.783691	-0.291016	0.452637	-0.763002	-68.420467	42.057530
52549		8.528344	1.231105	1.942575	-0.412439	0.875630	0.159223	-0.779541	-0.284668	0.442139	-1.203674	-67.920293	42.279707
52550		8.174660	1.111773	1.834012	-0.564144	0.769965	0.137950	-0.785889	-0.293213	0.440674	-1.690263	-67.481345	42.458907
52551		7.726860	0.855878	1.851807	-0.784298	0.608596	0.156709	-0.784424	-0.285156	0.432861	-2.323291	-67.132732	42.660019
52552		7.917772	0.716053	1.707375	-0.770202	0.319976	0.157227	-0.787842	-0.293701	0.430420	-2.955005	-66.949560	42.869546
52553		7.623495	0.221687	1.719647	-0.576550	0.072237	0.128543	-0.786865	-0.290771	0.439941	-3.450965	-66.907136	43.051618
52554		7.191172	-0.019519	1.690127	-0.611477	-0.080044	0.117171	-0.782959	-0.300049	0.435547	-3.963590	-66.952728	43.230773
52555		7.626549	-0.058049	1.571638	-0.709679	-0.233358	0.137110	-0.781250	-0.296143	0.434814	-4.576949	-67.083224	43.457390
52556		8.360668	0.049862	1.286783	-0.830479	-0.356125	0.156538	-0.779297	-0.298584	0.438721	-5.305141	-67.283000	43.733964
52557		9.489811	0.232532	1.095870	-0.846522	-0.409696	0.177054	-0.775391	-0.296387	0.448975	-6.087317	-67.509517	44.057886
52558		10.407599	0.065757	0.779470	-0.779244	-0.304247	0.185953	-0.770996	-0.300293	0.449951	-6.836526	-67.675038	44.388170
52559		11.013880	0.154187	0.399879	-0.799422	-0.024730	0.206659	-0.779053	-0.305176	0.444336	-7.583913	-67.677233	44.703006
52560		11.351418	0.132189	0.220348	-0.420180	-0.073220	0.192181	-0.770996	-0.303955	0.445068	-8.103087	-67.708193	45.006840
52561		10.910496	-0.141593	0.756941	-0.130622	0.010848	0.181005	-0.770264	-0.297852	0.455078	-8.425054	-67.690128	45.275984
52562		9.959012	-0.163641	1.731582	0.133051	-0.001146	0.133756	-0.770996	-0.292969	0.458740	-8.532470	-67.684045	45.477438
52563		9.182422	0.237188	2.832704	0.186449	0.170976	0.082466	-0.772949	-0.291016	0.457275	-8.503044	-67.583156	45.563177
52564		8.289776	0.334780	7.343818	0.020852	0.071411	0.028489	-0.767822	-0.285889	0.458252	-8.514223	-67.544899	45.591181
52565		8.252733	-0.575343	8.761308	-0.213691	-0.582816	-0.143956	-0.764648	-0.291016	0.468506	-8.557670	-67.890362	45.507858
52566		9.272080	-2.800678	7.915388	-0.194540	-1.051395	-0.398998	-0.751709	-0.298340	0.477051	-8.323275	-68.524247	45.138334
52567		12.027504	-4.895793	6.900840	-0.113740	-1.336833	-0.794212	-0.745117	-0.295898	0.486084	-7.490800	-69.348536	44.178467
52568		13.791057	-5.662281	9.081766	0.321579	-1.260692	-1.386819	-0.732422	-0.311523	0.496338	-5.383744	-70.159823	42.131855
52569		12.288024	-4.812644	7.072793	0.718653	-1.236847	-2.089903	-0.711914	-0.319580	0.521973	-1.709306	-70.944556	38.673979
52570		11.408211	-1.696076	3.632496	1.091222	-1.235654	-2.082807	-0.699463	-0.330811	0.532227	2.457607	-71.649251	34.937535
52571		9.478915	2.033399	3.584725	0.674918	-0.801070	-1.509494	-0.689453	-0.331055	0.534180	5.577102	-72.049639	32.063710
52572		10.580938	3.497941	5.793877	0.181914	0.138097	-0.899449	-0.682617	-0.334473	0.543213	7.232596	-71.917627	30.434955
52573		11.076978	4.139329	9.465862	-0.007116	-0.478664	-0.392591	-0.680420	-0.337646	0.552002	8.031941	-72.162569	29.592367
52574		12.314467	2.967914	7.866515	0.059274	-1.408941	0.009697	-0.678467	-0.337402	0.556396	8.420734	-72.966245	29.223056
52575		12.172423	1.217852	5.089488	0.263002	-1.354095	0.156340	-0.658447	-0.326904	0.569336	8.664145	-73.749763	29.128256
52576		11.861834	-0.346524	4.193033	-0.261478	-0.651992	0.075212	-0.662354	-0.330566	0.574463	8.565731	-74.129364	29.077381
52577		12.039534	-0.102614	4.913908	-0.536175	0.222787	-0.127143	-0.661621	-0.334229	0.569092	8.448281	-73.995324	28.882002
52578		10.620124	-0.277798	4.920234	-0.372451	0.286252	-0.322471	-0.653809	-0.340576	0.566650	8.787629	-73.809228	28.309258
52579		10.081116	-0.875151	4.493198	-0.032845	0.239609	-0.292348	-0.661133	-0.349121	0.565918	9.265475	-73.650336	27.793840
52580		9.836498	-0.693501	3.449252	0.190086	0.051456	-0.189423	-0.654053	-0.338135	0.571777	9.727078	-73.607025	27.428732
52581		9.962803	-0.041948	2.746640	0.375569	-0.125941	-0.125468	-0.653076	-0.337158	0.568115	10.229802	-73.668602	27.131024
52582		9.532834	0.294981	3.266779	0.409172	-0.265597	-0.134092	-0.648682	-0.330566	0.572510	10.823475	-73.807835	26.759257
52583		9.203108	0.286152	2.952647	0.634058	-0.319716	-0.132990	-0.640137	-0.328613	0.584229	11.572831	-73.975688	26.359379
52584		9.049762	-0.295887	3.087115	1.204661	-0.353767	-0.074704	-0.632813	-0.321045	0.592773	12.563512	-74.168567	26.049338
52585		9.005833	-0.914688	2.819664	1.116038	-0.122022	0.106310	-0.635986	-0.315674	0.599609	13.052108	-74.253178	26.208061
52586		8.450696	-1.271028	2.507701	0.603717	0.184789	0.312153	-0.635498	-0.302490	0.589844	12.702665	-74.193420	26.932971
52587		7.876447	-1.158537	2.740381	0.188596	0.240267	0.462912	-0.634766	-0.301758	0.593750	11.798803	-74.118110	27.986815
52588		7.034637	-0.616029	2.866410	-0.145675	0.109443	0.573023	-0.641846	-0.290283	0.592529	10.544903	-74.123824	29.205924
52589		6.695963	-0.718000	2.317571	-0.289932	-0.037120	0.649738	-0.637207	-0.291260	0.585938	9.101895	-74.211268	30.535120
52590		6.681999	-0.715299	2.113075	-0.269278	0.054843	0.661227	-0.639893	-0.292236	0.586182	7.608386	-74.238862	31.928923
52591		7.259579	-0.589612	1.583656	-0.347604	0.218796	0.566331	-0.640869	-0.288086	0.588623	6.221001	-74.156465	33.165774
52592		7.013376	-0.873736	1.412152	-0.255159	0.478262	0.420458	-0.630127	-0.285156	0.583252	5.145158	-73.911291	34.134838
52593		7.410390	-0.449084	1.796382	-0.282094	0.745856	0.312770	-0.645020	-0.284424	0.583008	4.255529	-73.503066	34.895258
52594		7.912174	-0.642432	1.974545	-0.295130	1.091319	0.203422	-0.643066	-0.284180	0.572266	3.562732	-72.890863	35.444391
52595		7.941516	-0.702821	3.045405	-0.276291	1.320251	0.103176	-0.655029	-0.273193	0.563721	3.080481	-72.142120	35.785998
52596		7.740559	-0.603175	4.994869	-0.074099	0.997745	-0.060460	-0.656982	-0.281494	0.563721	3.052489	-71.573100	35.772829
52597		8.129475	-0.677359	4.577709	-0.359752	0.043645	-0.215106	-0.660400	-0.277344	0.562500	3.213822	-71.544407	35.387472
52598		8.454318	-1.163365	2.757009	-0.790979	-0.273433	-0.301000	-0.648438	-0.288086	0.561768	3.307790	-71.694609	34.812880
52599		8.679684	-1.209741	1.275484	-0.616771	-0.062553	-0.347141	-0.644043	-0.292725	0.552734	3.564074	-71.721476	34.172754
52600		8.574009	-1.124730	0.743516	-0.203298	0.348894	-0.333108	-0.649902	-0.286865	0.550781	3.983195	-71.513075	33.610282
52601		8.512760	-1.361863	1.313850	0.163621	0.437324	-0.274465	-0.652344	-0.290771	0.550537	4.490229	-71.254580	33.176172
52602		8.547186	-1.445057	1.981171	0.399895	0.469465	-0.280517	-0.656982	-0.289307	0.548584	5.123808	-70.976771	32.750595
52603		8.544017	-1.117680	2.070387	0.478128	0.482772	-0.247943	-0.648438	-0.294922	0.549072	5.732189	-70.690966	32.398536
52604		8.192461	-0.568722	1.856589	0.453498	0.400675	-0.240449	-0.640869	-0.281006	0.552490	6.314334	-70.451937	32.058591
52605		7.823145	-0.275134	1.471118	0.477956	0.235304	-0.234458	-0.648193	-0.280029	0.554688	6.921877	-70.305528	31.706331
52606		7.946622	0.033114	0.893077	0.738327	0.047230	-0.206181	-0.645996	-0.272705	0.554932	7.664651	-70.267456	31.368488
52607		7.628884	0.104529	0.815817	1.319795	-0.187854	-0.202740	-0.648193	-0.265869	0.563965	8.788422	-70.360343	30.980092
52608		7.460632	-0.218186	1.431029	1.546294	-0.360749	-0.217076	-0.635986	-0.254639	0.564697	10.118244	-70.547623	30.510913
52609		7.363114	-0.271159	1.752309	1.215934	-0.502397	-0.237530	-0.624512	-0.252930	0.572754	11.352803	-70.808046	29.942931
52610		7.318454	-0.272549	1.289173	0.800435	-0.531281	-0.252363	-0.620361	-0.252441	0.583008	12.405507	-71.080005	29.316207
52611		7.746959	-0.303750	1.057025	0.655590	-0.605461	-0.290749	-0.612549	-0.246094	0.590576	13.491663	-71.383699	28.567774
52612		8.074342	-0.314757	0.543783	0.769606	-0.519151	-0.366739	-0.611572	-0.239258	0.590576	14.762254	-71.624743	27.694741
52613		8.494456	-0.850979	0.221158	1.063551	-0.439940	-0.417402	-0.606689	-0.241211	0.605469	16.277616	-71.806532	26.742568
52614		9.117591	-1.492206	0.047251	1.309636	-0.258340	-0.469454	-0.600586	-0.231201	0.604980	17.948442	-71.872773	25.775633
52615		9.824054	-1.971648	0.284915	1.325687	-0.028222	-0.495177	-0.598633	-0.215332	0.612061	19.547698	-71.799742	24.893893
52616		10.443051	-2.320135	0.681115	1.080567	0.517367	-0.494769	-0.588135	-0.211426	0.611572	20.665404	-71.427929	24.370200
52617		10.129381	-1.949237	1.188097	0.867977	0.983020	-0.441392	-0.600830	-0.204346	0.607178	21.269092	-70.814306	24.259779
52618		9.097605	-0.774845	3.131261	1.203180	0.950198	-0.314627	-0.596191	-0.193115	0.611572	21.870600	-70.245837	24.354579
52619		8.694704	0.542644	5.063659	1.352867	0.955885	-0.150199	-0.600586	-0.184082	0.600098	22.304545	-69.708775	24.719730
52620		8.810393	2.608773	9.298614	1.217409	1.360217	0.091766	-0.602051	-0.174316	0.593506	22.094852	-69.011097	25.690676
52621		11.043973	6.219539	12.086377	0.866281	1.912273	0.432040	-0.615479	-0.162109	0.582520	20.986163	-68.085551	27.417140
52622		12.600951	10.784554	15.222092	-0.059228	1.132312	1.362352	-0.621094	-0.151611	0.578369	18.603705	-67.743163	29.953044
52623		8.726309	12.754472	9.521827	-2.900420	-1.529517	2.200921	-0.614990	-0.154785	0.584229	14.530885	-68.945839	32.548858
52624		7.662144	7.411824	0.264518	-1.311228	-2.297900	2.424614	-0.597900	-0.131592	0.597168	10.895239	-70.539868	35.624711
52625		7.977231	0.934648	0.822562	-0.860653	-1.333533	2.311070	-0.600586	-0.128662	0.605225	6.945482	-71.503457	39.281753
52626		11.046317	-2.449728	7.399886	-1.139648	-0.785051	1.901910	-0.592773	-0.121826	0.613770	3.116910	-72.050860	42.626839
52627		14.050088	-4.733866	14.363942	-1.000065	-0.976627	1.231553	-0.590576	-0.115723	0.613525	0.384027	-72.634846	44.895424
52628		17.348451	-3.244293	13.764991	-0.972796	-1.591550	0.381027	-0.578369	-0.123047	0.617432	-0.904433	-73.549041	45.661155
52629		15.434756	-0.447153	6.111332	-0.288023	-0.718619	-0.196837	-0.562500	-0.120605	0.623047	-0.700297	-73.965340	45.278613
52630		12.273671	1.972511	3.944019	0.549849	0.661339	-0.212237	-0.574219	-0.114990	0.613037	0.040632	-73.590223	44.836554
52631		10.583048	4.414494	5.985524	0.468896	0.415014	0.030993	-0.572510	-0.118164	0.610596	0.249464	-73.355503	44.900926
52632		10.290969	3.121136	5.535330	0.222732	-0.180490	0.288178	-0.569336	-0.104004	0.614502	-0.175887	-73.462059	45.479532
52633		11.697234	1.236441	4.703501	-0.251717	-0.437085	0.304508	-0.573242	-0.118652	0.610596	-0.918622	-73.713837	46.105432
52634		11.275935	-0.338582	3.860235	-0.777019	-0.227652	0.215208	-0.568604	-0.106689	0.618408	-1.797136	-73.844274	46.558403
52635		10.252573	-0.877688	3.779520	-1.074775	0.118065	0.116063	-0.563477	-0.114502	0.608887	-2.631191	-73.777129	46.787635
52636		9.737124	-0.849908	4.560272	-1.133175	0.302660	-0.061499	-0.567383	-0.127197	0.604980	-3.129678	-73.608639	46.632200
52637		9.199425	-0.367427	4.944861	-0.889414	0.316606	-0.264401	-0.565918	-0.132080	0.601074	-3.093071	-73.438744	46.064575
52638		8.770227	0.112939	4.717969	-0.591649	0.450904	-0.469478	-0.570068	-0.141846	0.597900	-2.492824	-73.196660	45.085687
52639		7.908091	0.562862	4.086111	-0.338945	0.458971	-0.631895	-0.564697	-0.137939	0.593994	-1.466554	-72.949359	43.811925
52640		7.118659	0.891266	3.823101	-0.080039	0.400704	-0.726099	-0.570313	-0.143066	0.597900	-0.153704	-72.728463	42.391528
52641		6.687125	1.236186	3.759046	0.107334	0.334450	-0.714401	-0.572021	-0.139160	0.578125	1.212942	-72.536068	41.026019
52642		6.583994	1.407778	3.811405	0.268970	0.260276	-0.612140	-0.562988	-0.144043	0.592285	2.462523	-72.378510	39.878763
52643		7.074505	1.640025	3.928931	0.384003	0.121787	-0.455802	-0.567627	-0.144287	0.572021	3.492767	-72.298271	39.030440
52644		7.842449	2.088880	4.010008	0.448883	-0.025011	-0.294569	-0.559814	-0.153076	0.577393	4.282815	-72.303805	38.472799
52645		8.827860	2.143783	3.921854	0.388849	-0.065884	-0.151400	-0.562744	-0.145996	0.592773	4.789034	-72.337582	38.177305
52646		8.956164	2.172818	3.763757	0.121767	0.014807	0.024282	-0.559326	-0.146484	0.583984	4.815568	-72.332916	38.224443
52647		9.123142	2.076921	3.076594	-0.174259	0.037977	0.097684	-0.561279	-0.141357	0.582031	4.537880	-72.318800	38.413080
52648		9.174431	1.923004	3.096910	-0.168426	0.077908	0.069695	-0.549072	-0.139404	0.577881	4.308558	-72.279974	38.554353
52649		8.693380	1.889860	3.608279	-0.187214	0.169397	0.007163	-0.558838	-0.135010	0.571777	4.168838	-72.186494	38.590414
52650		8.052588	1.182082	3.660745	-0.271414	0.067249	-0.055915	-0.561768	-0.141113	0.577637	4.106892	-72.148331	38.494060
52651		7.667472	1.000290	3.218292	-0.240728	-0.091309	-0.083513	-0.556396	-0.144043	0.576660	4.131755	-72.200084	38.325042
52652		7.604855	0.871222	3.283988	-0.365108	0.040405	-0.142402	-0.563965	-0.143066	0.566162	4.173582	-72.173628	38.063344
52653		7.596730	0.451886	2.939502	-0.387722	0.220259	-0.170961	-0.559326	-0.148926	0.569580	4.228104	-72.043601	37.774598
52654		7.453284	0.353790	2.735595	-0.384989	0.197164	-0.148995	-0.559570	-0.145752	0.567871	4.246662	-71.927153	37.525105
52655		7.573540	0.401204	2.991330	-0.397638	0.116792	-0.101681	-0.550293	-0.153320	0.566162	4.184167	-71.859143	37.353143
52656		7.927735	0.690859	3.357459	-0.456045	0.014990	-0.039730	-0.565430	-0.150635	0.550537	3.993285	-71.851457	37.281027
52657		8.302774	1.180304	3.803370	-0.520230	-0.039875	0.026617	-0.554443	-0.150391	0.554199	3.656034	-71.878280	37.324242
52658		8.439718	1.513603	4.231480	-0.543623	-0.113025	0.069079	-0.548828	-0.161865	0.562256	3.238502	-71.947772	37.437819
52659		8.494199	1.819083	4.079084	-0.585891	-0.101084	0.107892	-0.555420	-0.164795	0.549316	2.724794	-72.011840	37.627003
52660		8.304545	2.049623	3.783727	-0.605043	-0.109554	0.097656	-0.554199	-0.158203	0.556396	2.216997	-72.079385	37.798445
52661		8.213760	2.058853	3.826745	-0.647108	-0.159633	0.008945	-0.550049	-0.168213	0.549561	1.842737	-72.173988	37.804100
52662		8.106285	1.733933	3.871284	-0.790807	-0.243583	-0.135301	-0.553467	-0.170654	0.552246	1.648052	-72.313505	37.534899
52663		7.971375	1.436528	3.587852	-0.926880	-0.432481	-0.263990	-0.547607	-0.177490	0.553711	1.619278	-72.559905	37.010031
52664		8.228812	1.232060	3.787355	-0.909274	-0.548984	-0.350938	-0.538818	-0.182861	0.555420	1.777504	-72.870688	36.300896
52665		8.514768	0.992208	4.240515	-0.845804	-0.638483	-0.416038	-0.538330	-0.194336	0.559326	2.117767	-73.231224	35.440543
52666		9.090271	0.575504	4.700873	-0.846066	-0.658230	-0.467621	-0.522461	-0.196777	0.552979	2.587440	-73.599325	34.446889
52667		9.238126	0.029030	4.693853	-0.739796	-0.312981	-0.440337	-0.527588	-0.199463	0.555908	3.057123	-73.769029	33.517807
52668		9.327996	-0.806143	4.327051	-0.644046	0.031423	-0.344158	-0.530518	-0.200195	0.548096	3.364049	-73.742191	32.815941
52669		9.642360	-2.251464	4.088035	-0.519053	0.133447	-0.207836	-0.524658	-0.208008	0.546143	3.460284	-73.661790	32.407796
52670		10.559212	-3.917086	3.823194	-0.355016	0.043484	-0.083385	-0.533447	-0.219482	0.549072	3.417748	-73.636184	32.242220
52671		11.619159	-5.088017	3.947902	-0.149781	-0.183845	-0.005795	-0.518311	-0.210449	0.547363	3.367194	-73.744150	32.207444
52672		11.574881	-4.488428	4.225063	0.078409	-0.334380	0.030121	-0.514404	-0.210205	0.546143	3.394393	-73.938539	32.227739
52673		10.289199	-3.140171	4.324680	0.218355	-0.199696	0.071998	-0.521484	-0.215576	0.550293	3.402208	-74.058212	32.351724
52674		9.387374	-1.812506	3.963049	0.253623	-0.028657	0.123486	-0.518311	-0.212402	0.553467	3.305609	-74.080832	32.604936
52675		9.312879	-0.707187	3.655160	0.315321	0.161110	0.187293	-0.518311	-0.206299	0.550049	3.096247	-73.997670	33.012565
52676		9.609694	0.142137	3.814858	0.414290	0.432147	0.251663	-0.533447	-0.203125	0.548584	2.793328	-73.759851	33.576534
52677		9.967241	0.687176	3.921444	0.448319	0.610114	0.256158	-0.535156	-0.198242	0.544678	2.500052	-73.420442	34.152005
52678		9.831964	1.294874	3.712556	0.376129	0.541984	0.190234	-0.533447	-0.199219	0.533691	2.311865	-73.116770	34.575124
52679		9.027339	1.924574	3.199779	0.304058	0.295278	0.079098	-0.533447	-0.193115	0.540039	2.317662	-72.952572	34.753174
52680		8.259895	1.964620	2.997412	0.321584	0.077481	0.004573	-0.537598	-0.185547	0.535156	2.489483	-72.910320	34.767835
52681		8.219665	1.598800	3.345154	0.350961	-0.042865	-0.049973	-0.529053	-0.189941	0.536133	2.789828	-72.936550	34.665972
52682		7.843046	1.238046	3.632630	0.279319	0.054915	-0.116467	-0.534668	-0.187256	0.540283	3.163902	-72.903631	34.443791
52683		7.486059	0.898614	3.870459	0.146241	0.298007	-0.175663	-0.536133	-0.195068	0.534912	3.542904	-72.730301	34.136763
52684		7.283294	0.599963	3.858996	0.073177	0.538782	-0.233209	-0.535400	-0.190186	0.537109	3.948013	-72.415445	33.757873
52685		7.288243	0.403676	3.693148	0.053958	0.626780	-0.272681	-0.531250	-0.183594	0.518799	4.386456	-72.048929	33.331918
52686		7.483844	0.061916	3.440753	0.063305	0.487465	-0.293060	-0.542725	-0.192627	0.521973	4.868686	-71.758851	32.864522
52687		7.679219	-0.402905	3.211618	0.166986	0.127285	-0.246005	-0.546143	-0.196289	0.527344	5.372420	-71.676636	32.436759
52688		8.261077	-0.588205	3.406866	0.234451	-0.242926	-0.145119	-0.539307	-0.187500	0.521484	5.801454	-71.808895	32.128171
52689		8.957503	-0.532571	3.739999	0.244883	-0.425279	-0.000051	-0.538330	-0.192383	0.518066	6.021739	-72.054262	32.046031
52690		9.675725	-0.470776	3.895677	0.178584	-0.321132	0.169937	-0.538574	-0.187744	0.528809	5.885309	-72.249169	32.298538
52691		10.251525	-0.518214	3.838951	0.088623	-0.041804	0.322676	-0.529785	-0.191162	0.526123	5.370840	-72.294138	32.893946
52692		10.554479	-0.621338	3.624926	0.021389	0.171003	0.422628	-0.530762	-0.188721	0.527588	4.605101	-72.219375	33.712441
52693		10.667172	-0.668007	3.137202	0.007981	0.169358	0.435637	-0.541260	-0.173096	0.521484	3.815734	-72.143933	34.548364
52694		10.515453	-0.639598	2.824991	0.093134	0.030348	0.361064	-0.535400	-0.177734	0.531738	3.227159	-72.141088	35.224408
52695		10.297350	-0.510733	2.964728	0.180233	-0.136310	0.216297	-0.541016	-0.181396	0.523193	2.960977	-72.228775	35.614445
52696		10.233533	-0.381142	3.293243	0.214385	-0.229630	0.057401	-0.538818	-0.173340	0.532959	3.004535	-72.363704	35.699251
52697		10.021507	-0.060256	3.424275	0.221145	-0.168900	-0.082976	-0.524414	-0.172363	0.528320	3.300322	-72.460727	35.523860
52698		9.572988	0.329301	3.297366	0.229845	0.025590	-0.170810	-0.540039	-0.172852	0.529541	3.740247	-72.441910	35.202149
52699		8.942337	0.805627	3.184197	0.275620	0.242804	-0.212691	-0.540039	-0.173828	0.523926	4.252858	-72.297646	34.831957
52700		8.553692	1.100731	3.017376	0.291007	0.380358	-0.214721	-0.537354	-0.169922	0.527344	4.750366	-72.072548	34.486109
52701		8.296738	1.109063	2.931534	0.302299	0.373964	-0.154590	-0.546631	-0.171875	0.521240	5.140651	-71.854448	34.259795
52702		8.237912	1.037863	3.074559	0.198912	0.251412	-0.069643	-0.544678	-0.173096	0.527100	5.337912	-71.709163	34.173733
52703		8.165335	1.019897	3.272727	0.081252	0.136076	0.010176	-0.541016	-0.166992	0.519775	5.347881	-71.635080	34.214261
52704		8.338726	0.840757	3.318230	-0.004568	0.082412	0.078436	-0.548096	-0.169922	0.517090	5.200194	-71.593981	34.368797
52705		8.526621	0.603061	3.454399	-0.043211	0.079524	0.123476	-0.545654	-0.173096	0.520752	4.954598	-71.557859	34.603555
52706		8.848483	0.302845	3.733346	-0.072862	0.093388	0.135143	-0.542236	-0.167480	0.519531	4.670966	-71.512810	34.860254
52707		9.155849	-0.001934	3.805724	-0.100610	0.077977	0.114582	-0.543945	-0.174316	0.515137	4.409940	-71.476475	35.076714
52708		9.385377	-0.157670	3.716771	-0.116229	0.028498	0.075084	-0.550049	-0.170898	0.514160	4.214252	-71.465178	35.214543
52709		9.633018	-0.192189	3.659813	-0.132865	-0.046812	0.018908	-0.542236	-0.164551	0.518555	4.114345	-71.495722	35.241613
52710		9.715861	-0.193562	3.577280	-0.175504	-0.115895	-0.039191	-0.540527	-0.171631	0.520752	4.097552	-71.562086	35.154953
52711		9.602202	-0.106986	3.411079	-0.199501	-0.121039	-0.091445	-0.541748	-0.176514	0.528076	4.157969	-71.630492	34.972801
52712		9.381608	0.078267	3.220324	-0.187518	-0.054629	-0.119327	-0.539063	-0.180664	0.512695	4.265387	-71.658421	34.748056
52713		9.216003	0.258918	3.050365	-0.147756	0.016600	-0.123579	-0.545654	-0.165527	0.513672	4.394152	-71.646597	34.525192
52714		9.068644	0.417625	3.097130	-0.120956	0.036016	-0.106519	-0.537354	-0.173584	0.516357	4.505738	-71.623026	34.336222
52715		9.076667	0.533109	3.117324	-0.118458	0.033660	-0.090932	-0.541992	-0.170898	0.519043	4.592235	-71.602674	34.175537
52716		9.140903	0.470059	3.202659	-0.136909	0.020786	-0.077253	-0.548340	-0.182373	0.518311	4.645963	-71.588976	34.037879
52717		9.171400	0.357022	3.231827	-0.153939	0.020332	-0.065421	-0.533936	-0.178955	0.519775	4.669862	-71.577325	33.921718
52718		9.203211	0.205261	3.324782	-0.171315	0.038881	-0.051338	-0.538086	-0.180420	0.512451	4.656697	-71.554466	33.833774
52719		9.284247	0.134181	3.381222	-0.194311	0.050306	-0.038665	-0.538086	-0.189453	0.520508	4.607277	-71.526952	33.770493
52720		9.300903	0.068507	3.320295	-0.209859	0.032073	-0.020089	-0.548096	-0.190186	0.520020	4.519421	-71.509449	33.737988
52721		9.310922	0.083135	3.287320	-0.217999	0.010718	0.004077	-0.538086	-0.186523	0.518799	4.388834	-71.506513	33.745971
52722		9.235999	0.032286	3.188672	-0.229462	0.003023	0.016003	-0.539063	-0.187744	0.510986	4.232007	-71.507206	33.774339
52723		9.161454	0.002807	3.187981	-0.218500	0.007922	0.020081	-0.543701	-0.187256	0.507324	4.074183	-71.506518	33.810739
52724		9.110867	-0.059266	3.243486	-0.203042	0.018659	0.016565	-0.539063	-0.193115	0.511719	3.929618	-71.498250	33.842131
52725		9.105819	-0.161524	3.169258	-0.187962	0.030924	0.000431	-0.543457	-0.189941	0.515869	3.820225	-71.483596	33.845912
52726		9.193274	-0.280154	3.129814	-0.169071	0.041110	-0.023767	-0.547363	-0.184326	0.502686	3.761478	-71.460927	33.807315
52727		9.246152	-0.362822	3.167954	-0.148111	0.030958	-0.050443	-0.544678	-0.197021	0.508301	3.761701	-71.444339	33.719560
52728		9.384743	-0.400765	3.171375	-0.135986	0.012993	-0.068703	-0.541016	-0.194336	0.509033	3.801456	-71.436053	33.597021
52729		9.520384	-0.280592	3.182554	-0.122879	-0.009103	-0.083484	-0.537598	-0.190674	0.507324	3.876830	-71.441062	33.445235
52730		9.558226	-0.155851	3.217115	-0.105409	0.002206	-0.071640	-0.542725	-0.195313	0.509277	3.940224	-71.438749	33.316213
52731		9.514112	-0.000437	3.264958	-0.094057	0.018065	-0.054801	-0.538086	-0.197998	0.503174	3.980091	-71.429261	33.219300
52732		9.463671	0.146662	3.291409	-0.083246	0.027633	-0.024634	-0.538818	-0.196289	0.509521	3.973062	-71.414238	33.177943
52733		9.292681	0.240206	3.233123	-0.079696	0.043963	0.004172	-0.544189	-0.197510	0.505127	3.917783	-71.392279	33.190081
52734		9.150760	0.313350	3.173347	-0.076740	0.045450	0.027010	-0.539307	-0.202881	0.520264	3.824794	-71.369094	33.243357
52735		9.069530	0.281031	3.152650	-0.077986	0.036618	0.032899	-0.542969	-0.200195	0.502686	3.722847	-71.352406	33.305782
52736		8.937311	0.232819	3.121675	-0.073042	0.016379	0.028349	-0.539551	-0.203369	0.504395	3.633207	-71.345836	33.357776
52737		8.931465	0.222786	3.099441	-0.073518	-0.005037	0.005936	-0.551758	-0.194824	0.506592	3.584135	-71.351938	33.367103
52738		9.026429	0.133458	3.176771	-0.079427	-0.013966	-0.010954	-0.541504	-0.197266	0.515137	3.560680	-71.361289	33.345388
52739		9.139301	0.014990	3.205491	-0.082611	-0.010465	-0.031225	-0.538086	-0.201660	0.503174	3.569966	-71.369168	33.287629
52740		9.239286	-0.056081	3.225338	-0.087967	-0.001135	-0.039384	-0.544189	-0.202393	0.506104	3.588478	-71.370164	33.216459
52741		9.430409	-0.107249	3.218078	-0.092637	0.012415	-0.038755	-0.543213	-0.197998	0.501465	3.602372	-71.364680	33.147775
52742		9.459321	-0.124894	3.216674	-0.092063	0.011281	-0.035587	-0.541260	-0.197998	0.508789	3.610704	-71.358706	33.084857
52743		9.442000	-0.123495	3.247094	-0.070626	0.001061	-0.024852	-0.536133	-0.199463	0.499268	3.614821	-71.360209	33.039798
52744		9.419322	-0.128423	3.253561	-0.055964	-0.010570	-0.019278	-0.548828	-0.203125	0.496094	3.618485	-71.367320	33.003621
52745		9.287144	-0.113129	3.254707	-0.040687	-0.026758	-0.013272	-0.539551	-0.209717	0.506348	3.623136	-71.385147	32.976104
52746		9.188926	-0.070864	3.213383	-0.026821	-0.034022	-0.009652	-0.535156	-0.204590	0.503662	3.629696	-71.406017	32.954483
52747		9.154306	-0.029091	3.208318	-0.005667	-0.031799	-0.012788	-0.540283	-0.205078	0.505859	3.654215	-71.426741	32.927180
52748		9.102925	-0.014782	3.215729	0.019451	-0.014063	-0.007301	-0.542725	-0.201660	0.497803	3.681165	-71.436280	32.912012
52749		9.123832	0.059733	3.164635	0.032117	0.002014	-0.003052	-0.537354	-0.198486	0.510498	3.707125	-71.438023	32.906029
52750		9.199236	0.023154	3.130462	0.027040	0.014859	0.005545	-0.541260	-0.201416	0.512695	3.713367	-71.431500	32.917286
52751		9.301354	0.054772	3.150416	0.020773	0.031363	0.020130	-0.535400	-0.195068	0.504395	3.690153	-71.417319	32.956323
52752		9.409390	0.061717	3.176438	0.026041	0.046524	0.037974	-0.545410	-0.208008	0.503662	3.637281	-71.393878	33.029343
52753		9.452663	0.097436	3.186097	0.038640	0.065708	0.055918	-0.544678	-0.199463	0.505127	3.560084	-71.361322	33.136159
52754		9.375407	0.101370	3.209310	0.055843	0.080217	0.069084	-0.542236	-0.202637	0.496338	3.468533	-71.319649	33.268053
52755		9.316070	0.064926	3.265821	0.060814	0.093575	0.071552	-0.540771	-0.190918	0.506348	3.375587	-71.271584	33.404960
52756		9.272321	0.086311	3.329440	0.056758	0.088648	0.060172	-0.543213	-0.199463	0.500732	3.299785	-71.224663	33.520849
52757		9.183557	0.079363	3.306661	0.047051	0.062410	0.045769	-0.540039	-0.200684	0.505127	3.246306	-71.193468	33.607807
52758		9.164086	0.098083	3.180208	0.055503	0.036326	0.027354	-0.544434	-0.194580	0.502930	3.230488	-71.175348	33.659608
52759		9.174870	0.090846	3.129909	0.064437	0.019705	0.009349	-0.549316	-0.192383	0.501221	3.252355	-71.167387	33.677505
52760		9.248488	0.112902	3.134189	0.074399	0.027059	0.008716	-0.542969	-0.198975	0.500732	3.279536	-71.153972	33.695317
52761		9.247546	0.113941	3.136929	0.060324	0.033850	0.014492	-0.544189	-0.198730	0.503174	3.289079	-71.138092	33.723750
52762		9.257035	0.155869	3.204084	0.041797	0.033314	0.015475	-0.547607	-0.197754	0.496582	3.285683	-71.121329	33.754140
52763		9.324400	0.189571	3.284590	0.014065	0.022787	0.020419	-0.543213	-0.193359	0.507324	3.259923	-71.111970	33.791877
52764		9.328626	0.232839	3.246908	0.001121	0.011691	0.018767	-0.537842	-0.196533	0.497070	3.229840	-71.107677	33.825847
52765		9.356564	0.271700	3.280992	-0.010891	-0.015781	0.009544	-0.535400	-0.191650	0.507080	3.211624	-71.120020	33.840499
52766		9.386288	0.262072	3.196423	0.001719	-0.026174	0.001269	-0.551270	-0.185059	0.507568	3.214709	-71.136822	33.839782
52767		9.357702	0.280923	3.196773	0.019419	-0.012418	-0.005832	-0.543701	-0.194580	0.505859	3.239274	-71.146745	33.827574
52768		9.278497	0.226111	3.153038	0.040997	0.006071	-0.003086	-0.544922	-0.196533	0.505859	3.269140	-71.144966	33.822346
52769		9.180292	0.231596	3.176586	0.058332	0.010274	0.001898	-0.545654	-0.192627	0.508057	3.300904	-71.142158	33.826091
52770		9.117619	0.195593	3.202544	0.059696	0.003075	0.005680	-0.537842	-0.191650	0.498779	3.327101	-71.142385	33.836067
52771		9.128796	0.218175	3.167468	0.051453	-0.011072	0.013132	-0.547852	-0.194580	0.499023	3.338180	-71.152163	33.857505
52772		9.164064	0.206305	3.186893	0.044672	-0.016197	0.016205	-0.544678	-0.192627	0.505127	3.340012	-71.163768	33.884133
52773		9.188030	0.181414	3.160720	0.034372	-0.006286	0.017976	-0.538330	-0.187256	0.507080	3.332691	-71.170969	33.914669
52774		9.217612	0.153532	3.238514	0.030587	-0.003956	0.015086	-0.540527	-0.194580	0.504883	3.327115	-71.175537	33.940599
52775		9.235733	0.122475	3.190056	0.021946	-0.005924	0.007117	-0.538086	-0.190674	0.510254	3.330842	-71.182168	33.951939
52776		9.323517	0.068136	3.182951	0.023735	-0.008744	-0.005275	-0.537354	-0.195068	0.499268	3.355977	-71.188798	33.941275
52777		9.365013	0.034426	3.207270	0.027604	-0.017954	-0.007824	-0.541016	-0.188232	0.498291	3.389236	-71.201810	33.924842
52778		9.330328	0.078015	3.202311	0.035694	-0.030549	-0.016781	-0.536621	-0.191162	0.504883	3.442780	-71.220519	33.891406
52779		9.319457	0.097364	3.171493	0.043269	-0.035210	-0.011005	-0.541748	-0.193115	0.506592	3.492224	-71.243280	33.867362
52780		9.261050	0.174585	3.110628	0.053538	-0.022301	-0.004567	-0.543701	-0.191162	0.507568	3.534720	-71.257686	33.856395
52781		9.225337	0.246915	3.124727	0.061060	-0.002407	0.010767	-0.534912	-0.189209	0.504150	3.554359	-71.262450	33.874592
52782		9.154031	0.350372	3.217957	0.062385	0.009540	0.031009	-0.535645	-0.188965	0.500488	3.538667	-71.259912	33.930428
52783		9.164037	0.399929	3.202463	0.060916	0.021640	0.042239	-0.546631	-0.186523	0.504883	3.502691	-71.252028	34.007269
52784		9.192077	0.408169	3.220215	0.044005	0.022963	0.056850	-0.537842	-0.187256	0.503174	3.431650	-71.242685	34.110452
52785		9.222025	0.326939	3.183820	0.030447	0.016433	0.054784	-0.541260	-0.187988	0.505127	3.357727	-71.238150	34.208939
52786		9.285309	0.321838	3.221192	0.018101	-0.000927	0.052302	-0.543457	-0.184326	0.509033	3.281977	-71.242237	34.301437
52787		9.345472	0.213712	3.260515	0.015658	-0.021493	0.039505	-0.547607	-0.187744	0.499023	3.228942	-71.258823	34.368912
52788		9.404712	0.174352	3.253750	0.005422	-0.034157	0.022126	-0.539063	-0.184814	0.510498	3.199829	-71.280896	34.404485
52789		9.419126	0.088807	3.322773	-0.006208	-0.036187	0.003653	-0.535889	-0.179199	0.503174	3.196017	-71.304720	34.406746
52790		9.444345	0.034575	3.276356	-0.015966	-0.037659	-0.012018	-0.540283	-0.193359	0.513428	3.212636	-71.327701	34.381098
52791		9.387344	0.072375	3.276913	-0.024983	-0.040039	-0.022996	-0.541504	-0.182617	0.506348	3.243609	-71.352870	34.335290
52792		9.377277	0.061085	3.227378	-0.030066	-0.041102	-0.026862	-0.535645	-0.190674	0.506836	3.277782	-71.377331	34.282594
52793		9.320414	0.078213	3.129370	-0.031998	-0.040184	-0.017344	-0.534912	-0.187988	0.509521	3.295349	-71.402753	34.246703
52794		9.256384	0.168021	3.143766	-0.025115	-0.026265	-0.012152	-0.532227	-0.186035	0.510498	3.306054	-71.419205	34.221772
52795		9.265675	0.286287	3.081448	-0.021579	0.000929	0.002832	-0.540039	-0.175049	0.502930	3.291299	-71.421772	34.226284
52796		9.240867	0.368387	3.143598	-0.014020	0.020827	0.018147	-0.536865	-0.185791	0.507324	3.252221	-71.412286	34.260586
52797		9.274049	0.412762	3.202406	-0.009899	0.022344	0.026769	-0.541016	-0.193115	0.505127	3.201393	-71.403373	34.310220
52798		9.313269	0.442328	3.185006	-0.012646	0.008220	0.028836	-0.541260	-0.189209	0.508301	3.146223	-71.401421	34.362347
52799		9.366419	0.387834	3.238105	-0.011700	-0.013353	0.017242	-0.539063	-0.183838	0.510498	3.113932	-71.412606	34.391334
52800		9.443864	0.279918	3.246916	-0.010336	-0.016848	0.012791	-0.537354	-0.184082	0.511230	3.089696	-71.424479	34.412232
52801		9.406151	0.178934	3.308959	-0.002016	-0.009618	-0.000135	-0.540771	-0.190674	0.509033	3.092144	-71.432984	34.410421
52802		9.337636	0.144698	3.231051	0.001732	0.000606	-0.009675	-0.535889	-0.186768	0.509521	3.111469	-71.434175	34.392663
52803		9.252464	0.074202	3.246631	0.002004	0.015036	-0.006756	-0.545410	-0.193115	0.505859	3.125219	-71.428368	34.381358
52804		9.166156	0.041713	3.200344	0.000872	0.013569	-0.004865	-0.537842	-0.175049	0.501465	3.134645	-71.422292	34.373522
52805		9.091918	-0.007987	3.181374	0.001082	0.006632	0.002181	-0.541260	-0.180908	0.509766	3.133429	-71.421572	34.377449
52806		9.073731	0.031611	3.148954	0.004351	-0.003448	0.006064	-0.534180	-0.181152	0.513672	3.127810	-71.425574	34.387581
52807		9.119049	0.069608	3.152960	0.009752	0.003178	0.017023	-0.542725	-0.181396	0.502930	3.106612	-71.427291	34.417829
52808		9.185549	0.179150	3.106497	0.017369	0.017902	0.028271	-0.531250	-0.187988	0.505615	3.068668	-71.419762	34.469929
52809		9.263703	0.262392	3.170335	0.019416	0.048632	0.035235	-0.541016	-0.179199	0.506836	3.017945	-71.396014	34.537173
52810		9.282644	0.411486	3.257965	0.027894	0.050389	0.041673	-0.543701	-0.194336	0.506348	2.960551	-71.370272	34.616179
52811		9.287639	0.385263	3.266590	0.022323	0.032727	0.042987	-0.537598	-0.180908	0.506836	2.900025	-71.355810	34.695543
52812		9.298202	0.403584	3.233708	0.010014	0.008497	0.035079	-0.536377	-0.178223	0.503418	2.847446	-71.353798	34.758681
52813		9.310170	0.384366	3.261401	0.004117	-0.009316	0.022412	-0.541016	-0.182373	0.510498	2.815013	-71.362770	34.797391
52814		9.270637	0.359386	3.198617	0.001181	-0.014530	0.007829	-0.537842	-0.186279	0.506348	2.805538	-71.373148	34.809709
52815		9.242863	0.318789	3.163659	0.000439	-0.008204	-0.003756	-0.537842	-0.188477	0.511230	2.815294	-71.380744	34.801671
52816		9.203357	0.287305	3.181846	-0.008022	-0.006266	-0.018448	-0.538818	-0.179932	0.505859	2.844515	-71.385654	34.767601
52817		9.204120	0.259399	3.162874	-0.026848	-0.015745	-0.027240	-0.536377	-0.183838	0.506104	2.879217	-71.396890	34.716745
52818		9.222729	0.221438	3.193662	-0.034699	-0.025504	-0.035929	-0.544434	-0.181152	0.503174	2.924617	-71.412289	34.649491
52819		9.224097	0.194111	3.172945	-0.033330	-0.034419	-0.033488	-0.541748	-0.190430	0.516357	2.968015	-71.434003	34.585551
52820		9.261726	0.095396	3.135519	-0.036444	-0.054366	-0.027557	-0.534668	-0.182129	0.505615	3.000943	-71.466137	34.530418
52821		9.327864	0.036279	3.130892	-0.037793	-0.056293	-0.016220	-0.538330	-0.188965	0.509277	3.014528	-71.500864	34.495244
52822		9.346624	0.013973	2.997761	-0.039412	-0.044398	-0.006494	-0.541016	-0.178711	0.503174	3.009036	-71.527925	34.478848
52823		9.415765	0.056777	2.991938	-0.027887	-0.015809	-0.000549	-0.537354	-0.186523	0.514893	2.997897	-71.539959	34.475735
52824		9.385774	0.132752	3.030131	-0.010145	0.011599	0.015617	-0.536865	-0.183105	0.508057	2.966244	-71.535651	34.504598
52825		9.319891	0.249943	3.067603	0.013968	0.024320	0.020173	-0.541992	-0.189453	0.507080	2.940008	-71.525336	34.542686
52826		9.323444	0.342907	3.147151	0.023565	0.029262	0.026078	-0.533691	-0.182617	0.510498	2.908268	-71.511226	34.592012
52827		9.333628	0.383231	3.213504	0.027171	0.026722	0.027448	-0.537598	-0.185059	0.510986	2.877029	-71.499734	34.643357
52828		9.360240	0.460319	3.187175	0.029095	0.022109	0.026173	-0.532227	-0.183105	0.501221	2.849046	-71.489704	34.692082
52829		9.377310	0.448422	3.239532	0.025917	0.018167	0.022393	-0.538818	-0.186035	0.514160	2.826538	-71.482948	34.733468
52830		9.371844	0.402936	3.280932	0.011184	0.022758	0.009804	-0.538574	-0.184326	0.501953	2.816307	-71.472076	34.752670
52831		9.344436	0.294345	3.292962	-0.018586	0.010117	-0.001801	-0.548096	-0.179199	0.514404	2.810329	-71.469240	34.749734
52832		9.310297	0.248000	3.236881	-0.033410	0.004181	-0.024047	-0.539307	-0.190674	0.499512	2.833934	-71.468042	34.706312
52833		9.247921	0.182901	3.245264	-0.047760	0.007454	-0.034972	-0.541748	-0.187500	0.501221	2.868085	-71.465785	34.643421
52834		9.212893	0.197200	3.225069	-0.045232	0.001984	-0.044031	-0.538818	-0.184326	0.509277	2.919209	-71.465249	34.563834
52835		9.196493	0.142622	3.219119	-0.043915	0.003651	-0.044411	-0.531494	-0.187500	0.508057	2.971987	-71.464857	34.483620
52836		9.196285	0.145129	3.219600	-0.045260	0.005419	-0.041319	-0.540771	-0.190918	0.515137	3.018147	-71.462391	34.409251
52837		9.161659	0.129837	3.181656	-0.048168	0.012195	-0.033926	-0.542725	-0.184326	0.508301	3.049803	-71.457389	34.348743
52838		9.206864	0.140256	3.169475	-0.046228	0.024980	-0.020096	-0.531982	-0.180664	0.501709	3.057379	-71.444356	34.314482
52839		9.210329	0.214396	3.150502	-0.041715	0.023441	-0.011164	-0.529053	-0.185303	0.506592	3.052851	-71.433607	34.296036
52840		9.238132	0.224382	3.168810	-0.038207	0.025786	0.005250	-0.538330	-0.182129	0.502197	3.021757	-71.420888	34.307415
52841		9.247338	0.302882	3.172763	-0.030636	0.021110	0.011018	-0.534668	-0.178711	0.503906	2.986041	-71.412144	34.328566
52842		9.246593	0.300808	3.175130	-0.026349	0.028237	0.014282	-0.534912	-0.193604	0.505615	2.946238	-71.398287	34.356310
52843		9.279906	0.316132	3.216877	-0.019543	0.031633	0.009843	-0.537598	-0.190186	0.505127	2.918021	-71.383480	34.376260
52844		9.244748	0.297930	3.180769	-0.015690	0.027855	0.000405	-0.541260	-0.193359	0.502197	2.908020	-71.369430	34.379012
52845		9.250874	0.245352	3.169206	-0.021578	0.011790	-0.010962	-0.540771	-0.189209	0.514404	2.915699	-71.365369	34.359852
52846		9.263789	0.170467	3.160645	-0.031588	-0.009485	-0.022726	-0.538818	-0.193848	0.507324	2.939094	-71.372012	34.317756
52847		9.270007	0.177890	3.181820	-0.050690	-0.029953	-0.031806	-0.536865	-0.189697	0.515869	2.969161	-71.391216	34.257372
52848		9.271440	0.149745	3.161041	-0.055442	-0.027175	-0.029933	-0.538086	-0.188965	0.504883	2.992797	-71.407757	34.200611
52849		9.278364	0.127418	3.163672	-0.057406	-0.019141	-0.025927	-0.534912	-0.183838	0.510742	3.008202	-71.420935	34.151647
52850		9.295371	0.155723	3.151079	-0.050552	-0.003524	-0.019306	-0.534424	-0.191895	0.510010	3.014520	-71.424257	34.116119
52851		9.289682	0.149450	3.128260	-0.044035	0.004541	-0.010199	-0.532715	-0.181152	0.503906	3.008721	-71.424355	34.097610
52852		9.318667	0.130539	3.126542	-0.037263	0.005937	-0.005032	-0.541504	-0.189453	0.506836	2.997507	-71.422698	34.088613
52853		9.335450	0.148145	3.195884	-0.031785	0.003946	-0.000860	-0.538330	-0.186523	0.500488	2.982879	-71.423418	34.086822
52854		9.358946	0.122957	3.170750	-0.033220	-0.003070	-0.006098	-0.541260	-0.192139	0.501953	2.976592	-71.426888	34.075070
52855		9.346979	0.139755	3.143387	-0.023831	0.007119	-0.008536	-0.539551	-0.198242	0.503418	2.979311	-71.425563	34.059788
52856		9.386975	0.134147	3.188337	-0.020300	0.020625	-0.016806	-0.535645	-0.179199	0.508057	2.996545	-71.415159	34.031033
52857		9.304949	0.167251	3.202010	-0.010493	0.026062	-0.020310	-0.541992	-0.188477	0.506836	3.025223	-71.402640	33.996423
52858		9.258118	0.159366	3.218608	0.002678	0.033913	-0.019861	-0.538330	-0.191895	0.504395	3.059541	-71.384534	33.963529
52859		9.228648	0.150190	3.205135	0.004638	0.022149	-0.015651	-0.540283	-0.190186	0.507324	3.089237	-71.374384	33.936987
52860		9.195287	0.075733	3.130858	-0.003609	0.007984	-0.008236	-0.535645	-0.194336	0.509033	3.102512	-71.371464	33.922493
52861		9.149421	0.066395	3.144710	-0.012215	-0.006572	-0.003849	-0.541504	-0.187256	0.506104	3.105139	-71.378107	33.914327
52862		9.195697	0.065988	3.210624	-0.013943	-0.008942	0.004455	-0.544434	-0.192139	0.510254	3.092493	-71.385267	33.920937
52863		9.156695	0.012544	3.129962	-0.011400	0.001263	0.009181	-0.538330	-0.188965	0.510742	3.072733	-71.387830	33.936885
52864		9.179422	0.016023	3.123640	-0.010550	0.011118	0.012615	-0.539795	-0.189209	0.506836	3.046318	-71.383762	33.960071
52865		9.178520	0.043939	3.142757	-0.012000	0.005821	0.008737	-0.534912	-0.193848	0.503174	3.026555	-71.383699	33.975661
52866		9.223820	0.081869	3.147059	-0.010520	-0.011672	0.004307	-0.540039	-0.194824	0.507324	3.016304	-71.392418	33.981804
52867		9.287573	0.089898	3.101627	-0.004882	-0.027378	-0.002445	-0.534912	-0.186279	0.508057	3.022595	-71.411012	33.974206
52868		9.293460	0.125783	3.140254	0.003872	-0.030273	-0.009527	-0.536377	-0.194092	0.503174	3.045802	-71.429959	33.953749
52869		9.306096	0.119361	3.084460	0.012573	-0.033477	-0.005647	-0.533203	-0.191895	0.514893	3.068158	-71.451942	33.939756
52870		9.271778	0.161546	3.078731	0.022036	-0.039329	0.001553	-0.537109	-0.187988	0.501953	3.083784	-71.476412	33.938276
52871		9.249007	0.215270	3.118224	0.027906	-0.048097	0.014249	-0.535889	-0.185303	0.508057	3.082334	-71.507371	33.958655
52872		9.303973	0.142129	3.067340	0.009994	-0.058630	0.022553	-0.547119	-0.192627	0.505615	3.056874	-71.543532	33.993224
52873		9.323616	0.109366	3.013620	-0.001737	-0.059472	0.027353	-0.534668	-0.190430	0.509277	3.016833	-71.581391	34.036371
52874		9.355071	0.058801	2.987651	-0.002937	-0.054092	0.034696	-0.538574	-0.195068	0.510010	2.962378	-71.615310	34.093676
52875		9.362903	0.032092	2.987365	-0.004299	-0.050623	0.039161	-0.541992	-0.192383	0.515381	2.899363	-71.648427	34.159467
52876		9.364504	0.028244	2.982381	0.001403	-0.055856	0.042104	-0.541748	-0.190918	0.509277	2.834307	-71.683538	34.230535
52877		9.366616	-0.004754	2.959000	0.018386	-0.052075	0.044033	-0.533691	-0.186279	0.515137	2.775510	-71.717576	34.305546
52878		9.384250	0.048919	2.961141	0.023823	-0.045194	0.044059	-0.538086	-0.187256	0.511475	2.718528	-71.746601	34.381611
52879		9.338153	0.104147	2.927616	0.027353	-0.035425	0.044012	-0.546143	-0.190430	0.514160	2.663097	-71.771063	34.458462
52880		9.320127	0.199974	2.928874	0.045298	-0.032089	0.041166	-0.542969	-0.191895	0.508057	2.622021	-71.792477	34.530714
52881		9.331451	0.248524	2.910104	0.050132	-0.018935	0.042107	-0.525879	-0.184326	0.511475	2.581362	-71.807414	34.605736
52882		9.330846	0.334170	2.963203	0.060322	-0.014843	0.040231	-0.538818	-0.187744	0.514648	2.548979	-71.818912	34.677893
52883		9.325611	0.375216	3.055404	0.056197	-0.020055	0.039838	-0.531738	-0.186523	0.506348	2.515672	-71.834403	34.748824
52884		9.361372	0.361093	3.073422	0.040386	-0.029211	0.030589	-0.536377	-0.185059	0.512695	2.489664	-71.853865	34.802252
52885		9.380541	0.319702	3.102716	0.024725	-0.031008	0.017351	-0.538574	-0.186768	0.510986	2.478263	-71.875049	34.831140
52886		9.342542	0.228224	3.082355	0.014320	-0.026125	0.002614	-0.538330	-0.190430	0.507568	2.485922	-71.892048	34.833431
52887		9.372871	0.181112	3.058871	-0.000929	-0.034397	-0.013045	-0.536133	-0.182617	0.516113	2.513279	-71.914414	34.806075
52888		9.345862	0.112887	3.003407	-0.010943	-0.034563	-0.017883	-0.532959	-0.190430	0.519043	2.543113	-71.935730	34.769818
52889		9.370494	0.060442	2.956481	-0.019237	-0.037818	-0.024161	-0.535400	-0.181396	0.515625	2.579912	-71.959761	34.721504
52890		9.400332	0.072814	2.968710	-0.013755	-0.038103	-0.018647	-0.536865	-0.185791	0.514893	2.609924	-71.983076	34.683374
52891		9.383481	0.084472	2.914914	-0.004523	-0.033863	-0.004813	-0.539307	-0.187500	0.511719	2.620963	-72.005335	34.671026
52892		9.401973	0.102735	2.980674	0.006213	-0.027756	0.010155	-0.533203	-0.183594	0.514648	2.610917	-72.023486	34.687051
52893		9.350414	0.144560	3.006336	0.018066	-0.018457	0.024596	-0.533203	-0.192627	0.512695	2.581766	-72.037692	34.730561
52894		9.350538	0.171706	3.023308	0.019705	-0.007805	0.034059	-0.531738	-0.182617	0.512939	2.535584	-72.045036	34.792698
52895		9.378591	0.189042	2.958041	0.021574	-0.003827	0.039579	-0.538574	-0.186768	0.516602	2.480730	-72.051221	34.865336
52896		9.384423	0.192213	2.981259	0.024325	0.012023	0.038916	-0.528564	-0.178467	0.514893	2.427052	-72.047304	34.938138
52897		9.395390	0.231286	3.046982	0.021603	0.026439	0.031376	-0.536865	-0.186523	0.510254	2.384449	-72.035927	34.997917
52898		9.394911	0.200247	3.031250	0.014797	0.027059	0.016643	-0.535400	-0.188232	0.506592	2.363634	-72.022848	35.030446
52899		9.400301	0.176589	3.038320	0.006685	0.024292	0.000925	-0.527100	-0.182617	0.510986	2.366453	-72.011966	35.033492
52900		9.399725	0.177269	3.040064	-0.008377	0.012785	-0.015930	-0.539795	-0.181885	0.516602	2.390872	-72.006289	35.004510
52901		9.399470	0.149750	3.023465	-0.017674	0.020860	-0.031185	-0.530518	-0.182129	0.515137	2.436541	-71.996599	34.947827
52902		9.382031	0.095272	3.020100	-0.027806	0.043604	-0.040228	-0.531250	-0.187012	0.509766	2.490200	-71.972673	34.876389
52903		9.334607	0.089056	3.039292	-0.033950	0.062477	-0.046255	-0.535645	-0.184326	0.511963	2.549603	-71.938749	34.795440
52904		9.293398	0.030304	3.045822	-0.036795	0.064088	-0.042931	-0.529297	-0.188721	0.513916	2.600832	-71.902992	34.721115
52905		9.320829	0.014523	3.048416	-0.033654	0.043193	-0.037823	-0.535156	-0.193848	0.503906	2.646714	-71.880280	34.654539
52906		9.313516	0.039594	3.047178	-0.026983	0.030060	-0.023177	-0.540527	-0.190430	0.511230	2.671416	-71.864494	34.614017
52907		9.347557	0.028211	3.070226	-0.021674	0.024135	-0.012299	-0.539551	-0.193604	0.513184	2.680945	-71.853353	34.592906
52908		9.357041	0.079072	3.057019	-0.012179	0.042794	0.004525	-0.533691	-0.180176	0.511475	2.664656	-71.831021	34.604441
52909		9.314746	0.083874	3.018721	-0.003661	0.067334	0.019243	-0.541260	-0.188965	0.507568	2.626043	-71.795993	34.644862
52910		9.277084	0.152526	3.040808	0.001063	0.064249	0.028312	-0.537109	-0.180908	0.513184	2.574408	-71.761999	34.701601
52911		9.257849	0.160744	2.995266	0.013648	0.042935	0.033738	-0.538818	-0.191895	0.509521	2.522753	-71.741285	34.766212
52912		9.296467	0.190562	2.980034	0.019946	0.031419	0.035771	-0.535400	-0.186035	0.507080	2.471821	-71.726243	34.833620
52913		9.284073	0.225001	3.052882	0.020469	0.007485	0.030669	-0.541748	-0.183838	0.505615	2.432223	-71.725712	34.889658
52914		9.279037	0.178238	3.092693	0.021446	0.005328	0.024545	-0.540771	-0.182617	0.512207	2.403628	-71.725311	34.934458
52915		9.337108	0.139722	3.088338	0.013544	0.000755	0.019910	-0.540527	-0.183838	0.518066	2.379201	-71.728357	34.970341
52916		9.343490	0.085831	3.075319	0.008964	0.010901	0.017796	-0.542480	-0.171875	0.511963	2.354760	-71.724596	35.003239
52917		9.361064	0.044193	3.108918	-0.002970	0.017066	0.015584	-0.534912	-0.176270	0.510986	2.327216	-71.718193	35.032440
52918		9.366503	0.019336	3.115692	-0.008694	0.027457	0.016717	-0.533447	-0.177734	0.507080	2.293403	-71.704923	35.064556
52919		9.313470	0.060617	3.145159	-0.011850	0.014654	0.017070	-0.537354	-0.185303	0.507813	2.258418	-71.699925	35.096240
52920		9.307341	0.052265	3.123485	-0.012422	0.012054	0.022129	-0.540771	-0.186523	0.502197	2.214209	-71.695584	35.137054
52921		9.260898	0.069751	3.156253	-0.007469	0.000582	0.025905	-0.540771	-0.177246	0.511719	2.167405	-71.698821	35.183831
52922		9.225712	0.108999	3.154036	0.003107	0.003334	0.025710	-0.541748	-0.182861	0.514648	2.126472	-71.699531	35.230566
52923		9.195946	0.154931	3.175657	0.021189	0.020850	0.024346	-0.539063	-0.179199	0.512939	2.097485	-71.691109	35.275873
52924		9.165632	0.181333	3.100436	0.031298	0.044097	0.026517	-0.535645	-0.177979	0.509277	2.068797	-71.668479	35.326732
52925		9.187509	0.175357	3.177899	0.033961	0.043997	0.023047	-0.541260	-0.183838	0.504639	2.048052	-71.646764	35.371074
52926		9.179910	0.226686	3.194786	0.027769	0.030902	0.023845	-0.534668	-0.179199	0.507568	2.022945	-71.631622	35.416045
52927		9.242716	0.223563	3.233188	0.013114	0.007217	0.022343	-0.543945	-0.184570	0.503662	1.993816	-71.630941	35.456643
52928		9.272206	0.173685	3.212587	0.003142	-0.010678	0.025774	-0.539795	-0.178955	0.514648	1.953820	-71.639629	35.502442
52929		9.341458	0.185083	3.190758	0.000116	-0.010972	0.026217	-0.539063	-0.177979	0.506104	1.911589	-71.649422	35.548994
52930		9.318878	0.177925	3.196757	-0.012739	-0.009497	0.024664	-0.532471	-0.183838	0.509521	1.864268	-71.657391	35.592928
52931		9.325168	0.152464	3.200890	-0.018007	-0.003565	0.013769	-0.540283	-0.184570	0.502686	1.832660	-71.662690	35.617344
52932		9.313760	0.138601	3.155079	-0.026311	0.003793	0.004680	-0.542725	-0.182373	0.510986	1.811319	-71.662668	35.625711
52933		9.296672	0.109959	3.167286	-0.026289	0.007518	-0.003554	-0.533936	-0.186523	0.511963	1.804277	-71.661301	35.619248
52934		9.296109	0.119172	3.087914	-0.024957	0.014627	-0.010797	-0.537109	-0.187988	0.508057	1.809861	-71.654796	35.600073
52935		9.266171	0.167164	3.110156	-0.014045	0.022907	-0.003874	-0.537354	-0.179688	0.513916	1.809544	-71.644611	35.593915
52936		9.277517	0.120589	3.121777	-0.013874	0.024818	-0.001000	-0.537354	-0.180176	0.515137	1.804005	-71.632450	35.593152
52937		9.253523	0.135284	3.229849	-0.005229	0.028440	0.008330	-0.534424	-0.175049	0.510742	1.787397	-71.619315	35.609483
52938		9.247071	0.128132	3.209154	-0.000681	0.020002	0.011812	-0.539795	-0.178955	0.513916	1.767621	-71.610140	35.631694
52939		9.258618	0.080394	3.220111	-0.004086	0.013874	0.016098	-0.538330	-0.188477	0.512207	1.739103	-71.605480	35.661268
52940		9.270356	0.041629	3.149750	-0.011804	0.000639	0.017109	-0.532471	-0.182617	0.512695	1.704874	-71.607477	35.691988
52941		9.258789	0.056853	3.121719	-0.014218	-0.009361	0.013911	-0.532471	-0.186768	0.513428	1.675508	-71.616076	35.716337
52942		9.299271	0.058194	3.084292	-0.006675	-0.005200	0.015533	-0.539795	-0.189697	0.513184	1.647193	-71.621383	35.743922
52943		9.299123	0.086111	3.102006	-0.000793	-0.006527	0.011776	-0.540527	-0.182617	0.503906	1.629020	-71.628316	35.764579
52944		9.322259	0.089397	3.094621	-0.005535	-0.003729	0.013651	-0.538330	-0.188965	0.514893	1.604502	-71.632747	35.788851
52945		9.356225	0.143472	3.071275	0.000496	0.000285	0.015493	-0.531250	-0.186279	0.504639	1.580301	-71.635833	35.816637
52946		9.419431	0.140408	3.108451	-0.001201	0.008821	0.010059	-0.537109	-0.172119	0.508789	1.563857	-71.633019	35.835018
52947		9.447614	0.150296	3.125954	-0.001780	0.022259	0.005467	-0.540039	-0.177734	0.506836	1.554615	-71.623358	35.845670
52948		9.429324	0.151805	3.158817	0.000871	0.041629	-0.004921	-0.536865	-0.177734	0.513916	1.563664	-71.601522	35.838459
52949		9.370252	0.160591	3.149229	0.003909	0.049081	-0.010868	-0.542236	-0.179199	0.503662	1.584536	-71.576243	35.820809
52950		9.350913	0.202432	3.121755	0.008473	0.054962	-0.018398	-0.540283	-0.185791	0.503662	1.620391	-71.546557	35.789921
52951		9.309325	0.171972	3.144974	0.011308	0.047895	-0.014844	-0.539063	-0.190430	0.510010	1.652244	-71.521886	35.765158
52952		9.267974	0.141564	3.167427	0.008523	0.039221	-0.019707	-0.542969	-0.184570	0.511475	1.690980	-71.501184	35.731240
52953		9.233034	0.097277	3.113265	0.008894	0.029020	-0.013899	-0.540283	-0.185303	0.509277	1.720650	-71.487329	35.707313
