// General information: 
//  MT Manager version: 2022.2.0 
//  XDA version: 2022.2.0 build 7381 rev 124627 built on 2023-07-19
// Device information: 
//  DeviceId: 00B4BCF6
//  ProductCode: MTW2-3A7G6
//  Firmware Version: 4.6.0
//  Hardware Version: 2.0.0
// Device settings: 
//  Filter Profile: human(46.1)
//  Option Flags: Orientation Smoother Disabled, Position/Velocity Smoother Disabled, Continuous Zero Rotation Update Disabled, AHS Disabled, ICC Disabled
// Coordinate system: ENU
PacketCounter	SampleTimeFine	Acc_X	Acc_Y	Acc_Z	Gyr_X	Gyr_Y	Gyr_Z	Mag_X	Mag_Y	Mag_Z	Roll	Pitch	Yaw
51975		-4.692464	-0.171403	8.628311	0.000828	0.004610	0.001475	0.006592	-0.068359	-0.757568	-0.862716	28.493622	128.184815
51976		-4.691544	-0.172584	8.652414	-0.002749	0.005961	-0.003622	0.007568	-0.072510	-0.754395	-0.864160	28.492935	128.183539
51977		-4.682753	-0.150104	8.652601	0.002986	0.005215	-0.001131	-0.001953	-0.074951	-0.755127	-0.862199	28.491893	128.183642
51978		-4.669959	-0.182007	8.650223	-0.002749	0.005961	-0.003622	-0.002441	-0.071289	-0.761230	-0.863643	28.491206	128.182365
51979		-4.659828	-0.160792	8.674746	-0.001395	0.005907	-0.002343	0.005371	-0.064209	-0.757813	-0.864539	28.490458	128.181724
51980		-4.692125	-0.174417	8.675694	-0.003553	0.005301	0.000262	0.006348	-0.073242	-0.750000	-0.865233	28.489426	128.182986
51981		-4.693976	-0.173543	8.651076	-0.000041	0.005852	-0.001064	0.008301	-0.073242	-0.756592	-0.864996	28.488736	128.183173
51982		-4.670823	-0.183980	8.673353	-0.001436	0.011760	-0.003407	0.007080	-0.078125	-0.759033	-0.865649	28.491372	128.181980
51983		-4.698297	-0.172007	8.601492	-0.003935	0.007730	-0.003536	-0.004150	-0.081299	-0.750244	-0.868357	28.491756	128.180297
51984		-4.697641	-0.173306	8.625455	0.000615	0.008752	-0.000956	0.003662	-0.080811	-0.752686	-0.867058	28.492690	128.180731
51985		-4.663866	-0.162210	8.672549	-0.002094	0.008862	-0.003516	0.008789	-0.080811	-0.754150	-0.868640	28.493644	128.178871
51986		-4.705429	-0.198422	8.673022	-0.002857	0.002348	0.001433	0.010498	-0.068604	-0.755859	-0.868557	28.490931	128.180925
51987		-4.690091	-0.151240	8.624969	0.000615	0.008752	-0.000956	0.000000	-0.074707	-0.756836	-0.867870	28.491943	128.180900
51988		-4.711987	-0.143057	8.650592	0.000128	0.007566	0.000302	0.003174	-0.079102	-0.755859	-0.866453	28.492209	128.182166
51989		-4.676865	-0.184146	8.646446	-0.000740	0.008808	-0.002237	0.007324	-0.074463	-0.755127	-0.866909	28.493157	128.181358
51990		-4.698742	-0.176011	8.672079	0.001799	0.006986	-0.001044	-0.004395	-0.080322	-0.752930	-0.864950	28.493079	128.181752
51991		-4.679523	-0.183148	8.621382	-0.001227	0.007622	-0.000978	0.001709	-0.075439	-0.762695	-0.865280	28.493357	128.181728
51992		-4.668426	-0.163015	8.670080	-0.004465	0.012400	-0.003345	0.003418	-0.071777	-0.750244	-0.867651	28.496361	128.180569
51993		-4.671899	-0.161032	8.620946	0.002666	0.005744	0.001495	0.007080	-0.077148	-0.755371	-0.865016	28.495593	128.182355
51994		-4.693808	-0.152852	8.646561	-0.001927	0.010578	-0.002152	0.001709	-0.075195	-0.764893	-0.865553	28.497564	128.181991
51995		-4.703906	-0.175654	8.645637	-0.000741	0.008811	-0.002238	-0.003662	-0.065430	-0.756104	-0.866022	28.498542	128.181233
51996		-4.682116	-0.185126	8.643583	-0.002096	0.008866	-0.003519	0.000732	-0.084473	-0.756348	-0.867074	28.499520	128.179995
51997		-4.681490	-0.186517	8.667546	-0.002583	0.007679	-0.002260	0.007813	-0.081299	-0.757080	-0.868600	28.499783	128.179316
51998		-4.694079	-0.155972	8.693656	0.000443	0.007044	-0.002325	0.004883	-0.070068	-0.762207	-0.867817	28.499727	128.178875
51999		-4.708124	-0.175607	8.619691	-0.003601	0.011161	-0.000809	0.001465	-0.068359	-0.760254	-0.869495	28.502085	128.179009
52000		-4.683902	-0.187422	8.666223	-0.004150	0.011880	-0.005974	-0.001709	-0.071289	-0.754639	-0.872502	28.504768	128.176141
52001		-4.690097	-0.132220	8.643985	0.003956	0.007597	-0.003648	-0.001709	-0.071045	-0.755615	-0.870770	28.504981	128.174777
52002		-4.685546	-0.187745	8.665328	-0.003603	0.011163	-0.000810	0.003174	-0.062744	-0.753662	-0.871854	28.507299	128.175282
52003		-4.731465	-0.169754	8.668124	-0.003938	0.007737	-0.003543	0.004883	-0.067139	-0.752686	-0.874638	28.507602	128.174050
52004		-4.700268	-0.156789	8.666637	-0.003072	0.006494	-0.001003	0.005371	-0.072266	-0.759033	-0.875456	28.507243	128.174476
52005		-4.679619	-0.165222	8.640338	-0.000912	0.007102	-0.003607	0.004150	-0.073730	-0.758301	-0.876492	28.507236	128.173023
52006		-4.712112	-0.178897	8.641101	-0.002099	0.008871	-0.003522	-0.001709	-0.077637	-0.760010	-0.877547	28.508216	128.171783
52007		-4.657119	-0.176080	8.662324	-0.000912	0.007103	-0.003607	0.000732	-0.075684	-0.757568	-0.878515	28.508165	128.170181
52008		-4.691024	-0.188540	8.638678	0.001582	0.011137	-0.003478	0.001953	-0.066650	-0.756836	-0.877458	28.510444	128.168947
52009		-4.680030	-0.168028	8.687395	0.000287	0.009286	0.001666	0.004150	-0.078369	-0.754395	-0.876156	28.511689	128.170927
52010		-4.692684	-0.188446	8.637778	0.000607	0.008761	-0.000960	0.005371	-0.073486	-0.760254	-0.874863	28.512629	128.171358
52011		-4.682881	-0.166997	8.662205	-0.000746	0.008817	-0.002242	0.011475	-0.074463	-0.751465	-0.875314	28.513613	128.170527
52012		-4.684895	-0.166101	8.637462	-0.001234	0.007629	-0.000983	0.000244	-0.077393	-0.760010	-0.875077	28.513905	128.170955
52013		-4.684123	-0.167253	8.661529	-0.000534	0.004671	0.000191	0.000000	-0.075928	-0.755859	-0.874626	28.512546	128.171713
52014		-4.695209	-0.188878	8.636397	-0.001234	0.007630	-0.000983	-0.000244	-0.077148	-0.755615	-0.874390	28.512838	128.172140
52015		-4.685166	-0.167757	8.660955	-0.004273	0.004314	-0.006280	-0.000244	-0.080811	-0.756592	-0.878080	28.511145	128.168761
52016		-4.696027	-0.189853	8.635930	-0.003407	0.003070	-0.003739	0.007324	-0.072021	-0.750488	-0.879924	28.508800	128.167437
52017		-4.685835	-0.168634	8.660576	0.000273	0.005336	-0.003693	-0.000244	-0.071777	-0.754395	-0.880210	28.507761	128.165642
52018		-4.677168	-0.146149	8.660749	-0.001556	0.008155	0.001642	0.011475	-0.078613	-0.757080	-0.879344	28.508376	128.167776
52019		-4.665762	-0.176936	8.633973	-0.000048	0.005861	-0.001068	0.002197	-0.071533	-0.764893	-0.879018	28.507685	128.167750
52020		-4.679727	-0.145298	8.635704	-0.002423	0.009401	-0.000900	0.003662	-0.075195	-0.753174	-0.879445	28.508992	128.168213
52021		-4.656739	-0.155731	8.657997	-0.000583	0.010534	-0.000877	0.004150	-0.069580	-0.755127	-0.879412	28.510943	128.168453
52022		-4.680333	-0.146590	8.659031	0.000069	0.013438	-0.000771	-0.001709	-0.077637	-0.758789	-0.878391	28.514564	128.168961
52023		-4.666752	-0.179549	8.680754	-0.000262	0.010011	-0.003504	0.005615	-0.073486	-0.753662	-0.878976	28.516168	128.167478
52024		-4.692960	-0.168209	8.633042	0.001586	0.015098	0.001876	-0.000244	-0.073975	-0.757324	-0.876270	28.520763	128.169695
52025		-4.694373	-0.168355	8.632271	-0.002853	0.017702	-0.005773	0.006348	-0.072998	-0.754639	-0.879079	28.526771	128.166602
52026		-4.685292	-0.147101	8.656340	-0.001444	0.015737	0.001935	0.009277	-0.072754	-0.760010	-0.878093	28.531732	128.168851
52027		-4.728881	-0.182141	8.631868	-0.001287	0.013499	-0.002057	0.004150	-0.071289	-0.757813	-0.878846	28.535429	128.168208
52028		-4.706115	-0.192504	8.654069	-0.000909	0.011064	0.001745	0.009521	-0.070801	-0.756836	-0.877590	28.537712	128.170380
52029		-4.689996	-0.146286	8.630115	0.000551	0.014634	-0.002034	0.003418	-0.079102	-0.752686	-0.877309	28.542044	128.169848
52030		-4.712352	-0.138088	8.655468	0.002441	0.009904	-0.000941	0.008057	-0.072510	-0.756104	-0.874965	28.543638	128.170281
52031		-4.669351	-0.155613	8.627505	-0.002970	0.010128	-0.006074	0.008545	-0.084717	-0.746582	-0.877866	28.545340	128.166896
52032		-4.651949	-0.110767	8.627926	-0.001126	0.015218	-0.000694	0.001709	-0.072021	-0.754639	-0.877514	28.549981	128.167436
52033		-4.678649	-0.181067	8.674316	-0.006209	0.018873	-0.003097	-0.000244	-0.075684	-0.753662	-0.881341	28.556708	128.165728
52034		-4.712057	-0.194926	8.674485	-0.001830	0.018182	-0.001873	0.002441	-0.073975	-0.756104	-0.881774	28.563037	128.165470
52035		-4.705881	-0.171457	8.649644	-0.000531	0.023996	-0.001662	-0.001953	-0.071533	-0.753418	-0.881975	28.572650	128.164982
52036		-4.707877	-0.171532	8.648557	0.000656	0.022227	-0.001745	-0.004150	-0.070313	-0.761963	-0.880964	28.581298	128.164766
52037		-4.709950	-0.171657	8.647426	-0.001725	0.025773	-0.001584	0.005371	-0.074463	-0.755615	-0.881884	28.591867	128.164644
52038		-4.680366	-0.158219	8.645203	0.002328	0.025608	0.002266	0.001221	-0.077393	-0.754639	-0.878678	28.602486	128.167012
52039		-4.704059	-0.149926	8.669824	0.000271	0.028631	-0.000199	0.008057	-0.077637	-0.766846	-0.877968	28.614794	128.167342
52040		-4.694327	-0.180634	8.642123	0.001784	0.026337	-0.002907	0.003174	-0.073975	-0.757568	-0.876692	28.625786	128.166328
52041		-4.696623	-0.180568	8.640877	0.001456	0.026866	-0.000285	0.003174	-0.079102	-0.758545	-0.875337	28.637109	128.166722
52042		-4.708411	-0.202930	8.638966	0.001935	0.032020	0.003807	0.002441	-0.072021	-0.753662	-0.871902	28.651415	128.170034
52043		-4.691612	-0.158392	8.662838	0.004257	0.034353	0.002569	0.004395	-0.072998	-0.761719	-0.868072	28.667007	128.172182
52044		-4.694670	-0.158042	8.661187	0.001711	0.036188	0.001359	0.007324	-0.075928	-0.757080	-0.865549	28.683680	128.173857
52045		-4.729717	-0.171225	8.660381	0.000188	0.038494	0.004057	0.014160	-0.079346	-0.754150	-0.863625	28.701692	128.177012
52046		-4.740803	-0.113702	8.587928	-0.002734	0.042773	-0.000962	0.011719	-0.079590	-0.757080	-0.864407	28.722117	128.177108
52047		-4.737636	-0.170436	8.632313	-0.002137	0.032217	-0.000069	0.010010	-0.071045	-0.755859	-0.865004	28.736600	128.177159
52048		-4.763037	-0.161524	8.632212	-0.003002	0.033471	-0.002619	0.004639	-0.077637	-0.752197	-0.866416	28.751682	128.176263
52049		-4.743126	-0.171118	8.629284	-0.004628	0.028178	-0.000205	0.006836	-0.072266	-0.759521	-0.868528	28.763756	128.176644
52050		-4.746588	-0.170639	8.603625	-0.005806	0.025993	-0.005482	0.001221	-0.079346	-0.755615	-0.872412	28.774529	128.173950
52051		-4.738222	-0.149724	8.627436	-0.002231	0.020670	-0.005713	0.005859	-0.072754	-0.758301	-0.874827	28.782199	128.170859
52052		-4.726410	-0.181856	8.624593	-0.000824	0.014734	-0.003346	0.013428	-0.066406	-0.751953	-0.875131	28.786539	128.169672
52053		-4.750196	-0.172883	8.625359	-0.001313	0.013541	-0.002086	0.001221	-0.072266	-0.753174	-0.875939	28.790237	128.169219
52054		-4.726436	-0.184451	8.672079	-0.001958	0.010629	-0.002190	0.007568	-0.070068	-0.756104	-0.876510	28.792236	128.168829
52055		-4.761508	-0.195872	8.623640	0.000035	0.013486	-0.000800	0.010742	-0.080566	-0.761719	-0.876105	28.795831	128.169223
52056		-4.753234	-0.173473	8.623673	-0.002114	0.008910	-0.003554	0.008057	-0.072754	-0.749756	-0.877187	28.796833	128.167957
52057		-4.754998	-0.172562	8.598941	-0.000393	0.006410	0.001542	0.002930	-0.072510	-0.752930	-0.876180	28.796476	128.169553
52058		-4.746293	-0.150067	8.599217	-0.001410	0.005941	-0.002370	0.007568	-0.066895	-0.759766	-0.876471	28.795788	128.169092
52059		-4.721769	-0.161687	8.646376	-0.002697	0.000113	-0.002576	0.000977	-0.082275	-0.754639	-0.878153	28.791718	128.168568
52060		-4.745450	-0.151695	8.623429	-0.001349	0.000056	-0.001288	-0.000488	-0.075439	-0.759277	-0.878040	28.787668	128.168873
52061		-4.709543	-0.193022	8.619996	-0.004046	0.000169	-0.003864	0.000732	-0.078613	-0.756104	-0.880746	28.783544	128.167082
52062		-4.744284	-0.153601	8.647814	-0.002853	-0.001607	-0.003939	0.008545	-0.070557	-0.760010	-0.882321	28.778518	128.165671
52063		-4.754501	-0.175511	8.622933	-0.003186	-0.001081	-0.001316	0.007568	-0.075684	-0.758789	-0.883803	28.773772	128.165737
52064		-4.713440	-0.139721	8.622662	-0.001681	0.000582	0.001336	0.011230	-0.077637	-0.761963	-0.883057	28.770046	128.167752
52065		-4.731656	-0.185146	8.621646	-0.002304	-0.006296	-0.004118	0.012695	-0.068359	-0.758301	-0.884865	28.762370	128.165856
52066		-4.739129	-0.209099	8.645789	-0.001931	-0.008741	-0.000310	0.007324	-0.071777	-0.758057	-0.884735	28.753289	128.166890
52067		-4.688307	-0.150794	8.646376	-0.003830	-0.003995	-0.001419	0.009277	-0.074707	-0.751465	-0.886685	28.746964	128.167072
52068		-4.720800	-0.163565	8.623090	-0.003986	-0.005714	-0.002783	0.009033	-0.073242	-0.762695	-0.888524	28.739595	128.166459
52069		-4.728674	-0.187648	8.647007	-0.002698	0.000114	-0.002576	0.006592	-0.076416	-0.750244	-0.890136	28.735603	128.165593
52070		-4.742051	-0.156353	8.648989	-0.005729	0.000752	-0.002528	0.007813	-0.076416	-0.755859	-0.892925	28.731941	128.165082
52071		-4.696884	-0.175199	8.646121	-0.003186	-0.001081	-0.001316	0.008057	-0.076172	-0.753174	-0.894360	28.727245	128.164855
52072		-4.751220	-0.179860	8.648428	-0.004048	0.000171	-0.003864	0.011230	-0.071777	-0.748291	-0.896603	28.723238	128.163477
52073		-4.741741	-0.157503	8.649138	0.000062	-0.005884	0.001080	0.003418	-0.079346	-0.753418	-0.895440	28.715854	128.164914
52074		-4.742402	-0.156645	8.625017	-0.003498	-0.004518	-0.004044	0.005615	-0.069580	-0.750732	-0.897400	28.709159	128.163467
52075		-4.741043	-0.158138	8.649509	-0.003186	-0.001080	-0.001316	0.011719	-0.069092	-0.760498	-0.898859	28.704419	128.163402
52076		-4.727395	-0.190146	8.647652	-0.001288	-0.005826	-0.000208	0.001953	-0.071777	-0.750244	-0.898343	28.697008	128.164474
52077		-4.717715	-0.167769	8.648473	-0.002149	-0.004575	-0.002756	0.004639	-0.072510	-0.750977	-0.899721	28.690294	128.163778
52078		-4.694840	-0.177181	8.647191	-0.002325	-0.002332	0.001232	0.005615	-0.072998	-0.756836	-0.899365	28.684899	128.165754
52079		-4.727612	-0.189754	8.623764	-0.003187	-0.001080	-0.001316	0.004395	-0.068115	-0.756348	-0.900855	28.680173	128.165814
52080		-4.693276	-0.178820	8.671786	-0.002637	-0.005769	-0.001496	0.008789	-0.079102	-0.757813	-0.901517	28.672784	128.166044
52081		-4.740389	-0.158580	8.626088	-0.001018	-0.000467	-0.003912	0.005859	-0.065186	-0.758545	-0.902573	28.668414	128.164377
52082		-4.749364	-0.181237	8.625645	-0.000270	-0.005359	0.003703	0.008789	-0.073486	-0.758301	-0.900252	28.661307	128.167998
52083		-4.730483	-0.136126	8.627038	-0.002150	-0.004574	-0.002756	0.008057	-0.075684	-0.757813	-0.901653	28.654609	128.167418
52084		-4.675505	-0.132187	8.625047	-0.001601	-0.009262	-0.002938	0.012207	-0.067871	-0.759033	-0.902156	28.645205	128.166743
52085		-4.697231	-0.123452	8.626951	-0.004789	-0.010342	-0.004254	0.008545	-0.076172	-0.755615	-0.905464	28.635246	128.165008
52086		-4.680826	-0.157848	8.674076	-0.001114	-0.008067	-0.004198	0.007568	-0.073242	-0.757813	-0.906087	28.626516	128.163499
52087		-4.658052	-0.167375	8.672723	-0.001237	0.003698	-0.006355	0.001953	-0.077393	-0.766113	-0.908021	28.624546	128.160058
52088		-4.682394	-0.157507	8.649460	-0.001143	0.011299	-0.006069	0.002930	-0.075684	-0.764893	-0.909341	28.626893	128.157128
52089		-4.705375	-0.149761	8.674440	-0.001930	0.024113	-0.002978	0.016113	-0.070068	-0.756348	-0.910694	28.636540	128.155896
52090		-4.719701	-0.169439	8.599803	0.000474	0.016604	-0.008486	-0.002197	-0.072266	-0.757813	-0.911871	28.641905	128.151333
52091		-4.733139	-0.139213	8.625532	-0.002495	0.011359	-0.007359	0.000488	-0.074707	-0.755127	-0.914940	28.644286	128.147437
52092		-4.678599	-0.136723	8.647077	-0.006014	0.010804	-0.006052	0.006348	-0.074463	-0.762451	-0.919044	28.646350	128.144522
52093		-4.744249	-0.163360	8.623876	-0.005195	0.011476	-0.009937	0.008545	-0.076172	-0.761475	-0.924398	28.648706	128.138837
52094		-4.710300	-0.204149	8.595539	-0.007852	0.009668	-0.006082	0.004395	-0.072754	-0.757813	-0.929560	28.650118	128.135914
52095		-4.731167	-0.198137	8.645409	-0.007943	0.002065	-0.006368	-0.007080	-0.076904	-0.751953	-0.935330	28.647173	128.132605
52096		-4.678134	-0.193630	8.618623	-0.006438	0.003726	-0.003715	0.010010	-0.068848	-0.757813	-0.938910	28.645203	128.131291
52097		-4.654890	-0.204761	8.641295	-0.008496	0.006756	-0.006188	0.005127	-0.072998	-0.752441	-0.944973	28.644850	128.128168
52098		-4.731521	-0.201753	8.668920	-0.005000	0.011273	-0.002141	0.012695	-0.076416	-0.755371	-0.947276	28.647218	128.127800
52099		-4.688394	-0.219383	8.641171	-0.001969	0.010635	-0.002188	0.007324	-0.075195	-0.757080	-0.948341	28.649272	128.126894
52100		-4.735722	-0.199983	8.619082	0.001040	0.013957	0.003119	0.001709	-0.070801	-0.756592	-0.945550	28.653227	128.129931
52101		-4.686651	-0.141224	8.618852	-0.000465	0.012297	0.000465	0.002441	-0.073242	-0.764404	-0.944965	28.656167	128.131048
52102		-4.710145	-0.132070	8.619779	0.000575	0.008802	-0.000975	0.010254	-0.078125	-0.756348	-0.943696	28.657131	128.131468
52103		-4.697655	-0.164140	8.617261	-0.006684	0.011857	-0.000809	0.000977	-0.075195	-0.755859	-0.947027	28.659843	128.131609
52104		-4.706694	-0.188277	8.640509	-0.002457	0.009442	-0.000930	0.002441	-0.072266	-0.749756	-0.947484	28.661173	128.132051
52105		-4.719810	-0.158045	8.666447	-0.005157	0.009559	-0.003510	0.010498	-0.074463	-0.749756	-0.950783	28.662448	128.130533
52106		-4.730736	-0.179916	8.641113	-0.002237	0.005273	0.001514	0.011963	-0.078125	-0.754639	-0.950327	28.661414	128.132616
52107		-4.686276	-0.198475	8.637892	-0.003654	0.011221	-0.000856	0.013672	-0.078125	-0.760254	-0.951904	28.663861	128.132363
52108		-4.722084	-0.158823	8.665194	-0.001443	0.009908	0.002983	0.010986	-0.073730	-0.757324	-0.950557	28.665496	128.135355
52109		-4.719896	-0.212082	8.637688	-0.000956	0.011105	0.001723	0.007324	-0.078125	-0.752686	-0.949805	28.667919	128.136954
52110		-4.734163	-0.180358	8.639227	-0.001110	0.009387	0.000358	-0.002197	-0.077393	-0.754395	-0.949086	28.669230	128.138237
52111		-4.725868	-0.157747	8.639346	-0.001291	0.011629	0.004346	0.008057	-0.073975	-0.753662	-0.947640	28.671777	128.141540
52112		-4.725560	-0.158653	8.663302	0.002630	0.005774	0.001499	0.004150	-0.062012	-0.758301	-0.944402	28.671029	128.143608
52113		-4.726220	-0.158632	8.662943	-0.002460	0.009446	-0.000933	0.002441	-0.070313	-0.755615	-0.945477	28.672341	128.144187
52114		-4.727764	-0.157531	8.638313	0.001502	0.001661	0.002654	0.000977	-0.074951	-0.756104	-0.942503	28.669249	128.147053
52115		-4.738260	-0.179003	8.613201	-0.002392	0.003556	0.000148	0.009277	-0.071777	-0.757813	-0.943063	28.667108	128.148162
52116		-4.704472	-0.167827	8.661087	0.001683	-0.000581	-0.001334	0.007813	-0.074707	-0.761475	-0.941223	28.662693	128.148448
52117		-4.736189	-0.181217	8.661906	-0.000488	-0.001197	0.001260	0.000488	-0.071777	-0.761963	-0.940327	28.657987	128.150198
52118		-4.718858	-0.134862	8.638771	0.000153	0.001719	0.001364	0.002197	-0.074219	-0.750244	-0.938531	28.654915	128.152221
52119		-4.713908	-0.190402	8.660341	-0.001904	0.004753	-0.001112	0.014893	-0.074219	-0.756104	-0.939202	28.653445	128.152480
52120		-4.695825	-0.145364	8.661402	-0.000708	0.002975	-0.001186	0.006348	-0.068359	-0.760742	-0.938704	28.651068	128.152824
52121		-4.682932	-0.177410	8.659114	-0.001791	0.008402	-0.006182	0.002930	-0.080811	-0.749756	-0.940972	28.651838	128.149671
52122		-4.692852	-0.200178	8.658100	-0.000251	0.008134	0.002906	0.003418	-0.073975	-0.752930	-0.938958	28.652456	128.152632
52123		-4.739892	-0.180742	8.636077	-0.000625	0.010587	-0.000904	0.002441	-0.073486	-0.752686	-0.938754	28.654369	128.152460
52124		-4.685298	-0.177790	8.657827	-0.002126	0.008926	-0.003559	0.005615	-0.077637	-0.756104	-0.939842	28.655380	128.151192
52125		-4.732314	-0.158668	8.635800	-0.002462	0.009449	-0.000935	-0.000488	-0.077393	-0.754639	-0.940745	28.656657	128.151213
52126		-4.719695	-0.190680	8.633362	-0.002950	0.008252	0.000324	0.002441	-0.075928	-0.756592	-0.941085	28.657318	128.152487
52127		-4.733737	-0.158984	8.635015	0.001767	0.007032	-0.001051	0.012451	-0.075928	-0.748047	-0.939562	28.657144	128.152487
52128		-4.723768	-0.137571	8.659857	-0.001013	-0.000464	-0.003915	0.004639	-0.069336	-0.757813	-0.940075	28.652772	128.151087
52129		-4.720636	-0.191010	8.632840	-0.001684	0.000581	0.001333	0.010986	-0.072266	-0.757813	-0.939841	28.649091	128.152761
52130		-4.711766	-0.168751	8.633282	-0.003628	0.007266	-0.006215	0.006104	-0.071289	-0.759521	-0.942612	28.649125	128.149777
52131		-4.689716	-0.178361	8.631597	-0.003590	0.005336	0.000220	0.009277	-0.078125	-0.756348	-0.943876	28.648156	128.150881
52132		-4.702597	-0.147893	8.657685	0.000418	0.007091	-0.002342	0.005615	-0.070313	-0.756104	-0.943116	28.648127	128.150426
52133		-4.681607	-0.156097	8.631631	-0.001419	0.005953	-0.002374	0.003906	-0.078613	-0.761719	-0.943885	28.647463	128.149605
52134		-4.736624	-0.160592	8.633402	-0.000780	0.008870	-0.002270	0.004150	-0.079102	-0.754639	-0.943797	28.648454	128.149179
52135		-4.723950	-0.192697	8.630990	-0.003964	0.007791	-0.003592	0.013184	-0.073486	-0.753906	-0.946311	28.648757	128.147321
52136		-4.715461	-0.170346	8.631233	0.000568	0.008813	-0.000979	0.003418	-0.074707	-0.754639	-0.945047	28.649727	128.147738
52137		-4.714965	-0.171642	8.655304	-0.003743	0.003617	-0.001146	0.003174	-0.070557	-0.754883	-0.946749	28.647756	128.147692
52138		-4.683684	-0.158338	8.654292	0.002252	0.008232	-0.002311	0.004639	-0.081055	-0.751709	-0.944934	28.648381	128.147245
52139		-4.702818	-0.203593	8.652611	-0.000781	0.008872	-0.002271	0.007813	-0.075684	-0.761963	-0.945268	28.649310	128.146368
52140		-4.695332	-0.180002	8.628510	0.000416	0.007094	-0.002343	0.005615	-0.073242	-0.760498	-0.944509	28.649282	128.145913
52141		-4.686766	-0.157423	8.628807	0.000079	0.007616	0.000280	0.005615	-0.067139	-0.757324	-0.943603	28.649576	128.146951
52142		-4.718039	-0.171953	8.653623	0.001126	0.004117	-0.001156	0.012939	-0.076416	-0.747559	-0.942051	28.647854	128.147303
52143		-4.695958	-0.181341	8.651976	-0.003966	0.007793	-0.003595	0.011963	-0.069092	-0.750000	-0.944716	28.648271	128.145741
52144		-4.743746	-0.161149	8.605652	0.000265	0.005374	-0.003708	0.004395	-0.066162	-0.756592	-0.944462	28.647246	128.144414
52145		-4.688731	-0.158397	8.627722	-0.006440	0.003735	-0.003731	0.010498	-0.075439	-0.760010	-0.948658	28.645308	128.143199
52146		-4.698186	-0.181387	8.626927	0.000975	0.002397	-0.002520	0.004639	-0.070068	-0.752441	-0.947611	28.642588	128.142679
52147		-4.720044	-0.173609	8.652496	-0.002919	0.004294	-0.005031	0.005127	-0.078857	-0.752441	-0.950085	28.640946	128.140269
52148		-4.707031	-0.205809	8.650268	-0.003256	0.004816	-0.002408	0.009766	-0.082031	-0.761230	-0.951440	28.639613	128.139797
52149		-4.712716	-0.150647	8.628299	-0.001421	0.005956	-0.002376	0.003662	-0.078125	-0.749756	-0.952057	28.638951	128.138482
52150		-4.721610	-0.174711	8.651620	-0.003330	0.010714	-0.003492	0.001465	-0.072998	-0.751465	-0.953823	28.640987	128.137237
52151		-4.745856	-0.164834	8.628250	-0.001572	0.004236	-0.003740	0.004150	-0.076172	-0.759766	-0.955030	28.639208	128.135441
52152		-4.699864	-0.184616	8.649786	-0.004382	0.000699	-0.001252	0.003662	-0.071777	-0.759033	-0.956646	28.635528	128.135768
52153		-4.723752	-0.174603	8.626613	-0.000074	0.005898	-0.001084	0.005859	-0.078125	-0.759766	-0.956236	28.634758	128.136009
52154		-4.692275	-0.161442	8.625738	-0.003557	0.001376	-0.005137	0.005127	-0.077393	-0.762451	-0.958597	28.631428	128.133793
52155		-4.714879	-0.152740	8.627080	-0.003184	-0.001081	-0.001324	0.004395	-0.076660	-0.759033	-0.959925	28.626700	128.133632
52156		-4.691380	-0.163269	8.650031	-0.002397	0.003559	0.000144	0.001709	-0.075928	-0.758057	-0.959982	28.624671	128.134838
52157		-4.709108	-0.209814	8.672887	-0.001909	0.004758	-0.001116	0.007568	-0.076660	-0.751221	-0.960566	28.623233	128.134873
52158		-4.723986	-0.177259	8.650271	-0.002770	0.006017	-0.003669	0.013916	-0.082031	-0.754639	-0.962041	28.622575	128.133564
52159		-4.693490	-0.162937	8.625049	0.000825	0.000678	-0.003884	0.010742	-0.075439	-0.755127	-0.961829	28.618964	128.131221
52160		-4.724447	-0.177589	8.650012	-0.001049	0.003500	0.001436	0.007813	-0.073242	-0.756348	-0.960709	28.616914	128.133271
52161		-4.693950	-0.163251	8.624793	-0.003408	0.003098	-0.003773	0.007080	-0.073486	-0.758545	-0.963025	28.614650	128.131530
52162		-4.701262	-0.188512	8.672788	-0.002696	0.000119	-0.002585	0.006104	-0.074463	-0.762939	-0.964088	28.610624	128.130993
52163		-4.702348	-0.187798	8.648366	-0.003895	0.001899	-0.002513	0.000244	-0.069336	-0.757568	-0.966300	28.607617	128.130316
52164		-4.671699	-0.173443	8.623233	0.000487	0.001199	-0.001260	0.007080	-0.073975	-0.757813	-0.965130	28.604224	128.130632
52165		-4.701860	-0.189330	8.672446	-0.002622	0.007738	-0.002305	0.004395	-0.073975	-0.760986	-0.966618	28.604491	128.130227
52166		-4.703321	-0.188347	8.647826	0.000637	0.002920	0.000104	0.003174	-0.072021	-0.761230	-0.964946	28.602096	128.131415
52167		-4.687410	-0.140933	8.600167	-0.001274	0.007679	-0.001013	-0.000488	-0.068115	-0.750732	-0.965233	28.602347	128.131818
52168		-4.686074	-0.143345	8.648540	0.001237	0.007778	-0.006228	0.004395	-0.076660	-0.752930	-0.965221	28.602673	128.128820
52169		-4.695592	-0.166316	8.647687	-0.004044	0.000178	-0.003878	0.006104	-0.070557	-0.758057	-0.967932	28.598555	128.127300
52170		-4.696775	-0.165704	8.623208	-0.002921	0.004298	-0.005034	0.008789	-0.070801	-0.756592	-0.969911	28.596900	128.125119
52171		-4.706317	-0.188805	8.622335	-0.002921	0.004299	-0.005034	0.001465	-0.077148	-0.759766	-0.972428	28.595268	128.122936
52172		-4.683158	-0.199513	8.645112	-0.002773	0.006019	-0.003670	-0.000732	-0.065430	-0.757568	-0.973905	28.594612	128.121627
52173		-4.674493	-0.177311	8.645493	-0.002773	0.006020	-0.003671	0.002197	-0.076416	-0.765381	-0.975893	28.593800	128.120495
52174		-4.698548	-0.167368	8.622210	-0.001912	0.004760	-0.001118	0.006836	-0.069824	-0.759033	-0.976073	28.592447	128.120865
52175		-4.684514	-0.200326	8.644358	0.001123	0.004121	-0.001156	0.001221	-0.075439	-0.757080	-0.975004	28.590679	128.121201
52176		-4.698598	-0.168575	8.646010	0.001533	0.011222	-0.003501	0.006104	-0.075439	-0.751465	-0.973989	28.593005	128.119944
52177		-4.676735	-0.177928	8.644268	-0.002773	0.006021	-0.003671	0.004150	-0.065918	-0.755371	-0.975862	28.592282	128.118218
52178		-4.700100	-0.168883	8.645188	0.002541	0.011684	0.000416	0.002197	-0.072754	-0.756104	-0.973048	28.594911	128.119512
52179		-4.678509	-0.177864	8.643309	0.001193	0.011744	-0.000877	0.012695	-0.067139	-0.749512	-0.971966	28.597475	128.120156
52180		-4.688825	-0.200475	8.642017	0.000479	0.014726	-0.002068	0.000977	-0.079346	-0.754639	-0.971126	28.601822	128.119796
52181		-4.702623	-0.169782	8.667659	0.001974	0.016388	0.000589	-0.000732	-0.072021	-0.757813	-0.969057	28.607159	128.120778
52182		-4.704938	-0.168410	8.642565	0.003173	0.014609	0.000518	0.006592	-0.067871	-0.761963	-0.965864	28.611464	128.122107
52183		-4.692951	-0.200012	8.639788	0.001599	0.018852	-0.003227	0.000000	-0.067383	-0.756592	-0.965317	28.618063	128.121224
52184		-4.761145	-0.173673	8.667369	0.000850	0.012269	0.001744	0.002930	-0.069336	-0.760254	-0.963060	28.621039	128.123379
52185		-4.732174	-0.157737	8.617515	0.003590	0.008187	-0.001020	0.004395	-0.076904	-0.757080	-0.960658	28.621508	128.124208
52186		-4.710224	-0.166685	8.615850	0.001755	0.007046	-0.001054	0.001221	-0.077148	-0.751709	-0.958730	28.621465	128.124595
52187		-4.688123	-0.175696	8.614270	0.000781	0.004644	0.001467	0.000000	-0.073486	-0.760498	-0.956902	28.619973	128.126129
52188		-4.669558	-0.131706	8.639597	-0.003193	0.012450	-0.002140	0.008545	-0.070801	-0.757568	-0.958177	28.623015	128.125748
52189		-4.653035	-0.217938	8.634312	0.001822	0.014674	-0.000779	0.000732	-0.077148	-0.758301	-0.956653	28.627281	128.126252
52190		-4.648924	-0.141966	8.661091	0.000833	0.025807	0.000927	0.006348	-0.077881	-0.755615	-0.954732	28.638005	128.127728
52191		-4.674569	-0.263891	8.655096	0.002469	0.029196	0.004945	0.004639	-0.075195	-0.761719	-0.950969	28.650623	128.131282
52192		-4.717558	-0.168323	8.659568	0.002581	0.032864	-0.000134	0.006592	-0.075928	-0.756348	-0.948413	28.665379	128.131990
52193		-4.734653	-0.134869	8.635682	0.006988	0.030229	0.007563	0.001709	-0.069092	-0.752441	-0.941310	28.678658	128.137437
52194		-4.746354	-0.156874	8.633615	0.003144	0.028167	-0.000310	0.009521	-0.069580	-0.752197	-0.938461	28.690721	128.138083
52195		-4.726152	-0.165694	8.631035	0.002311	0.027491	0.003571	0.005859	-0.064697	-0.756104	-0.935417	28.702382	128.141366
52196		-4.727475	-0.166519	8.654192	0.002020	0.024047	0.000844	0.007324	-0.072754	-0.756348	-0.932828	28.712096	128.142811
52197		-4.739553	-0.187664	8.628036	0.004565	0.022207	0.002071	0.006592	-0.075195	-0.757324	-0.928964	28.720733	128.145324
52198		-4.732298	-0.164558	8.627689	0.004563	0.022209	0.002070	0.006592	-0.074707	-0.756104	-0.924523	28.729405	128.147591
52199		-4.711484	-0.173231	8.625473	0.003930	0.019285	0.001967	0.008789	-0.079346	-0.750488	-0.920871	28.736366	128.149504
52200		-4.744252	-0.187232	8.649374	0.006048	0.023880	0.004724	0.006348	-0.074707	-0.755859	-0.914751	28.746019	128.153490
52201		-4.738774	-0.161505	8.600280	0.008105	0.020837	0.007213	0.009033	-0.073486	-0.752930	-0.907000	28.753940	128.158495
52202		-4.725380	-0.194391	8.646143	0.009793	0.020258	0.005885	0.012451	-0.076416	-0.759277	-0.898349	28.761529	128.163281
52203		-4.751585	-0.181918	8.597620	0.008243	0.022569	0.008571	0.007080	-0.076904	-0.756104	-0.890175	28.770533	128.169366
52204		-4.734239	-0.136723	8.622376	0.008099	0.020846	0.007208	0.008545	-0.071045	-0.756592	-0.882078	28.778469	128.175013
52205		-4.725907	-0.114260	8.646527	0.008302	0.018599	0.003224	0.003418	-0.076660	-0.751465	-0.875555	28.785061	128.177873
52206		-4.723433	-0.167679	8.642974	0.008583	0.022054	0.005943	0.005127	-0.069092	-0.752197	-0.867582	28.793676	128.182685
52207		-4.725270	-0.166531	8.641992	0.013654	0.020310	0.001966	0.014648	-0.078857	-0.748779	-0.858404	28.801130	128.184819
52208		-4.742236	-0.131494	8.594133	0.009415	0.022738	0.002056	0.005127	-0.074463	-0.748779	-0.851180	28.810103	128.187086
52209		-4.728947	-0.164428	8.640021	0.011818	0.019171	0.001927	0.008057	-0.079346	-0.755127	-0.842956	28.817064	128.188579
52210		-4.776595	-0.143834	8.617148	0.012670	0.017912	0.004484	0.006592	-0.073486	-0.757324	-0.833077	28.823292	128.192483
52211		-4.754615	-0.152922	8.639563	0.009005	0.015625	0.004413	0.006836	-0.065918	-0.750488	-0.825694	28.828158	128.196011
52212		-4.746682	-0.129323	8.639585	0.010556	0.013315	0.001728	0.006836	-0.071045	-0.757324	-0.817873	28.831729	128.198158
52213		-4.747736	-0.128489	8.639018	0.006892	0.011026	0.001658	0.010010	-0.072510	-0.757813	-0.812770	28.833915	128.200686
52214		-4.759340	-0.148372	8.589153	0.004431	0.006950	0.001526	0.006836	-0.083008	-0.757080	-0.808493	28.833837	128.202761
52215		-4.749064	-0.127386	8.638304	0.007814	0.005785	-0.001123	0.003418	-0.078369	-0.754150	-0.803464	28.833049	128.202658
52216		-4.735995	-0.158586	8.636269	0.005005	0.002234	0.001367	0.005615	-0.069580	-0.765869	-0.798887	28.830267	128.204672
52217		-4.768040	-0.171984	8.636600	-0.003748	0.003629	-0.001173	0.006104	-0.075928	-0.755371	-0.800601	28.828125	128.205163
52218		-4.709830	-0.089704	8.613648	0.002460	0.004077	0.000131	0.007813	-0.079590	-0.761230	-0.797881	28.826389	128.206352
52219		-4.728585	-0.134833	8.612057	-0.000574	0.004717	0.000158	0.003662	-0.076172	-0.763428	-0.797249	28.824959	128.207183
52220		-4.760735	-0.148412	8.612323	-0.002406	0.003572	0.000123	0.007813	-0.080566	-0.750244	-0.797317	28.822934	128.208372
52221		-4.729075	-0.135279	8.611781	-0.002335	-0.000411	-0.005215	0.001465	-0.070801	-0.748291	-0.799337	28.818490	128.205672
52222		-4.750802	-0.127778	8.637343	-0.005858	-0.000973	-0.003926	0.010742	-0.073730	-0.753174	-0.802640	28.813829	128.204254
52223		-4.728052	-0.137358	8.636257	0.000210	-0.002254	-0.003980	0.008789	-0.080322	-0.753174	-0.802963	28.808351	128.202792
52224		-4.761122	-0.149070	8.588153	-0.005284	-0.005691	-0.004085	0.003906	-0.078369	-0.759766	-0.805965	28.800986	128.201314
52225		-4.737054	-0.160022	8.611712	-0.005563	-0.009147	-0.006803	0.013916	-0.076416	-0.760742	-0.810261	28.791552	128.197511
52226		-4.726356	-0.139211	8.637156	-0.005773	-0.006893	-0.002823	0.010254	-0.080078	-0.759033	-0.813140	28.783508	128.196870
52227		-4.713205	-0.170699	8.611200	-0.007970	-0.005574	-0.006680	0.010742	-0.075439	-0.755615	-0.818848	28.776301	128.193125
52228		-4.734548	-0.163476	8.636971	-0.004797	-0.004486	-0.005348	0.002441	-0.075928	-0.753174	-0.821971	28.769615	128.190813
52229		-4.734482	-0.164135	8.636994	-0.004743	0.003163	-0.005091	0.006348	-0.074951	-0.757324	-0.825411	28.767262	128.188299
52230		-4.702909	-0.151216	8.636399	-0.003889	0.001901	-0.002532	0.005127	-0.075439	-0.761230	-0.827158	28.764259	128.187768
52231		-4.725905	-0.142431	8.637350	-0.000941	0.007182	-0.003662	0.005859	-0.079346	-0.756592	-0.828016	28.764193	128.186377
52232		-4.704605	-0.150927	8.611531	-0.006784	0.004270	-0.001146	0.007324	-0.078857	-0.745605	-0.830996	28.762558	128.186730
52233		-4.745289	-0.188472	8.635363	0.000890	0.008328	-0.003626	0.007568	-0.069336	-0.751709	-0.830650	28.763183	128.184650
52234		-4.729027	-0.141218	8.587765	-0.000366	0.002465	-0.003821	0.009277	-0.078613	-0.750488	-0.830785	28.760492	128.183271
52235		-4.749478	-0.135616	8.661897	-0.001570	0.004251	-0.003760	0.007080	-0.078369	-0.755371	-0.832035	28.758834	128.181627
52236		-4.728804	-0.142787	8.611808	-0.000715	0.002990	-0.001200	0.005127	-0.077393	-0.749023	-0.831549	28.756465	128.181957
52237		-4.719888	-0.120380	8.612370	-0.002058	0.003048	-0.002498	0.004883	-0.069092	-0.755371	-0.832551	28.754060	128.180850
52238		-4.751805	-0.134183	8.612748	-0.002686	0.000116	-0.002595	0.002441	-0.081543	-0.760010	-0.833619	28.750033	128.180295
52239		-4.719292	-0.122112	8.636619	-0.002547	0.001844	-0.001236	0.000732	-0.076660	-0.755371	-0.834591	28.746871	128.180555
52240		-4.728368	-0.145078	8.635958	-0.001272	-0.003921	-0.006638	0.013672	-0.079102	-0.755371	-0.836101	28.740497	128.177397
52241		-4.728100	-0.145715	8.636094	-0.007691	-0.002117	-0.003964	0.002930	-0.079346	-0.750488	-0.840777	28.735162	128.175437
52242		-4.727808	-0.146475	8.636241	-0.004796	-0.004484	-0.005351	-0.000244	-0.074707	-0.762695	-0.843898	28.728476	128.173127
52243		-4.697184	-0.131324	8.587283	-0.002249	-0.006328	-0.004115	0.005859	-0.081543	-0.759766	-0.845497	28.720543	128.171434
52244		-4.726732	-0.147471	8.636813	-0.004081	-0.007473	-0.004151	0.002930	-0.071045	-0.757080	-0.847817	28.712155	128.169937
52245		-4.703520	-0.157245	8.635959	-0.004936	-0.006210	-0.006711	0.004150	-0.071045	-0.760254	-0.851806	28.704371	128.166570
52246		-4.662362	-0.121959	8.636313	-0.006229	0.001497	-0.007750	0.002686	-0.073242	-0.760254	-0.856526	28.701091	128.162637
52247		-4.701655	-0.161112	8.684802	-0.005513	-0.001493	-0.006551	0.008057	-0.082520	-0.754639	-0.860949	28.695980	128.159858
52248		-4.689957	-0.191542	8.634084	-0.009474	0.004387	-0.003742	0.000488	-0.071777	-0.757080	-0.866285	28.694390	128.158515
52249		-4.680676	-0.170671	8.658784	-0.001522	0.011902	-0.003500	-0.005615	-0.080322	-0.757324	-0.867350	28.697014	128.156870
52250		-4.705334	-0.160762	8.634906	-0.002100	0.016620	-0.003340	0.000488	-0.078613	-0.752686	-0.868393	28.702435	128.155669
52251		-4.715061	-0.184728	8.657806	-0.001246	0.015358	-0.000781	0.006348	-0.074707	-0.751465	-0.868366	28.706839	128.155728
52252		-4.721365	-0.129349	8.635380	-0.000530	0.012368	0.000419	0.008301	-0.079102	-0.749512	-0.867310	28.709856	128.157023
52253		-4.721683	-0.130577	8.659141	-0.001386	0.013633	-0.002142	0.012207	-0.088379	-0.753906	-0.867874	28.713582	128.156005
52254		-4.733369	-0.151354	8.609154	-0.003982	0.007828	-0.003637	0.003662	-0.075439	-0.757324	-0.870046	28.713963	128.154696
52255		-4.719053	-0.185708	8.655609	0.000029	0.009598	-0.006186	0.007080	-0.074951	-0.757080	-0.870908	28.715362	128.150678
52256		-4.743161	-0.175789	8.632002	-0.003127	0.006564	-0.001078	0.006348	-0.076172	-0.760986	-0.871781	28.715041	128.151054
52257		-4.703690	-0.138721	8.607563	0.000534	0.008857	-0.001004	0.007813	-0.073486	-0.753418	-0.870942	28.716012	128.151284
52258		-4.689354	-0.172842	8.654044	-0.002640	0.007770	-0.002340	0.009766	-0.078125	-0.757813	-0.871938	28.716371	128.150823
52259		-4.712690	-0.163983	8.654798	-0.000809	0.008917	-0.002303	0.011230	-0.076416	-0.757813	-0.872260	28.717433	128.150003
52260		-4.737575	-0.152603	8.606818	0.003082	0.007012	0.000233	0.002930	-0.075928	-0.756836	-0.869166	28.717381	128.151230
52261		-4.704832	-0.141123	8.654827	0.001739	0.007072	-0.001066	0.008789	-0.073975	-0.754395	-0.867621	28.717338	128.151312
52262		-4.673218	-0.128705	8.678281	0.000441	0.014784	-0.002109	0.004883	-0.073975	-0.760986	-0.866812	28.721718	128.150933
52263		-4.268291	-0.197722	8.978043	0.009093	0.069529	0.016636	0.003662	-0.074707	-0.743896	-0.855859	28.757595	128.162239
52264		-4.368351	-0.085096	9.050997	0.007482	0.299700	0.063173	0.002686	-0.070801	-0.751465	-0.831744	28.925753	128.201813
52265		-5.351246	-0.573739	8.602065	0.009741	0.269248	0.093141	0.009033	-0.074951	-0.759033	-0.796940	29.076465	128.261454
52266		-4.970514	-0.180807	8.744475	0.045113	0.172268	0.093899	0.010742	-0.077393	-0.748047	-0.740565	29.171807	128.322660
52267		-5.123810	-0.241560	8.614574	0.088567	0.144492	0.076153	0.012207	-0.072510	-0.756348	-0.665073	29.250946	128.372330
52268		-5.194286	-0.439848	8.528845	0.094402	0.046974	0.047212	0.018555	-0.082031	-0.752686	-0.594704	29.274080	128.404128
52269		-4.928200	-0.487619	8.544573	0.101039	-0.014870	-0.007898	0.009521	-0.077637	-0.755127	-0.538417	29.261482	128.399788
52270		-4.987250	-0.511175	8.644241	0.107692	-0.038086	-0.059293	0.013672	-0.084961	-0.759521	-0.494342	29.235277	128.362200
52271		-4.558856	0.750886	8.467833	0.080057	-0.039570	-0.051646	0.014893	-0.079346	-0.755371	-0.463977	29.208203	128.329185
52272		-4.552806	0.567953	8.485562	0.057693	-0.017971	-0.038112	0.018799	-0.081543	-0.755859	-0.441797	29.193655	128.305380
52273		-4.627913	0.306435	8.623478	0.030005	0.011562	-0.034759	0.015869	-0.083984	-0.753174	-0.434861	29.196163	128.283194
52274		-4.905459	0.207982	8.649766	0.019500	0.011666	-0.019167	0.012207	-0.071289	-0.755371	-0.428571	29.198685	128.271670
52275		-5.059686	0.000430	8.889522	0.014348	-0.009668	-0.018455	0.011963	-0.085693	-0.751953	-0.425415	29.189000	128.260734
52276		-5.125028	-0.150507	8.715824	0.024360	-0.055439	-0.019688	0.010986	-0.083008	-0.756836	-0.416344	29.153074	128.249196
52277		-4.888750	0.101053	8.649973	0.018383	-0.073587	-0.033219	0.005859	-0.075195	-0.755371	-0.415199	29.106641	128.228239
52278		-4.716326	0.458723	8.516771	0.006461	-0.082928	-0.038715	0.009766	-0.082764	-0.759521	-0.422362	29.054887	128.204366
52279		-4.714983	0.248395	8.512773	-0.007299	-0.079893	-0.042569	0.011230	-0.085693	-0.754150	-0.439022	29.004703	128.178187
52280		-4.725953	0.066529	8.558976	-0.017460	-0.076411	-0.055519	0.007568	-0.075684	-0.759033	-0.465176	28.956594	128.143333
52281		-4.838949	-0.049664	8.659607	-0.013906	-0.089398	-0.055922	0.012695	-0.084961	-0.751953	-0.489675	28.900983	128.108214
52282		-5.530349	-0.285357	9.213801	-0.000316	-0.140378	-0.052239	0.001465	-0.082764	-0.756592	-0.504689	28.816218	128.075953
52283		-5.629506	-0.597277	8.824842	0.035468	-0.239585	-0.037083	0.008057	-0.078613	-0.754395	-0.494301	28.674628	128.053656
52284		-4.984295	-0.473164	8.701979	0.059242	-0.292104	-0.032451	0.000488	-0.081787	-0.760986	-0.468454	28.503036	128.035195
52285		-5.035176	-0.595005	8.715373	0.076660	-0.311934	-0.006099	-0.004639	-0.091553	-0.756592	-0.424801	28.320193	128.033921
52286		-4.927924	-0.644295	8.677789	0.102139	-0.324444	0.009918	0.000244	-0.082031	-0.755371	-0.361286	28.130264	128.042918
52287		-5.030782	-0.612474	9.018932	0.132087	-0.335787	0.028435	-0.010986	-0.089600	-0.757324	-0.275331	27.933823	128.063061
52288		-5.258172	-0.731412	9.142454	0.169304	-0.359842	0.042415	-0.004150	-0.081055	-0.760498	-0.163838	27.723660	128.092517
52289		-5.542787	-1.005643	9.317440	0.207194	-0.415759	0.055104	-0.002930	-0.083252	-0.757080	-0.027567	27.481362	128.129543
52290		-4.862458	-0.999173	8.746344	0.228116	-0.471952	0.053396	-0.006348	-0.088379	-0.756104	0.120065	27.206841	128.164796
52291		-3.545852	-0.437663	8.050232	0.230434	-0.458993	0.020322	-0.021729	-0.095215	-0.753906	0.258257	26.940063	128.177694
52292		-3.085100	0.777028	7.996041	0.198543	-0.388906	0.009592	-0.027832	-0.091553	-0.749512	0.375373	26.713117	128.183502
52293		-3.342224	0.986393	8.077950	0.157143	-0.311945	0.012692	-0.023438	-0.092529	-0.749023	0.469267	26.530012	128.190800
52294		-3.921403	0.585012	8.265771	0.126483	-0.264401	0.016084	-0.026611	-0.102295	-0.753418	0.546842	26.374351	128.200604
52295		-3.951515	-0.094887	8.166504	0.135605	-0.253009	0.012031	-0.032959	-0.104980	-0.743164	0.628165	26.225170	128.206918
52296		-3.605091	0.153135	8.106826	0.162594	-0.203813	0.020491	-0.036133	-0.098877	-0.749268	0.727591	26.104166	128.219454
52297		-3.583115	0.403652	8.312653	0.152881	-0.158020	0.029993	-0.035400	-0.094727	-0.747559	0.824072	26.008991	128.237266
52298		-4.096371	0.078444	8.425934	0.141330	-0.129458	0.026002	-0.029297	-0.100830	-0.754150	0.912923	25.930499	128.253563
52299		-4.864807	-0.032715	8.859201	0.133675	-0.165360	0.009280	-0.034912	-0.094971	-0.750488	0.992104	25.831462	128.258529
52300		-4.848355	-0.066991	9.088465	0.170325	-0.219903	0.008534	-0.029053	-0.094727	-0.743652	1.092104	25.701295	128.262376
52301		-4.894973	-0.069698	9.302448	0.187942	-0.287596	0.028686	-0.043701	-0.094971	-0.754150	1.206638	25.532143	128.278109
52302		-4.224531	-0.369677	9.086959	0.205122	-0.316427	0.039612	-0.037109	-0.104248	-0.740234	1.334189	25.346278	128.299726
52303		-3.478750	-0.312233	8.692616	0.184944	-0.267569	0.031271	-0.044434	-0.100098	-0.748535	1.447466	25.188332	128.316495
52304		-3.409085	0.552496	8.628177	0.179236	-0.193230	0.031141	-0.040771	-0.104248	-0.751221	1.558295	25.073079	128.333910
52305		-3.250333	1.234446	8.964613	0.191232	-0.099314	0.080396	-0.055664	-0.103027	-0.746582	1.689184	25.010706	128.384076
52306		-4.069217	0.449165	9.359030	0.236276	-0.042108	0.169733	-0.041016	-0.110840	-0.750977	1.870644	24.979457	128.491394
52307		-5.245186	-0.887303	9.889109	0.303379	-0.065007	0.165515	-0.048584	-0.111816	-0.750244	2.088654	24.934564	128.595527
52308		-4.816651	-0.770287	9.513703	0.353150	-0.146574	0.230224	-0.047852	-0.118408	-0.742432	2.351736	24.841416	128.738107
52309		-3.971001	0.371111	9.238828	0.369016	-0.148935	0.257214	-0.051025	-0.114502	-0.745850	2.630242	24.745468	128.896549
52310		-4.221967	0.363845	9.196255	0.340652	-0.140097	0.249150	-0.047607	-0.118896	-0.746338	2.890306	24.654289	129.050059
52311		-4.076688	0.368384	9.065473	0.331547	-0.139392	0.233475	-0.057129	-0.124512	-0.754150	3.140114	24.563279	129.193059
52312		-3.988162	0.676669	9.205046	0.330049	-0.135467	0.253755	-0.060303	-0.123535	-0.744873	3.394468	24.473368	129.348514
52313		-3.830047	0.743190	8.922351	0.325108	-0.116426	0.251304	-0.054443	-0.131348	-0.749756	3.644847	24.393400	129.502622
52314		-3.964296	0.795577	9.012422	0.300647	-0.093420	0.224292	-0.066895	-0.123779	-0.742676	3.874620	24.327422	129.640272
52315		-3.757854	0.726231	8.749723	0.281867	-0.074446	0.204721	-0.059082	-0.135010	-0.737305	4.088255	24.272181	129.766143
52316		-3.193172	1.161819	8.507621	0.237636	-0.019576	0.173388	-0.049561	-0.129883	-0.732910	4.269724	24.249610	129.874628
52317		-3.082015	1.580540	8.382865	0.174055	0.070812	0.140215	-0.056641	-0.128418	-0.743408	4.407715	24.279809	129.965776
52318		-3.529637	1.443946	8.403596	0.099059	0.132239	0.095607	-0.059326	-0.133301	-0.749023	4.492821	24.346949	130.032838
52319		-3.703863	1.260606	8.444264	0.047004	0.177518	0.063431	-0.053955	-0.135498	-0.743164	4.540324	24.441095	130.082402
52320		-3.724524	1.336238	8.631397	0.024743	0.206275	0.047113	-0.053711	-0.132813	-0.737549	4.572057	24.552614	130.122964
52321		-3.728093	1.141590	8.578530	0.005527	0.237825	0.025434	-0.052979	-0.138672	-0.735352	4.587596	24.682970	130.151314
52322		-3.923149	0.908053	8.715674	-0.012834	0.273233	-0.005343	-0.050781	-0.133789	-0.742920	4.585629	24.835114	130.162413
52323		-4.072754	0.765517	8.598050	-0.032641	0.293397	-0.032506	-0.041992	-0.140137	-0.735107	4.565408	24.999772	130.156920
52324		-3.525023	0.685404	8.119207	-0.077133	0.335999	-0.079999	-0.041748	-0.130615	-0.740967	4.507972	25.191157	130.123959
52325		-2.492300	1.638467	7.642111	-0.188776	0.500836	-0.187143	-0.038574	-0.129395	-0.742432	4.360566	25.481458	130.030225
52326		-3.191166	1.933455	8.188901	-0.290204	0.671263	-0.302518	-0.042480	-0.137695	-0.747559	4.125910	25.873688	129.870712
52327		-4.567180	0.360771	8.599876	-0.319301	0.687176	-0.343117	-0.029785	-0.125977	-0.744873	3.861371	26.275662	129.683368
52328		-3.676384	0.768609	8.252456	-0.346639	0.687521	-0.372704	-0.021729	-0.125977	-0.740723	3.570412	26.678454	129.474579
52329		-3.169718	1.714992	7.956749	-0.424744	0.801671	-0.449005	-0.020020	-0.123047	-0.744873	3.211317	27.147931	129.217646
52330		-3.724751	1.487166	7.767876	-0.499736	0.896929	-0.536272	-0.005615	-0.121826	-0.747314	2.780908	27.673060	128.903077
52331		-4.079661	1.363980	8.191174	-0.568305	1.001872	-0.582570	0.000732	-0.122559	-0.752197	2.292829	28.257038	128.554800
52332		-8.319170	-2.282400	10.912683	-0.445328	0.861501	-0.360864	0.005859	-0.113037	-0.747559	1.936521	28.753815	128.341304
52333		-5.895572	-1.980031	9.756794	-0.407691	0.639246	-0.265963	0.009033	-0.103271	-0.747070	1.626302	29.120497	128.180548
52334		-5.186565	-0.050944	9.270080	-0.395850	0.560976	-0.187948	0.018311	-0.106934	-0.747559	1.345013	29.440485	128.067641
52335		-4.957442	-0.441038	9.064596	-0.330530	0.516650	-0.147181	0.022217	-0.095947	-0.745361	1.112188	29.734104	127.978868
52336		-5.297942	-0.360195	8.967950	-0.345681	0.496691	-0.133011	0.027832	-0.091553	-0.750244	0.874428	30.015862	127.897686
52337		-4.992952	0.413828	8.733387	-0.325083	0.447065	-0.129350	0.024658	-0.099609	-0.747070	0.647467	30.269080	127.817315
52338		-5.454676	-0.163405	8.775847	-0.330159	0.398787	-0.124288	0.034424	-0.093506	-0.744629	0.419066	30.494124	127.738283
52339		-5.262320	-0.157769	8.854099	-0.312794	0.370908	-0.092648	0.039551	-0.089844	-0.751221	0.210163	30.702878	127.678602
52340		-5.005934	-0.250142	8.859032	-0.271546	0.397963	-0.061406	0.040039	-0.096680	-0.750000	0.035179	30.926879	127.639290
52341		-5.128993	-0.028151	8.695998	-0.271887	0.451325	-0.025249	0.035889	-0.090576	-0.752686	-0.128380	31.181720	127.622650
52342		-5.295407	-0.499755	8.704456	-0.199936	0.503756	0.013396	0.043701	-0.089111	-0.745850	-0.237506	31.466290	127.631674
52343		-5.119368	-0.475615	8.877771	-0.113377	0.542151	0.054987	0.051758	-0.081787	-0.754150	-0.282787	31.772821	127.667720
52344		-5.175308	-0.422968	8.824751	-0.046537	0.617924	0.123809	0.052490	-0.080078	-0.749023	-0.264932	32.123117	127.750457
52345		-4.707176	-0.792768	9.066766	0.074293	0.692113	0.159879	0.052979	-0.084961	-0.752930	-0.164827	32.516067	127.858405
52346		-3.828394	-1.172515	9.599016	0.290481	0.876300	0.177576	0.059814	-0.092285	-0.742188	0.068162	33.014149	127.980018
52347		-4.589154	-0.510401	9.324792	0.473569	1.109768	0.224856	0.073975	-0.091064	-0.749268	0.427058	33.644965	128.138306
52348		-4.669426	-0.381728	9.201908	0.559665	1.281337	0.257195	0.084473	-0.092773	-0.751709	0.854033	34.373326	128.327044
52349		-3.725067	-0.782270	9.878364	0.640291	1.551287	0.268945	0.095703	-0.101807	-0.743896	1.340409	35.255039	128.536384
52350		-2.894581	-0.769421	10.381205	0.736968	1.963446	0.240852	0.110352	-0.107178	-0.745850	1.886404	36.371566	128.746563
52351		-2.159085	-0.333823	10.781216	0.788912	2.449882	0.165330	0.130615	-0.111084	-0.730713	2.450769	37.766662	128.932293
52352		-2.341748	0.424896	11.126602	0.750462	2.989127	0.107927	0.145508	-0.114746	-0.735596	2.996477	39.470303	129.116456
52353		-2.541002	0.675135	11.539477	0.686676	3.568856	0.063672	0.184082	-0.122803	-0.734863	3.520433	41.505649	129.317665
52354		-2.359688	1.096479	11.084541	0.558096	4.276566	0.004593	0.213623	-0.127197	-0.712891	3.992320	43.946364	129.540660
52355		-2.511539	2.227128	11.078576	0.342219	5.131677	-0.111049	0.253174	-0.134033	-0.699951	4.340820	46.881239	129.754410
52356		-3.442457	2.789488	11.414686	0.123999	6.173502	-0.273720	0.297852	-0.127441	-0.681885	4.547125	50.415768	129.933496
52357		-6.441577	2.892819	13.483015	0.145672	7.276711	-0.511431	0.348145	-0.131592	-0.664307	4.688315	54.596360	130.004333
52358		-12.681044	3.893060	17.047351	0.240671	7.964594	-0.791145	0.405762	-0.129639	-0.621582	4.708311	59.177383	129.862718
52359		-16.169793	4.697853	17.767740	0.066243	8.090428	-1.239719	0.458252	-0.129150	-0.592041	4.098495	63.860008	129.123475
52360		-16.485134	6.070707	15.898723	-0.206575	8.162930	-1.623290	0.517822	-0.118652	-0.546143	2.483597	68.579022	127.488760
52361		-18.889654	8.078240	17.224351	-0.654123	7.838058	-1.834815	0.562012	-0.113037	-0.513184	-0.713318	73.087159	124.501589
52362		-19.067534	6.653440	18.898564	-1.005288	7.119617	-1.987508	0.600342	-0.099121	-0.462402	-6.522348	77.086741	119.089209
52363		-14.698545	5.690493	16.659582	-1.139153	6.465649	-2.068846	0.638184	-0.081299	-0.425781	-16.807564	80.481518	109.273854
52364		-6.762803	4.862258	16.130198	-1.101805	5.941400	-1.954154	0.664551	-0.077393	-0.380615	-34.724095	83.087236	91.816033
52365		1.501797	1.897310	17.326754	-0.574997	5.053330	-1.676779	0.687500	-0.073242	-0.344727	-60.540033	84.356424	66.181799
52366		5.838422	-3.188176	12.188515	0.336146	4.886649	-2.081872	0.707764	-0.054932	-0.308838	-89.925284	83.901356	36.454306
52367		-18.650237	-0.425219	21.035464	1.224757	4.923041	-1.986229	0.721924	-0.052979	-0.276123	-110.494676	82.255751	15.031918
52368		-14.728565	-2.308765	21.394331	2.468657	3.135610	-1.283172	0.726807	-0.052246	-0.242188	-118.056561	80.845122	5.957306
52369		-14.700336	1.417170	11.531724	3.198093	1.436176	-0.600367	0.748047	-0.061279	-0.228027	-119.502759	80.153004	2.632397
52370		-13.127525	10.152675	7.328637	3.046711	-1.179861	-0.528653	0.735840	-0.076172	-0.230713	-113.465336	80.186048	6.987302
52371		-3.925170	6.005370	15.675403	3.262125	-2.971906	-0.634766	0.741455	-0.088135	-0.242920	-101.424577	80.355325	17.305638
52372		-0.748451	9.234545	12.175387	2.599503	-3.797479	-0.245529	0.734375	-0.084473	-0.263916	-87.038038	80.376947	30.384739
52373		3.142522	8.894690	8.596964	1.768173	-4.103220	-0.045124	0.715332	-0.103760	-0.288818	-72.623959	79.934670	43.982864
52374		5.631697	6.911734	6.702044	1.247041	-3.895146	0.045356	0.711914	-0.106201	-0.310059	-60.750772	79.070388	55.329100
52375		4.457590	4.994110	6.843451	0.904352	-3.788945	0.291034	0.709229	-0.111328	-0.333496	-50.860959	77.981815	64.889268
52376		1.796994	3.108704	7.004920	0.704922	-3.874021	0.625554	0.693604	-0.120850	-0.356201	-42.161108	76.708678	73.389692
52377		-1.325619	2.445329	7.676341	0.750388	-4.109324	1.040292	0.675537	-0.137451	-0.366211	-34.001505	75.213657	81.354427
52378		-3.283435	2.206061	7.865189	0.748599	-4.546021	1.456498	0.664307	-0.143799	-0.398438	-26.334826	73.374230	88.870301
52379		-3.290833	1.941915	7.242103	0.646186	-5.010062	1.821020	0.639648	-0.159912	-0.430176	-19.443510	71.123356	95.713649
52380		-2.989025	1.296584	7.682486	0.553276	-5.370172	2.075624	0.621826	-0.176758	-0.455566	-13.633145	68.505367	101.563484
52381		-3.197258	0.099006	8.185019	0.495374	-5.614273	2.245208	0.601563	-0.188721	-0.478027	-8.869734	65.589029	106.424421
52382		-4.247214	-0.473977	8.285527	0.523380	-5.819223	2.324988	0.563965	-0.203613	-0.515381	-5.024462	62.434772	110.365916
52383		-5.348758	-0.336403	8.079100	0.552547	-5.987907	2.326602	0.536133	-0.222656	-0.544189	-1.947464	59.079247	113.526017
52384		-5.851773	-0.405529	7.528761	0.483820	-6.118224	2.253800	0.510254	-0.218506	-0.554443	0.419697	55.586477	116.006415
52385		-5.793997	-1.006918	7.793347	0.405606	-6.184574	2.112391	0.474854	-0.232666	-0.579834	2.201647	52.004304	117.923654
52386		-6.610400	-2.118455	8.738177	0.419752	-6.236660	1.945630	0.439697	-0.245117	-0.609131	3.564428	48.375030	119.382801
52387		-7.764684	-2.841383	9.463259	0.547623	-6.283486	1.773212	0.409668	-0.239990	-0.630615	4.679562	44.699236	120.483887
52388		-10.039942	-2.646238	10.358434	0.738756	-6.323304	1.593331	0.380127	-0.238281	-0.652100	5.645487	41.004576	121.280048
52389		-12.147301	-1.794841	10.617795	0.895194	-6.366075	1.447966	0.354736	-0.251953	-0.674316	6.519201	37.277820	121.848433
52390		-13.073507	-0.524572	10.991551	0.896208	-6.415873	1.408816	0.319580	-0.253174	-0.698242	7.289483	33.527234	122.289867
52391		-14.473847	0.217392	11.010563	0.719739	-6.410886	1.485275	0.297852	-0.257080	-0.729980	7.925219	29.761988	122.711822
52392		-17.233035	0.173096	10.602337	0.491231	-6.296413	1.637425	0.274658	-0.255859	-0.757568	8.427872	26.053446	123.182379
52393		-21.160026	-0.532299	9.596107	0.223415	-6.047699	1.825386	0.241211	-0.254639	-0.781982	8.790764	22.459451	123.749440
52394		-24.600519	-1.334209	7.614964	-0.063942	-5.650675	1.994976	0.210938	-0.251953	-0.817871	8.993536	19.079849	124.422215
52395		-27.807276	-2.304082	4.026029	-0.355064	-5.011916	2.073786	0.177002	-0.255127	-0.846191	9.021386	16.047032	125.182916
52396		-30.628846	-3.125634	-0.188018	-0.692864	-4.145309	2.026270	0.157471	-0.239746	-0.875977	8.830580	13.516346	125.988190
52397		-32.663603	-5.555651	-4.454104	-0.922453	-3.187562	1.677272	0.139648	-0.237793	-0.903320	8.454047	11.557090	126.681444
52398		-23.063017	-13.085824	-3.428200	-0.102618	-2.068129	1.039130	0.126953	-0.229736	-0.924072	8.476055	10.293211	127.103880
52399		-43.068622	-9.475893	-15.953407	0.816388	0.723888	0.741947	0.140381	-0.236816	-0.942139	9.034323	10.630571	127.596143
52400		-41.866939	-6.329360	-19.184122	0.095115	0.271225	0.865472	0.167236	-0.236084	-0.959717	9.186461	10.701304	128.119699
52401		-31.780901	6.547466	-22.205209	-1.349437	2.258679	1.094576	0.194092	-0.208984	-0.961182	8.577818	11.877454	128.955790
52402		6.015201	-4.700563	9.758956	-0.621575	4.174139	-0.860828	0.257324	-0.197754	-0.962646	8.190052	14.311224	128.813190
52403		-15.532323	-4.619799	37.510880	-1.054339	4.463632	-1.142072	0.315918	-0.178955	-0.959473	7.503346	16.929126	128.503234
52404		-19.416939	0.356129	14.086795	-1.736370	3.422415	-0.598966	0.362793	-0.153076	-0.956543	6.476269	18.913011	128.396494
52405		-10.607088	3.414094	12.219138	-1.360487	3.227869	-0.951546	0.411377	-0.131592	-0.948975	5.571877	20.804981	128.026977
52406		-15.477627	-2.500401	15.315320	-1.221941	2.651098	-0.813998	0.440918	-0.114746	-0.947998	4.742952	22.355556	127.674927
52407		-8.957544	-10.469431	10.079148	-0.757449	1.981760	-0.695313	0.465820	-0.096924	-0.943115	4.179208	23.514491	127.340205
52408		-3.664615	3.401494	9.040334	-0.873181	2.010665	-0.643793	0.491211	-0.088135	-0.931152	3.550033	24.684610	127.022830
52409		-7.552195	7.577392	8.506601	-1.033277	2.003171	-0.907625	0.517578	-0.067871	-0.916260	2.743392	25.855202	126.518948
52410		-6.751949	-3.624702	9.808841	-0.929489	1.736447	-1.034781	0.544189	-0.062500	-0.923096	1.938490	26.869377	125.904029
52411		-12.328524	-8.188341	15.061453	-0.889031	1.285266	-0.566897	0.552002	-0.041504	-0.912354	1.273529	27.610777	125.562855
52412		-8.530949	-2.588859	9.894489	-0.517886	0.596621	-0.154219	0.562012	-0.030273	-0.904053	0.934924	27.950142	125.471423
52413		-4.046037	2.017874	9.886497	-0.390030	0.477163	-0.088205	0.558838	-0.034180	-0.901611	0.687216	28.220599	125.419195
52414		-7.044037	-1.658472	9.553815	-0.196003	0.295122	-0.044843	0.567139	-0.030273	-0.896484	0.563295	28.385857	125.393130
52415		-5.254578	-0.445641	9.731323	-0.040636	0.182756	0.000691	0.572754	-0.028564	-0.900391	0.541453	28.486955	125.395413
52416		-4.989562	-0.187446	9.007234	0.073229	0.153155	0.035896	0.572266	-0.033691	-0.892578	0.596292	28.570394	125.420838
52417		-4.417970	-0.203729	9.034816	0.105682	0.193507	0.051490	0.576660	-0.023682	-0.897949	0.674269	28.677328	125.456511
52418		-4.657813	0.145439	8.881958	0.132642	0.239780	0.068384	0.575928	-0.031250	-0.894043	0.773935	28.810100	125.504190
52419		-4.613735	0.058366	8.820423	0.128833	0.269605	0.074846	0.574951	-0.031738	-0.896240	0.873275	28.960318	125.556345
52420		-4.833676	0.037836	8.736884	0.118058	0.301791	0.078636	0.584229	-0.036133	-0.884277	0.968703	29.128376	125.612055
52421		-4.967743	0.114727	8.625301	0.105501	0.300843	0.075721	0.589844	-0.033447	-0.892090	1.055745	29.296324	125.665872
52422		-4.879933	0.369540	8.510014	0.071121	0.282087	0.065098	0.590820	-0.035156	-0.892578	1.120437	29.453099	125.713179
52423		-4.809810	0.420316	8.446554	0.030059	0.270914	0.047949	0.589355	-0.040771	-0.885254	1.155605	29.604121	125.748911
52424		-4.854768	0.431550	8.458223	-0.012259	0.255967	0.034779	0.591553	-0.034668	-0.885742	1.162852	29.746233	125.776244
52425		-4.925338	0.293800	8.496251	-0.031990	0.242715	0.026773	0.601807	-0.038086	-0.883301	1.155582	29.881338	125.797790
52426		-4.906116	0.329235	8.459834	-0.044865	0.238510	0.023978	0.599365	-0.036133	-0.885498	1.140601	30.013578	125.817794
52427		-5.006748	0.173532	8.449390	-0.053408	0.228129	0.013294	0.607178	-0.035400	-0.883545	1.116575	30.140492	125.830205
52428		-5.065009	0.131772	8.438375	-0.055200	0.215663	0.005271	0.608887	-0.032959	-0.877930	1.089330	30.259865	125.837449
52429		-4.941094	0.231342	8.403783	-0.064703	0.208552	0.001177	0.597168	-0.021729	-0.886475	1.054636	30.375712	125.841458
52430		-5.034892	0.226817	8.344192	-0.079442	0.199523	-0.004239	0.606689	-0.037842	-0.874023	1.010151	30.485945	125.842037
52431		-5.022598	0.079316	8.311705	-0.097524	0.170847	-0.008214	0.605713	-0.034424	-0.874023	0.953176	30.580293	125.839170
52432		-4.921214	0.106592	8.377878	-0.106942	0.172959	-0.003143	0.607666	-0.023438	-0.876221	0.893038	30.675299	125.839950
52433		-4.975893	0.059004	8.393207	-0.129950	0.179419	-0.000855	0.609375	-0.033203	-0.873291	0.819898	30.774493	125.841825
52434		-5.091021	-0.020295	8.285126	-0.151255	0.174219	-0.013027	0.614990	-0.023438	-0.878906	0.730855	30.870298	125.835740
52435		-5.059046	0.156423	8.155485	-0.195037	0.155992	-0.025366	0.612305	-0.026123	-0.875488	0.611729	30.956243	125.820690
52436		-4.976773	0.465292	8.102623	-0.274141	0.126345	-0.052652	0.615723	-0.021973	-0.870361	0.438219	31.024804	125.787329
52437		-5.109216	0.533358	8.218822	-0.315490	0.076536	-0.063782	0.617432	-0.016113	-0.870117	0.236342	31.065288	125.745682
52438		-5.068256	0.068162	8.409266	-0.326066	0.074885	-0.073552	0.614014	-0.018311	-0.868164	0.025473	31.104193	125.697677
52439		-4.855298	0.007398	8.556618	-0.323600	0.088124	-0.067367	0.612061	-0.014160	-0.873535	-0.182526	31.151059	125.653254
52440		-5.079994	-0.181394	8.665413	-0.291645	0.143757	-0.059401	0.614990	-0.006836	-0.871826	-0.369150	31.229171	125.614129
52441		-5.050689	-0.377460	8.630235	-0.243936	0.184210	-0.040425	0.624268	-0.005371	-0.872070	-0.522711	31.330954	125.586846
52442		-5.164595	-0.519574	8.638000	-0.183626	0.238680	-0.025013	0.629883	-0.000732	-0.863037	-0.636173	31.463471	125.569588
52443		-5.112052	-0.535563	8.674482	-0.118806	0.297202	0.014372	0.625000	-0.000732	-0.865723	-0.699643	31.630258	125.577704
52444		-5.022812	-0.353387	8.714180	-0.085229	0.362591	0.050372	0.634766	-0.006104	-0.867432	-0.730882	31.834269	125.609753
52445		-5.165449	-0.235388	8.570815	-0.057573	0.414311	0.072906	0.626709	0.000244	-0.854004	-0.738965	32.068574	125.656170
52446		-4.866892	-0.362104	8.754909	0.001631	0.461314	0.076406	0.638428	-0.008057	-0.858398	-0.711208	32.329339	125.705120
52447		-4.635717	-0.224532	8.869089	0.102777	0.531996	0.062469	0.648193	-0.007568	-0.856445	-0.631064	32.630935	125.744082
52448		-4.995363	-0.069001	8.756052	0.177658	0.605874	0.057946	0.647949	-0.009521	-0.848877	-0.508730	32.974303	125.780640
52449		-5.140551	-0.279804	8.836782	0.240098	0.663483	0.058016	0.656982	-0.009033	-0.849121	-0.350562	33.351033	125.817692
52450		-4.782865	-0.621420	9.092097	0.334441	0.753447	0.079431	0.656006	-0.013672	-0.837158	-0.128567	33.778822	125.871293
52451		-4.375236	-0.691134	9.357886	0.429685	0.950525	0.111012	0.676025	-0.027100	-0.844238	0.161425	34.319706	125.948947
52452		-4.109793	-0.992269	9.611593	0.538296	1.227508	0.155723	0.687744	-0.025391	-0.834717	0.535891	35.018360	126.063746
52453		-3.700293	-1.091117	10.030487	0.659166	1.579523	0.200605	0.694336	-0.020264	-0.817871	1.004759	35.917908	126.220401
52454		-3.169314	-1.210637	10.399727	0.733758	2.014497	0.257435	0.713623	-0.039795	-0.807129	1.554707	37.064433	126.436941
52455		-2.611835	-0.890577	10.887512	0.750099	2.499526	0.301228	0.740723	-0.042236	-0.788330	2.154631	38.486200	126.714267
52456		-2.275300	-0.695992	11.444234	0.789407	3.060383	0.305540	0.764648	-0.043945	-0.766846	2.814118	40.226304	127.039735
52457		-1.761734	-0.057496	11.584383	0.791585	3.760623	0.300979	0.794922	-0.051758	-0.739990	3.523987	42.363837	127.427699
52458		-1.312945	0.584547	10.805738	0.704024	4.663517	0.207846	0.836426	-0.061523	-0.698975	4.214615	45.017569	127.842259
52459		-1.079804	2.577624	10.336338	0.560078	5.780724	0.101480	0.880371	-0.057373	-0.649658	4.875550	48.309975	128.309173
52460		-2.509601	4.564787	12.194609	0.408881	7.138744	-0.027631	0.930908	-0.053711	-0.586182	5.540424	52.380602	128.867025
52461		-6.856323	3.504532	14.786938	0.448541	8.474332	-0.225278	0.992920	-0.049072	-0.514160	6.327836	57.218288	129.514973
52462		-15.734371	3.613921	19.553859	0.786059	9.316104	-0.605764	1.050537	-0.040771	-0.423096	7.276226	62.555430	130.088828
52463		-19.582565	5.874756	18.802467	0.732133	9.380410	-1.316984	1.099854	-0.028076	-0.323730	7.580286	67.976785	129.961097
52464		-20.189427	10.402061	18.817341	0.140592	9.325547	-1.924366	1.139404	-0.011475	-0.233643	6.393186	73.410552	128.618580
52465		-21.393091	12.220796	19.916977	-0.558942	8.805623	-2.364129	1.181885	0.011230	-0.145996	2.172962	78.539668	124.602566
52466		-20.521472	10.431637	21.930254	-0.949518	7.823680	-2.700230	1.206055	0.037842	-0.068848	-9.640677	82.929565	113.192851
52467		-13.806968	8.556407	20.331957	-1.004647	6.839399	-2.977692	1.239258	0.078857	-0.000977	-43.929661	85.776236	79.333950
52468		-3.510729	8.165879	20.458038	-0.856528	6.052273	-2.866508	1.275391	0.106201	0.056396	-95.586090	85.397251	28.035310
52469		15.323598	3.930649	12.806322	-0.652512	5.237571	-2.832113	1.295410	0.138916	0.118408	-119.258487	82.903330	4.622970
52470		-4.659091	2.072858	7.913349	0.104518	7.941542	-2.746403	1.333496	0.179688	0.206299	-135.754575	78.844933	-12.132670
52471		-25.342048	0.060744	24.322070	1.866477	5.988151	-1.975145	1.372803	0.210693	0.266113	-140.974697	75.531992	-18.580924
52472		-20.061038	-1.107808	19.949718	3.453558	4.120215	-1.052844	1.403076	0.226074	0.281982	-142.531459	73.307371	-22.251590
52473		-21.304151	5.598868	7.158759	3.872999	1.261457	-0.066937	1.474121	0.228027	0.261475	-141.652364	72.723634	-23.653598
52474		-7.366439	9.633332	13.338128	4.116049	-1.915537	0.305005	1.534668	0.203613	0.187012	-137.366628	73.675588	-21.641186
52475		-5.137387	11.625569	15.736125	3.457469	-3.754363	0.727027	1.601074	0.175781	0.066406	-130.813303	75.483564	-16.900020
52476		-4.666732	11.636453	11.370360	2.193566	-4.759369	1.152348	1.656494	0.107422	-0.076172	-121.990945	77.641286	-9.124573
52477		-2.424363	10.868798	8.362372	0.968633	-5.320635	1.373460	1.688965	0.024658	-0.244385	-109.358994	79.692750	3.187616
52478		-0.584375	7.665426	6.017882	0.040695	-5.535822	1.405104	1.690430	-0.060303	-0.414795	-91.693550	81.082123	21.074893
52479		0.675176	4.328580	3.803291	-0.621319	-5.624683	1.456005	1.660400	-0.150879	-0.602295	-70.306012	81.411555	43.067186
52480		1.456640	0.980719	2.733986	-0.977160	-5.479154	1.599189	1.597900	-0.234131	-0.777832	-50.567797	80.646285	63.610289
52481		0.563351	-0.098774	2.689006	-1.007611	-5.220347	1.818697	1.489502	-0.324951	-0.931152	-35.302641	79.146113	79.696336
52482		-0.680656	-0.689771	4.048381	-0.856423	-5.082234	1.974261	1.368164	-0.399902	-1.070313	-24.184618	77.165503	91.553418
52483		-2.309182	-1.012754	5.701926	-0.603873	-5.105806	2.094818	1.221191	-0.463379	-1.179443	-15.940920	74.811963	100.402010
52484		-4.410015	-1.546762	6.769658	-0.285772	-5.274018	2.204974	1.053467	-0.543213	-1.266846	-9.682164	72.137315	107.098059
52485		-6.258827	-1.081068	7.196926	-0.009590	-5.516957	2.268834	0.875977	-0.584473	-1.319824	-4.854541	69.150501	112.216823
52486		-6.941261	-0.533398	6.978611	0.202184	-5.745386	2.254456	0.688721	-0.619629	-1.337891	-1.193417	65.925604	116.050587
52487		-6.916489	-0.564693	6.167345	0.272160	-6.023443	2.250141	0.509766	-0.645264	-1.352539	1.615249	62.454683	118.993820
52488		-7.143504	-0.727730	5.756429	0.198113	-6.325550	2.268616	0.337891	-0.668701	-1.333496	3.736693	58.768854	121.296144
52489		-7.436023	-1.006145	6.652373	0.153173	-6.580924	2.215474	0.182129	-0.670410	-1.292969	5.313677	54.894970	123.072024
52490		-8.218021	-1.381453	7.894369	0.187441	-6.782154	2.099276	0.028076	-0.664307	-1.259521	6.477159	50.901683	124.394351
52491		-8.975237	-1.504428	8.490501	0.263437	-6.948626	1.966420	-0.096924	-0.663574	-1.195557	7.364639	46.798767	125.369377
52492		-9.496521	-1.355084	8.827340	0.335334	-7.027868	1.846109	-0.208496	-0.658691	-1.135254	8.061200	42.662311	126.084484
52493		-9.664936	-1.360261	8.717527	0.341928	-6.977772	1.785919	-0.311279	-0.647705	-1.084473	8.631658	38.543242	126.656649
52494		-11.645993	-1.576805	9.146558	0.357650	-6.787430	1.761617	-0.408936	-0.645020	-1.018555	9.131808	34.540902	127.150808
52495		-15.502507	-0.828255	10.131286	0.351349	-6.590488	1.722202	-0.490479	-0.633301	-0.958252	9.566653	30.639913	127.580577
52496		-19.511364	0.148788	10.485702	0.251213	-6.436370	1.676510	-0.559814	-0.620605	-0.892822	9.889052	26.838648	127.949888
52497		-22.205600	0.534580	10.603995	0.075082	-6.313733	1.663134	-0.620605	-0.611328	-0.823486	10.079649	23.096545	128.294936
52498		-23.773986	0.008175	9.629772	-0.110728	-6.150889	1.704201	-0.684082	-0.586426	-0.764160	10.150337	19.451418	128.662453
52499		-24.514186	-0.592196	7.128803	-0.235983	-5.849883	1.714952	-0.728027	-0.580322	-0.707764	10.137710	15.965954	129.059390
52500		-25.609268	-1.516890	4.220985	-0.273306	-5.286035	1.578751	-0.762207	-0.568604	-0.654297	10.074049	12.821333	129.430283
52501		-28.426072	-3.886909	0.753667	-0.118064	-4.526462	1.267236	-0.800049	-0.555908	-0.600830	10.061427	10.129316	129.698122
52502		-31.449122	-7.101993	-3.312757	0.402485	-3.684816	0.942941	-0.823975	-0.544189	-0.571289	10.318015	7.951590	129.858554
52503		-32.669471	-8.785131	-5.600451	1.065359	-2.857187	0.668884	-0.834473	-0.550537	-0.535889	10.939288	6.262440	129.934518
52504		-32.639289	-8.226318	-6.841314	1.540709	-2.162029	0.365093	-0.850342	-0.553467	-0.499512	11.818956	5.002571	129.895109
52505		-29.987870	-10.991968	-9.589297	1.810129	-1.304490	0.028033	-0.858398	-0.559326	-0.461426	12.845423	4.261791	129.750978
52506		-23.921152	-9.297801	-9.107406	2.037520	1.329561	0.060472	-0.847656	-0.566895	-0.461670	14.030641	4.990444	129.962358
52507		-29.920335	4.757645	-28.258726	-0.391834	1.696430	0.388353	-0.842529	-0.562012	-0.477783	13.849352	5.874982	130.414452
52508		21.702381	-2.947538	16.524743	-0.448644	3.006991	-1.640224	-0.816406	-0.571045	-0.508301	13.532558	7.767140	129.905520
52509		6.988984	4.506810	35.357999	-1.818146	4.824270	-1.784833	-0.786377	-0.567627	-0.548340	12.430177	10.685386	129.525072
52510		-20.232406	9.717343	9.348780	-2.869420	4.618172	-1.341349	-0.756836	-0.562744	-0.587402	10.739244	13.427537	129.298691
52511		-14.411143	17.540927	14.488647	-1.807105	4.772209	-1.080698	-0.720459	-0.567871	-0.633301	9.671366	16.223494	129.169697
52512		-17.826207	8.070014	19.223064	-2.308418	4.448757	-1.273405	-0.688965	-0.550293	-0.672852	8.247011	18.850718	128.830504
52513		-17.479498	-20.058384	12.293975	-1.566885	3.457797	-1.583640	-0.652832	-0.551025	-0.709473	7.121270	20.931468	128.156682
52514		-11.705044	-12.311403	14.345299	-0.916443	2.655537	-1.018087	-0.623535	-0.552246	-0.732910	6.437874	22.507017	127.727017
52515		-8.688947	6.926682	9.450035	-0.940008	2.269685	-0.939180	-0.608154	-0.551758	-0.742920	5.729457	23.853925	127.295093
52516		-5.154818	4.948787	8.341717	-1.009275	2.106041	-1.143827	-0.585449	-0.547363	-0.756592	4.905918	25.111976	126.701587
52517		-7.998734	-6.783982	10.770026	-0.959596	1.857751	-1.119082	-0.566406	-0.544922	-0.776123	4.089790	26.220371	126.085512
52518		-8.405359	-1.090240	10.110341	-0.964477	1.482579	-0.858031	-0.558594	-0.543213	-0.781006	3.319511	27.095663	125.598748
52519		-7.581612	0.497320	9.732841	-0.901867	1.242161	-0.784124	-0.543213	-0.545166	-0.800781	2.589070	27.826783	125.134838
52520		-11.619608	-6.929503	13.178089	-0.713243	0.671430	-0.375026	-0.524658	-0.543945	-0.806152	2.075635	28.215771	124.910245
52521		-4.440966	0.388470	10.054014	-0.613770	0.426119	-0.179119	-0.528809	-0.531006	-0.804443	1.673087	28.460609	124.803071
52522		-6.261081	-0.113266	9.265912	-0.386813	0.334356	-0.123981	-0.520752	-0.536621	-0.816162	1.416818	28.649899	124.729055
52523		-5.172563	-0.732300	9.393084	-0.252594	0.285076	-0.065142	-0.519043	-0.522461	-0.820313	1.253854	28.811545	124.691164
52524		-5.101599	0.211140	8.896452	-0.128007	0.239442	-0.033417	-0.522705	-0.524902	-0.818115	1.172767	28.944988	124.673598
52525		-5.072053	-0.406340	8.919004	-0.023409	0.232723	-0.006680	-0.515137	-0.531738	-0.820313	1.158829	29.075879	124.672632
52526		-4.805028	-0.088977	8.950079	0.055945	0.229692	0.019070	-0.517334	-0.526855	-0.829102	1.199701	29.203108	124.689222
52527		-4.873370	-0.144411	8.793153	0.109354	0.253469	0.032869	-0.509277	-0.521240	-0.826660	1.274718	29.345400	124.714679
52528		-4.799461	0.296149	8.626699	0.117608	0.245694	0.037929	-0.515381	-0.535156	-0.820068	1.357391	29.481513	124.744305
52529		-4.958283	0.352517	8.515523	0.097808	0.236265	0.035228	-0.509766	-0.532227	-0.822510	1.426765	29.613859	124.771536
52530		-5.005130	0.574863	8.377634	0.071251	0.199116	0.019686	-0.510742	-0.525879	-0.826660	1.476875	29.723496	124.788804
52531		-4.905394	0.541625	8.418783	0.038490	0.168792	0.002834	-0.501709	-0.529785	-0.832764	1.501343	29.817656	124.793824
52532		-4.805999	0.351767	8.513581	0.006412	0.161680	-0.005032	-0.508789	-0.533936	-0.825928	1.505976	29.906210	124.794266
52533		-4.922055	0.206349	8.556426	-0.014552	0.166887	-0.003836	-0.503418	-0.537109	-0.826416	1.497883	29.999384	124.794883
52534		-4.866510	0.102065	8.478193	-0.026213	0.164650	-0.001234	-0.500977	-0.535156	-0.824707	1.485098	30.089582	124.797869
52535		-4.905047	0.029379	8.446154	-0.039820	0.194811	-0.001830	-0.500732	-0.536133	-0.831055	1.463400	30.198726	124.800234
52536		-5.050697	0.094262	8.359748	-0.054984	0.190047	0.000748	-0.498291	-0.539551	-0.827881	1.434981	30.303444	124.804889
52537		-5.102408	0.203691	8.298903	-0.073346	0.167533	-0.012305	-0.495605	-0.531250	-0.832031	1.390259	30.397126	124.799713
52538		-5.146538	0.181975	8.315342	-0.078924	0.136384	-0.013223	-0.496826	-0.528809	-0.831299	1.342919	30.471303	124.794069
52539		-4.984110	0.014578	8.462240	-0.065320	0.119244	-0.016933	-0.497803	-0.538574	-0.835205	1.300752	30.537404	124.784893
52540		-4.935196	0.040488	8.554418	-0.066230	0.135322	-0.011982	-0.496582	-0.518799	-0.835205	1.261015	30.610949	124.779922
52541		-4.961595	-0.012661	8.499200	-0.069417	0.141539	-0.000252	-0.494873	-0.527588	-0.833984	1.222226	30.689604	124.782044
52542		-5.058319	0.035892	8.488924	-0.076796	0.146232	0.006156	-0.499268	-0.524902	-0.837646	1.182614	30.769175	124.789188
52543		-5.076063	0.159988	8.430534	-0.086584	0.144996	0.013963	-0.486572	-0.531250	-0.835449	1.138792	30.849653	124.800702
52544		-5.115835	0.213507	8.348739	-0.103864	0.128384	0.011353	-0.494629	-0.529053	-0.841309	1.085280	30.918951	124.810949
52545		-5.081957	0.190316	8.417576	-0.114873	0.114026	0.016709	-0.496582	-0.525146	-0.834473	1.025943	30.981689	124.823763
52546		-5.044947	0.087738	8.390329	-0.125328	0.108264	0.015275	-0.490479	-0.519287	-0.842529	0.961304	31.039440	124.836243
52547		-4.910512	0.054256	8.462880	-0.134514	0.121038	0.020143	-0.484619	-0.523926	-0.844482	0.891883	31.106196	124.851283
52548		-4.996252	0.195642	8.403428	-0.200034	0.151480	0.019937	-0.488525	-0.520508	-0.845947	0.786215	31.188695	124.867144
52549		-5.220562	0.377700	8.314187	-0.299060	0.148991	0.020900	-0.487061	-0.518799	-0.841797	0.622791	31.271508	124.882648
52550		-5.260143	0.619112	8.136370	-0.411538	0.083771	0.016939	-0.487793	-0.517822	-0.849854	0.394445	31.315307	124.895564
52551		-5.335320	0.170021	8.254670	-0.411713	0.046963	0.014173	-0.481445	-0.514648	-0.851807	0.163660	31.339805	124.905553
52552		-5.050646	-0.402873	8.627003	-0.296746	0.078692	0.028841	-0.491455	-0.510498	-0.849609	0.005057	31.380764	124.926079
52553		-5.017831	-0.285478	8.744925	-0.226156	0.149741	0.061080	-0.490723	-0.505127	-0.851563	-0.103099	31.464234	124.967351
52554		-5.062925	-0.160111	8.710508	-0.178040	0.226659	0.079648	-0.479980	-0.506348	-0.857910	-0.175985	31.590112	125.021634
52555		-5.010981	-0.302368	8.869374	-0.113364	0.321409	0.093141	-0.474854	-0.510498	-0.861328	-0.208310	31.772074	125.083966
52556		-4.659279	-0.441400	8.988950	-0.035226	0.443734	0.107876	-0.480469	-0.502686	-0.859375	-0.189240	32.022429	125.156855
52557		-3.834658	-0.540501	9.375676	0.139835	0.639504	0.094825	-0.470703	-0.505371	-0.857422	-0.075391	32.386545	125.220384
52558		-4.370317	-0.511484	9.343681	0.255879	0.883618	0.112349	-0.467773	-0.508545	-0.867920	0.113895	32.888697	125.298144
52559		-4.558121	-0.413255	9.148995	0.353955	1.059364	0.141667	-0.450439	-0.515625	-0.868408	0.371459	33.492764	125.398460
52560		-4.133509	-0.696210	9.433728	0.441284	1.290057	0.162815	-0.441650	-0.509521	-0.872559	0.692839	34.226903	125.520148
52561		-3.747173	-0.990563	9.673693	0.551940	1.599224	0.202262	-0.427979	-0.510254	-0.880127	1.099081	35.138574	125.678624
52562		-3.447776	-1.001412	10.010211	0.631877	1.966626	0.227620	-0.416992	-0.512207	-0.884277	1.575056	36.257894	125.872586
52563		-2.937295	-0.765231	10.553941	0.695267	2.383479	0.249830	-0.396240	-0.520264	-0.889160	2.113776	37.615271	126.106513
52564		-2.603893	-0.721750	11.272249	0.711179	2.880533	0.280605	-0.364502	-0.527100	-0.890625	2.705175	39.253340	126.401129
52565		-1.683663	-0.167854	11.450180	0.768665	3.530870	0.265781	-0.335938	-0.538330	-0.895020	3.364655	41.262134	126.740427
52566		-1.046918	0.969535	10.512382	0.723077	4.421075	0.169991	-0.298096	-0.541748	-0.910645	4.019110	43.779546	127.094494
52567		-1.084852	2.333728	11.079851	0.522668	5.511210	0.034898	-0.248291	-0.553223	-0.922607	4.577869	46.922951	127.459032
52568		-1.314284	2.965015	12.491692	0.348898	6.860314	-0.098371	-0.177979	-0.554932	-0.922363	5.094688	50.840233	127.878376
52569		-4.651332	3.130218	14.216867	0.406286	8.402026	-0.338288	-0.094727	-0.556396	-0.939697	5.673600	55.646572	128.309863
52570		-11.707370	3.641832	18.805571	0.744477	9.651811	-0.673382	-0.003662	-0.559814	-0.939209	6.426231	61.182352	128.690942
52571		-21.815340	5.848370	21.738219	0.742837	9.847045	-1.212749	0.092041	-0.579590	-0.917236	6.764590	66.861233	128.593382
52572		-21.108767	8.343985	18.254008	0.183489	9.623493	-1.814449	0.196045	-0.571777	-0.908936	5.697737	72.451490	127.344048
52573		-23.458324	10.315074	19.282361	-0.506235	9.042067	-2.121109	0.294189	-0.562256	-0.882080	2.194729	77.699204	124.022169
52574		-23.719761	8.859415	21.640061	-0.993200	7.871640	-2.279375	0.383057	-0.549316	-0.852783	-6.734450	82.162088	115.537728
52575		-17.635570	8.063775	20.862047	-1.206082	6.679787	-2.401091	0.453125	-0.526367	-0.830566	-30.828374	85.403402	92.008966
52576		-6.228331	9.462691	21.708733	-1.400585	5.506518	-2.250897	0.514404	-0.504395	-0.805176	-78.345881	86.248383	45.183687
52577		12.721483	1.094872	11.957160	-1.253471	4.393191	-2.312032	0.569824	-0.478516	-0.781494	-109.824170	84.694733	14.333821
52578		-13.113856	3.101510	12.170099	-0.564847	6.827783	-2.510930	0.623535	-0.463867	-0.740479	-131.774523	81.399758	-7.441106
52579		-22.280846	0.428603	23.930785	0.476584	4.270946	-2.069325	0.669189	-0.451904	-0.701660	-136.776771	78.849164	-12.795454
52580		-9.909526	-2.875085	18.011787	1.949758	2.863548	-1.391763	0.695801	-0.459473	-0.674316	-138.102052	77.104618	-15.293188
52581		-7.338814	1.344665	10.905326	2.688881	1.786545	-0.340276	0.722656	-0.478760	-0.648682	-138.780713	76.220899	-17.575355
52582		-12.476670	11.347907	-3.062287	1.988004	-0.660491	0.300227	0.709473	-0.498535	-0.641357	-137.111794	76.620789	-17.031009
52583		-0.515546	8.827701	10.660958	1.714595	-2.495284	-0.026936	0.693115	-0.507568	-0.656982	-131.576565	77.622215	-12.362400
52584		-2.635006	7.096099	11.372480	1.121594	-3.134951	0.136382	0.660645	-0.517578	-0.678467	-124.363782	78.794169	-5.652080
52585		-1.324085	7.394628	7.182690	0.364417	-3.597052	0.348288	0.637451	-0.528809	-0.700439	-115.051284	80.004268	3.606929
52586		0.830084	5.511010	5.813513	-0.020857	-3.763741	0.421418	0.593506	-0.528809	-0.731934	-103.353848	80.948827	15.477642
52587		1.282868	4.009900	4.733920	-0.215625	-3.892639	0.632105	0.559326	-0.531006	-0.759766	-89.183196	81.564290	29.936159
52588		0.557202	2.332933	3.818161	-0.250730	-4.089992	0.885070	0.508545	-0.541504	-0.777344	-72.963072	81.703351	46.472793
52589		-0.873003	1.483608	4.291217	-0.116115	-4.325810	1.133937	0.455811	-0.538574	-0.817139	-56.089949	81.216728	63.597415
52590		-1.964245	0.708518	5.023076	0.053286	-4.612302	1.345226	0.410400	-0.549316	-0.837402	-40.910235	80.030369	78.947747
52591		-2.774978	0.042146	4.918264	0.259393	-4.909202	1.551721	0.340576	-0.556152	-0.850830	-28.527311	78.203828	91.400572
52592		-3.540273	-0.073054	4.833526	0.467566	-5.165405	1.731121	0.273926	-0.569092	-0.864746	-19.096968	75.885620	100.798539
52593		-4.055709	0.483313	5.207601	0.545945	-5.377080	1.858402	0.211182	-0.576660	-0.876465	-12.043816	73.183998	107.787137
52594		-4.800811	1.044349	5.478636	0.478481	-5.545479	1.927453	0.136719	-0.584961	-0.874023	-6.886200	70.224761	112.927695
52595		-5.365243	1.189304	5.649415	0.319081	-5.712945	1.943337	0.057617	-0.583008	-0.893555	-3.116290	67.042534	116.775300
52596		-5.998584	0.807993	5.804003	0.134989	-5.879024	1.942590	-0.016113	-0.585938	-0.877686	-0.383423	63.704563	119.694340
52597		-6.735724	-0.032098	5.847821	0.000352	-6.045077	1.943999	-0.097168	-0.581055	-0.881104	1.649349	60.210453	121.993419
52598		-6.964589	-0.619290	5.863059	-0.040680	-6.190452	1.930315	-0.180664	-0.566895	-0.872070	3.182537	56.615559	123.818824
52599		-5.964656	-0.536996	6.078347	-0.078233	-6.230146	1.920745	-0.252441	-0.560547	-0.845459	4.369496	52.962616	125.322724
52600		-6.065987	-0.869018	6.082370	-0.065450	-6.105921	1.928922	-0.337402	-0.557861	-0.827881	5.334394	49.378871	126.607886
52601		-7.926215	-0.603034	7.089456	0.056866	-5.928855	1.928161	-0.414795	-0.546143	-0.793457	6.203677	45.869233	127.736777
52602		-10.531663	-0.139608	8.312248	0.169979	-5.846929	1.935041	-0.491211	-0.526367	-0.757813	6.997581	42.409655	128.735356
52603		-12.501832	0.220022	9.131075	0.216820	-5.891968	1.958785	-0.572021	-0.522949	-0.717041	7.711158	38.899117	129.636116
52604		-13.271192	0.721406	9.659483	0.231554	-5.974198	1.991997	-0.633301	-0.510742	-0.660645	8.338779	35.346068	130.454518
52605		-13.475725	1.278531	10.264210	0.200727	-6.012223	2.044966	-0.697021	-0.498779	-0.602539	8.883446	31.746271	131.227870
52606		-14.470732	1.690081	10.998740	0.164205	-5.980703	2.142737	-0.766113	-0.468506	-0.537354	9.364028	28.163995	131.999988
52607		-16.905326	1.768981	11.585087	0.148872	-5.904760	2.269323	-0.820801	-0.444092	-0.462158	9.808538	24.593657	132.803720
52608		-19.796334	1.884166	11.781164	0.170502	-5.819368	2.393835	-0.878662	-0.423096	-0.380371	10.231573	21.067342	133.639825
52609		-22.851504	1.567673	11.852222	0.233095	-5.751704	2.425070	-0.915283	-0.392090	-0.297607	10.637072	17.558031	134.456403
52610		-24.591593	1.060618	9.742062	0.290995	-5.651080	2.345833	-0.947754	-0.363525	-0.207764	11.006772	14.121164	135.196798
52611		-23.774849	0.386944	6.066607	0.341279	-5.373610	2.145425	-0.961670	-0.332275	-0.121094	11.338978	10.847861	135.821596
52612		-22.359499	-1.889502	1.542813	0.386007	-4.764938	1.802375	-0.968262	-0.295654	-0.055176	11.638523	7.962537	136.296255
52613		-22.091291	-4.362061	-1.795043	0.603468	-3.859922	1.367228	-0.975586	-0.281494	0.014893	12.022984	5.625110	136.612244
52614		-13.219530	-9.905534	-0.982766	1.463995	-2.601672	0.713242	-0.968018	-0.261963	0.064209	12.869187	4.077215	136.690344
52615		-25.094186	-9.705455	-8.856048	2.414770	0.175769	0.362023	-0.963867	-0.246582	0.104248	14.269412	4.116169	136.916369
52616		-35.784637	-5.959743	-12.404600	2.076036	-0.337543	0.167522	-0.958008	-0.240967	0.129395	15.462648	3.900408	136.959483
52617		-40.402698	7.937226	-22.709413	0.501872	1.125884	0.241370	-0.970703	-0.224365	0.136963	15.772624	4.477638	137.267008
52618		2.269535	6.374831	-23.373274	-1.738983	3.184107	-0.851081	-0.980957	-0.241455	0.128174	14.777864	6.361777	137.277112
52619		10.582515	-7.923711	29.111151	0.330560	5.839150	-1.411760	-1.009033	-0.245117	0.093018	14.979705	9.798400	137.355145
52620		-17.538869	26.589053	27.293001	-2.199891	6.570811	-0.744821	-1.014160	-0.251221	0.051270	13.827637	13.546750	137.889139
52621		-14.957472	13.699401	1.105550	-3.561296	6.449323	-3.022507	-1.026855	-0.279297	-0.005127	11.543782	17.527219	136.978337
52622		-13.614813	12.782982	11.402428	-4.113897	6.842363	-3.785051	-1.032227	-0.312500	-0.068359	8.669515	21.763089	135.442505
52623		-22.764437	-7.935364	6.245277	-3.696341	5.828665	-4.164315	-1.032471	-0.342773	-0.128662	5.703407	25.371818	133.317505
52624		-15.520268	-24.236908	19.847243	-3.592570	4.041669	-3.213617	-1.033936	-0.365479	-0.165039	2.812336	27.813773	131.457296
52625		-43.827961	-28.319114	30.585996	-2.539249	1.709749	-0.921749	-1.028564	-0.384033	-0.187012	1.092376	28.808989	130.896590
52626		-5.650674	11.260198	3.879613	-1.802595	-0.058892	-0.036284	-1.022705	-0.381104	-0.185791	0.049192	28.771336	130.873516
52627		-4.604311	-7.214486	10.405438	-0.780770	-0.191462	-0.279711	-1.022705	-0.379395	-0.186768	-0.485534	28.660852	130.691676
52628		-5.096630	-0.834501	9.394849	-0.414345	0.184912	-0.028253	-1.025146	-0.370361	-0.195557	-0.731139	28.762521	130.673062
52629		-5.067458	-1.108445	9.096765	-0.244977	0.186723	-0.052852	-1.026611	-0.374023	-0.200195	-0.889311	28.868849	130.636984
52630		-4.766143	-0.766519	9.160547	-0.116378	0.264827	-0.018821	-1.026123	-0.373779	-0.197021	-0.962011	29.016296	130.623015
52631		-5.336855	-0.893953	8.642422	-0.028768	0.298714	0.020538	-1.036133	-0.376465	-0.207275	-0.973981	29.187402	130.633331
52632		-5.238903	0.221073	8.759042	0.021625	0.248617	0.027890	-1.024170	-0.378418	-0.197021	-0.952676	29.326003	130.650059
52633		-4.833741	-0.627027	9.009233	0.062129	0.257065	0.039486	-1.031982	-0.375000	-0.201416	-0.906132	29.473472	130.673418
52634		-4.927292	-0.766374	8.910789	0.120300	0.304062	0.083670	-1.016846	-0.374512	-0.213867	-0.810191	29.644290	130.726679
52635		-5.188919	0.052670	8.531555	0.132914	0.303653	0.099145	-1.030273	-0.374512	-0.212158	-0.703440	29.818827	130.789524
52636		-5.392876	0.384351	8.240999	0.098329	0.237133	0.076556	-1.040283	-0.377197	-0.215576	-0.621490	29.951094	130.839442
52637		-5.411915	0.327542	8.078936	0.064370	0.142471	0.043183	-1.023682	-0.373535	-0.216797	-0.571308	30.032857	130.867111
52638		-5.184177	0.440909	8.087246	0.032328	0.052924	0.007603	-1.028809	-0.378662	-0.213623	-0.549129	30.059121	130.872936
52639		-4.875997	0.416887	8.337537	0.002228	0.000452	-0.034652	-1.032715	-0.370361	-0.223145	-0.559771	30.059141	130.850104
52640		-4.812824	0.136130	8.443045	-0.013874	-0.001053	-0.061008	-1.025391	-0.366943	-0.213867	-0.586634	30.054088	130.810865
52641		-4.725945	-0.152741	8.499625	-0.018402	0.005924	-0.061011	-1.020752	-0.369873	-0.217773	-0.617807	30.057073	130.770575
52642		-4.746158	-0.317933	8.609412	-0.016522	0.042976	-0.030430	-1.025391	-0.370117	-0.218018	-0.636212	30.077405	130.751260
52643		-4.782352	-0.150296	8.666171	-0.010007	0.073728	-0.015289	-1.023438	-0.379150	-0.220459	-0.647705	30.119487	130.740716
52644		-4.991792	-0.185251	8.531448	-0.012896	0.097242	-0.001968	-1.031982	-0.376953	-0.212402	-0.654803	30.171088	130.739824
52645		-5.086201	-0.140435	8.429261	-0.020771	0.093384	0.000192	-1.022949	-0.382568	-0.213379	-0.667418	30.224526	130.739359
52646		-5.143213	-0.194230	8.346273	-0.026399	0.080204	0.000926	-1.024414	-0.378906	-0.218506	-0.681232	30.266384	130.740494
52647		-5.194755	-0.121119	8.322269	-0.037163	0.043717	-0.006810	-1.018311	-0.372803	-0.216064	-0.705410	30.291348	130.735742
52648		-5.141123	-0.178546	8.343161	-0.039363	0.019856	-0.015201	-1.026611	-0.373535	-0.215576	-0.731815	30.298517	130.726643
52649		-5.134904	-0.167297	8.441978	-0.040075	-0.006443	-0.021019	-1.028076	-0.374512	-0.227295	-0.762221	30.294672	130.712868
52650		-5.017653	-0.089882	8.451876	-0.034826	-0.014823	-0.015875	-1.029297	-0.371582	-0.219971	-0.786098	30.281961	130.703624
52651		-5.054318	0.000785	8.482603	-0.039740	-0.018826	-0.021321	-1.034912	-0.369873	-0.219482	-0.816352	30.271027	130.689774
52652		-5.067689	-0.099417	8.427735	-0.043823	-0.034071	-0.025732	-1.027344	-0.375732	-0.222656	-0.848572	30.247199	130.674196
52653		-5.103592	-0.193474	8.422256	-0.045407	-0.049507	-0.024907	-1.019775	-0.366211	-0.209229	-0.883088	30.218661	130.658306
52654		-5.065549	-0.123121	8.308984	-0.046337	-0.061993	-0.023992	-1.024902	-0.373047	-0.217773	-0.915986	30.178837	130.644213
52655		-4.935604	-0.089572	8.465765	-0.051242	-0.071865	-0.030904	-1.023682	-0.374512	-0.216064	-0.955680	30.137444	130.624650
52656		-4.945822	-0.251782	8.506143	-0.043238	-0.060748	-0.025174	-1.022949	-0.383301	-0.218018	-0.987151	30.098306	130.609829
52657		-4.986574	-0.238639	8.533173	-0.042564	-0.046128	-0.022196	-1.029297	-0.378906	-0.222412	-1.019082	30.071729	130.595808
52658		-5.037766	-0.186127	8.464494	-0.038580	-0.044043	-0.027156	-1.026611	-0.382080	-0.219238	-1.048598	30.042127	130.579535
52659		-5.010530	-0.260084	8.535906	-0.035220	-0.055498	-0.020916	-1.028564	-0.375488	-0.219482	-1.075817	30.010196	130.566516
52660		-4.984822	-0.277462	8.587091	-0.032930	-0.053162	-0.019490	-1.026855	-0.380371	-0.213379	-1.099467	29.975440	130.555471
52661		-4.956163	-0.346790	8.609703	-0.026506	-0.045767	-0.010029	-1.027344	-0.374268	-0.211182	-1.118145	29.949202	130.549562
52662		-5.048933	-0.386085	8.606464	-0.013486	-0.040442	-0.002953	-1.028809	-0.373535	-0.213623	-1.125257	29.921912	130.549314
52663		-5.098816	-0.384877	8.558172	0.007670	-0.038531	0.018508	-1.031250	-0.377197	-0.210449	-1.115017	29.900144	130.562169
52664		-4.956601	-0.310154	8.569355	0.030017	-0.049704	0.029313	-1.031250	-0.381104	-0.213379	-1.086529	29.867904	130.583345
52665		-4.833535	-0.275897	8.552263	0.052064	-0.036427	0.035645	-1.023926	-0.371582	-0.218994	-1.045283	29.847525	130.607449
52666		-4.745949	-0.015680	8.574153	0.041162	-0.001409	0.027222	-1.021484	-0.374268	-0.212891	-1.011422	29.842907	130.626616
52667		-4.798610	-0.129557	8.661644	0.040904	0.023414	0.015028	-1.026123	-0.373291	-0.209473	-0.983707	29.856564	130.636383
52668		-4.916340	-0.201565	8.577979	0.041345	0.052307	0.017137	-1.029785	-0.371826	-0.209473	-0.953351	29.882604	130.648286
52669		-5.052440	-0.130639	8.478851	0.045416	0.055862	0.018655	-1.025146	-0.378174	-0.215576	-0.922016	29.914864	130.660115
52670		-5.046605	-0.103851	8.478372	0.041220	0.038734	0.015441	-1.029053	-0.376221	-0.214355	-0.892191	29.933102	130.671079
52671		-5.068108	-0.202276	8.517775	0.036166	0.032879	0.011224	-1.023682	-0.375244	-0.211670	-0.868460	29.952138	130.678268
52672		-5.154879	-0.208085	8.440229	0.037737	0.014358	0.015930	-1.030762	-0.369141	-0.216309	-0.840333	29.956406	130.689818
52673		-5.239810	-0.213726	8.363786	0.038431	-0.010436	0.015291	-1.022949	-0.376221	-0.213623	-0.813755	29.950680	130.700122
52674		-5.185166	-0.152931	8.370949	0.038959	-0.054610	0.011557	-1.025146	-0.382568	-0.215332	-0.786055	29.915392	130.709420
52675		-5.049834	-0.098185	8.357121	0.038290	-0.086848	0.004221	-1.027344	-0.376221	-0.217773	-0.762890	29.865838	130.713072
52676		-4.838839	0.001465	8.373711	0.032924	-0.102612	0.008732	-1.027588	-0.381348	-0.211914	-0.739405	29.803021	130.720876
52677		-4.647021	-0.064464	8.549105	0.033602	-0.077047	-0.007336	-1.016602	-0.377930	-0.205811	-0.722776	29.759009	130.716776
52678		-4.815717	-0.032383	8.476673	0.031167	-0.053116	-0.014524	-1.023926	-0.374268	-0.208740	-0.708150	29.724379	130.708774
52679		-4.865971	-0.033453	8.477678	0.019779	-0.047340	-0.017343	-1.022217	-0.369873	-0.210938	-0.702829	29.697298	130.697818
52680		-4.968948	-0.094361	8.497896	0.007509	-0.047856	-0.025505	-1.023926	-0.376221	-0.206787	-0.705358	29.665605	130.682529
52681		-5.017170	-0.092713	8.426212	0.003958	-0.062039	-0.028594	-1.017334	-0.383545	-0.210205	-0.712692	29.630027	130.664291
52682		-4.949771	-0.017521	8.460905	-0.014383	-0.082434	-0.046520	-1.029541	-0.376465	-0.210205	-0.734434	29.578368	130.635467
52683		-4.875496	-0.053277	8.489112	-0.034270	-0.101108	-0.051584	-1.022461	-0.373779	-0.210938	-0.770912	29.520239	130.602484
52684		-4.733327	-0.182769	8.634735	-0.042590	-0.094075	-0.055566	-1.020752	-0.375244	-0.207520	-0.811594	29.461810	130.567914
52685		-4.735622	-0.267478	8.656402	-0.049216	-0.027089	-0.044877	-1.024170	-0.375732	-0.206543	-0.854707	29.446092	130.538770
52686		-4.918996	-0.267304	8.580496	-0.063564	0.002677	-0.041916	-1.021973	-0.379883	-0.215576	-0.903390	29.443164	130.512322
52687		-4.991606	-0.319856	8.551861	-0.052866	-0.025557	-0.042414	-1.021240	-0.371338	-0.194092	-0.947801	29.428296	130.484813
52688		-4.825910	-0.321467	8.605584	-0.042185	-0.042044	-0.039996	-1.026611	-0.373779	-0.199951	-0.983352	29.399734	130.460137
52689		-4.647104	-0.109215	8.601502	-0.032909	-0.036270	-0.044699	-1.024414	-0.386719	-0.206787	-1.016998	29.378676	130.431278
52690		-4.544136	0.054615	8.616519	-0.035253	-0.015510	-0.032552	-1.025635	-0.382568	-0.206787	-1.046292	29.365366	130.411228
52691		-4.738559	0.031059	8.587815	-0.045446	-0.004492	-0.019654	-1.026367	-0.378662	-0.205566	-1.079189	29.362715	130.398495
52692		-4.796421	-0.105497	8.552983	-0.043814	-0.005461	-0.010610	-1.023682	-0.380615	-0.206543	-1.106366	29.355383	130.392760
52693		-4.823155	-0.232696	8.568070	-0.040014	0.000677	-0.012884	-1.025391	-0.377930	-0.203857	-1.133974	29.355746	130.384432
52694		-4.888323	-0.263404	8.589111	-0.036358	0.010849	-0.012454	-1.027344	-0.382080	-0.204834	-1.157574	29.357731	130.377279
52695		-4.950155	-0.344210	8.557304	-0.026860	0.007892	-0.007081	-1.024414	-0.378906	-0.195313	-1.175833	29.362286	130.372667
52696		-4.922867	-0.219497	8.493365	-0.011138	0.003559	-0.006704	-1.024902	-0.384033	-0.200928	-1.183084	29.360160	130.369391
52697		-4.953009	-0.291089	8.536564	-0.006560	-0.003439	-0.006774	-1.019775	-0.382324	-0.207275	-1.189552	29.358236	130.365128
52698		-4.967827	-0.205061	8.543054	0.003078	-0.010420	-0.004098	-1.025391	-0.380127	-0.207275	-1.187723	29.348133	130.363755
52699		-4.889256	-0.210280	8.520234	0.002472	-0.019278	-0.005687	-1.030518	-0.384033	-0.205078	-1.188569	29.337161	130.360420
52700		-4.853622	-0.257510	8.591828	0.003368	-0.024713	-0.003251	-1.025146	-0.379883	-0.208252	-1.186206	29.318880	130.359799
52701		-4.895331	-0.234075	8.545121	0.006160	-0.027075	-0.001947	-1.029053	-0.376465	-0.202148	-1.183688	29.303487	130.359026
52702		-4.903352	-0.257688	8.568897	0.006017	-0.023045	0.000754	-1.022705	-0.384277	-0.205322	-1.178532	29.286209	130.361010
52703		-4.881225	-0.210587	8.549441	0.009455	-0.028299	0.000696	-1.021484	-0.380615	-0.208252	-1.173279	29.270149	130.361984
52704		-4.858928	-0.165201	8.554633	0.006815	-0.036208	0.002937	-1.022217	-0.376221	-0.205811	-1.166882	29.245357	130.365574
52705		-4.761881	-0.070847	8.540260	0.003903	-0.035697	0.002856	-1.025146	-0.378174	-0.208252	-1.164070	29.225085	130.368063
52706		-4.693179	-0.105667	8.613629	-0.003955	-0.027129	-0.007443	-1.024902	-0.380859	-0.202393	-1.167232	29.205372	130.364715
52707		-4.827088	-0.234890	8.627676	-0.003351	-0.018266	-0.005852	-1.018799	-0.384033	-0.203857	-1.171461	29.194965	130.361269
52708		-4.812982	-0.265590	8.601777	-0.000979	-0.008166	-0.004164	-1.032227	-0.381592	-0.209717	-1.171990	29.186154	130.359821
52709		-4.847468	-0.223923	8.604628	-0.000623	-0.002986	-0.000116	-1.020752	-0.377197	-0.206055	-1.172928	29.184558	130.359933
52710		-4.856684	-0.244382	8.578608	0.002415	-0.001659	-0.001268	-1.033203	-0.375732	-0.199951	-1.170628	29.179507	130.360298
52711		-4.837233	-0.199446	8.582144	0.006578	0.003797	-0.000962	-1.019775	-0.381592	-0.201172	-1.167761	29.181784	130.359762
52712		-4.837765	-0.198899	8.581856	0.008594	0.008718	-0.003321	-1.024414	-0.381836	-0.203613	-1.162646	29.182654	130.358641
52713		-4.850915	-0.166419	8.583737	0.009130	0.004330	-0.011187	-1.025879	-0.388916	-0.203857	-1.161591	29.185113	130.351389
52714		-4.829344	-0.177699	8.607446	0.006324	0.006340	-0.004760	-1.034424	-0.386230	-0.199707	-1.158222	29.184604	130.349355
52715		-4.829319	-0.174111	8.558366	0.002776	0.010099	-0.011203	-1.020508	-0.379883	-0.197510	-1.160846	29.190362	130.342020
52716		-4.881592	-0.231735	8.553041	-0.000116	0.004734	-0.012756	-1.028809	-0.384766	-0.198730	-1.163716	29.188841	130.334760
52717		-4.901180	-0.276836	8.549417	0.001931	-0.002454	-0.010341	-1.021973	-0.383057	-0.207031	-1.166468	29.187415	130.328158
52718		-4.879187	-0.290338	8.597909	0.005995	-0.004722	-0.010286	-1.027588	-0.372559	-0.200195	-1.164983	29.180505	130.322646
52719		-4.895147	-0.388971	8.590796	0.016161	-0.010218	-0.014014	-1.021973	-0.380615	-0.196533	-1.160721	29.174591	130.313732
52720		-4.906519	-0.354219	8.569167	0.020849	-0.009502	-0.013847	-1.025635	-0.378906	-0.201660	-1.151832	29.164902	130.305946
52721		-4.876093	-0.285802	8.575211	0.030898	-0.016847	-0.016352	-1.024658	-0.383057	-0.202881	-1.139859	29.155169	130.295570
52722		-4.827939	-0.114547	8.540212	0.033214	-0.020015	-0.024130	-1.022949	-0.386963	-0.198486	-1.127104	29.139344	130.281173
52723		-4.683740	0.092020	8.533576	0.019779	-0.019192	-0.024523	-1.029541	-0.384521	-0.204102	-1.124095	29.128175	130.265467
52724		-4.628345	0.093266	8.559556	0.009852	-0.010011	-0.023250	-1.026855	-0.382080	-0.204834	-1.124501	29.118093	130.251519
52725		-4.724726	0.053173	8.580021	-0.002390	0.002337	-0.014199	-1.022217	-0.384766	-0.209229	-1.130982	29.119346	130.242332
52726		-4.770564	-0.113853	8.567325	-0.007968	0.000830	-0.010545	-1.024658	-0.384766	-0.203369	-1.137610	29.115616	130.236577
52727		-4.839204	-0.273043	8.579284	-0.009388	0.004782	-0.006591	-1.027100	-0.380859	-0.200439	-1.145659	29.118338	130.232364
52728		-4.884212	-0.254217	8.579924	0.000892	0.000787	-0.003821	-1.022949	-0.381592	-0.196289	-1.145065	29.114660	130.231019
52729		-4.820265	-0.229028	8.582479	-0.000030	0.005884	0.001476	-1.021240	-0.384766	-0.201904	-1.145196	29.118103	130.232077
52730		-4.833513	-0.198508	8.608841	0.006728	-0.000244	-0.003675	-1.019043	-0.380127	-0.204834	-1.141205	29.113836	130.230841
52731		-4.832752	-0.194430	8.560204	0.007484	-0.001637	0.001468	-1.027832	-0.378906	-0.210205	-1.136988	29.112962	130.231992
52732		-4.800785	-0.182949	8.586030	0.005715	-0.002873	0.001375	-1.020020	-0.382324	-0.199463	-1.131950	29.107246	130.234102
52733		-4.801007	-0.184120	8.610456	0.006335	0.000114	0.001488	-1.026367	-0.378418	-0.202148	-1.128392	29.107367	130.235245
52734		-4.800832	-0.181846	8.586027	0.004037	0.003617	0.001528	-1.028564	-0.385986	-0.199951	-1.124308	29.105371	130.237370
52735		-4.823258	-0.171635	8.586407	0.005715	-0.002874	0.001375	-1.027344	-0.385498	-0.202148	-1.121120	29.103767	130.238480
52736		-4.800725	-0.180927	8.586107	0.004188	-0.000426	-0.001177	-1.027100	-0.378174	-0.202637	-1.117787	29.099424	130.238883
52737		-4.822424	-0.167525	8.537811	0.001270	0.000090	-0.001249	-1.031006	-0.385254	-0.210449	-1.117996	29.099478	130.238237
52738		-4.822615	-0.169156	8.562245	0.002298	-0.003503	-0.000040	-1.022461	-0.380615	-0.205811	-1.115365	29.093385	130.239425
52739		-4.832397	-0.193165	8.585011	-0.000620	-0.002987	-0.000113	-1.022705	-0.385254	-0.203857	-1.116269	29.091683	130.239568
52740		-4.767213	-0.164666	8.539168	-0.002767	-0.003527	-0.002777	-1.033447	-0.380859	-0.205078	-1.117412	29.085546	130.238961
52741		-4.800083	-0.182796	8.610999	0.000272	-0.002202	-0.003934	-1.024170	-0.379639	-0.200928	-1.119023	29.084241	130.236593
52742		-4.821506	-0.169869	8.562855	-0.001996	-0.004583	-0.005369	-1.028076	-0.379395	-0.197998	-1.120543	29.077470	130.234301
52743		-4.766648	-0.167354	8.564000	-0.001497	-0.003438	-0.004027	-1.031006	-0.379150	-0.203857	-1.123184	29.075445	130.231892
52744		-4.779607	-0.137606	8.590499	-0.005322	0.002513	-0.006538	-1.027588	-0.384277	-0.199951	-1.127027	29.072726	130.228743
52745		-4.844248	-0.165337	8.612092	-0.003402	-0.000295	-0.009151	-1.032227	-0.383301	-0.201904	-1.132401	29.072428	130.222942
52746		-4.799435	-0.185418	8.611304	-0.005065	-0.000025	-0.002737	-1.021729	-0.385498	-0.191650	-1.134869	29.068298	130.222318
52747		-4.841080	-0.219199	8.583764	-0.003553	0.003748	-0.006446	-1.026367	-0.386963	-0.197998	-1.139488	29.070334	130.218242
52748		-4.809483	-0.208985	8.609346	-0.004172	0.000760	-0.006559	-1.022217	-0.374512	-0.202148	-1.142667	29.066611	130.215103
52749		-4.808762	-0.206039	8.560666	-0.003915	-0.001777	-0.002758	-1.026123	-0.382813	-0.199463	-1.146285	29.065514	130.213517
52750		-4.818834	-0.232235	8.607779	-0.000346	-0.005190	-0.004048	-1.022949	-0.387939	-0.195801	-1.146433	29.058411	130.212103
52751		-4.786571	-0.219799	8.609211	-0.002420	0.001661	0.001270	-1.024414	-0.382813	-0.196533	-1.147934	29.059319	130.213113
52752		-4.809043	-0.210139	8.609564	0.001270	0.000090	-0.001250	-1.022217	-0.392578	-0.197754	-1.146300	29.055272	130.213463
52753		-4.799561	-0.187671	8.611185	0.000346	0.005190	0.004048	-1.029297	-0.385498	-0.198975	-1.145355	29.058219	130.216248
52754		-4.831823	-0.198337	8.585217	0.002509	0.006066	-0.001023	-1.027100	-0.388672	-0.197266	-1.142976	29.057598	130.216669
52755		-4.822088	-0.174086	8.562443	0.001769	0.001236	0.000093	-1.030029	-0.383301	-0.203125	-1.142446	29.058222	130.216917
52756		-4.866499	-0.152937	8.538907	-0.000997	-0.002292	-0.002685	-1.023438	-0.386475	-0.195068	-1.142552	29.052795	130.216357
52757		-4.799312	-0.184093	8.562256	-0.002886	-0.005370	-0.001549	-1.024170	-0.385010	-0.208496	-1.145161	29.049612	130.215621
52758		-4.766768	-0.171869	8.563843	-0.003264	-0.004675	-0.004121	-1.020020	-0.393311	-0.196533	-1.147007	29.042803	130.214152
52759		-4.744478	-0.185710	8.612439	-0.003489	-0.008024	-0.009399	-1.022461	-0.386719	-0.200684	-1.152434	29.037996	130.208312
52760		-4.808362	-0.211438	8.609913	-0.001648	0.000605	-0.001322	-1.024414	-0.391113	-0.202637	-1.152498	29.034244	130.208608
52761		-4.818601	-0.235837	8.632393	-0.003947	0.004108	-0.001282	-1.021729	-0.385254	-0.198486	-1.155680	29.036460	130.207931
52762		-4.799133	-0.189478	8.611384	0.002267	0.002383	0.001436	-1.030029	-0.385010	-0.200684	-1.152635	29.033759	130.210011
52763		-4.808795	-0.209809	8.585133	0.002387	0.004225	0.000207	-1.032959	-0.380859	-0.189697	-1.151714	29.036045	130.210309
52764		-4.789689	-0.165007	8.588460	0.000619	0.002988	0.000113	-1.021729	-0.384277	-0.199463	-1.150038	29.033675	130.211514
52765		-4.812631	-0.157033	8.613087	0.001391	0.001932	-0.002479	-1.028076	-0.381348	-0.199463	-1.150521	29.034603	130.210086
52766		-4.789163	-0.161591	8.539683	-0.000224	-0.003348	-0.005278	-1.027588	-0.381348	-0.200928	-1.151002	29.028541	130.207842
52767		-4.758118	-0.154376	8.614046	0.000739	0.004829	-0.001116	-1.021484	-0.383789	-0.196777	-1.151434	29.031132	130.207275
52768		-4.777375	-0.197690	8.586092	-0.005940	-0.000478	-0.006654	-1.026855	-0.379639	-0.196777	-1.155645	29.026698	130.204093
52769		-4.787696	-0.222322	8.608520	-0.000788	0.007276	-0.003668	-1.029785	-0.384521	-0.198486	-1.157771	29.030641	130.201826
52770		-4.768697	-0.176130	8.587255	-0.001439	0.010172	-0.002305	-1.029053	-0.388916	-0.198242	-1.158089	29.032359	130.201352
52771		-4.779269	-0.198698	8.585015	-0.001439	0.010172	-0.002306	-1.021240	-0.380615	-0.200928	-1.160171	29.037958	130.199942
52772		-4.761076	-0.156025	8.612381	-0.001439	0.010171	-0.002306	-1.028564	-0.385254	-0.195313	-1.160489	29.039676	130.199467
52773		-4.758786	-0.208758	8.583553	0.000949	0.014395	-0.002100	-1.026611	-0.386475	-0.196533	-1.161156	29.047677	130.198141
52774		-4.827171	-0.179732	8.584043	0.000452	0.013248	-0.003443	-1.021973	-0.385742	-0.196777	-1.160773	29.051144	130.196880
52775		-4.806049	-0.189422	8.582945	0.000675	0.016594	0.001834	-1.031250	-0.382813	-0.204834	-1.160355	29.060435	130.198105
52776		-4.807683	-0.191175	8.606576	0.000453	0.013246	-0.003445	-1.024170	-0.387695	-0.193604	-1.159972	29.063900	130.196843
52777		-4.798604	-0.167154	8.583441	0.000211	0.009564	-0.000985	-1.029541	-0.378174	-0.195801	-1.160667	29.069117	130.196317
52778		-4.777380	-0.176949	8.582410	-0.000075	0.017980	-0.003314	-1.034912	-0.383057	-0.194580	-1.160576	29.075296	130.195077
52779		-4.769320	-0.154929	8.583256	-0.002870	0.020333	-0.004621	-1.030029	-0.385010	-0.197998	-1.164254	29.086622	130.192031
52780		-4.790469	-0.200454	8.578729	-0.009577	0.020906	-0.008689	-1.027344	-0.378174	-0.203613	-1.171340	29.094414	130.187227
52781		-4.805254	-0.171663	8.604223	-0.013487	0.019125	-0.011453	-1.024414	-0.382080	-0.197998	-1.183267	29.104948	130.179719
52782		-4.803621	-0.226326	8.574934	-0.019572	0.022680	-0.015412	-1.028320	-0.385742	-0.184814	-1.198239	29.113674	130.170479
52783		-4.818118	-0.197055	8.576004	-0.026519	0.019568	-0.017026	-1.019531	-0.385254	-0.198975	-1.219415	29.124374	130.159307
52784		-4.819790	-0.200462	8.574985	-0.029403	0.020406	-0.024848	-1.019531	-0.385742	-0.208008	-1.243024	29.131676	130.143903
52785		-4.789491	-0.193159	8.599913	-0.027346	0.013223	-0.022429	-1.027832	-0.381836	-0.200928	-1.266357	29.138652	130.129274
52786		-4.832436	-0.231520	8.595906	-0.027622	0.015416	-0.018497	-1.023926	-0.382568	-0.203125	-1.286888	29.143166	130.118099
52787		-4.834178	-0.236206	8.619418	-0.019523	0.016775	-0.016903	-1.025146	-0.385986	-0.197266	-1.304001	29.152220	130.107039
52788		-4.812789	-0.246170	8.593867	-0.014869	0.017165	-0.008988	-1.031494	-0.385254	-0.198486	-1.314204	29.157856	130.102070
52789		-4.836638	-0.238091	8.593363	-0.011951	0.016654	-0.008911	-1.021240	-0.378662	-0.208252	-1.324428	29.166925	130.096250
52790		-4.840924	-0.185070	8.596659	-0.009775	0.011321	-0.007717	-1.023193	-0.387451	-0.198730	-1.331265	29.169228	130.092202
52791		-4.851615	-0.208422	8.594223	-0.007141	0.013009	-0.003701	-1.024170	-0.384521	-0.196533	-1.337036	29.176263	130.089857
52792		-4.797787	-0.204521	8.570406	-0.009278	0.012463	-0.006374	-1.024902	-0.388672	-0.199219	-1.343169	29.179238	130.086671
52793		-4.799063	-0.207140	8.594249	-0.003694	0.007770	-0.003754	-1.017578	-0.392822	-0.199219	-1.346934	29.183255	130.084377
52794		-4.777684	-0.217230	8.593324	-0.003111	0.016628	-0.002162	-1.024170	-0.385254	-0.209717	-1.348218	29.188672	130.083889
52795		-4.833527	-0.220590	8.591384	-0.001961	0.014881	-0.002180	-1.022949	-0.379883	-0.200928	-1.350534	29.196760	130.082521
52796		-4.790036	-0.239965	8.589969	0.000671	0.016569	0.001838	-1.031738	-0.387939	-0.201904	-1.348370	29.202198	130.084659
52797		-4.801787	-0.263545	8.611556	0.008606	0.021971	0.006149	-1.024414	-0.389648	-0.202393	-1.342013	29.214440	130.088650
52798		-4.828816	-0.196520	8.590490	0.010745	0.022512	0.008820	-1.032227	-0.381836	-0.201172	-1.331883	29.223374	130.095281
52799		-4.789331	-0.160080	8.592639	0.015436	0.029446	0.002730	-1.026367	-0.383301	-0.202637	-1.322756	29.239832	130.096922
52800		-4.811161	-0.203184	8.587577	0.012852	0.028920	0.012962	-1.029297	-0.385742	-0.201416	-1.310133	29.252489	130.106180
52801		-4.778625	-0.243053	8.583711	0.016023	0.032081	0.010578	-1.029541	-0.388916	-0.197021	-1.298152	29.270535	130.112947
52802		-4.838700	-0.188223	8.560464	0.012090	0.036164	0.009273	-1.014893	-0.388428	-0.197754	-1.287194	29.287291	130.119685
52803		-4.830813	-0.160878	8.512109	0.010231	0.027216	0.008932	-1.033447	-0.381592	-0.199951	-1.279011	29.302506	130.125455
52804		-4.855920	-0.151710	8.535492	0.010886	0.024324	0.007572	-1.028564	-0.386719	-0.201172	-1.269198	29.312457	130.131256
52805		-4.822613	-0.192237	8.532085	0.009277	0.019055	0.004771	-1.026367	-0.389160	-0.203369	-1.262821	29.322930	130.134424
52806		-4.793206	-0.182104	8.581430	0.008499	0.020104	0.007358	-1.028076	-0.382324	-0.199219	-1.254411	29.330459	130.140150
52807		-4.846938	-0.239886	8.599507	0.014955	0.022062	0.007637	-1.028564	-0.382568	-0.203369	-1.243866	29.342669	130.145166
52808		-4.816945	-0.225554	8.599974	0.012250	0.025905	0.012824	-1.026855	-0.379395	-0.200684	-1.231582	29.353586	130.154406
52809		-4.840444	-0.210487	8.550390	0.017096	0.022595	0.010306	-1.029785	-0.388184	-0.196777	-1.218948	29.366111	130.161176
52810		-4.865397	-0.200463	8.573870	0.017179	0.024092	0.016809	-1.025635	-0.378906	-0.201660	-1.202536	29.376035	130.173069
52811		-4.857119	-0.174139	8.550325	0.016064	0.019968	0.015354	-1.021240	-0.391357	-0.207520	-1.188834	29.387094	130.183204
52812		-4.858650	-0.172259	8.549494	0.012811	0.015304	0.011227	-1.023438	-0.380615	-0.201660	-1.176660	29.391913	130.191554
52813		-4.818183	-0.135815	8.552241	0.009401	0.014670	0.009796	-1.024414	-0.387695	-0.202881	-1.168518	29.399854	130.198117
52814		-4.807337	-0.168386	8.573802	0.008257	0.016413	0.009806	-1.033691	-0.388184	-0.208496	-1.159416	29.405289	130.205521
52815		-4.809970	-0.170708	8.621644	0.008884	0.019387	0.009912	-1.023682	-0.379639	-0.201416	-1.151546	29.415908	130.212109
52816		-4.852448	-0.200990	8.568507	0.009927	0.022000	0.004856	-1.019531	-0.380371	-0.211670	-1.143119	29.424485	130.216186
52817		-4.867006	-0.167712	8.569522	0.010658	0.020613	0.010006	-1.026367	-0.382324	-0.204346	-1.134198	29.435782	130.222827
52818		-4.877890	-0.187093	8.542371	0.005972	0.019891	0.009819	-1.022461	-0.382080	-0.206055	-1.126417	29.443206	130.230201
52819		-4.892145	-0.154126	8.543530	0.006127	0.015863	0.007125	-1.022949	-0.381836	-0.208984	-1.120979	29.451732	130.235017
52820		-4.861094	-0.140870	8.544600	0.003521	0.008322	0.001652	-1.015381	-0.379150	-0.199951	-1.117168	29.452436	130.237168
52821		-4.848889	-0.172557	8.542303	0.001486	0.003424	0.004024	-1.030762	-0.384521	-0.204834	-1.115300	29.453787	130.240113
52822		-4.830300	-0.129509	8.570191	0.000132	0.001833	-0.001235	-1.026855	-0.385986	-0.198730	-1.114324	29.450741	130.240448
52823		-4.840224	-0.151656	8.568228	0.004039	0.003603	0.001536	-1.028809	-0.377930	-0.202148	-1.111786	29.452146	130.241760
52824		-4.796468	-0.172910	8.591946	-0.006219	0.007576	-0.001296	-1.027100	-0.390869	-0.200684	-1.114504	29.452390	130.241982
52825		-4.819431	-0.163291	8.591807	0.005447	0.005526	-0.000943	-1.024658	-0.377441	-0.202393	-1.111962	29.454843	130.241645
52826		-4.849343	-0.230162	8.585826	-0.002829	0.014063	0.001589	-1.030273	-0.377686	-0.204834	-1.111845	29.458835	130.243683
52827		-4.852850	-0.174104	8.564728	-0.000539	0.010575	0.001571	-1.024658	-0.375000	-0.199951	-1.111947	29.464183	130.244938
52828		-4.876690	-0.166152	8.588752	0.000243	0.009524	-0.001014	-1.030273	-0.380615	-0.202637	-1.110884	29.465546	130.245321
52829		-4.864162	-0.196543	8.561966	-0.001529	0.008293	-0.001112	-1.021729	-0.386230	-0.207764	-1.112397	29.469538	130.244845
52830		-4.854398	-0.172620	8.539172	-0.001012	0.003576	-0.001227	-1.029541	-0.388428	-0.194336	-1.112084	29.467492	130.245164
52831		-4.835397	-0.128148	8.542638	-0.002156	0.005319	-0.001218	-1.026123	-0.382813	-0.193604	-1.113965	29.469760	130.244661
52832		-4.823518	-0.162166	8.564830	-0.001639	0.000602	-0.001333	-1.027832	-0.383057	-0.206543	-1.114028	29.466009	130.244947
52833		-4.823639	-0.162703	8.564752	-0.007834	0.002318	-0.004088	-1.030273	-0.378174	-0.203857	-1.120058	29.466504	130.242602
52834		-4.855973	-0.176123	8.562917	-0.006062	0.003549	-0.003991	-1.027588	-0.385742	-0.208252	-1.123533	29.464411	130.241102
52835		-4.846126	-0.152712	8.540166	-0.005434	0.006522	-0.003885	-1.032471	-0.380615	-0.206055	-1.128140	29.467293	130.238843
52836		-4.834418	-0.187191	8.562244	-0.006062	0.003548	-0.003991	-1.025146	-0.388184	-0.202148	-1.131615	29.465200	130.237343
52837		-4.834693	-0.187776	8.562077	-0.003145	0.003036	-0.003902	-1.022949	-0.379150	-0.202881	-1.134883	29.466064	130.235124
52838		-4.857493	-0.178681	8.562002	-0.007988	0.006341	-0.001398	-1.022949	-0.381836	-0.204590	-1.138641	29.465600	130.235294
52839		-4.825630	-0.166943	8.563548	-0.005485	-0.000836	-0.011846	-1.026611	-0.382324	-0.203369	-1.145788	29.464134	130.227903
52840		-4.835206	-0.190185	8.561734	-0.008098	-0.001350	-0.001620	-1.028076	-0.389404	-0.199463	-1.149630	29.459262	130.228029
52841		-4.826000	-0.170341	8.587982	-0.005543	-0.001169	-0.004107	-1.034668	-0.386719	-0.196533	-1.154295	29.457669	130.225740
52842		-4.825256	-0.169298	8.563713	-0.006038	-0.002310	-0.005449	-1.027832	-0.379883	-0.200195	-1.158189	29.452203	130.223360
52843		-4.815957	-0.149514	8.590016	-0.006038	-0.002311	-0.005450	-1.017822	-0.388672	-0.199219	-1.163552	29.449916	130.220211
52844		-4.835279	-0.194911	8.586300	-0.006193	0.001713	-0.002757	-1.024170	-0.382813	-0.213623	-1.166690	29.446785	130.219549
52845		-4.835471	-0.195522	8.586178	-0.005699	0.002854	-0.001415	-1.024414	-0.382813	-0.199463	-1.170578	29.447477	130.218992
52846		-4.835897	-0.195947	8.585928	-0.002024	0.007149	-0.002453	-1.026611	-0.379639	-0.201660	-1.171264	29.447464	130.218458
52847		-4.858268	-0.184874	8.561430	-0.005072	0.005827	-0.001308	-1.020508	-0.384033	-0.202393	-1.174772	29.449837	130.217934
52848		-4.836680	-0.196440	8.585476	0.004193	-0.000419	-0.001153	-1.035400	-0.380615	-0.200928	-1.171426	29.445504	130.218357
52849		-4.848535	-0.161002	8.538647	-0.006216	0.007568	-0.001300	-1.023926	-0.382813	-0.205322	-1.175590	29.448852	130.217820
52850		-4.826939	-0.172900	8.562692	-0.002265	-0.002372	-0.001441	-1.033936	-0.389648	-0.203369	-1.176024	29.443397	130.218080
52851		-4.858917	-0.185938	8.561039	-0.003771	0.000061	-0.004010	-1.022461	-0.381348	-0.205811	-1.179602	29.442393	130.215869
52852		-4.836304	-0.196126	8.560979	-0.003253	-0.004654	-0.004126	-1.026855	-0.380127	-0.205811	-1.181455	29.435599	130.214394
52853		-4.858303	-0.186939	8.561365	-0.004530	-0.004745	-0.002883	-1.025879	-0.379395	-0.192871	-1.185063	29.431834	130.212994
52854		-4.825678	-0.174896	8.563362	-0.007710	-0.007902	-0.000504	-1.016846	-0.386963	-0.193604	-1.188277	29.423222	130.213947
52855		-4.825068	-0.175379	8.563696	0.000446	-0.006215	-0.006622	-1.025635	-0.381836	-0.201416	-1.190222	29.418551	130.210115
52856		-4.824560	-0.175730	8.563975	-0.005445	-0.005529	0.000937	-1.029053	-0.374512	-0.204590	-1.191689	29.411316	130.211983
52857		-4.814778	-0.155684	8.590567	-0.004505	-0.010603	-0.004343	-1.026367	-0.379395	-0.206055	-1.195693	29.404134	130.209717
52858		-4.823149	-0.176877	8.564746	-0.006300	-0.005979	-0.002983	-1.023682	-0.385010	-0.200684	-1.198912	29.396595	130.209015
52859		-4.841718	-0.222274	8.561423	-0.006275	-0.011837	-0.004443	-1.025635	-0.386719	-0.203613	-1.203940	29.388680	130.206709
52860		-4.843664	-0.168561	8.565968	-0.006044	-0.014363	-0.000633	-1.025879	-0.382080	-0.197998	-1.206196	29.376366	130.207669
52861		-4.819924	-0.178875	8.566520	-0.005754	-0.016556	-0.004563	-1.021240	-0.378906	-0.204834	-1.210924	29.365728	130.205357
52862		-4.808805	-0.157404	8.569190	-0.007886	-0.017098	-0.007240	-1.021484	-0.381592	-0.196289	-1.216346	29.351768	130.202014
52863		-4.774432	-0.144031	8.547474	-0.009134	-0.023051	-0.007461	-1.026367	-0.386475	-0.196533	-1.223884	29.337350	130.197900
52864		-4.806279	-0.163222	8.619872	-0.007726	-0.021128	-0.009940	-1.024170	-0.377686	-0.197998	-1.230051	29.321047	130.192844
52865		-4.813830	-0.184977	8.594507	-0.009390	-0.014670	-0.009811	-1.032471	-0.384521	-0.201660	-1.238530	29.311373	130.187082
52866		-4.821817	-0.206612	8.568901	-0.006632	-0.011154	-0.007026	-1.023682	-0.384521	-0.200928	-1.243198	29.300819	130.183805
52867		-4.798357	-0.217143	8.569254	-0.005486	-0.012897	-0.007038	-1.021973	-0.384033	-0.200195	-1.248549	29.292171	130.179847
52868		-4.821206	-0.213383	8.643151	-0.000567	-0.014699	-0.003041	-1.027588	-0.391846	-0.197754	-1.248435	29.279636	130.179241
52869		-4.809882	-0.189529	8.621300	-0.002858	-0.011215	-0.003019	-1.032227	-0.387451	-0.208740	-1.250996	29.271977	130.177903
52870		-4.753322	-0.183206	8.574590	-0.001218	-0.011816	-0.001687	-1.034912	-0.382324	-0.194580	-1.250840	29.261110	130.178145
52871		-4.743496	-0.162663	8.601189	0.004349	-0.004443	-0.003856	-1.024414	-0.387207	-0.200684	-1.249576	29.257293	130.176167
52872		-4.765160	-0.150992	8.577197	0.001640	-0.000600	0.001332	-1.022217	-0.377197	-0.202881	-1.246893	29.252889	130.178230
52873		-4.797795	-0.165548	8.599880	-0.002004	0.001293	-0.003909	-1.031006	-0.384521	-0.204834	-1.249310	29.252326	130.176144
52874		-4.816755	-0.208585	8.571699	0.000623	0.002977	0.000111	-1.019043	-0.380371	-0.201660	-1.247626	29.249956	130.177354
52875		-4.817492	-0.210408	8.595927	-0.001146	0.001743	0.000011	-1.025146	-0.382324	-0.199707	-1.248287	29.249678	130.177841
52876		-4.810914	-0.133860	8.601766	-0.000987	-0.002285	-0.002687	-1.023682	-0.377441	-0.200439	-1.248387	29.244258	130.177289
52877		-4.817208	-0.210882	8.596074	-0.004032	-0.003612	-0.001542	-1.033936	-0.375244	-0.194580	-1.251150	29.240872	130.176840
52878		-4.806709	-0.187127	8.573766	-0.002756	-0.003520	-0.002787	-1.024414	-0.381348	-0.201416	-1.252287	29.234744	130.176240
52879		-4.797126	-0.166885	8.600227	-0.001740	-0.007097	-0.001566	-1.024170	-0.381836	-0.199219	-1.253710	29.229340	130.175831
52880		-4.783953	-0.199142	8.598353	-0.002263	-0.002377	-0.001443	-1.031006	-0.384277	-0.198730	-1.254141	29.223883	130.176098
52881		-4.783907	-0.199403	8.598373	0.000547	0.001477	-0.006398	-1.019287	-0.383301	-0.197021	-1.255853	29.223306	130.172400
52882		-4.784140	-0.199475	8.598242	-0.000159	0.004028	0.002699	-1.030273	-0.378418	-0.195557	-1.253796	29.221570	130.175293
52883		-4.806383	-0.187837	8.573933	0.002392	0.004212	0.000210	-1.028809	-0.382324	-0.193604	-1.252344	29.222617	130.175898
52884		-4.766056	-0.156388	8.625942	-0.001017	0.003577	-0.001221	-1.031982	-0.383545	-0.197754	-1.252032	29.220573	130.176224
52885		-4.755851	-0.130544	8.578843	0.001011	0.008481	-0.003588	-1.027588	-0.381104	-0.206055	-1.252606	29.223993	130.174281
52886		-4.775974	-0.175497	8.574642	-0.003050	0.010731	-0.003665	-1.031738	-0.383301	-0.200195	-1.254292	29.226017	130.172901
52887		-4.787671	-0.201817	8.620905	-0.001281	0.011965	-0.003566	-1.029785	-0.381348	-0.194092	-1.256180	29.231406	130.170931
52888		-4.820812	-0.214754	8.618648	-0.002062	0.013014	-0.000978	-1.029053	-0.381836	-0.202148	-1.256455	29.234772	130.171281
52889		-4.789868	-0.202244	8.619675	0.000490	0.013198	-0.003467	-1.041992	-0.376465	-0.199707	-1.257300	29.240845	130.169361
52890		-4.812214	-0.189014	8.570636	-0.000552	0.010579	0.001587	-1.030762	-0.380859	-0.201172	-1.255871	29.242848	130.171430
52891		-4.813076	-0.189014	8.570152	0.000231	0.009529	-0.001002	-1.024170	-0.383057	-0.208252	-1.256039	29.246827	130.171187
52892		-4.835658	-0.177680	8.545616	-0.000755	0.007244	-0.003690	-1.026611	-0.395752	-0.202148	-1.256394	29.246854	130.169840
52893		-4.814875	-0.191225	8.593784	-0.003438	0.005225	0.000032	-1.030273	-0.385254	-0.202393	-1.258292	29.248364	130.170342
52894		-4.783268	-0.178733	8.595197	0.001667	0.005594	-0.004944	-1.022949	-0.383789	-0.195313	-1.257651	29.247430	130.168195
52895		-4.816483	-0.193368	8.617529	-0.001538	0.008293	-0.001102	-1.021973	-0.381104	-0.194336	-1.258835	29.250660	130.167915
52896		-4.783781	-0.177151	8.570255	-0.000653	0.002883	0.001354	-1.032715	-0.381348	-0.193848	-1.257483	29.248252	130.169942
52897		-4.816861	-0.191892	8.592656	-0.003669	0.007749	-0.003780	-1.036865	-0.386719	-0.191406	-1.260734	29.251115	130.167917
52898		-4.807062	-0.168006	8.569966	0.000131	0.001834	-0.001234	-1.025146	-0.387939	-0.194824	-1.259756	29.248074	130.168260
52899		-4.797675	-0.145832	8.571703	-0.001378	0.004267	-0.003801	-1.018799	-0.385498	-0.197021	-1.261664	29.248921	130.166278
52900		-4.786429	-0.181732	8.618065	-0.002161	0.005316	-0.001213	-1.027100	-0.385254	-0.197510	-1.262017	29.247875	130.166584
52901		-4.785604	-0.178539	8.569208	-0.004916	0.001797	-0.004001	-1.030518	-0.377441	-0.194336	-1.265985	29.247281	130.164513
52902		-4.818740	-0.195450	8.616220	-0.004393	-0.002920	-0.004122	-1.028809	-0.388672	-0.203857	-1.268491	29.241480	130.163030
52903		-4.786031	-0.181695	8.593596	-0.007047	0.001253	-0.006679	-1.027100	-0.385742	-0.197510	-1.274525	29.240519	130.159215
52904		-4.818778	-0.196976	8.616164	-0.004915	0.001796	-0.004002	-1.033936	-0.385254	-0.193848	-1.277325	29.237421	130.157743
52905		-4.785614	-0.181241	8.569146	-0.002986	-0.000994	-0.006600	-1.029785	-0.378906	-0.201904	-1.280979	29.235151	130.154019
52906		-4.785689	-0.181780	8.569093	-0.004423	0.002938	-0.002658	-1.027832	-0.377197	-0.198730	-1.283074	29.232724	130.153413
52907		-4.754388	-0.171458	8.595003	-0.004915	0.001796	-0.004002	-1.032715	-0.380127	-0.193115	-1.287010	29.232062	130.151360
52908		-4.764299	-0.194393	8.592944	-0.004292	0.004771	-0.003891	-1.029541	-0.377930	-0.199219	-1.289438	29.230669	130.149917
52909		-4.765058	-0.194782	8.592514	-0.002061	0.013007	-0.000981	-1.023682	-0.385742	-0.201416	-1.290840	29.236441	130.149688
52910		-4.799063	-0.209445	8.614387	0.000462	0.019050	-0.002004	-1.022949	-0.379883	-0.193115	-1.290043	29.243252	130.149273
52911		-4.754573	-0.224931	8.564487	0.003608	0.016018	0.001898	-1.025391	-0.384277	-0.193604	-1.287287	29.250761	130.150893
52912		-4.791946	-0.184719	8.590235	0.003087	0.020732	0.002017	-1.027100	-0.382080	-0.198242	-1.283708	29.258586	130.153094
52913		-4.784124	-0.162082	8.591131	0.002727	0.021421	-0.000563	-1.026367	-0.381836	-0.201660	-1.282277	29.269134	130.153023
52914		-4.796260	-0.185860	8.612510	0.004074	0.023011	0.004702	-1.027344	-0.386963	-0.201904	-1.277286	29.278299	130.156955
52915		-4.797655	-0.183467	8.587075	0.004075	0.023008	0.004700	-1.023682	-0.373291	-0.200439	-1.273390	29.289799	130.160326
52916		-4.789881	-0.160520	8.587952	0.006007	0.020217	0.002103	-1.026367	-0.391602	-0.196533	-1.268103	29.297331	130.162594
52917		-4.778904	-0.191982	8.584885	0.003586	0.021862	0.003352	-1.025146	-0.388916	-0.204346	-1.264898	29.308133	130.165104
52918		-4.784142	-0.137177	8.587704	0.003068	0.026572	0.003468	-1.022705	-0.382324	-0.206055	-1.260900	29.319322	130.168178
52919		-4.804882	-0.179592	8.558392	0.004867	0.021950	0.002106	-1.020508	-0.379395	-0.200684	-1.257346	29.330134	130.169878
52920		-4.785012	-0.190513	8.581514	0.004083	0.022995	0.004691	-1.031250	-0.384766	-0.198730	-1.252346	29.339289	130.173809
52921		-4.767754	-0.145264	8.584225	0.006283	0.023868	-0.000375	-1.026611	-0.378906	-0.203857	-1.248783	29.351146	130.173858
52922		-4.811569	-0.179862	8.579362	0.003862	0.025512	0.000872	-1.025635	-0.390137	-0.197998	-1.245154	29.361694	130.175246
52923		-4.822676	-0.200007	8.551933	0.003730	0.023678	0.002106	-1.026855	-0.383789	-0.203125	-1.242238	29.373449	130.176936
52924		-4.806777	-0.158446	8.603279	0.004223	0.024816	0.003447	-1.028320	-0.383789	-0.203613	-1.237567	29.383630	130.180029
52925		-4.827664	-0.200782	8.573850	0.004852	0.027783	0.003552	-1.026611	-0.377930	-0.200195	-1.233558	29.397733	130.182618
52926		-4.821002	-0.179600	8.598818	0.005998	0.026041	0.003544	-1.031494	-0.386230	-0.205811	-1.227844	29.408617	130.185760
52927		-4.821837	-0.175283	8.548940	0.005865	0.024208	0.004778	-1.025635	-0.379639	-0.199463	-1.222824	29.420665	130.189213
52928		-4.834199	-0.198858	8.570212	0.003740	0.023663	0.002095	-1.024170	-0.385010	-0.200195	-1.218853	29.430169	130.191438
52929		-4.848887	-0.166456	8.571159	0.003114	0.020692	0.001987	-1.031250	-0.379883	-0.200684	-1.216276	29.440150	130.193110
52930		-4.841433	-0.145476	8.596579	0.004774	0.014246	0.001870	-1.027588	-0.382324	-0.198975	-1.211720	29.444257	130.195320
52931		-4.819472	-0.153097	8.571517	-0.000403	0.012381	0.000327	-1.031982	-0.382080	-0.210693	-1.211623	29.449438	130.196025
