// General information: 
//  MT Manager version: 2022.2.0 
//  XDA version: 2022.2.0 build 7381 rev 124627 built on 2023-07-19
// Device information: 
//  DeviceId: 00B4C3A0
//  ProductCode: MTW2-3A7G6
//  Firmware Version: 4.6.0
//  Hardware Version: 2.0.0
// Device settings: 
//  Filter Profile: human(46.1)
//  Option Flags: Orientation Smoother Disabled, Position/Velocity Smoother Disabled, Continuous Zero Rotation Update Disabled, AHS Disabled, ICC Disabled
// Coordinate system: ENU
PacketCounter	SampleTimeFine	Acc_X	Acc_Y	Acc_Z	Gyr_X	Gyr_Y	Gyr_Z	Mag_X	Mag_Y	Mag_Z	Roll	Pitch	Yaw
56205		9.652542	-0.110862	1.765500	-0.016676	-0.030288	0.000090	-0.507568	-0.124756	0.555420	-1.380264	-80.317621	167.586368
56206		9.646924	-0.143139	1.774278	-0.019938	-0.029889	0.001105	-0.513916	-0.126221	0.553467	-1.385553	-80.337545	167.586321
56207		9.693343	-0.114222	1.722687	-0.014918	-0.023880	-0.000644	-0.508789	-0.124512	0.548828	-1.392811	-80.351593	167.590479
56208		9.678449	-0.124091	1.736664	-0.011652	-0.024282	-0.001654	-0.504639	-0.127686	0.554443	-1.383601	-80.368344	167.580541
56209		9.686660	-0.139810	1.695901	-0.011715	-0.021927	-0.000454	-0.515625	-0.120605	0.555176	-1.389401	-80.381323	167.584920
56210		9.677772	-0.117810	1.698934	-0.010748	-0.010929	-0.000459	-0.506836	-0.130615	0.553467	-1.382593	-80.390409	167.577945
56211		9.656465	-0.159561	1.726203	-0.012918	-0.004242	-0.001846	-0.503906	-0.119629	0.554932	-1.382976	-80.393228	167.576306
56212		9.648723	-0.143985	1.764400	-0.013641	-0.002014	-0.002308	-0.515869	-0.134033	0.554932	-1.370826	-80.397233	167.562232
56213		9.638204	-0.115300	1.735080	-0.018287	0.000488	-0.003416	-0.514893	-0.130371	0.555176	-1.368513	-80.397394	167.554620
56214		9.613737	-0.103026	1.756038	-0.022156	-0.000466	-0.001754	-0.505127	-0.127197	0.561768	-1.362982	-80.400504	167.542311
56215		9.590907	-0.138614	1.750287	-0.019635	0.003624	0.003782	-0.516357	-0.135010	0.557129	-1.385485	-80.398792	167.558983
56216		9.607535	-0.135968	1.768015	-0.026746	0.000809	-0.000552	-0.509033	-0.125488	0.553467	-1.386557	-80.401156	167.550702
56217		9.607523	-0.136519	1.768039	-0.028020	0.000458	0.001941	-0.512939	-0.133057	0.552246	-1.407903	-80.401232	167.561192
56218		9.607461	-0.137338	1.768312	-0.029475	0.006043	0.004528	-0.515137	-0.126709	0.555176	-1.427312	-80.400526	167.569922
56219		9.598212	-0.116209	1.773361	-0.029356	0.002460	0.005637	-0.510254	-0.125488	0.557861	-1.461760	-80.399383	167.592983
56220		9.625377	-0.142846	1.820182	-0.028631	0.000229	0.006099	-0.516357	-0.124268	0.557861	-1.486509	-80.401983	167.607620
56221		9.601205	-0.172413	1.780299	-0.033817	-0.000980	0.004443	-0.514160	-0.133545	0.556641	-1.519741	-80.402871	167.627429
56222		9.590755	-0.144634	1.750636	-0.034899	-0.008398	0.003335	-0.515137	-0.123535	0.548096	-1.539517	-80.410453	167.633381
56223		9.607593	-0.142601	1.767174	-0.033460	-0.011733	0.007763	-0.507080	-0.128174	0.545898	-1.584813	-80.417401	167.665217
56224		9.575835	-0.156644	1.764655	-0.036702	-0.013589	0.001771	-0.514893	-0.119141	0.560059	-1.600864	-80.427980	167.666343
56225		9.591428	-0.147898	1.746667	-0.035145	-0.020510	0.007302	-0.508057	-0.122559	0.553955	-1.646454	-80.440029	167.697950
56226		9.599269	-0.123818	1.767112	-0.039840	-0.016781	0.003904	-0.509033	-0.131348	0.560791	-1.671952	-80.452399	167.706833
56227		9.581524	-0.121448	1.713864	-0.041652	-0.020848	0.005845	-0.505859	-0.134033	0.550049	-1.716394	-80.464719	167.733247
56228		9.607701	-0.141821	1.724656	-0.046237	-0.019581	0.007061	-0.512207	-0.125488	0.554932	-1.756742	-80.478636	167.753470
56229		9.623320	-0.133313	1.706413	-0.051474	-0.019560	0.003112	-0.521240	-0.124268	0.553223	-1.797489	-80.490232	167.770116
56230		9.632778	-0.156731	1.699772	-0.057384	-0.017420	0.004523	-0.512207	-0.127686	0.554199	-1.835477	-80.502953	167.781469
56231		9.633102	-0.158248	1.697796	-0.055272	-0.021765	0.007103	-0.507324	-0.125977	0.556885	-1.892613	-80.515639	167.813059
56232		9.657811	-0.171990	1.674939	-0.062737	-0.012700	0.003005	-0.510498	-0.128662	0.558838	-1.928076	-80.525683	167.818742
56233		9.665581	-0.148275	1.695957	-0.064002	-0.013067	0.005512	-0.508301	-0.129639	0.557617	-1.983742	-80.533558	167.843655
56234		9.690225	-0.161953	1.673419	-0.063989	-0.014191	0.002015	-0.516846	-0.136963	0.556396	-2.016806	-80.544474	167.846179
56235		9.650718	-0.160901	1.709625	-0.060245	-0.008531	0.002771	-0.505859	-0.131836	0.549561	-2.060450	-80.549748	167.860613
56236		9.684269	-0.156147	1.743834	-0.065484	-0.007392	0.002346	-0.510986	-0.126709	0.549316	-2.094752	-80.556764	167.863523
56237		9.643364	-0.188798	1.685697	-0.068192	-0.003301	0.003955	-0.511230	-0.132813	0.561768	-2.146386	-80.559051	167.881689
56238		9.617448	-0.130976	1.733716	-0.072705	-0.004396	0.003985	-0.508545	-0.127441	0.554443	-2.190149	-80.564316	167.889995
56239		9.641922	-0.144669	1.712072	-0.068837	-0.003437	0.002326	-0.504395	-0.134277	0.552979	-2.236573	-80.566747	167.902672
56240		9.635819	-0.178233	1.723040	-0.074737	-0.001310	0.003764	-0.505615	-0.132813	0.553223	-2.280377	-80.570247	167.909839
56241		9.634405	-0.172744	1.688966	-0.068218	-0.002096	0.001714	-0.504883	-0.129395	0.568115	-2.324057	-80.571974	167.919679
56242		9.684636	-0.205466	1.680321	-0.067070	0.004070	0.005171	-0.511719	-0.128418	0.558105	-2.367592	-80.572359	167.931028
56243		9.676943	-0.231832	1.658283	-0.062054	0.008994	-0.000074	-0.507568	-0.135010	0.561768	-2.400073	-80.567800	167.933835
56244		9.653821	-0.227730	1.713966	-0.054879	0.008332	-0.000475	-0.505371	-0.136963	0.556396	-2.416549	-80.565879	167.924834
56245		9.670402	-0.225659	1.732130	-0.056138	0.006851	-0.001483	-0.509277	-0.138428	0.544678	-2.440981	-80.562592	167.922204
56246		9.635432	-0.225406	1.663827	-0.052224	0.007680	0.002662	-0.510254	-0.135742	0.551514	-2.466830	-80.560969	167.924247
56247		9.601739	-0.192290	1.690774	-0.056190	0.009188	-0.000248	-0.507324	-0.134766	0.548340	-2.495256	-80.556216	167.925428
56248		9.618251	-0.190489	1.709306	-0.054323	0.013119	0.003656	-0.504395	-0.132080	0.553467	-2.524897	-80.551454	167.930095
56249		9.608895	-0.169806	1.715448	-0.050349	0.011599	0.006582	-0.520264	-0.138428	0.548096	-2.573003	-80.545238	167.955027
56250		9.640658	-0.158427	1.717960	-0.052995	0.013337	0.006991	-0.516357	-0.135986	0.554932	-2.613260	-80.540264	167.971228
56251		9.625153	-0.170052	1.735178	-0.050944	0.010228	0.007238	-0.518311	-0.132813	0.552002	-2.664231	-80.534639	167.998589
56252		9.624965	-0.171764	1.736056	-0.052209	0.009847	0.009743	-0.514893	-0.132324	0.552002	-2.713980	-80.531584	168.024871
56253		9.578965	-0.203715	1.784964	-0.048054	0.001292	0.009002	-0.511475	-0.128662	0.547607	-2.770729	-80.531065	168.060235
56254		9.569967	-0.223012	1.728519	-0.047385	0.000304	0.007150	-0.503662	-0.133789	0.549072	-2.810377	-80.533536	168.079077
56255		9.563817	-0.256467	1.739264	-0.041421	-0.004166	0.004489	-0.515625	-0.141602	0.552734	-2.848622	-80.536382	168.099504
56256		9.618691	-0.209695	1.747056	-0.042254	0.001657	0.002987	-0.509033	-0.148438	0.550293	-2.870836	-80.538193	168.103651
56257		9.620240	-0.257691	1.719090	-0.038225	-0.002208	0.004680	-0.514893	-0.131836	0.554443	-2.907494	-80.539853	168.123195
56258		9.595874	-0.246492	1.739939	-0.034301	-0.004663	-0.001738	-0.509521	-0.129883	0.555664	-2.910034	-80.545418	168.112017
56259		9.626527	-0.226734	1.707287	-0.032433	-0.001831	-0.001350	-0.507813	-0.133057	0.553711	-2.922767	-80.547081	168.112105
56260		9.618870	-0.212327	1.745748	-0.027137	-0.005314	-0.002161	-0.503906	-0.128418	0.546631	-2.919862	-80.553031	168.099568
56261		9.608486	-0.183367	1.716345	-0.021731	-0.011299	0.001615	-0.511719	-0.131104	0.550537	-2.938221	-80.560097	168.111425
56262		9.632962	-0.156327	1.755537	-0.023657	-0.011793	0.002457	-0.509033	-0.137451	0.550537	-2.950366	-80.569619	168.116166
56263		9.624175	-0.174532	1.697848	-0.017763	-0.012822	0.004526	-0.512939	-0.134033	0.552002	-2.976798	-80.577405	168.138256
56264		9.657766	-0.169732	1.731930	-0.017220	-0.009118	0.005116	-0.518555	-0.140137	0.555176	-2.993994	-80.585317	168.151855
56265		9.648943	-0.188169	1.674312	-0.017047	-0.013967	0.008479	-0.510986	-0.142822	0.547852	-3.033962	-80.593581	168.187956
56266		9.649145	-0.189120	1.673040	-0.008680	-0.011887	0.006774	-0.508057	-0.131592	0.557373	-3.052575	-80.603024	168.207952
56267		9.676559	-0.216417	1.718139	-0.009456	-0.008402	0.004049	-0.505127	-0.128906	0.553467	-3.071807	-80.608329	168.227336
56268		9.649420	-0.190459	1.671303	-0.011442	-0.006552	0.006117	-0.507324	-0.135010	0.551025	-3.088801	-80.614738	168.244086
56269		9.658599	-0.213105	1.665645	-0.010292	-0.002573	0.002550	-0.510498	-0.133545	0.559326	-3.102260	-80.616809	168.257566
56270		9.632772	-0.194151	1.653226	-0.005896	0.002117	0.001457	-0.508057	-0.136230	0.559814	-3.098341	-80.618401	168.256340
56271		9.672371	-0.196127	1.616242	-0.002823	0.007678	0.000569	-0.516602	-0.137939	0.559326	-3.098704	-80.614674	168.260788
56272		9.719438	-0.173318	1.602888	0.001393	0.019395	0.003155	-0.508057	-0.135986	0.553467	-3.093251	-80.606329	168.262240
56273		9.677961	-0.164181	1.608822	0.007661	0.025831	-0.001071	-0.510010	-0.136475	0.548096	-3.078546	-80.592217	168.257279
56274		9.741582	-0.177880	1.553087	0.009348	0.035689	0.002997	-0.507080	-0.133545	0.557129	-3.064991	-80.574555	168.255139
56275		9.727080	-0.195459	1.606595	0.015730	0.039615	0.003365	-0.514893	-0.137939	0.549805	-3.058365	-80.552475	168.263099
56276		9.676181	-0.164187	1.619494	0.018868	0.042829	0.001260	-0.502197	-0.138184	0.547363	-3.032142	-80.530780	168.253645
56277		9.685963	-0.193406	1.652234	0.025367	0.043158	0.002700	-0.505127	-0.135986	0.559570	-3.017032	-80.506689	168.258221
56278		9.660814	-0.181329	1.677633	0.032584	0.041254	0.004574	-0.513184	-0.133057	0.554443	-2.994697	-80.485795	168.260676
56279		9.629447	-0.201421	1.713876	0.028679	0.041518	0.003966	-0.510498	-0.134766	0.554443	-2.982343	-80.462669	168.270439
56280		9.602955	-0.181945	1.705395	0.029349	0.040533	0.002112	-0.509521	-0.131348	0.555176	-2.953682	-80.442260	168.264600
56281		9.562512	-0.179846	1.746268	0.026992	0.032742	0.003431	-0.510254	-0.130371	0.555664	-2.942053	-80.424162	168.274179
56282		9.606390	-0.102528	1.729032	0.024408	0.032138	0.002614	-0.508057	-0.127441	0.547363	-2.919484	-80.408542	168.271646
56283		9.566032	-0.100486	1.769220	0.021937	0.027942	0.002863	-0.506836	-0.134033	0.559082	-2.909667	-80.393215	168.280395
56284		9.556498	-0.078334	1.776533	0.019636	0.017814	0.002952	-0.519043	-0.135498	0.556396	-2.893482	-80.385782	168.281564
56285		9.530513	-0.059219	1.765176	0.014131	0.006817	0.006370	-0.517090	-0.128418	0.550293	-2.903479	-80.382431	168.305462
56286		9.498138	-0.032883	1.825374	0.008576	-0.002929	0.007494	-0.512695	-0.133301	0.553223	-2.912525	-80.386735	168.325794
56287		9.472607	-0.014172	1.811620	-0.008415	-0.022482	0.004140	-0.508545	-0.131592	0.548584	-2.932981	-80.400154	168.347443
56288		9.439750	-0.020595	1.774079	-0.014152	-0.025204	0.008944	-0.506592	-0.136719	0.544434	-2.963915	-80.417158	168.376765
56289		9.504616	-0.035805	1.712523	-0.024110	-0.039635	0.011156	-0.520996	-0.130615	0.554443	-3.020143	-80.440247	168.425063
56290		9.499104	-0.069262	1.719441	-0.029158	-0.045524	0.007067	-0.507568	-0.136719	0.559082	-3.057259	-80.468927	168.451932
56291		9.542616	-0.126541	1.683199	-0.034759	-0.054027	0.005912	-0.514893	-0.132568	0.556152	-3.104858	-80.500368	168.485632
56292		9.552710	-0.149758	1.672339	-0.039640	-0.064766	0.005196	-0.508545	-0.144775	0.557373	-3.145616	-80.540107	168.510098
56293		9.573384	-0.202186	1.689298	-0.041493	-0.068699	0.001307	-0.505127	-0.135986	0.551270	-3.184422	-80.580111	168.530490
56294		9.564164	-0.173636	1.653468	-0.041740	-0.081948	0.001650	-0.511963	-0.129883	0.547363	-3.217983	-80.629788	168.546437
56295		9.565576	-0.174433	1.645192	-0.038907	-0.089644	0.001110	-0.505371	-0.132813	0.558594	-3.259323	-80.681772	168.571286
56296		9.551810	-0.185220	1.652426	-0.036791	-0.095108	0.000140	-0.513916	-0.129150	0.557861	-3.287970	-80.739023	168.585121
56297		9.584042	-0.165890	1.610154	-0.037513	-0.112246	0.005728	-0.505127	-0.142334	0.552490	-3.350172	-80.803809	168.632310
56298		9.578293	-0.152491	1.638220	-0.041341	-0.113257	0.007461	-0.512451	-0.138428	0.558594	-3.412047	-80.871188	168.677158
56299		9.578659	-0.146744	1.593051	-0.044808	-0.125070	0.012413	-0.510498	-0.132080	0.560547	-3.506609	-80.943033	168.751942
56300		9.547373	-0.114819	1.607379	-0.052960	-0.133129	0.014052	-0.504883	-0.140869	0.562256	-3.605358	-81.021521	168.827366
56301		9.570415	-0.113995	1.505759	-0.051005	-0.132672	0.013265	-0.501221	-0.127686	0.566895	-3.711238	-81.097680	168.910492
56302		9.593642	-0.073752	1.466226	-0.042068	-0.125830	0.015678	-0.510498	-0.133545	0.564941	-3.811050	-81.171891	168.993277
56303		9.623080	-0.102601	1.500059	-0.040243	-0.121763	0.013806	-0.498535	-0.131348	0.557129	-3.913233	-81.241794	169.079522
56304		9.650810	-0.123962	1.500298	-0.038227	-0.122560	0.015298	-0.493652	-0.134277	0.573975	-4.011652	-81.314105	169.163092
56305		9.710548	-0.132462	1.501861	-0.041043	-0.115978	0.012403	-0.497070	-0.126953	0.565430	-4.110242	-81.380839	169.244882
56306		9.738192	-0.153527	1.502631	-0.040494	-0.113376	0.009508	-0.503174	-0.126465	0.565674	-4.188418	-81.448100	169.306636
56307		9.784639	-0.179348	1.554738	-0.040654	-0.107449	0.009700	-0.496826	-0.136719	0.552002	-4.276850	-81.509964	169.378988
56308		9.778259	-0.205264	1.521538	-0.036950	-0.103952	0.003424	-0.507813	-0.141357	0.566650	-4.329038	-81.572077	169.416501
56309		9.761864	-0.162145	1.522333	-0.033073	-0.101900	0.005258	-0.492676	-0.140137	0.562256	-4.396079	-81.630842	169.470341
56310		9.781261	-0.207208	1.501855	-0.026870	-0.092024	0.005722	-0.497314	-0.133789	0.568848	-4.449266	-81.686029	169.514688
56311		9.782569	-0.207955	1.493203	-0.023288	-0.083823	0.001869	-0.499023	-0.131836	0.566650	-4.493255	-81.734744	169.551152
56312		9.749571	-0.213981	1.451318	-0.019219	-0.065051	0.008063	-0.492920	-0.134766	0.570068	-4.544040	-81.774407	169.597491
56313		9.767470	-0.212322	1.462786	-0.010520	-0.053290	0.006983	-0.512695	-0.139160	0.565918	-4.592318	-81.805436	169.646090
56314		9.775020	-0.227815	1.418942	-0.010129	-0.042541	0.011228	-0.495850	-0.143799	0.566895	-4.644088	-81.832086	169.698679
56315		9.734524	-0.219784	1.419895	-0.007855	-0.032371	0.011084	-0.498535	-0.143066	0.572266	-4.701002	-81.850824	169.756839
56316		9.769056	-0.215791	1.451649	-0.002264	-0.023842	0.012148	-0.504395	-0.128906	0.569580	-4.746374	-81.866739	169.807511
56317		9.743331	-0.197725	1.437762	-0.002958	-0.020521	0.015241	-0.490479	-0.140625	0.566162	-4.813661	-81.878578	169.879532
56318		9.807706	-0.173843	1.437620	-0.002331	-0.018073	0.018114	-0.498047	-0.137451	0.574951	-4.881403	-81.890896	169.952759
56319		9.798918	-0.153442	1.442021	-0.003460	-0.004988	0.014452	-0.498291	-0.136230	0.567383	-4.940596	-81.893988	170.015937
56320		9.757900	-0.145683	1.446712	-0.004422	0.005562	0.015388	-0.496094	-0.133545	0.566406	-4.990637	-81.892929	170.070072
56321		9.740625	-0.149564	1.430594	-0.004906	0.017672	0.009856	-0.498047	-0.132080	0.571533	-5.024389	-81.883244	170.107031
56322		9.703530	-0.156616	1.504414	-0.001093	0.022089	0.012863	-0.494629	-0.141602	0.570801	-5.056486	-81.872869	170.144968
56323		9.697092	-0.189857	1.517477	-0.003849	0.024025	0.007484	-0.493652	-0.135498	0.569092	-5.077610	-81.859724	170.169675
56324		9.662509	-0.195747	1.485610	-0.006027	0.030754	0.006200	-0.500244	-0.144531	0.572510	-5.082730	-81.844737	170.177508
56325		9.653821	-0.220861	1.466226	-0.007692	0.040121	0.001970	-0.503418	-0.135254	0.576172	-5.078199	-81.822683	170.173806
56326		9.659254	-0.188885	1.459696	-0.010592	0.049090	0.000263	-0.501953	-0.134277	0.556152	-5.055927	-81.797533	170.151322
56327		9.669460	-0.218830	1.492715	-0.002866	0.053227	0.003849	-0.501953	-0.132324	0.573242	-5.051732	-81.767812	170.151172
56328		9.698671	-0.199089	1.465438	-0.006197	0.058287	0.007390	-0.500000	-0.146484	0.571533	-5.052007	-81.737053	170.154013
56329		9.699008	-0.160902	1.532849	-0.002151	0.054394	0.009042	-0.503174	-0.137451	0.573486	-5.067159	-81.706489	170.173540
56330		9.666069	-0.174462	1.537227	-0.003545	0.056529	0.006972	-0.497803	-0.131592	0.567383	-5.064819	-81.676754	170.175273
56331		9.652103	-0.192991	1.592499	-0.002816	0.054281	0.007409	-0.504639	-0.132568	0.570557	-5.073892	-81.646349	170.188624
56332		9.637284	-0.164898	1.675742	-0.003955	0.049193	0.007483	-0.495605	-0.131348	0.560547	-5.076252	-81.620775	170.194872
56333		9.576591	-0.151303	1.633540	-0.001731	0.040120	0.007544	-0.498535	-0.136719	0.568115	-5.089956	-81.598429	170.213630
56334		9.567901	-0.176740	1.614290	0.001710	0.034862	0.009838	-0.496582	-0.137207	0.568848	-5.102997	-81.580913	170.233956
56335		9.563509	-0.162599	1.550443	-0.002172	0.036210	0.012792	-0.514648	-0.130615	0.565430	-5.138107	-81.560586	170.273724
56336		9.642996	-0.174757	1.511870	-0.001822	0.044796	0.010012	-0.497070	-0.133789	0.567383	-5.150210	-81.537389	170.291058
56337		9.657312	-0.165473	1.500538	-0.008740	0.057644	0.006669	-0.498779	-0.143066	0.561523	-5.158079	-81.505040	170.299874
56338		9.656394	-0.166445	1.506331	-0.012071	0.062698	0.010214	-0.499023	-0.133789	0.564941	-5.170477	-81.471617	170.311571
56339		9.722325	-0.196399	1.519959	-0.014056	0.063462	0.008790	-0.499756	-0.135254	0.562012	-5.186993	-81.435924	170.325469
56340		9.721268	-0.197500	1.526561	-0.009763	0.072838	0.010130	-0.499756	-0.126953	0.565674	-5.194069	-81.396718	170.333123
56341		9.770029	-0.230020	1.524250	-0.006737	0.080741	0.010464	-0.509766	-0.132080	0.567383	-5.206672	-81.351093	170.347872
56342		9.785680	-0.228556	1.549580	-0.008715	0.081501	0.009047	-0.506592	-0.137207	0.565674	-5.205994	-81.307000	170.348293
56343		9.798855	-0.258495	1.479255	-0.011225	0.079625	0.010565	-0.500000	-0.139648	0.563965	-5.221680	-81.261947	170.363405
56344		9.773508	-0.247742	1.508668	-0.015790	0.079789	0.008346	-0.510010	-0.124268	0.560791	-5.222958	-81.218867	170.361703
56345		9.770605	-0.241321	1.482859	-0.019670	0.081125	0.011310	-0.506348	-0.123047	0.563965	-5.245454	-81.172961	170.378908
56346		9.770914	-0.250469	1.524934	-0.011511	0.092548	0.014505	-0.508545	-0.129150	0.564453	-5.262409	-81.122278	170.395552
56347		9.752559	-0.254571	1.516848	-0.012378	0.100714	0.014285	-0.504639	-0.134277	0.562744	-5.284683	-81.065051	170.417214
56348		9.725140	-0.236382	1.515076	-0.009459	0.111134	0.010074	-0.504883	-0.131104	0.561523	-5.277864	-81.003997	170.410986
56349		9.730792	-0.251853	1.487252	-0.005808	0.120380	0.009826	-0.510010	-0.138184	0.552734	-5.273342	-80.935833	170.408791
56350		9.731487	-0.307310	1.504838	-0.004174	0.133797	0.012916	-0.505371	-0.131348	0.564209	-5.266341	-80.861700	170.405442
56351		9.755054	-0.328283	1.530596	-0.003802	0.145739	0.015000	-0.510498	-0.136963	0.549805	-5.270730	-80.778777	170.413253
56352		9.809079	-0.329107	1.525486	-0.002103	0.156801	0.016886	-0.513672	-0.130859	0.552246	-5.269064	-80.691311	170.416511
56353		9.814203	-0.345013	1.502324	-0.001060	0.166687	0.013597	-0.512451	-0.128418	0.561768	-5.260272	-80.596459	170.412537
56354		9.802569	-0.363161	1.462792	0.000500	0.182596	0.012179	-0.507568	-0.138916	0.555664	-5.233018	-80.494522	170.391369
56355		9.796003	-0.302258	1.442457	0.006029	0.195878	0.010152	-0.512695	-0.137207	0.551514	-5.199989	-80.383314	170.367038
56356		9.840568	-0.280072	1.448334	0.012136	0.211775	0.005237	-0.519287	-0.132080	0.546143	-5.135314	-80.265079	170.314658
56357		9.786869	-0.209921	1.540650	0.010549	0.225681	0.003705	-0.510254	-0.136230	0.551514	-5.071468	-80.137116	170.261491
56358		9.757215	-0.151502	1.612627	0.002641	0.233335	0.000541	-0.515869	-0.129395	0.549316	-4.993661	-80.006792	170.190215
56359		9.712077	-0.173600	1.543189	0.003265	0.237994	0.004871	-0.519043	-0.134521	0.549805	-4.937347	-79.871825	170.140539
56360		9.674615	-0.140104	1.592812	-0.009102	0.243286	0.003996	-0.518066	-0.130371	0.548096	-4.877986	-79.735624	170.081112
56361		9.639406	-0.160761	1.647712	-0.007672	0.241249	0.000432	-0.522217	-0.139160	0.545166	-4.815999	-79.598989	170.019308
56362		9.578587	-0.161866	1.689565	-0.018604	0.240817	0.002649	-0.515381	-0.122559	0.542480	-4.761643	-79.464241	169.959382
56363		9.584943	-0.223229	1.644880	-0.022808	0.230334	-0.002225	-0.523926	-0.132080	0.541992	-4.705954	-79.333969	169.895156
56364		9.628382	-0.192834	1.620416	-0.024201	0.238278	-0.003904	-0.516846	-0.131104	0.542236	-4.638615	-79.200955	169.818700
56365		9.658093	-0.210936	1.780996	-0.028913	0.250171	-0.005568	-0.525146	-0.139404	0.544678	-4.574783	-79.059519	169.742520
56366		9.606075	-0.241192	1.851758	-0.034000	0.251405	-0.011648	-0.531494	-0.138184	0.541260	-4.490880	-78.919323	169.643398
56367		9.529071	-0.267030	1.976175	-0.033718	0.243073	-0.012965	-0.521973	-0.134766	0.537354	-4.413711	-78.782211	169.550363
56368		9.476655	-0.296510	2.045023	-0.031337	0.230808	-0.023465	-0.536377	-0.130615	0.533447	-4.303471	-78.654240	169.425849
56369		9.462770	-0.265282	2.037962	-0.025982	0.224737	-0.019547	-0.529053	-0.130615	0.535645	-4.211634	-78.527812	169.322653
56370		9.449098	-0.241834	2.063937	-0.022522	0.218384	-0.020657	-0.531494	-0.138672	0.535156	-4.111624	-78.406741	169.213624
56371		9.437905	-0.264938	2.060906	-0.023018	0.213369	-0.018905	-0.532959	-0.136475	0.527100	-4.026242	-78.286754	169.118577
56372		9.465678	-0.243276	2.050126	-0.019633	0.208087	-0.016486	-0.530029	-0.134521	0.531494	-3.942007	-78.171335	169.027259
56373		9.470548	-0.272017	2.098037	-0.019454	0.200866	-0.014357	-0.533203	-0.133789	0.534424	-3.872696	-78.058251	168.950539
56374		9.456656	-0.264664	2.189066	-0.019969	0.195870	-0.012641	-0.531250	-0.131348	0.530029	-3.804312	-77.949622	168.875153
56375		9.452704	-0.256320	2.173860	-0.012855	0.194960	-0.007004	-0.534912	-0.134277	0.523193	-3.754473	-77.839663	168.822438
56376		9.445877	-0.209389	2.219998	-0.010559	0.180055	-0.007264	-0.536133	-0.126953	0.529053	-3.699935	-77.739845	168.766674
56377		9.393014	-0.247814	2.315452	-0.011708	0.167637	0.000533	-0.538330	-0.139648	0.524658	-3.675529	-77.645164	168.740713
56378		9.378222	-0.163673	2.296311	-0.007892	0.146224	-0.006077	-0.533691	-0.138184	0.526123	-3.629598	-77.564632	168.695288
56379		9.391282	-0.153240	2.294143	-0.006985	0.129704	-0.001677	-0.537109	-0.135010	0.527100	-3.603631	-77.491735	168.669901
56380		9.372829	-0.155732	2.286938	-0.009878	0.112413	-0.001548	-0.536133	-0.140869	0.522217	-3.576856	-77.430365	168.642908
56381		9.361116	-0.133829	2.301715	-0.010898	0.097935	-0.000937	-0.544678	-0.135742	0.535156	-3.560587	-77.375617	168.625233
56382		9.369009	-0.148254	2.271498	-0.013806	0.080661	-0.000845	-0.538086	-0.136475	0.521729	-3.543292	-77.332375	168.605638
56383		9.377286	-0.162750	2.239935	-0.012955	0.068998	0.000244	-0.540283	-0.134033	0.517822	-3.536031	-77.294128	168.596228
56384		9.400839	-0.182719	2.259329	-0.014627	0.053184	0.001405	-0.538330	-0.138428	0.525635	-3.529382	-77.266519	168.587060
56385		9.348589	-0.159605	2.303337	-0.018157	0.035830	-0.000218	-0.541748	-0.134277	0.519775	-3.529124	-77.247239	168.581656
56386		9.348657	-0.152194	2.272300	-0.024321	0.020199	-0.001462	-0.541260	-0.132813	0.517334	-3.525962	-77.238594	168.570366
56387		9.332081	-0.162847	2.288360	-0.025292	0.003438	-0.002194	-0.532227	-0.134521	0.517090	-3.529908	-77.237861	168.565262
56388		9.395924	-0.137943	2.295460	-0.030963	-0.006225	-0.001456	-0.542480	-0.147217	0.520020	-3.534686	-77.244327	168.558211
56389		9.457460	-0.176218	2.215974	-0.034681	-0.015395	-0.001495	-0.540527	-0.133789	0.513672	-3.548472	-77.254397	168.557128
56390		9.484255	-0.180706	2.160377	-0.031887	-0.026555	-0.001211	-0.542480	-0.133789	0.528076	-3.557590	-77.272480	168.553984
56391		9.499792	-0.186632	2.209821	-0.035620	-0.030902	-0.004489	-0.540771	-0.124512	0.522705	-3.566986	-77.291496	168.548479
56392		9.516139	-0.184828	2.225220	-0.038867	-0.035369	-0.000268	-0.540039	-0.131592	0.526123	-3.583917	-77.314586	168.549244
56393		9.526352	-0.207819	2.216307	-0.032290	-0.045756	0.004272	-0.541260	-0.139160	0.523438	-3.616208	-77.341830	168.569654
56394		9.511769	-0.211301	2.193101	-0.032850	-0.049423	0.003579	-0.538818	-0.134766	0.524658	-3.641871	-77.372816	168.582903
56395		9.512892	-0.212383	2.188121	-0.031483	-0.053856	0.004371	-0.537109	-0.138428	0.519287	-3.675264	-77.404681	168.604243
56396		9.507168	-0.245830	2.192603	-0.029435	-0.060504	0.005553	-0.541992	-0.138916	0.526855	-3.706081	-77.441927	168.624773
56397		9.524754	-0.236723	2.171688	-0.026185	-0.062136	0.006853	-0.539551	-0.131836	0.525635	-3.744447	-77.478420	168.654181
56398		9.503481	-0.272498	2.157030	-0.024159	-0.063954	0.004796	-0.544434	-0.129150	0.525879	-3.771193	-77.517662	168.673632
56399		9.562910	-0.264476	2.100502	-0.015645	-0.069024	0.005305	-0.531738	-0.132568	0.531250	-3.801294	-77.558130	168.701441
56400		9.545165	-0.229370	2.137901	-0.012581	-0.062474	0.008201	-0.546631	-0.139160	0.521973	-3.830294	-77.596391	168.729986
56401		9.597517	-0.253461	2.091558	-0.012397	-0.064566	0.001109	-0.536377	-0.140869	0.527100	-3.846994	-77.634506	168.745546
56402		9.614044	-0.259688	2.137635	-0.006107	-0.060905	0.007545	-0.539795	-0.143555	0.528076	-3.870602	-77.671892	168.772360
56403		9.640815	-0.271996	2.111573	-0.000188	-0.061728	0.003908	-0.532471	-0.143066	0.519531	-3.887173	-77.708292	168.794463
56404		9.617031	-0.252801	2.092483	0.004192	-0.056033	0.006594	-0.541260	-0.135986	0.526367	-3.901778	-77.742926	168.818096
56405		9.650028	-0.240861	2.090950	0.007188	-0.047170	0.010761	-0.535645	-0.133301	0.522461	-3.929843	-77.770698	168.856392
56406		9.642056	-0.212154	2.058323	-0.000855	-0.038664	0.016801	-0.532715	-0.138184	0.522949	-3.971387	-77.794996	168.904623
56407		9.639956	-0.167739	2.083828	-0.007633	-0.027443	0.021660	-0.531738	-0.132568	0.523193	-4.033507	-77.811078	168.969315
56408		9.624183	-0.180402	2.096854	-0.011130	-0.015319	0.023263	-0.535156	-0.135986	0.523926	-4.094009	-77.821751	169.030913
56409		9.582368	-0.189789	2.164633	-0.017854	-0.007670	0.029104	-0.541260	-0.141602	0.526611	-4.178193	-77.826214	169.112285
56410		9.518592	-0.217995	2.156976	-0.019020	-0.010161	0.024468	-0.535156	-0.130127	0.531982	-4.245598	-77.833856	169.176316
56411		9.568390	-0.268286	2.216170	-0.027425	-0.012239	0.025957	-0.528320	-0.134033	0.530029	-4.327950	-77.841015	169.250200
56412		9.616716	-0.248673	2.203295	-0.028818	-0.010341	0.029716	-0.539063	-0.135010	0.533691	-4.415103	-77.848492	169.328686
56413		9.575715	-0.242737	2.203847	-0.030698	-0.013148	0.029226	-0.527832	-0.139648	0.532227	-4.508353	-77.856063	169.411897
56414		9.536643	-0.299049	2.242411	-0.028634	-0.018536	0.028132	-0.533691	-0.133789	0.529785	-4.593148	-77.868241	169.488075
56415		9.523483	-0.358775	2.226527	-0.020682	-0.026011	0.025642	-0.540283	-0.134766	0.527100	-4.674068	-77.883301	169.564318
56416		9.485412	-0.398270	2.196881	-0.023783	-0.027726	0.019530	-0.540039	-0.136963	0.526611	-4.735542	-77.901088	169.619478
56417		9.466988	-0.372420	2.270957	-0.016971	-0.042531	0.015640	-0.532959	-0.129639	0.532227	-4.791881	-77.925844	169.672817
56418		9.425118	-0.302013	2.229472	-0.022288	-0.061210	0.005456	-0.529541	-0.132568	0.525146	-4.822792	-77.963403	169.697590
56419		9.392119	-0.269025	2.248423	-0.021917	-0.076330	0.000011	-0.532715	-0.138184	0.519287	-4.848214	-78.008323	169.716731
56420		9.362606	-0.266002	2.170094	-0.020381	-0.090242	0.001483	-0.535889	-0.134033	0.536621	-4.874338	-78.062644	169.737719
56421		9.355450	-0.244420	2.166550	-0.018930	-0.095733	-0.001268	-0.541016	-0.136230	0.528076	-4.899327	-78.118630	169.757781
56422		9.382813	-0.256268	2.137163	-0.009834	-0.095892	-0.002363	-0.531250	-0.133789	0.539795	-4.910662	-78.176362	169.769823
56423		9.467358	-0.267092	2.090743	-0.011188	-0.091467	-0.003114	-0.532715	-0.142822	0.530029	-4.925551	-78.230012	169.784302
56424		9.537634	-0.350637	2.098238	-0.009410	-0.082787	-0.002300	-0.531738	-0.130127	0.531250	-4.933945	-78.280258	169.793583
56425		9.614812	-0.393792	2.063027	-0.004439	-0.072159	-0.001214	-0.524414	-0.136230	0.535156	-4.945748	-78.322793	169.808642
56426		9.707813	-0.434412	2.046440	-0.002360	-0.075016	-0.006839	-0.528809	-0.130615	0.540039	-4.935802	-78.368827	169.803320
56427		9.766609	-0.424811	1.988661	0.005235	-0.066106	-0.006177	-0.528809	-0.135254	0.530518	-4.926963	-78.408282	169.803270
56428		9.783833	-0.421729	2.000974	0.009637	-0.057867	-0.008068	-0.532959	-0.139893	0.538574	-4.902468	-78.444586	169.790115
56429		9.796399	-0.318039	2.037997	0.006325	-0.055199	-0.005764	-0.518799	-0.135742	0.535645	-4.891393	-78.477696	169.788053
56430		9.722052	-0.282524	2.094025	0.001815	-0.058833	-0.001279	-0.535400	-0.133057	0.532715	-4.890499	-78.514219	169.794412
56431		9.689028	-0.240884	2.080465	-0.001438	-0.061019	0.004285	-0.527832	-0.131592	0.536865	-4.913602	-78.550196	169.822895
56432		9.637767	-0.147745	2.043736	-0.015021	-0.063240	0.007662	-0.525146	-0.133301	0.532471	-4.948839	-78.588794	169.856272
56433		9.613744	-0.129138	2.025363	-0.020512	-0.048010	0.009089	-0.525635	-0.138428	0.533691	-4.993683	-78.617100	169.895930
56434		9.623782	-0.144678	1.981911	-0.023194	-0.046526	0.015338	-0.526367	-0.134521	0.535645	-5.051713	-78.645763	169.947773
56435		9.658700	-0.172404	1.918747	-0.028744	-0.028982	0.018047	-0.526855	-0.135254	0.538818	-5.122237	-78.662740	170.008470
56436		9.702495	-0.246557	1.952511	-0.027100	-0.013112	0.016841	-0.523438	-0.135254	0.534180	-5.178692	-78.672235	170.056418
56437		9.704826	-0.302883	1.956347	-0.033103	-0.001307	0.011759	-0.526855	-0.136230	0.544189	-5.226898	-78.673755	170.091933
56438		9.697934	-0.344982	1.999829	-0.043495	0.003519	0.006329	-0.527344	-0.137939	0.531982	-5.258559	-78.674296	170.105013
56439		9.764063	-0.375473	2.010961	-0.046811	0.011290	-0.000448	-0.515137	-0.137695	0.534668	-5.276531	-78.669258	170.101592
56440		9.763752	-0.367744	1.978668	-0.053949	0.018305	-0.011429	-0.529785	-0.141113	0.537598	-5.259747	-78.662296	170.059155
56441		9.795385	-0.330713	1.882550	-0.052630	0.016161	-0.009359	-0.522949	-0.138916	0.534912	-5.254352	-78.655002	170.028272
56442		9.774459	-0.240318	1.924922	-0.060118	0.039581	-0.017156	-0.524170	-0.141113	0.535400	-5.219384	-78.636196	169.963680
56443		9.714223	-0.194643	1.975933	-0.069419	0.052769	-0.017623	-0.531250	-0.141846	0.540283	-5.190861	-78.608431	169.899391
56444		9.681097	-0.206959	1.978288	-0.078658	0.062365	-0.017097	-0.522217	-0.146729	0.534180	-5.161248	-78.576607	169.829414
56445		9.640907	-0.268293	2.058022	-0.089025	0.065894	-0.020212	-0.527344	-0.139160	0.534912	-5.133730	-78.541472	169.754468
56446		9.609858	-0.318593	1.998701	-0.090499	0.074927	-0.018355	-0.528809	-0.145508	0.532471	-5.104790	-78.502529	169.678236
56447		9.624103	-0.333388	2.091547	-0.089467	0.086848	-0.014329	-0.520752	-0.138916	0.527344	-5.089535	-78.455094	169.615742
56448		9.633693	-0.418713	2.131701	-0.088764	0.083318	-0.011638	-0.527588	-0.136719	0.533936	-5.076958	-78.411012	169.557203
56449		9.707682	-0.453779	2.077576	-0.092553	0.082542	-0.015805	-0.530273	-0.139893	0.530273	-5.061153	-78.366148	169.492717
56450		9.747343	-0.455462	2.049543	-0.097792	0.083381	-0.010375	-0.530762	-0.141357	0.536621	-5.057769	-78.321962	169.438263
56451		9.697773	-0.471347	2.035454	-0.101719	0.083357	-0.005157	-0.523682	-0.141846	0.531006	-5.076917	-78.276064	169.404052
56452		9.705205	-0.494860	2.037933	-0.098623	0.091162	-0.004482	-0.532227	-0.143311	0.531982	-5.088626	-78.227142	169.364511
56453		9.721836	-0.531727	2.002599	-0.094385	0.107576	-0.004625	-0.528076	-0.140869	0.522217	-5.099309	-78.167445	169.325800
56454		9.726716	-0.492242	1.970585	-0.097328	0.126897	-0.003078	-0.532227	-0.139893	0.528564	-5.105741	-78.098061	169.281608
56455		9.781944	-0.475486	1.899992	-0.089436	0.154784	-0.001798	-0.531982	-0.142090	0.533691	-5.110386	-78.011229	169.239789
56456		9.746544	-0.498383	1.945014	-0.091577	0.164689	0.002077	-0.530273	-0.146973	0.530518	-5.118818	-77.920017	169.200982
56457		9.734005	-0.478302	1.966609	-0.100657	0.174469	-0.003059	-0.533203	-0.142822	0.523438	-5.122353	-77.822131	169.151292
56458		9.634178	-0.526621	2.005375	-0.111061	0.176355	0.001995	-0.524414	-0.136719	0.528320	-5.139469	-77.724268	169.109921
56459		9.582427	-0.552131	2.032727	-0.121902	0.176154	-0.001755	-0.538818	-0.144531	0.523193	-5.158925	-77.625386	169.064403
56460		9.531804	-0.559919	1.993326	-0.128957	0.182843	-0.006702	-0.519287	-0.147217	0.522461	-5.162688	-77.524274	168.998828
56461		9.484056	-0.506410	2.041641	-0.136447	0.186167	-0.018196	-0.529541	-0.152100	0.519043	-5.146545	-77.420554	168.907789
56462		9.491396	-0.396375	2.070626	-0.143988	0.191775	-0.028355	-0.539795	-0.146729	0.525635	-5.103110	-77.315444	168.784967
56463		9.405114	-0.377527	2.091233	-0.155868	0.191707	-0.041248	-0.542480	-0.144287	0.520020	-5.040849	-77.209682	168.635052
56464		9.290961	-0.407045	2.043774	-0.169031	0.187609	-0.050756	-0.528809	-0.149658	0.524902	-4.959602	-77.108010	168.458630
56465		9.187862	-0.521093	2.026453	-0.177721	0.188190	-0.061064	-0.529053	-0.148193	0.518555	-4.865221	-77.005190	168.263223
56466		9.123057	-0.597913	2.036958	-0.179023	0.182641	-0.077932	-0.537842	-0.156982	0.516602	-4.728076	-76.907518	168.023403
56467		9.135655	-0.664431	2.140713	-0.174989	0.176323	-0.100158	-0.536621	-0.152832	0.509521	-4.543840	-76.813122	167.736785
56468		9.103106	-0.652278	2.083830	-0.165661	0.158199	-0.119255	-0.537842	-0.158203	0.512939	-4.309276	-76.730892	167.404575
56469		9.261952	-0.612446	1.931411	-0.159015	0.144067	-0.136590	-0.544189	-0.157471	0.517334	-4.040526	-76.655853	167.040231
56470		9.304494	-0.560165	1.653177	-0.158226	0.166140	-0.151614	-0.543701	-0.156250	0.518066	-3.729950	-76.569625	166.634046
56471		9.329137	-0.608657	1.525970	-0.160363	0.164783	-0.161657	-0.537109	-0.164795	0.512695	-3.407151	-76.482803	166.213461
56472		9.359817	-0.655869	1.613097	-0.148441	0.141162	-0.174560	-0.536865	-0.161865	0.506592	-3.049013	-76.410531	165.763837
56473		9.417016	-0.580515	1.697257	-0.130815	0.105507	-0.176979	-0.539063	-0.165527	0.506592	-2.688826	-76.356974	165.321430
56474		9.499313	-0.524916	1.791613	-0.115316	0.069019	-0.172908	-0.535156	-0.167236	0.517822	-2.330330	-76.324640	164.890767
56475		9.565121	-0.407273	1.827535	-0.110570	0.019019	-0.165810	-0.539307	-0.177002	0.505371	-1.997320	-76.319180	164.488246
56476		9.593748	-0.253086	1.760535	-0.108031	-0.029587	-0.150861	-0.551025	-0.173096	0.516357	-1.695943	-76.341733	164.120643
56477		9.655660	-0.136367	1.572362	-0.105953	-0.071737	-0.126108	-0.535645	-0.167969	0.510010	-1.458914	-76.386541	163.819245
56478		9.716533	0.110980	1.400988	-0.101173	-0.109362	-0.107117	-0.538330	-0.176514	0.517090	-1.258595	-76.453454	163.559789
56479		9.791984	0.333188	1.436886	-0.109831	-0.127035	-0.084851	-0.540039	-0.168945	0.510010	-1.120792	-76.529162	163.358771
56480		9.905564	0.457251	1.481811	-0.126864	-0.117342	-0.062766	-0.532227	-0.173828	0.504395	-1.037728	-76.599870	163.204892
56481		9.984246	0.479109	1.533806	-0.149556	-0.092973	-0.055515	-0.533447	-0.178223	0.515137	-0.988930	-76.655559	163.072189
56482		10.062054	0.406676	1.722489	-0.160946	-0.068588	-0.059473	-0.540527	-0.164063	0.507568	-0.929450	-76.698230	162.922549
56483		10.001401	0.367257	1.863891	-0.183855	-0.069660	-0.064643	-0.528320	-0.174316	0.513916	-0.875860	-76.740650	162.765093
56484		9.822178	0.317995	1.944233	-0.193528	-0.082576	-0.071288	-0.531006	-0.180420	0.513184	-0.805373	-76.791363	162.585025
56485		9.618266	0.288499	2.010361	-0.179379	-0.102519	-0.072900	-0.531982	-0.177002	0.512939	-0.728016	-76.852743	162.405528
56486		9.455095	0.126338	1.927303	-0.145404	-0.115854	-0.077128	-0.528809	-0.171875	0.513916	-0.614224	-76.922439	162.209396
56487		9.411558	-0.071896	1.782071	-0.102737	-0.087291	-0.088801	-0.530518	-0.183105	0.509521	-0.450667	-76.974984	161.987049
56488		9.420171	-0.324566	1.823700	-0.009679	-0.015074	-0.109183	-0.527100	-0.182617	0.511475	-0.175019	-76.986758	161.704681
56489		9.515034	-0.587104	1.959941	0.111296	0.041912	-0.125873	-0.531494	-0.187012	0.521484	0.205779	-76.964760	161.384619
56490		9.661106	-0.712697	2.017885	0.234368	0.090947	-0.139320	-0.531006	-0.187500	0.513672	0.693391	-76.914807	161.028153
56491		9.756812	-0.660306	2.170831	0.361413	0.161131	-0.132714	-0.523926	-0.174072	0.518555	1.225236	-76.823325	160.699855
56492		9.662200	-0.514721	2.192342	0.489171	0.251364	-0.102708	-0.535400	-0.179688	0.516113	1.750630	-76.680584	160.454283
56493		9.408700	-0.233311	2.364116	0.589311	0.330860	-0.058554	-0.535645	-0.171631	0.513672	2.206746	-76.492119	160.338285
56494		9.076535	-0.055871	2.576047	0.645184	0.345333	0.005345	-0.533203	-0.174072	0.513672	2.541077	-76.297296	160.380897
56495		8.938061	-0.029003	2.426634	0.682399	0.324829	0.080594	-0.536865	-0.167969	0.506836	2.714857	-76.115554	160.610192
56496		8.883016	-0.035682	2.305982	0.698317	0.292651	0.163996	-0.540283	-0.172607	0.502441	2.716682	-75.955250	161.026870
56497		9.026700	-0.138036	2.005843	0.688284	0.228911	0.254472	-0.544434	-0.156494	0.509766	2.513284	-75.832761	161.648303
56498		9.284434	-0.193347	1.670640	0.667391	0.204654	0.327128	-0.545166	-0.156006	0.504395	2.148796	-75.725964	162.425063
56499		9.532123	-0.317989	1.445060	0.643709	0.186888	0.367133	-0.539551	-0.148193	0.517334	1.685522	-75.627862	163.289384
56500		9.871769	-0.215326	1.210490	0.629316	0.172363	0.382754	-0.540771	-0.146973	0.518799	1.194351	-75.537406	164.175102
56501		10.357144	-0.116653	1.142106	0.619915	0.158745	0.370198	-0.541748	-0.131836	0.511963	0.729510	-75.452336	165.027640
56502		10.731598	-0.067839	1.199015	0.615417	0.178717	0.331955	-0.540771	-0.128174	0.514404	0.358533	-75.354526	165.781644
56503		10.744531	0.055694	1.465539	0.602417	0.191220	0.267834	-0.540771	-0.123779	0.509277	0.122080	-75.247909	166.388910
56504		10.645193	0.202417	1.689633	0.592371	0.153040	0.184166	-0.544189	-0.125732	0.512939	0.071721	-75.163189	166.798329
56505		10.378294	0.440754	1.804393	0.580268	0.049820	0.094172	-0.545898	-0.117432	0.507568	0.205878	-75.137096	167.009127
56506		10.027820	0.551899	1.714564	0.564518	-0.030911	0.002814	-0.543701	-0.120850	0.513184	0.534038	-75.157600	167.010543
56507		9.857244	0.758354	1.557521	0.548838	-0.075583	-0.073951	-0.539551	-0.110596	0.514893	1.016559	-75.202593	166.842240
56508		9.616692	0.844718	1.316317	0.524892	-0.062643	-0.132360	-0.541748	-0.110840	0.519043	1.618369	-75.239495	166.537162
56509		9.563803	0.884465	1.220114	0.497879	-0.024763	-0.176291	-0.538086	-0.111328	0.514160	2.294772	-75.252694	166.138532
56510		9.437074	0.788614	1.116539	0.465502	0.027037	-0.209614	-0.542236	-0.100098	0.510254	3.025039	-75.234381	165.665459
56511		9.202248	0.811081	1.173567	0.420924	0.068900	-0.231047	-0.546631	-0.100586	0.520264	3.764179	-75.189478	165.156308
56512		8.974623	0.806257	1.263965	0.359724	0.083345	-0.251280	-0.548096	-0.097168	0.507568	4.510363	-75.134164	164.603892
56513		8.882833	0.883965	1.202248	0.298466	0.089666	-0.254127	-0.548584	-0.105713	0.513184	5.216659	-75.072895	164.056161
56514		8.841778	1.003388	1.186450	0.232039	0.094885	-0.245914	-0.545654	-0.107422	0.516846	5.866076	-75.007847	163.527872
56515		8.766542	1.224659	1.082274	0.169294	0.121372	-0.203582	-0.540771	-0.115723	0.510986	6.374486	-74.928596	163.107580
56516		8.806351	1.467308	1.166153	0.111476	0.128134	-0.147459	-0.546387	-0.109619	0.513184	6.729541	-74.848664	162.812268
56517		8.909491	1.642653	1.121477	0.052599	0.117115	-0.089679	-0.541748	-0.102539	0.514404	6.926012	-74.778322	162.645369
56518		8.891313	1.703533	1.069545	-0.005361	0.120449	-0.032802	-0.545410	-0.107178	0.505127	6.972115	-74.710178	162.600704
56519		8.874154	1.759188	1.018185	-0.059874	0.109201	0.014164	-0.545654	-0.107666	0.510010	6.888541	-74.651497	162.657672
56520		8.926352	1.526541	1.099427	-0.096058	0.088128	0.053285	-0.541016	-0.107666	0.510010	6.712792	-74.607612	162.789172
56521		8.999172	1.231479	1.082027	-0.129086	0.047638	0.078373	-0.541260	-0.101807	0.508789	6.473596	-74.588190	162.966385
56522		9.118327	0.937457	0.992994	-0.169150	-0.018259	0.086443	-0.543213	-0.106201	0.501221	6.213427	-74.606709	163.142031
56523		9.268090	0.716510	0.858541	-0.213814	-0.094915	0.074375	-0.546631	-0.103271	0.506836	5.965717	-74.667869	163.277836
56524		9.334045	0.587476	0.762924	-0.255359	-0.135638	0.062237	-0.546631	-0.103760	0.509277	5.729799	-74.751475	163.377039
56525		9.506305	0.373764	0.848979	-0.281719	-0.151742	0.036775	-0.538330	-0.108887	0.505615	5.530627	-74.842686	163.422194
56526		9.729549	0.331373	0.858583	-0.303535	-0.186850	-0.005135	-0.541992	-0.108398	0.508789	5.416595	-74.951645	163.366473
56527		9.793823	0.484727	0.729794	-0.331924	-0.236501	-0.052170	-0.537842	-0.110596	0.514893	5.393561	-75.086467	163.199346
56528		9.746463	0.591469	0.600231	-0.359437	-0.258842	-0.075089	-0.544434	-0.118408	0.507568	5.413246	-75.232736	162.972227
56529		9.672791	0.725110	0.579031	-0.393868	-0.269946	-0.080203	-0.540527	-0.114258	0.513916	5.426217	-75.385185	162.731389
56530		9.643208	0.942402	0.663370	-0.441372	-0.311428	-0.080064	-0.540283	-0.122559	0.515625	5.426082	-75.561155	162.476573
56531		9.794711	1.195846	0.691990	-0.490805	-0.351243	-0.077660	-0.533447	-0.113037	0.523926	5.401059	-75.760204	162.218065
56532		9.875524	1.519385	0.449911	-0.558301	-0.352170	-0.069417	-0.541260	-0.123535	0.521484	5.324754	-75.960056	161.973150
56533		9.932272	1.661512	0.264321	-0.617146	-0.286304	-0.059790	-0.529541	-0.124756	0.518066	5.177638	-76.123309	161.766476
56534		9.958974	1.510257	0.412134	-0.631502	-0.208053	-0.064904	-0.524902	-0.128418	0.517334	5.021105	-76.241417	161.561331
56535		10.264563	1.029422	0.396145	-0.599052	-0.145893	-0.094759	-0.528809	-0.128418	0.514404	4.938471	-76.323111	161.299101
56536		10.449691	0.304452	0.388320	-0.541229	-0.103750	-0.149554	-0.528076	-0.139160	0.519775	5.012785	-76.377582	160.909774
56537		10.531948	-0.285263	0.313068	-0.451659	-0.085358	-0.188949	-0.529053	-0.136963	0.519043	5.227197	-76.419823	160.428941
56538		10.677328	-0.702449	0.221133	-0.372993	-0.103013	-0.205966	-0.527588	-0.142822	0.514648	5.535545	-76.470191	159.898182
56539		10.773500	-0.852358	0.064082	-0.317912	-0.084561	-0.197529	-0.522949	-0.137451	0.516113	5.851709	-76.510456	159.391682
56540		10.704480	-0.603408	0.109101	-0.298913	-0.032387	-0.157083	-0.530273	-0.143799	0.519043	6.073733	-76.522222	158.993502
56541		10.525757	-0.019131	0.133716	-0.300160	-0.013112	-0.101515	-0.522705	-0.155762	0.516357	6.155938	-76.526906	158.738160
56542		10.498941	0.541980	0.071923	-0.314679	-0.056486	-0.049428	-0.522949	-0.141357	0.523438	6.119743	-76.558712	158.596245
56543		10.735683	0.976674	0.004840	-0.346106	-0.077864	-0.014791	-0.520508	-0.151123	0.520996	5.986231	-76.605736	158.535588
56544		10.900419	1.412027	-0.096093	-0.396881	-0.055159	-0.004384	-0.525391	-0.160400	0.519775	5.794938	-76.639576	158.504732
56545		10.965426	1.754384	-0.001951	-0.430557	0.002328	-0.015824	-0.525879	-0.157715	0.523438	5.595687	-76.641010	158.461894
56546		10.880559	1.833180	0.095287	-0.450070	-0.000035	-0.038398	-0.530518	-0.161621	0.524414	5.441932	-76.641583	158.361135
56547		10.931113	1.561997	0.187489	-0.444300	-0.064528	-0.056668	-0.524902	-0.160400	0.527100	5.348652	-76.679104	158.201369
56548		11.062862	0.965180	0.180946	-0.408150	-0.139433	-0.083995	-0.526123	-0.164307	0.523682	5.361259	-76.756827	157.954386
56549		11.201861	0.267125	0.042390	-0.352004	-0.201964	-0.106154	-0.520264	-0.165527	0.519287	5.475304	-76.870167	157.636149
56550		11.335344	-0.212581	-0.188844	-0.289400	-0.216550	-0.124095	-0.524902	-0.169922	0.519287	5.678275	-76.989413	157.263802
56551		11.384328	-0.410705	-0.164624	-0.242459	-0.187141	-0.129597	-0.526855	-0.167480	0.521240	5.918362	-77.092546	156.880879
56552		11.293039	-0.301456	0.417305	-0.212014	-0.130835	-0.117989	-0.519287	-0.172119	0.519043	6.137748	-77.162653	156.537471
56553		11.178104	-0.231797	1.280878	-0.177145	-0.122822	-0.088319	-0.517090	-0.178955	0.518555	6.302168	-77.231177	156.270764
56554		11.071416	-0.279871	2.054387	-0.151844	-0.198456	-0.079332	-0.516602	-0.172607	0.514160	6.483886	-77.341765	156.001529
56555		10.884746	-0.822663	2.150396	-0.097691	-0.297022	-0.096435	-0.519287	-0.174316	0.520264	6.773258	-77.508504	155.653607
56556		10.404533	-1.208213	2.373129	-0.031027	-0.322105	-0.134246	-0.521484	-0.182129	0.518799	7.217493	-77.684950	155.186783
56557		9.683197	-1.088360	3.157968	-0.005256	-0.348529	-0.158149	-0.510010	-0.176514	0.528564	7.760833	-77.875163	154.633655
56558		9.234124	-0.551652	3.258701	0.005308	-0.376614	-0.163438	-0.507568	-0.175049	0.535645	8.354337	-78.078300	154.036170
56559		8.871356	-0.044702	3.229907	0.011374	-0.299378	-0.175436	-0.500488	-0.176270	0.522705	8.969673	-78.236776	153.420069
56560		8.293238	0.365740	3.561330	0.022536	-0.218994	-0.171531	-0.508545	-0.183594	0.533203	9.561702	-78.347364	152.834862
56561		7.969748	0.736122	3.975319	0.041129	-0.212655	-0.149388	-0.509277	-0.181152	0.527100	10.109758	-78.456684	152.305324
56562		7.735715	0.745330	4.229278	0.068090	-0.224839	-0.116003	-0.500244	-0.179688	0.530029	10.598494	-78.574009	151.852620
56563		7.817515	0.560051	4.042159	0.095719	-0.288216	-0.084447	-0.500488	-0.186768	0.532715	11.057284	-78.730829	151.446525
56564		8.300054	0.321773	3.739073	0.097476	-0.319311	-0.056099	-0.500732	-0.183594	0.538818	11.467758	-78.906500	151.091241
56565		8.905163	0.070519	3.392429	0.071896	-0.274842	-0.040077	-0.495361	-0.176514	0.539795	11.800687	-79.059710	150.799878
56566		9.779421	-0.071577	3.220902	0.044323	-0.143586	-0.018395	-0.503174	-0.175049	0.531982	11.982415	-79.140542	150.646869
56567		10.466228	0.060670	3.049901	0.014444	-0.107702	0.004861	-0.502686	-0.193115	0.549561	12.056566	-79.204984	150.585790
56568		11.046415	0.024413	2.800168	0.003642	-0.053281	-0.017035	-0.504883	-0.184082	0.539551	12.157295	-79.235281	150.491568
56569		11.731218	0.048486	2.913726	-0.022524	0.039224	-0.047494	-0.500732	-0.185791	0.549316	12.272300	-79.211015	150.367162
56570		11.997928	-0.091868	2.997601	-0.057318	0.077317	-0.047449	-0.504395	-0.186523	0.546631	12.344001	-79.164427	150.266924
56571		11.686349	-0.336107	2.855382	-0.094208	0.127332	-0.034854	-0.505859	-0.184814	0.547607	12.323434	-79.092342	150.238780
56572		11.019503	-0.331669	2.798654	-0.127290	0.164979	-0.018377	-0.507568	-0.187012	0.539063	12.214660	-79.000227	150.281483
56573		10.385519	-0.345277	2.844908	-0.154225	0.167891	0.007027	-0.492432	-0.181152	0.547119	12.015163	-78.910416	150.400595
56574		9.603972	-0.305066	3.105783	-0.167595	0.139103	0.047247	-0.499023	-0.189941	0.546631	11.715631	-78.840486	150.614198
56575		8.915387	-0.007729	3.019923	-0.190860	0.020471	0.101071	-0.500488	-0.190186	0.541260	11.318968	-78.844026	150.912959
56576		8.553852	0.019835	2.839096	-0.214305	-0.084107	0.158695	-0.509033	-0.189697	0.539307	10.803682	-78.911290	151.319171
56577		8.312344	0.097755	2.576670	-0.250520	-0.121154	0.205220	-0.498535	-0.187744	0.552734	10.144062	-79.004267	151.850810
56578		8.111598	0.099769	2.254917	-0.278189	-0.100864	0.232345	-0.505127	-0.191650	0.552246	9.371666	-79.086346	152.481389
56579		8.050385	0.083777	1.945535	-0.292800	-0.059670	0.231050	-0.503906	-0.187744	0.542969	8.563044	-79.144170	153.139897
56580		8.130735	0.019811	1.747129	-0.283519	-0.031656	0.222964	-0.499023	-0.183105	0.542236	7.767370	-79.182872	153.790817
56581		8.211591	-0.248830	1.667328	-0.260880	0.013310	0.215270	-0.502441	-0.189697	0.540771	6.982999	-79.194509	154.443119
56582		8.209530	-0.630530	1.736265	-0.222752	0.062496	0.191730	-0.508057	-0.184814	0.549561	6.276129	-79.174266	155.039031
56583		8.658241	-0.753038	1.681214	-0.181381	0.060007	0.185491	-0.507813	-0.187256	0.541748	5.611538	-79.154457	155.615785
56584		8.837599	-1.121707	1.298944	-0.127964	0.087973	0.186110	-0.506348	-0.186768	0.546875	4.973976	-79.116779	156.196520
56585		8.811902	-1.426776	1.125244	-0.080479	0.162826	0.158597	-0.503906	-0.182373	0.538574	4.428573	-79.034651	156.710909
56586		8.717291	-1.524612	1.097628	-0.034843	0.239725	0.127620	-0.514648	-0.182129	0.549072	3.995579	-78.905741	157.137910
56587		8.625201	-1.465048	1.125308	0.002531	0.284243	0.098262	-0.510254	-0.183350	0.538818	3.666289	-78.750453	157.480943
56588		8.475772	-1.397198	1.139529	0.047277	0.293205	0.093780	-0.510986	-0.183838	0.539795	3.386650	-78.588799	157.799970
56589		8.107669	-1.356268	1.180775	0.091045	0.278083	0.088067	-0.517578	-0.188965	0.542236	3.154488	-78.436078	158.095908
56590		7.933230	-1.255359	1.146367	0.139177	0.232068	0.080858	-0.522461	-0.175537	0.540527	2.987022	-78.308512	158.354506
56591		7.712689	-1.156946	1.052968	0.189882	0.214107	0.056701	-0.522949	-0.178467	0.538330	2.917277	-78.191153	158.542644
56592		7.492276	-1.112495	0.866285	0.240184	0.173464	0.030779	-0.523682	-0.174316	0.540283	2.958811	-78.095531	158.647035
56593		7.781966	-0.863699	0.616831	0.305416	0.131060	0.002179	-0.525391	-0.174805	0.534424	3.116609	-78.024106	158.670376
56594		7.946375	-0.688535	0.412967	0.381980	0.111495	-0.020642	-0.526123	-0.167725	0.541504	3.386018	-77.962380	158.624914
56595		8.087507	-0.628556	0.461401	0.453827	0.117636	-0.040369	-0.520508	-0.174316	0.545166	3.741888	-77.897203	158.532637
56596		8.628939	-0.587798	0.560235	0.521785	0.076319	-0.063590	-0.522217	-0.167236	0.543457	4.208093	-77.853762	158.367800
56597		9.173149	-0.734295	0.546863	0.573351	0.048110	-0.063610	-0.522461	-0.154541	0.548096	4.702950	-77.827042	158.203316
56598		8.603391	-1.181461	0.637150	0.601271	0.151854	-0.120550	-0.520752	-0.162598	0.543457	5.342373	-77.737006	157.907786
56599		8.802090	-0.826065	1.186987	0.594175	0.184562	-0.189028	-0.524658	-0.156494	0.545654	6.135560	-77.624580	157.450049
56600		9.974720	-0.208166	1.274081	0.539228	0.048167	-0.170269	-0.522949	-0.153320	0.537354	6.883944	-77.588747	157.006364
56601		10.608803	0.243235	0.794770	0.465752	0.011221	-0.113386	-0.520996	-0.145996	0.541260	7.447893	-77.577888	156.707809
56602		11.002554	0.617530	0.772670	0.402613	0.040528	-0.060703	-0.518799	-0.150146	0.545166	7.833687	-77.552867	156.555198
56603		11.583267	0.840877	1.124463	0.327980	0.032661	-0.011592	-0.519287	-0.145264	0.540283	8.047935	-77.537094	156.533897
56604		12.106223	1.179158	1.215407	0.230031	-0.049265	0.045888	-0.520752	-0.142090	0.554443	8.092605	-77.571339	156.629351
56605		11.769976	1.698532	0.674432	0.115584	-0.122253	0.100651	-0.523438	-0.135742	0.542725	7.951826	-77.652472	156.846964
56606		10.865569	2.066271	0.171484	0.005298	-0.209849	0.165673	-0.526611	-0.139893	0.551270	7.610475	-77.787067	157.205640
56607		10.548769	1.900178	-0.426648	-0.074995	-0.228609	0.223342	-0.518555	-0.135986	0.546387	7.063902	-77.937122	157.726463
56608		10.381581	1.451709	-0.945938	-0.091208	-0.116992	0.268280	-0.522461	-0.133789	0.552002	6.344179	-78.024284	158.415106
56609		10.509549	0.487154	-1.279725	-0.077488	0.020797	0.300201	-0.520508	-0.130859	0.551025	5.495801	-78.034104	159.242680
56610		10.883972	-0.888822	-1.274092	-0.040691	0.189204	0.307080	-0.525391	-0.122803	0.552490	4.616270	-77.944305	160.124279
56611		11.431877	-2.330695	-1.105640	0.031571	0.309039	0.266708	-0.524658	-0.127441	0.544189	3.872895	-77.783129	160.908850
56612		12.440115	-3.356901	-0.183145	0.117020	0.343867	0.205452	-0.527588	-0.121094	0.554443	3.356648	-77.596634	161.512096
56613		13.187845	-3.808653	0.975772	0.161593	0.236894	0.165214	-0.523926	-0.122314	0.556885	2.994847	-77.470601	161.983080
56614		13.462339	-3.512977	1.587883	0.171118	0.069595	0.139070	-0.536865	-0.111572	0.559570	2.738036	-77.437492	162.352847
56615		13.003104	-2.421033	1.950971	0.182730	-0.096274	0.123171	-0.526855	-0.106934	0.551025	2.543165	-77.500162	162.665262
56616		12.035528	-1.337825	2.971482	0.221768	-0.237492	0.141108	-0.527832	-0.098633	0.558350	2.341710	-77.642299	163.007893
56617		11.599949	-0.271621	4.117404	0.297996	-0.456909	0.183808	-0.523926	-0.103760	0.549072	2.078855	-77.912274	163.457036
56618		11.427712	0.868545	4.036158	0.393085	-0.549058	0.230201	-0.512451	-0.096680	0.565186	1.741432	-78.233839	164.038310
56619		10.920672	1.955356	4.338368	0.437062	-0.491031	0.284618	-0.512939	-0.084717	0.558105	1.240104	-78.523557	164.811285
56620		10.017420	2.310400	4.928484	0.403782	-0.450097	0.348427	-0.516113	-0.085938	0.562256	0.507980	-78.787243	165.800160
56621		9.084232	2.385781	4.786654	0.302373	-0.507921	0.421276	-0.508057	-0.078369	0.561768	-0.548356	-79.082280	167.058574
56622		8.449343	2.284901	4.417039	0.229082	-0.527052	0.468437	-0.501709	-0.074219	0.566650	-1.849656	-79.381415	168.522990
56623		7.893429	1.713189	4.376577	0.198335	-0.430366	0.488840	-0.503906	-0.066162	0.566895	-3.300740	-79.619124	170.119946
56624		7.244259	0.973213	3.890239	0.139942	-0.306491	0.502835	-0.493408	-0.062988	0.573730	-4.859226	-79.776668	171.791641
56625		6.905701	0.257436	3.420290	0.055690	-0.210282	0.497136	-0.496582	-0.058594	0.574219	-6.468768	-79.872256	173.464944
56626		7.023332	-0.261325	3.138069	-0.015246	-0.168812	0.489363	-0.497559	-0.046875	0.569092	-8.098104	-79.935568	175.117209
56627		7.439164	-0.570446	2.918701	-0.045509	-0.156306	0.462334	-0.493408	-0.048584	0.571777	-9.677822	-79.986802	176.700636
56628		8.468080	-0.639494	2.902238	-0.044003	-0.204553	0.414789	-0.491943	-0.047852	0.566650	-11.142973	-80.062082	178.168852
56629		9.747920	-0.612859	2.736202	-0.006791	-0.275536	0.366906	-0.492920	-0.038818	0.572510	-12.512117	-80.177089	179.560285
56630		11.405415	-0.643706	2.720301	0.062335	-0.250249	0.286693	-0.488281	-0.031250	0.567383	-13.585003	-80.282659	-179.308627
56631		12.526310	-0.795782	2.851218	0.148203	-0.054901	0.206007	-0.492676	-0.024658	0.576660	-14.212411	-80.288334	-178.580315
56632		12.913176	-0.556743	2.833476	0.178605	0.080305	0.104458	-0.481934	-0.023926	0.565674	-14.373420	-80.231952	-178.306950
56633		12.148597	-0.266626	2.788936	0.163175	0.231341	0.036070	-0.485596	-0.021729	0.566650	-14.205647	-80.101849	-178.376708
56634		11.031821	0.426769	2.892423	0.137257	0.207892	-0.000001	-0.491211	-0.021729	0.562256	-13.953524	-79.989293	-178.546664
56635		9.973865	0.953572	3.018285	0.134723	0.159689	-0.062450	-0.486572	-0.029053	0.556885	-13.555860	-79.912344	-178.866482
56636		9.037109	1.428139	2.997447	0.134138	0.114647	-0.136257	-0.486084	-0.025146	0.551758	-12.959726	-79.869284	-179.387771
56637		8.152063	1.341490	2.723996	0.123261	0.069508	-0.206309	-0.490967	-0.017334	0.558105	-12.192697	-79.859533	179.910472
56638		7.806179	1.067954	2.278664	0.119491	0.050518	-0.270998	-0.481689	-0.020020	0.554443	-11.232023	-79.865672	179.010293
56639		7.274845	0.797442	1.870271	0.143594	0.057184	-0.319980	-0.488037	-0.015625	0.554688	-10.103959	-79.870772	177.953666
56640		6.991737	0.467157	1.676870	0.174369	0.053941	-0.348746	-0.483154	-0.012451	0.547119	-8.862385	-79.876148	176.800111
56641		7.170256	0.375842	1.565196	0.168108	0.055199	-0.369700	-0.483887	-0.020508	0.544678	-7.561769	-79.878454	175.582526
56642		7.325912	0.258270	1.412559	0.114044	0.029615	-0.367901	-0.484131	-0.012207	0.540283	-6.301673	-79.889956	174.375087
56643		7.569029	0.271759	1.428000	0.035760	0.055848	-0.334850	-0.485107	-0.026367	0.540771	-5.187480	-79.880669	173.269887
56644		7.801449	0.378377	1.605277	-0.047289	0.043738	-0.284887	-0.485107	-0.023682	0.541748	-4.280909	-79.872041	172.327635
56645		7.965648	0.564523	1.764131	-0.129388	0.011595	-0.235134	-0.485596	-0.021484	0.531738	-3.593439	-79.878003	171.559766
56646		8.179515	0.910838	1.621852	-0.212180	0.020997	-0.195843	-0.489258	-0.021484	0.535889	-3.072282	-79.875369	170.913054
56647		8.396017	1.146134	1.497508	-0.296048	0.090858	-0.168556	-0.488281	-0.019043	0.530762	-2.681347	-79.831553	170.349395
56648		8.526203	1.272646	1.340078	-0.373829	0.117964	-0.141865	-0.485596	-0.015137	0.529541	-2.415894	-79.770484	169.868234
56649		8.521887	1.305346	0.991070	-0.427431	0.142306	-0.118598	-0.489014	-0.027100	0.522461	-2.260078	-79.695125	169.466832
56650		8.398717	1.275220	0.825716	-0.472884	0.153009	-0.097767	-0.486328	-0.029297	0.517334	-2.194167	-79.612533	169.130594
56651		8.402451	1.154539	0.690342	-0.505949	0.105049	-0.086983	-0.482422	-0.026611	0.513672	-2.192642	-79.557664	168.840164
56652		8.632861	0.920222	0.398884	-0.543276	0.076020	-0.072571	-0.483887	-0.029785	0.516846	-2.258214	-79.518589	168.596494
56653		8.914472	0.664740	0.063650	-0.587943	0.090127	-0.056391	-0.478760	-0.031494	0.517090	-2.401472	-79.471725	168.405471
56654		8.929158	0.573983	-0.284473	-0.635996	0.109807	-0.026986	-0.487549	-0.051270	0.502686	-2.656702	-79.412393	168.300609
56655		8.668803	0.422279	-0.416601	-0.682139	0.096843	0.020658	-0.483154	-0.048096	0.502686	-3.087589	-79.359886	168.347254
56656		8.600799	0.335113	-0.499896	-0.702896	0.075333	0.073386	-0.481445	-0.052002	0.502441	-3.688610	-79.317167	168.555217
56657		9.093343	-0.073600	-0.655091	-0.698132	0.047836	0.105440	-0.482910	-0.060547	0.493164	-4.389470	-79.289178	168.867298
56658		9.326842	-0.172613	-0.748137	-0.664938	0.063395	0.106351	-0.487549	-0.059082	0.495117	-5.064395	-79.250832	169.172663
56659		9.462218	-0.272992	-0.784898	-0.623865	0.130643	0.111747	-0.481689	-0.055664	0.488525	-5.711997	-79.174019	169.473929
56660		9.852123	-0.062180	-0.671564	-0.585141	0.192192	0.104318	-0.487549	-0.061768	0.483643	-6.286254	-79.061151	169.723496
56661		10.058471	0.158596	-0.292018	-0.541397	0.281000	0.118731	-0.484619	-0.058838	0.477051	-6.841871	-78.897267	169.979411
56662		10.291847	0.379655	0.296552	-0.507385	0.289426	0.145582	-0.485596	-0.067383	0.480713	-7.436894	-78.725266	170.295820
56663		10.601038	0.567868	1.075161	-0.486573	0.180466	0.141389	-0.493896	-0.067139	0.469971	-8.040057	-78.615828	170.632533
56664		10.823335	0.471010	1.740759	-0.453380	0.102919	0.124611	-0.487305	-0.082031	0.471924	-8.597858	-78.550075	170.942787
56665		10.954323	-0.147976	2.176882	-0.398572	0.020193	0.076325	-0.493408	-0.080078	0.457275	-9.024077	-78.535909	171.150568
56666		10.766499	-1.044777	1.760080	-0.300857	-0.075115	-0.005537	-0.491699	-0.075684	0.452148	-9.205329	-78.581840	171.165827
56667		10.661495	-1.744063	0.770684	-0.194025	-0.201313	-0.115892	-0.490234	-0.082031	0.459473	-9.074755	-78.710237	170.925158
56668		10.670494	-1.921856	-0.281604	-0.124974	-0.257502	-0.210407	-0.479980	-0.085938	0.459717	-8.650382	-78.877520	170.425742
56669		10.570357	-1.542372	-0.685389	-0.111084	-0.230257	-0.259352	-0.477051	-0.091797	0.451172	-8.052520	-79.033668	169.757613
56670		10.732505	-0.754643	-0.878432	-0.127457	-0.200160	-0.260203	-0.487305	-0.099365	0.458252	-7.428625	-79.170306	169.054085
56671		11.302351	-0.004325	-1.258143	-0.150794	-0.123429	-0.241291	-0.480713	-0.094971	0.449463	-6.834242	-79.261785	168.366900
56672		12.044271	0.585456	-0.316720	-0.166382	-0.012260	-0.240988	-0.469482	-0.099609	0.443848	-6.199255	-79.287336	167.629790
56673		13.015060	0.816880	1.088648	-0.147360	-0.105850	-0.261314	-0.485840	-0.110596	0.435791	-5.518976	-79.367214	166.857458
56674		14.135500	0.756223	1.658599	-0.035402	-0.100651	-0.304762	-0.468750	-0.117188	0.440918	-4.625955	-79.442979	165.934501
56675		14.096121	0.395419	2.633074	0.090094	-0.158395	-0.334346	-0.473389	-0.121338	0.439209	-3.570392	-79.551492	164.919316
56676		13.404857	-0.010585	3.787892	0.068579	-0.242039	-0.317431	-0.471191	-0.121826	0.439453	-2.568134	-79.702563	163.946536
56677		12.388995	-0.514295	4.586841	-0.088018	-0.269578	-0.259126	-0.469971	-0.120605	0.436035	-1.818876	-79.866837	163.139848
56678		11.270231	-0.803152	4.886164	-0.210374	-0.256116	-0.213575	-0.469971	-0.126221	0.441162	-1.259948	-80.019640	162.455960
56679		9.951500	-0.622923	4.920835	-0.230564	-0.212335	-0.235119	-0.463623	-0.138672	0.429688	-0.623274	-80.147611	161.681407
56680		8.944239	-0.389301	4.815024	-0.180153	-0.144064	-0.307263	-0.471436	-0.139648	0.434326	0.302876	-80.233445	160.642938
56681		8.031983	0.072909	5.009928	-0.120767	-0.126251	-0.419362	-0.473145	-0.148926	0.435791	1.652420	-80.305621	159.209388
56682		7.754467	0.418205	4.380367	-0.006953	-0.222288	-0.493719	-0.464844	-0.161865	0.429443	3.359267	-80.423248	157.480249
56683		7.889156	0.149923	3.413722	0.126979	-0.223218	-0.547474	-0.460205	-0.165039	0.430908	5.366559	-80.530667	155.524605
56684		8.281183	-0.354668	2.760689	0.237611	-0.131222	-0.566441	-0.461670	-0.168457	0.434326	7.505888	-80.571654	153.500037
56685		9.136620	-0.595874	2.568263	0.326745	-0.059267	-0.525897	-0.459717	-0.171631	0.430176	9.530800	-80.564184	151.643089
56686		9.978621	-1.054128	2.524194	0.390129	0.271031	-0.430033	-0.462158	-0.165039	0.429199	11.048362	-80.369917	150.337105
56687		10.441616	-0.994048	2.924393	0.381593	0.267145	-0.268072	-0.460205	-0.178955	0.429199	11.981408	-80.192743	149.618223
56688		10.917492	-0.947162	2.849832	0.350946	0.204015	-0.132235	-0.459229	-0.185547	0.421631	12.481434	-80.064946	149.320956
56689		11.425696	-0.507012	3.391106	0.342144	0.206412	-0.030317	-0.460938	-0.176025	0.430176	12.641489	-79.949140	149.363402
56690		11.417331	-0.165055	3.610330	0.372805	0.187776	0.074149	-0.459717	-0.171143	0.426758	12.506331	-79.855865	149.723826
56691		10.950022	0.351759	3.783598	0.391081	0.114291	0.156110	-0.467773	-0.175293	0.420898	12.178275	-79.814360	150.290662
56692		10.342202	0.523408	3.715622	0.348038	-0.007995	0.242480	-0.453857	-0.181885	0.420898	11.640361	-79.850016	151.045930
56693		9.478348	0.339741	3.449513	0.292483	-0.052569	0.298356	-0.462891	-0.185791	0.423584	10.914249	-79.916270	151.959641
56694		9.186643	0.243517	3.318990	0.246625	-0.096003	0.343161	-0.465820	-0.178955	0.421143	10.034878	-80.008652	153.002359
56695		8.801951	0.173601	2.677008	0.206708	-0.085832	0.383233	-0.462402	-0.183105	0.425293	8.977096	-80.096663	154.202429
56696		8.377952	-0.038046	2.251829	0.162917	-0.009137	0.395976	-0.462646	-0.181641	0.423584	7.801239	-80.137546	155.496922
56697		7.707532	-0.270096	2.086066	0.136270	0.085363	0.369715	-0.461670	-0.179688	0.416992	6.647872	-80.118899	156.752769
56698		6.999906	-0.473867	1.986889	0.119634	0.147935	0.321885	-0.463623	-0.174072	0.419922	5.629310	-80.057001	157.862522
56699		6.626660	-0.368637	1.953111	0.123526	0.196573	0.279827	-0.461182	-0.169434	0.415771	4.746484	-79.962561	158.836693
56700		6.594835	-0.346161	1.888080	0.133661	0.185355	0.289020	-0.459961	-0.178223	0.421143	3.863096	-79.871788	159.817898
56701		6.635315	-0.290238	1.722708	0.158934	0.163747	0.299418	-0.475098	-0.172363	0.423340	2.978071	-79.791588	160.815444
56702		7.047196	-0.416497	1.609370	0.177628	0.206373	0.302870	-0.459717	-0.177490	0.417969	2.106251	-79.683895	161.811045
56703		6.992291	-0.432886	1.734483	0.166631	0.240917	0.288687	-0.467285	-0.174072	0.410889	1.286114	-79.554029	162.747767
56704		7.414258	-0.507150	1.837252	0.150080	0.143600	0.263697	-0.464600	-0.176514	0.415039	0.560958	-79.476971	163.578870
56705		7.998873	-0.966582	1.217195	0.139283	0.103473	0.202568	-0.479980	-0.173340	0.427246	0.024633	-79.421485	164.211464
56706		8.791485	-1.429065	0.939958	0.161806	0.170332	0.126232	-0.477539	-0.182861	0.411621	-0.255121	-79.326542	164.596613
56707		9.276536	-1.828225	0.869231	0.223165	0.241591	0.039099	-0.471680	-0.186523	0.416504	-0.234077	-79.191252	164.711186
56708		9.496855	-1.831441	0.772293	0.291627	0.290116	-0.038581	-0.471191	-0.178955	0.419922	0.061067	-79.027856	164.586978
56709		9.340486	-1.658395	0.762220	0.325809	0.341927	-0.101253	-0.474365	-0.184814	0.419189	0.546837	-78.834897	164.288029
56710		9.104693	-1.270307	0.860541	0.331124	0.307067	-0.148051	-0.474121	-0.173584	0.414307	1.161584	-78.660491	163.860874
56711		8.485657	-0.945748	0.767729	0.348747	0.235347	-0.177825	-0.484131	-0.177734	0.404785	1.856452	-78.526293	163.361638
56712		7.515860	-0.667860	0.773337	0.417637	0.183793	-0.209130	-0.474365	-0.180420	0.410400	2.674470	-78.419079	162.777202
56713		6.483634	-0.540682	0.712787	0.491903	0.138390	-0.275541	-0.482910	-0.185303	0.413574	3.709266	-78.334417	162.014259
56714		7.149196	0.086832	0.595732	0.558447	0.016344	-0.319973	-0.476563	-0.188477	0.413818	4.922951	-78.313983	161.107870
56715		7.977920	0.453270	0.171108	0.623661	-0.060211	-0.324637	-0.469238	-0.181641	0.412598	6.200970	-78.333589	160.173504
56716		8.761030	0.528796	-0.275502	0.697192	-0.002615	-0.304381	-0.474609	-0.190918	0.414551	7.452371	-78.316988	159.309779
56717		9.553516	0.375736	-0.430640	0.762717	0.106977	-0.263883	-0.479736	-0.188721	0.409668	8.579170	-78.238536	158.611077
56718		10.228956	0.140672	-0.200328	0.773691	0.237092	-0.225081	-0.469971	-0.191162	0.414063	9.541454	-78.086661	158.087024
56719		10.546878	0.057413	0.636428	0.690004	0.263596	-0.183643	-0.477783	-0.188721	0.412842	10.311986	-77.923136	157.709249
56720		11.345017	-0.073722	1.078208	0.549758	0.115381	-0.093315	-0.468506	-0.185303	0.415039	10.828934	-77.850883	157.508911
56721		11.616410	-0.162091	1.264954	0.402248	0.031380	-0.006982	-0.476074	-0.184326	0.417969	11.071873	-77.835887	157.501941
56722		11.269061	0.116113	1.407703	0.283006	0.053708	0.059497	-0.473633	-0.181641	0.413086	11.065209	-77.814759	157.680862
56723		10.842452	0.819789	1.370375	0.177391	0.064287	0.138262	-0.473389	-0.186279	0.419434	10.784611	-77.797061	158.077696
56724		10.950835	1.684641	1.139380	0.057067	-0.058025	0.236611	-0.481934	-0.183838	0.421631	10.241035	-77.857028	158.673446
56725		11.231460	1.988440	0.158853	-0.039801	-0.168358	0.320629	-0.469482	-0.190430	0.427979	9.459429	-77.986998	159.455213
56726		11.806855	1.633612	-0.560742	-0.048824	-0.134334	0.353497	-0.479980	-0.184814	0.416748	8.557159	-78.097318	160.355118
56727		12.091763	0.599473	-0.972404	0.015235	-0.054525	0.330916	-0.479248	-0.180908	0.425537	7.703960	-78.158677	161.241693
56728		12.413150	-0.467282	-1.079458	0.112063	0.065716	0.255403	-0.469482	-0.178955	0.424072	7.066471	-78.142774	161.964881
56729		12.987752	-1.340561	-0.389253	0.156256	0.188323	0.176538	-0.473633	-0.187988	0.426514	6.628066	-78.051474	162.510210
56730		13.470866	-1.860679	0.296353	0.089041	0.294123	0.120353	-0.475830	-0.180908	0.424316	6.281298	-77.894424	162.923141
56731		13.719937	-1.735559	0.777051	-0.034976	0.339633	0.109365	-0.483643	-0.182617	0.420166	5.886487	-77.711463	163.312321
56732		13.235051	-0.942797	2.951411	-0.131383	0.328848	0.144649	-0.480225	-0.181641	0.418213	5.363574	-77.534747	163.776835
56733		12.009647	0.011517	5.806261	-0.144148	0.107742	0.214334	-0.487793	-0.181885	0.418701	4.712433	-77.487990	164.364884
56734		11.209666	1.024207	7.287909	-0.006423	-0.409315	0.317167	-0.475098	-0.179199	0.424561	3.976690	-77.738309	165.120620
56735		11.090375	1.414330	6.255594	0.198207	-0.873107	0.448002	-0.474121	-0.175293	0.424561	3.036914	-78.257142	166.203216
56736		10.560815	1.049257	5.095841	0.335984	-0.932702	0.571250	-0.479980	-0.170410	0.422607	1.739274	-78.807508	167.729901
56737		9.769129	0.919289	3.855697	0.337348	-0.764860	0.627132	-0.465820	-0.170898	0.436768	0.122899	-79.255233	169.578960
56738		8.610822	0.789759	3.932061	0.275455	-0.466067	0.656272	-0.477051	-0.162598	0.435059	-1.734221	-79.519808	171.635145
56739		7.532608	0.512751	3.921110	0.155914	-0.408208	0.683794	-0.475098	-0.162109	0.443848	-3.838975	-79.737978	173.871410
56740		7.107244	0.382771	3.245056	0.019000	-0.398497	0.693636	-0.469971	-0.164795	0.446289	-6.136427	-79.933804	176.222718
56741		7.301022	0.176013	2.719908	-0.098593	-0.229322	0.660614	-0.465576	-0.158691	0.442627	-8.406394	-80.019716	178.476253
56742		7.819427	0.019717	2.458685	-0.174621	-0.081951	0.590976	-0.471436	-0.164307	0.442871	-10.438118	-80.013542	-179.556205
56743		8.520354	-0.012512	2.614523	-0.216360	0.026173	0.502253	-0.475098	-0.153809	0.443604	-12.138815	-79.945897	-177.949288
56744		9.375389	-0.119771	2.774831	-0.245344	-0.035418	0.358202	-0.473389	-0.153564	0.446777	-13.423552	-79.923254	-176.781062
56745		10.874399	-0.244739	2.744249	-0.240160	-0.123073	0.188336	-0.472412	-0.151611	0.447021	-14.244072	-79.969260	-176.081720
56746		12.375463	-0.280217	2.860902	-0.205283	-0.117670	0.014175	-0.471924	-0.156494	0.437744	-14.492957	-80.035538	-175.942253
56747		12.825803	-0.280695	3.008441	-0.163257	-0.002493	-0.126000	-0.469238	-0.153564	0.439209	-14.186819	-80.058106	-176.342254
56748		12.027341	-0.325653	2.951691	-0.144615	0.075119	-0.234489	-0.475342	-0.159424	0.441162	-13.458542	-80.051391	-177.159589
56749		10.731236	-0.030468	3.109907	-0.117285	0.120983	-0.281273	-0.464844	-0.171143	0.438965	-12.539306	-80.023381	-178.155331
56750		9.450998	0.330769	3.470760	-0.073880	0.013613	-0.265227	-0.470215	-0.161865	0.441406	-11.717571	-80.050650	-179.026451
56751		8.340397	0.678697	3.240568	-0.053356	-0.045968	-0.269518	-0.467285	-0.164551	0.439941	-10.907344	-80.110004	-179.874194
56752		7.863880	0.988024	2.766446	-0.058707	-0.119031	-0.289845	-0.463379	-0.161865	0.440918	-10.061581	-80.210237	179.239450
56753		7.555269	1.461006	2.445072	-0.102686	-0.137804	-0.309312	-0.463135	-0.172119	0.439209	-9.173393	-80.320879	178.284436
56754		7.152729	1.510772	2.201327	-0.156126	-0.107136	-0.307463	-0.464355	-0.166260	0.448975	-8.281851	-80.411218	177.295578
56755		7.005603	1.438201	2.107231	-0.186568	-0.162880	-0.304602	-0.467773	-0.174316	0.438965	-7.428371	-80.530674	176.327644
56756		7.249586	1.341115	1.821001	-0.207806	-0.268400	-0.324497	-0.466797	-0.169678	0.435791	-6.532701	-80.708827	175.305323
56757		7.393356	1.286557	1.416220	-0.249773	-0.268252	-0.345943	-0.465820	-0.174805	0.447266	-5.551521	-80.885666	174.172284
56758		7.570853	1.076346	1.436924	-0.313686	-0.233149	-0.354689	-0.459229	-0.181152	0.435059	-4.520681	-81.039464	172.952659
56759		7.855078	0.729262	1.179644	-0.363952	-0.196657	-0.349141	-0.455566	-0.179688	0.446289	-3.495922	-81.168965	171.710289
56760		8.045068	0.645300	1.142793	-0.389433	-0.098251	-0.311230	-0.455078	-0.184082	0.437744	-2.575283	-81.237475	170.559062
56761		8.006769	0.682411	1.337610	-0.418794	-0.093290	-0.251356	-0.456055	-0.187988	0.443115	-1.882196	-81.299591	169.621031
56762		8.137369	0.690082	1.345598	-0.444521	-0.103421	-0.182502	-0.454346	-0.195068	0.441650	-1.449706	-81.364688	168.932063
56763		8.066390	0.677845	1.410618	-0.476577	-0.068158	-0.128870	-0.454590	-0.191162	0.444580	-1.231306	-81.408548	168.440958
56764		7.931285	0.715088	1.262598	-0.507860	-0.039541	-0.088827	-0.455566	-0.200439	0.445068	-1.175050	-81.435084	168.095943
56765		7.961801	0.667220	1.073628	-0.536869	-0.025371	-0.066346	-0.454346	-0.202393	0.433594	-1.221574	-81.453501	167.837899
56766		8.218886	0.691524	0.966582	-0.572686	-0.021298	-0.045991	-0.459961	-0.205811	0.440674	-1.362993	-81.469113	167.655250
56767		8.345674	0.784518	1.006214	-0.615487	-0.040320	-0.006662	-0.453857	-0.205811	0.442383	-1.683648	-81.495411	167.628888
56768		8.490419	0.800986	0.936156	-0.667251	-0.081277	0.038537	-0.457275	-0.218506	0.434814	-2.211665	-81.544032	167.782357
56769		8.644184	0.728051	0.696615	-0.731074	-0.124212	0.079361	-0.462402	-0.216309	0.432617	-2.948509	-81.616212	168.109789
56770		8.660621	0.776707	0.402733	-0.788287	-0.140832	0.120308	-0.451172	-0.217773	0.434570	-3.889584	-81.695505	168.610592
56771		8.649866	0.749738	-0.125765	-0.845316	-0.110286	0.146707	-0.462891	-0.217773	0.430908	-4.973545	-81.755196	169.222538
56772		8.686609	0.592112	-0.583219	-0.896660	-0.019329	0.162853	-0.448242	-0.234375	0.429932	-6.123936	-81.760086	169.871972
56773		8.994577	0.282757	-0.875901	-0.920945	0.097593	0.158835	-0.449219	-0.226074	0.424805	-7.219131	-81.697252	170.451484
56774		9.064587	-0.009868	-1.242953	-0.913188	0.189527	0.132713	-0.454102	-0.222168	0.417969	-8.145296	-81.582388	170.864905
56775		9.361032	-0.271315	-1.316921	-0.853854	0.266112	0.091223	-0.461914	-0.236816	0.418945	-8.821212	-81.427266	171.059681
56776		9.974679	-0.505784	-0.916194	-0.772815	0.311960	0.045368	-0.458252	-0.243408	0.412842	-9.237951	-81.249596	171.039482
56777		10.156858	-0.388853	-0.525176	-0.699667	0.334504	0.015730	-0.465576	-0.232666	0.406982	-9.487314	-81.062526	170.892144
56778		10.594877	-0.397868	-0.033681	-0.640962	0.308261	-0.000712	-0.468506	-0.244629	0.405762	-9.656999	-80.891373	170.698268
56779		11.049795	-0.467707	0.636956	-0.576703	0.253440	-0.037647	-0.458008	-0.248291	0.408203	-9.696682	-80.755430	170.409751
56780		11.016360	-0.826918	1.150885	-0.499081	0.166350	-0.108738	-0.463867	-0.249268	0.396973	-9.499724	-80.674781	169.926593
56781		10.631072	-1.354929	1.117310	-0.390389	0.087730	-0.190328	-0.467285	-0.254150	0.395752	-9.011724	-80.646314	169.211347
56782		10.786494	-1.670788	0.915898	-0.250644	-0.012698	-0.265968	-0.470947	-0.253174	0.393066	-8.235397	-80.679288	168.285223
56783		10.801243	-1.884233	0.078162	-0.126247	-0.109977	-0.327162	-0.471680	-0.250977	0.404541	-7.213789	-80.770543	167.182761
56784		10.781501	-1.709175	-0.767591	-0.038718	-0.106615	-0.355324	-0.469238	-0.258789	0.399658	-6.017986	-80.857587	165.955114
56785		10.579467	-1.042899	-1.256605	0.009124	-0.083606	-0.314354	-0.464844	-0.262695	0.397949	-4.913981	-80.926103	164.848245
56786		10.679318	-0.294704	-1.329138	0.026350	-0.044605	-0.239099	-0.469238	-0.260498	0.391357	-4.042678	-80.965152	163.987395
56787		10.819443	0.622862	-0.485507	-0.001550	-0.015182	-0.154052	-0.466797	-0.271240	0.393311	-3.483263	-80.983394	163.425990
56788		10.906819	1.338313	0.799908	-0.076658	-0.111901	-0.088372	-0.458984	-0.269043	0.400146	-3.219014	-81.053214	163.120150
56789		11.480603	1.281275	1.680676	-0.127487	-0.242310	-0.076874	-0.462891	-0.261963	0.407959	-3.048967	-81.198071	162.880047
56790		12.079524	0.843975	2.240454	-0.065551	-0.260532	-0.109431	-0.462646	-0.269043	0.392090	-2.714955	-81.353156	162.510282
56791		12.227438	0.187424	3.152506	0.097765	-0.219381	-0.166366	-0.459473	-0.260010	0.400146	-2.051531	-81.486514	161.901952
56792		11.821068	-0.713419	4.155742	0.245626	-0.270539	-0.220699	-0.465088	-0.275635	0.404785	-1.073601	-81.647740	161.061754
56793		11.662268	-1.743201	4.042132	0.314183	-0.402505	-0.279888	-0.463867	-0.261719	0.403564	0.214438	-81.883263	159.948148
56794		11.254549	-2.434489	4.027569	0.305777	-0.361977	-0.381173	-0.457031	-0.270752	0.412109	1.983293	-82.089227	158.344921
56795		10.254054	-2.492939	4.802380	0.340186	-0.246203	-0.490622	-0.457520	-0.272705	0.406494	4.284240	-82.218275	156.224928
56796		9.792482	-2.150431	4.761830	0.417923	-0.286978	-0.592239	-0.449463	-0.271729	0.403564	7.153346	-82.350775	153.577399
56797		9.611583	-1.429083	3.788158	0.503280	-0.315644	-0.663258	-0.446533	-0.277588	0.416992	10.484471	-82.474571	150.513693
56798		9.692499	-0.762489	3.365673	0.528134	-0.165888	-0.679869	-0.445801	-0.278564	0.414551	13.843062	-82.487908	147.437346
56799		10.466564	0.158343	3.537613	0.544204	-0.027789	-0.583939	-0.446045	-0.282715	0.420654	16.640414	-82.418362	144.936007
56800		11.389405	1.128439	3.307244	0.512754	-0.089894	-0.436240	-0.446777	-0.284912	0.414795	18.858002	-82.393538	143.001323
56801		12.118870	1.890496	3.197803	0.452422	-0.041523	-0.295516	-0.446289	-0.287109	0.418457	20.387353	-82.361941	141.725801
56802		12.638253	2.724540	3.277530	0.389429	0.004098	-0.151824	-0.448730	-0.289551	0.423096	21.230604	-82.331059	141.106238
56803		12.402405	3.235560	3.099975	0.346992	0.058092	0.000248	-0.449707	-0.284668	0.414795	21.358281	-82.302812	141.183982
56804		11.555957	3.065832	2.981155	0.280755	0.099178	0.138278	-0.447998	-0.285156	0.418457	20.843099	-82.280526	141.872327
56805		10.440005	2.009545	2.958725	0.169553	0.131457	0.199706	-0.455566	-0.284912	0.415771	19.976726	-82.252481	142.850696
56806		9.496202	1.016788	3.240566	0.032433	0.150421	0.206675	-0.454590	-0.277100	0.421387	18.986735	-82.212985	143.874746
56807		9.258136	0.072333	3.379354	-0.104033	0.113406	0.222721	-0.457275	-0.280273	0.415039	17.911763	-82.194352	144.905609
56808		9.157060	-0.759528	2.961596	-0.212655	0.118561	0.235900	-0.455078	-0.284668	0.415283	16.722574	-82.172068	145.989105
56809		9.108391	-1.500836	2.277528	-0.256776	0.176738	0.222282	-0.453613	-0.278320	0.412109	15.502921	-82.112748	147.077818
56810		9.124324	-1.867797	1.998870	-0.242355	0.200705	0.244827	-0.456787	-0.285645	0.408936	14.197058	-82.039957	148.262210
56811		8.648673	-2.038280	1.794403	-0.189784	0.204645	0.243326	-0.458008	-0.285889	0.413086	12.944189	-81.961362	149.423571
56812		7.978468	-1.804806	1.803053	-0.108302	0.220063	0.246795	-0.467529	-0.280518	0.409912	11.737775	-81.870898	150.585559
56813		7.657600	-1.536607	1.783076	-0.014673	0.169834	0.270176	-0.465576	-0.292725	0.403320	10.553457	-81.808069	151.779454
56814		7.369116	-1.385859	1.575053	0.075726	0.145760	0.301209	-0.465088	-0.289795	0.402588	9.336785	-81.758173	153.058728
56815		7.342580	-0.993515	1.504834	0.141017	0.152472	0.339503	-0.461914	-0.271484	0.408203	8.016741	-81.703910	154.480217
56816		7.303036	-0.395776	1.464464	0.185375	0.125010	0.368163	-0.466553	-0.282959	0.410645	6.645276	-81.662413	155.979744
56817		6.938642	-0.109604	1.317330	0.219048	0.123024	0.384979	-0.474121	-0.266357	0.410645	5.239939	-81.617923	157.532947
56818		6.723830	-0.018098	1.279102	0.238074	0.069300	0.396076	-0.485107	-0.271240	0.405029	3.836557	-81.598993	159.095545
56819		7.191952	-0.012331	1.145921	0.241983	0.005419	0.407911	-0.477783	-0.272705	0.406738	2.403471	-81.611424	160.690219
56820		7.689479	-0.240547	0.901521	0.251030	0.010922	0.392401	-0.482666	-0.263428	0.406738	1.035921	-81.614677	162.224082
56821		8.175936	-0.699222	0.754469	0.275815	0.101774	0.331806	-0.487549	-0.267822	0.401855	-0.084913	-81.560779	163.522773
56822		8.572443	-1.132981	0.865642	0.319574	0.247555	0.240313	-0.483398	-0.259521	0.403320	-0.801362	-81.420679	164.438486
56823		8.950386	-1.394060	1.059806	0.373589	0.318821	0.134080	-0.481689	-0.263184	0.400146	-1.062460	-81.239645	164.925031
56824		9.275112	-1.341102	0.921661	0.431319	0.314554	0.038751	-0.480469	-0.258545	0.397217	-0.924926	-81.061874	165.042101
56825		9.028865	-1.252234	0.607798	0.486897	0.279039	-0.049252	-0.488281	-0.259766	0.400391	-0.447322	-80.905218	164.846869
56826		8.547651	-1.127836	0.302737	0.542322	0.231587	-0.124213	-0.487305	-0.259033	0.398193	0.318674	-80.775403	164.391882
56827		7.863458	-1.125581	-0.074723	0.605348	0.220467	-0.201598	-0.489502	-0.261719	0.397217	1.369271	-80.650284	163.684643
56828		7.297729	-1.006165	-0.207898	0.655509	0.265648	-0.287067	-0.489990	-0.250000	0.404053	2.715538	-80.495062	162.706832
56829		7.418936	-0.512486	-0.111095	0.681532	0.258777	-0.349504	-0.489746	-0.255615	0.396484	4.245884	-80.337814	161.556695
56830		8.466196	-0.007389	-0.159883	0.678458	0.175160	-0.338771	-0.488770	-0.260010	0.392090	5.726631	-80.223646	160.454945
56831		8.714549	0.214240	-0.258717	0.637188	0.187294	-0.311041	-0.491211	-0.256104	0.404785	7.054164	-80.100090	159.483975
56832		9.311248	0.434885	-0.078822	0.579033	0.160195	-0.236628	-0.484375	-0.254150	0.408936	8.097304	-79.993853	158.767901
56833		9.433556	0.326813	0.008351	0.510103	0.166301	-0.189268	-0.485840	-0.257568	0.402832	8.925263	-79.886525	158.229694
56834		10.415142	0.667778	0.741617	0.425406	0.082924	-0.143712	-0.484131	-0.246826	0.400146	9.595296	-79.828961	157.802812
56835		11.785515	0.877523	0.915223	0.354430	-0.027854	-0.047712	-0.497314	-0.262451	0.401855	9.974821	-79.843023	157.629399
56836		11.836523	0.819928	1.270189	0.330698	0.034580	0.054315	-0.493896	-0.255127	0.407227	9.989062	-79.831464	157.813606
56837		11.838835	1.080721	1.647978	0.299421	-0.015608	0.157525	-0.486572	-0.253662	0.403320	9.683889	-79.858702	158.303783
56838		11.837840	1.487767	1.304507	0.211213	-0.180385	0.266028	-0.486816	-0.250732	0.405029	9.068207	-79.988085	159.058199
56839		11.689852	1.614408	0.500126	0.082850	-0.265293	0.351549	-0.494385	-0.256592	0.407471	8.117968	-80.171523	160.076922
56840		11.378479	1.220012	-0.271753	-0.053053	-0.182427	0.376975	-0.488037	-0.245605	0.407959	6.937065	-80.306073	161.250498
56841		11.253243	0.642398	-0.806336	-0.138336	-0.025224	0.374941	-0.500000	-0.245850	0.397949	5.625287	-80.347083	162.506677
56842		10.964075	-0.245235	-1.197239	-0.176091	0.149798	0.328871	-0.497803	-0.252441	0.401611	4.394718	-80.280722	163.658859
56843		11.085367	-1.108005	-0.990233	-0.168539	0.301923	0.264955	-0.488037	-0.244873	0.410156	3.363616	-80.121675	164.613109
56844		11.601670	-1.806479	-0.720556	-0.176997	0.390769	0.192865	-0.499268	-0.251953	0.399658	2.582706	-79.906544	165.309232
56845		11.949316	-2.127959	-0.481414	-0.209122	0.419877	0.134878	-0.510742	-0.254395	0.392822	1.990117	-79.672656	165.795459
56846		12.037646	-2.032530	0.312812	-0.227120	0.363858	0.102273	-0.504639	-0.246826	0.392578	1.519678	-79.468831	166.147667
56847		12.037883	-1.553330	1.505456	-0.214085	0.230481	0.098061	-0.499756	-0.249268	0.389893	1.089031	-79.341597	166.466804
56848		11.749187	-1.155911	3.421279	-0.159203	0.007840	0.096873	-0.510498	-0.259521	0.387939	0.714793	-79.340756	166.760982
56849		11.448630	-0.846267	4.012516	-0.038404	-0.264811	0.121675	-0.512939	-0.252686	0.386963	0.334913	-79.496619	167.130836
56850		11.181796	-0.199274	3.771557	0.128268	-0.467567	0.149793	-0.507324	-0.253906	0.393555	-0.044789	-79.767526	167.597733
56851		10.848557	0.280601	3.994765	0.218285	-0.475291	0.196814	-0.504639	-0.252686	0.400635	-0.553528	-80.042694	168.247285
56852		9.809730	0.378678	4.243362	0.177323	-0.417998	0.264252	-0.500977	-0.253662	0.398193	-1.335500	-80.282481	169.150211
56853		9.003300	0.843841	3.790047	0.128465	-0.412671	0.339905	-0.503906	-0.258545	0.401367	-2.451609	-80.515718	170.362611
56854		8.460152	1.070509	4.457097	0.130708	-0.356022	0.415868	-0.502686	-0.251221	0.401367	-3.871995	-80.709121	171.884344
56855		7.837017	0.995939	4.320561	0.091305	-0.308656	0.476539	-0.509277	-0.253418	0.408691	-5.580802	-80.866135	173.674283
56856		7.369627	0.839210	3.426357	0.005378	-0.296458	0.521744	-0.500977	-0.242188	0.412354	-7.549886	-81.003625	175.677544
56857		7.292850	0.498983	2.826220	-0.059650	-0.237238	0.553773	-0.517090	-0.247314	0.409180	-9.699616	-81.093597	177.825008
56858		7.783327	0.164927	2.667062	-0.106323	-0.130861	0.553927	-0.505127	-0.248291	0.408936	-11.831951	-81.110927	179.927805
56859		8.546597	0.075553	2.794394	-0.109503	-0.100228	0.527680	-0.512451	-0.241455	0.418213	-13.855927	-81.102786	-178.081252
56860		9.577143	-0.143997	2.851864	-0.091925	-0.105380	0.476991	-0.504395	-0.240234	0.413574	-15.685849	-81.094477	-176.276181
56861		10.745657	-0.312694	3.007112	-0.052244	-0.071965	0.392981	-0.506348	-0.238281	0.410156	-17.163494	-81.073366	-174.804904
56862		12.379621	-0.492587	3.367179	0.010883	-0.016055	0.269980	-0.506836	-0.238037	0.411133	-18.104207	-81.038273	-173.840144
56863		13.375192	-0.677270	3.192476	0.076205	0.062135	0.113948	-0.517822	-0.242432	0.410645	-18.379253	-80.986964	-173.511603
56864		13.184932	-0.628119	2.707204	0.104171	0.134918	-0.022957	-0.512451	-0.238037	0.410645	-18.081976	-80.920660	-173.746028
56865		11.423696	-0.569090	2.819663	0.142459	0.239407	-0.108311	-0.511230	-0.242432	0.409668	-17.369742	-80.811802	-174.378860
56866		10.042643	-0.256234	3.350503	0.179881	0.143464	-0.146390	-0.520508	-0.242676	0.401367	-16.616472	-80.760703	-175.031403
56867		9.010924	0.108584	3.043618	0.223965	0.079079	-0.168671	-0.523682	-0.239258	0.419922	-15.836525	-80.747069	-175.685718
56868		8.481498	0.662782	2.448820	0.243477	0.061295	-0.185812	-0.517578	-0.240967	0.411621	-15.001723	-80.744510	-176.384025
56869		7.879767	0.974225	1.972676	0.237107	0.017912	-0.207452	-0.518555	-0.250244	0.410156	-14.138539	-80.767308	-177.115021
56870		7.624065	0.904910	1.848612	0.217000	0.020357	-0.235710	-0.518066	-0.234619	0.414063	-13.180176	-80.790846	-177.953808
56871		7.612177	0.892555	1.625237	0.208378	-0.072456	-0.251423	-0.516602	-0.250977	0.411865	-12.241439	-80.865859	-178.777834
56872		7.543763	0.983262	1.436638	0.195165	-0.135276	-0.274262	-0.521240	-0.248047	0.411865	-11.256241	-80.976706	-179.656132
56873		7.148737	1.199540	1.330954	0.151082	-0.123739	-0.277207	-0.510742	-0.254883	0.408447	-10.258717	-81.078820	179.427573
56874		7.643827	1.217621	1.329971	0.077872	-0.113859	-0.244114	-0.515381	-0.256348	0.413818	-9.392811	-81.169914	178.602486
56875		8.153820	1.299070	1.308102	-0.010588	-0.088879	-0.231686	-0.515869	-0.263672	0.415771	-8.595282	-81.243778	177.795305
56876		8.417973	1.489588	1.333695	-0.093624	-0.076680	-0.192095	-0.518555	-0.256592	0.413818	-7.969851	-81.306036	177.114434
56877		8.786669	1.822657	1.480235	-0.182690	-0.038309	-0.123362	-0.517090	-0.257568	0.428467	-7.626909	-81.340187	176.667632
56878		8.768489	1.871082	1.492138	-0.274743	-0.013138	-0.039788	-0.518311	-0.261475	0.415527	-7.631533	-81.353592	176.519231
56879		8.682510	1.806782	1.150436	-0.367442	0.005655	0.009283	-0.513672	-0.261230	0.412842	-7.865024	-81.352484	176.548486
56880		8.581586	1.684795	0.799819	-0.459052	0.037616	0.021385	-0.513916	-0.264648	0.409424	-8.177217	-81.332356	176.604380
56881		8.390705	1.327765	0.631506	-0.555483	0.100867	0.018651	-0.521729	-0.273682	0.421387	-8.500723	-81.276473	176.615737
56882		8.103318	1.044696	0.679002	-0.633477	0.158684	0.011540	-0.516846	-0.269531	0.408936	-8.806878	-81.188525	176.564418
56883		7.964271	0.655309	0.733785	-0.699200	0.187753	0.012832	-0.528809	-0.270752	0.402832	-9.137324	-81.084008	176.499485
56884		8.195799	0.346768	0.603405	-0.763757	0.189636	0.010362	-0.534424	-0.279785	0.399902	-9.490455	-80.978764	176.420127
56885		8.241759	0.323374	0.349309	-0.816569	0.197543	0.008122	-0.533691	-0.272949	0.399658	-9.858952	-80.869330	176.325597
56886		8.074825	0.450446	0.244751	-0.869865	0.206825	0.017631	-0.531494	-0.278076	0.393799	-10.280913	-80.753835	176.254328
56887		8.238835	0.341917	0.090830	-0.905240	0.181298	0.039957	-0.529297	-0.294922	0.393799	-10.812147	-80.650496	176.273168
56888		8.392610	0.366236	-0.065343	-0.936497	0.139967	0.041963	-0.531494	-0.285645	0.399170	-11.388596	-80.570130	176.319749
56889		8.489107	0.431713	-0.337785	-0.953029	0.107334	0.053518	-0.530518	-0.288818	0.393311	-12.031463	-80.506726	176.424014
56890		8.858241	0.324715	-0.484575	-0.951377	0.124195	0.047635	-0.535889	-0.301270	0.389648	-12.635848	-80.434348	176.490296
56891		9.372878	0.310157	-0.728921	-0.962734	0.165005	0.029314	-0.530762	-0.307861	0.378174	-13.151444	-80.341563	176.459888
56892		10.027175	0.229634	-0.659832	-0.975528	0.306764	0.006670	-0.544189	-0.305664	0.375244	-13.487577	-80.172625	176.239994
56893		10.296368	0.108599	-0.173467	-0.975386	0.386138	-0.027897	-0.543457	-0.314697	0.375732	-13.653324	-79.964526	175.847024
56894		10.161338	0.038151	0.400590	-0.938461	0.262732	-0.054107	-0.533936	-0.326172	0.362305	-13.813040	-79.828635	175.469265
56895		10.109944	-0.301204	1.011419	-0.858002	0.105008	-0.086369	-0.544189	-0.321777	0.362061	-13.949378	-79.785380	175.114432
56896		10.427969	-0.956274	1.343241	-0.717189	-0.012004	-0.153570	-0.547119	-0.324707	0.364502	-13.886441	-79.816202	174.639147
56897		10.611090	-1.693362	1.289065	-0.555521	-0.128291	-0.226172	-0.548096	-0.328369	0.362793	-13.590143	-79.921683	174.020942
56898		10.764635	-2.364855	0.667959	-0.393510	-0.186494	-0.278090	-0.548584	-0.335938	0.360596	-13.067949	-80.065370	173.267911
56899		11.007463	-2.739649	-0.389160	-0.251242	-0.254448	-0.326605	-0.541748	-0.335205	0.366211	-12.336511	-80.252057	172.385535
56900		11.135530	-2.393930	-1.300822	-0.149713	-0.211168	-0.330519	-0.541016	-0.335449	0.354248	-11.471953	-80.412479	171.427678
56901		10.847531	-1.392369	-1.367593	-0.098077	-0.065588	-0.284485	-0.539795	-0.332031	0.362061	-10.612319	-80.483971	170.505012
56902		10.804271	-0.382785	-1.119855	-0.089764	-0.016943	-0.218528	-0.545898	-0.344971	0.367676	-9.928113	-80.518797	169.765314
56903		11.240387	0.300941	-0.679749	-0.095689	0.010467	-0.167259	-0.546875	-0.351563	0.360596	-9.402667	-80.532461	169.183033
56904		11.562690	0.781559	0.574061	-0.125037	-0.021302	-0.156722	-0.548096	-0.349609	0.362305	-8.943572	-80.561762	168.651155
56905		11.943716	0.716862	1.395041	-0.154730	-0.241605	-0.183313	-0.542969	-0.352539	0.361084	-8.521259	-80.718088	168.139313
56906		12.443387	0.347790	1.535471	-0.112295	-0.298537	-0.238017	-0.544678	-0.355469	0.366211	-7.891489	-80.909781	167.442346
56907		12.257358	0.065963	2.420978	-0.075339	-0.255456	-0.279802	-0.541260	-0.353516	0.364014	-7.042217	-81.079308	166.544799
56908		11.532337	-0.373052	3.103534	-0.083158	-0.369694	-0.287651	-0.542236	-0.361572	0.367676	-6.179164	-81.311605	165.629397
56909		10.999715	-0.604384	3.318420	-0.099930	-0.469317	-0.311681	-0.543213	-0.364990	0.376709	-5.220950	-81.600431	164.608564
56910		10.481007	-0.367624	3.795935	-0.066805	-0.411791	-0.373748	-0.531982	-0.369141	0.374512	-3.907906	-81.855556	163.249187
56911		9.856415	-0.677353	3.716064	0.041139	-0.312925	-0.466784	-0.539551	-0.365479	0.373779	-2.048977	-82.051925	161.401619
56912		9.360820	-1.076721	4.165177	0.176521	-0.188606	-0.587564	-0.536621	-0.370850	0.384277	0.484422	-82.167411	158.952261
56913		9.045277	-1.375451	4.261262	0.302861	-0.190443	-0.714137	-0.534668	-0.378174	0.381348	3.692624	-82.264788	155.895413
56914		9.248739	-1.571389	3.812161	0.435091	-0.234770	-0.804443	-0.525146	-0.380127	0.384766	7.453169	-82.356623	152.358457
56915		9.696676	-1.587838	3.236756	0.537490	-0.095157	-0.832508	-0.522949	-0.384521	0.388184	11.346179	-82.335450	148.747229
56916		10.111222	-1.281036	3.054801	0.582505	-0.013206	-0.776641	-0.537354	-0.387939	0.387939	14.912681	-82.244174	145.491140
56917		11.106107	-0.783372	2.756301	0.585448	0.221843	-0.622011	-0.520264	-0.391113	0.388672	17.486989	-82.025358	143.237035
56918		12.034121	0.159420	3.052363	0.554656	0.053605	-0.392948	-0.520752	-0.383301	0.390625	19.271680	-81.927516	141.761781
56919		12.811737	1.125032	2.892987	0.535030	0.035032	-0.187992	-0.526855	-0.392090	0.397949	20.261359	-81.874762	141.077785
56920		12.335645	1.903200	3.410399	0.515544	0.121626	-0.012937	-0.521240	-0.389160	0.390625	20.456241	-81.809084	141.185459
56921		11.227493	2.381946	3.534924	0.495367	0.097608	0.141178	-0.535400	-0.390869	0.405029	20.097748	-81.787137	141.840446
56922		10.547005	2.446837	3.358235	0.439091	0.021722	0.254704	-0.528564	-0.386475	0.391113	19.386003	-81.826974	142.819848
56923		9.990746	1.909279	3.151820	0.344653	-0.037658	0.342935	-0.538330	-0.378662	0.395996	18.349302	-81.913364	144.072610
56924		9.361524	0.962135	3.017452	0.238666	-0.063186	0.376436	-0.537109	-0.377686	0.415527	17.128595	-82.015891	145.449661
56925		9.327855	0.182889	2.743553	0.137760	-0.101789	0.383273	-0.538086	-0.380371	0.396484	15.831701	-82.136545	146.844823
56926		9.365953	-0.634970	2.200679	0.048730	-0.062047	0.361842	-0.537842	-0.377686	0.408691	14.489123	-82.227491	148.234315
56927		8.808259	-1.187381	1.658536	0.004996	0.045923	0.315259	-0.541016	-0.382568	0.409180	13.176616	-82.247590	149.567916
56928		8.615022	-1.261947	1.477433	-0.009104	0.112484	0.258680	-0.543701	-0.371582	0.401855	12.026265	-82.219513	150.729790
56929		8.227577	-1.282424	1.544431	-0.003473	0.129096	0.218671	-0.539063	-0.371582	0.407959	11.036782	-82.174601	151.732559
56930		7.672825	-1.070341	1.550006	0.005289	0.147327	0.169508	-0.545898	-0.367188	0.409912	10.252842	-82.112122	152.533126
56931		7.585795	-0.760716	1.580681	0.024944	0.138196	0.155166	-0.552979	-0.367676	0.404297	9.554712	-82.051957	153.258437
56932		7.805770	-0.666608	1.342300	0.049316	0.123986	0.161043	-0.548096	-0.375488	0.412354	8.868715	-81.999186	153.985804
56933		7.740660	-0.355934	1.155248	0.083744	0.191235	0.191592	-0.547852	-0.363281	0.403076	8.048872	-81.909521	154.868278
56934		7.598390	-0.260630	1.158562	0.108044	0.210653	0.211776	-0.562988	-0.364014	0.394043	7.174633	-81.808581	155.820093
56935		7.432767	-0.287297	1.159385	0.137375	0.217551	0.208828	-0.560791	-0.363525	0.395020	6.345605	-81.701481	156.743330
56936		7.520315	-0.425086	1.167318	0.176401	0.189973	0.188377	-0.564941	-0.372314	0.400391	5.653020	-81.607172	157.551625
56937		7.604056	-0.649853	1.018941	0.232243	0.175773	0.162141	-0.565430	-0.362793	0.402100	5.111663	-81.518240	158.239441
56938		7.939993	-0.855008	0.905012	0.278552	0.160782	0.126512	-0.562988	-0.363770	0.402832	4.751608	-81.435380	158.771046
56939		8.339623	-1.032007	0.800779	0.333664	0.188981	0.088165	-0.562256	-0.358398	0.404297	4.564677	-81.334204	159.159471
56940		8.708968	-1.096576	0.918364	0.382711	0.208069	0.067737	-0.568115	-0.359619	0.395020	4.485217	-81.221121	159.467856
56941		8.985859	-1.017358	0.812978	0.421941	0.174785	0.071973	-0.570068	-0.361084	0.398438	4.423868	-81.127144	159.780580
56942		8.937553	-0.838211	0.365492	0.460656	0.158183	0.074199	-0.568604	-0.357178	0.410889	4.387724	-81.042747	160.090485
56943		8.645040	-0.763545	-0.017803	0.505137	0.189124	0.047145	-0.566650	-0.352783	0.402832	4.465951	-80.939486	160.310291
56944		8.045571	-0.830306	-0.110539	0.536922	0.244140	-0.002250	-0.574951	-0.348877	0.405273	4.726202	-80.802648	160.364441
56945		7.421870	-0.885239	0.017237	0.548007	0.299551	-0.095333	-0.578369	-0.352783	0.401611	5.292638	-80.629636	160.114599
56946		7.746051	-0.586907	0.118851	0.541392	0.248054	-0.180351	-0.581787	-0.355469	0.406738	6.150145	-80.480587	159.565931
56947		8.443219	-0.145643	0.229251	0.533504	0.185492	-0.224074	-0.583496	-0.352783	0.411621	7.149989	-80.362900	158.867896
56948		8.905842	0.018990	0.277963	0.533155	0.155154	-0.229832	-0.589355	-0.350098	0.408691	8.165230	-80.259870	158.154030
56949		8.760227	-0.084840	0.207200	0.553598	0.173906	-0.225746	-0.578369	-0.353271	0.399902	9.147870	-80.144648	157.484675
56950		8.647913	-0.202326	0.241268	0.562872	0.167551	-0.233571	-0.579346	-0.346680	0.410156	10.148308	-80.030145	156.802640
56951		9.152555	-0.083302	0.450800	0.558559	0.067624	-0.225950	-0.583740	-0.348877	0.407227	11.161517	-79.970888	156.104710
56952		9.726095	0.023021	0.397340	0.575835	-0.033715	-0.185266	-0.586914	-0.351807	0.406006	12.116793	-79.970907	155.475835
56953		10.306608	0.006334	0.609385	0.593150	-0.065771	-0.107174	-0.583984	-0.353760	0.419434	12.854923	-79.997185	155.077326
56954		10.819177	-0.082228	0.859237	0.612574	-0.032483	-0.035112	-0.584961	-0.344727	0.423584	13.356853	-80.013221	154.930225
56955		11.457658	-0.113681	1.086768	0.587256	-0.074544	0.064182	-0.582764	-0.346191	0.421387	13.559222	-80.066093	155.072309
56956		11.380468	-0.028591	0.636875	0.486897	-0.132787	0.143831	-0.586670	-0.340332	0.419434	13.496606	-80.161799	155.425218
56957		11.134692	0.202650	0.236659	0.318742	-0.141506	0.183639	-0.586182	-0.349609	0.428711	13.207178	-80.267798	155.910159
56958		10.937354	0.538835	-0.195877	0.150019	-0.168705	0.209970	-0.590332	-0.336426	0.425781	12.748674	-80.391483	156.468632
56959		10.870029	0.455096	-1.198836	0.072076	-0.190324	0.231205	-0.591064	-0.340332	0.426514	12.173261	-80.529442	157.099903
56960		11.020566	0.035517	-1.968759	0.094530	-0.040552	0.235966	-0.591553	-0.335693	0.430908	11.476569	-80.582399	157.867237
56961		10.955953	-0.555369	-2.132547	0.159826	0.179003	0.209153	-0.598877	-0.339111	0.427734	10.756064	-80.507905	158.696406
56962		11.385253	-0.965834	-1.589041	0.258328	0.337528	0.172826	-0.608398	-0.340820	0.424805	10.134667	-80.338217	159.482855
56963		12.109419	-1.239773	-0.528101	0.285564	0.370059	0.171849	-0.600342	-0.341553	0.416260	9.535461	-80.149320	160.262756
56964		12.705634	-0.864087	0.949566	0.183794	0.271424	0.205157	-0.608398	-0.330811	0.425537	8.849856	-80.017160	161.071835
56965		13.271950	-0.137289	2.725298	-0.011486	0.030816	0.275227	-0.610596	-0.328613	0.434570	7.953132	-80.026031	161.981512
56966		13.094719	0.659697	4.293455	-0.200377	-0.242641	0.357016	-0.608643	-0.321777	0.423584	6.791596	-80.192790	163.050202
56967		13.058315	1.521383	5.556297	-0.198218	-0.366626	0.440449	-0.615967	-0.324707	0.430664	5.348704	-80.431662	164.404607
56968		12.280369	2.312073	6.440468	-0.081314	-0.592130	0.530194	-0.609131	-0.323242	0.432129	3.644962	-80.796440	166.090398
56969		11.254655	2.196931	5.849474	0.048330	-0.819875	0.636479	-0.615967	-0.314697	0.434326	1.505619	-81.285373	168.290053
56970		9.847187	1.517040	5.099081	0.104262	-0.753389	0.702391	-0.616699	-0.311279	0.444580	-1.105077	-81.721350	170.996240
56971		9.115136	1.031357	4.206087	0.050725	-0.603547	0.709049	-0.614258	-0.312256	0.446045	-4.022729	-82.051830	173.978633
56972		7.975121	0.479832	4.218761	-0.064684	-0.373745	0.700754	-0.620605	-0.306396	0.461670	-7.093145	-82.229030	177.046874
56973		7.492957	0.251038	3.978760	-0.211457	-0.315205	0.706347	-0.629883	-0.303223	0.447266	-10.364435	-82.349170	-179.768337
56974		7.900240	0.177572	3.347026	-0.343579	-0.142432	0.718695	-0.618164	-0.293701	0.457520	-13.675960	-82.346197	-176.619561
56975		7.878158	0.165987	3.054684	-0.389679	0.004430	0.690593	-0.619873	-0.297119	0.458252	-16.711919	-82.242926	-173.775312
56976		8.637997	-0.067021	2.890239	-0.333968	0.041560	0.599667	-0.619629	-0.294922	0.455566	-19.222209	-82.117266	-171.428475
56977		10.076589	-0.290213	2.921661	-0.214947	0.060059	0.464551	-0.627197	-0.294678	0.452393	-21.048124	-81.996151	-169.703263
56978		11.817977	-0.743058	3.159770	-0.088804	0.062357	0.309210	-0.629395	-0.289795	0.445557	-22.164319	-81.900702	-168.621203
56979		12.971217	-1.193996	3.923491	-0.008454	0.003687	0.190748	-0.635986	-0.292969	0.454834	-22.868296	-81.859658	-167.909019
56980		13.348974	-1.295924	3.800892	-0.000458	-0.088146	0.105225	-0.627930	-0.288818	0.464844	-23.390158	-81.885428	-167.375985
56981		13.061265	-1.078456	2.962168	-0.039125	-0.101829	0.047238	-0.633789	-0.291016	0.453613	-23.748573	-81.930758	-167.030634
56982		11.875926	-0.614738	2.528843	-0.059089	0.033400	-0.011297	-0.631592	-0.288330	0.460938	-23.681083	-81.918847	-167.126852
56983		10.475706	0.216296	2.958103	-0.045704	0.124513	-0.045545	-0.629883	-0.290771	0.462891	-23.336826	-81.866474	-167.495056
56984		9.619488	1.090003	3.098999	-0.036546	0.059599	-0.064960	-0.627686	-0.287842	0.466064	-23.019072	-81.852739	-167.831054
56985		8.887290	1.618921	2.638960	-0.051313	0.019516	-0.086727	-0.625977	-0.285889	0.454346	-22.694644	-81.864342	-168.182480
56986		8.461899	1.883205	2.514994	-0.082142	-0.010454	-0.142762	-0.641602	-0.285400	0.451660	-22.221859	-81.904133	-168.701446
56987		8.090487	1.907114	2.156619	-0.119043	-0.008082	-0.182484	-0.632324	-0.292969	0.464600	-21.614015	-81.950052	-169.378222
56988		7.865584	1.807693	1.871840	-0.137261	-0.020452	-0.230627	-0.646729	-0.290527	0.456299	-20.842207	-82.011831	-170.230931
56989		7.631567	1.647248	1.835575	-0.153411	-0.083804	-0.274081	-0.632080	-0.299072	0.457031	-19.989131	-82.114211	-171.174932
56990		7.273302	1.383397	1.723094	-0.168200	-0.075608	-0.317564	-0.630371	-0.293213	0.465820	-18.936528	-82.218692	-172.328591
56991		7.266087	1.272693	1.600481	-0.194229	-0.076973	-0.338200	-0.631592	-0.302979	0.461670	-17.788325	-82.324194	-173.593526
56992		7.349000	1.063859	1.468129	-0.245142	-0.103579	-0.345796	-0.633301	-0.302979	0.456543	-16.636997	-82.442519	-174.890672
56993		7.486030	0.898535	1.448256	-0.304073	-0.131818	-0.336088	-0.639160	-0.311035	0.468018	-15.555833	-82.571067	-176.150753
56994		7.820512	0.645390	1.415404	-0.347019	-0.143911	-0.296131	-0.643066	-0.310547	0.467285	-14.644814	-82.697870	-177.263701
56995		8.180526	0.524692	1.413983	-0.388459	-0.094213	-0.247608	-0.631348	-0.319824	0.464844	-13.883141	-82.787716	-178.249766
56996		8.418893	0.478270	1.458541	-0.437738	-0.019787	-0.183832	-0.632324	-0.316895	0.465332	-13.334490	-82.826497	-179.049435
56997		8.508734	0.562324	1.298978	-0.484779	0.025191	-0.121930	-0.630127	-0.315918	0.461914	-13.035879	-82.830936	-179.624213
56998		8.442108	0.671300	1.122811	-0.525701	0.081640	-0.073222	-0.634521	-0.326660	0.460938	-12.919807	-82.797750	179.961337
56999		8.355365	0.763115	1.074140	-0.558273	0.126353	-0.039599	-0.633789	-0.331787	0.458008	-12.928004	-82.734821	179.653313
57000		8.259302	0.796391	1.211492	-0.581564	0.152857	-0.008038	-0.644531	-0.329346	0.459717	-13.062972	-82.653493	179.459577
57001		8.235900	0.736427	1.286144	-0.608890	0.139237	0.017008	-0.647705	-0.331787	0.453613	-13.334540	-82.576165	179.387794
57002		8.330013	0.824191	1.269706	-0.642712	0.051090	0.059137	-0.644287	-0.337646	0.446777	-13.892873	-82.542719	179.585626
57003		8.539824	0.665260	1.119234	-0.706443	-0.007411	0.100831	-0.638672	-0.325195	0.450684	-14.723302	-82.535133	-179.978892
57004		8.615115	0.641806	0.883348	-0.771798	-0.037248	0.131893	-0.640381	-0.336426	0.447754	-15.756273	-82.538850	-179.376949
57005		8.627077	0.629936	0.706084	-0.839915	-0.042524	0.156067	-0.647705	-0.336426	0.442871	-16.935803	-82.539669	-178.666501
57006		8.838365	0.510756	0.340320	-0.877562	-0.077945	0.166857	-0.645020	-0.349365	0.439209	-18.230787	-82.556362	-177.861444
57007		8.876784	0.417237	0.202876	-0.887157	-0.060711	0.157222	-0.646240	-0.347900	0.446289	-19.469367	-82.562827	-177.118763
57008		8.833967	0.293272	0.073433	-0.862535	-0.080300	0.145060	-0.642334	-0.350342	0.437256	-20.676698	-82.580522	-176.393461
57009		8.894040	0.052337	0.077259	-0.828776	-0.094434	0.114115	-0.647705	-0.355713	0.435547	-21.763440	-82.609997	-175.770219
57010		8.832636	-0.264229	0.086938	-0.797791	-0.156526	0.091590	-0.651611	-0.352783	0.437500	-22.854407	-82.676056	-175.124961
57011		9.116935	-0.647710	-0.046029	-0.777193	-0.243136	0.051751	-0.645996	-0.347412	0.443115	-23.940210	-82.794878	-174.473070
57012		8.998006	-0.649724	-0.401642	-0.770932	-0.273565	0.025574	-0.644287	-0.359619	0.436523	-25.002214	-82.934476	-173.841809
57013		8.856551	-0.604395	-0.462763	-0.775522	-0.257638	0.022005	-0.647949	-0.355957	0.440186	-26.051381	-83.065034	-173.226251
57014		9.064240	-0.401984	-0.513060	-0.796524	-0.232594	-0.001639	-0.649902	-0.356445	0.441162	-26.990452	-83.187695	-172.733935
57015		9.668085	-0.015296	-0.766580	-0.844892	-0.203573	-0.054659	-0.647217	-0.372314	0.440430	-27.687116	-83.308514	-172.513697
57016		10.480952	0.428672	-0.868825	-0.900850	-0.077207	-0.121361	-0.643311	-0.370361	0.434082	-27.849184	-83.383044	-172.864058
57017		10.819206	0.683382	-0.858516	-0.906964	-0.253899	-0.176083	-0.641357	-0.377930	0.433105	-28.183162	-83.561754	-173.044770
57018		10.932211	0.518709	-1.048349	-0.862080	-0.300171	-0.188779	-0.653076	-0.381836	0.431641	-28.552962	-83.767465	-173.163551
57019		11.214258	0.519735	-1.077090	-0.797314	-0.103864	-0.186420	-0.648438	-0.385742	0.422852	-28.400521	-83.873680	-173.770211
57020		11.341306	0.480148	-0.833664	-0.720545	-0.012270	-0.177520	-0.639404	-0.389648	0.428223	-28.002498	-83.930932	-174.579574
57021		10.909621	0.043485	-0.997326	-0.647393	0.010695	-0.142067	-0.655273	-0.385010	0.431885	-27.662956	-83.966578	-175.287858
57022		10.409173	-0.242986	-1.186877	-0.588986	-0.048565	-0.084317	-0.647461	-0.386963	0.426758	-27.713741	-84.016657	-175.570006
57023		10.126325	-0.219626	-0.979730	-0.540992	-0.095066	-0.002107	-0.652588	-0.390137	0.436279	-28.254263	-84.068456	-175.332040
57024		9.779108	-0.071963	-1.145175	-0.518052	-0.072988	0.085291	-0.650391	-0.407715	0.426025	-29.155257	-84.084651	-174.718511
57025		9.747086	0.056733	-0.925657	-0.492351	0.024040	0.155325	-0.655762	-0.397461	0.415283	-30.112114	-84.031865	-174.033957
57026		9.682293	0.087634	-0.605519	-0.434097	0.071486	0.182183	-0.648682	-0.406494	0.415771	-31.014974	-83.946489	-173.370087
57027		9.654471	-0.170362	-0.608846	-0.381191	-0.068360	0.188644	-0.652100	-0.404053	0.422607	-32.291078	-83.926347	-172.300293
57028		9.759201	-0.687004	-0.200785	-0.308132	-0.110818	0.154546	-0.652344	-0.403076	0.429443	-33.490593	-83.934529	-171.265443
57029		10.191395	-1.551293	0.285545	-0.105143	0.091194	0.078549	-0.661133	-0.397705	0.422852	-33.630734	-83.869370	-171.178952
57030		10.351115	-2.083302	1.640149	0.135405	0.369909	-0.024008	-0.658936	-0.402100	0.420654	-32.386186	-83.702072	-172.346697
57031		10.618820	-2.234758	5.343106	0.286465	0.372137	-0.123748	-0.654541	-0.399170	0.412598	-30.679784	-83.560660	-173.892411
57032		11.913987	-2.903503	7.651809	0.425636	0.062501	-0.270129	-0.653320	-0.397461	0.414551	-29.081321	-83.609697	-175.249417
57033		13.883283	-5.337919	6.548520	0.811984	-0.221759	-0.480691	-0.650879	-0.400391	0.429443	-26.941831	-83.854317	-176.927595
57034		14.393909	-7.956033	5.044132	1.232993	-0.418702	-0.732968	-0.647949	-0.395020	0.429443	-23.566763	-84.253565	-179.604506
57035		12.748143	-7.420752	3.339918	1.373881	-0.665226	-0.835801	-0.657227	-0.399414	0.438965	-19.592942	-84.787181	177.200363
57036		10.974609	-4.795747	1.750398	1.431366	-0.430671	-0.718688	-0.647461	-0.402832	0.451660	-15.136562	-85.148767	173.556163
57037		9.487580	-1.242301	2.275366	1.547326	-0.122603	-0.521881	-0.646484	-0.392578	0.454590	-10.948584	-85.287461	170.249246
57038		9.363744	1.814249	2.980873	1.596084	0.052052	-0.317837	-0.645996	-0.391113	0.469727	-7.780833	-85.290607	167.994450
57039		9.173553	3.316004	3.230279	1.580748	0.350849	-0.137750	-0.645508	-0.374023	0.471436	-5.650341	-85.102799	166.771388
57040		8.915597	3.610266	3.562073	1.509078	0.401399	-0.021164	-0.652100	-0.375244	0.476074	-4.402130	-84.877644	166.392451
57041		9.277139	3.292190	3.727666	1.407430	0.281996	0.049434	-0.645020	-0.366699	0.479492	-3.764958	-84.716964	166.568471
57042		10.063014	2.900926	4.171056	1.275643	0.161732	0.064859	-0.653564	-0.354004	0.478027	-3.353906	-84.625030	166.895804
57043		11.077794	2.283550	4.128778	1.153305	0.096221	0.065076	-0.662842	-0.356201	0.479248	-3.038079	-84.570288	167.248456
57044		11.769357	1.304564	4.037162	1.026270	0.178758	0.053501	-0.658936	-0.347412	0.477539	-2.699557	-84.469309	167.505198
57045		11.975112	0.659865	3.951981	0.927209	0.228869	0.001656	-0.658936	-0.346191	0.487549	-2.104854	-84.340518	167.447622
57046		11.517557	0.080023	4.054716	0.903183	0.221405	-0.070588	-0.658691	-0.339600	0.489990	-1.131682	-84.217681	166.995766
57047		11.168009	-0.898706	3.683259	0.939022	0.233976	-0.148826	-0.659180	-0.341309	0.487793	0.266319	-84.086396	166.137482
57048		10.622741	-1.626200	3.506331	0.971818	0.329119	-0.204789	-0.664307	-0.329102	0.490967	1.920840	-83.898386	165.039826
57049		9.930527	-2.110340	3.706033	0.998842	0.329588	-0.219578	-0.660156	-0.328125	0.490967	3.584430	-83.705692	163.948304
57050		9.419315	-2.340290	3.464537	1.036346	0.296866	-0.220566	-0.662109	-0.319824	0.494141	5.206029	-83.529111	162.920197
57051		9.229555	-2.146734	3.030985	1.120042	0.390275	-0.214054	-0.658936	-0.324463	0.489014	6.720121	-83.295788	162.048213
57052		8.909340	-1.805045	2.841411	1.243748	0.495419	-0.182482	-0.662354	-0.319580	0.493408	8.011192	-83.003500	161.471726
57053		8.397231	-1.617117	2.821663	1.387446	0.538726	-0.116369	-0.658936	-0.304199	0.496826	8.984616	-82.690081	161.297999
57054		8.195304	-1.387970	2.932330	1.534159	0.499970	-0.021545	-0.671387	-0.307129	0.494141	9.620625	-82.407972	161.549200
57055		7.764943	-1.116993	3.135212	1.635462	0.400336	0.116811	-0.673584	-0.293213	0.499268	9.799180	-82.194791	162.320727
57056		7.387911	-0.819422	3.127068	1.679498	0.216101	0.248645	-0.677490	-0.288330	0.512451	9.609445	-82.099325	163.489788
57057		7.360112	-0.407456	3.051103	1.692968	0.065053	0.346960	-0.668457	-0.278076	0.508301	9.137807	-82.096485	164.951373
57058		7.809046	-0.011462	2.850841	1.719931	-0.027781	0.412906	-0.677002	-0.255615	0.511963	8.467950	-82.151017	166.628579
57059		8.411760	0.322501	2.639407	1.760562	-0.076082	0.464195	-0.681885	-0.255127	0.524170	7.615805	-82.232914	168.512996
57060		9.070749	0.552976	2.456331	1.807914	-0.059786	0.473489	-0.680420	-0.239014	0.521729	6.717320	-82.303390	170.471221
57061		9.961191	0.510146	2.399158	1.852728	0.056288	0.429033	-0.687012	-0.235352	0.517822	5.960424	-82.299978	172.312335
57062		10.731992	0.186959	2.346515	1.893357	0.241534	0.340927	-0.677979	-0.209473	0.524902	5.533101	-82.184505	173.844575
57063		10.434416	-0.110284	2.199918	1.944769	0.416007	0.264827	-0.676758	-0.202637	0.517578	5.414476	-81.963188	175.095523
57064		9.727621	-0.452789	2.102094	2.005366	0.533857	0.218716	-0.687744	-0.188965	0.525146	5.508970	-81.673295	176.167006
57065		9.214505	-0.667765	2.244010	2.075120	0.642282	0.190667	-0.701416	-0.181885	0.516357	5.744384	-81.319232	177.137317
57066		8.556841	-0.689548	2.462591	2.156714	0.689206	0.190594	-0.696289	-0.163574	0.513672	6.039331	-80.940303	178.095617
57067		7.903976	-0.674533	2.588301	2.232160	0.674319	0.202756	-0.697266	-0.149902	0.518311	6.366638	-80.570171	179.065943
57068		7.786880	-0.560216	2.717625	2.291193	0.611944	0.238515	-0.705566	-0.137939	0.517578	6.655503	-80.239955	-179.889472
57069		7.979422	-0.433007	2.857246	2.333118	0.556884	0.281696	-0.707520	-0.123535	0.517334	6.873626	-79.943469	-178.747696
57070		8.641817	-0.253068	2.662046	2.333492	0.503258	0.319824	-0.707031	-0.106445	0.511230	7.018420	-79.682032	-177.530223
57071		9.520874	-0.022475	2.407118	2.335007	0.497401	0.337662	-0.710449	-0.095947	0.509766	7.138411	-79.424358	-176.285632
57072		10.207661	0.200685	2.479015	2.329777	0.552078	0.336014	-0.717285	-0.080078	0.509766	7.268503	-79.137301	-175.053276
57073		10.654335	0.762576	2.709456	2.298544	0.559141	0.332213	-0.717773	-0.064941	0.508545	7.418375	-78.845175	-173.858087
57074		10.627868	1.240743	2.548566	2.225090	0.517269	0.340505	-0.717529	-0.061523	0.497070	7.544230	-78.579344	-172.680195
57075		10.402844	1.703722	2.196393	2.136378	0.469618	0.325580	-0.726318	-0.049561	0.502441	7.701903	-78.338660	-171.585561
57076		10.084691	2.094073	2.026813	2.065306	0.442671	0.302485	-0.731201	-0.031250	0.496338	7.909381	-78.113529	-170.582522
57077		9.589049	2.196551	2.268678	2.017863	0.489739	0.275477	-0.726074	-0.016113	0.492676	8.160983	-77.859005	-169.651422
57078		9.253329	2.100595	2.596260	1.984851	0.517255	0.248905	-0.729980	-0.009033	0.481445	8.465780	-77.588975	-168.793281
57079		9.023161	1.869776	2.691641	1.939010	0.533100	0.216963	-0.739258	0.001221	0.481934	8.832880	-77.306933	-168.024848
57080		9.009609	1.816535	2.843300	1.885945	0.548052	0.187451	-0.740967	0.018066	0.465820	9.244401	-77.016278	-167.332410
57081		9.444344	1.730034	3.079986	1.847195	0.527705	0.188563	-0.739990	0.025146	0.470947	9.647366	-76.736948	-166.653037
57082		9.615213	1.362860	3.172312	1.805999	0.494369	0.208141	-0.742676	0.041260	0.458252	9.998251	-76.480755	-165.943798
57083		9.705823	0.999992	3.156235	1.778590	0.442251	0.241273	-0.750000	0.047852	0.456787	10.286824	-76.256817	-165.185704
57084		9.542741	0.887839	2.849318	1.725054	0.367287	0.287247	-0.745361	0.048096	0.459717	10.476174	-76.082025	-164.356550
57085		9.287109	1.172202	2.704962	1.631003	0.249457	0.344341	-0.746094	0.061035	0.447021	10.540834	-75.978608	-163.453739
57086		9.336248	1.578663	2.446328	1.517122	0.124522	0.405016	-0.742920	0.082031	0.445557	10.457720	-75.953287	-162.465810
57087		9.251269	1.681625	2.028462	1.383055	0.095707	0.437583	-0.755127	0.088867	0.456055	10.240261	-75.945528	-161.418278
57088		9.028988	1.500775	1.617610	1.240110	0.147754	0.433165	-0.741699	0.096436	0.451172	9.929312	-75.908192	-160.358923
57089		8.876838	1.163501	1.436355	1.097960	0.217684	0.406913	-0.748535	0.105957	0.440674	9.577129	-75.825962	-159.340496
57090		9.022541	0.720338	1.330631	0.959606	0.276513	0.348032	-0.751709	0.110352	0.432861	9.261474	-75.704874	-158.441341
57091		9.173108	0.207437	1.672945	0.866277	0.331071	0.271680	-0.747803	0.104492	0.430664	9.055632	-75.543643	-157.709897
57092		9.396379	-0.329945	1.975464	0.821765	0.331325	0.182855	-0.753418	0.125488	0.430664	9.024560	-75.375211	-157.185099
57093		9.623405	-0.646890	1.792303	0.820285	0.290746	0.080597	-0.749756	0.122803	0.421631	9.235079	-75.219370	-156.910266
57094		9.846886	-0.683216	1.535802	0.828410	0.296595	-0.013114	-0.758057	0.133789	0.424805	9.644570	-75.053076	-156.836566
57095		9.821707	-0.517573	1.583309	0.845886	0.323533	-0.067980	-0.750977	0.137451	0.418457	10.168161	-74.865097	-156.870300
57096		9.764590	-0.148468	1.343910	0.854690	0.283934	-0.090909	-0.764893	0.143555	0.410645	10.749556	-74.698208	-156.959023
57097		9.667018	0.514365	1.111592	0.869002	0.245210	-0.078819	-0.762451	0.138672	0.414063	11.325549	-74.553009	-157.033427
57098		9.641598	1.343405	1.051363	0.871144	0.236986	-0.037775	-0.764404	0.132324	0.406982	11.814975	-74.418158	-157.017047
57099		9.509921	2.172248	1.349774	0.846123	0.217703	0.017630	-0.757324	0.147705	0.401611	12.186652	-74.299618	-156.892969
57100		9.268131	2.709985	1.476283	0.796849	0.179675	0.061273	-0.763184	0.149902	0.394531	12.455696	-74.209027	-156.691823
57101		8.976252	2.937402	1.787543	0.713713	0.140475	0.094559	-0.759033	0.157715	0.395752	12.631440	-74.143614	-156.442792
57102		8.777338	2.853023	1.958510	0.619762	0.096675	0.113962	-0.765869	0.147461	0.399414	12.731827	-74.106390	-156.171660
57103		8.817558	2.450991	2.059713	0.557907	0.099329	0.111014	-0.756836	0.153809	0.391357	12.805222	-74.066335	-155.908869
57104		8.868185	1.776705	2.083373	0.537928	0.132937	0.087602	-0.768066	0.166016	0.390137	12.895191	-74.005714	-155.675549
57105		8.863642	1.081722	2.021375	0.542876	0.157335	0.055640	-0.761719	0.169678	0.383789	13.043365	-73.926418	-155.499333
57106		9.050245	0.603315	1.929847	0.542320	0.218163	0.012885	-0.767578	0.172119	0.384033	13.242989	-73.808840	-155.377346
57107		9.205333	0.284499	2.031107	0.541041	0.260261	-0.007418	-0.768555	0.174072	0.385986	13.464702	-73.664179	-155.278615
57108		9.453739	0.112601	1.919654	0.524146	0.271606	-0.011402	-0.771729	0.160400	0.383545	13.674580	-73.513826	-155.177999
57109		9.791544	0.169373	1.916400	0.512132	0.312206	-0.003298	-0.763672	0.164551	0.370361	13.846651	-73.341058	-155.044595
57110		9.887230	0.277701	1.996472	0.514780	0.340158	0.020058	-0.773438	0.171387	0.370850	13.960832	-73.157078	-154.849468
57111		9.900131	0.448318	2.189803	0.526345	0.318050	0.060531	-0.770508	0.172852	0.369629	14.022320	-72.990104	-154.591708
57112		9.957075	0.608361	2.106862	0.536914	0.234047	0.096896	-0.781250	0.178711	0.367920	14.060342	-72.875921	-154.303321
57113		10.159132	0.658494	1.834686	0.552928	0.219116	0.136467	-0.768311	0.190186	0.353516	14.048262	-72.774626	-153.952267
57114		10.298192	0.790139	1.814313	0.576025	0.240294	0.167714	-0.774902	0.184570	0.356201	13.983113	-72.666758	-153.532034
57115		10.301274	0.879730	1.717532	0.617261	0.286188	0.206093	-0.776367	0.189453	0.349609	13.860195	-72.537577	-153.025760
57116		10.108890	0.897942	1.647105	0.663881	0.326955	0.232322	-0.777832	0.196045	0.349854	13.701836	-72.389793	-152.454392
57117		9.956952	0.910045	1.677639	0.686749	0.373482	0.256794	-0.771973	0.197754	0.342773	13.504388	-72.218056	-151.827239
57118		9.967999	0.954924	2.046160	0.669579	0.437179	0.284797	-0.782715	0.195313	0.335693	13.228004	-72.014535	-151.127317
57119		9.916283	1.007086	2.294001	0.612021	0.508274	0.309684	-0.782227	0.207275	0.330322	12.863809	-71.772612	-150.368300
57120		9.790356	1.125997	2.455503	0.542656	0.537146	0.332615	-0.776123	0.213135	0.324463	12.422435	-71.516501	-149.569275
57121		9.636029	1.290357	2.639694	0.463709	0.524098	0.357187	-0.782227	0.218994	0.324463	11.920506	-71.267923	-148.752357
57122		9.447300	1.346983	2.561758	0.421141	0.509507	0.380386	-0.778076	0.225342	0.309570	11.374923	-71.028514	-147.914452
57123		9.196652	1.377277	2.582919	0.376338	0.516936	0.402108	-0.785645	0.236328	0.315918	10.787327	-70.784024	-147.057455
57124		8.930456	1.337423	2.934363	0.311603	0.483060	0.428864	-0.785889	0.236084	0.300781	10.144262	-70.559027	-146.180339
57125		8.879597	1.011051	2.988164	0.225362	0.388592	0.470043	-0.778320	0.245117	0.301270	9.432495	-70.387379	-145.281069
57126		9.249845	0.673151	2.606703	0.149883	0.354355	0.519365	-0.783203	0.237305	0.302002	8.618386	-70.236122	-144.318749
57127		9.656507	0.496195	2.408484	0.080690	0.379652	0.563330	-0.779785	0.241943	0.304199	7.707862	-70.068698	-143.294472
57128		9.935305	0.239089	2.348378	0.023282	0.389382	0.601085	-0.781982	0.247314	0.289551	6.716612	-69.893224	-142.218815
57129		10.235729	0.212528	2.547847	-0.052160	0.393169	0.654252	-0.780762	0.246094	0.286865	5.621445	-69.711747	-141.076604
57130		10.559977	0.546185	2.488495	-0.098203	0.278669	0.695052	-0.783691	0.257813	0.284912	4.467438	-69.590393	-139.899315
57131		10.780765	1.014749	2.344951	-0.101388	0.208944	0.743762	-0.778564	0.266602	0.290527	3.260994	-69.502030	-138.666531
57132		10.724250	1.508460	2.352701	-0.084331	0.138192	0.791084	-0.769775	0.276123	0.285645	2.002965	-69.446484	-137.368329
57133		10.166792	1.696857	2.355028	-0.068225	0.031997	0.830674	-0.777100	0.281006	0.289063	0.706940	-69.441950	-136.018722
57134		9.402536	1.229829	2.159085	-0.036533	-0.084174	0.858730	-0.766846	0.286621	0.282227	-0.618571	-69.493352	-134.619163
57135		8.992836	0.459944	1.775478	0.065765	-0.130875	0.851780	-0.770752	0.297363	0.278564	-1.879206	-69.560397	-133.226078
57136		8.787069	-0.007424	1.971548	0.287963	-0.183884	0.790728	-0.767090	0.295654	0.291260	-2.934864	-69.649476	-131.917311
57137		9.096741	-0.584610	2.039915	0.513632	-0.187898	0.716475	-0.766846	0.307373	0.285889	-3.752211	-69.735875	-130.724761
57138		9.873772	-1.374195	2.330828	0.693344	-0.024364	0.603152	-0.758545	0.313232	0.284180	-4.282600	-69.728452	-129.729408
57139		10.043077	-1.648991	2.896905	0.856688	0.160137	0.493517	-0.761963	0.320801	0.284912	-4.521284	-69.618241	-128.944199
57140		9.848672	-1.678265	4.207718	1.016263	0.148648	0.381363	-0.759033	0.329102	0.274658	-4.497311	-69.519026	-128.341928
57141		9.865387	-1.368618	5.830669	1.151073	0.041916	0.280001	-0.758789	0.324707	0.264893	-4.248468	-69.485853	-127.896282
57142		10.334041	-0.707171	6.383823	1.244994	-0.030355	0.219757	-0.759766	0.336670	0.271484	-3.865680	-69.497156	-127.536882
57143		10.806594	-0.345485	6.504497	1.360613	-0.006812	0.219212	-0.758789	0.335938	0.265869	-3.409611	-69.496004	-127.184310
57144		10.785712	-0.070243	6.539387	1.468873	0.008127	0.244897	-0.759033	0.347656	0.260254	-2.933225	-69.486441	-126.787887
57145		10.249050	0.026265	6.172537	1.565102	-0.085814	0.276707	-0.753174	0.356445	0.250977	-2.453936	-69.530936	-126.335064
57146		9.574514	-0.229223	5.960360	1.634063	-0.134555	0.318444	-0.748291	0.361084	0.246582	-2.006345	-69.603704	-125.807107
57147		8.718231	-0.768428	5.848657	1.673516	-0.216227	0.350228	-0.753662	0.362793	0.242676	-1.586429	-69.723994	-125.225188
57148		7.952512	-1.400223	5.092770	1.700387	-0.329955	0.357912	-0.747070	0.366699	0.237793	-1.173361	-69.910869	-124.620816
57149		7.586138	-1.956868	4.056976	1.727776	-0.391879	0.350030	-0.745361	0.381592	0.231934	-0.732479	-70.134705	-124.029503
57150		7.663124	-2.237128	3.555330	1.759919	-0.405041	0.334151	-0.739746	0.385986	0.231934	-0.253831	-70.367920	-123.460227
57151		8.175957	-2.429199	3.016440	1.799883	-0.391389	0.315909	-0.735352	0.399170	0.220459	0.279851	-70.594848	-122.925291
57152		8.538227	-2.256987	2.625245	1.851716	-0.278238	0.300261	-0.735840	0.392822	0.215820	0.864081	-70.758755	-122.413664
57153		8.886737	-1.983068	2.704442	1.908127	-0.181053	0.283285	-0.732422	0.406494	0.207275	1.510080	-70.868470	-121.933123
57154		9.443594	-1.542021	2.578098	1.938056	-0.143436	0.250451	-0.731689	0.411377	0.206787	2.223314	-70.958036	-121.506392
57155		9.790015	-0.849066	2.732136	1.963971	-0.105729	0.193317	-0.739258	0.421875	0.202393	3.048420	-71.026291	-121.181999
57156		9.928441	0.023401	3.038524	2.009609	-0.066771	0.139083	-0.732910	0.420166	0.192871	3.984846	-71.072081	-120.948254
57157		9.430386	0.716904	3.104309	2.081540	-0.019188	0.098543	-0.735352	0.416504	0.187744	5.028944	-71.090113	-120.784332
57158		8.542142	1.056523	3.278819	2.142755	-0.011247	0.066732	-0.725830	0.428955	0.169678	6.157472	-71.102922	-120.673071
57159		7.641167	1.558881	3.298239	2.134139	-0.059846	0.075859	-0.739502	0.431641	0.159180	7.279294	-71.144638	-120.559474
57160		7.067654	2.087913	2.877937	2.055536	-0.050509	0.089571	-0.738037	0.433838	0.153076	8.329926	-71.182892	-120.418752
57161		6.523098	2.191220	2.653464	1.929730	0.008281	0.103651	-0.738770	0.438721	0.142334	9.275248	-71.189791	-120.242441
57162		6.412398	2.258462	2.472571	1.795559	0.083211	0.080975	-0.736816	0.438477	0.139160	10.156996	-71.153192	-120.080672
57163		6.755889	2.473036	2.572872	1.662040	0.104924	0.047223	-0.746094	0.445313	0.120605	11.013671	-71.101499	-119.972674
57164		6.930743	2.309077	2.815499	1.544756	0.117836	-0.001927	-0.729736	0.446533	0.114014	11.873722	-71.037622	-119.939785
