// General information: 
//  MT Manager version: 2022.2.0 
//  XDA version: 2022.2.0 build 7381 rev 124627 built on 2023-07-19
// Device information: 
//  DeviceId: 00B4BCF6
//  ProductCode: MTW2-3A7G6
//  Firmware Version: 4.6.0
//  Hardware Version: 2.0.0
// Device settings: 
//  Filter Profile: human(46.1)
//  Option Flags: Orientation Smoother Disabled, Position/Velocity Smoother Disabled, Continuous Zero Rotation Update Disabled, AHS Disabled, ICC Disabled
// Coordinate system: ENU
PacketCounter	SampleTimeFine	Acc_X	Acc_Y	Acc_Z	Gyr_X	Gyr_Y	Gyr_Z	Mag_X	Mag_Y	Mag_Z	Roll	Pitch	Yaw
61808		-4.195763	0.825363	8.857420	-0.006984	0.009762	-0.004758	-0.546143	-0.328125	-0.533203	5.675045	25.019730	175.590441
61809		-4.198475	0.842397	8.886515	-0.006665	0.011847	-0.006351	-0.539551	-0.323242	-0.537354	5.673943	25.024473	175.590416
61810		-4.185925	0.876072	8.845992	-0.004497	0.001729	-0.004459	-0.549805	-0.320068	-0.532959	5.674804	25.022638	175.591274
61811		-4.183855	0.854690	8.858588	-0.006088	0.004995	-0.004918	-0.547607	-0.329590	-0.534668	5.674228	25.023399	175.591867
61812		-4.184356	0.854050	8.858414	-0.003484	0.005315	-0.005430	-0.552246	-0.326904	-0.538818	5.675507	25.023663	175.592339
61813		-4.219188	0.849710	8.858525	-0.003484	0.005315	-0.005430	-0.546143	-0.328369	-0.538330	5.676301	25.024625	175.592488
61814		-4.203309	0.860026	8.872972	-0.003803	0.003231	-0.003837	-0.544922	-0.315430	-0.541016	5.677766	25.023610	175.593833
61815		-4.183264	0.831825	8.870624	-0.003109	0.004732	-0.003215	-0.553711	-0.318359	-0.536621	5.679341	25.024141	175.595532
61816		-4.206475	0.879833	8.860016	-0.002268	0.002632	-0.007186	-0.546387	-0.320557	-0.536377	5.680778	25.022975	175.594731
61817		-4.170074	0.862529	8.872289	-0.001199	0.003551	-0.004349	-0.548828	-0.327393	-0.541016	5.683114	25.022862	175.595734
61818		-4.223435	0.868208	8.845177	-0.004571	0.003530	-0.002162	-0.548340	-0.326416	-0.532715	5.684592	25.021922	175.598151
61819		-4.205097	0.857766	8.872344	-0.004946	0.004114	-0.004376	-0.548828	-0.329834	-0.543701	5.684802	25.022140	175.598899
61820		-4.187429	0.850182	8.857333	-0.003035	0.002932	-0.005510	-0.551514	-0.318848	-0.525146	5.686253	25.021049	175.599171
61821		-4.187800	0.849726	8.857202	-0.002342	0.004434	-0.004888	-0.545898	-0.319580	-0.534912	5.687826	25.021458	175.599703
61822		-4.171852	0.860171	8.871682	-0.003428	0.002648	-0.001621	-0.552002	-0.324951	-0.531982	5.690079	25.019985	175.602404
61823		-4.225076	0.865756	8.844634	-0.002961	0.001132	-0.007806	-0.544922	-0.324463	-0.543457	5.690432	25.018674	175.600942
61824		-4.206617	0.855327	8.871859	-0.003803	0.003232	-0.003835	-0.543213	-0.324219	-0.539551	5.691896	25.017660	175.602286
61825		-4.193165	0.886368	8.873635	-0.003485	0.005317	-0.005428	-0.545410	-0.326416	-0.542480	5.692691	25.018662	175.602535
61826		-4.188771	0.844512	8.898833	-0.001199	0.003552	-0.004347	-0.550781	-0.323975	-0.533936	5.695519	25.017859	175.603577
61827		-4.191417	0.864859	8.886079	-0.003354	0.000848	-0.003917	-0.544189	-0.323242	-0.540039	5.696677	25.016188	175.604479
61828		-4.208574	0.856409	8.829238	-0.002268	0.002635	-0.007183	-0.549316	-0.323975	-0.541016	5.698115	25.015024	175.603679
61829		-4.208269	0.853079	8.871292	-0.002342	0.004435	-0.004887	-0.555176	-0.325684	-0.537354	5.699686	25.015469	175.604266
61830		-4.174321	0.856452	8.870881	-0.002268	0.002635	-0.007183	-0.545166	-0.324951	-0.543213	5.701124	25.014305	175.603467
61831		-4.207252	0.834315	8.841527	-0.003110	0.004734	-0.003212	-0.548096	-0.323486	-0.534912	5.702711	25.014807	175.605100
61832		-4.179250	0.894113	8.887439	-0.003804	0.003232	-0.003834	-0.546631	-0.328369	-0.541992	5.704175	25.013793	175.606445
61833		-4.194094	0.864928	8.843219	-0.003804	0.003232	-0.003834	-0.548828	-0.326172	-0.531494	5.705165	25.013473	175.607510
61834		-4.191916	0.843661	8.855834	-0.002961	0.001134	-0.007805	-0.548584	-0.333008	-0.532959	5.706000	25.011488	175.606225
61835		-4.178467	0.874708	8.857630	-0.002792	0.006820	-0.004803	-0.548584	-0.321777	-0.541748	5.707422	25.013228	175.606707
61836		-4.208587	0.828971	8.882993	-0.003560	0.007119	-0.003129	-0.547607	-0.320313	-0.537109	5.709316	25.014389	175.608740
61837		-4.179708	0.873770	8.857137	-0.003485	0.005319	-0.005425	-0.554199	-0.331299	-0.533203	5.710111	25.015349	175.609179
61838		-4.198343	0.880107	8.871810	-0.005003	0.006787	-0.008179	-0.551270	-0.329834	-0.539307	5.709827	25.016609	175.608014
61839		-4.162282	0.862613	8.883960	-0.004329	0.007417	-0.001454	-0.552490	-0.329590	-0.541992	5.711273	25.018499	175.610701
61840		-4.181679	0.871988	8.856382	-0.004704	0.008002	-0.003667	-0.546631	-0.324219	-0.529053	5.712393	25.020194	175.612451
61841		-4.198881	0.860435	8.841386	-0.008209	0.012451	-0.002989	-0.546875	-0.330078	-0.537109	5.711339	25.025046	175.614601
61842		-4.164787	0.860635	8.882978	-0.003860	0.005906	-0.007637	-0.541504	-0.327148	-0.535156	5.711830	25.025773	175.613722
61843		-4.181717	0.849177	8.868097	-0.004704	0.008003	-0.003666	-0.548584	-0.326904	-0.541504	5.712490	25.028154	175.615029
61844		-4.185067	0.869193	8.855057	-0.007441	0.012154	-0.004661	-0.549805	-0.319580	-0.533691	5.711888	25.032273	175.616415
61845		-4.201661	0.854675	8.882226	-0.005079	0.008589	-0.005879	-0.545898	-0.323975	-0.532715	5.711748	25.035095	175.616706
61846		-4.221130	0.863758	8.854626	-0.006914	0.007971	-0.007041	-0.558350	-0.322021	-0.541260	5.710702	25.036965	175.616331
61847		-4.221296	0.860048	8.896510	-0.005079	0.008590	-0.005877	-0.547119	-0.321777	-0.537842	5.710563	25.039768	175.616662
61848		-4.188006	0.863345	8.895845	-0.004540	0.013691	-0.000659	-0.545410	-0.324463	-0.535156	5.712730	25.044535	175.620664
61849		-4.208164	0.875658	8.825992	-0.003485	0.005323	-0.005421	-0.550049	-0.324463	-0.537598	5.713543	25.045472	175.620970
61850		-4.226317	0.879047	8.882778	-0.006222	0.009475	-0.006416	-0.547607	-0.319824	-0.528564	5.713100	25.048164	175.621083
61851		-4.192823	0.882215	8.882233	-0.003936	0.007709	-0.005336	-0.545654	-0.328857	-0.530518	5.713747	25.050420	175.621630
61852		-4.209807	0.870799	8.867294	-0.004705	0.008006	-0.003662	-0.546875	-0.324463	-0.532715	5.714868	25.052117	175.623384
61853		-4.194381	0.880946	8.881623	-0.006222	0.009476	-0.006414	-0.548828	-0.323486	-0.543945	5.713979	25.055445	175.623083
61854		-4.211458	0.869237	8.866664	-0.006914	0.007974	-0.007038	-0.552734	-0.326904	-0.539307	5.712934	25.057316	175.622711
61855		-4.209600	0.847631	8.879141	-0.006782	0.003501	-0.005534	-0.539063	-0.325439	-0.539551	5.711781	25.057231	175.622883
61856		-4.210615	0.849765	8.836836	-0.006090	0.005003	-0.004909	-0.546631	-0.320068	-0.533936	5.711697	25.057287	175.623663
61857		-4.212847	0.866952	8.866228	-0.003803	0.003237	-0.003830	-0.541748	-0.322510	-0.534424	5.712702	25.056959	175.624809
61858		-4.195266	0.859515	8.851174	-0.003563	0.007124	-0.003121	-0.547363	-0.325928	-0.540527	5.714599	25.058123	175.626848
61859		-4.230139	0.855038	8.851172	-0.005320	0.004707	-0.006582	-0.544922	-0.324463	-0.537109	5.714044	25.058784	175.626318
61860		-4.196269	0.858235	8.850823	-0.004947	0.004121	-0.004369	-0.545166	-0.326660	-0.531250	5.714735	25.058306	175.627383
61861		-4.217104	0.885266	8.852939	-0.005638	0.002619	-0.004993	-0.547607	-0.329346	-0.542480	5.714375	25.057659	175.627611
61862		-4.178722	0.849755	8.835855	-0.008165	0.000498	-0.006781	-0.547852	-0.325195	-0.533936	5.712483	25.055254	175.626929
61863		-4.217460	0.883714	8.852924	-0.001890	0.002058	-0.004964	-0.552734	-0.325928	-0.539307	5.714261	25.054299	175.627162
61864		-4.180955	0.866216	8.865328	-0.007473	0.002001	-0.006156	-0.541260	-0.319824	-0.541016	5.712971	25.052715	175.626968
61865		-4.200198	0.875348	8.837812	-0.004390	0.010098	-0.005245	-0.552246	-0.324951	-0.535400	5.713445	25.056376	175.627792
61866		-4.197806	0.850833	8.892430	-0.007077	0.002293	-0.010041	-0.550049	-0.316406	-0.531738	5.711355	25.055179	175.625172
61867		-4.216161	0.856898	8.907249	-0.004869	0.002324	-0.006665	-0.551270	-0.327393	-0.535400	5.710977	25.054409	175.624699
61868		-4.185191	0.883820	8.852136	-0.004177	0.003826	-0.006040	-0.553223	-0.322754	-0.536133	5.711656	25.053859	175.624693
61869		-4.212466	0.816982	8.890214	-0.005560	0.000822	-0.007290	-0.540527	-0.320557	-0.535889	5.710683	25.052280	175.623537
61870		-4.199470	0.850874	8.850016	-0.003034	0.002943	-0.005501	-0.548584	-0.327148	-0.531494	5.712137	25.051195	175.623815
61871		-4.220040	0.878155	8.852248	-0.000985	-0.002712	-0.005135	-0.549805	-0.321289	-0.534180	5.714266	25.047508	175.623679
61872		-4.185544	0.881487	8.852202	-0.006569	-0.002769	-0.006327	-0.543945	-0.331055	-0.535645	5.713322	25.043214	175.623078
61873		-4.201243	0.867007	8.879751	-0.002264	0.002648	-0.007173	-0.546631	-0.326416	-0.534424	5.714324	25.042695	175.621931
61874		-4.183412	0.859529	8.864820	-0.005266	0.002032	-0.002779	-0.550293	-0.322510	-0.534668	5.715199	25.040936	175.623865
61875		-4.199285	0.845071	8.892282	-0.004099	0.002030	-0.008336	-0.544434	-0.332764	-0.529785	5.714820	25.040115	175.622081
61876		-4.183897	0.858170	8.864723	-0.004869	0.002325	-0.006663	-0.550049	-0.326660	-0.533691	5.714896	25.038744	175.621589
61877		-4.186033	0.875238	8.894204	-0.005640	0.002621	-0.004990	-0.547852	-0.324219	-0.539795	5.714561	25.038053	175.621552
61878		-4.204940	0.884318	8.866854	-0.006704	0.001708	-0.007826	-0.547852	-0.324463	-0.530762	5.713260	25.036397	175.620290
61879		-4.202588	0.862732	8.879531	-0.007418	-0.000676	-0.002355	-0.551025	-0.320801	-0.537109	5.712500	25.033698	175.622128
61880		-4.204839	0.882902	8.867043	-0.000135	-0.004802	-0.009105	-0.538330	-0.330078	-0.535645	5.714449	25.028404	175.619650
61881		-4.184110	0.854486	8.864978	-0.007315	-0.001590	-0.010748	-0.550537	-0.326172	-0.537109	5.711492	25.025695	175.616036
61882		-4.184223	0.853583	8.865012	-0.005640	0.002621	-0.004988	-0.541504	-0.320068	-0.544922	5.711580	25.024398	175.616617
61883		-4.204917	0.880555	8.867239	-0.003646	-0.000353	-0.008421	-0.545654	-0.323975	-0.542480	5.711360	25.022290	175.614814
61884		-4.205401	0.882942	8.825165	-0.003589	-0.003033	-0.004624	-0.546387	-0.323486	-0.537109	5.712569	25.017748	175.615268
61885		-4.191019	0.910904	8.869476	-0.005561	0.000826	-0.007285	-0.538330	-0.319336	-0.537354	5.711594	25.016235	175.614188
61886		-4.186695	0.871505	8.852646	-0.006171	-0.002472	-0.010208	-0.549561	-0.317139	-0.532959	5.709853	25.012332	175.611164
61887		-4.184242	0.849870	8.865360	-0.005561	0.000826	-0.007285	-0.546631	-0.327148	-0.529297	5.708879	25.010786	175.610317
61888		-4.218613	0.845082	8.865597	-0.006252	-0.000675	-0.007909	-0.548096	-0.321533	-0.533936	5.707752	25.007776	175.608852
61889		-4.184927	0.851243	8.823288	-0.005187	0.000237	-0.005074	-0.552002	-0.319580	-0.527100	5.707589	25.005712	175.608941
61890		-4.168561	0.861461	8.838104	-0.002739	-0.005121	-0.008594	-0.557373	-0.318604	-0.537598	5.708175	25.000206	175.606766
61891		-4.186425	0.867682	8.853149	-0.005107	-0.001558	-0.007371	-0.556641	-0.323242	-0.528320	5.707383	24.997202	175.605834
61892		-4.201336	0.850026	8.922962	-0.006568	-0.002766	-0.006323	-0.546387	-0.320801	-0.534912	5.706441	24.992909	175.605236
61893		-4.168106	0.859117	8.838547	-0.005482	-0.000968	-0.009580	-0.547119	-0.322266	-0.537354	5.704874	24.990388	175.602648
61894		-4.186227	0.865234	8.853482	-0.005188	0.000238	-0.005072	-0.553711	-0.326416	-0.536133	5.705135	24.987736	175.603026
61895		-4.167413	0.854531	8.880927	-0.005718	-0.004854	-0.010292	-0.553711	-0.323242	-0.543213	5.703136	24.983099	175.599661
61896		-4.186039	0.863604	8.853730	-0.003332	0.001743	-0.010002	-0.547852	-0.321289	-0.541992	5.703191	24.981586	175.597032
61897		-4.165626	0.835270	8.851467	-0.005188	0.000238	-0.005071	-0.544922	-0.320068	-0.534424	5.702996	24.979604	175.597536
61898		-4.167450	0.852255	8.881128	-0.006568	-0.002765	-0.006321	-0.545654	-0.324707	-0.537109	5.702055	24.975312	175.596940
61899		-4.185585	0.858361	8.896060	-0.005643	0.002623	-0.004983	-0.543213	-0.324463	-0.534668	5.701706	24.974655	175.597355
61900		-4.165743	0.832942	8.851632	-0.006253	-0.000673	-0.007905	-0.547119	-0.327637	-0.531982	5.700580	24.971646	175.595894
61901		-4.170101	0.870720	8.868654	-0.003273	-0.000938	-0.006206	-0.541992	-0.326660	-0.531982	5.701186	24.969004	175.595015
61902		-4.183846	0.838495	8.866630	-0.005959	0.000531	-0.003398	-0.545410	-0.324219	-0.530273	5.701458	24.966425	175.596465
61903		-4.169772	0.866441	8.910830	-0.004184	0.003833	-0.006029	-0.550293	-0.319336	-0.534668	5.701719	24.966481	175.595974
61904		-4.186760	0.857852	8.853949	-0.006253	-0.000672	-0.007904	-0.545654	-0.333252	-0.548584	5.700594	24.963473	175.594513
61905		-4.188804	0.874787	8.883522	-0.006414	0.002917	-0.003309	-0.545410	-0.322754	-0.530029	5.700250	24.962918	175.595944
61906		-4.170937	0.867268	8.868600	-0.002958	0.001156	-0.007789	-0.550537	-0.321289	-0.532959	5.701091	24.960945	175.594670
61907		-4.184955	0.834878	8.866448	-0.007934	0.004392	-0.006054	-0.544189	-0.314697	-0.546143	5.699203	24.961283	175.594558
61908		-4.171637	0.865601	8.868433	-0.006019	0.003216	-0.007189	-0.551514	-0.326416	-0.529053	5.698505	24.960451	175.593791
61909		-4.192640	0.892437	8.870587	-0.006100	0.005010	-0.004891	-0.547119	-0.325439	-0.543213	5.697972	24.961133	175.594661
61910		-4.186072	0.832420	8.866151	-0.005563	0.000832	-0.007278	-0.550293	-0.320557	-0.534180	5.697449	24.958946	175.593690
61911		-4.188355	0.849412	8.895615	-0.005411	0.006512	-0.004265	-0.553467	-0.326172	-0.530762	5.697523	24.960451	175.594903
61912		-4.175553	0.883307	8.855459	-0.007793	-0.000085	-0.004558	-0.542480	-0.330322	-0.540039	5.696419	24.957587	175.595584
61913		-4.155365	0.855066	8.853054	-0.002117	0.008339	-0.004149	-0.550049	-0.324219	-0.529785	5.698486	24.960100	175.596550
61914		-4.153347	0.833830	8.865477	-0.002958	0.001158	-0.007788	-0.548340	-0.323486	-0.537842	5.699329	24.958129	175.595278
61915		-4.208514	0.856837	8.867857	-0.004185	0.003835	-0.006026	-0.549072	-0.322266	-0.546143	5.699584	24.958152	175.595086
61916		-4.190234	0.846310	8.895025	-0.004955	0.004127	-0.004353	-0.544678	-0.330322	-0.541992	5.700271	24.957678	175.596160
61917		-4.177509	0.880364	8.854830	-0.004185	0.003836	-0.006025	-0.555420	-0.328125	-0.538086	5.700507	24.957811	175.595956
61918		-4.175370	0.858767	8.867341	-0.008624	0.002893	-0.006676	-0.556641	-0.332520	-0.543701	5.698443	24.956765	175.595491
61919		-4.173714	0.840350	8.837705	-0.001894	0.002069	-0.004953	-0.542969	-0.319336	-0.536865	5.700252	24.955731	175.595735
61920		-4.196133	0.882030	8.911576	-0.005787	0.007106	-0.006471	-0.550537	-0.324219	-0.534912	5.699980	24.957075	175.595664
61921		-4.158471	0.849890	8.852093	-0.006415	0.002918	-0.003306	-0.553223	-0.322510	-0.538086	5.699647	24.956447	175.597252
61922		-4.158310	0.846206	8.894135	-0.003496	0.005339	-0.005398	-0.549805	-0.319824	-0.537354	5.700925	24.956723	175.597745
61923		-4.193625	0.844673	8.851967	-0.004956	0.004128	-0.004352	-0.553223	-0.323730	-0.538330	5.701177	24.956823	175.598905
61924		-4.179822	0.872550	8.896116	-0.005330	0.004722	-0.006559	-0.548828	-0.322021	-0.540039	5.701081	24.956813	175.598629
61925		-4.175892	0.833441	8.878948	-0.004267	0.005630	-0.003725	-0.552002	-0.325684	-0.536621	5.701936	24.957749	175.600166
61926		-4.199376	0.881086	8.868535	-0.006707	0.001719	-0.007811	-0.543945	-0.326172	-0.531494	5.700638	24.956098	175.598915
61927		-4.179097	0.852817	8.866159	-0.003122	0.004747	-0.003189	-0.550781	-0.330566	-0.534668	5.702290	24.956477	175.600386
61928		-4.163325	0.863330	8.880718	-0.001206	0.003572	-0.004325	-0.549561	-0.319824	-0.534424	5.705119	24.955684	175.601443
61929		-4.200095	0.876458	8.910259	-0.007330	0.007690	-0.003123	-0.549805	-0.328369	-0.534424	5.704452	24.957724	175.603250
61930		-4.150751	0.893559	8.882473	-0.006393	0.003815	-0.009392	-0.553711	-0.323730	-0.539795	5.702971	24.957359	175.601136
61931		-4.167411	0.881783	8.867616	-0.006476	0.005607	-0.007093	-0.552246	-0.323486	-0.539063	5.701684	24.958446	175.600348
61932		-4.165470	0.860141	8.880021	-0.006476	0.005608	-0.007092	-0.550781	-0.326172	-0.538574	5.700812	24.958972	175.599792
61933		-4.182300	0.848389	8.865074	-0.006934	0.007994	-0.007001	-0.550049	-0.325684	-0.545410	5.699345	24.961427	175.599312
61934		-4.166901	0.858071	8.879550	-0.011747	0.007644	-0.009860	-0.552734	-0.324707	-0.536133	5.694773	24.963271	175.597144
61935		-4.183723	0.846046	8.864626	-0.006476	0.005609	-0.007091	-0.554199	-0.321289	-0.540039	5.693478	24.964385	175.596464
61936		-4.184245	0.845238	8.864457	-0.006102	0.005015	-0.004883	-0.546387	-0.327393	-0.539551	5.693391	24.964447	175.597261
61937		-4.168561	0.855354	8.879033	-0.004559	0.004436	-0.008227	-0.546143	-0.323730	-0.538818	5.692861	24.964953	175.595801
61938		-4.205849	0.871163	8.866448	-0.009082	0.005283	-0.006580	-0.550049	-0.321289	-0.537598	5.690624	24.965264	175.595547
61939		-4.170149	0.856677	8.836539	-0.004643	0.006228	-0.005927	-0.545410	-0.327393	-0.537109	5.690704	24.966659	175.595681
61940		-4.204489	0.848747	8.878637	-0.006477	0.005611	-0.007089	-0.552490	-0.325684	-0.536377	5.689833	24.967186	175.595128
61941		-4.170654	0.851953	8.878377	-0.006019	0.003226	-0.007181	-0.541992	-0.324219	-0.531250	5.688729	24.966922	175.594020
61942		-4.191652	0.878700	8.880584	-0.006790	0.003515	-0.005509	-0.548340	-0.322021	-0.539307	5.688042	24.966164	175.594329
61943		-4.190042	0.860308	8.850878	-0.004185	0.003843	-0.006018	-0.550537	-0.331055	-0.535400	5.688308	24.966197	175.594104
61944		-4.192570	0.877266	8.880292	-0.005790	0.007114	-0.006460	-0.544434	-0.332520	-0.537598	5.688037	24.967545	175.594040
61945		-4.190649	0.855720	8.892656	-0.006103	0.005017	-0.004880	-0.552246	-0.325684	-0.533691	5.687562	24.968178	175.594120
61946		-4.154611	0.841316	8.862899	-0.005475	-0.000950	-0.009571	-0.551758	-0.326172	-0.540039	5.686433	24.965106	175.591595
61947		-4.191064	0.854040	8.892622	-0.006019	0.003227	-0.007179	-0.543945	-0.330322	-0.533936	5.685330	24.964813	175.590623
61948		-4.157122	0.857280	8.892424	-0.005247	0.002939	-0.008850	-0.548584	-0.322998	-0.533203	5.684626	24.963917	175.588795
61949		-4.189790	0.834652	8.862840	-0.007165	0.004112	-0.007713	-0.541504	-0.324463	-0.538574	5.682758	24.964169	175.587306
61950		-4.194819	0.872276	8.879722	-0.003873	0.005942	-0.007594	-0.549316	-0.321533	-0.535889	5.683254	24.964914	175.586456
61951		-4.174734	0.843943	8.877225	-0.006478	0.005614	-0.007084	-0.551025	-0.326172	-0.538818	5.681964	24.966026	175.585770
61952		-4.196021	0.870680	8.879311	-0.005792	0.007116	-0.006456	-0.548584	-0.327637	-0.539795	5.681693	24.967375	175.585709
61953		-4.162604	0.877075	8.836948	-0.007791	-0.000082	-0.004555	-0.547363	-0.323486	-0.534424	5.680181	24.965080	175.586122
61954		-4.176026	0.841512	8.876848	-0.003873	0.005944	-0.007592	-0.541748	-0.326416	-0.536133	5.680677	24.965826	175.585273
61955		-4.160941	0.854821	8.849245	-0.006877	0.005308	-0.003206	-0.549805	-0.325684	-0.543213	5.680194	24.966526	175.586812
61956		-4.179536	0.860912	8.863959	-0.004186	0.003847	-0.006014	-0.549316	-0.324951	-0.529541	5.680874	24.965987	175.586824
61957		-4.198022	0.867018	8.878723	-0.005645	0.002634	-0.004970	-0.548828	-0.321045	-0.536621	5.680558	24.965230	175.587200
61958		-4.145795	0.863593	8.863742	-0.005559	0.000844	-0.007269	-0.548340	-0.325195	-0.539307	5.680039	24.963050	175.586234
61959		-4.164950	0.872876	8.836259	-0.004046	0.009524	-0.002992	-0.546143	-0.324463	-0.533691	5.681336	24.966131	175.588460
61960		-4.180569	0.855227	8.905649	-0.002580	0.000577	-0.005573	-0.548828	-0.320801	-0.539551	5.682967	24.963702	175.588545
61961		-4.181458	0.857759	8.863359	-0.005793	0.007119	-0.006453	-0.545166	-0.320313	-0.533936	5.682284	24.965600	175.588423
61962		-4.166348	0.870979	8.835787	-0.006792	0.003519	-0.005503	-0.547363	-0.323242	-0.542480	5.681598	24.964845	175.588736
61963		-4.179915	0.835310	8.875603	-0.006479	0.005618	-0.007080	-0.547119	-0.331787	-0.528076	5.680309	24.965948	175.588193
61964		-4.183026	0.855336	8.862853	-0.005420	0.006522	-0.004246	-0.542480	-0.322754	-0.530273	5.680822	24.966834	175.589484
61965		-4.169912	0.886250	8.864919	-0.006019	0.003232	-0.007174	-0.560791	-0.328125	-0.534912	5.679760	24.966500	175.588059
61966		-4.183982	0.853844	8.862545	-0.004647	0.006235	-0.005917	-0.552734	-0.323486	-0.541016	5.680264	24.967316	175.588282
61967		-4.168345	0.863967	8.877159	-0.006792	0.003520	-0.005502	-0.548340	-0.323975	-0.534180	5.679180	24.967037	175.588559
61968		-4.184886	0.852309	8.862266	-0.006106	0.005022	-0.004873	-0.548828	-0.320068	-0.541260	5.679094	24.967103	175.589361
61969		-4.183072	0.830839	8.874535	-0.004422	0.010124	-0.005192	-0.544678	-0.323486	-0.538086	5.679609	24.970639	175.590331
61970		-4.151965	0.855033	8.861683	-0.006019	0.003234	-0.007172	-0.551758	-0.324463	-0.531006	5.678915	24.969816	175.589576
61971		-4.186662	0.850122	8.861638	-0.006106	0.005023	-0.004872	-0.549561	-0.319824	-0.536377	5.678434	24.970392	175.590178
61972		-4.207799	0.876976	8.863807	-0.004187	0.003851	-0.006010	-0.554199	-0.320068	-0.534912	5.679115	24.969854	175.590193
61973		-4.168959	0.838870	8.888637	-0.004648	0.006238	-0.005914	-0.548096	-0.323242	-0.531250	5.679208	24.971157	175.590678
61974		-4.169989	0.841459	8.846266	-0.003501	0.005353	-0.005380	-0.552979	-0.322510	-0.538818	5.680488	24.971440	175.591183
61975		-4.172471	0.858825	8.875720	0.001771	0.003314	-0.002617	-0.543213	-0.331299	-0.530273	5.685070	24.970895	175.593251
61976		-4.170724	0.840992	8.845964	-0.003813	0.003253	-0.003805	-0.544678	-0.317627	-0.532471	5.686535	24.969892	175.594616
61977		-4.189444	0.847301	8.860593	-0.002131	0.008356	-0.004122	-0.548584	-0.330566	-0.537842	5.688632	24.972329	175.595634
61978		-4.173966	0.857617	8.875134	-0.005333	0.004737	-0.006542	-0.547607	-0.324219	-0.534668	5.688538	24.972327	175.595370
61979		-4.172061	0.836267	8.887427	-0.002131	0.008357	-0.004121	-0.556152	-0.329590	-0.540039	5.690631	24.974780	175.596388
61980		-4.177796	0.877518	8.862075	-0.001669	0.005970	-0.004216	-0.540771	-0.319824	-0.534912	5.693286	24.975349	175.597663
61981		-4.177829	0.873852	8.904056	-0.004960	0.004139	-0.004338	-0.538086	-0.329102	-0.532471	5.693574	24.975417	175.598565
61982		-4.174264	0.838156	8.844564	-0.002905	0.008644	-0.002449	-0.547607	-0.327637	-0.537842	5.696061	24.977409	175.601120
61983		-4.176908	0.855160	8.873986	-0.005244	0.002950	-0.008841	-0.547852	-0.324219	-0.534424	5.694981	24.977084	175.598564
61984		-4.161810	0.868530	8.846424	-0.006284	0.008600	-0.000270	-0.549561	-0.321289	-0.535889	5.696110	24.978928	175.602486
61985		-4.196746	0.863939	8.846202	-0.000896	0.005685	-0.005885	-0.546631	-0.331543	-0.535400	5.698358	24.979926	175.602654
61986		-4.178663	0.853581	8.873312	-0.004275	0.005641	-0.003707	-0.542236	-0.326416	-0.544922	5.699647	24.980278	175.604229
61987		-4.197462	0.859919	8.887897	-0.000985	0.007474	-0.003585	-0.550781	-0.326416	-0.533936	5.702507	24.982275	175.605388
61988		-4.164257	0.866993	8.845423	-0.002444	0.006258	-0.002544	-0.544189	-0.327393	-0.540039	5.705171	24.982913	175.607734
61989		-4.180250	0.852523	8.872667	-0.002577	0.000582	-0.005570	-0.545166	-0.323730	-0.532715	5.706416	24.981016	175.607421
61990		-4.198915	0.862219	8.845341	0.000774	-0.000286	-0.001670	-0.549561	-0.324951	-0.536133	5.710982	24.977873	175.609904
61991		-4.180124	0.852370	8.872740	0.003931	-0.004130	-0.004574	-0.549805	-0.324951	-0.531738	5.716094	24.973200	175.610098
61992		-4.203030	0.900911	8.862660	0.002756	-0.004157	0.000970	-0.553223	-0.320801	-0.534668	5.722393	24.967698	175.613998
61993		-4.183990	0.891165	8.890165	0.003246	-0.005632	-0.005204	-0.554199	-0.318604	-0.536133	5.726908	24.962146	175.613936
61994		-4.163153	0.866937	8.845948	0.002934	-0.007732	-0.003629	-0.547119	-0.334229	-0.529297	5.731991	24.954869	175.614716
61995		-4.164567	0.884538	8.875899	0.001877	-0.008635	-0.006462	-0.539063	-0.330078	-0.545166	5.735327	24.947685	175.613299
61996		-4.216830	0.890236	8.848934	0.002561	-0.007133	-0.005832	-0.551758	-0.322510	-0.536865	5.739628	24.940876	175.612731
61997		-4.190629	0.824403	8.829918	0.005407	-0.013076	-0.007161	-0.545410	-0.328369	-0.531738	5.744642	24.931371	175.610681
61998		-4.152756	0.954875	8.896584	0.007567	-0.020520	-0.009117	-0.549072	-0.324463	-0.529297	5.750584	24.917119	175.607199
61999		-4.190382	0.989158	8.914338	0.001191	-0.010135	-0.007088	-0.541992	-0.327881	-0.535400	5.753331	24.909130	175.605160
62000		-4.145692	0.912733	8.922620	-0.003284	-0.007471	-0.017596	-0.545166	-0.327148	-0.532227	5.751160	24.902804	175.597175
62001		-4.143123	0.893670	8.893364	-0.011847	-0.007266	-0.020476	-0.553223	-0.327637	-0.529785	5.742964	24.897305	175.586803
62002		-4.175254	0.869808	8.864033	-0.017078	0.002233	-0.017912	-0.554443	-0.328613	-0.537354	5.733066	24.896528	175.579233
62003		-4.189539	0.839294	8.819677	-0.012178	0.000798	-0.017353	-0.555420	-0.317627	-0.532471	5.725735	24.895324	175.571598
62004		-4.180550	0.907687	8.839280	-0.009641	-0.007243	-0.017108	-0.548096	-0.325684	-0.539063	5.720061	24.889096	175.563938
62005		-4.193088	0.871209	8.879570	-0.008868	-0.007527	-0.018776	-0.555176	-0.316406	-0.533447	5.713990	24.883276	175.555534
62006		-4.195060	0.890453	8.867492	-0.008405	-0.009911	-0.018870	-0.546875	-0.318359	-0.546143	5.708489	24.875626	175.546601
62007		-4.205691	0.839870	8.836080	-0.004277	-0.011062	-0.016643	-0.546143	-0.331543	-0.537598	5.705484	24.867731	175.539824
62008		-4.172451	0.860795	8.866232	-0.000369	-0.016099	-0.015142	-0.556885	-0.314697	-0.539551	5.705412	24.856340	175.532848
62009		-4.209984	0.894194	8.884191	-0.001737	-0.019100	-0.016396	-0.553955	-0.324219	-0.537109	5.703753	24.843834	175.525119
62010		-4.185109	0.844848	8.895165	-0.005866	-0.017946	-0.018618	-0.550293	-0.327393	-0.541260	5.699569	24.831587	175.515845
62011		-4.170194	0.875527	8.898197	-0.001054	-0.017595	-0.015764	-0.552734	-0.328125	-0.538330	5.698522	24.819910	175.508387
62012		-4.214351	0.821206	8.867179	-0.000966	-0.019377	-0.018060	-0.557861	-0.325439	-0.533691	5.697260	24.806815	175.499378
62013		-4.206285	0.911360	8.875037	0.000805	-0.027130	-0.016143	-0.553467	-0.319092	-0.542969	5.696952	24.789651	175.491019
62014		-4.118935	0.926828	8.932819	-0.001494	-0.025359	-0.017203	-0.554199	-0.325684	-0.538330	5.695463	24.773097	175.482175
62015		-4.169845	0.931165	8.906775	-0.010062	-0.025158	-0.020068	-0.555664	-0.324219	-0.531250	5.687913	24.757360	175.471996
62016		-4.133896	0.933688	8.907609	-0.008461	-0.017350	-0.024159	-0.552979	-0.327637	-0.533936	5.680819	24.745765	175.459291
62017		-4.180247	0.895726	8.906337	-0.013670	-0.018017	-0.023132	-0.551514	-0.330566	-0.530029	5.670653	24.734165	175.447087
62018		-4.199216	0.917549	8.951727	-0.018661	-0.014800	-0.021383	-0.550049	-0.324707	-0.537598	5.658518	24.723863	175.436291
62019		-4.164435	0.922358	8.910222	-0.020102	-0.015094	-0.026405	-0.549805	-0.317627	-0.533447	5.643892	24.714172	175.421984
62020		-4.119787	0.846926	8.876458	-0.022869	-0.010940	-0.027365	-0.550537	-0.329590	-0.534180	5.627882	24.706403	175.407679
62021		-3.957602	0.666416	8.832710	-0.015754	-0.012353	-0.023458	-0.551025	-0.321777	-0.535645	5.616581	24.698108	175.395772
62022		-3.982708	0.594538	8.912838	-0.009532	-0.001556	-0.014047	-0.554688	-0.338135	-0.531982	5.611951	24.694938	175.390409
62023		-4.090680	0.757912	8.828370	-0.004640	-0.003911	-0.007433	-0.551270	-0.322266	-0.529785	5.611452	24.690519	175.388568
62024		-4.013129	0.697039	8.949738	-0.002160	0.008355	-0.004109	-0.555420	-0.320801	-0.527588	5.613908	24.692443	175.390054
62025		-4.203284	0.817564	8.905020	0.000140	0.006589	-0.003049	-0.555664	-0.330566	-0.536377	5.617541	24.693682	175.392290
62026		-4.135298	0.826121	8.904468	-0.001706	0.005047	0.001862	-0.557373	-0.326904	-0.530518	5.621738	24.693384	175.397320
62027		-4.133664	0.808621	8.874586	0.001669	0.005103	-0.000320	-0.554688	-0.333008	-0.534668	5.626937	24.693658	175.400723
62028		-4.128079	0.899495	8.881400	-0.000846	0.002986	-0.002102	-0.550293	-0.327637	-0.539307	5.630533	24.692408	175.403137
62029		-4.162247	0.891521	8.923505	-0.004764	0.008019	-0.003595	-0.551514	-0.329834	-0.527588	5.631250	24.694622	175.404478
62030		-4.110759	0.888531	8.908080	-0.007532	0.012170	-0.004557	-0.555420	-0.333740	-0.531738	5.630610	24.698746	175.405920
62031		-4.191270	0.825939	8.918100	-0.016949	0.015354	-0.009517	-0.552246	-0.328857	-0.531250	5.623029	24.705365	175.403700
62032		-4.124760	0.836054	8.875179	-0.016570	0.014752	-0.007316	-0.548340	-0.320801	-0.534424	5.616553	24.711117	175.403569
62033		-4.114419	0.880426	8.948755	-0.014145	0.018650	-0.003235	-0.550781	-0.328613	-0.532471	5.612258	24.719334	175.406149
62034		-4.153214	0.894984	8.935741	-0.023562	0.021838	-0.008192	-0.550293	-0.323486	-0.536621	5.601728	24.729176	175.405903
62035		-4.163981	0.822395	8.915437	-0.025953	0.025389	-0.006950	-0.558350	-0.320557	-0.534424	5.589869	24.741455	175.406485
62036		-4.131985	0.824091	8.914522	-0.026636	0.023893	-0.007573	-0.559814	-0.332275	-0.533936	5.577791	24.752434	175.406749
62037		-4.185005	0.809380	8.856918	-0.028469	0.023281	-0.008725	-0.546631	-0.334717	-0.532227	5.563981	24.763499	175.406294
62038		-4.127795	0.888385	8.932635	-0.031166	0.024727	-0.005911	-0.552490	-0.321289	-0.535156	5.549765	24.774861	175.407648
62039		-4.180884	0.869732	8.916940	-0.038325	0.036310	-0.008244	-0.546875	-0.321045	-0.536377	5.530769	24.793428	175.407770
62040		-4.163310	0.838202	8.913342	-0.048065	0.036473	-0.005558	-0.551758	-0.326416	-0.531250	5.507259	24.811470	175.410050
62041		-4.138876	1.022164	8.983619	-0.061872	0.047110	-0.011876	-0.550537	-0.322510	-0.539063	5.474065	24.836386	175.408908
62042		-4.159817	1.000558	9.009252	-0.085448	0.069014	-0.019992	-0.553711	-0.318848	-0.539795	5.426135	24.873776	175.404044
62043		-4.164146	0.970070	9.019480	-0.108325	0.081348	-0.022955	-0.557129	-0.321045	-0.533691	5.364212	24.918833	175.398412
62044		-4.128215	0.882457	9.024210	-0.134148	0.102374	-0.028281	-0.549316	-0.327393	-0.540771	5.286959	24.975686	175.390196
62045		-4.175248	0.884477	9.008536	-0.159348	0.116560	-0.032207	-0.551514	-0.324219	-0.535889	5.194185	25.041221	175.380152
62046		-4.179322	0.812479	8.957541	-0.177046	0.129686	-0.036051	-0.545654	-0.323242	-0.540527	5.090828	25.114034	175.368380
62047		-4.168151	0.750108	8.921067	-0.188158	0.135389	-0.035158	-0.550537	-0.319336	-0.530029	4.981076	25.190450	175.357019
62048		-4.209550	0.684904	8.941059	-0.201310	0.136619	-0.036159	-0.548828	-0.316895	-0.539795	4.863783	25.267185	175.345232
62049		-4.230493	0.595421	8.915914	-0.204611	0.143368	-0.036738	-0.539307	-0.316162	-0.547363	4.744190	25.348065	175.333271
62050		-4.182744	0.643009	8.917421	-0.215059	0.143205	-0.040527	-0.545410	-0.306885	-0.529053	4.617792	25.428719	175.318691
62051		-4.167294	0.660170	8.972891	-0.221628	0.156570	-0.041826	-0.543945	-0.311768	-0.535400	4.487097	25.517397	175.304053
62052		-4.147999	0.514053	8.941150	-0.229610	0.165974	-0.038335	-0.538818	-0.312988	-0.542236	4.353217	25.610900	175.291548
62053		-4.087284	0.570045	8.957536	-0.243115	0.181027	-0.032860	-0.539307	-0.307373	-0.540527	4.212944	25.713049	175.282923
62054		-4.042675	0.708164	9.123983	-0.264064	0.215141	-0.034533	-0.534424	-0.303711	-0.538086	4.061079	25.834435	175.274552
62055		-3.991182	0.519578	9.113576	-0.298702	0.264938	-0.022435	-0.539551	-0.305176	-0.541260	3.893151	25.984056	175.275906
62056		-3.917837	0.648774	9.164741	-0.319531	0.307069	-0.032621	-0.534668	-0.303223	-0.543945	3.711354	26.157878	175.271829
62057		-3.760053	0.956277	9.420936	-0.353425	0.418196	-0.047886	-0.526123	-0.300537	-0.552490	3.507170	26.395971	175.261923
62058		-3.004571	1.035879	9.859927	-0.430512	0.625121	-0.038149	-0.527588	-0.303955	-0.547852	3.264916	26.751861	175.264916
62059		-2.955970	1.278784	10.093483	-0.518719	0.912508	-0.059204	-0.517822	-0.291992	-0.543701	2.969420	27.273013	175.262362
62060		-2.847987	1.139776	9.882568	-0.642933	1.148185	-0.036880	-0.508057	-0.285400	-0.557861	2.611589	27.928214	175.278492
62061		-2.828006	0.471474	10.419751	-0.751594	1.408496	0.092601	-0.501465	-0.285889	-0.550049	2.232572	28.729367	175.381282
62062		-2.828073	-1.670614	10.448664	-0.569696	1.686217	0.254519	-0.482422	-0.273926	-0.555908	2.012609	29.686565	175.593134
62063		-2.604843	-1.956899	10.386802	-0.391227	1.908264	0.411021	-0.469482	-0.275879	-0.560303	1.952330	30.768122	175.913053
62064		-4.453552	-1.367338	10.046640	-0.326842	2.042901	0.546513	-0.450928	-0.272461	-0.567871	1.985330	31.924315	176.330558
62065		-5.267849	0.350394	10.899955	-0.422598	2.071998	0.692052	-0.436035	-0.265381	-0.567383	2.026917	33.093715	176.853459
62066		-3.874429	-0.570777	12.115358	-0.562719	1.856468	0.831909	-0.419434	-0.264404	-0.572266	2.051673	34.136904	177.474997
62067		-1.715114	-1.747779	11.630708	-0.508587	1.595422	1.061635	-0.404053	-0.252441	-0.575439	2.207515	35.024433	178.258291
62068		-1.211968	-2.149964	11.895410	-0.249988	1.382339	1.302616	-0.392822	-0.249756	-0.572510	2.623490	35.781430	179.218237
62069		-2.526515	-1.284977	12.431184	0.066722	1.167577	1.440248	-0.377197	-0.251709	-0.569824	3.292300	36.403116	-179.715605
62070		-2.061085	-0.582148	12.961160	0.154657	0.738026	1.430072	-0.377441	-0.253418	-0.572510	4.013457	36.769965	-178.659536
62071		-0.658430	-0.199263	12.307625	0.022999	0.301778	1.359212	-0.367432	-0.242676	-0.584473	4.622267	36.879416	-177.669740
62072		0.563453	-0.132555	11.440587	-0.180259	-0.035016	1.245159	-0.365479	-0.238770	-0.577148	5.055784	36.796214	-176.779542
62073		1.599327	-0.377815	10.774563	-0.381149	-0.240010	1.122007	-0.363525	-0.231445	-0.576172	5.309499	36.596272	-175.993310
62074		1.836990	-0.631527	10.316994	-0.532089	-0.393573	1.015385	-0.366943	-0.231934	-0.582275	5.422425	36.314293	-175.295363
62075		1.817718	-0.820997	10.171292	-0.615626	-0.518192	0.927790	-0.368408	-0.225830	-0.581299	5.439571	35.962904	-174.671790
62076		1.503588	-0.799493	10.224600	-0.668998	-0.657335	0.850174	-0.370117	-0.219482	-0.583252	5.385210	35.538949	-174.114038
62077		1.092634	-0.640654	10.250715	-0.694500	-0.802902	0.785560	-0.376709	-0.213867	-0.577393	5.277850	35.033045	-173.614447
62078		0.745115	-0.449325	10.240554	-0.720560	-0.939050	0.724300	-0.379395	-0.209229	-0.574219	5.123148	34.456558	-173.166883
62079		0.434097	-0.371066	10.105806	-0.725777	-1.057301	0.660705	-0.381104	-0.199951	-0.571045	4.930391	33.813420	-172.772577
62080		0.256821	-0.372106	9.942834	-0.715439	-1.130333	0.597371	-0.391113	-0.190674	-0.573242	4.715225	33.136276	-172.425062
62081		-0.004622	-0.562387	9.921986	-0.662935	-1.145158	0.524726	-0.399414	-0.181641	-0.572754	4.497715	32.451215	-172.128479
62082		-0.411538	-0.673496	9.839045	-0.584210	-1.109520	0.422953	-0.405518	-0.183350	-0.572021	4.289254	31.795809	-171.896797
62083		-0.826040	-0.971555	9.797835	-0.479422	-1.028365	0.289454	-0.410156	-0.177002	-0.572754	4.092498	31.188807	-171.750599
62084		-1.392714	-1.216561	9.940902	-0.350380	-0.921867	0.133886	-0.413086	-0.179932	-0.575684	3.920531	30.653567	-171.700558
62085		-1.974251	-1.261293	9.972473	-0.225852	-0.789441	-0.063312	-0.414551	-0.168701	-0.568359	3.754871	30.197171	-171.774976
62086		-2.613349	-1.322008	10.263187	-0.130767	-0.644006	-0.297641	-0.419434	-0.171387	-0.584961	3.572993	29.836874	-171.994913
62087		-3.553490	-1.208391	10.968594	-0.080727	-0.490551	-0.553367	-0.428711	-0.183105	-0.582520	3.339175	29.567707	-172.376140
62088		-5.363225	-0.874991	12.111644	-0.139440	-0.385740	-0.823467	-0.427490	-0.168213	-0.578125	2.991158	29.370149	-172.927403
62089		-7.819585	-0.579447	12.873041	-0.258069	-0.509369	-1.147246	-0.436523	-0.171387	-0.582031	2.470617	29.102118	-173.693106
62090		-9.233997	-0.738370	12.948051	-0.377128	-0.862121	-1.512783	-0.445801	-0.172119	-0.579102	1.771834	28.637696	-174.699186
62091		-9.112466	-1.259780	12.458876	-0.424803	-1.241050	-1.803558	-0.460938	-0.176514	-0.580078	0.965917	27.943804	-175.888889
62092		-8.311562	-1.672713	11.556499	-0.357648	-1.509785	-1.967787	-0.479980	-0.171143	-0.584717	0.174084	27.087204	-177.165851
62093		-7.752215	-1.783563	10.716472	-0.188323	-1.663667	-2.012615	-0.502686	-0.175781	-0.583740	-0.507317	26.123126	-178.449518
62094		-7.800400	-1.654217	10.270689	0.070499	-1.757687	-1.954688	-0.517822	-0.172607	-0.580322	-0.992671	25.098733	-179.672827
62095		-8.131509	-1.187630	10.117069	0.353102	-1.840619	-1.806511	-0.539307	-0.180908	-0.568359	-1.251091	24.016766	179.215131
62096		-8.535254	-0.432037	10.065221	0.604930	-1.977369	-1.607851	-0.559326	-0.187012	-0.569824	-1.288285	22.860990	178.242565
62097		-8.721099	0.380621	9.875581	0.757226	-2.126018	-1.374795	-0.584229	-0.201172	-0.562256	-1.163083	21.619270	177.423004
62098		-8.446841	1.410588	9.273768	0.809713	-2.274115	-1.159739	-0.610352	-0.203613	-0.546875	-0.940043	20.301632	176.740991
62099		-7.905808	2.708439	8.537922	0.694666	-2.350016	-0.985281	-0.625488	-0.218506	-0.543457	-0.733486	18.940377	176.165783
62100		-7.278262	3.548738	7.794858	0.437563	-2.328923	-0.870183	-0.645508	-0.214600	-0.540039	-0.637839	17.597423	175.661337
62101		-6.826954	3.557080	7.303593	0.113926	-2.208980	-0.767208	-0.669434	-0.224365	-0.518799	-0.699167	16.320395	175.220540
62102		-6.774429	3.067139	6.835405	-0.148281	-2.022144	-0.635381	-0.681641	-0.230225	-0.513428	-0.878141	15.154192	174.862612
62103		-6.873723	2.203229	6.442457	-0.311583	-1.814258	-0.467232	-0.695557	-0.228516	-0.503906	-1.118686	14.104261	174.608112
62104		-6.583001	1.630085	5.981626	-0.332695	-1.634002	-0.297152	-0.716309	-0.222412	-0.488281	-1.341781	13.161940	174.457318
62105		-6.655281	1.045061	5.552952	-0.284595	-1.422704	-0.101682	-0.724609	-0.213867	-0.482422	-1.510238	12.340107	174.421880
62106		-6.803544	1.155845	5.353898	-0.231683	-1.242292	0.067796	-0.736084	-0.220215	-0.482422	-1.626773	11.627010	174.485156
62107		-6.910645	1.067876	5.327592	-0.251226	-1.089679	0.215780	-0.750244	-0.214111	-0.480957	-1.739116	11.001549	174.633395
62108		-7.289258	1.093969	5.387243	-0.341659	-0.960931	0.339504	-0.746094	-0.202148	-0.453857	-1.890979	10.454782	174.852686
62109		-7.644043	1.008999	5.341409	-0.458991	-0.895233	0.415210	-0.764893	-0.209473	-0.455811	-2.104743	9.945945	175.115971
62110		-7.624887	0.632674	5.200515	-0.566500	-0.865619	0.461349	-0.763916	-0.205811	-0.443359	-2.377160	9.458092	175.407277
62111		-7.177322	0.099781	4.633137	-0.597322	-0.809466	0.459418	-0.769531	-0.191650	-0.452881	-2.670118	9.002401	175.697970
62112		-6.387855	-0.524634	4.066507	-0.505124	-0.657753	0.385912	-0.776367	-0.173584	-0.440674	-2.918784	8.634195	175.943736
62113		-5.951093	-1.044790	3.765496	-0.310893	-0.402790	0.243771	-0.771240	-0.177490	-0.444092	-3.071029	8.407599	176.100568
62114		-5.922089	-1.557761	3.658137	-0.035446	-0.114893	0.020323	-0.770508	-0.188721	-0.436035	-3.085496	8.339940	176.119586
62115		-6.078692	-2.011162	3.911615	0.274591	0.163005	-0.231924	-0.774658	-0.185303	-0.441895	-2.945358	8.423211	175.984078
62116		-6.396496	-2.220328	4.508007	0.584114	0.398023	-0.493659	-0.781250	-0.190186	-0.451416	-2.651102	8.634613	175.690834
62117		-6.567337	-1.954755	4.983006	0.830507	0.561829	-0.751698	-0.779053	-0.191895	-0.452393	-2.240916	8.935231	175.245063
62118		-2.181109	4.529794	7.850145	0.402767	0.916359	-0.721243	-0.766602	-0.199951	-0.456543	-2.076485	9.441720	174.810373
62119		1.670384	-1.198249	7.767444	-0.075754	1.767384	-1.019796	-0.763428	-0.205078	-0.465332	-2.225681	10.429339	174.182561
62120		-1.303180	-3.028492	9.723763	0.037353	1.558436	-1.006737	-0.750488	-0.215576	-0.468262	-2.317909	11.296097	173.563329
62121		-0.176188	-1.000116	9.573681	0.149986	1.714639	-0.893349	-0.739502	-0.224121	-0.485352	-2.343784	12.254366	173.003625
62122		-1.141646	-0.923376	7.762686	0.166810	1.794081	-0.859740	-0.730713	-0.219238	-0.485840	-2.365305	13.258604	172.459410
62123		-1.265347	-0.299464	8.114032	0.226547	1.999691	-0.771468	-0.726074	-0.228760	-0.502441	-2.352532	14.382554	171.959562
62124		-2.651585	0.360819	9.093625	0.380706	2.126467	-0.558474	-0.710938	-0.228027	-0.512451	-2.228964	15.584569	171.581921
62125		-3.522436	1.037996	10.420934	0.618312	2.168249	-0.194165	-0.695801	-0.233643	-0.522949	-1.916640	16.819370	171.422885
62126		-6.421952	2.923401	12.490054	0.652235	2.117159	0.158905	-0.667725	-0.232666	-0.532715	-1.521580	18.031959	171.483889
62127		-8.907549	3.664884	12.907048	0.582490	1.788551	0.293342	-0.656982	-0.248047	-0.541748	-1.135688	19.057736	171.639633
62128		-7.886417	2.571359	11.997650	0.516938	1.425909	0.420474	-0.654541	-0.242432	-0.548340	-0.754788	19.875900	171.884593
62129		-5.748101	0.396647	10.457656	0.447929	1.279182	0.411915	-0.640869	-0.245850	-0.549561	-0.409732	20.608829	172.131861
62130		-4.483488	-2.770459	9.592644	0.394375	1.328454	0.270606	-0.629883	-0.249756	-0.558105	-0.121216	21.367960	172.297918
62131		-5.434625	-2.979443	9.971251	0.429658	1.422686	0.131469	-0.619629	-0.252197	-0.561523	0.159293	22.180783	172.382963
62132		-5.806041	-0.648491	10.130864	0.467690	1.332456	0.072131	-0.603760	-0.255371	-0.572510	0.450648	22.941230	172.435901
62133		-5.440634	1.704123	9.925440	0.452376	1.244763	0.100343	-0.599365	-0.256104	-0.574219	0.741867	23.651569	172.510150
62134		-5.237039	2.309838	9.639787	0.351386	1.147408	0.116504	-0.592529	-0.256592	-0.585693	0.981899	24.305110	172.597818
62135		-5.375276	1.062165	9.576629	0.306205	1.063104	0.106487	-0.583984	-0.253418	-0.584717	1.194898	24.910777	172.681290
62136		-5.689470	-0.023316	9.365006	0.320397	0.931751	0.124630	-0.574463	-0.263672	-0.585693	1.422454	25.440038	172.777453
62137		-5.996923	-0.314260	9.498251	0.375161	0.792004	0.134111	-0.570068	-0.266357	-0.592041	1.684639	25.889442	172.879989
62138		-8.712069	1.896752	11.166269	0.306833	0.445533	0.086871	-0.562012	-0.268555	-0.596191	1.893355	26.140183	172.948024
62139		-4.763592	0.310051	8.477318	0.311088	0.146259	0.064388	-0.568604	-0.269531	-0.590332	2.095639	26.220648	172.996038
62140		-4.870337	-1.018715	8.937455	0.341182	0.119495	0.066282	-0.560547	-0.274902	-0.594482	2.315889	26.284725	173.045082
62141		-5.421083	0.626477	9.057307	0.334539	-0.005088	0.062743	-0.553467	-0.277100	-0.604248	2.529667	26.278298	173.088635
62142		-4.701689	0.108018	8.829998	0.321410	-0.074347	0.021185	-0.563477	-0.281738	-0.597412	2.723581	26.232288	173.103749
62143		-4.663585	0.073055	8.813117	0.311788	-0.127976	0.013763	-0.558594	-0.280273	-0.594238	2.908734	26.156684	173.112120
62144		-4.090706	0.210749	8.808872	0.309248	-0.169040	0.023307	-0.566406	-0.290039	-0.596924	3.094690	26.056342	173.125067
62145		-4.096217	0.231231	8.955468	0.318323	-0.153329	0.040211	-0.559326	-0.290039	-0.591797	3.290278	25.965339	173.148791
62146		-4.496891	0.629224	9.026172	0.301015	-0.167198	0.046608	-0.563232	-0.293457	-0.597656	3.477650	25.865186	173.175858
62147		-4.497599	1.038710	9.155710	0.276873	-0.150036	0.054873	-0.566162	-0.291748	-0.598877	3.653221	25.775394	173.208322
62148		-4.548147	1.035835	9.128288	0.232242	-0.145808	0.040622	-0.570801	-0.291748	-0.594727	3.799538	25.687550	173.231768
62149		-4.393103	1.037241	9.158825	0.175899	-0.114922	0.024432	-0.575195	-0.292725	-0.590332	3.909265	25.618857	173.245894
62150		-4.438248	0.968683	9.082783	0.125462	-0.087501	0.004702	-0.569824	-0.298828	-0.594971	3.985443	25.565677	173.248722
62151		-4.298152	0.707853	9.073067	0.087867	-0.051906	-0.006258	-0.571045	-0.293945	-0.591064	4.037467	25.534190	173.245998
62152		-4.173831	0.928307	9.066163	0.051833	-0.017887	-0.014604	-0.572021	-0.290283	-0.594727	4.067486	25.521574	173.239612
62153		-4.255975	0.601634	8.963938	0.028951	0.009642	-0.024823	-0.570801	-0.299805	-0.590088	4.081886	25.526007	173.227877
62154		-4.132057	0.676517	9.054817	0.008439	0.035065	-0.009403	-0.575684	-0.306641	-0.591309	4.089490	25.543444	173.227172
62155		-4.507223	0.714789	8.929802	-0.010093	0.022761	-0.020193	-0.574707	-0.291992	-0.592773	4.083035	25.555172	173.218962
62156		-4.708957	0.139702	8.931243	-0.018044	0.016634	-0.013524	-0.578613	-0.299805	-0.593750	4.073979	25.562244	173.214811
62157		-4.209232	0.903741	9.033681	-0.030478	-0.063398	-0.024806	-0.571045	-0.296387	-0.591064	4.052896	25.524932	173.199791
62158		-4.149953	0.369815	8.942003	-0.043021	0.014623	-0.011752	-0.577881	-0.293457	-0.593994	4.029973	25.530780	173.196668
62159		-4.357763	0.847764	8.944751	-0.043857	0.039499	-0.009783	-0.571045	-0.293701	-0.592773	4.007319	25.551650	173.195778
62160		-4.210324	0.679552	8.913426	-0.043502	0.044490	-0.004552	-0.568115	-0.301514	-0.592773	3.986656	25.574279	173.198533
62161		-4.371768	0.570956	8.872786	-0.039902	0.064767	-0.004960	-0.571045	-0.300049	-0.587646	3.968075	25.609393	173.201803
62162		-4.264077	0.617297	8.874932	-0.037121	0.077524	0.005148	-0.571045	-0.303711	-0.586426	3.954352	25.650522	173.212144
62163		-4.381179	0.552281	8.794719	-0.024494	0.073461	0.003454	-0.571289	-0.300537	-0.592041	3.947074	25.690272	173.221115
62164		-4.356651	0.491276	8.730110	-0.006256	0.030402	0.014306	-0.569092	-0.304199	-0.593018	3.952668	25.704106	173.235198
62165		-4.347347	0.429729	8.766083	0.012213	-0.011583	0.029594	-0.570801	-0.297363	-0.591797	3.971995	25.694213	173.257022
62166		-4.147758	0.794547	8.844480	0.018009	0.008671	0.032518	-0.571289	-0.292480	-0.593506	3.996088	25.694894	173.281706
62167		-4.417563	0.342135	8.671087	0.044683	0.014103	0.028282	-0.569336	-0.302734	-0.589600	4.034151	25.699710	173.303832
62168		-4.397610	0.429400	8.706831	0.060401	0.000267	0.034818	-0.569824	-0.292480	-0.590820	4.083004	25.695466	173.329598
62169		-4.342122	0.523901	8.743804	0.071578	-0.018472	0.039922	-0.571777	-0.293945	-0.591797	4.139016	25.681164	173.357618
62170		-4.365481	0.575679	8.776710	0.082910	-0.025552	0.036958	-0.575439	-0.299805	-0.596436	4.200819	25.662031	173.383533
62171		-4.371202	0.535605	8.744557	0.087598	-0.034684	0.035982	-0.574707	-0.294189	-0.590576	4.264559	25.638581	173.408249
62172		-4.291201	0.601715	8.821971	0.092815	-0.039508	0.031982	-0.569824	-0.296143	-0.596924	4.330342	25.611637	173.430288
62173		-4.278750	0.664159	8.813907	0.088389	-0.040495	0.031348	-0.572998	-0.308105	-0.591309	4.393090	25.585019	173.451714
62174		-4.261347	0.791978	8.868316	0.077493	-0.031915	0.024574	-0.569092	-0.297363	-0.591797	4.448180	25.562697	173.469360
62175		-4.216602	0.850309	8.944165	0.064781	-0.011653	0.016761	-0.572266	-0.302490	-0.593994	4.493998	25.553165	173.482916
62176		-4.235987	0.662936	8.912047	0.054535	0.010735	0.010731	-0.573730	-0.301025	-0.594482	4.533049	25.555802	173.493887
62177		-4.221705	0.683477	8.884189	0.052939	0.016865	0.017082	-0.571289	-0.301025	-0.598145	4.572790	25.562515	173.509070
62178		-4.282888	0.730234	8.872344	0.045917	0.027785	0.017032	-0.572021	-0.299316	-0.596436	4.609003	25.574587	173.524902
62179		-4.246116	0.814196	8.849494	0.038660	0.037595	0.012531	-0.562744	-0.302734	-0.596924	4.639790	25.593325	173.538278
62180		-4.268782	0.823435	8.861873	0.031797	0.053449	0.007266	-0.572266	-0.304932	-0.593262	4.665831	25.620491	173.549268
62181		-4.284739	0.682320	8.860611	0.028042	0.060628	0.004321	-0.574219	-0.305664	-0.597168	4.688832	25.652749	173.558666
62182		-4.261155	0.628240	8.753819	0.032685	0.062780	0.009465	-0.562256	-0.300781	-0.591309	4.716220	25.685132	173.571566
62183		-4.305546	0.556666	8.730135	0.053046	0.052169	0.015284	-0.573242	-0.311768	-0.594971	4.756391	25.712027	173.587507
62184		-4.258707	0.666981	8.793487	0.062993	0.052330	0.023164	-0.571045	-0.297119	-0.592285	4.804707	25.737773	173.608591
62185		-4.226233	0.658531	8.803718	0.067420	0.060061	0.020949	-0.565918	-0.305664	-0.603027	4.854888	25.768876	173.628596
62186		-4.176099	0.640997	8.841213	0.069742	0.070673	0.022147	-0.569092	-0.305176	-0.604248	4.907270	25.805110	173.650089
62187		-4.183245	0.644539	8.879596	0.067481	0.087682	0.027994	-0.559814	-0.304932	-0.601807	4.960142	25.851589	173.676145
62188		-4.180568	0.676561	8.962066	0.059516	0.112997	0.031993	-0.567139	-0.298340	-0.590820	5.010485	25.911456	173.706318
62189		-4.209759	0.890736	8.973429	0.035738	0.153894	0.031589	-0.570801	-0.306396	-0.587158	5.047881	25.995489	173.738463
62190		-4.237295	0.862141	8.962990	0.018378	0.195768	0.024824	-0.562012	-0.304932	-0.597900	5.074836	26.102922	173.768870
62191		-4.270182	0.744466	8.901158	0.001681	0.235429	0.028424	-0.565674	-0.298096	-0.593994	5.094049	26.233603	173.803768
62192		-4.311903	0.747269	8.946919	-0.015853	0.266844	0.023930	-0.563232	-0.310547	-0.605713	5.103115	26.381626	173.837788
62193		-4.328446	0.600044	8.880452	-0.028389	0.294183	0.023776	-0.557617	-0.306152	-0.598389	5.105492	26.546050	173.873206
62194		-4.302444	0.681762	8.946113	-0.041795	0.327537	0.028409	-0.551758	-0.301025	-0.597900	5.102755	26.728478	173.913660
62195		-4.195890	0.872241	9.078640	-0.052676	0.367996	0.019371	-0.557129	-0.299561	-0.607666	5.092081	26.935239	173.950558
62196		-4.195157	1.134561	9.213547	-0.075968	0.433944	-0.002588	-0.549561	-0.299072	-0.604004	5.063776	27.179983	173.977264
62197		-4.161387	0.850631	9.244362	-0.108073	0.517309	-0.028381	-0.539307	-0.304443	-0.601318	5.011427	27.474363	173.991868
62198		-4.124259	0.596365	9.274891	-0.108535	0.612024	-0.049197	-0.534912	-0.306641	-0.601318	4.955267	27.823112	173.998233
62199		-3.764253	0.585869	9.494004	-0.094421	0.737719	-0.073303	-0.531738	-0.295166	-0.609131	4.902766	28.245497	173.995537
62200		-3.725076	0.392628	9.708367	-0.084083	0.922299	-0.080744	-0.529297	-0.306396	-0.614014	4.858819	28.772924	173.997961
62201		-3.790609	0.411939	9.618196	-0.079662	1.130004	-0.081061	-0.512451	-0.299316	-0.613525	4.822420	29.419543	174.011111
62202		-3.986787	0.625228	9.628504	-0.111388	1.320823	-0.073390	-0.502930	-0.299072	-0.623291	4.775804	30.174157	174.039551
62203		-3.889205	0.646287	9.780960	-0.143581	1.544460	-0.047908	-0.487549	-0.294922	-0.616455	4.725404	31.055768	174.096553
62204		-3.719304	0.885258	9.946659	-0.160518	1.810146	-0.033467	-0.469727	-0.299805	-0.625244	4.679021	32.087965	174.177755
62205		-3.688169	1.010552	9.988015	-0.189006	2.084222	-0.028021	-0.472168	-0.292236	-0.627441	4.627459	33.276837	174.277549
62206		-3.889119	1.181761	9.799219	-0.252707	2.360583	-0.022422	-0.439209	-0.296631	-0.626709	4.552189	34.623028	174.396536
62207		-3.901176	0.959823	9.593994	-0.315375	2.647295	-0.015544	-0.414795	-0.290039	-0.633545	4.454849	36.133005	174.535554
62208		-3.833537	0.740291	9.576747	-0.341735	2.940974	0.000326	-0.389160	-0.286133	-0.635742	4.362236	37.810055	174.702022
62209		-3.716746	0.368141	9.341261	-0.317232	3.289758	0.045163	-0.353760	-0.283691	-0.647461	4.321098	39.684578	174.922077
62210		-3.818988	0.258560	8.816872	-0.247693	3.693632	0.116038	-0.339111	-0.281494	-0.656738	4.380454	41.786735	175.225774
62211		-3.914524	-0.069096	8.464117	-0.123653	4.221339	0.188143	-0.295654	-0.279541	-0.654785	4.591911	44.186334	175.635506
62212		-3.773241	-0.029962	8.384651	0.049087	4.741860	0.297313	-0.249023	-0.278809	-0.654297	5.031611	46.876356	176.207765
62213		-4.308991	0.146453	8.182230	0.225442	5.283846	0.457257	-0.206299	-0.282471	-0.652100	5.781581	49.862195	177.034165
62214		-5.685058	0.408158	7.904781	0.378494	5.843794	0.557291	-0.158691	-0.289551	-0.652344	6.868781	53.151902	178.141683
62215		-7.276895	0.022094	8.267583	0.429604	6.327180	0.581793	-0.108154	-0.286621	-0.640381	8.273100	56.698014	179.552544
62216		-8.210606	0.437857	7.829919	0.302384	6.637642	0.561989	-0.051758	-0.288330	-0.632813	9.960037	60.399180	-178.677727
62217		-12.211029	0.827935	7.395758	0.094733	6.786942	0.550951	0.008545	-0.304199	-0.608887	12.023196	64.152832	-176.412852
62218		-16.628814	0.848531	7.567530	0.008801	6.461803	0.479353	0.062744	-0.298828	-0.592041	14.540205	67.690530	-173.666250
62219		-16.930962	0.515032	8.727501	-0.164018	5.866272	0.322333	0.105957	-0.294922	-0.578613	17.367243	70.868211	-170.547573
62220		-15.653549	0.782986	9.457680	-0.335279	5.231660	0.311472	0.152100	-0.306641	-0.555664	20.774676	73.640619	-166.772626
62221		-12.706491	1.352251	8.346491	-0.612226	4.747833	0.366317	0.188232	-0.286865	-0.526367	25.060408	76.061792	-161.973365
62222		-10.701022	1.038413	8.198091	-0.936103	4.444038	0.404625	0.217285	-0.282227	-0.510986	30.643963	78.203843	-155.700293
62223		-9.932057	0.986277	8.804864	-1.267512	4.124177	0.492018	0.252930	-0.270264	-0.482666	38.061264	79.995009	-147.411463
62224		-7.765733	-0.054296	8.085912	-1.492327	3.823987	0.693860	0.272949	-0.269287	-0.466309	48.095192	81.325517	-136.380845
62225		-4.187030	-1.221479	7.218221	-1.576024	3.786099	0.979171	0.301270	-0.267090	-0.442139	61.630109	82.116471	-121.795597
62226		0.224543	-3.379415	6.499998	-1.443343	4.028591	1.306708	0.321533	-0.260010	-0.418213	78.473536	82.196925	-103.963977
62227		6.203101	-3.203604	7.740083	-1.015150	4.430755	1.721088	0.356445	-0.259277	-0.396484	95.787420	81.325495	-85.888102
62228		-14.655357	-2.219008	14.211240	-0.561698	4.057029	2.228905	0.372314	-0.271240	-0.372314	107.486082	79.593232	-73.704713
62229		-23.773993	-0.671180	14.792224	-0.514055	1.618962	2.284563	0.386230	-0.283936	-0.353271	109.512631	78.056937	-71.341639
62230		-18.187496	1.807681	14.884077	-0.991511	-1.117518	1.887540	0.374268	-0.286133	-0.364502	104.688412	77.208395	-75.701782
62231		-11.798477	-0.274049	15.646623	-1.429112	-3.359624	1.392645	0.360107	-0.286621	-0.385742	95.038668	76.749796	-84.766928
62232		-8.331042	-0.966107	12.096438	-1.698308	-4.639982	1.210855	0.329346	-0.280762	-0.419189	83.115742	76.006231	-96.034445
62233		-4.812115	-1.972985	9.078747	-1.746033	-5.124774	0.981768	0.294922	-0.270264	-0.446533	71.542938	74.804551	-106.958243
62234		-3.258294	-3.691846	6.789070	-1.514102	-5.287352	0.765034	0.255127	-0.264648	-0.471680	61.579958	73.187717	-116.420841
62235		-2.777509	-4.924408	5.203501	-1.000442	-5.311010	0.618661	0.229004	-0.261475	-0.500488	53.565865	71.246652	-124.234074
62236		-2.872652	-4.417129	4.048255	-0.384990	-5.313761	0.419117	0.182129	-0.248291	-0.517090	47.258915	69.113699	-130.704980
62237		-3.243063	-3.237569	3.630321	0.131077	-5.252527	0.163431	0.139160	-0.256104	-0.553223	42.238256	66.900972	-136.200036
62238		-2.610920	-0.686924	3.601436	0.375152	-5.024230	-0.148264	0.100098	-0.246338	-0.570557	38.172057	64.751194	-140.894848
62239		-1.279832	2.901509	3.197908	0.253354	-4.568706	-0.491259	0.056396	-0.249023	-0.590576	34.692427	62.803236	-144.935296
62240		-0.998800	6.003079	3.444236	-0.368532	-4.079045	-0.623620	0.024902	-0.243408	-0.602539	31.532239	61.035939	-148.280621
62241		-1.931782	6.833647	4.628364	-1.182818	-3.625111	-0.569771	-0.010498	-0.217285	-0.600830	28.539487	59.392150	-150.948283
62242		-3.703217	5.812478	6.337104	-1.817671	-3.397055	-0.364304	-0.046631	-0.193604	-0.612793	25.746800	57.751100	-153.003824
62243		-5.228918	3.913665	7.563447	-2.098836	-3.395951	-0.075188	-0.064941	-0.181641	-0.614502	23.245610	55.989030	-154.555000
62244		-6.015653	2.309628	8.223679	-2.025810	-3.506276	0.228357	-0.110596	-0.154541	-0.609375	21.178220	54.075785	-155.664858
62245		-6.203907	1.944332	8.569609	-1.763506	-3.587674	0.503374	-0.135010	-0.135498	-0.613281	19.574303	52.038888	-156.407845
62246		-6.255387	2.746406	8.766556	-1.569411	-3.586804	0.676708	-0.173584	-0.113525	-0.619141	18.310062	49.965499	-156.881289
62247		-6.600152	3.707591	8.632327	-1.557257	-3.529097	0.697310	-0.202393	-0.097412	-0.617432	17.147174	47.908165	-157.240486
62248		-6.986255	3.977167	8.495140	-1.688679	-3.439961	0.572042	-0.224609	-0.072998	-0.609375	15.921565	45.921821	-157.597855
62249		-7.331986	3.404404	8.498087	-1.836501	-3.320052	0.396423	-0.260254	-0.052734	-0.603271	14.588045	44.017068	-157.995987
62250		-7.838117	2.445097	9.049782	-1.894281	-3.200218	0.205256	-0.280762	-0.019043	-0.597168	13.202881	42.205402	-158.438999
62251		-8.814589	1.603660	10.080036	-1.845008	-3.142464	-0.008219	-0.316162	-0.005859	-0.593018	11.799253	40.438853	-158.963840
62252		-9.736628	1.079851	10.943507	-1.699163	-3.193591	-0.242965	-0.334961	0.023682	-0.578613	10.426977	38.666831	-159.594607
62253		-9.776840	1.105260	11.108805	-1.512076	-3.284071	-0.454776	-0.379639	0.048096	-0.563477	9.114813	36.847023	-160.322572
62254		-9.348813	1.495473	10.851451	-1.337528	-3.301099	-0.628304	-0.411133	0.064941	-0.550049	7.892838	35.026405	-161.103918
62255		-9.332996	1.613957	10.603018	-1.199731	-3.226885	-0.750133	-0.447266	0.090332	-0.529541	6.757284	33.237848	-161.902498
62256		-9.954748	1.651210	10.693821	-1.069180	-3.119998	-0.893694	-0.479248	0.102783	-0.508057	5.703954	31.513215	-162.731118
62257		-10.707464	1.582952	10.870799	-0.951273	-3.049113	-1.087563	-0.518066	0.124512	-0.489990	4.697877	29.820489	-163.635053
62258		-12.002587	1.643307	11.423246	-0.830961	-3.028129	-1.310619	-0.552002	0.134766	-0.471191	3.741076	28.142412	-164.633273
62259		-13.310553	1.784295	12.147521	-0.716833	-3.126138	-1.551504	-0.573975	0.136475	-0.443604	2.821134	26.395999	-165.745010
62260		-14.585316	2.324194	12.913971	-0.665974	-3.352101	-1.780145	-0.615234	0.146240	-0.408203	1.921196	24.516265	-166.957854
62261		-15.127351	2.509276	12.594979	-0.670473	-3.707126	-2.003551	-0.648682	0.144531	-0.380859	1.016571	22.413759	-168.265756
62262		-14.367376	2.009177	11.408398	-0.660236	-4.028419	-2.193902	-0.688965	0.145508	-0.339600	0.144286	20.115601	-169.635799
62263		-13.429404	1.729795	9.714263	-0.572916	-4.203510	-2.382241	-0.719971	0.139160	-0.306641	-0.646262	17.693250	-171.064481
62264		-12.127376	1.507056	7.671628	-0.424569	-4.167862	-2.534934	-0.755615	0.125244	-0.269531	-1.303271	15.278054	-172.532756
62265		-11.193012	1.298240	6.050408	-0.214529	-3.943622	-2.630958	-0.787354	0.118652	-0.232910	-1.788316	12.971416	-174.020578
62266		-10.734602	1.478941	4.691801	0.011848	-3.573350	-2.632670	-0.804199	0.103516	-0.206543	-2.081429	10.871530	-175.486947
62267		-10.600733	1.909358	3.658534	0.195903	-3.140200	-2.537158	-0.823486	0.074463	-0.177734	-2.210116	9.012603	-176.890028
62268		-10.657824	2.437350	2.917793	0.304380	-2.678238	-2.370835	-0.839844	0.059082	-0.149902	-2.219604	7.424054	-178.197872
62269		-11.094341	2.934622	2.603894	0.322845	-2.222260	-2.155902	-0.865723	0.050293	-0.126709	-2.173134	6.098578	-179.388286
62270		-11.438617	3.317134	2.226397	0.250902	-1.831809	-1.928793	-0.864258	0.033203	-0.106201	-2.129471	5.005638	179.545400
62271		-11.001748	3.433387	1.512542	0.146678	-1.471699	-1.690687	-0.871826	0.020020	-0.091553	-2.117958	4.122109	178.609129
62272		-9.630677	3.682674	1.168919	0.020020	-1.047562	-1.458271	-0.882324	0.010498	-0.088623	-2.157221	3.488527	177.798398
62273		-9.533113	2.867332	0.346115	-0.044745	-0.274491	-1.253077	-0.892822	0.005371	-0.077393	-2.222552	3.299729	177.089255
62274		-10.378273	2.836596	-0.139350	-0.081902	0.294833	-1.071062	-0.892334	-0.004150	-0.072510	-2.302702	3.441689	176.471940
62275		-11.812592	2.520516	-0.036083	-0.043933	0.927755	-0.966807	-0.887207	-0.013184	-0.062988	-2.362249	3.946831	175.899197
62276		-11.916875	1.983888	-0.347471	0.003271	1.505237	-0.918837	-0.890625	-0.011230	-0.073730	-2.399917	4.784057	175.339369
62277		-11.320596	1.943090	-0.930196	0.039523	2.063368	-0.851185	-0.880127	-0.011963	-0.093018	-2.424651	5.942181	174.803589
62278		-0.535381	0.473395	6.465610	0.035394	2.398854	-0.738189	-0.877441	-0.009277	-0.103027	-2.456703	7.294776	174.322923
62279		-4.352458	2.419555	13.920726	-0.016165	2.174462	-0.581390	-0.881348	-0.005371	-0.104736	-2.516418	8.522929	173.935983
62280		-2.270494	1.176810	12.481541	-0.069485	1.922995	-0.402247	-0.868164	0.003906	-0.118896	-2.597167	9.610758	173.656736
62281		-1.039733	-1.401699	8.630847	0.044808	1.965115	-0.033939	-0.870361	0.001465	-0.125732	-2.580485	10.732667	173.589007
62282		-2.254378	-1.883244	9.001768	0.194090	2.305728	0.189537	-0.856201	0.017822	-0.144043	-2.455303	12.054655	173.644176
62283		-4.348572	-2.393158	10.647967	0.275714	2.447001	0.116114	-0.852539	0.022217	-0.156006	-2.291733	13.456224	173.656465
62284		-5.063815	-3.727812	11.432947	0.349296	2.453813	-0.005339	-0.845215	0.035400	-0.160400	-2.101973	14.858391	173.601459
62285		-5.350789	-2.433134	10.627705	0.433887	2.441652	-0.063160	-0.839111	0.026367	-0.177002	-1.873283	16.253371	173.517177
62286		-5.007550	-0.997373	10.492675	0.454650	2.479499	-0.189211	-0.838135	0.032959	-0.183594	-1.654993	17.667369	173.361929
62287		-5.749696	1.155692	10.948375	0.420921	2.498993	-0.260954	-0.823486	0.039795	-0.205566	-1.472740	19.092812	173.166861
62288		-6.412802	2.207091	11.083713	0.408530	2.408210	-0.202196	-0.819092	0.033936	-0.216064	-1.287906	20.466760	173.012266
62289		-6.811792	1.975496	10.979918	0.485902	2.221327	-0.016327	-0.809326	0.038086	-0.225342	-1.018936	21.737419	172.978460
62290		-7.329125	1.174699	10.676130	0.508347	1.996866	0.056371	-0.800293	0.049316	-0.246826	-0.716996	22.879200	172.998473
62291		-7.975360	-0.665504	10.540119	0.584099	1.718129	0.117026	-0.797119	0.056641	-0.251709	-0.352970	23.862740	173.065260
62292		-7.389404	-1.022098	9.928370	0.675275	1.404752	0.206395	-0.789063	0.051514	-0.265869	0.091075	24.665130	173.196813
62293		-7.601026	0.345114	9.959196	0.739171	1.102513	0.289931	-0.790771	0.054443	-0.267822	0.598139	25.294527	173.387990
62294		-6.337004	1.585070	9.608843	0.707698	0.775969	0.322297	-0.778809	0.058594	-0.275146	1.099621	25.733539	173.603726
62295		-7.251834	0.998223	10.818971	0.604596	0.674206	0.303903	-0.777344	0.048340	-0.280518	1.539492	26.114541	173.810914
62296		-6.748691	1.300583	9.339975	0.481773	0.301329	0.230319	-0.770020	0.052979	-0.288330	1.887724	26.280314	173.967492
62297		-4.543629	-0.375252	8.958676	0.475769	0.228413	0.177032	-0.772949	0.057617	-0.292236	2.217456	26.406392	174.089594
62298		-5.679673	0.518749	9.370638	0.437303	0.114388	0.166929	-0.769287	0.053467	-0.287842	2.521631	26.465029	174.203132
62299		-5.174869	1.016374	8.927139	0.430999	-0.010691	0.131456	-0.779053	0.052246	-0.288330	2.810476	26.454331	174.290574
62300		-4.746275	0.262121	8.944205	0.412130	-0.061706	0.091787	-0.777344	0.062012	-0.290771	3.076562	26.413396	174.350957
62301		-4.682035	0.129232	8.713056	0.435270	-0.116646	0.111357	-0.778076	0.056152	-0.296631	3.360284	26.342010	174.421571
62302		-4.814982	0.368954	8.909879	0.422735	-0.144412	0.088745	-0.776123	0.047852	-0.302246	3.629803	26.253365	174.476278
62303		-4.637778	0.352323	9.026600	0.402824	-0.189325	0.083450	-0.773438	0.041992	-0.297607	3.885134	26.140905	174.525179
62304		-4.777097	1.001756	8.802714	0.388198	-0.190732	0.081558	-0.778320	0.046631	-0.294189	4.131328	26.025638	174.572260
62305		-4.385555	0.522458	8.999310	0.420255	-0.242245	0.107729	-0.781494	0.052979	-0.294434	4.401585	25.881539	174.632853
62306		-4.892174	0.852669	8.946316	0.429200	-0.308348	0.099252	-0.777588	0.050049	-0.293457	4.672795	25.697906	174.683937
62307		-4.188372	0.745723	8.780990	0.432356	-0.324312	0.088759	-0.792236	0.042725	-0.292236	4.941838	25.507370	174.726443
62308		-4.477958	0.781641	8.957382	0.417576	-0.303739	0.070364	-0.776611	0.048584	-0.294922	5.197486	25.327411	174.757481
62309		-4.545060	1.173238	9.154924	0.379806	-0.259856	0.054979	-0.788574	0.037842	-0.294189	5.427856	25.175110	174.780461
62310		-4.555914	0.994707	9.001139	0.342061	-0.242628	0.036711	-0.782959	0.041260	-0.288330	5.631960	25.031640	174.792353
62311		-4.054473	0.962219	9.074454	0.306159	-0.219433	0.047274	-0.790527	0.040771	-0.287842	5.818543	24.902693	174.811767
62312		-3.963906	1.202761	9.083304	0.254839	-0.170216	0.051047	-0.785889	0.035156	-0.294678	5.977946	24.799582	174.836321
62313		-3.981213	1.435651	9.161071	0.178555	-0.158736	0.035780	-0.787842	0.035645	-0.292969	6.089695	24.705796	174.851747
62314		-4.140046	1.309856	9.209845	0.128019	-0.102622	0.018018	-0.782715	0.043213	-0.292969	6.169416	24.643124	174.859652
62315		-4.046840	1.218789	9.118610	0.075217	-0.054253	0.005777	-0.791260	0.043945	-0.290527	6.216959	24.610648	174.863090
62316		-4.147116	0.995595	9.003085	0.045932	-0.030731	0.009196	-0.793213	0.041992	-0.287109	6.249332	24.589459	174.870258
62317		-3.897941	1.091237	8.952639	0.028039	0.013911	-0.000008	-0.786133	0.030762	-0.289307	6.270277	24.596152	174.874715
62318		-4.142224	0.969573	8.900707	0.017296	0.018703	0.002801	-0.790527	0.043945	-0.296143	6.285985	24.603513	174.881266
62319		-4.147590	0.876637	8.934802	0.011499	0.023086	0.000160	-0.787598	0.042725	-0.288086	6.297768	24.615407	174.886467
62320		-4.172346	1.148962	8.912693	0.007334	0.012888	0.016694	-0.788330	0.037354	-0.290039	6.311230	24.618579	174.901323
62321		-4.213000	1.056787	8.861862	-0.000348	0.049463	0.001754	-0.782715	0.043701	-0.289307	6.317411	24.645390	174.909359
62322		-4.139566	1.011836	8.813912	0.006375	0.033678	0.007192	-0.783447	0.040039	-0.295166	6.328453	24.660997	174.919709
62323		-4.089049	1.116625	8.876890	0.002520	0.036927	0.003428	-0.788574	0.036133	-0.292725	6.336366	24.680563	174.927936
62324		-4.223077	1.061162	8.814817	-0.003437	0.037418	0.000050	-0.786133	0.042480	-0.292480	6.340035	24.698749	174.934079
62325		-4.254898	0.905950	8.801474	0.001160	0.028248	-0.000851	-0.789063	0.041992	-0.289795	6.345812	24.713642	174.939029
62326		-4.178942	0.966119	8.833238	0.008074	0.017321	-0.000695	-0.781738	0.039795	-0.296143	6.355300	24.720430	174.943308
62327		-4.211343	0.941091	8.844735	0.009039	0.011577	0.005111	-0.788330	0.045166	-0.301270	6.366667	24.725454	174.950835
62328		-4.240238	0.899188	8.826813	0.019500	0.004657	0.003866	-0.783447	0.037842	-0.295654	6.383529	24.724740	174.957090
62329		-4.230472	0.951021	8.858692	0.027449	-0.005375	0.006840	-0.793701	0.038818	-0.288818	6.405395	24.720003	174.964509
62330		-4.205226	0.909432	8.827050	0.030388	-0.011284	0.005516	-0.789063	0.036865	-0.288574	6.428456	24.710102	174.970673
62331		-4.203742	0.912865	8.827402	0.040938	-0.020939	0.008010	-0.789307	0.041992	-0.296387	6.457886	24.696428	174.977714
62332		-4.117216	1.047174	8.879956	0.044449	-0.017890	0.012628	-0.784424	0.044678	-0.298584	6.490661	24.682301	174.987853
62333		-4.078283	1.144286	8.929264	0.038766	-0.001200	0.010001	-0.788086	0.035156	-0.299072	6.519944	24.679726	174.997532
62334		-4.088474	1.097946	8.896653	0.029194	0.013057	0.000574	-0.786133	0.036621	-0.289795	6.541744	24.683993	175.002322
62335		-4.162076	0.999394	8.888139	0.027045	0.023418	0.009279	-0.785400	0.035400	-0.296143	6.564873	24.695462	175.013321
62336		-4.030648	1.046319	8.833431	0.025919	0.025259	0.002736	-0.787598	0.045654	-0.297363	6.585733	24.706529	175.020352
62337		-4.051863	1.054638	8.846579	0.020574	0.035663	-0.000738	-0.782471	0.040771	-0.295654	6.602912	24.725613	175.025972
62338		-4.127486	0.958282	8.795111	0.016603	0.045395	0.006803	-0.778320	0.043213	-0.292236	6.620121	24.747868	175.037024
62339		-4.087458	1.014946	8.825423	0.021643	0.042249	0.005109	-0.787109	0.038818	-0.295166	6.639657	24.770306	175.046802
62340		-4.107188	1.005845	8.808272	0.023282	0.053083	0.007852	-0.786621	0.040039	-0.294922	6.661221	24.796859	175.059093
62341		-3.994122	1.028526	8.906265	0.019967	0.059621	0.006998	-0.793213	0.034424	-0.284668	6.680844	24.829045	175.071349
62342		-3.970351	0.944402	8.896827	0.013483	0.090690	0.008321	-0.793945	0.039307	-0.295166	6.698105	24.876960	175.086728
62343		-4.042314	0.890924	8.958992	0.005050	0.122925	0.010783	-0.782227	0.044434	-0.297119	6.712176	24.944891	175.106056
62344		-4.097108	0.945808	8.957349	0.005046	0.142763	0.016176	-0.793701	0.042480	-0.299316	6.728363	25.021903	175.130263
62345		-4.054412	1.033504	8.985940	-0.004982	0.166210	0.028716	-0.784912	0.041504	-0.298584	6.742883	25.113233	175.164126
62346		-4.163487	1.070707	8.966478	-0.027242	0.206345	0.028593	-0.781738	0.041504	-0.294678	6.746003	25.225578	175.200939
62347		-4.182357	1.177171	8.993967	-0.045436	0.234052	0.024714	-0.774170	0.039795	-0.306396	6.738578	25.355760	175.237405
62348		-4.201197	1.155356	8.954661	-0.069711	0.264092	0.019758	-0.787354	0.043457	-0.299072	6.716987	25.501566	175.272986
62349		-4.131582	1.087366	9.011197	-0.093192	0.299660	0.016283	-0.779297	0.040283	-0.301270	6.682178	25.669658	175.308983
62350		-4.152947	1.012885	9.079055	-0.125455	0.341994	0.021314	-0.775146	0.042480	-0.303955	6.631717	25.859734	175.351193
62351		-4.109836	0.840423	9.068576	-0.155215	0.387625	0.022340	-0.772217	0.050293	-0.298584	6.565998	26.077525	175.397259
62352		-4.112969	1.020493	9.224573	-0.186364	0.453292	0.034605	-0.774902	0.045898	-0.302979	6.488077	26.330178	175.455657
62353		-4.133333	0.930511	9.271748	-0.232578	0.543104	0.030001	-0.769531	0.051270	-0.306885	6.385331	26.636079	175.517271
62354		-4.022568	0.947075	9.329702	-0.272723	0.635102	0.027953	-0.761719	0.049316	-0.304688	6.262060	26.992871	175.583587
62355		-3.957047	1.121407	9.568070	-0.311487	0.762366	0.015209	-0.764648	0.051270	-0.314209	6.116931	27.424765	175.649874
62356		-3.619584	1.050201	9.925077	-0.357860	0.913842	-0.002684	-0.760254	0.060547	-0.315918	5.944702	27.942521	175.713885
62357		-3.490351	0.684893	10.016471	-0.350248	1.136248	-0.038922	-0.750244	0.052002	-0.324463	5.772594	28.590907	175.767795
62358		-3.163366	1.180271	10.272247	-0.303487	1.432318	-0.100208	-0.747803	0.051758	-0.329590	5.617034	29.410130	175.799263
62359		-3.751861	0.831483	10.040227	-0.311310	1.728503	-0.099793	-0.736328	0.051270	-0.330322	5.465826	30.399714	175.847656
62360		-3.623458	1.022374	10.129996	-0.378157	1.993708	-0.087223	-0.719238	0.053955	-0.336670	5.288550	31.538617	175.918249
62361		-3.273804	1.014883	10.346946	-0.430232	2.328785	-0.061886	-0.719238	0.056885	-0.357422	5.100965	32.868819	176.023118
62362		-3.316524	1.139036	10.205288	-0.480705	2.665461	-0.032672	-0.699463	0.059814	-0.363770	4.906964	34.388785	176.164613
62363		-3.349947	1.131370	9.876716	-0.512354	3.018259	-0.004329	-0.689697	0.053955	-0.369873	4.719563	36.110177	176.343268
62364		-3.556679	1.248881	9.670157	-0.537397	3.355348	0.001199	-0.659912	0.058350	-0.381104	4.534856	38.023308	176.542589
62365		-3.566905	1.583246	9.387541	-0.536331	3.724638	0.001563	-0.628662	0.058350	-0.396240	4.368594	40.148562	176.761396
62366		-3.668143	1.271674	8.874425	-0.446644	4.227603	0.001807	-0.616211	0.062500	-0.404541	4.280320	42.560826	177.010464
62367		-3.358678	-0.053195	8.221985	-0.220221	4.884711	0.013046	-0.588135	0.055908	-0.429932	4.371267	45.348458	177.318706
62368		-4.208527	-1.328539	8.503602	0.050816	5.530463	0.110500	-0.553955	0.054932	-0.450439	4.743848	48.499135	177.784526
62369		-5.234350	-2.015630	9.098442	0.252903	6.134983	0.299873	-0.514160	0.051514	-0.468018	5.478020	51.982101	178.546667
62370		-6.598559	-0.336628	9.140657	0.310291	6.559811	0.483107	-0.470703	0.055176	-0.485596	6.580332	55.687793	179.687353
62371		-9.616752	0.105625	7.559465	0.231161	6.853624	0.544986	-0.427246	0.055420	-0.491943	7.994652	59.540282	-178.799126
62372		-17.093734	0.807159	9.791856	-0.054505	6.596950	0.353278	-0.373291	0.040039	-0.503906	9.386655	63.243169	-177.182331
62373		-18.016561	-0.349785	10.351440	-0.305737	5.897911	0.302669	-0.346680	0.045410	-0.499268	10.851885	66.536241	-175.374706
62374		-17.479683	0.281651	11.312359	-0.440121	5.099429	0.339592	-0.308105	0.032715	-0.493408	12.542798	69.354917	-173.282138
62375		-13.856515	0.716473	9.942591	-0.594691	4.527551	0.463904	-0.293457	0.030762	-0.494873	14.676628	71.810337	-170.662030
62376		-11.778544	0.296869	10.407743	-0.808323	4.177675	0.603681	-0.260010	0.021729	-0.484375	17.462222	74.012023	-167.267100
62377		-9.311133	-0.271890	10.540548	-1.053000	3.815466	0.813737	-0.239014	0.013672	-0.462158	21.201562	75.917380	-162.774196
62378		-3.879359	-1.768180	8.720159	-1.184805	3.636894	1.073308	-0.220459	0.006104	-0.455811	26.502899	77.572910	-156.634363
62379		3.477077	-2.308280	6.255457	-1.203236	3.764789	1.312701	-0.202881	-0.004395	-0.433594	34.235069	79.052561	-148.038659
62380		0.907061	-0.952747	8.537339	-1.070228	4.029376	1.792607	-0.179688	-0.009033	-0.425537	46.049689	80.157518	-135.408732
62381		-17.491969	-2.577029	15.809254	-0.626587	2.985942	2.011181	-0.166504	-0.012207	-0.402344	57.650776	80.303679	-123.276676
62382		-13.407941	-1.349844	15.951421	-0.513518	1.144878	1.973582	-0.164307	-0.028320	-0.387939	63.722414	79.633384	-116.815409
62383		-10.838017	-1.097273	15.117200	-0.506149	-0.423080	1.892916	-0.183838	-0.049072	-0.367432	64.724940	78.546436	-115.501600
62384		-7.706905	-1.284457	11.222357	-0.581607	-1.722318	1.757161	-0.189697	-0.057861	-0.335205	62.365944	77.200883	-117.576564
62385		-6.241995	-1.244861	7.909440	-0.636520	-2.692978	1.581966	-0.214111	-0.071289	-0.316162	58.287126	75.643237	-121.399080
62386		-2.725368	-1.285081	7.384086	-0.695362	-3.372369	1.409448	-0.235107	-0.091309	-0.287109	53.667998	73.887113	-125.776004
62387		-1.455435	-1.193498	7.209362	-0.739834	-3.662559	1.254463	-0.247314	-0.110107	-0.254150	49.332252	72.010736	-129.868650
62388		-0.973359	-1.005741	6.316633	-0.795529	-3.717985	0.996184	-0.262939	-0.123535	-0.227783	45.434152	70.142984	-133.510190
62389		-0.492669	-1.801342	5.214979	-0.744603	-3.601556	0.701851	-0.265625	-0.138184	-0.201416	41.998512	68.365643	-136.728601
62390		-0.407259	-1.943148	4.377329	-0.565114	-3.436805	0.444996	-0.270020	-0.165039	-0.177002	39.054047	66.698352	-139.567450
62391		-0.239958	-1.185355	4.287342	-0.377581	-3.242439	0.257896	-0.259277	-0.180908	-0.168701	36.543286	65.131528	-142.081344
62392		-0.473511	0.289671	4.997636	-0.336587	-3.048153	0.133720	-0.254150	-0.201172	-0.153076	34.371958	63.659984	-144.278422
62393		-1.774662	1.785246	6.066103	-0.510588	-2.917963	0.030601	-0.249268	-0.209961	-0.142578	32.302104	62.244836	-146.274521
62394		-2.762967	2.718097	6.908782	-0.845038	-2.904221	-0.021288	-0.244385	-0.220947	-0.132568	30.211983	60.824367	-148.104600
62395		-3.838983	2.766212	7.750303	-1.202016	-2.985605	-0.010745	-0.224365	-0.236084	-0.131836	28.062203	59.323851	-149.790808
62396		-4.404623	2.180348	8.428908	-1.458958	-3.139564	0.058413	-0.221191	-0.239258	-0.131836	25.947368	57.701791	-151.293894
62397		-5.132535	1.674455	8.876849	-1.562864	-3.297418	0.132977	-0.227295	-0.238525	-0.152344	23.935524	55.946680	-152.627835
62398		-5.613388	1.507693	8.929017	-1.569963	-3.425091	0.189092	-0.213867	-0.252686	-0.160889	22.088054	54.094089	-153.788253
62399		-5.601212	1.665561	8.602539	-1.550037	-3.492852	0.177813	-0.210449	-0.248535	-0.167236	20.357848	52.181365	-154.840641
62400		-5.528319	1.930631	8.344688	-1.555183	-3.444011	0.097573	-0.212402	-0.254395	-0.173828	18.716374	50.299203	-155.806676
62401		-6.049410	2.216497	8.742013	-1.597736	-3.325373	-0.064155	-0.226318	-0.255859	-0.187500	17.075419	48.486754	-156.761990
62402		-7.241863	2.490752	9.662799	-1.688420	-3.211408	-0.250319	-0.224609	-0.251953	-0.204102	15.399022	46.756596	-157.725700
62403		-9.084498	2.711107	11.000306	-1.798496	-3.253263	-0.433104	-0.231934	-0.242920	-0.214844	13.637855	45.003465	-158.743087
62404		-9.804782	2.209283	11.742640	-1.846727	-3.442351	-0.568929	-0.244629	-0.227783	-0.215820	11.856170	43.148183	-159.787419
62405		-9.905132	1.676028	12.133312	-1.785209	-3.607894	-0.643762	-0.252197	-0.224854	-0.230957	10.147642	41.178388	-160.808310
62406		-9.958546	1.934274	12.362521	-1.678384	-3.691420	-0.699374	-0.272949	-0.216064	-0.233887	8.567455	39.153340	-161.771711
62407		-10.046398	2.379544	12.063124	-1.592450	-3.680763	-0.743053	-0.286621	-0.212402	-0.245361	7.098246	37.111087	-162.672774
62408		-10.487505	2.655259	11.498345	-1.550211	-3.584654	-0.791798	-0.307861	-0.195557	-0.239990	5.719097	35.117557	-163.510637
62409		-10.837413	2.934524	10.856879	-1.577775	-3.399878	-0.843643	-0.322510	-0.189209	-0.245361	4.372438	33.208753	-164.298422
62410		-11.634387	2.699584	10.260021	-1.622575	-3.162895	-0.954209	-0.341553	-0.182861	-0.255371	3.028650	31.432629	-165.078461
62411		-13.415609	1.683520	10.371131	-1.589874	-2.951443	-1.110212	-0.349854	-0.186279	-0.257324	1.701516	29.758787	-165.896112
62412		-16.206106	0.518312	11.158343	-1.436007	-2.946449	-1.309041	-0.376953	-0.172852	-0.249268	0.451783	28.082147	-166.785099
62413		-17.859890	-0.169221	11.175574	-1.154155	-3.187867	-1.540234	-0.386719	-0.167480	-0.252197	-0.659497	26.244300	-167.771031
62414		-17.773364	-0.168471	10.205870	-0.835380	-3.526546	-1.765907	-0.405762	-0.170410	-0.251709	-1.591325	24.201515	-168.841375
62415		-16.097843	0.882593	8.547189	-0.554516	-3.757233	-1.978548	-0.432373	-0.184570	-0.247314	-2.359452	22.002288	-169.989822
62416		-15.232585	1.536319	6.982440	-0.372340	-3.779575	-2.124648	-0.455811	-0.182373	-0.234375	-2.993955	19.779596	-171.179181
62417		-14.239910	1.596440	5.604271	-0.167196	-3.672494	-2.224593	-0.479980	-0.187744	-0.235352	-3.478604	17.599191	-172.394232
62418		-13.534719	1.661368	4.423626	0.061159	-3.476222	-2.179097	-0.484131	-0.195801	-0.227539	-3.772595	15.529898	-173.558913
62419		-13.172191	2.439731	3.478391	0.279202	-3.209341	-2.047346	-0.505371	-0.203125	-0.221924	-3.883292	13.610352	-174.638204
62420		-12.686568	3.410876	2.454146	0.373013	-2.919845	-1.847135	-0.529541	-0.221191	-0.220215	-3.878774	11.867058	-175.600843
62421		-12.090333	4.139633	1.214646	0.337849	-2.578857	-1.591657	-0.538574	-0.226807	-0.204102	-3.842274	10.326034	-176.423332
62422		-11.712112	4.261724	0.350113	0.203536	-2.163764	-1.314719	-0.547607	-0.238525	-0.211670	-3.836011	9.036108	-177.097817
62423		-12.069718	4.038467	-0.293678	0.056220	-1.690611	-1.062299	-0.554443	-0.241211	-0.206543	-3.882933	8.024395	-177.642475
62424		-11.816355	3.464570	-0.860247	-0.077927	-1.232246	-0.831308	-0.561279	-0.235352	-0.199463	-3.981373	7.284861	-178.069352
62425		-11.445929	3.067632	-1.037783	-0.168176	-0.768205	-0.624500	-0.554688	-0.239746	-0.194336	-4.115579	6.817420	-178.394111
62426		-10.875410	2.836482	-0.432997	-0.268596	-0.294365	-0.485742	-0.554199	-0.248291	-0.193848	-4.297221	6.626314	-178.657407
62427		-6.764034	0.010335	1.324194	0.213835	0.536527	-0.644569	-0.560303	-0.242920	-0.203613	-4.218379	6.903424	-179.047635
62428		-11.063649	-1.948674	-3.215820	0.910794	1.643084	-0.530142	-0.554443	-0.250488	-0.201660	-3.740559	7.818990	-179.415317
62429		-6.526308	0.643350	2.376599	1.596319	2.033253	-0.599226	-0.540039	-0.261475	-0.210205	-2.883686	8.960940	-179.826238
62430		-3.386090	4.528179	10.164559	1.219397	2.132216	-0.587536	-0.531006	-0.259521	-0.222168	-2.247179	10.163723	179.780966
62431		-3.787900	7.724690	12.432885	0.541037	1.752158	-0.985423	-0.510742	-0.266846	-0.224609	-2.047309	11.144853	179.172152
62432		-0.025608	4.429534	9.651232	-0.093179	1.690088	-1.300170	-0.514648	-0.270752	-0.238770	-2.257353	12.081939	178.378745
62433		0.965245	-0.130368	8.201420	-0.152551	1.993158	-1.032675	-0.503174	-0.278076	-0.235840	-2.484104	13.197554	177.728205
62434		-3.149872	-1.077961	9.936939	0.124298	2.368297	-0.406391	-0.488770	-0.270020	-0.244141	-2.480867	14.540535	177.431796
62435		-7.068349	1.758645	12.010629	0.324839	2.277829	-0.062386	-0.480469	-0.268799	-0.236084	-2.315304	15.841951	177.341951
62436		-5.943835	-0.384116	11.460994	0.423985	2.158563	0.017554	-0.461182	-0.275879	-0.250977	-2.079270	17.075576	177.306755
62437		-4.912813	-1.876310	10.968374	0.539508	2.291947	0.184067	-0.448486	-0.276123	-0.252197	-1.746204	18.390781	177.375206
62438		-7.604991	-0.071412	11.884494	0.432453	2.333416	-0.027799	-0.440186	-0.276611	-0.256836	-1.512739	19.724085	177.321936
62439		-8.632606	-0.090852	12.008598	0.430210	2.132544	-0.182008	-0.424072	-0.279053	-0.261475	-1.311680	20.942426	177.182467
62440		-7.808147	3.024492	11.568850	0.438790	1.860517	0.005188	-0.420654	-0.288574	-0.266357	-1.063312	22.005577	177.165754
62441		-7.507925	2.793185	11.385009	0.319773	1.628312	-0.037158	-0.404785	-0.281494	-0.264404	-0.890800	22.937778	177.129432
62442		-6.950283	0.135714	10.217760	0.273541	1.378590	-0.016706	-0.397705	-0.276611	-0.269287	-0.738439	23.724734	177.110644
62443		-6.578763	-1.886607	10.053096	0.323583	1.212807	-0.008575	-0.385986	-0.289307	-0.271973	-0.553767	24.419492	177.100722
62444		-6.945276	-0.509759	9.819468	0.332589	0.994684	0.077320	-0.388428	-0.282715	-0.272949	-0.340176	24.987008	177.148478
62445		-6.857398	1.304198	9.820665	0.289153	0.748433	0.136071	-0.378662	-0.283203	-0.272949	-0.133723	25.416295	177.236692
62446		-6.209440	1.162568	9.279393	0.244449	0.477122	0.073450	-0.386475	-0.284912	-0.275146	0.031090	25.686954	177.286960
62447		-5.527424	-1.317439	9.601184	0.223338	0.370603	0.107219	-0.381104	-0.287109	-0.283691	0.194054	25.899478	177.359735
62448		-5.650910	0.378440	9.086348	0.161445	0.272317	0.100098	-0.373291	-0.284668	-0.281494	0.319613	26.052478	177.428200
62449		-4.148805	1.543360	9.309731	0.131545	0.283578	0.077500	-0.382813	-0.289551	-0.278320	0.422367	26.215044	177.482892
62450		-5.195328	1.060570	9.283056	0.057624	0.245898	0.041117	-0.377441	-0.291992	-0.270264	0.472355	26.352966	177.514284
62451		-4.414705	0.210584	8.881267	0.029960	0.180948	0.007511	-0.366211	-0.288086	-0.274414	0.497338	26.456977	177.524199
62452		-4.318600	0.488005	9.050096	0.009667	0.220481	0.005455	-0.372314	-0.286377	-0.273682	0.509801	26.580489	177.532828
62453		-5.256336	-0.109859	8.946044	0.000996	0.196655	0.007653	-0.369873	-0.277588	-0.276855	0.518373	26.693478	177.543018
62454		-4.710652	0.013197	8.931667	0.001087	0.151522	-0.018166	-0.368164	-0.281006	-0.276123	0.518976	26.777601	177.536147
62455		-4.153803	0.878944	8.845285	-0.011673	0.148242	-0.026326	-0.366211	-0.292480	-0.282471	0.510340	26.863067	177.524254
62456		-4.518366	-0.000329	8.551103	0.000268	0.171550	-0.009250	-0.373291	-0.285889	-0.278076	0.513090	26.958619	177.523205
62457		-4.363695	-0.395266	8.528095	0.029915	0.133638	-0.024716	-0.375244	-0.289307	-0.275879	0.528718	27.035698	177.512274
62458		-4.538247	-0.677667	8.569327	0.068839	0.138088	0.020755	-0.369629	-0.282959	-0.281982	0.579481	27.111913	177.530400
62459		-4.808628	-0.324630	8.722739	0.097645	0.094899	0.029271	-0.371094	-0.281250	-0.281250	0.649607	27.166483	177.554048
62460		-5.013586	-0.051758	8.863389	0.091596	0.067677	0.019068	-0.370850	-0.283203	-0.283936	0.712793	27.202334	177.570757
62461		-4.864545	-0.010290	8.847044	0.082990	0.049254	0.024543	-0.368652	-0.290039	-0.278076	0.773018	27.230772	177.591109
62462		-4.630578	0.224478	8.833281	0.067845	0.016589	0.011902	-0.365723	-0.284668	-0.278564	0.820326	27.237382	177.602831
62463		-4.713978	0.088630	8.770841	0.051541	-0.023136	0.014023	-0.371338	-0.295410	-0.279785	0.859145	27.224418	177.615772
62464		-4.628158	0.264959	8.782607	0.027185	-0.009481	0.007289	-0.360840	-0.290283	-0.283447	0.881682	27.216119	177.624275
62465		-4.783217	0.101147	8.798483	0.022130	-0.030491	0.003460	-0.364746	-0.295654	-0.278076	0.900497	27.199032	177.630322
62466		-4.573740	0.259181	8.814014	0.003706	-0.006666	0.007002	-0.360352	-0.294434	-0.276123	0.909503	27.192344	177.638661
62467		-4.528925	0.213633	8.764356	0.003571	-0.013172	-0.001112	-0.362549	-0.290527	-0.271729	0.916420	27.185225	177.641934
62468		-4.621774	-0.003171	8.715496	0.004723	-0.008567	0.002843	-0.367920	-0.297363	-0.278809	0.924773	27.177485	177.647572
62469		-4.531415	0.008944	8.665410	0.012463	-0.003484	0.010803	-0.366455	-0.288574	-0.276367	0.940328	27.175805	177.658612
62470		-4.357966	0.038246	8.637490	0.016269	0.001388	0.014242	-0.370605	-0.294922	-0.277832	0.958695	27.173656	177.671692
62471		-4.543669	-0.289912	8.588843	0.032971	-0.002635	0.031721	-0.373535	-0.289063	-0.274658	0.992140	27.172244	177.696201
62472		-4.620366	0.038652	8.664511	0.045125	0.000234	0.043908	-0.372314	-0.287109	-0.273193	1.035755	27.169121	177.728368
62473		-4.550966	-0.071585	8.630902	0.077256	-0.032685	0.052758	-0.375000	-0.300537	-0.280273	1.100552	27.150241	177.766036
62474		-4.649523	0.154864	8.712903	0.078093	0.000067	0.056949	-0.380615	-0.298584	-0.286621	1.166869	27.146815	177.806582
62475		-4.288850	0.064122	8.728043	0.103884	-0.050826	0.053475	-0.375732	-0.289063	-0.285156	1.246962	27.117460	177.844390
62476		-4.616177	0.363578	8.768677	0.086381	-0.024215	0.051742	-0.375244	-0.288818	-0.278564	1.316305	27.100098	177.881211
62477		-4.573165	0.496217	8.738369	0.076809	-0.013607	0.037921	-0.374756	-0.289307	-0.280762	1.376523	27.092179	177.909476
62478		-4.482089	0.337233	8.710425	0.080000	-0.007205	0.037081	-0.366455	-0.287354	-0.280273	1.438003	27.084695	177.937085
62479		-4.560132	0.263001	8.718660	0.081895	-0.006366	0.027691	-0.364014	-0.285889	-0.284180	1.498200	27.081018	177.958871
62480		-4.506069	0.270541	8.707051	0.091373	-0.009289	0.036943	-0.371338	-0.300781	-0.279297	1.566125	27.072289	177.986333
62481		-4.486033	0.275387	8.692897	0.103283	-0.010875	0.032930	-0.371094	-0.290527	-0.277100	1.640066	27.065899	178.011389
62482		-4.453812	0.156267	8.698571	0.113321	-0.015902	0.031297	-0.371826	-0.297363	-0.277588	1.718837	27.053415	178.035066
62483		-4.429407	0.244072	8.743567	0.120971	-0.008725	0.031155	-0.368896	-0.292725	-0.275635	1.802389	27.048220	178.058989
62484		-4.517767	0.276229	8.742530	0.123432	-0.006716	0.033154	-0.367188	-0.296143	-0.269775	1.887556	27.040902	178.084007
62485		-4.523967	0.104127	8.635269	0.142517	-0.009245	0.037540	-0.361328	-0.290527	-0.281494	1.985295	27.035212	178.111991
62486		-4.504217	0.083524	8.673309	0.151219	-0.022096	0.046237	-0.369629	-0.297607	-0.273438	2.090024	27.018746	178.145035
62487		-4.567330	0.373077	8.692997	0.153814	-0.027368	0.042352	-0.374268	-0.298828	-0.281250	2.195388	27.002488	178.175622
62488		-4.600075	0.325479	8.795115	0.154673	-0.035105	0.045459	-0.362549	-0.304688	-0.281250	2.301666	26.978483	178.207759
62489		-4.637781	0.572821	8.778999	0.136585	-0.028809	0.040511	-0.359619	-0.295166	-0.272217	2.396549	26.961350	178.237038
62490		-4.597394	0.397968	8.776166	0.135083	-0.032668	0.034507	-0.362061	-0.295410	-0.275391	2.488378	26.938911	178.262106
62491		-4.472119	0.512448	8.859287	0.114502	-0.025688	0.034618	-0.372314	-0.302002	-0.276611	2.568898	26.923636	178.287615
62492		-4.425508	0.454030	8.820804	0.103635	-0.009867	0.029652	-0.366943	-0.301025	-0.280762	2.641552	26.914310	178.310154
62493		-4.510281	0.469844	8.788329	0.094163	0.001327	0.030878	-0.369141	-0.295654	-0.282227	2.709679	26.914525	178.334022
62494		-4.513175	0.523261	8.766843	0.090165	-0.001855	0.029942	-0.365967	-0.295898	-0.272705	2.774796	26.909729	178.356967
62495		-4.568845	0.459676	8.678819	0.092001	0.004311	0.034626	-0.368896	-0.294189	-0.278320	2.842821	26.911493	178.383331
62496		-4.526752	0.363132	8.733746	0.095843	-0.006627	0.032338	-0.368652	-0.296387	-0.282227	2.911811	26.903849	178.407646
62497		-4.496924	0.560666	8.782352	0.078042	-0.004062	0.033012	-0.370361	-0.302490	-0.276855	2.971239	26.900817	178.432692
62498		-4.515985	0.574031	8.796097	0.066840	0.009520	0.029381	-0.362793	-0.300293	-0.272461	3.022986	26.902455	178.455633
62499		-4.490738	0.465445	8.833856	0.057618	0.021884	0.024502	-0.367676	-0.300293	-0.279297	3.068654	26.914481	178.476100
62500		-4.408177	0.516715	8.801922	0.050018	0.026026	0.031621	-0.368896	-0.294922	-0.276855	3.111682	26.925461	178.501057
62501		-4.423427	0.469466	8.804672	0.046573	0.044847	0.035949	-0.366943	-0.305176	-0.279541	3.154738	26.950223	178.529700
62502		-4.477032	0.610377	8.808302	0.035053	0.061875	0.037163	-0.370850	-0.296875	-0.277832	3.191415	26.981504	178.559517
62503		-4.435863	0.619726	8.865846	0.014993	0.079552	0.035525	-0.370605	-0.304932	-0.280273	3.216879	27.026088	178.589186
62504		-4.396978	0.627014	8.922508	-0.008006	0.110887	0.030893	-0.360352	-0.304199	-0.275391	3.227924	27.085585	178.616802
62505		-4.397441	0.552945	8.876556	-0.036374	0.138823	0.030876	-0.362305	-0.298828	-0.282959	3.223671	27.164192	178.645688
62506		-4.371066	0.614091	8.940530	-0.063182	0.179344	0.036847	-0.367432	-0.295166	-0.274170	3.206066	27.262662	178.679638
62507		-4.446387	0.477647	8.949083	-0.089847	0.218221	0.040468	-0.365967	-0.302734	-0.278564	3.175420	27.386369	178.717558
62508		-4.379387	0.568202	9.019051	-0.124236	0.257610	0.039628	-0.353027	-0.293945	-0.275635	3.125048	27.529561	178.756027
62509		-4.338979	0.607574	8.991962	-0.164717	0.313034	0.036772	-0.358887	-0.305420	-0.279053	3.052043	27.707651	178.794727
62510		-4.258120	0.597113	9.087126	-0.197227	0.379972	0.024432	-0.357178	-0.297607	-0.277832	2.957280	27.921398	178.827235
62511		-4.297150	0.452488	9.033627	-0.228017	0.447723	0.013678	-0.357422	-0.300049	-0.272949	2.843086	28.177284	178.854898
62512		-4.215460	0.444296	9.140972	-0.246024	0.528188	0.001244	-0.353271	-0.290527	-0.277832	2.715307	28.476608	178.876208
62513		-4.299069	0.329174	9.155216	-0.261608	0.648337	-0.018968	-0.352539	-0.292969	-0.278320	2.574275	28.848211	178.887501
62514		-4.229571	0.390507	9.240197	-0.286815	0.796990	-0.023968	-0.352051	-0.294922	-0.285400	2.418326	29.302119	178.898435
62515		-3.904773	0.378513	9.435823	-0.324578	0.982079	-0.034677	-0.345215	-0.289795	-0.291992	2.239566	29.865107	178.906088
62516		-3.746402	0.362974	9.643266	-0.342724	1.228120	-0.051877	-0.338867	-0.298340	-0.286621	2.046276	30.566510	178.906104
62517		-3.708890	0.595789	9.696025	-0.329324	1.496290	-0.083052	-0.325195	-0.292236	-0.285889	1.852161	31.424747	178.888921
62518		-3.683260	0.474146	9.731977	-0.352864	1.811912	-0.077717	-0.316406	-0.290039	-0.284912	1.647199	32.460918	178.877861
62519		-3.732384	0.420760	9.853981	-0.339249	2.125046	-0.074776	-0.305420	-0.287598	-0.294189	1.452224	33.678792	178.870475
62520		-3.452162	0.511657	9.742098	-0.325424	2.481122	-0.056729	-0.287842	-0.286865	-0.278809	1.272078	35.097910	178.876223
62521		-3.573831	0.583182	9.699712	-0.281314	2.867266	-0.028435	-0.275635	-0.280273	-0.289551	1.130201	36.740044	178.903272
62522		-3.625555	0.612107	9.659589	-0.232590	3.272352	0.003404	-0.257568	-0.288086	-0.290039	1.031486	38.611780	178.954787
62523		-3.211482	0.212673	9.626922	-0.149261	3.773952	0.031806	-0.233643	-0.291504	-0.296143	0.999527	40.772433	179.033228
62524		-3.072087	-0.516798	9.605446	-0.031455	4.373847	0.097381	-0.219238	-0.285400	-0.296875	1.078936	43.274229	179.174153
62525		-3.128988	-1.206805	9.440623	0.125801	5.062925	0.230344	-0.190430	-0.276855	-0.294678	1.349829	46.170160	179.451728
62526		-3.617938	-1.353772	8.849443	0.339564	5.756255	0.373222	-0.152588	-0.295654	-0.282471	1.890125	49.458063	179.913923
62527		-5.126139	-1.326870	8.883771	0.524463	6.382744	0.444739	-0.118652	-0.294434	-0.282715	2.698945	53.099984	-179.439209
62528		-6.785633	-1.204988	9.046995	0.595760	6.920692	0.489913	-0.079346	-0.294189	-0.279541	3.770240	57.040251	-178.553311
62529		-9.588816	-0.740866	8.867758	0.498752	7.229686	0.520755	-0.048584	-0.302734	-0.265137	5.097285	61.144718	-177.344302
62530		-12.774197	-0.960092	8.404986	0.403126	7.359826	0.625068	-0.012939	-0.297852	-0.244873	6.918901	65.298303	-175.567335
62531		-18.658987	3.206112	9.548572	0.062947	6.881776	0.480211	0.018066	-0.302734	-0.223633	8.908996	69.163437	-173.452745
62532		-19.454957	0.040441	10.026759	-0.212002	6.151165	0.424368	0.052002	-0.308594	-0.212891	11.271147	72.588234	-170.828482
62533		-17.731830	0.249731	9.997897	-0.216096	5.377644	0.487737	0.076660	-0.313965	-0.190918	14.522568	75.527071	-167.322640
62534		-14.691962	-0.124420	9.809384	-0.217699	4.760529	0.579746	0.100586	-0.318848	-0.179688	19.129867	78.040296	-162.466315
62535		-12.275689	-0.689502	10.814469	-0.285075	4.221338	0.660307	0.110352	-0.321289	-0.167236	25.568110	80.132426	-155.747573
62536		-7.518115	-1.405777	10.154504	-0.317758	3.819398	0.814942	0.128174	-0.333008	-0.154541	34.871686	81.789994	-146.147303
62537		-0.571727	-2.128400	8.451136	-0.355628	3.777763	0.969732	0.152832	-0.336914	-0.146240	48.638503	83.038572	-132.058355
62538		8.063268	-1.393849	7.258920	-0.449714	4.238747	1.027398	0.167969	-0.342773	-0.127686	69.153034	83.797276	-111.154858
62539		-9.824772	-0.267767	11.220173	-0.352644	4.593947	1.355459	0.184570	-0.351318	-0.114014	93.371731	83.417062	-86.588851
62540		-18.231706	-0.912176	16.568978	-0.375788	2.886540	1.194105	0.196045	-0.357422	-0.098389	105.430119	82.463403	-74.225614
62541		-12.476599	-1.972569	15.104147	-0.341626	1.138457	0.982459	0.205566	-0.369873	-0.092529	108.495402	81.733862	-70.936031
62542		-10.713822	-3.088403	12.585249	-0.157917	-0.500498	0.843200	0.199951	-0.372314	-0.099854	105.586666	81.353325	-73.788339
62543		-11.329578	-2.661520	8.515219	-0.053925	-2.114108	0.834258	0.194580	-0.392334	-0.112549	97.175692	81.122681	-82.269313
62544		-7.674702	-0.511603	9.040442	-0.158711	-3.587998	0.779251	0.188965	-0.395264	-0.129883	84.163243	80.694006	-95.356819
62545		-4.779568	-0.636842	8.910013	-0.161763	-4.407403	0.704688	0.187500	-0.406250	-0.157227	70.229211	79.729474	-109.402071
62546		-2.959960	-0.339045	7.005613	-0.196003	-4.780240	0.707425	0.167236	-0.418701	-0.176270	58.359316	78.163476	-121.382305
62547		-1.264116	-0.779546	4.904821	-0.138193	-4.811989	0.719146	0.155762	-0.432617	-0.198486	49.511894	76.193622	-130.374085
62548		-0.210360	-0.459902	3.153464	-0.046094	-4.693875	0.793916	0.138916	-0.436768	-0.218506	43.342379	74.002591	-136.732570
62549		-0.494568	0.658667	2.617999	-0.058728	-4.496195	0.838720	0.125732	-0.444824	-0.239014	38.963385	71.735359	-141.279768
62550		-1.474959	1.787220	2.876562	-0.249696	-4.255815	0.845446	0.118652	-0.452881	-0.256348	35.716618	69.497691	-144.572469
62551		-2.366073	2.665583	3.535168	-0.616744	-3.964004	0.794629	0.090088	-0.458740	-0.279053	33.058269	67.355315	-147.051497
62552		-3.320082	2.741188	4.320167	-1.026267	-3.713865	0.672327	0.072754	-0.455322	-0.290283	30.659086	65.340198	-149.031707
62553		-4.247766	1.772727	4.978022	-1.319929	-3.575844	0.523942	0.071045	-0.453857	-0.321045	28.337825	63.397819	-150.767919
62554		-5.318684	0.667504	5.979800	-1.418393	-3.558837	0.441987	0.051514	-0.451172	-0.341309	26.174100	61.464984	-152.295144
62555		-5.925372	0.196232	6.705126	-1.357360	-3.641934	0.409748	0.036133	-0.445557	-0.355469	24.199253	59.465055	-153.671286
62556		-5.886302	0.170072	7.134726	-1.238286	-3.732338	0.410432	0.007324	-0.445557	-0.372559	22.468864	57.404336	-154.872768
62557		-5.575335	0.443835	7.240937	-1.128607	-3.745836	0.421388	-0.009277	-0.437012	-0.400635	20.962417	55.309044	-155.905463
62558		-5.346403	0.600335	7.370733	-1.070902	-3.652891	0.426418	-0.028076	-0.431396	-0.422119	19.663184	53.257598	-156.753508
62559		-5.682465	0.938680	7.858363	-1.089899	-3.484428	0.380730	-0.059814	-0.430664	-0.426025	18.459645	51.287008	-157.485250
62560		-6.600625	1.411402	8.713514	-1.226102	-3.331198	0.238172	-0.079346	-0.417480	-0.443848	17.214301	49.424604	-158.194024
62561		-7.961157	1.771311	9.640062	-1.444092	-3.262650	-0.018200	-0.104980	-0.401367	-0.464111	15.772949	47.622423	-159.012727
62562		-9.370011	1.858071	10.501965	-1.692821	-3.347607	-0.319162	-0.126221	-0.380859	-0.477051	14.096315	45.812708	-159.987479
62563		-10.372271	1.468046	11.004786	-1.844261	-3.539665	-0.589972	-0.157959	-0.376465	-0.482666	12.250584	43.902104	-161.105101
62564		-10.652174	0.936493	11.022925	-1.828471	-3.757700	-0.781344	-0.187988	-0.364990	-0.490723	10.407874	41.875551	-162.277451
62565		-10.094924	0.922528	10.820003	-1.694560	-3.884202	-0.865921	-0.222656	-0.343750	-0.492188	8.694503	39.750296	-163.412142
62566		-9.708501	1.034541	11.045200	-1.520226	-3.889141	-0.881024	-0.254883	-0.322510	-0.498047	7.182203	37.609793	-164.442763
62567		-10.375117	1.432944	11.748369	-1.395812	-3.854300	-0.932184	-0.293457	-0.320068	-0.502197	5.803696	35.463164	-165.413596
62568		-11.400862	1.591351	12.301721	-1.319978	-3.869179	-1.109212	-0.317627	-0.305176	-0.495850	4.483330	33.309087	-166.417433
62569		-12.304260	1.321857	12.466019	-1.246585	-3.953073	-1.369048	-0.350830	-0.300781	-0.485840	3.180868	31.089018	-167.520033
62570		-12.826275	0.916606	12.499859	-1.115507	-4.048786	-1.657812	-0.389893	-0.295898	-0.478516	1.940091	28.810994	-168.730806
62571		-12.889007	0.486743	12.186540	-0.923673	-4.112293	-1.920776	-0.425049	-0.296387	-0.472900	0.805529	26.469745	-170.034607
62572		-12.895211	0.120326	11.585416	-0.684845	-4.089134	-2.135461	-0.454590	-0.291016	-0.459229	-0.166840	24.130811	-171.398414
62573		-12.925644	-0.067157	10.828811	-0.410453	-3.966529	-2.318959	-0.488281	-0.300781	-0.448730	-0.955274	21.833858	-172.815003
62574		-13.128037	-0.405303	9.982829	-0.101620	-3.775198	-2.450716	-0.514648	-0.311035	-0.435303	-1.522936	19.638171	-174.262153
62575		-13.393322	-1.002452	8.810108	0.266687	-3.569350	-2.491859	-0.542725	-0.317139	-0.416992	-1.828928	17.541767	-175.701969
62576		-12.808590	-1.141429	7.320946	0.685844	-3.321521	-2.462914	-0.561523	-0.352783	-0.397217	-1.833314	15.591819	-177.106215
62577		-12.914859	-1.431863	5.200317	1.090311	-2.946561	-2.316780	-0.582764	-0.360352	-0.384277	-1.543008	13.855932	-178.423727
62578		-13.391782	0.291921	4.597410	1.309197	-2.757395	-2.143619	-0.601563	-0.382813	-0.367676	-1.065237	12.245795	-179.643545
62579		-13.858675	1.815684	3.597969	1.280577	-2.377927	-1.979183	-0.607910	-0.397217	-0.361084	-0.558123	10.859488	179.221893
62580		-15.435410	3.377168	2.543493	0.981714	-1.999048	-1.744668	-0.614990	-0.406738	-0.343506	-0.171922	9.705016	178.216999
62581		-17.671953	5.335505	0.846530	0.460775	-1.807020	-1.403129	-0.628174	-0.426514	-0.340332	-0.036056	8.661931	177.407714
62582		-18.281528	7.568733	-1.516841	-0.328087	-1.745587	-0.971644	-0.635254	-0.432129	-0.332764	-0.299872	7.657405	176.851835
62583		-16.030831	8.930191	-3.670934	-1.228954	-1.512576	-0.643144	-0.639893	-0.422852	-0.336670	-1.047144	6.782490	176.494087
62584		-12.552354	7.479793	-4.598976	-1.904658	-0.919700	-0.444367	-0.634033	-0.414063	-0.326416	-2.162338	6.245971	176.256396
62585		-8.638206	3.618937	-4.399424	-1.896939	-0.038335	-0.442147	-0.649414	-0.402100	-0.324463	-3.273456	6.210006	176.006539
62586		-8.672888	-4.492530	-4.253491	-0.572047	1.682954	-0.441977	-0.632324	-0.405762	-0.325439	-3.634145	7.154724	175.697247
62587		-11.541114	-2.155043	-3.448164	0.793694	2.282116	-0.063383	-0.626953	-0.407471	-0.343262	-3.191758	8.456976	175.585766
62588		-3.182043	2.196692	5.962810	1.115584	2.728742	0.319409	-0.612305	-0.422607	-0.353271	-2.531833	10.025035	175.695552
62589		-7.640341	5.730752	13.166040	0.852277	2.322076	0.167846	-0.593994	-0.419922	-0.357910	-2.031907	11.358257	175.743083
62590		-4.789898	4.470962	13.319791	0.334673	1.845581	-0.302847	-0.592773	-0.424805	-0.368164	-1.880404	12.406527	175.532667
62591		-0.420991	0.170138	9.080613	-0.086562	1.774796	-0.611596	-0.574463	-0.420166	-0.368896	-2.013898	13.411350	175.141748
62592		0.247459	-4.085559	7.858886	-0.092214	2.261785	-0.485661	-0.558105	-0.426025	-0.382080	-2.144136	14.693689	174.810353
62593		-3.740798	-3.535263	10.045172	0.196247	2.673925	-0.158014	-0.541748	-0.424561	-0.393799	-2.068059	16.221564	174.661889
62594		-7.002666	-2.809503	11.396616	0.497928	2.714636	-0.043820	-0.528076	-0.428711	-0.394043	-1.802305	17.772567	174.584496
62595		-6.726811	-2.646212	11.186451	0.698940	2.635296	0.004917	-0.506836	-0.432373	-0.400391	-1.411027	19.282384	174.546559
62596		-7.669447	0.252263	11.448875	0.796039	2.669259	0.065530	-0.491455	-0.445313	-0.406250	-0.948323	20.809521	174.556797
62597		-8.566589	2.201265	11.320846	0.750146	2.452053	-0.041048	-0.477539	-0.450439	-0.408936	-0.530820	22.214771	174.515741
62598		-9.101343	2.877500	11.508392	0.739380	2.157929	0.112081	-0.462158	-0.453857	-0.419189	-0.078345	23.448760	174.582108
62599		-9.236159	1.736416	11.227828	0.693053	1.759052	0.220411	-0.451660	-0.460693	-0.414307	0.380672	24.457474	174.727082
62600		-8.724422	-0.667632	10.356244	0.718530	1.393081	0.238806	-0.438721	-0.460693	-0.418213	0.864444	25.251325	174.891257
62601		-7.429501	0.173523	10.211307	0.736039	1.076399	0.277809	-0.441650	-0.465088	-0.424072	1.372856	25.866433	175.084931
62602		-9.663247	4.470363	11.895398	0.562383	0.721153	0.208908	-0.436523	-0.471924	-0.421631	1.763901	26.273344	175.234546
62603		-7.270662	3.861061	9.625357	0.363243	0.235461	0.105621	-0.433594	-0.471680	-0.428223	2.009355	26.408103	175.311049
62604		-5.244021	-1.294313	9.312792	0.288809	0.132726	0.009489	-0.429932	-0.469971	-0.423340	2.183682	26.481020	175.324030
62605		-5.773454	-0.283299	9.330336	0.261368	-0.007393	0.036859	-0.427979	-0.476074	-0.416992	2.349194	26.478010	175.351526
62606		-5.551706	0.990198	8.922840	0.239591	-0.092315	0.017350	-0.436035	-0.471680	-0.418945	2.495056	26.421847	175.363910
62607		-4.959096	-0.162541	8.801573	0.205584	-0.248657	-0.046531	-0.432617	-0.477783	-0.423340	2.601825	26.282860	175.331204
62608		-4.436237	-0.322097	9.045209	0.214613	-0.187881	0.019093	-0.438721	-0.478027	-0.423584	2.732440	26.171907	175.341568
62609		-4.139994	0.144788	8.778970	0.213278	-0.195916	0.004209	-0.434814	-0.476807	-0.424072	2.858324	26.061833	175.342172
62610		-4.038467	0.995885	8.663203	0.246306	-0.141354	0.031698	-0.439453	-0.476074	-0.415039	3.010991	25.977091	175.361485
62611		-4.132642	0.223457	8.752876	0.282783	-0.154009	0.039898	-0.439697	-0.481689	-0.412842	3.186981	25.889848	175.385565
62612		-4.270293	0.703066	8.651917	0.338509	-0.174508	0.070247	-0.440430	-0.490723	-0.408203	3.402299	25.784765	175.427544
62613		-4.315036	0.130365	8.621909	0.374590	-0.189066	0.080224	-0.442627	-0.485840	-0.415283	3.640990	25.675878	175.475056
62614		-4.849457	0.222199	9.037658	0.353113	-0.248925	0.091142	-0.445068	-0.489258	-0.410889	3.868465	25.527166	175.526165
62615		-4.356927	1.183537	9.006250	0.310875	-0.228882	0.079867	-0.447021	-0.489746	-0.418213	4.069082	25.395230	175.570587
62616		-4.242634	1.259069	9.077424	0.260088	-0.186476	0.049313	-0.441895	-0.486328	-0.420166	4.232418	25.283624	175.596863
62617		-4.202293	0.899019	9.086846	0.222199	-0.166874	0.033830	-0.444824	-0.492432	-0.413574	4.370607	25.188844	175.614227
62618		-4.314960	0.951568	9.079098	0.190162	-0.138003	0.033945	-0.442627	-0.494629	-0.409668	4.490412	25.105494	175.632532
62619		-4.455308	1.155167	9.104838	0.153101	-0.107623	0.023004	-0.450684	-0.490479	-0.412598	4.587164	25.044962	175.645569
62620		-4.107877	1.140188	9.024058	0.104883	-0.067753	0.003254	-0.448730	-0.495361	-0.410156	4.651266	25.003093	175.647786
62621		-4.240431	0.679970	9.018931	0.074620	-0.048027	0.000177	-0.440918	-0.491211	-0.409668	4.698239	24.977616	175.649356
62622		-4.318605	0.453003	8.917907	0.073655	-0.055665	0.010614	-0.444336	-0.506592	-0.410645	4.746633	24.942300	175.656754
62623		-4.111461	0.624921	8.915794	0.080254	-0.054804	0.014630	-0.447021	-0.498535	-0.418701	4.800468	24.912255	175.666997
62624		-4.351552	0.856634	8.928223	0.068251	-0.039390	0.010789	-0.447266	-0.496826	-0.411865	4.846138	24.886210	175.675297
62625		-4.158223	0.850507	9.015443	0.042953	-0.011591	0.001703	-0.446777	-0.496338	-0.412842	4.876116	24.881441	175.679654
62626		-4.352910	1.087983	9.085342	0.008940	-0.006591	0.001778	-0.451172	-0.495117	-0.403076	4.886144	24.874552	175.684015
62627		-4.190057	0.937397	9.025272	-0.019986	0.044829	-0.019315	-0.443359	-0.503906	-0.408447	4.875796	24.903001	175.678185
62628		-4.194221	0.827282	8.981560	-0.042013	0.049662	-0.018585	-0.449219	-0.501953	-0.409912	4.852504	24.929217	175.672746
62629		-4.041216	1.045207	8.939134	-0.054673	0.088396	-0.032747	-0.449463	-0.500732	-0.414795	4.819690	24.983164	175.660761
62630		-4.277444	0.698537	8.930806	-0.056008	0.106286	-0.034067	-0.446045	-0.502930	-0.412842	4.785499	25.042447	175.648529
62631		-4.387321	0.687525	8.839246	-0.052827	0.091810	-0.024665	-0.452148	-0.500732	-0.411621	4.755938	25.097923	175.641752
62632		-4.266415	0.654968	8.806776	-0.053154	0.056443	-0.023597	-0.447754	-0.499512	-0.417236	4.725024	25.128238	175.633435
62633		-4.377215	0.537607	8.831007	-0.061057	0.047392	-0.002896	-0.445068	-0.495605	-0.411133	4.695554	25.157323	175.638013
62634		-4.096267	1.053563	8.845865	-0.055305	0.064960	-0.016826	-0.445801	-0.499023	-0.412598	4.665387	25.192178	175.634370
62635		-4.410028	0.664985	8.829665	-0.053945	0.074730	-0.018197	-0.444092	-0.499512	-0.412109	4.636478	25.237579	175.630672
62636		-4.285038	0.728975	8.767569	-0.048851	0.071566	-0.020025	-0.450195	-0.501953	-0.412354	4.609269	25.276351	175.625304
62637		-4.267715	0.670750	8.815140	-0.037512	0.069915	-0.020012	-0.439697	-0.494141	-0.417969	4.589151	25.319085	175.620170
62638		-4.322926	0.651148	8.795127	-0.032446	0.062723	-0.012265	-0.447266	-0.497559	-0.415771	4.573227	25.352448	175.619224
62639		-4.288424	0.722260	8.817788	-0.027832	0.056337	-0.017133	-0.447510	-0.494385	-0.414551	4.559114	25.387288	175.615194
62640		-4.278449	0.729761	8.831503	-0.024570	0.058198	-0.016926	-0.440674	-0.493408	-0.410156	4.546332	25.418278	175.611055
62641		-4.350489	0.722055	8.784432	-0.021507	0.049384	-0.014859	-0.442383	-0.503418	-0.415283	4.536300	25.449032	175.608097
62642		-4.318147	0.815332	8.796088	-0.018141	0.052399	-0.020614	-0.439697	-0.495117	-0.409180	4.526062	25.476876	175.601319
62643		-4.307919	0.599781	8.808370	-0.013259	0.053812	-0.023729	-0.434082	-0.497803	-0.416504	4.518434	25.510555	175.592963
62644		-4.293720	0.592823	8.791702	-0.007422	0.051994	-0.014436	-0.439697	-0.494873	-0.414307	4.516003	25.537887	175.590063
62645		-4.349833	0.709484	8.761494	0.002920	0.039870	-0.010915	-0.440430	-0.502930	-0.421875	4.520815	25.563015	175.589108
62646		-4.429459	0.651210	8.721681	0.009939	0.028769	-0.011208	-0.443359	-0.487305	-0.417236	4.528710	25.576936	175.587092
62647		-4.384893	0.577807	8.726101	0.026912	0.011845	-0.006907	-0.440430	-0.502686	-0.410889	4.547754	25.585879	175.587272
62648		-4.299240	0.580296	8.756414	0.038938	-0.003604	-0.003093	-0.440430	-0.492432	-0.417725	4.573780	25.580942	175.588769
62649		-4.305238	0.621362	8.775507	0.050570	-0.012737	0.001805	-0.441406	-0.494629	-0.419678	4.608203	25.575443	175.593211
62650		-4.294392	0.567627	8.768294	0.055572	-0.017072	0.005924	-0.437744	-0.507568	-0.415283	4.645923	25.562397	175.599719
62651		-4.192175	0.466386	8.856964	0.067074	-0.030095	0.009960	-0.436768	-0.502441	-0.410645	4.691614	25.546591	175.608401
62652		-4.182908	0.547825	8.839370	0.071057	-0.026849	0.021316	-0.442871	-0.496826	-0.416260	4.742172	25.527227	175.624115
62653		-4.189850	0.916351	8.943784	0.059383	-0.012085	0.019642	-0.444336	-0.502441	-0.413574	4.786451	25.521203	175.639817
62654		-4.233465	1.086627	8.949395	0.040287	0.017323	0.012450	-0.435059	-0.494385	-0.413574	4.817956	25.527463	175.652235
62655		-4.226908	1.031088	8.940279	0.021947	0.049371	-0.000033	-0.446045	-0.499023	-0.414063	4.836871	25.557426	175.658778
62656		-4.324402	0.963101	8.883353	0.007739	0.080187	-0.010351	-0.440430	-0.496582	-0.415283	4.844967	25.600671	175.660145
62657		-4.300896	0.765602	8.869116	-0.005225	0.091966	-0.013400	-0.431641	-0.498047	-0.416992	4.845692	25.655574	175.660539
62658		-4.266159	0.823022	8.859542	-0.012240	0.105860	-0.006265	-0.431152	-0.499756	-0.419189	4.844064	25.713278	175.665878
62659		-4.307628	0.794872	8.864617	-0.013445	0.122093	-0.009845	-0.438232	-0.498535	-0.411865	4.841766	25.785188	175.670143
62660		-4.281280	0.861646	8.926066	-0.027042	0.144831	-0.013058	-0.436035	-0.495361	-0.413818	4.830701	25.865471	175.673262
62661		-4.228952	0.862904	8.964994	-0.047155	0.176311	-0.016159	-0.440918	-0.501465	-0.418213	4.808615	25.968615	175.676403
62662		-4.211221	0.611912	9.011552	-0.065247	0.216263	-0.016242	-0.441406	-0.499756	-0.418701	4.776426	26.089837	175.681241
62663		-4.284993	0.525150	8.918637	-0.086035	0.249022	-0.002593	-0.431396	-0.500732	-0.416260	4.737523	26.233812	175.696747
62664		-4.259425	0.644474	8.926800	-0.107101	0.274022	0.009349	-0.427979	-0.505371	-0.414063	4.689867	26.386816	175.720746
62665		-4.306136	0.634247	8.971182	-0.126976	0.304993	0.019173	-0.427490	-0.497070	-0.417236	4.634952	26.561723	175.752828
62666		-4.266429	0.802453	9.070745	-0.156219	0.358943	0.011735	-0.421387	-0.497559	-0.415771	4.561807	26.763161	175.782446
62667		-4.142169	0.923841	9.224632	-0.190303	0.415778	-0.001929	-0.423096	-0.500488	-0.417236	4.467064	27.002316	175.806241
62668		-4.094375	0.972435	9.264702	-0.233687	0.499660	-0.021195	-0.416504	-0.489990	-0.418945	4.342994	27.285678	175.821041
62669		-4.116182	0.634213	9.272691	-0.244540	0.599904	-0.044125	-0.418213	-0.494873	-0.411621	4.208532	27.631824	175.825572
62670		-3.801392	0.709783	9.571888	-0.270584	0.720591	-0.060249	-0.414551	-0.489746	-0.422607	4.055842	28.043113	175.824015
62671		-3.771739	0.492309	9.636984	-0.288437	0.912877	-0.076818	-0.402832	-0.485840	-0.424072	3.891956	28.569313	175.819432
62672		-3.521281	0.268998	9.742491	-0.257413	1.130752	-0.089107	-0.394531	-0.486572	-0.428223	3.745068	29.216173	175.814320
62673		-3.726038	0.517496	9.876396	-0.276241	1.363844	-0.087167	-0.390137	-0.488525	-0.438477	3.592453	30.000352	175.818678
62674		-3.818825	0.840263	9.911803	-0.311173	1.616693	-0.080146	-0.374512	-0.484863	-0.430908	3.425581	30.924766	175.835147
62675		-3.752603	0.929379	9.998175	-0.349840	1.875843	-0.079887	-0.369873	-0.487061	-0.434326	3.241159	32.001304	175.859134
62676		-3.426902	0.516624	10.085148	-0.370963	2.187427	-0.052476	-0.362305	-0.480713	-0.436523	3.058692	33.251430	175.909240
62677		-3.577961	0.642752	9.886943	-0.382448	2.528115	-0.019624	-0.330078	-0.478760	-0.437988	2.888644	34.699156	175.990785
62678		-3.528398	0.598781	9.749987	-0.397920	2.864886	0.021666	-0.315918	-0.477783	-0.444824	2.732416	36.335115	176.109041
62679		-3.403258	0.485423	9.460252	-0.367514	3.247491	0.050209	-0.292480	-0.475342	-0.454590	2.616132	38.192627	176.258956
62680		-3.470239	0.670711	9.270080	-0.306123	3.705033	0.081029	-0.271484	-0.479004	-0.449219	2.562820	40.308288	176.447054
62681		-3.246313	0.298208	8.975452	-0.205235	4.259906	0.106279	-0.242188	-0.472656	-0.453125	2.603421	42.743560	176.680328
62682		-3.302906	-0.230722	8.388046	-0.052073	4.890696	0.182318	-0.213379	-0.474609	-0.443359	2.809630	45.534764	177.014775
62683		-3.742951	-0.052859	7.984979	0.151210	5.615927	0.286190	-0.178223	-0.479248	-0.446289	3.264081	48.738473	177.511628
62684		-5.489864	-0.188040	8.228557	0.255175	6.303302	0.352630	-0.127930	-0.478271	-0.434082	3.938021	52.327270	178.190854
62685		-7.242732	-0.646286	8.741579	0.345553	6.795562	0.370230	-0.084473	-0.485107	-0.422852	4.853546	56.191885	179.070111
62686		-8.939041	0.219640	8.169138	0.275577	6.906975	0.311406	-0.052979	-0.484375	-0.412109	5.903261	60.112226	-179.884322
62687		-12.275469	0.380631	7.678419	0.240962	6.935987	0.283728	0.002197	-0.481934	-0.399414	7.213018	64.040074	-178.562796
62688		-17.801817	1.260289	8.740619	0.028140	6.438153	0.100748	0.033936	-0.492676	-0.382080	8.491832	67.683438	-177.183201
62689		-18.603433	-0.829162	9.908605	-0.123775	5.749846	0.105613	0.065186	-0.489014	-0.364258	9.992450	70.923549	-175.507373
62690		-17.723399	0.258393	10.043130	-0.198592	4.959068	0.191556	0.102051	-0.489258	-0.343018	11.922098	73.689328	-173.366325
62691		-14.650463	0.290236	9.366032	-0.376597	4.382995	0.291690	0.119873	-0.486328	-0.326904	14.445678	76.094159	-170.532768
62692		-12.338463	-0.095863	10.023255	-0.605363	3.839309	0.387376	0.142822	-0.492920	-0.314697	17.711003	78.143842	-166.831112
62693		-7.965535	-1.104629	9.448517	-0.728590	3.461562	0.588440	0.153076	-0.498535	-0.299072	22.450661	79.888641	-161.581583
62694		-2.679439	-2.403664	8.474930	-0.719477	3.454412	0.862902	0.171631	-0.482666	-0.287109	30.088006	81.444527	-153.428191
62695		2.588343	-2.791087	6.994953	-0.735835	3.735003	1.064018	0.188232	-0.500977	-0.267334	42.407024	82.813249	-140.571231
62696		2.001863	-2.007817	10.638474	-0.531366	4.007664	1.398978	0.206543	-0.497803	-0.257568	61.535069	83.603452	-121.007556
62697		-19.401487	-2.293503	16.385326	-0.158721	2.888635	1.592116	0.220215	-0.502197	-0.234375	77.770140	83.316166	-104.578911
62698		-14.554414	-1.639800	15.561915	-0.078196	0.817805	1.469212	0.218750	-0.510986	-0.243408	82.599066	82.561956	-99.671182
62699		-9.239079	-2.052077	13.242880	0.057540	-0.736464	1.330099	0.197266	-0.518555	-0.244141	80.373153	81.742253	-101.953820
62700		-7.075848	-1.640234	9.496266	0.016951	-1.942887	1.294121	0.194092	-0.521484	-0.255127	74.362305	80.769887	-108.047932
62701		-5.524237	-0.725000	8.478282	-0.062428	-2.899496	1.208716	0.170898	-0.527100	-0.273193	66.581864	79.554190	-115.909422
62702		-3.471493	-0.629492	9.031785	-0.110892	-3.496292	1.055968	0.152100	-0.533936	-0.285156	58.900862	78.091164	-123.676216
62703		-3.099682	-0.422479	8.018548	-0.211416	-3.816095	0.914978	0.131592	-0.534180	-0.299805	52.092434	76.410350	-130.532972
62704		-2.076571	-0.513353	6.398522	-0.224481	-3.924104	0.728282	0.105225	-0.540527	-0.310791	46.424823	74.620186	-136.255966
62705		-1.361218	-0.355968	4.930011	-0.228770	-3.850838	0.601696	0.079102	-0.540039	-0.330322	41.861014	72.786076	-140.874582
62706		-1.422241	0.887302	4.474306	-0.323245	-3.703900	0.599058	0.056885	-0.541748	-0.341553	38.310987	70.936203	-144.418002
62707		-2.145804	2.439252	4.895965	-0.599780	-3.558932	0.581566	0.034668	-0.550781	-0.359375	35.325635	69.093081	-147.229300
62708		-2.984542	2.748222	5.250850	-0.936989	-3.466419	0.493597	0.005127	-0.538330	-0.371826	32.608244	67.283272	-149.580890
62709		-3.519398	1.993570	5.487314	-1.178011	-3.409089	0.429033	-0.018555	-0.530762	-0.384277	30.079845	65.475386	-151.604030
62710		-3.994859	0.923336	5.762441	-1.227563	-3.375146	0.439012	-0.044922	-0.525146	-0.389404	27.875621	63.657534	-153.269076
62711		-4.251256	0.511724	6.197395	-1.137115	-3.342156	0.507734	-0.072266	-0.512939	-0.397461	26.035767	61.806394	-154.606014
62712		-4.658505	0.827749	6.694316	-1.024669	-3.303680	0.589424	-0.098145	-0.506836	-0.399414	24.551619	59.946657	-155.636206
62713		-5.135185	1.411087	7.207394	-0.958164	-3.269236	0.653214	-0.122070	-0.501953	-0.406494	23.301586	58.069805	-156.453724
62714		-5.822233	1.786270	7.896162	-0.967952	-3.237936	0.730950	-0.146729	-0.491943	-0.419189	22.239699	56.193190	-157.061214
62715		-6.712594	2.184877	8.727672	-1.047561	-3.258919	0.777717	-0.182617	-0.481201	-0.406006	21.234643	54.280314	-157.553358
62716		-7.550764	2.437368	9.261240	-1.198951	-3.360424	0.741622	-0.212891	-0.469482	-0.417480	20.173743	52.325235	-158.023421
62717		-7.888677	2.111940	9.204371	-1.350770	-3.478252	0.604431	-0.246338	-0.457764	-0.416748	18.969378	50.317612	-158.573631
62718		-7.856859	1.682544	8.987928	-1.463677	-3.530112	0.393537	-0.270996	-0.454102	-0.413574	17.646426	48.322836	-159.216112
62719		-8.016653	1.459477	9.021351	-1.540257	-3.504287	0.129322	-0.301758	-0.425537	-0.408691	16.203031	46.366256	-159.977142
62720		-8.710391	1.314751	9.413048	-1.593448	-3.442280	-0.162152	-0.325928	-0.420166	-0.408203	14.671904	44.486252	-160.848962
62721		-9.700209	1.364227	10.114967	-1.611072	-3.436738	-0.473803	-0.360107	-0.407227	-0.386963	13.046979	42.625183	-161.865509
62722		-10.408655	1.443853	10.695766	-1.606494	-3.513535	-0.746045	-0.396729	-0.389648	-0.381836	11.380673	40.744590	-162.991334
62723		-10.274517	1.687484	10.810339	-1.545217	-3.621868	-0.940160	-0.417236	-0.378662	-0.355957	9.736116	38.788945	-164.175946
62724		-9.607207	1.929597	10.612515	-1.454036	-3.654502	-1.031441	-0.445557	-0.375732	-0.344727	8.202265	36.809482	-165.323939
62725		-9.596331	2.274140	10.510335	-1.360953	-3.586841	-1.055808	-0.470703	-0.361328	-0.322510	6.794664	34.836733	-166.394402
62726		-9.731538	2.488982	10.348130	-1.292378	-3.461861	-1.071979	-0.492432	-0.353271	-0.303467	5.506484	32.927304	-167.382063
62727		-10.337047	2.487439	10.543056	-1.225086	-3.288003	-1.102735	-0.494385	-0.349854	-0.281250	4.309782	31.090543	-168.313675
62728		-12.122040	2.056444	11.460426	-1.096291	-3.179611	-1.120314	-0.518311	-0.356201	-0.252197	3.243913	29.311993	-169.189735
62729		-13.822366	1.297128	12.340690	-0.863241	-3.265318	-1.088350	-0.518799	-0.359863	-0.228760	2.363400	27.460630	-170.000189
62730		-14.209455	1.063273	12.795403	-0.583107	-3.469235	-1.008361	-0.522949	-0.370117	-0.208740	1.711233	25.491801	-170.720323
62731		-14.508878	2.022732	12.583890	-0.392576	-3.684762	-0.961087	-0.522217	-0.370117	-0.199219	1.212117	23.383135	-171.382133
62732		-14.559853	3.122541	11.763796	-0.426209	-3.894914	-1.009295	-0.522705	-0.378906	-0.192871	0.720135	21.158747	-172.043821
62733		-13.872985	3.303653	10.418570	-0.610790	-4.043139	-1.138267	-0.525879	-0.388184	-0.192139	0.127443	18.836199	-172.753557
62734		-12.800933	2.507770	8.702921	-0.769278	-4.083527	-1.268726	-0.518555	-0.394287	-0.184814	-0.538044	16.491152	-173.503900
62735		-11.637050	1.530292	7.111856	-0.779168	-3.964194	-1.346193	-0.523438	-0.393066	-0.195801	-1.185465	14.199081	-174.265262
62736		-11.057606	0.751411	5.940584	-0.648178	-3.695828	-1.371218	-0.529541	-0.395264	-0.196289	-1.723662	12.059577	-175.012826
62737		-11.021109	0.719615	4.935020	-0.437679	-3.357976	-1.353452	-0.533691	-0.402588	-0.185791	-2.112160	10.102768	-175.733766
62738		-11.050501	1.348915	3.888285	-0.276391	-2.992121	-1.313137	-0.553223	-0.406982	-0.184814	-2.378143	8.357618	-176.423692
62739		-11.056537	2.108993	2.632003	-0.207676	-2.607957	-1.230908	-0.561035	-0.413818	-0.191406	-2.580863	6.827844	-177.065933
62740		-11.368928	2.978843	1.398314	-0.258495	-2.184129	-1.096316	-0.558350	-0.419678	-0.196533	-2.787181	5.545793	-177.634450
62741		-12.465970	3.938196	0.402462	-0.423411	-1.762768	-0.915342	-0.565430	-0.423096	-0.200684	-3.069417	4.505590	-178.104934
62742		-13.801954	4.684340	-0.366514	-0.673471	-1.388424	-0.717118	-0.561768	-0.423340	-0.202393	-3.478081	3.685367	-178.466972
62743		-14.097770	4.711800	-1.115163	-0.905026	-1.056301	-0.538901	-0.563721	-0.426758	-0.198486	-4.009995	3.058586	-178.732389
62744		-12.927042	3.655589	-1.288677	-0.985208	-0.693472	-0.410624	-0.565674	-0.426514	-0.200439	-4.581425	2.642269	-178.933778
62745		-11.569004	2.263930	-0.761229	-0.854077	-0.271076	-0.327977	-0.565674	-0.421631	-0.200195	-5.075532	2.471124	-179.104387
62746		-9.110952	0.642285	0.543357	-0.540929	0.160432	-0.337531	-0.563232	-0.424316	-0.197266	-5.391026	2.542602	-179.301798
62747		-5.399793	-3.838930	1.196678	0.976077	1.547347	-0.692875	-0.562256	-0.426270	-0.208984	-4.853121	3.391205	-179.773204
62748		-3.102265	0.094841	3.458285	1.321517	2.185668	-0.254110	-0.541992	-0.436279	-0.211182	-4.109615	4.625819	179.986933
62749		-4.112980	5.870361	12.910474	1.236568	1.794165	-0.317935	-0.526855	-0.447510	-0.211670	-3.420412	5.641149	179.740369
62750		-1.944046	6.241721	11.455650	0.543726	1.554237	-0.696017	-0.535400	-0.443115	-0.213135	-3.153204	6.504789	179.292332
62751		2.349962	2.898127	8.463656	-0.032743	1.444701	-0.937390	-0.514893	-0.447021	-0.212158	-3.238316	7.303093	178.709496
62752		2.945888	-1.425394	7.263688	-0.176839	1.986714	-0.767496	-0.498535	-0.443359	-0.218262	-3.405754	8.411464	178.203450
62753		-2.219943	-1.021814	9.508360	-0.120428	2.446764	-0.463369	-0.489014	-0.443604	-0.225098	-3.526377	9.795973	177.853114
62754		-5.037469	0.611633	10.728112	-0.079563	2.510325	-0.346672	-0.475098	-0.452881	-0.219238	-3.621608	11.216580	177.564047
62755		-2.459061	-1.066849	10.128906	-0.013313	2.601377	-0.262916	-0.459961	-0.444336	-0.231934	-3.676514	12.695964	177.317386
62756		-2.430528	-1.194512	9.979787	0.055416	2.935883	-0.144702	-0.437744	-0.454102	-0.231689	-3.686713	14.366787	177.124981
62757		-5.820956	-0.669001	11.873443	-0.026463	3.072483	-0.275788	-0.431396	-0.449219	-0.239746	-3.771268	16.114716	176.846938
62758		-8.600008	0.677910	12.694138	-0.060598	2.873027	-0.319652	-0.405273	-0.452393	-0.238037	-3.890900	17.742417	176.544819
62759		-8.604207	1.118090	12.195470	0.047374	2.566097	-0.190453	-0.391846	-0.446533	-0.250000	-3.928526	19.203889	176.328534
62760		-7.762781	0.593858	11.586146	0.146093	2.243925	0.039430	-0.382813	-0.448975	-0.244629	-3.863810	20.485620	176.263544
62761		-7.552314	-1.318719	10.948741	0.200836	2.031714	0.083592	-0.380127	-0.444580	-0.237549	-3.754572	21.652953	176.236263
62762		-8.718145	-1.793863	10.930817	0.284125	1.773957	0.063132	-0.365234	-0.444824	-0.242432	-3.599053	22.667062	176.208834
62763		-8.861996	-1.027259	10.919545	0.351164	1.419097	0.109111	-0.362305	-0.446289	-0.255127	-3.386811	23.485575	176.227223
62764		-7.841243	-0.295409	10.102751	0.378255	1.049479	0.197934	-0.358154	-0.453613	-0.249023	-3.130558	24.089809	176.317605
62765		-5.545663	-1.143308	9.173585	0.412066	0.819834	0.203402	-0.351807	-0.456299	-0.239014	-2.847259	24.568585	176.422901
62766		-5.199227	-1.278643	8.989684	0.455357	0.711978	0.229688	-0.351563	-0.453857	-0.247070	-2.529770	24.979658	176.550611
