// General information: 
//  MT Manager version: 2022.2.0 
//  XDA version: 2022.2.0 build 7381 rev 124627 built on 2023-07-19
// Device information: 
//  DeviceId: 00B4BCF6
//  ProductCode: MTW2-3A7G6
//  Firmware Version: 4.6.0
//  Hardware Version: 2.0.0
// Device settings: 
//  Filter Profile: human(46.1)
//  Option Flags: Orientation Smoother Disabled, Position/Velocity Smoother Disabled, Continuous Zero Rotation Update Disabled, AHS Disabled, ICC Disabled
// Coordinate system: ENU
PacketCounter	SampleTimeFine	Acc_X	Acc_Y	Acc_Z	Gyr_X	Gyr_Y	Gyr_Z	Mag_X	Mag_Y	Mag_Z	Roll	Pitch	Yaw
64768		-3.943875	1.038311	8.968430	0.000495	0.006817	-0.001501	-0.645020	-0.380127	-0.408203	6.831813	23.469604	-169.291586
64769		-3.933542	1.056363	8.980455	-0.002531	0.000385	-0.005155	-0.651855	-0.376221	-0.415283	6.833354	23.467018	-169.291379
64770		-3.925487	1.065139	8.959323	-0.001451	0.004699	-0.003926	-0.657715	-0.379883	-0.413086	6.835578	23.467241	-169.290561
64771		-3.944948	1.037463	8.968056	-0.001731	0.004392	-0.002395	-0.652344	-0.382080	-0.410156	6.838377	23.466746	-169.288344
64772		-3.916645	1.032848	8.949138	-0.003677	0.002274	-0.004821	-0.655273	-0.376221	-0.417236	6.839033	23.465641	-169.288284
64773		-3.906254	1.050698	8.961218	-0.001811	0.003261	-0.004336	-0.652344	-0.382080	-0.410645	6.841273	23.464635	-169.287355
64774		-3.926962	1.063754	8.958841	-0.001451	0.004700	-0.003926	-0.651123	-0.373535	-0.403320	6.843495	23.464854	-169.286316
64775		-3.956023	1.067731	8.977498	-0.002012	0.004084	-0.000863	-0.655762	-0.380859	-0.402344	6.846501	23.464079	-169.283172
64776		-3.887204	1.036334	8.963026	-0.004263	0.004777	-0.007549	-0.661621	-0.373535	-0.401855	6.846226	23.464563	-169.284501
64777		-3.928348	1.062388	8.958396	-0.006252	0.005742	-0.002621	-0.653320	-0.379150	-0.418945	6.846419	23.464851	-169.282323
64778		-3.928997	1.061945	8.958164	-0.000451	0.007884	-0.004637	-0.654785	-0.379883	-0.412109	6.849135	23.466920	-169.281275
64779		-3.929649	1.061605	8.957918	-0.002677	0.005458	-0.005532	-0.653076	-0.379639	-0.403809	6.850648	23.467245	-169.280924
64780		-3.930237	1.061010	8.957730	-0.005690	0.006358	-0.005683	-0.643311	-0.383057	-0.411865	6.850060	23.468517	-169.281017
64781		-3.939165	1.051091	8.978609	-0.005769	0.005228	-0.007624	-0.653076	-0.374023	-0.418945	6.849278	23.468855	-169.281981
64782		-3.931354	1.059436	8.957427	-0.006050	0.004920	-0.006093	-0.652344	-0.379395	-0.413574	6.848338	23.469348	-169.282249
64783		-3.911629	1.045486	8.959483	-0.002318	0.006896	-0.005122	-0.650146	-0.378174	-0.419678	6.850201	23.470463	-169.281537
64784		-3.930078	1.067377	8.990321	-0.004982	0.001902	-0.008369	-0.656982	-0.376709	-0.413574	6.849222	23.469387	-169.283394
64785		-3.941067	1.048296	8.978101	-0.006410	0.003482	-0.006503	-0.651855	-0.377197	-0.417480	6.848299	23.468655	-169.283792
64786		-3.921339	1.034116	8.980184	-0.006839	0.008246	-0.005348	-0.649170	-0.375977	-0.415283	6.847191	23.470973	-169.283187
64787		-3.911222	1.051703	8.992203	-0.003397	0.002583	-0.006351	-0.646484	-0.373047	-0.408203	6.848005	23.469718	-169.283559
64788		-3.942605	1.046108	8.977681	-0.006051	0.004920	-0.006092	-0.645996	-0.375977	-0.410889	6.847065	23.470190	-169.283760
64789		-3.912214	1.050388	8.991925	-0.004107	0.007038	-0.003665	-0.651367	-0.380615	-0.412598	6.848267	23.471287	-169.282134
64790		-3.943823	1.044956	8.977280	-0.002397	0.005767	-0.007062	-0.648682	-0.378174	-0.412354	6.849206	23.472303	-169.283116
64791		-3.905053	1.058407	8.970507	-0.006051	0.004920	-0.006092	-0.645996	-0.381104	-0.416016	6.848632	23.472361	-169.283153
64792		-3.936679	1.052906	8.955858	-0.001961	0.008335	-0.004709	-0.657227	-0.380127	-0.413574	6.850477	23.474680	-169.282532
64793		-3.937307	1.052532	8.955626	-0.003241	0.004842	-0.002468	-0.647461	-0.373291	-0.415527	6.852406	23.474445	-169.280327
64794		-3.937748	1.052085	8.955484	-0.003037	0.004021	-0.005941	-0.651367	-0.376465	-0.417969	6.853202	23.474387	-169.280378
64795		-3.915627	1.047305	8.990799	-0.004186	0.005909	-0.005606	-0.648682	-0.376221	-0.415283	6.853847	23.474974	-169.280040
64796		-3.916239	1.046692	8.990604	-0.003905	0.006217	-0.007137	-0.645264	-0.383057	-0.409424	6.853914	23.476252	-169.280647
64797		-3.939536	1.050332	8.954904	-0.003827	0.007347	-0.005195	-0.652588	-0.381348	-0.414551	6.854908	23.477629	-169.279946
64798		-3.928254	1.027398	8.977933	-0.000532	0.006757	-0.006574	-0.648682	-0.380127	-0.413818	6.857064	23.479163	-169.280983
64799		-3.930134	1.067777	8.966649	-0.003038	0.004021	-0.005940	-0.647461	-0.378906	-0.421143	6.858228	23.478699	-169.280993
64800		-3.901905	1.063265	8.947719	0.000335	0.004561	-0.005378	-0.656738	-0.372314	-0.414795	6.861108	23.478915	-169.280918
64801		-3.939288	1.058041	8.987393	-0.002374	0.002645	-0.001272	-0.651367	-0.373047	-0.412354	6.863764	23.477348	-169.278135
64802		-3.929961	1.026024	8.977343	-0.002756	0.004330	-0.007471	-0.656006	-0.372803	-0.412109	6.864351	23.477549	-169.278499
64803		-3.922242	1.034565	8.956110	-0.005054	0.008105	-0.006801	-0.650391	-0.382813	-0.409424	6.864268	23.479466	-169.278738
64804		-3.922871	1.034063	8.955893	-0.001454	0.004701	-0.003922	-0.648193	-0.382324	-0.410156	6.866489	23.479629	-169.277724
64805		-3.953418	1.078619	8.963391	-0.002398	0.005769	-0.007060	-0.649170	-0.379395	-0.415283	6.867794	23.480235	-169.278297
64806		-3.921643	1.042213	8.988769	-0.004545	0.004471	-0.006016	-0.648926	-0.371094	-0.414307	6.867718	23.480424	-169.279107
64807		-3.942480	1.055043	8.986346	-0.000891	0.005320	-0.006983	-0.646729	-0.374756	-0.413818	6.869892	23.480770	-169.279667
64808		-3.925100	1.032252	8.955125	-0.001964	0.008336	-0.004707	-0.650391	-0.370117	-0.416260	6.871731	23.483068	-169.278176
64809		-3.935642	1.063465	8.964745	-0.001401	0.008954	-0.007768	-0.650146	-0.380859	-0.411865	6.873527	23.485535	-169.278951
64810		-3.924320	1.040620	8.987785	-0.001736	0.004392	-0.002391	-0.651611	-0.376953	-0.412354	6.875951	23.485424	-169.276648
64811		-3.928421	1.071950	8.943306	-0.002680	0.005460	-0.005529	-0.645264	-0.379395	-0.416992	6.877464	23.485750	-169.276295
64812		-3.937367	1.062175	8.964140	-0.005695	0.006358	-0.005681	-0.651367	-0.375000	-0.418213	6.876865	23.486987	-169.276381
64813		-3.925919	1.039229	8.987247	0.000053	0.004253	-0.003845	-0.648682	-0.368652	-0.412109	6.880324	23.486511	-169.275075
64814		-3.926280	1.038879	8.987131	-0.003396	0.002584	-0.006351	-0.650879	-0.379639	-0.416992	6.880762	23.485639	-169.274715
64815		-3.930296	1.070258	8.942685	0.000129	0.005382	-0.001903	-0.648682	-0.378174	-0.413818	6.884778	23.485672	-169.272120
64816		-3.918887	1.047355	8.965770	-0.005695	0.006357	-0.005681	-0.657471	-0.379395	-0.409668	6.884177	23.486904	-169.272282
64817		-3.939642	1.060067	8.963391	-0.003959	0.001965	-0.003290	-0.659180	-0.380371	-0.415527	6.885407	23.485088	-169.270802
64818		-3.929201	1.077875	8.975584	-0.002246	0.000697	-0.006686	-0.647217	-0.380371	-0.420654	6.886369	23.483136	-169.271761
64819		-3.911334	1.054952	8.944585	-0.003396	0.002584	-0.006350	-0.650146	-0.370605	-0.418213	6.887183	23.481882	-169.272133
64820		-3.920075	1.045346	8.965486	-0.001455	0.004702	-0.003921	-0.645264	-0.372803	-0.416016	6.889394	23.482065	-169.270529
64821		-3.928898	1.035692	8.986354	-0.004546	0.004471	-0.006015	-0.646973	-0.380859	-0.410156	6.889688	23.481862	-169.270551
64822		-3.910372	1.062539	8.977433	-0.004828	0.004161	-0.004485	-0.654297	-0.377686	-0.411133	6.889814	23.481750	-169.270267
64823		-3.931047	1.075470	8.975063	-0.000587	0.002506	-0.002725	-0.655029	-0.373779	-0.417480	6.893131	23.480203	-169.268397
64824		-3.923024	1.084278	8.953947	-0.004828	0.004161	-0.004485	-0.650391	-0.374756	-0.412598	6.893259	23.480072	-169.267156
64825		-3.942475	1.056268	8.962593	-0.002681	0.005461	-0.005527	-0.657227	-0.375977	-0.415039	6.894771	23.480398	-169.266802
64826		-3.920379	1.051691	8.997926	-0.001737	0.004393	-0.002390	-0.645752	-0.381104	-0.414307	6.897196	23.480254	-169.264310
64827		-3.953937	1.037287	8.950076	-0.003602	0.003403	-0.002878	-0.652100	-0.378662	-0.413574	6.898774	23.479228	-169.262468
64828		-3.943714	1.055279	8.962165	0.000052	0.004254	-0.003844	-0.659180	-0.381592	-0.412598	6.901858	23.479119	-169.262165
64829		-3.925108	1.082537	8.953244	-0.002095	0.002955	-0.002802	-0.648438	-0.370117	-0.410645	6.904305	23.477832	-169.260309
64830		-3.917040	1.091488	8.932132	-0.000305	0.002816	-0.004255	-0.647217	-0.375000	-0.407471	6.907043	23.476907	-169.259318
64831		-3.934150	1.072854	8.974017	-0.001456	0.004703	-0.003920	-0.652344	-0.371826	-0.415283	6.909633	23.476691	-169.258025
64832		-3.914481	1.059085	8.976051	-0.004983	0.009234	-0.004856	-0.650391	-0.378906	-0.408447	6.909736	23.479466	-169.256782
64833		-3.923394	1.049324	8.996888	-0.003959	0.001965	-0.003290	-0.650391	-0.370605	-0.418213	6.910965	23.477649	-169.255303
64834		-3.944054	1.062134	8.994533	-0.003039	0.004023	-0.005938	-0.654541	-0.381104	-0.416016	6.911757	23.477538	-169.255242
64835		-3.907361	1.066685	8.954687	-0.003114	0.002894	-0.007880	-0.651367	-0.377930	-0.413574	6.912363	23.476567	-169.256539
64836		-3.938843	1.061068	8.940019	-0.005341	0.007796	-0.005267	-0.647949	-0.379395	-0.403809	6.912115	23.478556	-169.256434
64837		-3.956210	1.041975	8.981835	-0.004265	0.004781	-0.007544	-0.651367	-0.376953	-0.415283	6.912201	23.478635	-169.257382
64838		-3.906853	1.073702	8.987425	-0.005772	0.005229	-0.007621	-0.649658	-0.378174	-0.412109	6.911050	23.479310	-169.259333
64839		-3.927663	1.086486	8.985008	-0.002020	0.004083	-0.000859	-0.652344	-0.379395	-0.417725	6.914053	23.478530	-169.256188
64840		-3.920617	1.045350	8.941648	-0.005698	0.006357	-0.005679	-0.652100	-0.377197	-0.416016	6.913455	23.479732	-169.256391
64841		-3.930826	1.076181	8.951501	-0.004978	0.001905	-0.008368	-0.655273	-0.373779	-0.413818	6.912844	23.478232	-169.258067
64842		-3.919275	1.053038	8.974670	-0.002401	0.005772	-0.007055	-0.655029	-0.374023	-0.416748	6.913778	23.479184	-169.258199
64843		-3.950832	1.047546	8.959936	-0.004116	0.007038	-0.003660	-0.643311	-0.377197	-0.419922	6.914977	23.480278	-169.256568
64844		-3.901525	1.079459	8.965513	-0.004547	0.004471	-0.006014	-0.648438	-0.375000	-0.415283	6.914894	23.480447	-169.256271
64845		-3.941245	1.064694	8.971875	-0.003321	0.003713	-0.004407	-0.648193	-0.383545	-0.414307	6.916264	23.479702	-169.255354
64846		-3.910808	1.069205	8.986241	-0.002401	0.005772	-0.007054	-0.653076	-0.377441	-0.415283	6.917198	23.480664	-169.256904
64847		-3.942157	1.063525	8.971613	-0.006767	0.002042	-0.006915	-0.649414	-0.377197	-0.411621	6.915924	23.479142	-169.257668
64848		-3.913935	1.058620	8.952773	-0.007133	0.007933	-0.003812	-0.651855	-0.375000	-0.410400	6.915014	23.481089	-169.256376
64849		-3.916737	1.049072	8.919321	0.000332	0.004567	-0.005370	-0.653076	-0.385986	-0.408203	6.918266	23.480896	-169.255992
64850		-3.941545	1.070854	9.004368	-0.004547	0.004472	-0.006013	-0.651611	-0.371582	-0.413330	6.918194	23.481000	-169.257412
64851		-3.927368	1.079639	8.929036	-0.003395	0.002586	-0.006349	-0.648926	-0.380371	-0.415283	6.919008	23.479747	-169.257784
64852		-3.915855	1.056536	8.952180	-0.003910	0.006221	-0.007130	-0.646240	-0.376953	-0.411133	6.919074	23.480954	-169.258217
64853		-3.916465	1.055924	8.951985	-0.004192	0.005910	-0.005600	-0.647705	-0.375244	-0.419678	6.919717	23.481541	-169.257874
64854		-3.924520	1.095929	8.995080	-0.005186	0.002722	-0.004896	-0.656738	-0.382568	-0.416748	6.919496	23.480618	-169.257391
64855		-3.915150	1.063493	8.985028	-0.007073	0.004861	-0.011168	-0.649414	-0.376953	-0.418701	6.917081	23.480992	-169.260580
64856		-3.938299	1.066925	8.949324	-0.004119	0.007038	-0.003658	-0.648682	-0.383545	-0.418213	6.917908	23.482429	-169.259334
64857		-3.947391	1.057144	8.970066	-0.003555	0.007660	-0.006716	-0.648438	-0.377197	-0.416260	6.918692	23.484088	-169.259552
64858		-3.948085	1.056485	8.969838	-0.005701	0.006358	-0.005677	-0.649414	-0.377930	-0.416016	6.918094	23.485287	-169.260187
64859		-3.909490	1.069891	8.963189	-0.006645	0.007427	-0.008812	-0.652344	-0.377441	-0.417236	6.916583	23.486959	-169.261722
64860		-3.910248	1.069079	8.962956	-0.005346	0.007796	-0.005263	-0.647461	-0.372559	-0.412354	6.916335	23.488931	-169.261052
64861		-3.941805	1.063265	8.948216	-0.007565	0.005367	-0.006166	-0.645996	-0.377930	-0.408447	6.914888	23.489247	-169.261102
64862		-3.921179	1.098912	8.972655	-0.008203	0.003617	-0.005050	-0.653076	-0.378906	-0.410645	6.912937	23.488799	-169.260811
64863		-3.922370	1.048062	8.950324	-0.007073	0.004862	-0.011167	-0.648926	-0.375000	-0.412598	6.910521	23.489174	-169.264000
64864		-3.932825	1.078580	8.960152	-0.008719	0.007252	-0.005829	-0.649414	-0.384033	-0.413330	6.908192	23.490839	-169.263983
64865		-3.913173	1.064300	8.962248	-0.008719	0.007252	-0.005829	-0.649414	-0.376465	-0.406982	6.906224	23.492206	-169.263682
64866		-3.936382	1.067646	8.926509	-0.005420	0.006670	-0.007204	-0.654541	-0.371094	-0.406982	6.905430	23.493631	-169.265846
64867		-3.953123	1.098160	8.990532	-0.007211	0.006805	-0.005752	-0.651611	-0.372070	-0.410889	6.904332	23.494738	-169.265531
64868		-3.921431	1.061384	9.015919	-0.008792	0.006126	-0.007771	-0.654297	-0.377686	-0.420654	6.901453	23.495866	-169.265108
64869		-3.934717	1.033043	8.970236	-0.007284	0.005679	-0.007694	-0.649414	-0.373535	-0.416748	6.899800	23.496466	-169.266082
64870		-3.926378	1.091161	8.971328	-0.008083	0.009003	-0.006943	-0.645020	-0.382324	-0.407715	6.897605	23.499241	-169.265415
64871		-3.925639	1.049211	8.982130	-0.010656	0.005134	-0.008262	-0.652832	-0.374512	-0.418457	6.893863	23.499570	-169.266782
64872		-3.917860	1.057219	8.961038	-0.010302	0.006573	-0.007847	-0.650391	-0.385010	-0.413818	6.890108	23.500997	-169.268702
64873		-3.949339	1.051138	8.946327	-0.007850	0.005055	-0.004635	-0.654053	-0.380371	-0.411377	6.888868	23.501032	-169.267825
64874		-3.927571	1.045864	8.981676	-0.009311	0.009762	-0.008548	-0.656006	-0.383057	-0.409912	6.885606	23.504308	-169.270958
64875		-3.919960	1.054124	8.960484	-0.005493	0.005546	-0.009144	-0.649414	-0.376953	-0.406982	6.884615	23.504931	-169.272841
64876		-3.928901	1.043854	8.981328	-0.009148	0.004688	-0.008184	-0.649170	-0.374023	-0.408691	6.881387	23.505263	-169.275605
64877		-3.941410	1.065353	8.957962	-0.007568	0.005368	-0.006163	-0.654785	-0.375732	-0.416992	6.879940	23.505580	-169.275652
64878		-3.913313	1.060506	8.939097	-0.006860	0.008244	-0.005335	-0.650146	-0.375977	-0.423096	6.878828	23.507767	-169.274226
64879		-3.942712	1.063566	8.957601	-0.007639	0.004242	-0.008106	-0.650879	-0.372559	-0.410645	6.876825	23.507577	-169.275563
64880		-3.951465	1.053289	8.978523	-0.008559	0.002178	-0.005463	-0.651367	-0.376221	-0.409180	6.874523	23.506351	-169.274262
64881		-3.912591	1.066526	8.972108	-0.008866	0.005001	-0.009711	-0.647461	-0.374023	-0.416260	6.871443	23.506703	-169.276538
64882		-3.954587	1.042186	8.945056	-0.007215	0.006806	-0.005748	-0.644287	-0.375488	-0.417969	6.869983	23.508104	-169.276019
64883		-3.934153	1.077632	8.969557	-0.010729	0.004010	-0.010203	-0.648682	-0.372803	-0.422363	6.865685	23.507925	-169.278674
64884		-3.945140	1.058097	8.957180	-0.009149	0.004689	-0.008182	-0.655273	-0.381592	-0.404785	6.862442	23.508345	-169.279038
64885		-3.935150	1.075237	8.969406	-0.009149	0.004689	-0.008182	-0.656006	-0.380371	-0.411133	6.859569	23.508414	-169.280389
64886		-3.923650	1.051570	8.992572	-0.009432	0.004376	-0.006653	-0.647949	-0.379639	-0.413818	6.856555	23.508441	-169.282373
64887		-3.936640	1.023176	8.946937	-0.009786	0.002938	-0.007068	-0.659424	-0.373535	-0.416748	6.853540	23.507438	-169.283163
64888		-3.936399	1.071986	8.969248	-0.006415	0.003484	-0.006499	-0.653076	-0.375000	-0.419189	6.852254	23.506998	-169.283131
64889		-3.955602	1.043493	8.977845	-0.008560	0.002178	-0.005462	-0.652100	-0.379150	-0.410156	6.850316	23.505453	-169.282982
64890		-3.937015	1.070061	8.969207	-0.007995	0.002805	-0.008519	-0.654297	-0.377686	-0.412598	6.847606	23.504765	-169.284627
64891		-3.914775	1.064804	9.004783	-0.007122	0.000608	-0.007329	-0.645752	-0.376953	-0.412109	6.845985	23.502454	-169.285752
64892		-3.937428	1.068237	8.969243	-0.005259	0.001600	-0.006836	-0.647949	-0.379150	-0.418457	6.845226	23.500957	-169.287080
64893		-3.917401	1.054241	8.971461	-0.006062	0.004923	-0.006082	-0.648438	-0.373291	-0.406738	6.844648	23.501016	-169.287111
64894		-3.948672	1.048655	8.956734	-0.002100	0.002958	-0.002795	-0.645996	-0.379883	-0.404053	6.846739	23.500020	-169.285619
64895		-3.927986	1.084625	8.981343	-0.006769	0.002046	-0.006913	-0.647949	-0.381104	-0.416504	6.845466	23.498499	-169.286379
64896		-3.947076	1.056234	8.989959	-0.005542	0.001286	-0.005308	-0.646484	-0.373535	-0.416992	6.844918	23.496716	-169.288229
64897		-3.910087	1.061047	8.950339	-0.003963	0.001965	-0.003287	-0.650391	-0.375732	-0.411133	6.846147	23.494901	-169.286746
64898		-3.918776	1.051018	8.971239	-0.008208	0.003616	-0.005046	-0.650391	-0.380371	-0.408936	6.844202	23.494438	-169.285683
64899		-3.931089	1.072843	8.947957	-0.003680	0.002279	-0.004815	-0.643066	-0.383057	-0.410645	6.845224	23.492906	-169.285125
64900		-3.948113	1.053693	8.989801	-0.003963	0.001965	-0.003287	-0.650635	-0.377686	-0.412598	6.846104	23.491366	-169.285993
64901		-3.919558	1.049288	8.971100	-0.003680	0.002279	-0.004815	-0.649170	-0.370117	-0.417725	6.847126	23.489835	-169.285435
64902		-3.921296	1.089508	8.960190	-0.005542	0.001287	-0.005308	-0.645020	-0.374268	-0.410645	6.846575	23.488061	-169.284137
64903		-3.960896	1.074743	8.966406	0.000115	0.005389	-0.001886	-0.653564	-0.373535	-0.410400	6.850587	23.488098	-169.281530
64904		-3.920408	1.048149	8.970861	0.001061	0.000133	-0.008056	-0.658203	-0.375732	-0.417969	6.853115	23.485829	-169.282666
64905		-3.912207	1.056988	8.949893	-0.006982	0.002856	-0.003441	-0.650635	-0.371826	-0.418945	6.852601	23.484532	-169.281213
64906		-3.939303	1.069308	9.001727	-0.001465	0.004711	-0.003906	-0.649414	-0.377930	-0.418213	6.854835	23.484612	-169.278157
64907		-3.941715	1.060025	8.968335	-0.002171	0.001834	-0.004738	-0.645752	-0.376953	-0.421387	6.856727	23.482821	-169.277585
64908		-3.899150	1.042104	9.006109	-0.003328	0.003718	-0.004399	-0.649658	-0.375244	-0.414307	6.857740	23.482402	-169.276690
64909		-3.924001	1.036935	8.937176	-0.003680	0.002279	-0.004815	-0.649902	-0.378662	-0.410889	6.858762	23.480870	-169.276132
64910		-3.932228	1.077032	8.980401	0.000327	0.004580	-0.005357	-0.653076	-0.382324	-0.410400	6.861667	23.480949	-169.276211
64911		-3.920674	1.054135	9.003471	-0.003045	0.004032	-0.005927	-0.649170	-0.379395	-0.419678	6.862829	23.480490	-169.276212
64912		-3.914803	1.054188	8.949088	-0.001679	0.005520	-0.000434	-0.651367	-0.378418	-0.413818	6.865828	23.480777	-169.273887
64913		-3.935665	1.067121	8.946630	-0.001252	0.003901	-0.007377	-0.646729	-0.371338	-0.419189	6.867656	23.480344	-169.274798
64914		-3.924108	1.044172	8.969708	-0.003259	0.004841	-0.002455	-0.654785	-0.379639	-0.410156	6.869228	23.480393	-169.271921
64915		-3.956887	1.079650	8.944060	-0.000309	0.002827	-0.004244	-0.650879	-0.387207	-0.415283	6.872338	23.479134	-169.270969
64916		-3.926348	1.084400	8.958598	-0.003611	0.003403	-0.002871	-0.654541	-0.374023	-0.414795	6.873572	23.478362	-169.271215
64917		-3.933520	1.033911	8.990307	-0.000309	0.002827	-0.004244	-0.653564	-0.370605	-0.409180	6.876682	23.477103	-169.270262
64918		-3.896126	1.088786	8.973045	-0.005404	0.003534	-0.001420	-0.650879	-0.377441	-0.410889	6.877250	23.476287	-169.265904
64919		-3.917475	1.051777	8.948202	-0.000900	0.005340	-0.006961	-0.656738	-0.378174	-0.415771	6.879424	23.476644	-169.266448
64920		-3.926277	1.042127	8.968996	-0.002384	0.002643	-0.001266	-0.651367	-0.368652	-0.410156	6.881735	23.475323	-169.263795
64921		-3.919948	1.091992	8.936999	-0.001989	0.008348	-0.004678	-0.651855	-0.378662	-0.414307	6.883940	23.477233	-169.262698
64922		-3.927325	1.041322	8.968631	-0.005473	0.002410	-0.003364	-0.648926	-0.385254	-0.417480	6.883956	23.475921	-169.260408
64923		-3.917173	1.058946	8.980934	-0.004907	0.003039	-0.006420	-0.650635	-0.375488	-0.419434	6.883901	23.474931	-169.260789
64924		-3.909153	1.067693	8.959907	-0.003045	0.004033	-0.005926	-0.645020	-0.371826	-0.405762	6.884714	23.474769	-169.261669
64925		-3.917957	1.057806	8.980727	-0.005121	0.003848	-0.002948	-0.647461	-0.381836	-0.411133	6.885417	23.474001	-169.259837
64926		-3.942275	1.102371	8.934207	-0.003680	0.002280	-0.004814	-0.636475	-0.371094	-0.413574	6.886103	23.472705	-169.260684
64927		-3.918674	1.056718	8.980542	-0.004487	0.005601	-0.004059	-0.652100	-0.380859	-0.415527	6.886947	23.473010	-169.259409
64928		-3.931078	1.078607	8.957223	-0.004976	0.001916	-0.008363	-0.652100	-0.377930	-0.416748	6.885996	23.471798	-169.261478
64929		-3.919353	1.055282	8.980414	-0.006984	0.002854	-0.003441	-0.645996	-0.377686	-0.410645	6.885481	23.470499	-169.260026
64930		-3.911285	1.064020	8.959414	-0.003329	0.003718	-0.004398	-0.648682	-0.379395	-0.410645	6.886511	23.470013	-169.259682
64931		-3.942490	1.058360	8.944665	-0.004907	0.003040	-0.006419	-0.655762	-0.367920	-0.424072	6.886455	23.469023	-169.260063
64932		-3.911923	1.062904	8.959268	-0.002171	0.001835	-0.004737	-0.648682	-0.383789	-0.407715	6.888006	23.467496	-169.257973
64933		-3.920605	1.053190	8.980113	-0.001819	0.003274	-0.004320	-0.653564	-0.379883	-0.417236	6.890244	23.466496	-169.257035
64934		-3.920880	1.052781	8.980041	-0.003964	0.001965	-0.003287	-0.647705	-0.380615	-0.417725	6.891137	23.464919	-169.257371
64935		-3.922751	1.093016	8.969133	-0.004624	0.003355	-0.007946	-0.652344	-0.376709	-0.411621	6.890876	23.464214	-169.258675
64936		-3.940356	1.023891	8.988460	-0.003398	0.002595	-0.006341	-0.645996	-0.375000	-0.415527	6.891355	23.463219	-169.259607
64937		-3.922006	1.051001	8.979758	-0.004137	0.007040	-0.003641	-0.653076	-0.385254	-0.411377	6.892546	23.464314	-169.257965
64938		-3.903657	1.078113	8.971060	-0.003398	0.002595	-0.006341	-0.649414	-0.384766	-0.411865	6.893024	23.463313	-169.259457
64939		-3.951672	1.053766	8.998137	-0.003046	0.004034	-0.005924	-0.656494	-0.378174	-0.416748	6.894186	23.462855	-169.259457
64940		-3.904424	1.077097	8.970849	-0.003330	0.003718	-0.004397	-0.657959	-0.370361	-0.413086	6.895218	23.462350	-169.259644
64941		-3.944092	1.062083	8.976978	-0.004557	0.004478	-0.006001	-0.648438	-0.389160	-0.419922	6.895509	23.462151	-169.259659
64942		-3.934221	1.079726	8.989189	-0.003923	0.006233	-0.007112	-0.650391	-0.370361	-0.422852	6.895604	23.463272	-169.260555
64943		-3.945067	1.060936	8.976685	-0.002171	0.001836	-0.004736	-0.646484	-0.371094	-0.410400	6.897496	23.461482	-169.259983
64944		-3.935451	1.029044	8.966486	-0.002696	0.005473	-0.005507	-0.653809	-0.381104	-0.414307	6.898666	23.462068	-169.257550
64945		-3.917069	1.056303	8.957800	-0.001820	0.003274	-0.004319	-0.652832	-0.368408	-0.412109	6.900905	23.461068	-169.256611
64946		-3.917470	1.055816	8.957682	-0.004557	0.004478	-0.006001	-0.653809	-0.377197	-0.414063	6.900861	23.461090	-169.256004
64947		-3.927878	1.086850	8.967639	-0.000026	0.003146	-0.005769	-0.658936	-0.377930	-0.410156	6.903766	23.460117	-169.255974
64948		-3.938655	1.068267	8.955133	-0.001537	0.003590	-0.005846	-0.652344	-0.371826	-0.413330	6.905469	23.459611	-169.255952
64949		-3.910210	1.064091	8.936394	-0.001537	0.003590	-0.005846	-0.647705	-0.373291	-0.409424	6.907502	23.458896	-169.255936
64950		-3.930930	1.076722	8.934028	-0.005259	0.001601	-0.006835	-0.656250	-0.373535	-0.408691	6.906767	23.457342	-169.256142
64951		-3.937493	1.075616	8.988249	-0.004315	0.000526	-0.003704	-0.648193	-0.372070	-0.413574	6.907645	23.454735	-169.255028
64952		-3.929233	1.084485	8.967332	-0.003965	0.001964	-0.003286	-0.654541	-0.377197	-0.412354	6.908541	23.453137	-169.252974
64953		-3.919369	1.052564	8.957234	-0.002522	0.000398	-0.005153	-0.648438	-0.373291	-0.415283	6.910085	23.450558	-169.252768
64954		-3.917564	1.061285	8.990471	0.000984	0.003193	-0.000692	-0.647461	-0.375488	-0.416748	6.914491	23.449496	-169.249492
64955		-3.929831	1.083865	8.967145	0.000917	0.002070	-0.002637	-0.650146	-0.378418	-0.414307	6.918676	23.447695	-169.247601
64956		-3.928395	1.042905	8.977909	-0.000944	0.001076	-0.003131	-0.657959	-0.377441	-0.408447	6.921310	23.445612	-169.246561
64957		-3.930196	1.083566	8.967021	-0.000593	0.002514	-0.002714	-0.652344	-0.380127	-0.408936	6.924624	23.444068	-169.244685
64958		-3.930368	1.083452	8.966959	0.000567	0.000632	-0.003054	-0.655518	-0.379883	-0.408936	6.928140	23.441676	-169.244038
64959		-3.930521	1.083227	8.966919	-0.002171	0.001836	-0.004736	-0.657715	-0.374512	-0.415771	6.930031	23.439885	-169.243467
64960		-3.930799	1.082870	8.966840	-0.001821	0.003274	-0.004318	-0.647461	-0.378906	-0.415283	6.931944	23.439098	-169.242479
64961		-3.908580	1.078467	9.002373	0.002077	0.000188	-0.002976	-0.651367	-0.383057	-0.411377	6.936653	23.436248	-169.240942
64962		-3.908608	1.078607	9.002343	0.003588	-0.000255	-0.002899	-0.652100	-0.376465	-0.419189	6.941906	23.433382	-169.240982
64963		-3.910711	1.069848	8.968978	0.002711	0.001943	-0.004086	-0.647461	-0.374268	-0.412354	6.946757	23.431607	-169.240000
64964		-3.912461	1.110717	8.958089	0.000283	0.000316	-0.001527	-0.647705	-0.381104	-0.416992	6.950469	23.428976	-169.237234
64965		-3.919343	1.060474	8.989791	0.002644	0.000821	-0.006030	-0.650391	-0.376953	-0.416748	6.954769	23.426698	-169.237543
64966		-3.911196	1.069905	8.968759	0.003344	0.003698	-0.005195	-0.657227	-0.369141	-0.410889	6.959433	23.426252	-169.237807
64967		-3.930365	1.042525	8.977091	0.006149	0.003617	-0.001569	-0.658691	-0.377441	-0.402832	6.966924	23.425254	-169.235139
64968		-3.940552	1.074406	8.987053	0.005098	-0.000699	-0.002821	-0.657959	-0.381348	-0.415527	6.973059	23.422054	-169.232748
64969		-3.932065	1.084167	8.966128	0.004531	-0.001331	0.000233	-0.646973	-0.376709	-0.412354	6.979918	23.418117	-169.229339
64970		-3.938606	1.034419	8.997930	0.007419	-0.004463	-0.003499	-0.651855	-0.371338	-0.418213	6.987092	23.412887	-169.229142
64971		-3.958647	1.048314	8.995708	0.010223	-0.004544	0.000127	-0.640869	-0.376465	-0.411377	6.997087	23.407129	-169.226044
64972		-3.966324	1.089900	9.039094	0.015171	-0.003313	0.002722	-0.650635	-0.377686	-0.408936	7.010259	23.402142	-169.220869
64973		-3.908715	1.034286	8.979363	0.022129	-0.003016	0.000396	-0.652832	-0.373535	-0.411133	7.027187	23.397232	-169.217491
64974		-3.917096	1.027379	9.000011	0.029704	0.003211	0.006263	-0.644287	-0.381592	-0.414795	7.049760	23.395659	-169.210118
64975		-3.914131	0.998524	9.043551	0.032370	0.012475	0.005710	-0.648682	-0.379395	-0.414063	7.074333	23.399181	-169.202263
64976		-3.970343	1.041943	8.981377	0.038717	0.019464	0.009972	-0.655273	-0.378174	-0.417969	7.103464	23.406627	-169.192877
64977		-3.911833	1.097235	8.998691	0.044188	0.017061	0.013344	-0.647705	-0.378418	-0.411865	7.136832	23.412207	-169.179933
64978		-3.897986	1.161135	8.944756	0.044685	0.016567	0.008350	-0.653076	-0.384521	-0.407715	7.168898	23.418093	-169.170338
64979		-3.905987	1.115218	8.975575	0.041555	0.012066	0.010081	-0.651611	-0.384033	-0.405029	7.199804	23.421055	-169.159798
64980		-3.894914	1.146726	9.020102	0.043804	0.018766	0.007164	-0.646484	-0.376221	-0.415527	7.231164	23.428213	-169.153515
64981		-3.894043	1.069716	9.040490	0.051238	0.034340	0.008842	-0.645996	-0.372314	-0.412109	7.268016	23.443913	-169.141982
64982		-3.878555	1.215807	8.909451	0.050926	0.037165	0.004600	-0.659424	-0.381104	-0.411377	7.303396	23.461762	-169.131741
64983		-3.840631	1.193505	8.912438	0.037557	0.028755	0.000721	-0.656494	-0.385010	-0.419189	7.330243	23.474868	-169.125661
64984		-3.952097	1.212411	8.930856	0.032611	0.027520	-0.001876	-0.651123	-0.373047	-0.412598	7.353252	23.487666	-169.122184
64985		-3.916358	1.269966	8.912420	0.023076	0.014896	-0.006346	-0.649414	-0.378174	-0.417480	7.369621	23.493412	-169.121580
64986		-3.876665	1.245048	8.916569	0.019035	0.007264	-0.017046	-0.650635	-0.376221	-0.411621	7.380469	23.495835	-169.127010
64987		-3.913598	1.149830	8.944430	0.016172	0.006206	-0.022619	-0.654785	-0.385742	-0.411133	7.388586	23.497841	-169.137183
64988		-3.907164	1.250007	8.934231	0.009150	0.004787	-0.022246	-0.653564	-0.387695	-0.406494	7.392420	23.499208	-169.148059
64989		-3.941993	1.275412	8.875083	-0.011121	0.000334	-0.027655	-0.646973	-0.379395	-0.415039	7.383466	23.498248	-169.161824
64990		-3.957611	1.163648	8.906202	-0.021396	-0.007845	-0.029436	-0.650879	-0.383789	-0.416260	7.367633	23.492971	-169.179221
64991		-3.943116	1.097073	8.941457	-0.032154	-0.018652	-0.020446	-0.646484	-0.382324	-0.416016	7.347807	23.480688	-169.190037
64992		-3.950600	1.034527	8.941143	-0.025948	-0.013905	-0.020068	-0.651123	-0.379883	-0.416992	7.331483	23.471315	-169.201323
64993		-3.966260	1.013174	8.983883	-0.019033	-0.017869	-0.018548	-0.650879	-0.376221	-0.415039	7.319675	23.459333	-169.210892
64994		-3.898563	1.062702	8.948876	-0.010311	-0.013505	-0.013015	-0.650391	-0.383301	-0.415771	7.314057	23.449657	-169.215689
64995		-3.919913	1.065541	8.913800	-0.006878	-0.011822	-0.010497	-0.654541	-0.375977	-0.414795	7.311394	23.440522	-169.219785
64996		-3.925606	1.064560	8.968450	-0.001304	-0.008828	-0.009010	-0.645020	-0.383301	-0.412109	7.312070	23.433200	-169.222300
64997		-3.933502	1.055238	8.989627	0.005627	-0.004335	-0.002033	-0.655518	-0.383545	-0.408203	7.318893	23.427703	-169.220559
64998		-3.916367	1.074497	8.947786	0.011137	-0.002468	-0.002489	-0.655762	-0.381348	-0.413086	7.328506	23.423497	-169.220765
64999		-3.895537	1.112511	8.972317	0.017655	-0.000541	0.002132	-0.646973	-0.374756	-0.404785	7.343365	23.419850	-169.216144
65000		-3.895611	1.114387	8.972052	0.021719	0.002896	0.003537	-0.647949	-0.385498	-0.412598	7.360689	23.418232	-169.210022
65001		-3.918296	1.120350	8.936014	0.017253	0.005349	0.005236	-0.645996	-0.381592	-0.411621	7.376269	23.417701	-169.203010
65002		-3.867402	1.114130	8.952778	0.017124	0.003094	0.001355	-0.651367	-0.387451	-0.406494	7.390421	23.416400	-169.200394
65003		-3.915396	1.091996	8.979610	0.017253	0.005350	0.005237	-0.651855	-0.384277	-0.412842	7.406000	23.415866	-169.193382
65004		-3.919155	1.175418	8.957054	0.018826	0.006036	0.007260	-0.650879	-0.375977	-0.407471	7.422679	23.415759	-169.187651
65005		-3.901107	1.154849	8.925797	0.012439	0.006364	0.006521	-0.647705	-0.385742	-0.413818	7.435848	23.415703	-169.179762
65006		-3.872505	1.202150	8.929035	0.011213	0.007118	0.004913	-0.647949	-0.390137	-0.413330	7.447619	23.416395	-169.173178
65007		-3.915590	1.220030	8.890715	-0.000723	0.001321	0.008462	-0.655273	-0.385986	-0.408691	7.453563	23.413327	-169.164496
65008		-3.927388	1.242050	8.867482	-0.011084	-0.004861	-0.001031	-0.655273	-0.387695	-0.410645	7.450721	23.407652	-169.165600
65009		-3.936578	1.108805	8.976419	-0.021924	-0.013668	0.000246	-0.644531	-0.379150	-0.409668	7.442014	23.396679	-169.163218
65010		-3.937123	1.098077	8.943974	-0.016738	-0.016372	0.005153	-0.653320	-0.386475	-0.412354	7.437085	23.384005	-169.159449
65011		-3.926954	1.155958	8.946016	-0.016390	-0.014931	0.005567	-0.646973	-0.390137	-0.410645	7.432815	23.371921	-169.153874
65012		-3.869288	1.187475	8.898764	-0.022315	-0.019365	0.003669	-0.649902	-0.380127	-0.415039	7.424228	23.357675	-169.153501
65013		-3.851944	1.293929	8.869227	-0.042461	-0.021569	0.002159	-0.652100	-0.379639	-0.417480	7.403970	23.342073	-169.150565
65014		-3.942035	1.060624	8.902885	-0.059168	-0.033678	0.003486	-0.655029	-0.380859	-0.411865	7.373772	23.319736	-169.146969
65015		-3.979101	1.131675	8.922583	-0.061110	-0.043194	0.010662	-0.648926	-0.387207	-0.419922	7.344231	23.291224	-169.140485
65016		-3.969297	1.053946	8.980439	-0.062686	-0.055462	0.008958	-0.652588	-0.386963	-0.411133	7.312675	23.256113	-169.137590
65017		-3.844971	1.051722	8.975320	-0.057963	-0.053410	0.015030	-0.652344	-0.382568	-0.406006	7.285689	23.221484	-169.129185
65018		-3.710903	1.231465	8.884376	-0.063908	-0.046246	0.012840	-0.659180	-0.372559	-0.410156	7.254680	23.191277	-169.124374
65019		-3.812611	1.322785	8.831381	-0.087409	-0.044720	0.006973	-0.658203	-0.379395	-0.414795	7.209137	23.162178	-169.120228
65020		-3.633508	1.299851	8.755885	-0.124726	-0.049978	0.004199	-0.659668	-0.380127	-0.414795	7.141092	23.130471	-169.116825
65021		-3.682308	1.198884	8.983105	-0.150398	-0.038157	-0.000886	-0.658447	-0.377686	-0.408936	7.057774	23.105668	-169.116962
65022		-4.009974	0.951161	9.033289	-0.142873	-0.040361	-0.000479	-0.658203	-0.370605	-0.406006	6.978539	23.079744	-169.117609
65023		-3.913772	0.904418	9.057519	-0.130845	-0.048173	0.003961	-0.651611	-0.374512	-0.410889	6.907332	23.048909	-169.115429
65024		-3.854245	0.902948	9.143751	-0.112027	-0.039028	0.005434	-0.651123	-0.378174	-0.411377	6.847253	23.023332	-169.109888
65025		-3.975282	1.013662	9.122641	-0.097135	-0.031078	0.009387	-0.654541	-0.378662	-0.409912	6.797190	23.001857	-169.103021
65026		-3.908396	1.048919	9.055774	-0.084524	-0.026678	0.010476	-0.654297	-0.379150	-0.411133	6.754444	22.983006	-169.096757
65027		-3.902977	0.910729	9.055786	-0.075038	-0.026790	0.013282	-0.651855	-0.377686	-0.406738	6.718113	22.963719	-169.087137
65028		-3.916087	1.009385	9.013503	-0.069099	-0.022375	0.015186	-0.663330	-0.375488	-0.401611	6.685464	22.946999	-169.078150
65029		-3.880605	1.017404	9.063124	-0.067421	-0.027892	0.015597	-0.656982	-0.376709	-0.410645	6.654026	22.926941	-169.067157
65030		-3.821758	1.095283	9.039760	-0.062857	-0.024939	0.012007	-0.657471	-0.370117	-0.406982	6.624123	22.908926	-169.059824
65031		-3.842889	1.185141	9.018685	-0.064483	-0.029889	0.013801	-0.655518	-0.359619	-0.415771	6.593882	22.887861	-169.050064
65032		-3.866956	1.142848	9.049789	-0.055209	-0.033346	0.010745	-0.657959	-0.363525	-0.411133	6.567820	22.865209	-169.038113
65033		-3.836295	1.010484	9.118109	-0.057681	-0.031804	0.007561	-0.653564	-0.367920	-0.405518	6.539927	22.843470	-169.032324
65034		-3.774436	0.958042	9.092384	-0.045533	-0.026961	0.013632	-0.662354	-0.370117	-0.402832	6.520290	22.824252	-169.019701
65035		-3.772201	0.955024	9.093629	-0.029635	-0.019966	0.007554	-0.664551	-0.363281	-0.413086	6.508790	22.809255	-169.013067
65036		-3.719678	0.944757	9.110848	-0.018293	-0.004341	0.004846	-0.654541	-0.368164	-0.406982	6.503275	22.803442	-169.004745
65037		-3.793060	1.006163	9.082184	-0.009001	0.003785	0.001548	-0.656006	-0.366699	-0.411377	6.502808	22.802358	-169.000145
65038		-3.786962	1.056323	9.050890	-0.000771	0.007607	-0.003021	-0.649902	-0.373535	-0.420898	6.505762	22.803907	-168.997160
65039		-3.664798	1.026473	9.085549	0.004230	0.013105	-0.004246	-0.657227	-0.369629	-0.409668	6.511743	22.808504	-168.995481
65040		-3.743664	1.121715	9.012385	0.006967	0.019362	-0.012135	-0.658447	-0.370117	-0.409424	6.517259	22.817391	-168.998573
65041		-3.756717	1.054003	8.975900	0.001474	0.021797	-0.015457	-0.659912	-0.370850	-0.409424	6.519215	22.827665	-169.003204
65042		-3.772175	1.001864	9.060157	0.003703	0.035808	-0.014764	-0.656738	-0.370361	-0.407715	6.522709	22.845992	-169.006271
65043		-3.863350	1.078620	8.973598	0.005288	0.036473	-0.012744	-0.654541	-0.368896	-0.406738	6.527901	22.864444	-169.008189
65044		-3.794044	0.966777	8.977854	0.008418	0.040984	-0.014455	-0.666504	-0.368652	-0.404053	6.534318	22.885691	-169.011106
65045		-3.692371	1.082791	8.957585	0.005249	0.051244	-0.018711	-0.655518	-0.376221	-0.405273	6.538460	22.912941	-169.015662
65046		-3.699309	0.958437	9.040373	0.006900	0.072083	-0.024506	-0.655029	-0.370117	-0.408447	6.542460	22.952486	-169.023334
65047		-3.761573	0.784994	9.049334	0.019139	0.082333	-0.020263	-0.663086	-0.376709	-0.410889	6.555044	22.997535	-169.026639
65048		-3.752663	1.068850	8.954932	0.011491	0.095042	-0.022772	-0.655518	-0.366455	-0.407715	6.562700	23.050075	-169.031426
65049		-3.820813	1.117223	8.978253	0.017778	0.096776	-0.029749	-0.655762	-0.362793	-0.409180	6.572607	23.103967	-169.039558
65050		-3.813043	0.971924	9.028163	0.013847	0.103994	-0.021721	-0.654297	-0.374512	-0.403076	6.582124	23.161517	-169.039488
65051		-3.762687	1.072870	9.066168	0.017594	0.110277	-0.024507	-0.654297	-0.367432	-0.418945	6.593573	23.222751	-169.043394
65052		-3.858505	1.108867	8.986368	0.010542	0.108865	-0.024107	-0.653809	-0.370850	-0.406982	6.600753	23.283243	-169.047195
65053		-3.926604	1.016707	8.973199	0.004370	0.105246	-0.022540	-0.651611	-0.370117	-0.409668	6.604964	23.341485	-169.050229
65054		-3.879494	1.148508	8.967856	-0.008613	0.099417	-0.024079	-0.649658	-0.372070	-0.415283	6.600915	23.396565	-169.055077
65055		-3.878466	1.065479	8.930785	-0.017709	0.093675	-0.030049	-0.649414	-0.366943	-0.414063	6.590285	23.448715	-169.063610
65056		-3.805283	1.059072	8.959479	-0.028725	0.094240	-0.032943	-0.647217	-0.364258	-0.416504	6.572347	23.501487	-169.073301
65057		-3.793690	1.090908	8.981571	-0.042424	0.097128	-0.035565	-0.651123	-0.372559	-0.413330	6.546255	23.555959	-169.085055
65058		-3.893603	0.914275	9.062062	-0.037108	0.104086	-0.036299	-0.644775	-0.373047	-0.417969	6.522929	23.614520	-169.095793
65059		-4.004124	0.885135	9.033885	-0.027886	0.107953	-0.035701	-0.646484	-0.373291	-0.413086	6.505396	23.675154	-169.106920
65060		-4.041173	1.009104	8.963207	-0.020678	0.104310	-0.035722	-0.641113	-0.368896	-0.412109	6.491584	23.733806	-169.120158
65061		-4.047025	0.924176	8.979951	-0.013906	0.093822	-0.034339	-0.648682	-0.373291	-0.407715	6.481963	23.786303	-169.131478
65062		-4.030154	1.049696	8.960546	-0.011180	0.092616	-0.032644	-0.648682	-0.374512	-0.415527	6.474016	23.838030	-169.143552
65063		-4.033159	1.089524	8.892653	-0.012564	0.086874	-0.034354	-0.645996	-0.376465	-0.421387	6.464932	23.886569	-169.155398
65064		-4.075210	0.998615	8.948959	-0.012823	0.078142	-0.038370	-0.642822	-0.370361	-0.410645	6.454150	23.930481	-169.172051
65065		-4.063315	0.974061	8.915016	-0.019377	0.071957	-0.039238	-0.642334	-0.376709	-0.416992	6.439473	23.970838	-169.188020
65066		-4.081516	0.993622	8.889396	-0.018937	0.062906	-0.036662	-0.633789	-0.375488	-0.416504	6.425163	24.005934	-169.204925
65067		-4.074854	0.918018	8.887137	-0.021670	0.051410	-0.040112	-0.636230	-0.365723	-0.419922	6.408333	24.034639	-169.222911
65068		-4.098346	0.935851	8.916512	-0.025226	0.040034	-0.037051	-0.649414	-0.371826	-0.418701	6.389620	24.056812	-169.240038
65069		-4.083281	0.960100	8.907404	-0.023512	0.034513	-0.036659	-0.638428	-0.373779	-0.415283	6.372109	24.075666	-169.257075
65070		-4.020278	1.058097	8.895811	-0.030983	0.029419	-0.040669	-0.643311	-0.374268	-0.416748	6.348871	24.091945	-169.277457
65071		-3.988357	1.141155	8.836161	-0.052994	0.013480	-0.044594	-0.640137	-0.379639	-0.420898	6.311836	24.099309	-169.300922
65072		-3.965008	1.096427	8.915920	-0.070247	0.011352	-0.055691	-0.645508	-0.370117	-0.423340	6.261761	24.106246	-169.333746
65073		-4.023788	0.995196	8.906135	-0.077769	0.005154	-0.061650	-0.635498	-0.378174	-0.419922	6.205940	24.109893	-169.368437
65074		-4.123657	0.968634	8.914944	-0.081492	0.003165	-0.062669	-0.639893	-0.371826	-0.413574	6.147404	24.112565	-169.404321
65075		-4.063933	0.911235	8.889516	-0.087151	-0.005238	-0.062389	-0.652100	-0.370117	-0.416992	6.085731	24.110272	-169.440177
65076		-4.078784	0.791208	8.918299	-0.081636	-0.006548	-0.057058	-0.647217	-0.367432	-0.412842	6.028302	24.106910	-169.472105
65077		-4.153073	0.776906	9.030134	-0.068407	-0.003533	-0.051183	-0.645264	-0.369873	-0.411377	5.980276	24.104853	-169.500848
65078		-4.089853	0.854978	8.953890	-0.060184	-0.007161	-0.046138	-0.643799	-0.373291	-0.416504	5.937905	24.100422	-169.525500
65079		-4.089714	0.848415	8.954577	-0.046948	-0.004147	-0.040271	-0.648682	-0.369385	-0.424316	5.904945	24.097332	-169.547465
65080		-3.984045	0.910653	8.916578	-0.048943	-0.008447	-0.046648	-0.639893	-0.366943	-0.413574	5.868831	24.092254	-169.572820
65081		-3.957825	0.875669	9.029840	-0.037863	0.007038	-0.036004	-0.646240	-0.373291	-0.420410	5.842459	24.095266	-169.591400
65082		-3.874561	0.952801	8.988606	-0.021844	0.020702	-0.041695	-0.642334	-0.367432	-0.414551	5.823897	24.106478	-169.612213
65083		-3.852350	0.911891	9.066973	-0.013958	0.036981	-0.042787	-0.641846	-0.364990	-0.416260	5.810260	24.126940	-169.633129
65084		-3.904084	0.835453	9.067298	0.007391	0.058739	-0.047197	-0.646484	-0.364746	-0.420410	5.808014	24.160122	-169.653978
65085		-3.894057	0.961707	9.103987	0.026112	0.085014	-0.047404	-0.647461	-0.375977	-0.413574	5.817379	24.208230	-169.674736
65086		-3.882952	0.892612	9.045262	0.045792	0.103926	-0.057733	-0.644043	-0.372559	-0.417969	5.835582	24.267762	-169.700005
65087		-3.939396	0.829095	9.075974	0.065849	0.122165	-0.059937	-0.642090	-0.368408	-0.417969	5.865436	24.337789	-169.726205
65088		-3.903672	0.693803	9.138371	0.098411	0.151170	-0.047616	-0.643066	-0.366211	-0.425049	5.917610	24.423685	-169.742292
65089		-3.973368	0.742267	9.069501	0.123759	0.181855	-0.052241	-0.644531	-0.374756	-0.420654	5.984223	24.527312	-169.759678
65090		-3.893443	0.877471	9.133761	0.153211	0.200082	-0.051446	-0.632080	-0.365234	-0.415283	6.068143	24.641344	-169.773871
65091		-3.849054	0.819724	9.175335	0.182596	0.237578	-0.048640	-0.634033	-0.381592	-0.422607	6.171039	24.776542	-169.784949
65092		-3.783415	0.843878	9.177191	0.211696	0.284513	-0.049829	-0.628906	-0.366211	-0.422607	6.291429	24.938591	-169.794086
65093		-3.777684	0.853341	9.289990	0.252877	0.332351	-0.053963	-0.637695	-0.379883	-0.424072	6.436189	25.128136	-169.801260
65094		-3.859981	0.785027	9.209063	0.296646	0.400547	-0.050446	-0.628174	-0.381348	-0.425049	6.608954	25.356274	-169.800293
65095		-3.815005	0.902124	9.182741	0.334534	0.477430	-0.048569	-0.617676	-0.386963	-0.423340	6.807072	25.628048	-169.792075
65096		-3.771274	0.908923	9.218602	0.365631	0.566517	-0.036008	-0.619385	-0.387695	-0.427490	7.029617	25.949560	-169.769734
65097		-3.832532	1.015092	9.136315	0.392644	0.671715	-0.036020	-0.612793	-0.383789	-0.434326	7.272467	26.330825	-169.735747
65098		-3.749055	1.066493	9.297392	0.415389	0.783549	-0.031416	-0.612549	-0.385010	-0.430908	7.534526	26.775085	-169.688417
65099		-3.704206	1.218996	9.284158	0.431349	0.925817	-0.040918	-0.606934	-0.398682	-0.440430	7.810422	27.300717	-169.631568
65100		-3.635220	1.395925	9.295569	0.412809	1.086017	-0.046028	-0.595703	-0.398926	-0.445068	8.082401	27.917254	-169.561472
65101		-3.842584	1.404864	9.214812	0.421626	1.259540	-0.070759	-0.587402	-0.403564	-0.448242	8.362442	28.634064	-169.486414
65102		-3.952852	1.399314	9.115391	0.418898	1.408360	-0.088736	-0.579834	-0.399902	-0.445801	8.644976	29.436234	-169.405417
65103		-3.894136	1.208381	9.110295	0.434759	1.613015	-0.127572	-0.572510	-0.405029	-0.459473	8.938388	30.357475	-169.322358
65104		-4.058355	1.374032	9.032610	0.454898	1.827725	-0.173545	-0.554688	-0.410889	-0.459961	9.243586	31.403609	-169.241020
65105		-4.177494	1.411077	8.860043	0.457462	2.038256	-0.226351	-0.543701	-0.412354	-0.464355	9.549628	32.573654	-169.163592
65106		-4.373963	1.221471	8.629311	0.462472	2.257120	-0.288591	-0.533203	-0.415527	-0.473633	9.855060	33.872488	-169.094683
65107		-4.596559	1.179448	8.445605	0.468847	2.457811	-0.339309	-0.503418	-0.422607	-0.480957	10.165388	35.289740	-169.026366
65108		-4.887285	1.198898	8.271133	0.446756	2.635340	-0.376967	-0.484863	-0.429443	-0.489990	10.468123	36.810057	-168.951429
65109		-5.056975	1.229247	8.081467	0.434407	2.818286	-0.423288	-0.464844	-0.433838	-0.489746	10.767768	38.438500	-168.873100
65110		-5.354063	1.396350	7.859067	0.417837	3.003559	-0.465856	-0.447998	-0.442139	-0.496094	11.064199	40.174821	-168.787280
65111		-5.633352	1.474643	7.594722	0.380915	3.116104	-0.486683	-0.423096	-0.437256	-0.504639	11.351924	41.976981	-168.686007
65112		-5.872509	1.652235	7.365458	0.315068	3.238009	-0.488360	-0.395020	-0.440674	-0.504883	11.626110	43.846689	-168.552374
65113		-6.062398	1.927003	7.430961	0.228074	3.313135	-0.523819	-0.368164	-0.444824	-0.509766	11.854288	45.762922	-168.418177
65114		-6.596090	1.999064	7.078457	0.157659	3.389124	-0.556509	-0.345947	-0.447266	-0.516113	12.045792	47.724496	-168.282973
65115		-6.886217	2.022534	6.908677	0.103553	3.438807	-0.585445	-0.317139	-0.451660	-0.523438	12.209173	49.717858	-168.148415
65116		-7.271420	2.092035	7.002486	0.018460	3.495073	-0.617993	-0.293701	-0.450195	-0.529541	12.322742	51.745630	-168.018918
65117		-7.732550	1.976247	6.864080	-0.038408	3.561568	-0.638052	-0.264160	-0.443848	-0.524658	12.412597	53.813763	-167.882116
65118		-7.588563	1.989463	6.575070	-0.062207	3.698136	-0.703440	-0.228760	-0.447266	-0.524658	12.472900	55.965356	-167.768212
65119		-8.460485	2.267497	6.628017	-0.114748	3.812790	-0.808930	-0.209473	-0.448975	-0.519775	12.443216	58.195026	-167.728714
65120		-9.677402	1.833071	6.900771	-0.117288	3.866547	-0.872599	-0.173096	-0.448730	-0.520508	12.362135	60.461624	-167.748082
65121		-11.027427	1.587253	7.333289	0.006495	3.844119	-0.896116	-0.141602	-0.456299	-0.509277	12.316787	62.719544	-167.807166
65122		-10.933560	1.908526	7.123546	0.099384	3.748704	-0.930110	-0.119873	-0.454590	-0.511963	12.252207	64.927057	-167.945687
65123		-11.221986	1.747506	7.178389	0.167922	3.689947	-0.940746	-0.085449	-0.443604	-0.510498	12.178975	67.103990	-168.134307
65124		-11.683599	1.924098	7.313753	0.250377	3.616656	-0.980229	-0.055908	-0.448486	-0.489990	12.046448	69.243208	-168.434609
65125		-12.138038	2.342689	6.875852	0.318135	3.530160	-1.003571	-0.026367	-0.451904	-0.490234	11.837363	71.337639	-168.853367
65126		-12.385516	2.267353	6.973272	0.411243	3.399600	-1.065916	-0.005859	-0.452637	-0.487061	11.439399	73.363766	-169.521158
65127		-11.776031	2.730318	6.967090	0.487458	3.265072	-1.136625	0.019531	-0.448730	-0.479492	10.735096	75.321530	-170.545555
65128		-10.841784	2.613126	6.611336	0.548364	3.120314	-1.215797	0.043945	-0.444092	-0.462158	9.547163	77.199127	-172.094693
65129		-9.446645	2.573964	6.464965	0.627761	3.051536	-1.323721	0.065674	-0.457764	-0.461914	7.597806	79.038180	-174.456970
65130		-8.402280	2.620460	5.942151	0.653085	3.014229	-1.469050	0.092285	-0.454346	-0.443359	4.282868	80.838782	-178.206182
65131		-6.804388	2.350264	5.395017	0.693040	3.037215	-1.629209	0.114258	-0.454102	-0.430664	-1.410048	82.601500	175.637544
65132		-6.095273	2.447491	5.171305	0.750398	3.105284	-1.763310	0.143555	-0.452148	-0.413818	-11.390624	84.259231	165.156704
65133		-5.075671	2.915392	5.008593	0.703871	3.142607	-1.884548	0.156250	-0.459473	-0.409424	-29.482155	85.585402	146.588542
65134		-2.740119	4.091746	5.841793	0.466947	3.161001	-2.017722	0.184570	-0.443115	-0.387939	-58.179016	86.107130	117.548382
65135		-9.035512	7.332773	11.469045	0.069064	2.633127	-1.891783	0.195557	-0.440674	-0.375488	-82.822846	85.579046	92.799214
65136		-19.650823	6.770843	13.965326	-0.214215	0.445605	-1.107708	0.204834	-0.430420	-0.376221	-86.645222	84.974636	89.084037
65137		-11.004083	4.997055	13.634030	-0.211001	-1.508344	-0.316117	0.201904	-0.434082	-0.383301	-77.538467	84.678405	98.346319
65138		-8.119817	3.666490	12.106133	-0.025273	-2.842873	0.185736	0.188721	-0.439209	-0.399902	-61.349634	84.204068	114.621923
65139		-4.903374	2.647443	9.463332	0.166715	-3.652737	0.482001	0.168701	-0.443115	-0.415771	-44.569348	83.153695	131.403664
65140		-3.434416	2.273092	7.850696	0.302803	-4.097987	0.604197	0.145020	-0.436279	-0.423340	-31.523734	81.504724	144.386366
65141		-3.055641	2.046698	6.882594	0.384284	-4.413522	0.627377	0.116943	-0.453857	-0.446045	-22.525891	79.408254	153.282258
65142		-2.655630	1.792325	5.961751	0.405171	-4.670707	0.617575	0.089111	-0.449463	-0.453857	-16.381377	76.993322	159.317084
65143		-2.361699	1.566914	5.335242	0.393845	-4.854945	0.603432	0.057373	-0.459717	-0.477783	-12.136856	74.378996	163.460471
65144		-2.203749	1.306540	4.841093	0.372343	-4.953676	0.585376	0.030029	-0.450439	-0.488525	-9.102430	71.642567	166.405473
65145		-2.314051	0.801052	4.789303	0.396836	-4.963405	0.564501	-0.007813	-0.459473	-0.511230	-6.867961	68.868530	168.534150
65146		-2.573064	0.290401	5.083232	0.499738	-4.896274	0.586484	-0.046143	-0.463623	-0.522949	-5.050849	66.104350	170.186388
65147		-3.408042	-0.172882	5.686868	0.698071	-4.817409	0.646692	-0.073242	-0.473145	-0.535400	-3.424499	63.376425	171.538735
65148		-4.677531	-0.224024	6.433273	0.943581	-4.775541	0.741018	-0.110840	-0.478516	-0.545410	-1.832501	60.653217	172.724159
65149		-5.548008	0.236349	7.021085	1.180751	-4.790405	0.827839	-0.146240	-0.498291	-0.548096	-0.264148	57.914864	173.757682
65150		-6.141380	0.775154	7.511465	1.350778	-4.790765	0.909920	-0.180908	-0.502930	-0.568359	1.275812	55.155606	174.670307
65151		-6.680189	0.904685	7.899866	1.450885	-4.761897	1.012306	-0.217529	-0.514404	-0.567383	2.774660	52.405521	175.493704
65152		-7.544161	0.815961	8.272530	1.515817	-4.648819	1.140225	-0.260254	-0.524902	-0.571533	4.259591	49.696607	176.280161
65153		-8.315447	0.731570	8.330461	1.557181	-4.521613	1.228225	-0.300781	-0.539551	-0.571045	5.694544	47.051555	177.001949
65154		-9.119778	0.924350	8.432722	1.568178	-4.352405	1.294527	-0.352051	-0.555664	-0.573242	7.075541	44.480245	177.668618
65155		-9.669747	1.237683	8.353561	1.496918	-4.147908	1.401791	-0.391357	-0.573486	-0.567139	8.387066	42.014006	178.326434
65156		-9.629194	1.560020	8.354392	1.339897	-3.853140	1.581717	-0.438965	-0.575195	-0.564697	9.638657	39.680947	179.058909
65157		-9.891618	1.702614	8.548360	1.100724	-3.473777	1.819118	-0.472168	-0.585205	-0.547852	10.811620	37.533834	179.923046
65158		-10.764499	1.618840	8.999735	0.831888	-3.078355	2.087094	-0.514404	-0.590820	-0.537354	11.907773	35.558399	-179.044504
65159		-11.655469	1.994507	9.320856	0.487166	-2.741642	2.326996	-0.549072	-0.584229	-0.525879	12.858961	33.734662	-177.867708
65160		-12.148480	2.118080	9.191605	0.071831	-2.457122	2.486813	-0.575439	-0.576416	-0.504639	13.595686	32.027621	-176.594809
65161		-12.370773	1.877980	8.889999	-0.350846	-2.163995	2.530837	-0.602783	-0.556641	-0.493896	14.073750	30.473382	-175.291541
65162		-12.741636	1.603067	8.443498	-0.711444	-1.875348	2.500068	-0.621094	-0.550537	-0.481689	14.316198	29.070270	-173.990895
65163		-13.419307	1.414635	7.984397	-0.990718	-1.592389	2.446566	-0.647949	-0.527588	-0.478027	14.366389	27.835523	-172.700259
65164		-14.714466	1.517776	7.606351	-1.190124	-1.353278	2.392148	-0.654053	-0.513916	-0.475830	14.276373	26.735652	-171.417821
65165		-16.421513	2.275022	7.277373	-1.368321	-1.266361	2.354747	-0.659912	-0.485596	-0.467529	14.053328	25.698415	-170.154631
65166		-17.148482	2.894298	6.546153	-1.554454	-1.316610	2.298237	-0.677490	-0.468994	-0.466064	13.683847	24.641737	-168.938143
65167		-16.900357	2.603688	5.616174	-1.718741	-1.390960	2.233903	-0.689453	-0.444092	-0.452393	13.177334	23.565762	-167.774143
65168		-15.949391	1.133366	4.651585	-1.762841	-1.393291	2.191451	-0.696533	-0.424316	-0.450439	12.617054	22.499776	-166.634146
65169		-15.643946	-0.631232	4.252107	-1.636333	-1.341117	2.108513	-0.706055	-0.399902	-0.447754	12.093735	21.487203	-165.535768
65170		-16.182561	-2.462292	4.296693	-1.394276	-1.391327	1.927208	-0.710938	-0.390625	-0.444336	11.651206	20.473461	-164.550579
65171		-17.162510	-4.001865	4.269879	-1.121432	-1.632984	1.551218	-0.733398	-0.374268	-0.432861	11.260984	19.376534	-163.818708
65172		-17.796134	-4.950738	3.605996	-0.882974	-2.095740	0.935712	-0.742188	-0.370850	-0.422119	10.859705	18.090033	-163.503075
65173		-15.899418	-6.126519	2.281557	-0.594058	-2.470158	0.298598	-0.756836	-0.363281	-0.413330	10.493683	16.664182	-163.598642
65174		-12.832292	-7.385694	0.221754	-0.048214	-1.798985	-0.049890	-0.767578	-0.369629	-0.395508	10.407401	15.651874	-163.819566
65175		-7.247317	-4.200731	-8.242287	-0.090161	-0.797820	-0.401468	-0.770996	-0.362061	-0.399902	10.274253	15.240126	-164.136456
65176		-6.595280	-6.213873	-5.272723	-0.043025	0.360170	-0.733503	-0.770020	-0.365234	-0.398682	10.149090	15.514813	-164.524689
65177		-0.218211	-6.150982	6.848554	0.626825	0.982169	-0.919253	-0.769043	-0.367920	-0.404785	10.393422	16.159112	-164.956070
65178		-4.965988	-4.402261	18.642774	0.987884	0.809918	-0.844597	-0.761963	-0.385498	-0.406250	10.847074	16.701727	-165.360249
65179		-5.057703	-2.169893	16.964710	1.268245	0.154378	-0.624098	-0.765869	-0.395996	-0.408936	11.476887	16.854342	-165.705802
65180		-1.869809	5.302792	7.792627	1.092798	-0.210524	-0.602886	-0.759521	-0.401123	-0.405518	11.995381	16.803752	-166.082552
65181		1.402204	8.537159	4.248586	0.732647	0.189920	-0.958479	-0.760986	-0.409912	-0.405273	12.262612	17.022095	-166.616918
65182		-0.364325	9.012091	6.924563	0.511156	0.916197	-0.936720	-0.749756	-0.416504	-0.408203	12.429460	17.646690	-167.046178
65183		-4.099349	10.773644	9.036503	0.287701	1.117903	-0.483427	-0.751465	-0.418213	-0.416260	12.555292	18.328501	-167.181920
65184		-5.833659	10.184713	9.087991	-0.111786	1.063295	-0.244897	-0.739258	-0.423340	-0.426758	12.492957	18.950602	-167.184362
65185		-5.638691	5.720278	9.558173	-0.486281	0.942831	-0.209279	-0.733643	-0.418457	-0.424072	12.217677	19.500506	-167.183054
65186		-4.758723	1.279635	9.940331	-0.588591	0.867327	-0.207885	-0.721191	-0.417969	-0.434570	11.879800	20.008496	-167.193634
65187		-4.440072	-1.870601	10.332891	-0.472749	0.806369	-0.269712	-0.721436	-0.420654	-0.427734	11.591732	20.488872	-167.251740
65188		-4.616530	-2.184429	10.404326	-0.271854	0.751632	-0.337948	-0.716797	-0.416992	-0.436035	11.400458	20.946713	-167.359922
65189		-4.760271	0.388515	9.875757	-0.129295	0.666556	-0.346513	-0.704102	-0.416016	-0.444824	11.284129	21.356816	-167.485064
65190		-4.484311	3.360867	9.252021	-0.131808	0.597221	-0.296381	-0.706299	-0.420166	-0.453369	11.172741	21.722835	-167.589682
65191		-3.960674	4.692104	8.534239	-0.241252	0.580023	-0.240277	-0.704346	-0.417969	-0.438721	11.009964	22.072058	-167.663307
65192		-3.824287	3.602512	8.446282	-0.367085	0.603920	-0.208164	-0.701660	-0.417480	-0.440674	10.782311	22.431753	-167.716228
65193		-4.335316	1.474664	9.171038	-0.418286	0.602987	-0.224349	-0.694580	-0.414307	-0.458984	10.520739	22.791686	-167.780781
65194		-4.934277	0.347587	9.622873	-0.410812	0.527908	-0.246995	-0.693604	-0.413330	-0.458008	10.253465	23.112127	-167.869689
65195		-4.618982	0.755151	9.371523	-0.356132	0.441559	-0.216921	-0.687988	-0.400879	-0.463135	10.020147	23.379713	-167.951219
65196		-4.277548	1.872357	8.916946	-0.347614	0.424486	-0.209535	-0.678467	-0.407715	-0.460205	9.791630	23.637445	-168.031541
65197		-4.592163	1.943567	9.063645	-0.371920	0.395041	-0.214852	-0.680176	-0.398926	-0.456299	9.546054	23.877938	-168.119387
65198		-5.521368	0.613220	9.805925	-0.322477	0.266871	-0.157154	-0.684570	-0.403564	-0.464111	9.336928	24.041086	-168.186063
65199		-4.559740	0.284537	9.238051	-0.244925	0.124899	-0.102545	-0.683105	-0.395508	-0.464600	9.180058	24.117880	-168.233726
65200		-4.115577	1.787203	8.887829	-0.222484	0.136812	-0.076442	-0.685791	-0.392822	-0.456299	9.042636	24.199835	-168.264474
65201		-4.559215	1.441546	9.189092	-0.213344	0.103616	-0.078535	-0.675781	-0.396240	-0.466064	8.908811	24.262222	-168.299794
65202		-4.426443	0.865618	9.179385	-0.177448	0.053942	-0.057992	-0.677490	-0.396729	-0.469971	8.798389	24.295519	-168.327521
65203		-4.301779	0.761044	9.110161	-0.127141	0.036007	-0.042096	-0.684814	-0.396729	-0.465820	8.720454	24.316320	-168.346951
65204		-4.140108	1.151387	8.956464	-0.090813	0.043823	-0.028210	-0.674316	-0.402344	-0.471680	8.666778	24.341250	-168.357267
65205		-4.148690	1.499859	8.766536	-0.079529	0.045891	-0.022733	-0.670898	-0.402588	-0.458984	8.621436	24.365946	-168.363777
65206		-3.894654	1.240085	8.882451	-0.077431	0.057968	-0.014353	-0.679199	-0.392578	-0.465820	8.579506	24.397689	-168.364191
65207		-4.221293	1.145518	9.074895	-0.053264	0.066764	-0.016780	-0.682617	-0.393799	-0.469971	8.551529	24.433695	-168.365081
65208		-4.225529	1.628465	8.830434	-0.063424	0.046950	-0.018453	-0.679688	-0.393066	-0.464844	8.516112	24.459536	-168.369121
65209		-4.133904	1.700185	8.734384	-0.087642	0.022282	-0.011920	-0.677979	-0.397461	-0.463379	8.467957	24.469922	-168.371172
65210		-4.122753	1.342544	8.902188	-0.105631	0.020252	-0.016704	-0.684082	-0.399170	-0.480225	8.407801	24.480483	-168.376618
65211		-4.336761	1.110117	8.968928	-0.100584	0.015289	-0.015601	-0.680420	-0.393066	-0.472900	8.351003	24.487210	-168.381625
65212		-4.328969	1.169287	9.004114	-0.086867	0.017840	-0.014570	-0.676758	-0.392578	-0.464844	8.302041	24.496222	-168.385987
65213		-4.167548	1.301194	8.908591	-0.081621	0.021662	-0.009499	-0.682373	-0.393555	-0.471191	8.257918	24.506051	-168.386628
65214		-4.112995	1.367159	8.851759	-0.089656	0.015910	-0.010521	-0.684326	-0.390381	-0.470703	8.208320	24.513636	-168.388657
65215		-3.925679	1.321717	8.804066	-0.106703	0.015965	-0.017918	-0.676025	-0.386963	-0.456299	8.147428	24.520919	-168.395076
65216		-3.876487	1.360950	8.879613	-0.137134	0.016055	-0.023949	-0.680908	-0.389893	-0.464844	8.067158	24.529658	-168.405476
65217		-4.277632	1.305468	8.829848	-0.161869	0.012940	-0.029986	-0.674072	-0.375977	-0.464355	7.971413	24.536173	-168.419709
65218		-4.315192	1.420276	8.673458	-0.197733	-0.028869	-0.021515	-0.679932	-0.382324	-0.464355	7.855432	24.519190	-168.432510
65219		-4.196936	1.025310	8.845896	-0.233675	-0.071995	-0.026597	-0.674316	-0.388428	-0.468750	7.716415	24.477174	-168.451899
65220		-4.173071	0.933961	9.029801	-0.232737	-0.082416	-0.019270	-0.672852	-0.377197	-0.467041	7.579159	24.429571	-168.467684
65221		-4.264909	1.143361	8.924967	-0.217598	-0.083460	-0.012351	-0.671143	-0.379883	-0.475342	7.452759	24.379892	-168.478898
65222		-4.186173	1.103019	8.952453	-0.200451	-0.090840	-0.008523	-0.677490	-0.384766	-0.470947	7.336599	24.326652	-168.488420
65223		-4.213954	0.997673	9.017159	-0.176657	-0.086626	-0.005594	-0.684570	-0.383301	-0.462891	7.235400	24.274642	-168.495445
65224		-4.155911	0.916497	8.984238	-0.155366	-0.086295	-0.004097	-0.690186	-0.384766	-0.472412	7.146448	24.223643	-168.501634
65225		-4.122762	1.031172	8.973906	-0.138638	-0.071915	-0.001092	-0.674072	-0.375000	-0.465576	7.068737	24.179658	-168.504527
65226		-4.066880	1.051736	8.986515	-0.132643	-0.074785	-0.002653	-0.680908	-0.384277	-0.466553	6.993599	24.135089	-168.508773
65227		-4.030894	1.094642	9.029636	-0.117139	-0.060749	-0.003228	-0.684082	-0.379883	-0.466553	6.928065	24.097597	-168.512022
65228		-4.068967	1.143301	8.984402	-0.110354	-0.055329	-0.005731	-0.682861	-0.382080	-0.465576	6.865566	24.064292	-168.516600
65229		-4.072648	1.271959	8.847570	-0.125242	-0.064355	-0.011901	-0.689209	-0.379883	-0.461426	6.793121	24.025332	-168.525424
65230		-4.088701	1.106559	8.943529	-0.146414	-0.082433	-0.014811	-0.688477	-0.373535	-0.463623	6.706909	23.977206	-168.537548
65231		-4.095735	0.941851	8.985632	-0.142882	-0.086956	-0.013880	-0.686523	-0.377686	-0.471924	6.623254	23.925493	-168.549121
65232		-3.954998	0.777526	9.004052	-0.129906	-0.058725	-0.027399	-0.688477	-0.380127	-0.464355	6.544097	23.891657	-168.567214
65233		-4.103195	1.044815	9.105597	-0.103349	-0.060117	-0.019177	-0.680176	-0.371582	-0.451172	6.482608	23.855539	-168.580020
65234		-4.032567	0.974144	8.961541	-0.082786	-0.055407	-0.015056	-0.690430	-0.364258	-0.457520	6.433695	23.822757	-168.590108
65235		-3.957851	0.985951	8.975291	-0.078886	-0.058509	-0.013722	-0.688965	-0.368652	-0.468506	6.387683	23.787185	-168.599329
65236		-3.814974	1.009788	8.965836	-0.075285	-0.046010	-0.014706	-0.685791	-0.371338	-0.463623	6.343454	23.759712	-168.608482
65237		-3.963349	1.084688	8.971901	-0.070204	-0.035053	-0.017571	-0.691895	-0.376465	-0.462158	6.302138	23.737727	-168.618417
65238		-3.994645	0.939935	9.007898	-0.059046	-0.041819	-0.016294	-0.686768	-0.372803	-0.462158	6.266964	23.712718	-168.628219
65239		-3.966926	1.005668	8.938873	-0.048970	-0.025336	-0.020253	-0.703125	-0.372314	-0.462891	6.237429	23.696424	-168.639127
65240		-3.975368	1.031558	8.951168	-0.045965	-0.024075	-0.027758	-0.686523	-0.365234	-0.461426	6.207388	23.682220	-168.654822
65241		-3.942636	0.982482	8.944028	-0.039812	-0.023667	-0.023511	-0.680664	-0.359375	-0.466309	6.182345	23.667068	-168.667624
65242		-3.950965	1.008470	8.956378	-0.050370	-0.028915	-0.029690	-0.695557	-0.376953	-0.461914	6.149188	23.650208	-168.684822
65243		-3.979011	0.997828	8.942615	-0.052616	-0.032426	-0.032619	-0.684570	-0.368896	-0.455322	6.114319	23.630610	-168.703852
65244		-3.970086	0.876247	9.006582	-0.050222	-0.035088	-0.031386	-0.693115	-0.369385	-0.470947	6.080687	23.610315	-168.722484
65245		-4.009430	0.840114	8.945901	-0.047555	-0.024709	-0.029770	-0.685547	-0.365967	-0.465332	6.049654	23.594921	-168.739201
65246		-3.939686	0.895932	8.948218	-0.043375	-0.018025	-0.022377	-0.689209	-0.368164	-0.457764	6.022649	23.583786	-168.751084
65247		-3.893075	0.949512	8.881010	-0.047732	-0.021778	-0.022350	-0.694580	-0.364746	-0.472900	5.993452	23.569602	-168.762977
65248		-3.800492	1.007814	8.952820	-0.046719	-0.017477	-0.021003	-0.691895	-0.373047	-0.462646	5.964897	23.558682	-168.773953
65249		-3.889298	0.946774	8.916844	-0.055456	-0.009036	-0.024738	-0.698242	-0.365479	-0.461670	5.931022	23.551890	-168.786487
65250		-3.916528	0.902804	8.945103	-0.050134	-0.002068	-0.025376	-0.687744	-0.358643	-0.462402	5.899835	23.549988	-168.799170
65251		-3.940882	0.992986	8.924527	-0.048400	0.006186	-0.021164	-0.690186	-0.362305	-0.461914	5.871285	23.551649	-168.808498
65252		-3.926485	0.882351	8.965976	-0.042870	0.008068	-0.021555	-0.686523	-0.366455	-0.464355	5.845473	23.555286	-168.818153
65253		-3.888933	0.941946	8.985300	-0.036871	0.014643	-0.015599	-0.680176	-0.363525	-0.464111	5.825125	23.561435	-168.823486
65254		-3.783251	0.916771	8.932335	-0.026980	0.037324	-0.017806	-0.688477	-0.373535	-0.465820	5.810087	23.581518	-168.828959
65255		-3.955281	0.884838	8.961150	-0.020050	0.063066	-0.016223	-0.696289	-0.371826	-0.459229	5.800442	23.615303	-168.831622
65256		-3.924501	0.771975	9.035657	-0.002778	0.071582	-0.016487	-0.695313	-0.370117	-0.456787	5.800460	23.654826	-168.834117
65257		-3.958346	0.900110	8.968948	-0.004478	0.078203	-0.014829	-0.681641	-0.370850	-0.464844	5.800464	23.697159	-168.834960
65258		-3.956876	0.909436	8.945465	-0.001400	0.081671	-0.018390	-0.692383	-0.371338	-0.460205	5.801042	23.742537	-168.838006
65259		-3.971308	0.856985	8.971928	-0.003306	0.079600	-0.020875	-0.687988	-0.364746	-0.465088	5.800235	23.786016	-168.842527
65260		-3.969664	0.707201	9.073101	0.014284	0.086294	-0.014965	-0.688721	-0.369385	-0.463379	5.810775	23.833827	-168.843144
65261		-3.932791	0.824319	9.059162	0.035412	0.104412	-0.011944	-0.681885	-0.370361	-0.464355	5.835040	23.890931	-168.840507
65262		-3.939194	0.961118	9.006228	0.041943	0.113870	-0.016634	-0.684814	-0.366943	-0.469238	5.861721	23.954548	-168.840372
65263		-3.945485	0.889890	9.053490	0.050912	0.121753	-0.018126	-0.688965	-0.364990	-0.465820	5.893783	24.021897	-168.840415
65264		-3.961708	0.752907	9.062779	0.065104	0.131181	-0.018462	-0.678223	-0.375244	-0.467041	5.933760	24.095474	-168.840223
65265		-3.911411	0.735632	9.131200	0.089917	0.152401	-0.012335	-0.677490	-0.366943	-0.463135	5.990510	24.179943	-168.834542
65266		-3.984119	0.860423	9.010052	0.111623	0.175600	-0.015965	-0.679443	-0.367920	-0.466064	6.059030	24.278663	-168.829714
65267		-4.070336	1.114813	8.946783	0.115264	0.179783	-0.022485	-0.682861	-0.370850	-0.472412	6.128550	24.379338	-168.828330
65268		-4.086130	1.066856	8.880663	0.108027	0.172906	-0.031989	-0.676025	-0.371338	-0.472656	6.190918	24.477489	-168.833447
65269		-4.065435	0.964037	8.951070	0.095318	0.164155	-0.029573	-0.674805	-0.370117	-0.474121	6.246830	24.569699	-168.837323
65270		-4.152320	0.984349	8.888380	0.095302	0.167430	-0.035214	-0.676758	-0.378906	-0.471924	6.300985	24.664937	-168.844629
65271		-4.167354	0.991588	8.880536	0.098557	0.163673	-0.030798	-0.670166	-0.375488	-0.470703	6.358487	24.756956	-168.849116
65272		-4.109272	0.937011	8.904201	0.101801	0.159874	-0.037965	-0.671387	-0.369629	-0.477295	6.415482	24.848079	-168.858484
65273		-4.175994	1.001465	8.901353	0.100010	0.166531	-0.036299	-0.676025	-0.375732	-0.472900	6.472518	24.942088	-168.866025
65274		-4.294240	1.049278	8.778507	0.098281	0.154976	-0.046355	-0.671631	-0.379883	-0.471680	6.525170	25.030978	-168.880833
65275		-4.231417	0.911719	8.822873	0.093116	0.137475	-0.043709	-0.673584	-0.382568	-0.473389	6.575450	25.108944	-168.894945
65276		-4.206285	0.982301	8.835818	0.088848	0.141350	-0.041555	-0.672363	-0.382813	-0.475098	6.623585	25.189792	-168.907576
65277		-4.177216	1.177319	8.765253	0.079586	0.134161	-0.048198	-0.659912	-0.376953	-0.474609	6.664822	25.266190	-168.924633
65278		-4.099527	1.205195	8.841402	0.066778	0.132522	-0.065384	-0.666016	-0.380127	-0.473633	6.693644	25.343615	-168.952803
65279		-4.151484	1.176187	8.772018	0.055771	0.130852	-0.072407	-0.662842	-0.378906	-0.476807	6.714583	25.419765	-168.985286
65280		-4.068506	1.301404	8.841959	0.039705	0.137368	-0.086160	-0.666992	-0.381592	-0.469727	6.722376	25.501346	-169.026161
65281		-4.097304	1.207448	8.929729	0.037009	0.146240	-0.085696	-0.667480	-0.385254	-0.479980	6.729357	25.587156	-169.065892
65282		-4.043480	1.004645	8.972638	0.040825	0.164582	-0.089858	-0.664063	-0.379395	-0.480713	6.737552	25.684459	-169.107098
65283		-3.978282	0.739967	9.225660	0.076880	0.211952	-0.092567	-0.659668	-0.374756	-0.477539	6.767490	25.808137	-169.146277
65284		-3.955228	0.820239	9.214664	0.123692	0.284710	-0.089760	-0.651855	-0.385254	-0.481445	6.826975	25.973784	-169.178345
65285		-4.022498	0.773840	9.214528	0.169362	0.348891	-0.084452	-0.659912	-0.392090	-0.479248	6.916630	26.174876	-169.201757
65286		-4.025797	0.727822	9.124057	0.216710	0.422940	-0.074331	-0.657715	-0.389648	-0.486084	7.038477	26.418107	-169.212855
65287		-4.113651	0.871089	9.142855	0.258861	0.487199	-0.059331	-0.656006	-0.389893	-0.489502	7.191663	26.696137	-169.208469
65288		-3.935238	0.935926	9.130944	0.286343	0.575102	-0.049824	-0.649902	-0.390381	-0.488281	7.366550	27.024074	-169.190215
65289		-3.916327	1.010062	9.164412	0.321265	0.677342	-0.044835	-0.634521	-0.403564	-0.485596	7.567943	27.409016	-169.158700
65290		-3.927049	1.059367	9.200114	0.354336	0.796062	-0.055130	-0.629639	-0.401611	-0.486816	7.790527	27.862638	-169.122058
65291		-3.818595	1.276467	9.228445	0.378886	0.931744	-0.070118	-0.629639	-0.393066	-0.500488	8.030149	28.393719	-169.080428
65292		-3.958866	1.392950	9.230626	0.392924	1.091146	-0.088289	-0.624756	-0.410156	-0.496826	8.280514	29.017026	-169.033233
65293		-4.179965	1.392219	9.071991	0.404282	1.240841	-0.109197	-0.608154	-0.401123	-0.503418	8.540446	29.726237	-168.981480
65294		-4.091294	1.311775	8.951114	0.415168	1.404593	-0.130795	-0.604004	-0.404785	-0.510254	8.809951	30.530265	-168.923608
65295		-4.423610	1.149175	8.739272	0.429487	1.566894	-0.159798	-0.599854	-0.415527	-0.520996	9.090284	31.428070	-168.862720
65296		-4.610886	0.982524	8.694488	0.441113	1.715238	-0.180947	-0.581787	-0.417969	-0.518311	9.381806	32.411780	-168.794261
65297		-4.635060	0.906955	8.636618	0.453117	1.879975	-0.198455	-0.560303	-0.420898	-0.522217	9.689226	33.489578	-168.711741
65298		-4.646458	1.072012	8.487062	0.480932	2.069985	-0.214527	-0.546631	-0.428223	-0.534424	10.024565	34.676077	-168.609647
65299		-4.892557	1.214911	8.077062	0.508804	2.273069	-0.253995	-0.530518	-0.436035	-0.536377	10.383081	35.980295	-168.498853
65300		-5.188302	1.221476	8.031082	0.516942	2.424433	-0.288228	-0.511230	-0.437500	-0.553223	10.752572	37.372961	-168.380438
65301		-5.411524	1.100202	7.805456	0.521133	2.537225	-0.306863	-0.493164	-0.441406	-0.544678	11.137406	38.830249	-168.245418
65302		-5.648802	1.087575	7.547360	0.517632	2.654136	-0.310873	-0.478271	-0.448730	-0.557617	11.541462	40.353041	-168.080826
65303		-5.884061	1.241905	7.294299	0.513203	2.795454	-0.299378	-0.448242	-0.452637	-0.559326	11.979448	41.952645	-167.866562
65304		-6.207436	1.399328	7.263143	0.470968	2.834024	-0.277607	-0.425293	-0.463379	-0.565430	12.427735	43.570020	-167.607554
65305		-6.282367	1.513604	6.896677	0.418529	2.871005	-0.270235	-0.410400	-0.461182	-0.566406	12.877996	45.205498	-167.310897
65306		-6.742584	1.725248	6.962706	0.390099	2.909511	-0.234875	-0.386230	-0.462158	-0.571289	13.362924	46.856149	-166.951308
65307		-6.942177	1.993222	6.643442	0.325813	2.975143	-0.236734	-0.362061	-0.474121	-0.578613	13.851355	48.541350	-166.547317
65308		-7.136342	1.975173	6.498262	0.261457	2.974277	-0.241963	-0.343262	-0.463623	-0.579834	14.333466	50.224471	-166.113044
65309		-7.283927	1.898304	6.289342	0.198324	2.973740	-0.259928	-0.316895	-0.471924	-0.589111	14.805424	51.907437	-165.656193
65310		-7.423960	1.856353	6.104298	0.170719	3.044873	-0.276173	-0.286377	-0.479492	-0.590332	15.304054	53.629684	-165.156181
65311		-7.740198	1.763415	6.080682	0.164739	3.129687	-0.291638	-0.262207	-0.478760	-0.581787	15.854773	55.398282	-164.599405
65312		-7.910181	1.977135	6.054208	0.172629	3.244277	-0.323133	-0.237061	-0.480713	-0.586182	16.469092	57.231541	-163.983314
65313		-8.014259	2.380037	5.988669	0.131243	3.390362	-0.401768	-0.212646	-0.477295	-0.583496	17.100428	59.154173	-163.332424
65314		-8.665599	2.571315	6.059869	0.047375	3.503201	-0.509839	-0.177734	-0.473877	-0.582520	17.694084	61.153101	-162.682528
65315		-10.276839	2.490257	6.474991	0.022559	3.539062	-0.617382	-0.148682	-0.478760	-0.574463	18.262814	63.187339	-162.057421
65316		-11.476327	2.742206	6.704002	0.067993	3.468204	-0.698764	-0.119629	-0.479736	-0.577393	18.830892	65.194674	-161.472843
65317		-12.221021	2.799742	6.892666	0.165550	3.355812	-0.752871	-0.088379	-0.477539	-0.571777	19.438342	67.148854	-160.915752
65318		-11.932060	2.737824	6.636310	0.237329	3.236293	-0.864317	-0.062500	-0.478027	-0.565186	19.977917	69.057353	-160.483868
65319		-12.340029	2.194985	6.474074	0.372270	3.136067	-0.904295	-0.046143	-0.492188	-0.559570	20.575730	70.918613	-160.077810
65320		-12.117765	2.366170	6.315383	0.592464	3.031996	-0.935409	-0.025879	-0.488525	-0.552734	21.289525	72.728257	-159.686858
65321		-11.641105	2.850137	6.176600	0.734068	2.945658	-0.976383	0.004883	-0.486816	-0.542725	22.073081	74.499427	-159.311636
65322		-10.943659	2.662121	6.119049	0.834559	2.886967	-1.055119	0.037842	-0.494141	-0.526855	22.841431	76.254322	-159.014743
65323		-10.233049	2.710043	6.147181	0.914757	2.836285	-1.147857	0.044189	-0.502441	-0.512451	23.532043	78.003169	-158.847002
65324		-9.434934	2.509479	5.933210	1.007221	2.799230	-1.243147	0.066406	-0.507813	-0.517334	24.100445	79.752943	-158.858812
65325		-8.859843	2.321296	5.649038	1.113709	2.794421	-1.346226	0.094727	-0.507568	-0.500977	24.484580	81.525638	-159.119180
65326		-8.102975	2.186585	5.284799	1.199375	2.797899	-1.464971	0.112793	-0.506348	-0.486328	24.432704	83.326883	-159.867608
65327		-6.953365	1.982324	4.969217	1.266373	2.867206	-1.594884	0.133545	-0.520508	-0.478027	23.514771	85.195494	-161.522164
65328		-6.397085	2.112569	4.652618	1.327261	2.913390	-1.711765	0.155273	-0.520264	-0.466553	19.953093	87.104754	-165.856441
65329		-5.468313	2.996390	5.797552	1.311749	2.849257	-1.787780	0.177734	-0.526123	-0.447266	-0.401163	88.914794	173.024869
65330		-4.337086	6.201106	11.201089	0.938886	2.498501	-1.804513	0.197754	-0.524414	-0.443604	-108.020681	88.913010	64.854660
65331		-20.470591	7.427248	13.208149	0.421432	0.904630	-1.408022	0.200684	-0.512939	-0.429199	-114.689213	87.975436	57.939440
65332		-14.497411	5.599937	12.863111	0.072141	-1.315481	-0.663376	0.193848	-0.518799	-0.437988	-92.185465	87.783463	80.413842
65333		-9.165014	3.736349	11.871911	-0.001824	-2.773955	-0.131888	0.169678	-0.516113	-0.450195	-56.622900	87.260973	116.005377
65334		-5.819835	2.037535	9.745018	0.108212	-3.684314	0.221572	0.140625	-0.523926	-0.453369	-30.700930	85.782379	141.906245
65335		-3.767077	1.109729	7.726427	0.284769	-4.071971	0.361433	0.114014	-0.524414	-0.485107	-17.938320	83.728058	154.553279
65336		-3.346143	1.113286	6.165430	0.403447	-4.251179	0.345804	0.074219	-0.527832	-0.489502	-11.437515	81.412301	160.871251
65337		-3.111235	1.120323	5.136812	0.433133	-4.310442	0.256576	0.040771	-0.538086	-0.510498	-7.918471	78.999314	164.186753
65338		-2.776540	0.320005	4.692147	0.449209	-4.306883	0.162158	0.003906	-0.540039	-0.516357	-5.836933	76.552521	166.049187
65339		-2.670883	-0.277804	4.535137	0.538085	-4.264962	0.121235	-0.036377	-0.549561	-0.530273	-4.412737	74.122284	167.199330
65340		-3.048017	-0.337131	4.593957	0.666392	-4.215949	0.099063	-0.070801	-0.562744	-0.533691	-3.294387	71.707615	167.965787
65341		-3.541559	-0.165651	4.691677	0.799149	-4.204451	0.080892	-0.111572	-0.573730	-0.536377	-2.357140	69.301244	168.471042
65342		-4.203415	0.019083	4.885734	0.905327	-4.217500	0.079919	-0.151611	-0.577881	-0.541992	-1.503495	66.878917	168.827719
65343		-4.585171	0.339176	5.205706	0.988314	-4.222662	0.119754	-0.184326	-0.581543	-0.539795	-0.673116	64.458549	169.114233
65344		-4.699654	0.674732	5.562932	1.037713	-4.195913	0.168103	-0.230957	-0.599609	-0.542725	0.149875	62.045783	169.365339
65345		-4.927416	1.192685	5.871854	1.044949	-4.141108	0.217453	-0.270996	-0.612549	-0.547119	0.940695	59.669229	169.581815
65346		-5.353826	1.629377	6.381135	1.006377	-4.078785	0.271865	-0.310303	-0.622314	-0.526855	1.697056	57.319800	169.787520
65347		-5.863915	1.867127	6.964049	0.958080	-4.024015	0.354563	-0.357422	-0.638184	-0.522461	2.432910	55.005499	170.008913
65348		-6.518524	2.221794	7.457344	0.908381	-3.991554	0.449344	-0.394287	-0.646484	-0.517578	3.164541	52.698848	170.264752
65349		-7.146145	2.374221	7.896014	0.845153	-3.942708	0.589396	-0.451660	-0.664551	-0.506348	3.905080	50.420341	170.588118
65350		-7.880131	2.293440	8.272490	0.794349	-3.860145	0.764213	-0.497070	-0.675781	-0.486328	4.686134	48.171953	171.011719
65351		-8.444433	2.046390	8.315865	0.807867	-3.753639	0.952879	-0.545898	-0.687500	-0.472900	5.534163	45.978116	171.533560
65352		-8.956943	2.132612	8.199353	0.852911	-3.620988	1.161972	-0.594727	-0.696289	-0.449707	6.476433	43.834862	172.169054
65353		-9.277347	2.649303	7.983135	0.859498	-3.453354	1.409229	-0.647949	-0.707520	-0.415771	7.494127	41.769525	172.937570
65354		-9.474993	3.242945	7.669328	0.763636	-3.241789	1.678022	-0.691406	-0.709961	-0.391357	8.538513	39.785769	173.859008
65355		-9.588078	3.620065	7.662757	0.565063	-2.962972	1.953259	-0.742920	-0.715820	-0.354004	9.543220	37.930000	174.939524
65356		-10.085176	3.972992	8.088621	0.263462	-2.649799	2.168652	-0.796631	-0.701172	-0.323975	10.428191	36.208887	176.148861
65357		-10.582299	3.504956	8.529833	-0.101470	-2.360141	2.303463	-0.838135	-0.693604	-0.289307	11.117378	34.630326	177.433163
65358		-11.212181	2.635081	8.973598	-0.389026	-2.138407	2.373597	-0.883301	-0.674805	-0.247803	11.635553	33.150618	178.753251
65359		-11.698309	1.637527	9.430945	-0.536819	-1.997198	2.400339	-0.928223	-0.658203	-0.209473	12.039268	31.745033	-179.926546
65360		-12.296489	1.090342	9.828753	-0.574389	-1.917367	2.384993	-0.966553	-0.635498	-0.174072	12.381749	30.372287	-178.634072
65361		-13.012510	0.666006	9.926485	-0.535311	-1.886527	2.370517	-0.989014	-0.608643	-0.124512	12.701778	29.018729	-177.374880
65362		-13.287013	0.742374	9.740718	-0.493141	-1.883455	2.351061	-1.020264	-0.587646	-0.085938	13.004470	27.657425	-176.151377
65363		-13.282071	1.200791	9.150373	-0.492290	-1.870007	2.312810	-1.039551	-0.570068	-0.034180	13.259850	26.309406	-174.973367
65364		-13.307362	1.831655	8.754951	-0.547533	-1.824397	2.255107	-1.049072	-0.539551	0.015137	13.439681	24.985094	-173.842787
65365		-13.890397	2.025888	8.358869	-0.591966	-1.790216	2.219722	-1.057861	-0.514160	0.050049	13.555695	23.687318	-172.745311
65366		-14.274798	2.078533	7.678487	-0.611231	-1.799634	2.245774	-1.048828	-0.484131	0.099365	13.639506	22.374431	-171.646227
65367		-13.692509	1.573109	6.652661	-0.600120	-1.819839	2.313460	-1.048828	-0.462158	0.141602	13.714268	21.044340	-170.522457
65368		-12.577153	0.792941	5.635528	-0.545234	-1.788289	2.331678	-1.036377	-0.436768	0.168701	13.798582	19.724174	-169.394736
65369		-11.124595	-0.233026	4.742651	-0.472674	-1.676429	2.242990	-1.021729	-0.420166	0.200439	13.884177	18.480539	-168.314559
65370		-10.578510	-1.488400	4.319570	-0.349384	-1.485737	2.037287	-1.006104	-0.406494	0.231689	13.988815	17.366800	-167.336180
65371		-11.081594	-1.688110	4.225358	-0.211871	-1.346441	1.705299	-0.996094	-0.371582	0.250244	14.101842	16.377743	-166.538549
65372		-11.243224	-2.178518	4.020939	-0.097504	-1.257354	1.303329	-0.979736	-0.373291	0.261475	14.206668	15.491061	-165.965760
65373		-11.001254	-2.770573	3.570801	0.054334	-1.182217	0.908788	-0.971680	-0.363037	0.275391	14.332520	14.702716	-165.613264
65374		-10.477988	-3.126076	3.042882	0.239916	-1.068617	0.543405	-0.963623	-0.357910	0.280029	14.511978	14.027579	-165.456598
65375		-10.022642	-3.095842	2.636858	0.415625	-0.901637	0.221175	-0.950684	-0.358154	0.300781	14.751739	13.492168	-165.461998
65376		-9.889131	-2.680110	2.616104	0.549907	-0.681650	-0.050461	-0.943115	-0.361084	0.314209	15.039865	13.118425	-165.591220
65377		-8.912153	-0.437034	3.346880	0.436934	-0.260260	-0.275468	-0.942627	-0.362793	0.314697	15.249327	13.012143	-165.784936
65378		-9.242010	0.531492	1.400444	0.014882	0.339551	-0.550881	-0.936279	-0.363281	0.325439	15.201820	13.279802	-166.042654
65379		-7.308324	0.015244	2.938308	-0.425233	0.711420	-0.740987	-0.938965	-0.363281	0.319580	14.888517	13.780078	-166.352842
65380		-1.581937	-0.371128	8.812813	-0.372820	0.818675	-0.861372	-0.946533	-0.365479	0.325928	14.588369	14.357046	-166.719281
65381		-4.027947	0.445854	12.819501	-0.212411	0.648179	-0.685599	-0.946777	-0.375244	0.326172	14.395489	14.811364	-167.013499
65382		-2.106569	1.430068	11.716064	-0.050563	0.470328	-0.507206	-0.947998	-0.376221	0.329590	14.312018	15.142268	-167.233255
65383		-1.256691	2.829807	8.192613	0.018318	0.413199	-0.402354	-0.947266	-0.376465	0.332764	14.281080	15.425071	-167.401475
65384		0.013881	3.448778	6.372777	0.024381	0.603623	-0.377629	-0.953369	-0.372314	0.336182	14.263196	15.811279	-167.528155
65385		-0.887657	4.122048	7.402473	-0.002145	0.937568	-0.371475	-0.950684	-0.374268	0.338379	14.244284	16.380797	-167.602427
65386		-2.338323	5.083657	8.758296	-0.107569	1.130836	-0.298527	-0.948730	-0.370850	0.341064	14.183814	17.048412	-167.606844
65387		-2.859084	5.569642	8.537014	-0.290068	1.169480	-0.309184	-0.959961	-0.371826	0.341064	14.018679	17.737914	-167.613014
65388		-2.796563	4.441489	8.577913	-0.524009	1.300827	-0.456770	-0.963135	-0.371094	0.336914	13.697254	18.521733	-167.689797
65389		-4.577249	2.569812	9.934806	-0.639189	1.385112	-0.540257	-0.961914	-0.382324	0.333496	13.295121	19.362168	-167.809345
65390		-6.792872	1.671608	11.186873	-0.657203	1.279909	-0.512172	-0.969727	-0.370605	0.328125	12.879337	20.140479	-167.933749
65391		-7.126391	0.354919	11.349964	-0.611284	0.995891	-0.519475	-0.965332	-0.371582	0.335205	12.471438	20.759024	-168.107092
65392		-6.170175	0.264524	10.640166	-0.484219	0.776097	-0.434213	-0.970947	-0.380371	0.339355	12.140770	21.244370	-168.263073
65393		-5.366549	2.064815	9.896084	-0.403701	0.710157	-0.360598	-0.963379	-0.373535	0.337891	11.867292	21.681904	-168.386283
65394		-5.199262	2.896994	9.469232	-0.399159	0.694389	-0.323356	-0.967529	-0.374756	0.329590	11.601858	22.107172	-168.491709
65395		-5.654775	2.649173	9.636603	-0.428096	0.649725	-0.277857	-0.972900	-0.376709	0.321777	11.326995	22.500250	-168.577316
65396		-5.188010	1.691592	9.498433	-0.420417	0.491768	-0.280441	-0.975586	-0.386719	0.318604	11.046926	22.806026	-168.685936
65397		-4.837021	1.680617	9.184283	-0.441733	0.313939	-0.215650	-0.977051	-0.378906	0.324463	10.761065	23.002650	-168.777601
65398		-3.289279	2.118431	8.588768	-0.382965	0.408796	-0.211873	-0.977051	-0.387939	0.320068	10.512956	23.253563	-168.857339
65399		-4.020114	2.178831	8.733166	-0.396454	0.518688	-0.237178	-0.975586	-0.381836	0.320801	10.255286	23.567027	-168.941470
65400		-4.931492	1.040230	9.342286	-0.393588	0.448583	-0.253464	-0.973633	-0.389893	0.327637	9.990743	23.843880	-169.045218
65401		-5.028055	0.508315	9.435267	-0.348633	0.360872	-0.217566	-0.976074	-0.385498	0.318604	9.756388	24.065635	-169.137606
65402		-5.756477	0.454105	9.943345	-0.271761	0.156839	-0.124718	-0.976807	-0.372070	0.317383	9.579746	24.164621	-169.195205
65403		-4.308121	1.175598	8.980164	-0.238323	0.018626	-0.085916	-0.977051	-0.385986	0.316650	9.426427	24.179971	-169.243263
65404		-3.778287	1.599646	8.808666	-0.228934	0.054505	-0.075307	-0.971436	-0.383057	0.319092	9.282179	24.216277	-169.281345
65405		-4.232718	1.074692	9.138738	-0.216075	0.076769	-0.079120	-0.979980	-0.375244	0.315430	9.145643	24.263665	-169.319447
65406		-4.365312	1.099786	9.018187	-0.195588	0.069957	-0.086011	-0.979980	-0.383301	0.321045	9.018245	24.309503	-169.362854
65407		-4.276329	1.522316	8.856133	-0.195279	0.037375	-0.068086	-0.975830	-0.391113	0.322510	8.894703	24.333454	-169.398217
65408		-3.886529	1.508900	8.600964	-0.234166	0.002763	-0.066291	-0.981201	-0.385254	0.318359	8.747438	24.339351	-169.436091
65409		-3.897961	1.200023	8.844787	-0.242755	0.003719	-0.073780	-0.983398	-0.392334	0.327148	8.593852	24.344570	-169.478320
65410		-4.367175	1.065878	9.026311	-0.251554	-0.026615	-0.068163	-0.978516	-0.384521	0.324463	8.435005	24.333778	-169.520118
65411		-4.243967	1.209858	8.930491	-0.260516	-0.086015	-0.045633	-0.982422	-0.388184	0.325439	8.275089	24.285574	-169.553057
65412		-4.321353	1.276046	8.914020	-0.256432	-0.098370	-0.040008	-0.974121	-0.387207	0.324219	8.118076	24.231592	-169.583675
65413		-4.215789	1.311038	8.904926	-0.255768	-0.120106	-0.039031	-0.981689	-0.385742	0.325195	7.961527	24.163353	-169.615183
65414		-3.890160	1.322041	8.863591	-0.243593	-0.100666	-0.043497	-0.980225	-0.388916	0.333496	7.811111	24.108205	-169.647806
65415		-4.238095	1.296565	8.948159	-0.262382	-0.120869	-0.041624	-0.978760	-0.392090	0.315430	7.650327	24.039579	-169.680556
65416		-4.128889	1.248271	8.959848	-0.277205	-0.074020	-0.060532	-0.981689	-0.388184	0.326416	7.477462	24.000681	-169.721184
65417		-4.108875	0.966586	8.995014	-0.287281	-0.064776	-0.054382	-0.974365	-0.391602	0.335205	7.301264	23.964690	-169.756873
65418		-4.116570	1.011378	9.000650	-0.270698	-0.083424	-0.043896	-0.982910	-0.380127	0.332764	7.136187	23.919028	-169.787606
65419		-4.152323	0.777958	9.236385	-0.263666	-0.053616	-0.051098	-0.985596	-0.386719	0.332031	6.974842	23.888963	-169.820141
65420		-4.115402	0.768494	9.057797	-0.239742	-0.029396	-0.036105	-0.986084	-0.385742	0.336914	6.831236	23.873341	-169.841668
65421		-4.396834	0.946841	9.300989	-0.216798	-0.017156	-0.024561	-0.978027	-0.386719	0.331299	6.704604	23.862080	-169.854826
65422		-4.079276	0.691504	9.088483	-0.204848	-0.018603	-0.006805	-0.986572	-0.387451	0.328857	6.588701	23.850579	-169.857259
65423		-4.114021	1.058045	8.945753	-0.180424	-0.011208	-0.003007	-0.977783	-0.391113	0.333984	6.488530	23.841250	-169.856527
65424		-4.044242	1.047405	8.892748	-0.172789	-0.034769	-0.020058	-0.977539	-0.386719	0.333984	6.387210	23.821391	-169.868298
65425		-3.880454	0.887453	8.980284	-0.163766	-0.041662	-0.027322	-0.982178	-0.393555	0.334717	6.289638	23.796259	-169.884770
65426		-3.969891	0.830990	8.834705	-0.166510	-0.028482	-0.030532	-0.990234	-0.385498	0.338867	6.189499	23.780588	-169.902547
65427		-4.207708	1.192568	8.895675	-0.114791	-0.010609	-0.025067	-0.983643	-0.390137	0.335205	6.121440	23.772960	-169.915439
65428		-3.694756	1.249769	8.801044	-0.123736	-0.010966	-0.032947	-0.982910	-0.388184	0.338623	6.045705	23.767379	-169.933498
65429		-3.766241	1.446157	8.791895	-0.149337	-0.023696	-0.051517	-0.981445	-0.392334	0.337158	5.950885	23.753844	-169.963690
65430		-3.878307	1.151439	8.807680	-0.147203	-0.015787	-0.052243	-0.980225	-0.390625	0.336426	5.856803	23.746577	-169.994025
65431		-3.799119	1.247895	8.960338	-0.150575	-0.019636	-0.047164	-0.979980	-0.402344	0.339111	5.762499	23.735014	-170.021195
65432		-4.080950	0.826796	9.042111	-0.134716	-0.016622	-0.049104	-0.980713	-0.389404	0.334229	5.676393	23.726986	-170.049576
65433		-4.186979	0.592866	9.059411	-0.113569	0.006492	-0.051177	-0.984863	-0.393799	0.336426	5.602955	23.730473	-170.077599
65434		-4.039577	0.910989	9.001286	-0.099819	-0.001675	-0.046733	-0.980469	-0.395264	0.344482	5.537795	23.730775	-170.103575
65435		-3.969251	0.739604	9.036497	-0.086636	0.005781	-0.044470	-0.972412	-0.388916	0.342529	5.481447	23.733429	-170.127471
65436		-4.024441	0.644541	9.056743	-0.073156	0.013596	-0.043715	-0.977539	-0.396973	0.331055	5.432679	23.742224	-170.150658
65437		-3.930415	0.698610	9.041298	-0.047085	0.016170	-0.036210	-0.982666	-0.394287	0.333984	5.401304	23.750322	-170.168801
65438		-3.976178	0.767017	9.060848	-0.036385	0.018665	-0.037366	-0.986572	-0.391357	0.335938	5.375287	23.761633	-170.187754
65439		-4.111095	0.629042	9.021245	-0.030252	0.023503	-0.036799	-0.986572	-0.387207	0.331299	5.353571	23.773930	-170.205846
65440		-3.872423	0.867303	8.927454	-0.030534	0.035120	-0.036764	-0.977783	-0.397217	0.338135	5.331415	23.794580	-170.223484
65441		-3.938512	0.765711	8.966336	-0.041267	0.036999	-0.039286	-0.980957	-0.394043	0.335938	5.303060	23.814695	-170.242359
65442		-4.156634	0.691521	8.983967	-0.041876	0.029755	-0.036515	-0.978027	-0.398193	0.339844	5.274322	23.832243	-170.260177
65443		-4.040270	0.828173	8.932463	-0.045842	0.028441	-0.034117	-0.978271	-0.393799	0.339844	5.244429	23.847186	-170.276346
65444		-3.990796	0.752533	8.857789	-0.047672	0.028503	-0.032686	-0.983398	-0.401855	0.337891	5.213282	23.863807	-170.291872
65445		-4.005077	0.784802	8.901795	-0.050987	0.037657	-0.027153	-0.980225	-0.392090	0.340820	5.182395	23.883632	-170.303194
65446		-4.047608	0.763157	8.904694	-0.047552	0.042545	-0.018663	-0.989502	-0.391602	0.337158	5.155161	23.907525	-170.309197
65447		-3.944213	0.796659	8.911006	-0.046575	0.050071	-0.011377	-0.982666	-0.397705	0.343262	5.131059	23.933613	-170.309999
65448		-4.025685	0.774530	8.984844	-0.037914	0.057636	0.000248	-0.983643	-0.394775	0.344727	5.114471	23.965142	-170.303371
65449		-4.069750	0.755542	8.986743	-0.020777	0.059901	-0.000099	-0.974854	-0.390381	0.344727	5.108229	23.996264	-170.296596
65450		-4.023753	0.754633	9.036676	-0.007632	0.058700	-0.001991	-0.985107	-0.395264	0.340088	5.108448	24.028511	-170.291313
65451		-4.079535	0.761156	9.016009	0.001249	0.049286	-0.000253	-0.976563	-0.388184	0.334229	5.114553	24.053584	-170.285224
65452		-4.083621	0.761878	9.014098	0.015924	0.041137	-0.002319	-0.978271	-0.390625	0.337646	5.127789	24.075818	-170.281122
65453		-4.069510	0.784845	8.972258	0.019572	0.034497	-0.005423	-0.984619	-0.389893	0.328613	5.142744	24.092714	-170.279082
65454		-4.057502	0.849027	8.921920	0.018625	0.022592	-0.009037	-0.978027	-0.392822	0.343506	5.155394	24.104706	-170.280212
65455		-4.041027	0.885612	8.948383	0.004791	0.015564	-0.017912	-0.975830	-0.393555	0.334473	5.158258	24.111440	-170.287040
65456		-4.080931	0.868783	8.951872	0.002626	0.005514	-0.021146	-0.989502	-0.395020	0.338623	5.158264	24.114306	-170.296699
65457		-4.018640	0.830370	8.959225	-0.007490	-0.002798	-0.023293	-0.978516	-0.398682	0.332031	5.152293	24.110839	-170.307927
65458		-4.069876	0.835178	8.940653	-0.012440	0.005795	-0.031348	-0.984375	-0.393799	0.335449	5.141073	24.114382	-170.323945
65459		-4.082628	0.855700	8.918070	-0.017962	0.002748	-0.032983	-0.980225	-0.389404	0.334473	5.126755	24.114573	-170.340919
65460		-4.082973	0.844976	8.884652	-0.029287	-0.009167	-0.033045	-0.984375	-0.397705	0.331787	5.105113	24.109654	-170.358834
65461		-4.052273	0.712029	8.947969	-0.029933	-0.007652	-0.037638	-0.975342	-0.392822	0.333984	5.082513	24.104136	-170.379297
65462		-4.081868	0.702255	8.932345	-0.032629	-0.006550	-0.027768	-0.981689	-0.394287	0.336426	5.060368	24.100428	-170.393760
65463		-4.072543	0.716189	8.946460	-0.030844	-0.003286	-0.034823	-0.989258	-0.395996	0.331787	5.038068	24.097245	-170.412216
65464		-4.099101	0.672386	8.973235	-0.029019	-0.003338	-0.036241	-0.980957	-0.392334	0.332275	5.015896	24.095785	-170.431797
65465		-4.069074	0.674330	8.989663	-0.024981	-0.002116	-0.027084	-0.977539	-0.401611	0.342285	4.998960	24.092870	-170.445347
65466		-4.055271	0.726813	8.907126	-0.021630	0.003941	-0.028153	-0.982422	-0.390137	0.338135	4.983238	24.095148	-170.459476
65467		-3.960460	0.792644	8.926619	-0.026840	0.009922	-0.027090	-0.979980	-0.394775	0.339600	4.965503	24.099098	-170.472373
65468		-3.943948	0.817757	8.920043	-0.031779	0.014132	-0.031462	-0.989014	-0.397217	0.337891	4.943344	24.107340	-170.488020
65469		-3.877256	0.984541	8.953052	-0.035844	0.025969	-0.040072	-0.982910	-0.393311	0.339844	4.917481	24.121081	-170.508176
65470		-3.951603	0.864164	8.977413	-0.030431	0.034602	-0.051656	-0.980469	-0.393066	0.338623	4.891384	24.141967	-170.535359
65471		-3.957784	0.765701	9.013731	-0.033560	0.037696	-0.059411	-0.979492	-0.395752	0.341797	4.862114	24.163328	-170.567008
65472		-3.950265	0.737622	9.034556	-0.020170	0.055419	-0.063931	-0.984619	-0.399658	0.333740	4.839176	24.196653	-170.600794
65473		-3.887414	0.622214	9.090486	0.007611	0.079865	-0.064523	-0.980469	-0.395264	0.334473	4.833051	24.242315	-170.633444
65474		-3.893699	0.721852	9.083083	0.029824	0.105659	-0.070402	-0.984619	-0.396484	0.335693	4.838112	24.304604	-170.668660
65475		-3.904417	0.737379	9.145790	0.058781	0.126149	-0.075267	-0.970215	-0.398438	0.327637	4.859473	24.377216	-170.705602
65476		-3.886919	0.619892	9.236137	0.098377	0.154677	-0.082887	-0.980713	-0.401611	0.334717	4.901576	24.468092	-170.746014
65477		-3.871324	0.727116	9.207300	0.145869	0.192341	-0.083382	-0.979492	-0.397705	0.336914	4.972132	24.578941	-170.784390
65478		-3.820501	0.861588	9.206765	0.171855	0.226095	-0.091219	-0.985352	-0.396973	0.334961	5.055705	24.711042	-170.825951
65479		-3.737929	0.937131	9.306032	0.207132	0.280590	-0.093262	-0.976807	-0.409912	0.330078	5.160793	24.872861	-170.865296
65480		-3.627254	0.839600	9.442273	0.237958	0.342120	-0.087186	-0.980225	-0.405762	0.322510	5.286101	25.071034	-170.897223
65481		-3.517129	0.396688	9.690127	0.297528	0.453052	-0.093785	-0.973877	-0.399414	0.329346	5.447223	25.331421	-170.926008
65482		-3.414468	0.750188	9.705216	0.359077	0.602156	-0.085411	-0.968262	-0.398682	0.321045	5.649458	25.677853	-170.939775
65483		-3.360504	0.893512	9.673890	0.380978	0.771923	-0.068312	-0.978760	-0.398193	0.313477	5.874835	26.118725	-170.930197
65484		-3.353518	1.148483	9.680841	0.394156	0.965613	-0.079921	-0.976318	-0.403076	0.311035	6.110589	26.671892	-170.913333
65485		-3.340401	1.307415	9.703723	0.342605	1.187381	-0.093179	-0.972412	-0.400391	0.309082	6.321890	27.350865	-170.886707
65486		-3.673321	0.905393	9.445646	0.329169	1.394819	-0.115703	-0.969482	-0.396729	0.295166	6.526835	28.150416	-170.856869
65487		-3.950805	0.935597	9.500929	0.322954	1.577245	-0.135456	-0.973145	-0.408447	0.291748	6.731329	29.053878	-170.822313
65488		-3.915154	1.033459	9.268888	0.304021	1.759649	-0.165108	-0.962891	-0.402344	0.274170	6.924276	30.064014	-170.789262
65489		-4.248180	0.896091	9.017889	0.308826	1.909419	-0.200898	-0.970215	-0.398438	0.262939	7.117485	31.160725	-170.763044
65490		-4.436575	0.868391	8.868316	0.314690	2.033663	-0.243263	-0.963623	-0.407471	0.249023	7.306913	32.331905	-170.750368
65491		-4.722695	0.739614	8.631606	0.339189	2.141654	-0.269365	-0.961426	-0.407471	0.231934	7.509507	33.565447	-170.740555
65492		-4.894022	0.634266	8.341680	0.369524	2.240200	-0.297897	-0.955811	-0.415771	0.225586	7.726183	34.857870	-170.736096
65493		-4.975433	0.740867	8.058394	0.379091	2.347902	-0.332715	-0.949463	-0.419189	0.202637	7.944577	36.213332	-170.739067
65494		-5.228751	0.872542	7.795697	0.376485	2.487017	-0.370497	-0.950195	-0.421143	0.195557	8.156719	37.651463	-170.749057
65495		-5.375713	1.086102	7.446338	0.354007	2.633634	-0.408842	-0.944824	-0.425293	0.179932	8.352830	39.175186	-170.764572
65496		-5.794050	1.271923	7.404826	0.315676	2.757225	-0.454747	-0.938721	-0.433838	0.153809	8.516511	40.773503	-170.795136
65497		-5.986021	1.262589	7.317962	0.295471	2.845946	-0.486116	-0.925781	-0.440918	0.143311	8.663104	42.424165	-170.833722
65498		-6.003428	1.446850	6.789942	0.244442	2.945883	-0.546783	-0.935791	-0.433838	0.125977	8.757134	44.137359	-170.904476
65499		-6.560233	1.453582	6.921946	0.185461	3.052820	-0.598112	-0.922852	-0.443115	0.105225	8.797459	45.915042	-171.001793
65500		-6.693682	1.542733	6.947497	0.131574	3.144507	-0.646389	-0.922607	-0.448730	0.087646	8.781407	47.749449	-171.130627
65501		-6.930286	1.630938	6.805269	0.070336	3.232205	-0.699145	-0.907715	-0.454834	0.069824	8.697655	49.637469	-171.299620
65502		-7.265815	2.003397	6.794722	0.019284	3.304283	-0.776439	-0.905273	-0.456787	0.057617	8.523998	51.573194	-171.541956
65503		-7.547046	1.944470	6.789362	-0.027586	3.390128	-0.848605	-0.885742	-0.465820	0.036621	8.256880	53.562515	-171.862052
65504		-7.984497	2.027999	6.801122	-0.074457	3.494016	-0.970996	-0.881104	-0.471680	0.020508	7.840017	55.619797	-172.324379
65505		-8.650701	2.280851	7.207749	-0.133050	3.598609	-1.085205	-0.875000	-0.478027	0.000732	7.245298	57.742254	-172.948218
65506		-9.893026	1.505674	7.456815	-0.115601	3.633410	-1.141444	-0.862793	-0.485352	-0.032715	6.526090	59.884568	-173.714580
65507		-10.578883	1.318380	7.517985	-0.022201	3.636762	-1.169821	-0.835693	-0.489502	-0.046143	5.722062	62.024832	-174.622883
65508		-11.817099	1.262982	7.857635	0.123185	3.568596	-1.108420	-0.823486	-0.507568	-0.062744	4.929972	64.116692	-175.593464
65509		-11.873828	1.073686	7.184109	0.301934	3.458976	-1.062577	-0.802979	-0.506836	-0.082275	4.141702	66.137526	-176.656065
65510		-12.089379	1.451478	7.517037	0.458743	3.347219	-1.063306	-0.787354	-0.520752	-0.093506	3.268033	68.087727	-177.892630
65511		-11.952833	2.033979	7.432290	0.562082	3.175477	-1.099679	-0.754639	-0.525879	-0.107178	2.186762	69.932281	-179.398629
65512		-11.931849	1.848363	6.897848	0.600698	3.009739	-1.185855	-0.738281	-0.545166	-0.125977	0.718174	71.670419	178.678983
65513		-11.356322	1.744050	6.789410	0.646072	2.857020	-1.267960	-0.712402	-0.543945	-0.137451	-1.223095	73.301751	176.252381
65514		-10.299664	1.814291	6.944338	0.729890	2.722293	-1.343900	-0.696045	-0.564941	-0.129150	-3.718710	74.824115	173.219295
65515		-9.269256	1.777456	6.908328	0.826632	2.624208	-1.441150	-0.663086	-0.566895	-0.143311	-6.957558	76.242673	169.382601
65516		-8.334619	1.792840	6.402912	0.870746	2.541071	-1.555533	-0.643311	-0.588867	-0.145508	-11.204050	77.537641	164.507515
65517		-6.924678	1.782042	5.673190	0.869895	2.427191	-1.661963	-0.615234	-0.598877	-0.151855	-16.660226	78.657832	158.419621
65518		-3.553896	2.596040	6.865012	0.748047	2.281244	-1.729772	-0.593750	-0.602051	-0.144043	-23.366004	79.545919	151.151556
65519		-2.735022	4.820341	11.666469	0.426831	1.703993	-1.727377	-0.577148	-0.616943	-0.136719	-30.428880	79.968843	143.723195
65520		-17.694291	5.572111	13.085487	0.105903	0.171489	-1.233614	-0.571777	-0.620850	-0.132080	-33.951879	79.673348	140.078891
65521		-9.439857	4.101152	12.834191	-0.037700	-1.652650	-0.495283	-0.553223	-0.621826	-0.116699	-32.473199	78.725182	141.603214
65522		-4.599585	2.547390	10.985433	0.050282	-2.593590	-0.023845	-0.547363	-0.612305	-0.093262	-28.868362	77.436654	145.254060
65523		-2.236046	1.711805	8.695767	0.174362	-3.042632	0.298428	-0.549561	-0.624512	-0.066650	-24.774196	75.956206	149.355036
65524		-1.017996	1.518853	6.967014	0.225680	-3.156215	0.499212	-0.549316	-0.613770	-0.027588	-20.959826	74.395694	153.162525
65525		-0.876557	1.653952	5.861809	0.177495	-3.156831	0.610314	-0.535400	-0.616455	-0.011963	-17.685850	72.802441	156.465927
65526		-1.213235	1.595224	5.379729	0.029730	-3.109878	0.654666	-0.521973	-0.604736	0.020996	-14.991329	71.191645	159.276664
65527		-1.798550	1.111713	5.474592	-0.101041	-3.088422	0.694878	-0.519775	-0.602051	0.047852	-12.760094	69.567014	161.703533
65528		-2.250780	0.604558	5.687050	-0.159694	-3.110849	0.756079	-0.505859	-0.600342	0.066406	-10.804019	67.903324	163.895945
65529		-2.924299	0.143349	6.115903	-0.139672	-3.159193	0.824573	-0.488281	-0.584717	0.093750	-9.036177	66.199311	165.899231
65530		-3.954160	-0.227820	6.528325	-0.036680	-3.275069	0.895165	-0.464355	-0.586182	0.108643	-7.352711	64.406933	167.770340
65531		-4.641846	-0.497931	6.837810	0.121087	-3.431117	0.971684	-0.452393	-0.577637	0.121338	-5.717250	62.514617	169.517356
65532		-4.848555	-0.481550	6.935378	0.308159	-3.577827	1.025998	-0.423584	-0.573730	0.135254	-4.121524	60.513697	171.126779
65533		-4.795257	-0.310279	6.911086	0.465876	-3.663380	1.045792	-0.400635	-0.569824	0.136475	-2.621209	58.450896	172.554836
65534		-4.950684	-0.092060	7.126160	0.562172	-3.668102	1.022285	-0.375000	-0.571045	0.133545	-1.258978	56.360714	173.783995
65535		-5.397101	0.071090	7.642116	0.624405	-3.624798	0.966919	-0.357666	-0.568604	0.128418	-0.057883	54.287560	174.805710
00000		-6.420022	0.251924	8.262899	0.660761	-3.619232	0.892362	-0.340088	-0.565430	0.114990	0.993952	52.199742	175.640409
00001		-7.149171	0.312034	8.780523	0.695866	-3.651495	0.849659	-0.330566	-0.575439	0.096436	1.937557	50.092933	176.336207
00002		-7.564832	0.297862	9.094393	0.747210	-3.700429	0.841464	-0.322510	-0.582520	0.083008	2.828734	47.944098	176.943649
00003		-7.700809	0.555158	9.305989	0.826470	-3.712946	0.888951	-0.316406	-0.587158	0.059326	3.721811	45.788132	177.514390
00004		-7.901571	1.009759	9.354726	0.864941	-3.651840	0.997326	-0.324219	-0.595703	0.050049	4.639604	43.648966	178.108085
00005		-8.072103	1.894191	9.361503	0.837707	-3.545558	1.137423	-0.330322	-0.593506	0.036865	5.556526	41.564549	178.749055
00006		-8.386522	2.658729	9.459716	0.703367	-3.392301	1.316279	-0.337646	-0.604980	0.018555	6.435677	39.541827	179.474543
00007		-8.826923	3.116976	9.600274	0.508931	-3.219931	1.528504	-0.345215	-0.601563	-0.003418	7.250873	37.602533	-179.690525
00008		-9.228035	3.141737	9.645409	0.287144	-3.036142	1.740197	-0.368164	-0.607666	-0.017822	7.986934	35.735101	-178.740988
00009		-9.347104	2.689299	9.388134	0.094940	-2.849243	1.938053	-0.378174	-0.607422	-0.024902	8.646948	33.955852	-177.686288
00010		-9.204519	2.311448	9.004355	-0.054887	-2.644572	2.067836	-0.405029	-0.605957	-0.036621	9.232097	32.263991	-176.565592
00011		-8.906042	2.096723	8.763668	-0.171244	-2.391529	2.097084	-0.418457	-0.598633	-0.049561	9.726415	30.711215	-175.437026
00012		-9.001203	2.097438	8.816235	-0.304036	-2.108272	2.030064	-0.437012	-0.588623	-0.047607	10.100193	29.310360	-174.349901
00013		-9.344027	2.114495	8.882985	-0.437504	-1.853169	1.900387	-0.445801	-0.586182	-0.063477	10.337364	28.068871	-173.339806
00014		-9.752870	2.275795	8.967252	-0.564738	-1.632232	1.733746	-0.463867	-0.569092	-0.073486	10.440720	26.959541	-172.424443
00015		-10.376277	2.308118	8.883393	-0.685661	-1.459781	1.568939	-0.478027	-0.570313	-0.082764	10.416961	25.970877	-171.602767
00016		-11.183350	2.231874	8.601923	-0.768464	-1.328382	1.432555	-0.493652	-0.565186	-0.074951	10.302285	25.064782	-170.856059
00017		-11.706789	2.007660	8.166009	-0.821800	-1.235558	1.326931	-0.503906	-0.545898	-0.092529	10.121393	24.229937	-170.167723
00018		-12.092230	1.595296	7.915031	-0.820792	-1.156579	1.243752	-0.511963	-0.540039	-0.090332	9.915558	23.444361	-169.522965
00019		-12.993139	0.977061	8.129943	-0.739528	-1.128233	1.188331	-0.526367	-0.530762	-0.090088	9.734702	22.687901	-168.910510
00020		-14.008541	0.538158	8.359501	-0.603029	-1.254053	1.162962	-0.536621	-0.526123	-0.089600	9.613872	21.859515	-168.327666
00021		-14.079324	-0.121684	7.992297	-0.446039	-1.532224	1.142009	-0.534180	-0.521729	-0.088623	9.557627	20.881597	-167.788677
00022		-13.287363	-0.703065	7.294284	-0.272458	-1.839495	1.082990	-0.552246	-0.513184	-0.095703	9.567905	19.732206	-167.319568
00023		-12.009555	-1.838743	6.358772	-0.098790	-2.072678	0.978961	-0.554199	-0.507324	-0.087158	9.638127	18.464405	-166.940857
00024		-11.206337	-3.014330	5.324798	0.140179	-2.152746	0.816554	-0.569580	-0.500732	-0.074219	9.803978	17.163757	-166.672071
00025		-10.720783	-2.974091	4.569835	0.380184	-2.100117	0.584584	-0.565674	-0.501953	-0.070801	10.061933	15.917412	-166.541384
00026		-11.218735	-3.023695	4.297589	0.586269	-1.967924	0.367433	-0.589355	-0.492432	-0.064209	10.403412	14.765480	-166.531277
00027		-11.602821	-2.991514	3.627697	0.790686	-1.906083	0.231141	-0.593750	-0.506348	-0.051270	10.842068	13.664319	-166.601709
00028		-10.083695	-2.679966	2.890823	0.979086	-1.605509	0.191494	-0.593018	-0.496582	-0.048340	11.389839	12.736690	-166.670484
00029		-8.786356	-0.718404	-0.553519	0.840774	-0.937948	0.116722	-0.593750	-0.499512	-0.048584	11.865639	12.193425	-166.711440
00030		-8.483096	-0.333455	-0.224826	0.447873	-0.261551	-0.117346	-0.595459	-0.502930	-0.047607	12.104286	12.057900	-166.807829
00031		-10.355927	-0.864225	0.321811	0.042966	0.388845	-0.387806	-0.604736	-0.506348	-0.042969	12.095575	12.318884	-166.979464
00032		-10.821756	-2.191938	1.358496	-0.109301	0.789462	-0.593099	-0.590820	-0.501709	-0.038818	11.982659	12.830260	-167.220612
00033		-1.861313	-2.210677	7.753603	0.068747	0.930213	-0.737164	-0.583008	-0.501709	-0.048584	11.954996	13.435809	-167.528518
00034		-4.063780	-2.382484	13.570631	0.268271	0.770351	-0.761731	-0.590332	-0.510742	-0.044922	12.029491	13.956927	-167.870923
00035		-1.780317	-1.655718	13.102529	0.551634	0.475658	-0.650433	-0.583496	-0.511475	-0.052002	12.271906	14.298358	-168.184577
00036		-0.134107	2.713538	8.208176	0.661701	0.401890	-0.600826	-0.584961	-0.514160	-0.043213	12.579129	14.595920	-168.478155
00037		1.128062	6.398998	5.466324	0.504228	0.764414	-0.758442	-0.585693	-0.512939	-0.045166	12.784723	15.115152	-168.814437
00038		0.445313	8.279851	6.757004	0.246717	1.354256	-0.743637	-0.576904	-0.517090	-0.051758	12.860757	15.964601	-169.064431
00039		-2.362362	10.469117	8.043573	-0.029895	1.689825	-0.525490	-0.564453	-0.513428	-0.053467	12.824187	16.972031	-169.143266
00040		-4.925891	8.912049	9.214425	-0.418296	1.752264	-0.410689	-0.560791	-0.517090	-0.057373	12.585037	18.001292	-169.149690
00041		-6.674769	3.996880	10.720538	-0.639241	1.609870	-0.320522	-0.568848	-0.517578	-0.067627	12.228893	18.938144	-169.126921
00042		-7.210701	-0.428816	11.739949	-0.693569	1.374875	-0.360400	-0.555176	-0.513916	-0.071777	11.822095	19.750000	-169.164037
00043		-6.677147	-3.206596	11.801986	-0.548174	1.122978	-0.435370	-0.550049	-0.509277	-0.074707	11.470101	20.427115	-169.282875
00044		-5.841898	-0.943421	10.731256	-0.348451	0.933988	-0.428638	-0.560303	-0.511475	-0.076904	11.222671	20.998820	-169.424882
00045		-5.530381	3.462599	9.723459	-0.313484	0.837569	-0.373912	-0.548828	-0.500244	-0.084229	11.001283	21.507618	-169.548145
00046		-5.905426	5.691196	9.215000	-0.465632	0.738699	-0.337743	-0.548096	-0.508301	-0.083008	10.693911	21.958623	-169.664122
00047		-5.162081	3.283066	9.126829	-0.586230	0.607729	-0.306039	-0.547852	-0.502197	-0.082520	10.317783	22.329605	-169.778597
00048		-4.563799	-0.058033	9.547005	-0.576865	0.539334	-0.294576	-0.541016	-0.492188	-0.094727	9.944772	22.662586	-169.896535
00049		-4.925711	-0.341195	9.811102	-0.480999	0.469670	-0.294997	-0.533936	-0.504395	-0.097168	9.622505	22.953176	-170.024442
00050		-4.832943	1.597289	9.284860	-0.439809	0.361689	-0.250830	-0.540771	-0.505371	-0.083984	9.328290	23.180435	-170.138422
00051		-4.606055	2.104961	8.952029	-0.449088	0.299934	-0.216833	-0.538574	-0.504395	-0.090576	9.034207	23.366618	-170.238855
00052		-5.321157	0.040185	10.113181	-0.365710	0.102168	-0.140207	-0.539551	-0.502441	-0.098145	8.797936	23.436187	-170.312375
00053		-4.261555	0.328906	9.182278	-0.290568	0.050706	-0.115295	-0.536621	-0.489746	-0.091064	8.609236	23.471639	-170.375502
00054		-4.203100	2.094466	8.872206	-0.276453	0.038153	-0.087066	-0.541748	-0.499512	-0.092041	8.434347	23.500012	-170.422734
00055		-4.061085	1.439832	8.900469	-0.290690	0.006523	-0.077664	-0.531250	-0.499023	-0.092041	8.253101	23.506923	-170.466869
00056		-4.004425	0.661202	9.031278	-0.256666	0.011512	-0.066631	-0.530762	-0.493164	-0.093994	8.093609	23.518268	-170.503985
00057		-4.392463	0.592661	9.369602	-0.206114	0.013894	-0.049142	-0.532471	-0.492432	-0.093262	7.968089	23.526856	-170.529876
00058		-4.457876	0.989066	9.139212	-0.187274	-0.065549	-0.008913	-0.529053	-0.486816	-0.097900	7.859862	23.489770	-170.537977
00059		-3.863218	1.164929	8.961962	-0.147191	-0.030715	0.001106	-0.535156	-0.490967	-0.090820	7.778990	23.469033	-170.536588
00060		-3.719680	1.305697	8.779997	-0.147852	0.016636	-0.015628	-0.541748	-0.494385	-0.096924	7.694488	23.479111	-170.541806
00061		-4.021559	1.344939	8.913526	-0.155155	0.024570	-0.007876	-0.541992	-0.488037	-0.095947	7.608696	23.490457	-170.541313
00062		-4.095146	1.141267	9.052880	-0.147296	0.011928	-0.016787	-0.531494	-0.485840	-0.088135	7.524080	23.497920	-170.547652
00063		-4.103879	0.986086	9.125563	-0.114646	0.018317	-0.004012	-0.542480	-0.496338	-0.098633	7.462235	23.505427	-170.545309
00064		-4.057362	1.086932	9.026039	-0.088209	0.032760	-0.003003	-0.546875	-0.494629	-0.093750	7.415533	23.523691	-170.541441
00065		-3.932312	1.173330	8.893408	-0.081642	0.057936	-0.005024	-0.535645	-0.488037	-0.103516	7.373616	23.553787	-170.536553
00066		-3.945519	1.188991	9.046256	-0.082676	0.069892	-0.011707	-0.540771	-0.485596	-0.092529	7.329107	23.593789	-170.535136
00067		-4.106546	1.114888	9.062289	-0.077802	0.071220	-0.009019	-0.541260	-0.486572	-0.093018	7.288808	23.631733	-170.531714
00068		-4.122102	1.080966	9.013658	-0.068967	0.066230	-0.010819	-0.538818	-0.491455	-0.099609	7.252239	23.669583	-170.530093
00069		-4.126120	1.298784	8.921059	-0.082862	0.036916	-0.010979	-0.537109	-0.494141	-0.093262	7.207450	23.688173	-170.530644
00070		-3.916516	1.111225	8.892404	-0.097496	0.028637	-0.015271	-0.541016	-0.488281	-0.097900	7.152229	23.704978	-170.534783
00071		-3.958865	1.233919	8.913384	-0.117675	0.031416	-0.018892	-0.536133	-0.495605	-0.094727	7.085329	23.721002	-170.540714
00072		-4.049512	1.077766	8.949678	-0.135344	0.017433	-0.023548	-0.542725	-0.489258	-0.096191	7.006002	23.731996	-170.550887
00073		-4.243671	1.013854	9.106014	-0.132676	0.017331	-0.031402	-0.539307	-0.488037	-0.098633	6.926926	23.740865	-170.565707
00074		-3.754040	0.892985	8.792769	-0.122760	-0.002872	-0.020894	-0.535645	-0.481201	-0.090088	6.854840	23.740105	-170.575784
00075		-4.341035	1.301548	9.051033	-0.132402	0.023178	-0.023092	-0.533691	-0.479248	-0.100586	6.778164	23.751700	-170.585032
00076		-3.865718	1.035155	8.862364	-0.135992	-0.040165	-0.016741	-0.535400	-0.482666	-0.100342	6.698443	23.729413	-170.595254
00077		-4.080051	1.023508	9.007789	-0.140774	-0.016075	-0.022075	-0.535645	-0.482666	-0.097412	6.616068	23.718578	-170.606750
00078		-3.910346	0.897601	8.964835	-0.130250	-0.034510	-0.012682	-0.533447	-0.484375	-0.095703	6.540851	23.699207	-170.613964
00079		-3.974431	0.978710	9.016379	-0.127085	-0.011019	-0.017078	-0.532959	-0.484131	-0.094238	6.467731	23.690898	-170.621962
00080		-3.678880	0.841722	8.814755	-0.137191	-0.012877	-0.018953	-0.534912	-0.487061	-0.101563	6.387599	23.684214	-170.631499
00081		-4.171750	1.074576	9.116144	-0.138536	0.030723	-0.037935	-0.541260	-0.477295	-0.099854	6.303877	23.700975	-170.649554
00082		-3.998946	0.859792	9.056116	-0.105215	-0.002953	-0.018356	-0.541260	-0.484619	-0.090576	6.242493	23.699866	-170.658017
00083		-3.910238	1.080092	8.950359	-0.089147	0.015790	-0.017386	-0.542480	-0.490967	-0.096436	6.191780	23.706810	-170.664344
00084		-3.954930	0.994866	8.951090	-0.095761	-0.005036	-0.019308	-0.537842	-0.480469	-0.105957	6.135522	23.704543	-170.673530
00085		-4.015565	0.980455	8.953119	-0.100904	0.023079	-0.026718	-0.537354	-0.481445	-0.093262	6.075926	23.716196	-170.685194
00086		-4.050010	1.121521	8.989541	-0.087964	0.045930	-0.031544	-0.523193	-0.477051	-0.093506	6.022429	23.743680	-170.698624
00087		-4.080141	1.057550	8.948467	-0.086607	0.025579	-0.030638	-0.534912	-0.483154	-0.106689	5.970089	23.756972	-170.712593
00088		-3.942455	0.960143	9.021273	-0.095831	-0.010420	-0.029109	-0.535400	-0.484131	-0.097900	5.911217	23.752173	-170.728202
00089		-4.028522	0.883815	8.949303	-0.083676	-0.000626	-0.027916	-0.542236	-0.485352	-0.098145	5.860550	23.750345	-170.742187
00090		-4.021667	0.793303	8.968307	-0.077837	-0.000465	-0.022134	-0.535400	-0.475342	-0.102051	5.814002	23.750776	-170.752803
00091		-4.120792	0.779256	9.041050	-0.062769	0.024870	-0.025914	-0.534668	-0.480957	-0.101074	5.776465	23.763346	-170.763927
00092		-4.106035	0.787168	8.966539	-0.051154	0.025255	-0.025882	-0.534668	-0.479492	-0.097168	5.744898	23.778638	-170.775266
00093		-4.108424	0.797188	9.033179	-0.035865	0.029852	-0.020835	-0.528076	-0.478760	-0.094238	5.724166	23.793747	-170.782930
00094		-4.062400	0.906869	8.936401	-0.026382	0.025619	-0.025731	-0.530518	-0.476807	-0.099609	5.706817	23.809229	-170.794171
00095		-4.022401	0.878632	8.941040	-0.037969	0.015484	-0.031893	-0.540039	-0.475830	-0.096680	5.681728	23.816770	-170.809632
00096		-4.062743	0.857079	8.944524	-0.037669	0.019072	-0.027507	-0.533936	-0.483154	-0.101318	5.657295	23.828607	-170.822397
00097		-3.990840	0.927705	8.927550	-0.037914	0.011105	-0.028217	-0.532471	-0.477783	-0.102051	5.633045	23.833432	-170.835847
00098		-3.992338	0.922924	8.927376	-0.042876	0.016348	-0.030644	-0.539551	-0.480225	-0.103027	5.604767	23.843874	-170.850743
00099		-4.019818	0.863003	8.886393	-0.045839	0.003034	-0.033288	-0.533691	-0.477783	-0.103516	5.574495	23.844368	-170.867853
00100		-3.990510	0.863352	8.902974	-0.054108	0.002195	-0.034642	-0.541748	-0.484131	-0.106445	5.538424	23.846938	-170.886109
00101		-3.948764	0.840068	8.942273	-0.058724	0.001277	-0.038821	-0.535156	-0.475586	-0.104004	5.499330	23.846715	-170.906776
00102		-4.068597	0.823480	8.945020	-0.054187	0.006588	-0.038294	-0.535156	-0.473633	-0.104492	5.462400	23.851956	-170.927047
00103		-4.036094	0.775127	8.936575	-0.048047	0.007105	-0.034018	-0.532959	-0.479736	-0.104004	5.430772	23.854772	-170.944372
00104		-4.007065	0.775635	8.952981	-0.048933	0.004931	-0.031476	-0.533936	-0.480225	-0.097412	5.398523	23.858673	-170.960496
00105		-4.062377	0.824966	8.959127	-0.035474	0.007435	-0.028931	-0.529785	-0.483643	-0.104248	5.375387	23.861387	-170.974633
00106		-4.002322	0.925821	8.954046	-0.043455	0.005892	-0.033748	-0.538574	-0.473389	-0.100342	5.345719	23.865937	-170.992121
00107		-3.990799	0.883080	8.909276	-0.043461	0.004826	-0.035707	-0.535400	-0.481201	-0.098633	5.316233	23.867511	-171.010640
00108		-4.038672	0.864410	9.000658	-0.038560	0.007184	-0.031055	-0.532959	-0.476563	-0.102783	5.290088	23.872627	-171.026372
00109		-4.078011	0.828188	8.936930	-0.037906	0.004601	-0.028432	-0.535889	-0.482666	-0.094971	5.265613	23.873674	-171.040368
00110		-4.040093	0.847989	8.967150	-0.038203	0.003165	-0.028894	-0.529297	-0.475830	-0.096924	5.240127	23.876365	-171.054983
00111		-3.993640	0.864289	8.909845	-0.040986	0.005415	-0.028597	-0.536377	-0.485352	-0.105469	5.213863	23.877874	-171.069037
00112		-3.974468	0.768621	9.017449	-0.037036	0.008920	-0.027028	-0.535889	-0.484619	-0.103271	5.189654	23.883731	-171.082158
00113		-3.928907	0.799857	9.027223	-0.030452	0.021102	-0.029129	-0.537354	-0.485840	-0.101807	5.169647	23.894208	-171.095659
00114		-4.005023	0.713963	9.008451	-0.014720	0.040582	-0.024543	-0.534668	-0.478760	-0.102051	5.159568	23.917977	-171.105449
00115		-4.040136	0.612709	9.027765	0.000788	0.049967	-0.024625	-0.537109	-0.470947	-0.100098	5.159248	23.944689	-171.114520
00116		-4.056433	0.728804	8.965632	0.011758	0.056170	-0.021310	-0.538086	-0.482422	-0.104492	5.165490	23.977173	-171.121424
00117		-4.048121	0.792288	8.914562	0.012044	0.057611	-0.020840	-0.527832	-0.481689	-0.109863	5.172748	24.008053	-171.127697
00118		-4.049378	0.751052	8.921002	0.005676	0.052328	-0.019964	-0.536133	-0.489258	-0.101318	5.175751	24.038269	-171.133976
00119		-4.054148	0.750604	8.918873	0.002013	0.051328	-0.019102	-0.526123	-0.484131	-0.094971	5.177553	24.065475	-171.139518
00120		-4.010672	0.878780	8.889650	-0.001944	0.049954	-0.016744	-0.542236	-0.472900	-0.104736	5.176947	24.094162	-171.143922
00121		-4.031225	0.948436	8.890392	-0.015972	0.040292	-0.028101	-0.522217	-0.482666	-0.113525	5.165885	24.115535	-171.155719
00122		-4.061958	0.804690	8.918690	-0.023000	0.038659	-0.027886	-0.534668	-0.483154	-0.107666	5.150115	24.138339	-171.167731
00123		-4.040544	0.748187	8.928719	-0.024822	0.035495	-0.032366	-0.532715	-0.479492	-0.102539	5.132767	24.157188	-171.182481
00124		-4.073942	0.745766	8.944706	-0.021177	0.038633	-0.029287	-0.535645	-0.484131	-0.108643	5.117667	24.180032	-171.195389
00125		-4.036539	0.625835	8.985791	-0.010505	0.042344	-0.028378	-0.532715	-0.483154	-0.104492	5.109684	24.202579	-171.207276
00126		-3.965846	0.573080	9.047935	0.008529	0.063549	-0.021120	-0.539795	-0.487305	-0.091553	5.114246	24.239211	-171.213694
00127		-3.965820	0.827055	9.009241	0.021809	0.077018	-0.021886	-0.531006	-0.482422	-0.109131	5.127232	24.281215	-171.219576
00128		-3.942653	0.927687	8.984998	0.024087	0.084414	-0.037494	-0.536865	-0.481689	-0.097168	5.136955	24.330570	-171.235070
00129		-4.027677	0.893682	8.988015	0.030090	0.089483	-0.048336	-0.528564	-0.481934	-0.106445	5.148140	24.381047	-171.256805
00130		-3.976118	0.885263	8.915955	0.027247	0.091873	-0.059539	-0.536865	-0.480713	-0.094482	5.154131	24.435772	-171.285682
00131		-3.964904	0.888112	8.982091	0.037157	0.102594	-0.064852	-0.531250	-0.488281	-0.104736	5.165346	24.494588	-171.317031
00132		-4.016770	0.592407	9.093022	0.064725	0.119765	-0.067440	-0.528564	-0.482666	-0.103271	5.191367	24.565623	-171.349276
00133		-4.028102	0.797860	9.079635	0.088194	0.143168	-0.065423	-0.532471	-0.483398	-0.100586	5.232581	24.647646	-171.378636
00134		-4.046447	0.744658	9.067915	0.111259	0.151836	-0.074413	-0.530273	-0.482910	-0.104004	5.284137	24.737357	-171.413351
00135		-4.146193	0.699480	9.053096	0.136767	0.160043	-0.078229	-0.531738	-0.484863	-0.102539	5.350191	24.829736	-171.449648
00136		-4.071274	0.807719	8.990139	0.153586	0.173425	-0.070174	-0.524414	-0.480713	-0.107422	5.427612	24.931580	-171.480258
00137		-4.050386	0.843924	9.012166	0.164278	0.186382	-0.077921	-0.528809	-0.482178	-0.111084	5.510154	25.039052	-171.514563
00138		-4.038546	0.855072	8.985968	0.169916	0.205534	-0.074664	-0.529541	-0.488770	-0.100830	5.596568	25.159506	-171.545777
00139		-3.976076	0.835912	9.055425	0.185084	0.237309	-0.082763	-0.523193	-0.487305	-0.106201	5.691076	25.296382	-171.579668
00140		-4.026709	0.809956	9.069333	0.203452	0.287521	-0.083294	-0.528809	-0.485840	-0.109863	5.796615	25.464122	-171.610766
00141		-3.999113	0.865274	9.012409	0.222680	0.335574	-0.082647	-0.514160	-0.486084	-0.107422	5.915468	25.657112	-171.637747
00142		-3.962194	0.874138	9.053430	0.241954	0.390593	-0.083191	-0.519531	-0.490479	-0.108154	6.046154	25.883647	-171.661296
00143		-3.921681	0.777623	9.188520	0.251495	0.457791	-0.066774	-0.521240	-0.483643	-0.106201	6.189764	26.145403	-171.669032
00144		-3.826069	0.867318	9.210175	0.275256	0.551422	-0.061790	-0.520996	-0.482178	-0.107910	6.350832	26.462233	-171.666615
00145		-3.809317	1.043214	9.240735	0.295563	0.660549	-0.055985	-0.519775	-0.490723	-0.109619	6.529959	26.838770	-171.651292
00146		-3.884158	1.025594	9.273168	0.314467	0.783013	-0.066088	-0.506104	-0.489502	-0.115723	6.721094	27.287571	-171.632234
00147		-3.784349	1.256551	9.465456	0.288673	0.924308	-0.071257	-0.513428	-0.487305	-0.123291	6.902637	27.815105	-171.603617
00148		-3.994321	0.982616	9.327723	0.276560	1.086861	-0.074426	-0.501709	-0.498291	-0.113037	7.082791	28.437046	-171.562481
00149		-4.051265	1.026274	9.224033	0.302435	1.226639	-0.083864	-0.506104	-0.495850	-0.117188	7.282763	29.137171	-171.513100
00150		-4.074295	1.110966	9.251551	0.315233	1.378776	-0.101434	-0.498291	-0.500732	-0.127197	7.492134	29.926585	-171.459442
00151		-4.216978	1.116508	9.173660	0.317587	1.542264	-0.125380	-0.492188	-0.499023	-0.129150	7.705543	30.808774	-171.403002
00152		-4.277646	1.117792	9.046345	0.331658	1.694500	-0.167905	-0.491455	-0.498779	-0.129883	7.921827	31.782079	-171.356911
00153		-4.323275	1.125473	8.932581	0.340394	1.865305	-0.210400	-0.479248	-0.500244	-0.130859	8.140634	32.853955	-171.317889
00154		-4.534667	0.959267	8.814182	0.357375	2.047812	-0.255225	-0.472900	-0.500244	-0.129883	8.365125	34.034304	-171.286312
00155		-4.570240	0.966839	8.581184	0.371987	2.240992	-0.301485	-0.460693	-0.513672	-0.145752	8.596058	35.326484	-171.260156
00156		-4.617902	1.088224	8.436569	0.374452	2.465559	-0.355259	-0.449219	-0.507080	-0.141846	8.824059	36.751711	-171.241237
00157		-4.725289	1.109751	8.263089	0.384825	2.674252	-0.409048	-0.445313	-0.516357	-0.147949	9.054804	38.298478	-171.229195
00158		-5.005296	1.328627	8.142385	0.356520	2.962937	-0.484584	-0.429688	-0.509521	-0.147705	9.260253	40.016515	-171.231034
00159		-5.161931	1.468658	7.933136	0.326005	3.170596	-0.539016	-0.420654	-0.511963	-0.153564	9.444267	41.855878	-171.239728
00160		-5.507897	1.544802	7.701763	0.285037	3.386531	-0.603537	-0.408203	-0.517578	-0.161133	9.593545	43.824351	-171.263874
00161		-5.666557	1.745120	7.559229	0.204325	3.575848	-0.646261	-0.392334	-0.504150	-0.164551	9.694745	45.902929	-171.290506
00162		-6.415005	2.053904	7.525351	0.132903	3.724974	-0.705809	-0.379395	-0.516602	-0.166748	9.734721	48.072302	-171.343312
00163		-6.775508	2.169027	7.353409	0.049790	3.888425	-0.787892	-0.361572	-0.516357	-0.172607	9.689456	50.341119	-171.444610
00164		-7.804465	2.204808	7.469495	0.040019	4.035676	-0.869781	-0.342773	-0.510986	-0.183105	9.586964	52.701517	-171.608040
00165		-7.940699	2.349085	7.059928	0.019572	4.164776	-0.981025	-0.328857	-0.519043	-0.173828	9.383911	55.144468	-171.876686
00166		-9.338404	2.745075	7.582627	-0.062183	4.257973	-1.118616	-0.297363	-0.515625	-0.189697	8.988690	57.652349	-172.311489
00167		-13.069160	1.938028	8.989051	-0.019554	4.055781	-1.129660	-0.289307	-0.513672	-0.181641	8.511790	60.044320	-172.858929
00168		-12.720280	1.622789	8.432030	0.166871	3.771203	-1.072245	-0.264160	-0.525146	-0.196045	8.077165	62.268198	-173.467289
00169		-12.592341	1.644738	7.968174	0.419902	3.545571	-1.005499	-0.251709	-0.518799	-0.185303	7.747816	64.356438	-174.108357
00170		-12.075924	1.791882	7.944027	0.653033	3.358893	-1.039620	-0.231689	-0.521729	-0.180664	7.396793	66.339633	-174.909250
00171		-11.181507	1.897621	7.557370	0.824529	3.192932	-1.094291	-0.211670	-0.524170	-0.175781	6.938669	68.229869	-175.921100
00172		-10.295425	2.078839	7.384678	0.981261	3.123052	-1.182367	-0.195068	-0.529297	-0.169189	6.285045	70.082132	-177.225017
00173		-9.790288	2.025719	7.637511	1.154493	3.039484	-1.282051	-0.179688	-0.539307	-0.169434	5.350212	71.886190	-178.916383
00174		-8.869258	1.681238	7.099880	1.317312	2.962113	-1.399294	-0.164795	-0.540283	-0.160889	3.987738	73.639623	178.863972
00175		-7.587833	1.777674	6.234146	1.434345	2.937928	-1.534464	-0.145020	-0.551758	-0.147461	1.973233	75.363964	175.917910
00176		-6.172269	1.904006	5.182390	1.500872	2.935333	-1.688906	-0.133057	-0.551270	-0.144287	-1.035570	77.050736	171.931662
00177		-4.570622	1.794600	4.467553	1.519785	2.952115	-1.844648	-0.111572	-0.550537	-0.134766	-5.503272	78.678382	166.468832
00178		-1.201417	2.312268	7.906945	1.475808	2.900187	-2.007253	-0.101563	-0.553955	-0.121094	-12.074044	80.144366	158.921775
00179		-9.603688	3.623907	10.843554	1.409002	2.255744	-2.077363	-0.080811	-0.555176	-0.113281	-20.331192	81.054553	149.731745
00180		-14.786990	5.441352	13.557504	1.186798	0.617515	-1.543724	-0.075195	-0.555420	-0.111328	-25.655026	81.031647	143.650639
00181		-8.547395	5.144614	12.895979	0.977394	-0.890136	-1.007054	-0.073975	-0.540039	-0.113281	-26.843709	80.317995	141.875615
00182		-5.864697	4.736117	11.320152	0.824877	-1.926272	-0.575717	-0.071777	-0.551270	-0.116699	-25.283336	79.178006	142.977318
00183		-3.162725	4.263246	9.045678	0.615751	-2.517790	-0.231273	-0.076416	-0.550781	-0.109375	-22.624552	77.804453	145.327450
00184		-2.255642	3.729841	7.651414	0.379985	-2.785736	0.027787	-0.078125	-0.547363	-0.103271	-19.789831	76.316835	148.008369
00185		-2.065750	3.283031	6.719949	0.147319	-2.935884	0.271483	-0.088379	-0.538330	-0.101807	-17.051962	74.768071	150.745315
00186		-2.315437	2.824095	6.177483	-0.069538	-3.031064	0.496545	-0.097900	-0.534668	-0.097412	-14.464846	73.167173	153.473912
00187		-2.695654	2.280254	5.903867	-0.232841	-3.118600	0.714849	-0.103271	-0.542236	-0.109375	-12.042930	71.519503	156.152205
