// General information: 
//  MT Manager version: 2022.2.0 
//  XDA version: 2022.2.0 build 7381 rev 124627 built on 2023-07-19
// Device information: 
//  DeviceId: 00B4C3A0
//  ProductCode: MTW2-3A7G6
//  Firmware Version: 4.6.0
//  Hardware Version: 2.0.0
// Device settings: 
//  Filter Profile: human(46.1)
//  Option Flags: Orientation Smoother Disabled, Position/Velocity Smoother Disabled, Continuous Zero Rotation Update Disabled, AHS Disabled, ICC Disabled
// Coordinate system: ENU
PacketCounter	SampleTimeFine	Acc_X	Acc_Y	Acc_Z	Gyr_X	Gyr_Y	Gyr_Z	Mag_X	Mag_Y	Mag_Z	Roll	Pitch	Yaw
36879		9.735756	-0.330238	1.214652	0.010830	-0.012603	-0.005071	-0.489990	-0.178223	0.572510	-7.288133	-83.878586	167.099598
36880		9.726094	-0.311257	1.185825	0.012310	-0.013815	-0.006173	-0.486328	-0.167969	0.576660	-7.253097	-83.889256	167.077417
36881		9.712378	-0.279280	1.189090	0.020983	-0.004920	-0.002440	-0.485352	-0.171387	0.572998	-7.245156	-83.889308	167.086731
36882		9.687691	-0.255019	1.213468	0.020193	-0.001679	-0.000753	-0.485840	-0.175049	0.561768	-7.226118	-83.892687	167.085182
36883		9.715291	-0.244925	1.231991	0.019187	0.006476	-0.000345	-0.485352	-0.167969	0.569580	-7.222414	-83.886214	167.097456
36884		9.673728	-0.223119	1.218649	0.018131	0.008922	-0.000035	-0.479004	-0.175781	0.571289	-7.201242	-83.883515	167.092573
36885		9.704184	-0.251896	1.254299	0.016808	0.010572	-0.001101	-0.489746	-0.170166	0.574707	-7.192007	-83.874882	167.098076
36886		9.666585	-0.243157	1.209587	0.020988	0.011768	0.000029	-0.486816	-0.168945	0.572998	-7.167662	-83.870561	167.091647
36887		9.675232	-0.286632	1.286428	0.012941	0.010250	-0.006567	-0.480957	-0.173828	0.573242	-7.132058	-83.862351	167.068778
36888		9.655472	-0.249381	1.232072	0.022995	0.006517	-0.004130	-0.488525	-0.169434	0.579346	-7.088099	-83.861309	167.043778
36889		9.675077	-0.285054	1.287945	0.018973	0.005758	-0.007428	-0.475098	-0.169434	0.571533	-7.047489	-83.855824	167.019122
36890		9.633578	-0.262576	1.274216	0.017865	0.002495	-0.007215	-0.479248	-0.164307	0.571777	-6.992822	-83.857281	166.980398
36891		9.658238	-0.213168	1.276151	0.015122	0.000009	-0.003732	-0.482910	-0.171631	0.573242	-6.977355	-83.855042	166.979082
36892		9.672098	-0.243976	1.272149	0.013376	0.000425	-0.004006	-0.482666	-0.166504	0.576416	-6.943541	-83.857450	166.958744
36893		9.669149	-0.204731	1.255696	0.009308	-0.000412	-0.001591	-0.489502	-0.166748	0.574951	-6.943129	-83.855148	166.969102
36894		9.655303	-0.172992	1.259725	0.011210	-0.000392	-0.003486	-0.481445	-0.167236	0.577881	-6.913817	-83.857983	166.952043
36895		9.652472	-0.206278	1.216772	0.006608	-0.002822	-0.003822	-0.488037	-0.173584	0.569336	-6.904653	-83.857150	166.952317
36896		9.679062	-0.221828	1.282929	0.006719	-0.002461	-0.000277	-0.483398	-0.170898	0.570801	-6.896183	-83.860940	166.953632
36897		9.630739	-0.220806	1.257411	0.003227	-0.001629	-0.000826	-0.484131	-0.168945	0.578369	-6.903923	-83.859232	166.968201
36898		9.657296	-0.236492	1.323819	0.004336	0.001634	-0.001039	-0.482910	-0.165771	0.575684	-6.890168	-83.860745	166.962827
36899		9.679112	-0.221449	1.282619	0.000371	-0.004476	-0.000887	-0.480469	-0.170654	0.572754	-6.900937	-83.860735	166.979479
36900		9.689025	-0.239550	1.309718	-0.000316	-0.006506	-0.001468	-0.480469	-0.167969	0.575195	-6.892787	-83.866908	166.977062
36901		9.700006	-0.231844	1.288591	-0.001907	-0.005654	-0.003912	-0.484375	-0.168945	0.579834	-6.889448	-83.867875	166.977868
36902		9.683351	-0.234012	1.249351	-0.001375	-0.004060	-0.001161	-0.487061	-0.165527	0.574463	-6.881950	-83.872635	166.975497
36903		9.700166	-0.231449	1.287458	-0.006929	-0.009318	-0.003452	-0.480469	-0.175537	0.577148	-6.886340	-83.875519	166.981546
36904		9.679502	-0.220580	1.279821	-0.008094	-0.001599	-0.000883	-0.476807	-0.166748	0.578613	-6.882589	-83.878860	166.979072
36905		9.651932	-0.230192	1.261266	-0.009158	-0.004787	-0.006383	-0.480469	-0.169678	0.572754	-6.869630	-83.879576	166.965898
36906		9.609479	-0.234110	1.294806	-0.007034	-0.004045	-0.001190	-0.478760	-0.165039	0.571777	-6.865199	-83.884330	166.963350
36907		9.630289	-0.244923	1.301366	-0.007876	-0.006511	0.000399	-0.482666	-0.172119	0.579346	-6.888412	-83.885554	166.987572
36908		9.655132	-0.268998	1.276028	-0.004804	-0.008576	0.001741	-0.477783	-0.160889	0.572998	-6.901203	-83.892683	167.003630
36909		9.666103	-0.261775	1.254785	-0.007609	-0.005714	0.001774	-0.483398	-0.163818	0.570557	-6.931118	-83.893347	167.034950
36910		9.666170	-0.262042	1.254212	-0.007609	-0.005714	0.001775	-0.482178	-0.167725	0.572998	-6.943913	-83.898845	167.049394
36911		9.733433	-0.281885	1.195496	-0.006298	0.003694	-0.000514	-0.476074	-0.176514	0.573486	-6.954765	-83.894258	167.062278
36912		9.700751	-0.304492	1.257310	-0.001635	0.000776	0.003271	-0.477295	-0.165283	0.584229	-6.967898	-83.895961	167.080505
36913		9.718483	-0.276562	1.248152	-0.002384	0.004095	-0.000760	-0.479004	-0.170166	0.577881	-6.974933	-83.891343	167.091353
36914		9.707528	-0.283942	1.269245	0.004383	0.007343	-0.000946	-0.482178	-0.165039	0.581543	-6.957936	-83.889604	167.082746
36915		9.680857	-0.267867	1.203555	0.004117	0.006546	-0.002321	-0.489990	-0.169189	0.576172	-6.951393	-83.883607	167.084110
36916		9.697504	-0.265353	1.243022	0.006396	0.007724	0.000703	-0.488037	-0.162842	0.579590	-6.941766	-83.881537	167.084075
36917		9.673776	-0.288298	1.194073	0.004012	0.011819	-0.000058	-0.486816	-0.170898	0.580078	-6.943993	-83.872164	167.094402
36918		9.708124	-0.257754	1.224651	0.006180	0.012636	-0.000577	-0.490234	-0.163086	0.573242	-6.924552	-83.867388	167.084372
36919		9.676301	-0.254307	1.239616	0.011890	0.018330	-0.000454	-0.487793	-0.165771	0.576416	-6.915931	-83.854380	167.088154
36920		9.696814	-0.264695	1.248535	0.008289	0.018801	-0.004546	-0.480225	-0.173828	0.566162	-6.870458	-83.846370	167.053157
36921		9.685681	-0.271859	1.270912	0.013905	0.018711	0.001198	-0.485596	-0.168213	0.571777	-6.869011	-83.833187	167.064772
36922		9.658928	-0.256024	1.206253	0.016977	0.016646	0.002542	-0.476563	-0.166748	0.578369	-6.857379	-83.825915	167.068819
36923		9.671351	-0.240427	1.278489	0.016077	0.019528	0.000680	-0.484131	-0.168213	0.576660	-6.851344	-83.812412	167.077379
36924		9.675151	-0.253447	1.248734	0.017825	0.019112	0.000957	-0.491699	-0.172852	0.570801	-6.829375	-83.803846	167.071516
36925		9.653049	-0.268306	1.291835	0.017035	0.022355	0.002639	-0.479980	-0.166504	0.575684	-6.831390	-83.788419	167.088394
36926		9.666492	-0.227191	1.316166	0.017938	0.019474	0.004504	-0.481689	-0.169678	0.575195	-6.827694	-83.779405	167.100979
36927		9.680065	-0.258630	1.314313	0.015716	0.024004	0.001571	-0.483398	-0.165771	0.572021	-6.823557	-83.763343	167.111114
36928		9.670006	-0.240571	1.288594	0.014662	0.015395	0.005237	-0.479248	-0.168701	0.574707	-6.828053	-83.756599	167.130051
36929		9.686440	-0.238349	1.328918	0.016568	0.015414	0.003345	-0.488525	-0.167725	0.570068	-6.837833	-83.745307	167.154691
36930		9.637922	-0.237468	1.305094	0.011488	0.017096	0.000347	-0.484375	-0.162109	0.568115	-6.817666	-83.737929	167.146987
36931		9.627954	-0.219342	1.278815	0.013288	0.011335	0.004077	-0.480957	-0.164795	0.576660	-6.835535	-83.728777	167.178048
36932		9.644424	-0.217007	1.318778	0.011701	0.012185	0.001632	-0.480713	-0.169922	0.576660	-6.824955	-83.724105	167.180112
36933		9.648374	-0.230332	1.288177	0.008684	0.008904	0.003737	-0.480469	-0.163330	0.575439	-6.845050	-83.716537	167.210595
36934		9.652194	-0.171091	1.283587	0.006673	0.008522	0.002085	-0.488525	-0.164063	0.575439	-6.841950	-83.713918	167.217286
36935		9.617674	-0.201829	1.254890	0.000162	0.006073	0.003635	-0.484131	-0.166260	0.581055	-6.868018	-83.707879	167.249266
36936		9.660217	-0.197910	1.221592	0.000056	0.005709	0.000091	-0.485596	-0.168213	0.582764	-6.860153	-83.706997	167.247349
36937		9.645072	-0.192364	1.274409	-0.004812	0.008119	0.004178	-0.494385	-0.170410	0.571289	-6.890590	-83.699762	167.280622
36938		9.658867	-0.224136	1.270901	-0.003387	0.001196	0.002989	-0.481689	-0.179199	0.564209	-6.902444	-83.701247	167.296559
36939		9.641013	-0.252391	1.280601	-0.003861	0.005309	0.000330	-0.478760	-0.165283	0.576904	-6.914022	-83.695792	167.310187
36940		9.697438	-0.279787	1.243253	-0.006031	0.004493	0.000846	-0.483887	-0.159668	0.564941	-6.914292	-83.695549	167.312945
36941		9.683532	-0.248546	1.247525	-0.006720	0.002462	0.000265	-0.487793	-0.164795	0.579346	-6.928688	-83.691947	167.329181
36942		9.694460	-0.241441	1.227191	-0.007038	0.001594	0.004604	-0.482422	-0.166748	0.575195	-6.950681	-83.693093	167.353215
36943		9.705417	-0.234533	1.206593	-0.012333	-0.002866	0.003679	-0.479980	-0.171387	0.573975	-6.989348	-83.692188	167.390470
36944		9.691567	-0.203965	1.210343	-0.011696	-0.000907	0.009975	-0.481689	-0.163574	0.578613	-7.043250	-83.694376	167.443922
36945		9.698548	-0.256952	1.195208	-0.016774	0.000776	0.006974	-0.480713	-0.164551	0.572510	-7.098910	-83.691304	167.495440
36946		9.661045	-0.176964	1.175681	-0.019310	0.004437	0.008378	-0.486816	-0.171143	0.572754	-7.145544	-83.690557	167.537190
36947		9.652887	-0.224273	1.213230	-0.020365	0.006883	0.008684	-0.482666	-0.171143	0.579834	-7.207940	-83.683816	167.593321
36948		9.670609	-0.197414	1.204470	-0.020522	0.006448	0.010854	-0.484619	-0.163574	0.580811	-7.266603	-83.681738	167.646475
36949		9.715998	-0.233462	1.187944	-0.020886	0.010925	0.011743	-0.477295	-0.170654	0.577148	-7.342153	-83.672496	167.715816
36950		9.704863	-0.242289	1.209510	-0.026120	0.012175	0.010913	-0.482910	-0.163818	0.566650	-7.400378	-83.667145	167.765304
36951		9.704718	-0.243554	1.210423	-0.014432	0.007663	0.010102	-0.482178	-0.169922	0.579102	-7.465420	-83.659985	167.827551
36952		9.718402	-0.276161	1.207376	-0.023946	0.012991	0.010399	-0.491455	-0.174072	0.567383	-7.519027	-83.654198	167.873647
36953		9.675585	-0.281366	1.242245	-0.015591	0.009748	0.006864	-0.492920	-0.166504	0.573730	-7.566683	-83.645910	167.917335
36954		9.696132	-0.292863	1.250408	-0.016750	0.011835	0.003626	-0.485840	-0.168701	0.573242	-7.582245	-83.641284	167.929299
36955		9.657429	-0.310791	1.253626	-0.016908	0.011398	0.005796	-0.482666	-0.166504	0.565918	-7.623932	-83.632092	167.966770
36956		9.664149	-0.290848	1.265763	-0.015693	0.009388	0.003320	-0.484619	-0.162842	0.572510	-7.638934	-83.628877	167.978781
36957		9.651496	-0.234239	1.222381	-0.012894	0.006524	0.003290	-0.490479	-0.168213	0.575684	-7.668581	-83.622828	168.006606
36958		9.636305	-0.229258	1.274992	-0.013903	0.003621	0.007044	-0.489746	-0.172363	0.579102	-7.705388	-83.622600	168.041590
36959		9.661044	-0.254044	1.250917	-0.014955	0.006068	0.007352	-0.484375	-0.159424	0.574951	-7.757252	-83.616330	168.090257
36960		9.647137	-0.223395	1.255445	-0.011572	0.004874	0.004361	-0.488770	-0.167725	0.571777	-7.778202	-83.615594	168.110631
36961		9.669057	-0.209221	1.214894	-0.011891	0.003999	0.008699	-0.486328	-0.167725	0.577637	-7.836246	-83.610514	168.167883
36962		9.662139	-0.230796	1.203912	-0.014750	0.001155	0.008629	-0.484619	-0.168945	0.576904	-7.883228	-83.611550	168.212618
36963		9.662111	-0.231637	1.203972	-0.014855	0.000797	0.005083	-0.487305	-0.159912	0.562744	-7.926777	-83.608616	168.253136
36964		9.673085	-0.224790	1.183566	-0.010941	0.001194	0.004846	-0.489258	-0.159668	0.567139	-7.952382	-83.609922	168.278558
36965		9.678607	-0.230515	1.243092	-0.010091	0.003661	0.003263	-0.486572	-0.167236	0.571289	-7.981687	-83.605445	168.308141
36966		9.718485	-0.260302	1.166845	-0.011249	0.005750	0.000026	-0.486084	-0.167969	0.574463	-7.979828	-83.604547	168.305747
36967		9.711419	-0.208227	1.183150	-0.005837	0.015994	-0.004651	-0.475830	-0.163818	0.570068	-7.957946	-83.593779	168.285595
36968		9.738892	-0.270515	1.176444	-0.006792	0.013171	-0.006614	-0.479980	-0.163574	0.573730	-7.914772	-83.589196	168.244197
36969		9.755270	-0.267736	1.216759	-0.005410	0.017228	-0.005441	-0.482910	-0.170654	0.569092	-7.887733	-83.578052	168.219412
36970		9.749564	-0.261879	1.159038	-0.000283	0.015617	-0.008155	-0.480957	-0.170898	0.573242	-7.831521	-83.572195	168.168645
36971		9.731385	-0.216740	1.196588	-0.003865	0.021723	-0.006435	-0.478271	-0.165039	0.577148	-7.795734	-83.558476	168.135204
36972		9.707746	-0.239046	1.148786	-0.000738	0.025363	-0.004983	-0.479248	-0.169678	0.578857	-7.749292	-83.546832	168.094005
36973		9.703263	-0.225296	1.183212	0.003137	0.031113	-0.008658	-0.485107	-0.166748	0.577393	-7.692287	-83.528074	168.043771
36974		9.682213	-0.213772	1.179206	0.006104	0.034314	-0.005035	-0.484131	-0.162842	0.572021	-7.636047	-83.511342	167.996654
36975		9.663975	-0.241342	1.191503	0.008050	0.028983	-0.003483	-0.487793	-0.163574	0.580811	-7.603989	-83.493257	167.974615
36976		9.637376	-0.242733	1.266716	0.010584	0.025324	-0.004891	-0.479248	-0.166016	0.565186	-7.552307	-83.481613	167.934666
36977		9.654931	-0.214089	1.260049	0.013021	0.026935	-0.004023	-0.492188	-0.164063	0.568115	-7.516289	-83.464783	167.911431
36978		9.661450	-0.193013	1.273724	0.007992	0.023274	-0.003586	-0.479980	-0.175537	0.566650	-7.474209	-83.454198	167.879648
36979		9.672229	-0.185265	1.255407	0.006975	0.020369	0.000163	-0.486572	-0.162842	0.575684	-7.466729	-83.440724	167.880979
36980		9.665164	-0.205746	1.246062	0.006286	0.018340	-0.000424	-0.492432	-0.166748	0.576660	-7.444604	-83.432705	167.868299
36981		9.651098	-0.174295	1.251766	0.007602	0.016690	0.000647	-0.475098	-0.168213	0.572266	-7.441670	-83.421235	167.875365
36982		9.650904	-0.174380	1.253247	0.002834	0.013825	0.002458	-0.484619	-0.169678	0.573730	-7.438673	-83.415567	167.879947
36983		9.653542	-0.213330	1.270776	0.002930	0.008554	0.000184	-0.489502	-0.158691	0.578125	-7.441010	-83.409035	167.888970
36984		9.618916	-0.171205	1.268375	0.004937	0.008932	0.001842	-0.482178	-0.157959	0.576660	-7.436914	-83.406193	167.893659
36985		9.621623	-0.210426	1.285296	0.005855	0.000697	0.007143	-0.483154	-0.162598	0.568115	-7.476906	-83.403476	167.943586
36986		9.612027	-0.192498	1.257581	0.001315	-0.001651	0.001070	-0.486084	-0.158936	0.574707	-7.477901	-83.406702	167.951311
36987		9.632731	-0.203504	1.264488	0.000031	-0.005350	0.003441	-0.480713	-0.167480	0.579834	-7.506741	-83.407731	167.986185
36988		9.621761	-0.211346	1.284110	-0.003951	-0.011457	0.003565	-0.484619	-0.166992	0.576660	-7.529419	-83.416340	168.012700
36989		9.626173	-0.224826	1.251116	-0.009248	-0.015913	0.002620	-0.491455	-0.165771	0.573975	-7.566462	-83.423500	168.049918
36990		9.626387	-0.225210	1.249405	-0.010366	-0.019175	0.002823	-0.488525	-0.167969	0.575928	-7.594375	-83.436546	168.078002
36991		9.654154	-0.215976	1.265671	-0.014510	-0.025720	0.005118	-0.486328	-0.172363	0.567871	-7.653490	-83.448888	168.134441
36992		9.665525	-0.208888	1.242738	-0.016187	-0.025222	-0.000875	-0.481201	-0.168945	0.565918	-7.670737	-83.465645	168.148432
36993		9.698956	-0.186788	1.179132	-0.018614	-0.021205	0.004081	-0.485840	-0.169434	0.572998	-7.724103	-83.475656	168.196053
36994		9.724071	-0.211356	1.152590	-0.016604	-0.020827	0.005739	-0.479980	-0.173096	0.568848	-7.771760	-83.489405	168.240409
36995		9.744948	-0.222893	1.157927	-0.018969	-0.016729	0.004981	-0.485352	-0.166992	0.578369	-7.827058	-83.496843	168.289826
36996		9.723054	-0.238597	1.197142	-0.018967	-0.016729	0.004982	-0.480957	-0.166748	0.572510	-7.869830	-83.508316	168.327901
36997		9.724629	-0.213333	1.147511	-0.021862	-0.014221	0.001469	-0.483154	-0.163330	0.576904	-7.907825	-83.514621	168.358835
36998		9.706870	-0.241760	1.155599	-0.019625	-0.007697	0.001065	-0.483398	-0.166504	0.575195	-7.925347	-83.521272	168.371117
36999		9.693125	-0.210599	1.158949	-0.024689	-0.006003	-0.001935	-0.482178	-0.158447	0.575684	-7.942305	-83.523200	168.379487
37000		9.682134	-0.218114	1.179055	-0.024460	0.000145	-0.003993	-0.485596	-0.161133	0.575195	-7.931876	-83.525800	168.360850
37001		9.689010	-0.197661	1.190078	-0.020245	-0.004017	0.000588	-0.485840	-0.156494	0.570313	-7.957517	-83.526408	168.381068
37002		9.694549	-0.203237	1.248764	-0.021625	-0.008073	-0.000589	-0.484619	-0.169189	0.570313	-7.968245	-83.533403	168.385358
37003		9.673981	-0.192666	1.240710	-0.022049	-0.009307	0.000202	-0.486816	-0.169434	0.572998	-7.996590	-83.537010	168.406829
37004		9.687930	-0.224373	1.235580	-0.020732	-0.010960	0.001269	-0.485596	-0.166260	0.580078	-8.018209	-83.545494	168.422596
37005		9.639863	-0.223819	1.208776	-0.025226	-0.013033	0.004465	-0.486816	-0.167725	0.578613	-8.072480	-83.550872	168.467980
37006		9.681340	-0.246159	1.221987	-0.023682	-0.008536	0.003476	-0.485840	-0.167969	0.572021	-8.105280	-83.557800	168.493297
37007		9.638702	-0.251105	1.254936	-0.030381	-0.006069	0.003751	-0.479736	-0.166748	0.572510	-8.154009	-83.559289	168.530121
37008		9.629143	-0.233448	1.226440	-0.032184	-0.011359	0.003363	-0.479736	-0.161377	0.579834	-8.193280	-83.567823	168.557047
37009		9.659591	-0.263352	1.260180	-0.028898	-0.007281	0.002652	-0.483154	-0.165771	0.577148	-8.236507	-83.570275	168.589559
37010		9.645854	-0.232496	1.263626	-0.032217	-0.006001	-0.000065	-0.479736	-0.168945	0.578613	-8.254765	-83.576049	168.595321
37011		9.670781	-0.256671	1.238211	-0.027681	-0.009284	0.000172	-0.487549	-0.170898	0.571777	-8.286320	-83.579806	168.616527
37012		9.661228	-0.238499	1.209711	-0.027518	-0.008842	-0.001994	-0.479492	-0.163818	0.569336	-8.294297	-83.587350	168.614651
37013		9.661346	-0.238753	1.208715	-0.022453	-0.010541	0.001000	-0.482910	-0.165039	0.580811	-8.327910	-83.591688	168.640810
37014		9.661451	-0.238999	1.207824	-0.021177	-0.006835	-0.001365	-0.479248	-0.172607	0.571045	-8.333992	-83.598042	168.640683
37015		9.685048	-0.288910	1.230285	-0.016643	-0.010118	-0.001132	-0.481201	-0.164795	0.575684	-8.353244	-83.602409	168.655718
37016		9.682373	-0.249775	1.213036	-0.014847	-0.010441	-0.006572	-0.480469	-0.168701	0.574951	-8.332045	-83.611240	168.631788
37017		9.682518	-0.249639	1.211905	-0.013584	-0.012192	0.000207	-0.488281	-0.171143	0.577393	-8.357884	-83.616689	168.655431
37018		9.700535	-0.221644	1.201592	-0.017329	-0.012146	-0.001720	-0.483398	-0.168945	0.578369	-8.363949	-83.626082	168.657505
37019		9.700674	-0.221713	1.200456	-0.014898	-0.010538	-0.000855	-0.485107	-0.165771	0.576660	-8.384020	-83.630569	168.674367
37020		9.711782	-0.214221	1.179091	-0.015948	-0.008092	-0.000536	-0.481445	-0.167725	0.574219	-8.392315	-83.637565	168.679482
37021		9.693946	-0.170259	1.214223	-0.018270	-0.009354	0.002147	-0.476318	-0.174805	0.577637	-8.428651	-83.641206	168.711038
37022		9.703735	-0.189181	1.240932	-0.021060	-0.006489	0.002192	-0.484375	-0.169678	0.589355	-8.452613	-83.647065	168.728969
37023		9.676277	-0.199279	1.221615	-0.026341	-0.010940	0.001251	-0.481201	-0.168213	0.577881	-8.490220	-83.651790	168.756753
37024		9.694236	-0.171818	1.211683	-0.028333	-0.005704	0.005438	-0.487549	-0.168945	0.581543	-8.534385	-83.656926	168.790818
37025		9.670825	-0.195190	1.160992	-0.029381	-0.003258	0.005758	-0.483154	-0.164551	0.575928	-8.590884	-83.656807	168.836220
37026		9.669586	-0.222143	1.208371	-0.028593	-0.006494	0.004060	-0.478271	-0.169189	0.587402	-8.628892	-83.662503	168.863941
37027		9.668367	-0.249104	1.255600	-0.026585	-0.006123	0.005714	-0.479248	-0.161621	0.576172	-8.685782	-83.664124	168.911560
37028		9.668423	-0.249950	1.255002	-0.026159	-0.004887	0.004928	-0.482666	-0.166260	0.577148	-8.725684	-83.668829	168.942589
37029		9.661607	-0.271245	1.242927	-0.027270	-0.008150	0.005124	-0.477051	-0.172852	0.579590	-8.781556	-83.671629	168.988991
37030		9.672711	-0.264308	1.221414	-0.028910	-0.012991	0.002559	-0.482422	-0.163818	0.576904	-8.817460	-83.681124	169.014411
37031		9.660310	-0.207506	1.176729	-0.027687	-0.009387	0.005915	-0.478271	-0.168701	0.576416	-8.878650	-83.684593	169.065494
37032		9.672955	-0.193797	1.246118	-0.027904	-0.015543	0.007956	-0.481934	-0.168457	0.578857	-8.943871	-83.695049	169.120989
37033		9.699150	-0.192269	1.172081	-0.030532	-0.012229	0.005841	-0.480469	-0.172363	0.577881	-9.008728	-83.700120	169.174104
37034		9.663508	-0.177453	1.216266	-0.036419	-0.007396	0.010282	-0.484863	-0.170166	0.576416	-9.084445	-83.705741	169.235248
37035		9.687114	-0.228706	1.238290	-0.038058	-0.012235	0.007716	-0.489014	-0.174561	0.568359	-9.163350	-83.710574	169.297911
37036		9.677527	-0.211431	1.209611	-0.041685	-0.011844	0.009345	-0.476074	-0.166016	0.568604	-9.241229	-83.718779	169.358194
37037		9.656958	-0.201895	1.201412	-0.039518	-0.011027	0.008832	-0.488770	-0.167480	0.578369	-9.325771	-83.722791	169.425600
37038		9.666793	-0.221771	1.227669	-0.043254	-0.010973	0.006915	-0.485596	-0.163818	0.577637	-9.391632	-83.730712	169.472885
37039		9.659992	-0.243390	1.215144	-0.050197	-0.009292	0.005841	-0.474121	-0.172607	0.578125	-9.465885	-83.733931	169.524617
37040		9.684820	-0.268282	1.189324	-0.042286	-0.008162	0.008898	-0.481934	-0.166504	0.570068	-9.539241	-83.740063	169.580001
37041		9.691829	-0.249066	1.199757	-0.048711	-0.010498	0.004736	-0.479004	-0.171387	0.578125	-9.607893	-83.744298	169.626369
37042		9.712616	-0.260922	1.205735	-0.043964	-0.007625	0.002921	-0.476074	-0.167969	0.582764	-9.651139	-83.750685	169.650494
37043		9.716744	-0.274394	1.172994	-0.042221	-0.008046	0.003193	-0.486816	-0.169434	0.574219	-9.706179	-83.753723	169.687103
37044		9.705869	-0.282958	1.192485	-0.042215	-0.008046	0.003196	-0.487061	-0.163330	0.572754	-9.750353	-83.760317	169.713168
37045		9.726613	-0.294688	1.198804	-0.034781	-0.002784	0.003627	-0.484131	-0.169678	0.575439	-9.798841	-83.760071	169.747785
37046		9.685248	-0.273600	1.184612	-0.032353	-0.001181	0.004494	-0.481445	-0.171387	0.573975	-9.838046	-83.762658	169.774537
37047		9.723786	-0.257274	1.182759	-0.028549	0.004469	0.006556	-0.482666	-0.166016	0.567871	-9.891453	-83.758157	169.817260
37048		9.723725	-0.258186	1.183063	-0.027077	0.003263	0.005443	-0.479492	-0.163574	0.576660	-9.928550	-83.758137	169.844931
37049		9.723679	-0.258938	1.183278	-0.021713	0.002454	0.004078	-0.473633	-0.171875	0.569336	-9.967031	-83.755066	169.877139
37050		9.730532	-0.239357	1.195231	-0.027431	0.007731	0.006375	-0.482666	-0.172119	0.577393	-10.005064	-83.752428	169.905548
37051		9.698794	-0.237055	1.209212	-0.028384	0.004924	0.004395	-0.472412	-0.166748	0.584229	-10.046460	-83.748027	169.936070
37052		9.682078	-0.239324	1.170823	-0.029961	0.005801	0.001963	-0.482666	-0.176025	0.583496	-10.064927	-83.746916	169.943339
37053		9.681993	-0.239890	1.171412	-0.029269	0.007824	0.002564	-0.477783	-0.166992	0.582031	-10.094829	-83.741137	169.962160
37054		9.659948	-0.255965	1.212907	-0.028689	0.009520	-0.000384	-0.480957	-0.174072	0.578125	-10.097078	-83.738163	169.953846
37055		9.640418	-0.218566	1.159178	-0.021171	0.009529	-0.002266	-0.478027	-0.168701	0.572510	-10.095854	-83.731858	169.946059
37056		9.670678	-0.248546	1.194405	-0.022105	0.012300	0.001619	-0.471191	-0.166748	0.574463	-10.102083	-83.727114	169.945544
37057		9.680243	-0.267847	1.222705	-0.022947	0.009821	0.003185	-0.488281	-0.160889	0.582764	-10.129412	-83.720212	169.965553
37058		9.687047	-0.248127	1.235066	-0.019899	0.007737	0.004502	-0.483154	-0.175049	0.577637	-10.153306	-83.717752	169.984081
37059		9.662122	-0.297250	1.232937	-0.014540	0.006928	0.003136	-0.485107	-0.174561	0.576904	-10.178329	-83.712231	170.006903
37060		9.668990	-0.277413	1.244821	-0.016761	0.000403	0.003499	-0.479492	-0.174072	0.576904	-10.202000	-83.714006	170.027018
37061		9.689645	-0.288898	1.251803	-0.016337	0.001643	0.002717	-0.478027	-0.173584	0.577637	-10.230442	-83.711598	170.051427
37062		9.641370	-0.287810	1.226239	-0.016136	-0.003282	0.003946	-0.483154	-0.172363	0.572021	-10.259473	-83.715404	170.077293
37063		9.648319	-0.268112	1.237482	-0.014135	-0.002922	0.005597	-0.484375	-0.171143	0.577393	-10.305573	-83.715319	170.120819
37064		9.589101	-0.274751	1.231980	-0.014777	-0.004810	-0.000721	-0.482910	-0.164307	0.577393	-10.311406	-83.720461	170.124131
37065		9.652492	-0.281422	1.204432	-0.012466	-0.009052	0.005708	-0.472412	-0.173828	0.576172	-10.363067	-83.723755	170.174894
37066		9.645772	-0.230393	1.219772	-0.014464	-0.009412	0.004059	-0.481445	-0.168945	0.580566	-10.397613	-83.730996	170.207271
37067		9.649908	-0.243430	1.187015	-0.009887	-0.006994	0.004411	-0.475830	-0.175781	0.571533	-10.439117	-83.733451	170.248856
37068		9.645944	-0.231641	1.218172	-0.010464	-0.008693	0.007359	-0.480957	-0.174805	0.582275	-10.487778	-83.739939	170.297738
37069		9.699632	-0.219996	1.163185	-0.012351	-0.008729	0.009260	-0.481689	-0.171143	0.576660	-10.557174	-83.742819	170.365512
37070		9.692768	-0.241435	1.150750	-0.012084	-0.007948	0.010645	-0.476807	-0.172607	0.578125	-10.623134	-83.748530	170.430862
37071		9.706536	-0.273837	1.145531	-0.010129	-0.002204	0.008902	-0.477539	-0.172119	0.571533	-10.683285	-83.747749	170.491014
37072		9.703583	-0.307708	1.102067	-0.017149	0.004735	0.010166	-0.487061	-0.172852	0.577393	-10.737483	-83.746356	170.541612
37073		9.759778	-0.335742	1.064581	-0.014902	0.016829	0.015684	-0.475098	-0.167969	0.573486	-10.816419	-83.734044	170.617792
37074		9.814467	-0.390553	1.076609	-0.007588	0.043811	0.011825	-0.484375	-0.173584	0.579834	-10.835175	-83.710470	170.638248
37075		9.793200	-0.380961	1.074684	-0.004486	0.058386	0.015787	-0.478271	-0.173828	0.579834	-10.867493	-83.674861	170.673751
37076		9.780099	-0.417213	1.148588	0.003215	0.064422	0.017623	-0.479736	-0.162354	0.563477	-10.888953	-83.639061	170.703158
37077		9.742092	-0.430009	1.247981	0.000879	0.068531	0.016921	-0.478027	-0.172607	0.579590	-10.913402	-83.597650	170.733969
37078		9.755018	-0.391083	1.277904	-0.010345	0.068591	0.016888	-0.479492	-0.171875	0.576416	-10.934324	-83.559582	170.755020
37079		9.726707	-0.330333	1.293406	-0.015568	0.058769	0.019319	-0.484863	-0.172607	0.574707	-10.988776	-83.523471	170.806240
37080		9.713555	-0.346563	1.228049	-0.033422	0.055922	0.022981	-0.487061	-0.169678	0.576660	-11.064400	-83.491856	170.869042
37081		9.794147	-0.327546	1.198535	-0.041875	0.064071	0.025366	-0.476318	-0.165771	0.573242	-11.157190	-83.451911	170.943820
37082		9.831821	-0.313575	1.203881	-0.047390	0.080764	0.028020	-0.484375	-0.168213	0.575195	-11.239829	-83.405751	171.005637
37083		9.917290	-0.373971	1.208446	-0.051906	0.094869	0.036063	-0.482666	-0.172852	0.569092	-11.358215	-83.347457	171.100788
37084		9.929544	-0.409774	1.214078	-0.053573	0.117199	0.040837	-0.489258	-0.170654	0.574463	-11.468020	-83.279355	171.186406
37085		9.883101	-0.446270	1.307527	-0.053053	0.140344	0.045125	-0.481934	-0.171875	0.573486	-11.582068	-83.194345	171.276048
37086		9.817423	-0.444896	1.348121	-0.057376	0.154740	0.041771	-0.486084	-0.173828	0.566162	-11.658250	-83.105031	171.325635
37087		9.667326	-0.497475	1.380135	-0.069738	0.156633	0.034974	-0.483643	-0.170898	0.569580	-11.715265	-83.012136	171.348063
37088		9.571931	-0.531115	1.449666	-0.083210	0.160664	0.024962	-0.490723	-0.166504	0.574707	-11.721690	-82.921445	171.312469
37089		9.487768	-0.555670	1.498291	-0.094569	0.149013	0.005995	-0.490479	-0.173584	0.564209	-11.669498	-82.836181	171.211131
37090		9.367091	-0.574229	1.407677	-0.099042	0.130265	-0.008532	-0.487305	-0.180664	0.564697	-11.566025	-82.766407	171.055609
37091		9.338252	-0.726737	1.342254	-0.099050	0.108224	-0.022878	-0.482910	-0.171631	0.560547	-11.429849	-82.707266	170.865976
37092		9.325839	-0.881936	1.223506	-0.090866	0.109792	-0.036880	-0.494873	-0.176025	0.572266	-11.221013	-82.652085	170.608906
37093		9.284171	-0.999679	1.161854	-0.075996	0.119687	-0.057870	-0.493408	-0.175537	0.560303	-10.916823	-82.590232	170.263698
37094		9.272021	-0.935562	1.129980	-0.055613	0.123851	-0.078990	-0.492188	-0.173096	0.561523	-10.503436	-82.531271	169.820643
37095		9.326475	-0.919933	0.998212	-0.024621	0.147827	-0.095423	-0.491455	-0.173828	0.563965	-10.000302	-82.456669	169.304338
37096		9.419871	-0.885402	0.867958	-0.002266	0.163139	-0.106515	-0.491699	-0.171387	0.564209	-9.427249	-82.377192	168.730895
37097		9.567229	-0.826060	0.869090	0.019317	0.170740	-0.118416	-0.490234	-0.172363	0.558350	-8.809170	-82.290536	168.124210
37098		9.711167	-0.787457	1.009638	0.036126	0.170060	-0.125216	-0.491211	-0.172363	0.560303	-8.157108	-82.207110	167.493004
37099		9.848321	-0.701534	1.075082	0.049198	0.148014	-0.126324	-0.492676	-0.176514	0.560547	-7.529331	-82.132272	166.893541
37100		10.005427	-0.663841	1.011759	0.052268	0.140526	-0.121591	-0.498047	-0.180420	0.557129	-6.923625	-82.063525	166.318245
37101		10.036951	-0.588217	0.951281	0.048126	0.145031	-0.107543	-0.497559	-0.175781	0.555664	-6.396294	-81.987420	165.818796
37102		10.052973	-0.477495	0.986331	0.045222	0.136927	-0.095048	-0.498535	-0.180664	0.555664	-5.922713	-81.917631	165.372656
37103		10.011116	-0.446396	0.984269	0.041883	0.116940	-0.080846	-0.498047	-0.166504	0.553955	-5.534473	-81.854890	165.009940
37104		9.940876	-0.421002	1.051652	0.041749	0.095650	-0.063928	-0.500977	-0.180908	0.562988	-5.215355	-81.806129	164.717700
37105		9.901660	-0.432204	1.061373	0.034243	0.090513	-0.055261	-0.491943	-0.177734	0.565430	-4.951716	-81.756667	164.476997
37106		9.877608	-0.443395	1.110150	0.026217	0.089679	-0.039921	-0.496338	-0.185059	0.556885	-4.744372	-81.709772	164.288641
37107		9.846154	-0.508670	1.103306	0.015454	0.096789	-0.031417	-0.499512	-0.184326	0.555908	-4.587596	-81.655614	164.144135
37108		9.827138	-0.534247	1.121762	0.005793	0.117806	-0.024002	-0.498291	-0.177002	0.555176	-4.449390	-81.591780	164.013781
37109		9.754807	-0.613280	1.209003	-0.001692	0.128704	-0.019641	-0.504883	-0.180176	0.568359	-4.342443	-81.518665	163.909659
37110		9.690652	-0.677752	1.217689	-0.007138	0.134415	-0.019512	-0.507324	-0.179688	0.551025	-4.227939	-81.445074	163.795732
37111		9.652023	-0.628579	1.318813	-0.006282	0.142149	-0.018620	-0.498779	-0.175049	0.560547	-4.127871	-81.364096	163.696180
37112		9.626149	-0.675414	1.327681	-0.013340	0.132085	-0.023764	-0.502686	-0.180664	0.552246	-4.005480	-81.291945	163.570634
37113		9.625105	-0.640656	1.384269	-0.034373	0.135510	-0.030083	-0.494873	-0.182129	0.552002	-3.884508	-81.215359	163.433705
37114		9.583595	-0.515938	1.211785	-0.057119	0.128400	-0.039315	-0.504395	-0.176758	0.551025	-3.735001	-81.145822	163.255286
37115		9.625032	-0.366956	1.008368	-0.085146	0.148436	-0.056036	-0.495850	-0.180908	0.551514	-3.550201	-81.062749	163.023986
37116		9.760955	-0.186221	0.907879	-0.104208	0.193558	-0.078562	-0.510498	-0.178955	0.552734	-3.278174	-80.957097	162.694123
37117		9.855479	0.081609	1.036678	-0.126916	0.264958	-0.106004	-0.504150	-0.191406	0.551025	-2.927335	-80.808604	162.270469
37118		9.786679	0.288561	1.503364	-0.136519	0.314694	-0.130891	-0.508545	-0.188232	0.546387	-2.488723	-80.634412	161.752788
37119		9.663512	0.274785	1.876551	-0.120585	0.293030	-0.154278	-0.500000	-0.185791	0.540771	-1.992291	-80.469954	161.183933
37120		9.532959	0.220038	1.980108	-0.052388	0.260965	-0.177138	-0.508301	-0.189209	0.543701	-1.390161	-80.325861	160.548812
37121		9.463941	0.299248	2.172817	0.046866	0.207078	-0.187495	-0.512451	-0.191162	0.541260	-0.728500	-80.209211	159.909605
37122		9.433449	0.267663	2.334644	0.126776	0.146760	-0.188907	-0.509033	-0.181885	0.536621	-0.021420	-80.128200	159.271718
37123		9.538517	0.076294	2.016292	0.199917	0.105695	-0.177896	-0.505127	-0.191650	0.540527	0.670877	-80.066896	158.690406
37124		9.635117	-0.089380	1.611251	0.293306	0.132821	-0.172004	-0.506348	-0.184326	0.538086	1.398614	-79.991391	158.128153
37125		9.676307	-0.186280	1.513141	0.387700	0.210679	-0.165068	-0.506348	-0.188965	0.539307	2.128665	-79.867877	157.617177
37126		9.723152	-0.237065	1.538203	0.470987	0.273464	-0.143517	-0.506836	-0.180908	0.542725	2.824334	-79.710144	157.190530
37127		9.623579	-0.249125	1.617754	0.546415	0.329961	-0.112542	-0.516846	-0.185303	0.539795	3.429403	-79.518018	156.898653
37128		9.501794	-0.127528	1.776597	0.608764	0.394486	-0.054995	-0.513916	-0.176514	0.543457	3.876849	-79.292799	156.804319
37129		9.313991	-0.037898	1.916744	0.663580	0.437406	0.008434	-0.514648	-0.177246	0.533203	4.137553	-79.043178	156.930994
37130		9.223656	-0.062229	2.105731	0.698519	0.434157	0.073684	-0.510010	-0.170410	0.532471	4.237523	-78.800520	157.242982
37131		9.275117	0.020000	2.029428	0.701237	0.386737	0.131268	-0.519043	-0.165283	0.537354	4.181020	-78.585216	157.715007
37132		9.499656	0.077313	1.746197	0.678734	0.336849	0.179665	-0.509521	-0.161621	0.528320	4.005316	-78.402405	158.297221
37133		9.798188	0.144723	1.391001	0.648842	0.301426	0.210906	-0.516846	-0.159668	0.531494	3.736161	-78.238537	158.956567
37134		10.061097	0.178676	1.153445	0.619826	0.302516	0.222574	-0.525391	-0.160156	0.526611	3.439932	-78.075880	159.628147
37135		10.321383	0.281827	0.941649	0.589197	0.319927	0.202542	-0.515381	-0.149658	0.530273	3.182713	-77.899709	160.240434
37136		10.333976	0.374875	0.868238	0.568069	0.320165	0.173156	-0.519287	-0.142090	0.520752	3.010849	-77.724249	160.755304
37137		10.202738	0.434256	0.989257	0.537449	0.301707	0.124535	-0.523682	-0.135742	0.531982	2.952325	-77.555779	161.135284
37138		10.063892	0.474841	1.215799	0.501577	0.283394	0.067528	-0.522705	-0.143311	0.525879	3.034730	-77.398005	161.351323
37139		10.025495	0.610000	1.381076	0.477395	0.208965	0.007971	-0.529053	-0.131836	0.526367	3.258736	-77.279196	161.407083
37140		9.792624	0.683058	1.321821	0.459222	0.116087	-0.046638	-0.528320	-0.136230	0.529785	3.629251	-77.213552	161.303037
37141		9.680958	0.702844	1.255982	0.447885	0.071273	-0.105808	-0.533936	-0.134521	0.539063	4.139883	-77.169064	161.047727
37142		9.749522	0.734619	1.308801	0.435500	0.020813	-0.153577	-0.524414	-0.135254	0.516357	4.777635	-77.152683	160.655617
37143		9.874885	0.759815	1.179286	0.401049	-0.009302	-0.191782	-0.523926	-0.128906	0.533691	5.490001	-77.148534	160.165577
37144		9.903227	0.798430	0.958028	0.365111	0.015466	-0.220902	-0.529053	-0.132568	0.523193	6.254298	-77.129109	159.602264
37145		9.814951	0.840453	0.966634	0.330967	0.049187	-0.232878	-0.525391	-0.132324	0.531738	7.009629	-77.086205	159.027164
37146		9.651277	1.037860	0.976545	0.297376	0.072166	-0.231832	-0.531982	-0.125977	0.530273	7.738065	-77.030479	158.460644
37147		9.501964	1.106137	0.958185	0.266677	0.091518	-0.214614	-0.528076	-0.130859	0.517822	8.387375	-76.961880	157.956434
37148		9.428919	1.112179	0.914409	0.229819	0.127747	-0.190220	-0.520020	-0.139893	0.529785	8.943371	-76.875419	157.526889
37149		9.486294	1.006884	0.927859	0.190869	0.158595	-0.166330	-0.526123	-0.123779	0.523438	9.394611	-76.771154	157.180946
37150		9.300914	1.010047	0.938215	0.139739	0.195624	-0.134361	-0.529541	-0.131104	0.521729	9.725479	-76.650150	156.929326
37151		9.120445	1.031176	0.959625	0.074970	0.184818	-0.105941	-0.533203	-0.134277	0.529541	9.945370	-76.536154	156.752958
37152		8.963901	1.157872	1.028084	0.017579	0.141764	-0.078086	-0.523193	-0.132080	0.522949	10.088293	-76.450690	156.622419
37153		8.807565	1.317851	1.012827	-0.040806	0.100595	-0.053664	-0.529297	-0.127686	0.518555	10.150765	-76.389380	156.539564
37154		8.902442	1.445511	1.002509	-0.083068	0.053703	-0.037362	-0.530273	-0.131836	0.517578	10.175945	-76.357620	156.470775
37155		9.076819	1.512779	0.903433	-0.115460	0.035214	-0.033743	-0.526855	-0.132080	0.515869	10.176177	-76.335206	156.408028
37156		9.199328	1.710800	0.900994	-0.137446	0.026896	-0.037983	-0.530029	-0.135254	0.518799	10.182524	-76.318495	156.326543
37157		9.304387	1.629560	0.858947	-0.151842	0.003741	-0.037141	-0.530029	-0.125977	0.527100	10.183235	-76.313583	156.241861
37158		9.599491	1.391372	0.771523	-0.144774	-0.019928	-0.039627	-0.526367	-0.139893	0.522705	10.208628	-76.323105	156.136450
37159		9.679569	1.143658	0.683195	-0.134230	-0.056806	-0.048281	-0.533936	-0.132813	0.522949	10.271163	-76.351302	155.998615
37160		9.490169	1.089791	0.592164	-0.125167	-0.082098	-0.037888	-0.525146	-0.133057	0.527344	10.330527	-76.396003	155.869833
37161		9.317444	1.121348	0.600700	-0.130254	-0.074162	-0.014727	-0.530518	-0.133057	0.526123	10.325718	-76.437475	155.803703
37162		9.227223	1.076363	0.671855	-0.141974	-0.082556	0.014984	-0.533936	-0.133545	0.522217	10.252666	-76.487851	155.801263
37163		9.249679	0.967919	0.644609	-0.166164	-0.117722	0.032633	-0.527588	-0.139160	0.531738	10.134669	-76.558810	155.830427
37164		9.426081	0.992746	0.610004	-0.196502	-0.131716	0.035399	-0.520996	-0.128418	0.529053	10.001912	-76.638966	155.857248
37165		9.592181	0.936154	0.692539	-0.227710	-0.151330	0.026492	-0.523438	-0.132080	0.525879	9.875997	-76.728414	155.858328
37166		9.674401	0.934184	0.581930	-0.270106	-0.167261	0.008340	-0.525146	-0.145264	0.527832	9.779078	-76.825964	155.804996
37167		9.848145	0.999465	0.525136	-0.297642	-0.133054	-0.013140	-0.518066	-0.136475	0.528320	9.700315	-76.901320	155.716498
37168		9.734685	1.000916	0.623605	-0.312032	-0.104675	-0.033261	-0.521729	-0.140137	0.532471	9.654151	-76.959546	155.586434
37169		9.713614	0.914548	0.692923	-0.306147	-0.130176	-0.048175	-0.525879	-0.137451	0.521973	9.655677	-77.030081	155.410641
37170		9.659634	0.928143	0.741732	-0.293944	-0.135716	-0.052801	-0.521729	-0.144775	0.529297	9.682295	-77.103964	155.216606
37171		9.634161	0.973621	0.882442	-0.286508	-0.115457	-0.050065	-0.515137	-0.142090	0.528320	9.695823	-77.166024	155.040155
37172		9.733388	1.036941	1.268506	-0.288928	-0.073661	-0.043279	-0.527588	-0.154297	0.531982	9.677283	-77.205763	154.895470
37173		9.806106	0.929337	1.671744	-0.296471	-0.062685	-0.039520	-0.524414	-0.148193	0.524902	9.637905	-77.239151	154.767475
37174		9.900092	0.658240	1.997414	-0.291884	-0.113048	-0.055537	-0.518311	-0.147461	0.529541	9.665920	-77.299980	154.573373
37175		9.899359	0.347126	2.052333	-0.251800	-0.195971	-0.087359	-0.510986	-0.157959	0.528809	9.831766	-77.403957	154.261392
37176		10.094210	0.156286	2.115995	-0.196203	-0.242190	-0.124808	-0.509033	-0.151123	0.531738	10.152903	-77.530515	153.823323
37177		10.341435	-0.102889	2.241311	-0.124538	-0.274484	-0.158651	-0.509766	-0.158936	0.534180	10.623009	-77.670674	153.274739
37178		10.440553	-0.430196	2.297313	-0.071986	-0.308797	-0.200364	-0.513184	-0.150391	0.535156	11.264127	-77.824888	152.582533
37179		10.455925	-0.782721	2.006450	-0.021725	-0.375309	-0.234550	-0.506592	-0.156006	0.534424	12.075370	-78.010149	151.745999
37180		10.482849	-0.872893	1.690929	0.041435	-0.417171	-0.247588	-0.507080	-0.163330	0.537354	13.012595	-78.214940	150.818549
37181		10.573324	-0.508716	1.551587	0.105115	-0.413802	-0.234973	-0.504395	-0.157471	0.540771	13.978993	-78.415948	149.898942
37182		10.500590	0.190736	1.585735	0.150515	-0.412643	-0.191989	-0.499512	-0.159180	0.547119	14.889351	-78.619753	149.064037
37183		10.490646	0.821207	1.604565	0.175100	-0.426417	-0.116155	-0.495361	-0.161377	0.543213	15.640362	-78.839873	148.406305
37184		10.353901	1.320362	1.587334	0.176792	-0.448780	-0.024955	-0.494873	-0.154297	0.545654	16.183543	-79.085470	147.962126
37185		10.297137	1.597445	1.568321	0.173116	-0.469945	0.070867	-0.497314	-0.152100	0.550049	16.481953	-79.357221	147.765069
37186		10.216529	1.731866	1.604834	0.132183	-0.462283	0.162319	-0.501953	-0.151611	0.549805	16.492432	-79.639820	147.837459
37187		10.058923	1.615172	1.777623	0.048862	-0.464777	0.242613	-0.484131	-0.150391	0.552490	16.202483	-79.936370	148.166334
37188		9.877618	1.324284	1.907641	-0.055127	-0.494481	0.300019	-0.489014	-0.150391	0.558105	15.680297	-80.258242	148.670364
37189		9.697562	1.053471	1.928728	-0.160599	-0.523571	0.328874	-0.487305	-0.150146	0.564453	14.987953	-80.599306	149.284978
37190		9.298561	0.780180	2.061801	-0.249620	-0.496848	0.335400	-0.483643	-0.147949	0.559082	14.152134	-80.925427	149.992873
37191		9.022918	0.486051	2.293448	-0.335830	-0.471367	0.318543	-0.488281	-0.145996	0.572998	13.244269	-81.232926	150.722911
37192		8.804363	0.308172	2.660844	-0.425734	-0.432099	0.277558	-0.481201	-0.145264	0.572266	12.350009	-81.511855	151.386674
37193		8.697463	0.346727	2.935475	-0.502972	-0.410111	0.205301	-0.487061	-0.153809	0.567627	11.617059	-81.767976	151.842132
37194		8.645155	0.252064	2.843157	-0.547487	-0.387760	0.121280	-0.477783	-0.153809	0.576172	11.143281	-82.001781	152.009822
37195		8.902539	-0.120753	2.706940	-0.542598	-0.315006	0.017747	-0.477783	-0.161621	0.581299	11.016280	-82.182553	151.830000
37196		9.019558	-0.657126	2.491897	-0.488493	-0.206123	-0.086626	-0.478271	-0.157227	0.575928	11.271378	-82.291128	151.296043
37197		9.296038	-1.088771	2.346763	-0.420508	-0.086988	-0.185676	-0.474365	-0.162598	0.574951	11.881656	-82.320282	150.442935
37198		9.530997	-1.306201	2.116366	-0.353461	0.027326	-0.260635	-0.475830	-0.174561	0.568359	12.743970	-82.275420	149.374384
37199		9.807842	-1.316924	1.878150	-0.292176	0.146270	-0.293271	-0.476074	-0.164551	0.577637	13.638849	-82.157075	148.307941
37200		10.081944	-1.178615	1.912971	-0.250017	0.229745	-0.273503	-0.478516	-0.177979	0.569580	14.370136	-81.993687	147.430953
37201		10.077241	-0.832107	2.120723	-0.215005	0.245931	-0.197862	-0.482178	-0.168945	0.573975	14.774301	-81.830414	146.904059
37202		9.988548	-0.486005	2.404214	-0.173523	0.187250	-0.100801	-0.479492	-0.183350	0.567871	14.882213	-81.714170	146.700553
37203		9.901538	-0.377828	2.468345	-0.125153	0.023393	-0.006414	-0.473633	-0.178955	0.571777	14.815579	-81.701855	146.701144
37204		10.103942	-0.288396	2.348893	-0.086447	-0.100372	0.090164	-0.468018	-0.177490	0.561523	14.533271	-81.772828	146.942348
37205		10.203091	-0.091602	2.265524	-0.080344	-0.187635	0.177425	-0.479736	-0.179443	0.568115	13.988989	-81.903659	147.451355
37206		10.361533	0.045619	2.186691	-0.106688	-0.243338	0.262409	-0.475586	-0.177734	0.559082	13.132388	-82.076718	148.260644
37207		10.542322	0.062414	1.980386	-0.146341	-0.295913	0.339542	-0.474609	-0.182617	0.568359	11.936604	-82.285895	149.388634
37208		10.549089	0.097128	1.655877	-0.165716	-0.278644	0.386488	-0.476563	-0.179199	0.577148	10.458833	-82.487817	150.789725
37209		10.505178	0.176046	1.534808	-0.187917	-0.209260	0.413659	-0.476807	-0.168457	0.567627	8.715332	-82.646983	152.445004
37210		10.075142	-0.036510	1.623328	-0.222888	-0.169441	0.419935	-0.473389	-0.176758	0.572754	6.835654	-82.778065	154.217209
37211		9.678502	-0.202345	1.517739	-0.265591	-0.115277	0.400268	-0.473877	-0.170898	0.577148	4.926649	-82.868660	155.993623
37212		9.550445	-0.359618	1.627084	-0.297330	-0.073776	0.372073	-0.469727	-0.172119	0.572510	3.081403	-82.928070	157.687425
37213		9.302855	-0.437151	1.615824	-0.326082	-0.040260	0.341566	-0.475830	-0.167969	0.566895	1.322121	-82.960046	159.277616
37214		9.083394	-0.479952	1.487885	-0.322542	-0.004937	0.316151	-0.482178	-0.165527	0.569336	-0.322713	-82.966820	160.754692
37215		8.892092	-0.481577	1.335378	-0.295336	0.045523	0.294754	-0.480469	-0.171143	0.582031	-1.854799	-82.938749	162.133757
37216		8.831131	-0.522652	1.241808	-0.253419	0.072968	0.265429	-0.480469	-0.165283	0.578125	-3.201421	-82.892642	163.350389
37217		8.805762	-0.668208	1.215816	-0.217891	0.098361	0.235387	-0.475098	-0.168701	0.569824	-4.372481	-82.828796	164.410663
37218		8.976447	-0.839103	1.082146	-0.184075	0.102717	0.212712	-0.477783	-0.174561	0.562744	-5.393464	-82.762151	165.339432
37219		9.098623	-0.939696	0.860227	-0.146751	0.112231	0.194322	-0.480225	-0.175293	0.566162	-6.295579	-82.688074	166.169786
37220		9.253972	-1.004102	0.763183	-0.107084	0.145201	0.182020	-0.485840	-0.172852	0.565918	-7.079102	-82.595667	166.903921
37221		9.275708	-1.039485	0.842604	-0.070317	0.153540	0.173659	-0.485840	-0.170654	0.568848	-7.788614	-82.496752	167.584458
37222		9.211086	-1.155752	0.957523	-0.032019	0.122908	0.157526	-0.483887	-0.164551	0.560791	-8.402354	-82.416685	168.191023
37223		9.182189	-1.249792	0.916877	0.009498	0.047651	0.131464	-0.486328	-0.170166	0.563965	-8.926892	-82.379538	168.731439
37224		8.985636	-1.486264	0.713013	0.052456	-0.012897	0.090726	-0.483398	-0.164795	0.562988	-9.285037	-82.380968	169.129072
37225		8.992778	-1.409369	0.570506	0.094206	-0.034294	0.037079	-0.480225	-0.161621	0.573730	-9.415233	-82.398111	169.320541
37226		8.903757	-1.314603	0.555140	0.136575	-0.064099	0.003574	-0.476318	-0.171143	0.569824	-9.393125	-82.436368	169.383153
37227		8.572262	-1.260105	0.500261	0.173990	-0.055283	-0.051925	-0.478271	-0.165039	0.569824	-9.114168	-82.473798	169.207987
37228		8.631384	-1.169286	0.623209	0.195952	-0.080303	-0.107243	-0.486084	-0.171387	0.563965	-8.590111	-82.531077	168.798624
37229		8.830765	-0.945322	0.547003	0.216438	-0.119907	-0.138511	-0.486328	-0.151367	0.569092	-7.943756	-82.611801	168.277358
37230		8.466079	-0.904439	0.547442	0.243025	-0.126087	-0.169797	-0.474609	-0.160889	0.568359	-7.125109	-82.698543	167.598305
37231		8.329525	-0.706082	0.708708	0.274032	-0.153022	-0.219893	-0.471680	-0.162354	0.564941	-6.068563	-82.801496	166.697305
37232		8.462215	-0.669959	0.597501	0.299275	-0.196237	-0.239159	-0.469482	-0.159912	0.580566	-4.887837	-82.928874	165.686144
37233		7.938102	-0.890931	0.487277	0.316501	-0.214405	-0.264721	-0.474854	-0.160645	0.580078	-3.553463	-83.064125	164.530025
37234		8.212259	-0.710992	0.505950	0.290722	-0.243320	-0.285873	-0.470947	-0.166016	0.579102	-2.077967	-83.213795	163.217626
37235		9.339202	-0.448288	0.253699	0.252616	-0.317901	-0.252010	-0.468262	-0.161865	0.575684	-0.746070	-83.401072	162.027827
37236		10.430384	-0.197152	-0.179011	0.216669	-0.312959	-0.195143	-0.466064	-0.161377	0.583984	0.360062	-83.583133	161.045431
37237		10.962058	-0.114004	-0.156282	0.175691	-0.198763	-0.134575	-0.468262	-0.153564	0.584473	1.161203	-83.697705	160.346111
37238		10.881980	-0.253498	0.249780	0.140470	-0.162313	-0.081025	-0.466064	-0.165039	0.592285	1.694036	-83.791881	159.897009
37239		10.746409	-0.395280	0.159565	0.108582	-0.195577	-0.052553	-0.467529	-0.151367	0.588867	2.064494	-83.904723	159.592565
37240		10.860118	-0.405206	-0.212059	0.086889	-0.142286	-0.051040	-0.468750	-0.164795	0.586914	2.428119	-83.987397	159.282919
37241		10.817761	-0.361117	-0.376321	0.073018	-0.064943	-0.046090	-0.463623	-0.162354	0.592773	2.731757	-84.025238	159.025246
37242		10.600308	-0.387272	-0.622739	0.061714	-0.002299	-0.039281	-0.466797	-0.166260	0.592041	2.991026	-84.027786	158.806069
37243		10.555472	-0.528944	-0.696229	0.079614	0.091898	-0.029833	-0.469727	-0.156006	0.588135	3.167387	-83.976319	158.679977
37244		10.794763	-0.647987	-0.219612	0.098651	0.223272	-0.023473	-0.462158	-0.156494	0.595703	3.290805	-83.850193	158.618658
37245		11.046246	-0.628906	0.591382	0.098589	0.302248	-0.011888	-0.468994	-0.155273	0.586670	3.313226	-83.679052	158.658500
37246		11.613009	-0.382678	1.226206	0.048279	0.270766	0.030344	-0.463135	-0.153564	0.582764	3.116862	-83.527488	158.889888
37247		12.348413	0.186929	1.516018	-0.046660	0.147824	0.121034	-0.466064	-0.165039	0.584717	2.442433	-83.448395	159.547310
37248		12.597970	0.786506	1.457716	-0.170768	0.023002	0.219928	-0.468506	-0.149658	0.588623	1.252694	-83.441646	160.652352
37249		12.632699	1.150630	1.124301	-0.259438	-0.114936	0.310896	-0.478027	-0.157959	0.590576	-0.454723	-83.510870	162.226731
37250		12.391214	1.010296	0.530881	-0.286550	-0.150548	0.367533	-0.473389	-0.159668	0.584961	-2.494750	-83.594060	164.120472
37251		11.655072	0.470313	0.430058	-0.238254	-0.037762	0.360474	-0.466797	-0.152588	0.590332	-4.486794	-83.605076	165.993112
37252		10.815872	-0.285397	0.699299	-0.169473	0.078460	0.293022	-0.471924	-0.155518	0.585449	-6.026956	-83.547294	167.451249
37253		10.154439	-1.014476	1.049850	-0.121860	0.121274	0.202390	-0.469238	-0.152344	0.579834	-7.046271	-83.467112	168.412446
37254		9.612358	-1.581657	1.110994	-0.077661	0.083019	0.106673	-0.474854	-0.151367	0.583496	-7.560846	-83.414528	168.891582
37255		9.189524	-1.968451	1.000978	-0.015575	-0.012111	0.016967	-0.476563	-0.156494	0.587891	-7.668720	-83.422085	168.996740
37256		9.091695	-2.081776	1.105784	0.074002	-0.059572	-0.053863	-0.473389	-0.152832	0.582031	-7.394605	-83.462333	168.769459
37257		8.967996	-1.974286	1.362584	0.175942	-0.103801	-0.104018	-0.468018	-0.145020	0.592285	-6.848018	-83.530702	168.326244
37258		8.870222	-1.728572	1.416760	0.277817	-0.148441	-0.131198	-0.472656	-0.153564	0.598633	-6.105606	-83.626058	167.745286
37259		8.830227	-1.244870	1.324060	0.363659	-0.174498	-0.143803	-0.466064	-0.156738	0.593994	-5.255583	-83.735765	167.105274
37260		8.760242	-0.734585	1.513729	0.418213	-0.181805	-0.123268	-0.472412	-0.150146	0.601318	-4.444551	-83.847902	166.536446
37261		8.664809	-0.235743	2.001106	0.453125	-0.208068	-0.081145	-0.465576	-0.150635	0.598389	-3.840411	-83.972199	166.195328
37262		8.579391	0.253369	2.279038	0.475835	-0.253627	-0.017006	-0.468506	-0.143799	0.596680	-3.558588	-84.120213	166.192042
37263		8.621693	0.644341	2.379775	0.495159	-0.281607	0.060545	-0.464600	-0.138916	0.606689	-3.726509	-84.280950	166.651382
37264		8.599885	0.928985	2.435813	0.510144	-0.255627	0.148475	-0.463867	-0.143555	0.607178	-4.391412	-84.423401	167.619195
37265		8.609662	1.251401	2.553053	0.506952	-0.188268	0.249009	-0.460449	-0.126709	0.614990	-5.677485	-84.520143	169.208533
37266		8.449671	1.493616	2.647668	0.462328	-0.092006	0.351115	-0.461426	-0.134766	0.617920	-7.560722	-84.551692	171.372417
37267		8.451465	1.670548	2.697946	0.396878	-0.029205	0.443051	-0.459961	-0.126709	0.610352	-9.996076	-84.531082	174.052808
37268		8.590844	1.707130	2.581500	0.322262	0.028572	0.502147	-0.465088	-0.115479	0.611084	-12.703089	-84.460738	176.963800
37269		8.833337	1.546829	2.550652	0.262522	0.073676	0.523950	-0.458984	-0.121338	0.613281	-15.430260	-84.348098	179.860697
37270		8.992538	1.067168	2.526750	0.218659	0.071205	0.503109	-0.462891	-0.113037	0.612793	-17.948190	-84.228513	-177.476957
37271		9.569594	0.496371	2.325868	0.182694	0.021487	0.439266	-0.461426	-0.107178	0.615723	-20.147898	-84.135839	-175.155075
37272		10.122228	-0.062546	2.115458	0.155695	-0.023264	0.350724	-0.455811	-0.102539	0.611572	-21.923286	-84.078403	-173.274623
37273		10.955561	-0.473063	1.979087	0.149683	-0.083486	0.264834	-0.463623	-0.102051	0.622314	-23.372110	-84.065084	-171.726157
37274		10.796174	-0.942757	1.899295	0.154740	-0.053540	0.167359	-0.455322	-0.099609	0.625000	-24.247778	-84.056662	-170.750672
37275		10.589528	-1.114997	1.736786	0.164124	-0.096398	0.067426	-0.464355	-0.098389	0.609375	-24.721639	-84.091779	-170.174098
37276		10.276882	-1.106860	1.479256	0.202501	-0.123182	-0.030145	-0.461914	-0.093018	0.624512	-24.742622	-84.165320	-170.030416
37277		10.103407	-0.942013	1.222015	0.251254	-0.132517	-0.110750	-0.456543	-0.093018	0.619873	-24.349401	-84.261555	-170.275339
37278		10.067078	-0.734403	0.962641	0.297679	-0.100863	-0.175097	-0.454346	-0.092041	0.617676	-23.496087	-84.357286	-170.955526
37279		10.074323	-0.591742	0.880039	0.345819	-0.054352	-0.222627	-0.453857	-0.091064	0.622070	-22.232649	-84.436389	-172.020332
37280		10.144986	-0.320531	0.727275	0.387298	-0.016154	-0.260491	-0.458008	-0.087402	0.618896	-20.612399	-84.501779	-173.419266
37281		10.068937	-0.046647	0.811279	0.436384	-0.005984	-0.284602	-0.452148	-0.091797	0.622314	-18.779956	-84.560902	-175.003313
37282		9.961163	0.256448	0.856677	0.470414	-0.016759	-0.288144	-0.452148	-0.082520	0.624756	-16.881580	-84.622900	-176.633496
37283		9.903199	0.491563	0.821409	0.478672	-0.034732	-0.284651	-0.456787	-0.081543	0.627686	-14.997779	-84.687869	-178.244460
37284		9.685635	0.675566	0.829293	0.465825	-0.051840	-0.274039	-0.463135	-0.083740	0.630615	-13.159064	-84.757210	-179.817020
37285		9.498791	0.852067	0.821139	0.433293	-0.063673	-0.257575	-0.457031	-0.086670	0.621338	-11.421429	-84.825408	178.693049
37286		9.394478	0.952105	0.722127	0.378976	-0.070357	-0.239180	-0.450928	-0.080322	0.620361	-9.786853	-84.892607	177.275831
37287		9.156073	1.025686	0.720314	0.327819	-0.017516	-0.220513	-0.444336	-0.076904	0.624268	-8.222088	-84.923512	175.899075
37288		8.919709	0.863536	0.944425	0.284128	0.001609	-0.207092	-0.457275	-0.073730	0.624512	-6.727268	-84.940400	174.567765
37289		8.814755	0.760510	1.054306	0.248674	-0.022338	-0.197899	-0.462402	-0.075928	0.630859	-5.327523	-84.966314	173.311272
37290		8.817744	0.730228	0.899088	0.211141	-0.051938	-0.186650	-0.454346	-0.072266	0.631348	-4.013722	-85.007054	172.119810
37291		8.936518	0.748121	0.729538	0.163548	-0.048129	-0.166441	-0.452148	-0.072266	0.631836	-2.848731	-85.041599	171.050151
37292		8.968268	0.820005	0.560483	0.105919	-0.016515	-0.145034	-0.453613	-0.071289	0.629639	-1.827491	-85.056815	170.091944
37293		9.017010	0.895459	0.433384	0.055770	0.031670	-0.116032	-0.453857	-0.069580	0.631104	-1.025078	-85.041682	169.324295
37294		8.912612	1.069951	0.315625	-0.005843	0.070075	-0.076271	-0.450439	-0.064941	0.623779	-0.513231	-85.004490	168.813094
37295		8.965403	1.272232	0.202558	-0.068990	0.075366	-0.047822	-0.447998	-0.067139	0.634766	-0.238235	-84.962884	168.503076
37296		9.099620	1.360060	-0.035518	-0.136147	0.092092	-0.008169	-0.457520	-0.076172	0.634277	-0.253399	-84.912507	168.445932
37297		9.181428	1.193781	-0.220360	-0.194086	0.117993	0.026979	-0.456055	-0.071533	0.629639	-0.531701	-84.846245	168.619443
37298		9.308806	1.043219	-0.348768	-0.239449	0.117505	0.055988	-0.455811	-0.070068	0.627441	-1.005155	-84.780864	168.963031
37299		9.290327	0.947607	-0.171012	-0.283793	0.131001	0.088659	-0.447998	-0.064209	0.636475	-1.699631	-84.706143	169.502920
37300		9.199202	0.893926	-0.046678	-0.319983	0.111352	0.119894	-0.457031	-0.079834	0.622314	-2.587213	-84.642187	170.216166
37301		9.070690	0.713550	-0.060906	-0.351410	0.076626	0.140520	-0.447021	-0.067871	0.628174	-3.615764	-84.595563	171.052826
37302		8.987366	0.570734	-0.074702	-0.370724	0.031279	0.149382	-0.464111	-0.076172	0.628906	-4.709309	-84.573847	171.943860
37303		8.862009	0.550820	-0.280261	-0.380032	-0.036186	0.142881	-0.450684	-0.073975	0.630127	-5.805620	-84.588613	172.832179
37304		8.825784	0.438883	-0.470016	-0.380432	-0.066763	0.143385	-0.451904	-0.072266	0.632568	-6.928252	-84.619888	173.746813
37305		8.846501	0.291205	-0.557405	-0.378571	-0.052235	0.137362	-0.447021	-0.074707	0.629150	-8.016396	-84.641014	174.627712
37306		9.003611	0.028047	-0.550353	-0.368722	-0.036810	0.136623	-0.451660	-0.076172	0.628906	-9.083530	-84.652594	175.493279
37307		9.241667	-0.195524	-0.322373	-0.340577	-0.046692	0.122720	-0.458252	-0.073242	0.628174	-10.068444	-84.669036	176.292323
37308		9.697075	-0.310193	-0.068911	-0.307813	-0.087429	0.097363	-0.455566	-0.075928	0.625732	-10.930328	-84.710479	176.986745
37309		10.410802	-0.250526	-0.203082	-0.281777	-0.091966	0.062193	-0.449951	-0.076416	0.633057	-11.583655	-84.757011	177.486533
37310		10.942362	-0.005785	-0.290392	-0.260299	-0.031654	0.045800	-0.458252	-0.069824	0.626221	-12.051443	-84.771735	177.812461
37311		10.934385	0.284882	-0.010030	-0.238731	0.029318	0.044431	-0.451904	-0.074707	0.622559	-12.422378	-84.751798	178.053416
37312		10.934061	0.357735	0.186711	-0.224979	0.024174	0.063550	-0.452637	-0.070313	0.622070	-12.902510	-84.732643	178.412075
37313		10.837076	0.350884	0.140438	-0.222300	0.025794	0.064468	-0.457031	-0.071045	0.628174	-13.384546	-84.711779	178.774083
37314		10.275031	0.095331	0.065517	-0.214804	0.052059	0.050431	-0.453125	-0.078857	0.622070	-13.733349	-84.678343	179.006731
37315		9.779920	-0.021748	-0.162763	-0.239836	0.034745	0.012273	-0.456787	-0.066162	0.628418	-13.894668	-84.659312	179.036576
37316		9.614726	0.209033	-0.573165	-0.296971	0.046267	-0.034031	-0.447510	-0.079834	0.621826	-13.793542	-84.640571	178.770058
37317		9.720808	0.553807	-0.690393	-0.357190	0.125262	-0.070344	-0.456055	-0.078125	0.622314	-13.405473	-84.582352	178.180545
37318		9.821181	0.969096	-0.520692	-0.421960	0.234195	-0.095911	-0.460693	-0.070313	0.619629	-12.770069	-84.466432	177.305304
37319		9.944798	1.187837	-0.133633	-0.447093	0.236383	-0.114249	-0.449463	-0.079346	0.616699	-12.076034	-84.350425	176.356419
37320		10.378152	1.121138	0.096328	-0.440942	0.191010	-0.138846	-0.456543	-0.073486	0.616455	-11.322259	-84.261733	175.350963
37321		11.073009	0.920523	0.358339	-0.426613	0.136247	-0.176345	-0.453857	-0.080566	0.610596	-10.437022	-84.206414	174.221436
37322		11.779141	0.609599	0.497277	-0.423499	0.115090	-0.209547	-0.453369	-0.082031	0.619141	-9.403382	-84.164495	172.944501
37323		12.341410	0.217428	0.670980	-0.430884	0.102166	-0.227283	-0.462158	-0.084473	0.608887	-8.304716	-84.129038	171.597810
37324		12.644916	-0.237893	0.910121	-0.435498	0.080977	-0.224393	-0.455322	-0.086182	0.603760	-7.253028	-84.102832	170.295661
37325		12.632025	-0.652365	1.044198	-0.432569	0.037682	-0.216594	-0.453857	-0.087402	0.607178	-6.280176	-84.098397	169.074374
37326		12.342720	-1.019099	1.300587	-0.432974	0.006934	-0.200051	-0.457031	-0.097656	0.607910	-5.415288	-84.108493	167.961442
37327		11.908836	-0.873603	1.749230	-0.440323	-0.021903	-0.175449	-0.461914	-0.095215	0.597412	-4.702269	-84.132253	166.996925
37328		11.343010	-0.602590	2.028817	-0.438584	-0.062781	-0.141292	-0.455322	-0.096436	0.606689	-4.186877	-84.176760	166.232187
37329		10.496123	-0.360480	2.090328	-0.420541	-0.105268	-0.089249	-0.449707	-0.104248	0.597412	-3.963368	-84.242911	165.771225
37330		9.644602	0.031482	2.236585	-0.388251	-0.172412	-0.032949	-0.451172	-0.103760	0.602539	-4.060800	-84.345145	165.651533
37331		9.017617	0.376662	2.425494	-0.368128	-0.264977	0.024173	-0.447021	-0.103760	0.603760	-4.525942	-84.497791	165.912845
37332		8.430160	0.557189	2.512232	-0.381945	-0.319662	0.060926	-0.451660	-0.103027	0.608643	-5.271749	-84.679665	166.448119
37333		7.918894	0.520776	2.470055	-0.438473	-0.306513	0.090642	-0.456787	-0.108887	0.607910	-6.276643	-84.851363	167.210838
37334		7.426926	0.345663	2.505485	-0.510431	-0.278410	0.094421	-0.451660	-0.107422	0.601074	-7.383765	-85.005684	168.034650
37335		6.979398	-0.006824	2.467615	-0.571185	-0.239117	0.065313	-0.441650	-0.102051	0.601318	-8.355925	-85.138357	168.687851
37336		6.764582	-0.262685	2.385903	-0.596451	-0.198703	-0.009227	-0.446045	-0.109619	0.594482	-8.834510	-85.254078	168.831119
37337		6.904133	-0.615063	2.271204	-0.561035	-0.136529	-0.106875	-0.443604	-0.114990	0.603271	-8.561619	-85.342636	168.240690
37338		7.321974	-0.980590	2.233712	-0.495866	-0.043405	-0.238474	-0.442627	-0.119873	0.598633	-7.214509	-85.388390	166.610060
37339		8.037113	-1.299226	2.220248	-0.419943	0.037761	-0.356940	-0.443359	-0.124512	0.597412	-4.902005	-85.390345	164.054569
37340		8.964099	-1.625656	2.132133	-0.344993	0.087039	-0.455621	-0.443359	-0.121826	0.595947	-1.836125	-85.358260	160.786303
37341		10.110060	-1.894650	2.060977	-0.275582	0.152464	-0.515539	-0.435059	-0.126221	0.591064	1.617738	-85.273244	157.168332
37342		11.098830	-2.010251	2.009994	-0.203242	0.249197	-0.521979	-0.438232	-0.127441	0.588623	4.965179	-85.115811	153.698174
37343		11.459008	-1.953514	1.988696	-0.157804	0.324639	-0.467334	-0.442871	-0.131104	0.602783	7.693130	-84.903133	150.874936
37344		11.516629	-1.512237	2.027375	-0.135804	0.332134	-0.353668	-0.439453	-0.140137	0.582520	9.513725	-84.686950	148.974621
37345		11.372307	-0.821982	1.935495	-0.135393	0.301784	-0.215860	-0.439941	-0.136475	0.572266	10.412105	-84.496987	148.000111
37346		10.647174	-0.176953	2.027125	-0.101057	0.234710	-0.078562	-0.451660	-0.139404	0.581055	10.568707	-84.358860	147.790539
37347		9.933381	0.216280	2.242282	-0.061575	0.138223	0.042931	-0.443115	-0.125732	0.576172	10.151639	-84.287081	148.180004
37348		9.293413	0.588955	2.566893	-0.064676	-0.011868	0.144495	-0.447266	-0.133301	0.574951	9.320160	-84.310092	148.984326
37349		8.994968	0.594910	2.287614	-0.106182	-0.220502	0.229178	-0.444580	-0.130615	0.573242	8.138979	-84.456520	150.115880
37350		9.362339	0.550748	1.876454	-0.154018	-0.356930	0.289790	-0.436279	-0.137451	0.579346	6.605148	-84.682986	151.573927
37351		9.724521	0.321347	1.547212	-0.200336	-0.419784	0.342132	-0.444824	-0.135010	0.580078	4.603495	-84.943076	153.474373
37352		9.911274	-0.016637	1.133542	-0.241860	-0.397710	0.357420	-0.440186	-0.135986	0.575195	2.265046	-85.185204	155.688370
37353		9.843238	-0.341848	0.926426	-0.267896	-0.308255	0.345828	-0.436279	-0.138916	0.566650	-0.246476	-85.366823	158.060266
37354		9.980162	-0.613569	0.679422	-0.273207	-0.232962	0.305678	-0.428223	-0.140625	0.574463	-2.629773	-85.498257	160.300058
37355		10.089854	-0.899483	0.389871	-0.255107	-0.094337	0.261015	-0.428711	-0.129150	0.570068	-4.725829	-85.544085	162.261752
37356		9.792592	-1.157743	0.390183	-0.220891	0.061420	0.204263	-0.428467	-0.130615	0.576904	-6.291963	-85.500187	163.711671
37357		9.493451	-1.260215	0.592467	-0.180910	0.171161	0.159778	-0.436768	-0.127930	0.574219	-7.392175	-85.393378	164.717200
37358		9.259748	-1.272324	0.728096	-0.149050	0.225726	0.129409	-0.433594	-0.133789	0.567871	-8.158284	-85.257566	165.406122
37359		9.165680	-1.289113	0.758474	-0.112953	0.264209	0.108415	-0.437012	-0.129883	0.562012	-8.691315	-85.100173	165.881895
37360		9.081955	-1.295162	0.772488	-0.064314	0.300346	0.112488	-0.441895	-0.123291	0.569092	-9.148557	-84.922534	166.309829
37361		9.072964	-1.356502	0.923274	-0.019534	0.307186	0.120872	-0.440186	-0.124512	0.565430	-9.601288	-84.739039	166.758945
37362		9.061525	-1.387994	0.937372	0.019930	0.291425	0.144304	-0.443115	-0.132568	0.554199	-10.150838	-84.562711	167.328315
37363		8.827653	-1.376383	0.909308	0.060315	0.268026	0.152025	-0.449951	-0.128174	0.554688	-10.718416	-84.397318	167.939009
37364		8.806321	-1.318434	0.926218	0.098201	0.220425	0.160979	-0.445557	-0.128174	0.557617	-11.327709	-84.258066	168.613791
37365		8.885462	-1.076769	0.747848	0.149083	0.134659	0.171752	-0.449951	-0.123779	0.558350	-12.042682	-84.163958	169.424019
37366		8.957158	-1.025107	0.438972	0.208306	0.085480	0.177798	-0.444580	-0.119385	0.549072	-12.786307	-84.096566	170.297495
37367		8.898897	-1.024928	0.183077	0.276075	0.101230	0.155271	-0.448242	-0.126953	0.544434	-13.339400	-84.021323	171.018328
37368		8.853715	-0.943751	0.035275	0.330241	0.164175	0.114572	-0.444824	-0.115479	0.541260	-13.545483	-83.916909	171.421778
37369		8.917215	-0.745696	0.215931	0.364921	0.195774	0.072117	-0.452637	-0.115723	0.544189	-13.470907	-83.799583	171.562765
37370		8.818528	-0.702237	0.262128	0.377365	0.182763	0.032050	-0.453125	-0.109375	0.549072	-13.195140	-83.695791	171.508813
37371		8.641192	-0.857972	0.291180	0.378382	0.196237	-0.038350	-0.448242	-0.114746	0.544434	-12.565395	-83.592521	171.099000
37372		9.164067	-0.565478	0.434911	0.367228	0.200731	-0.118247	-0.461426	-0.107910	0.542480	-11.554248	-83.496546	170.299109
37373		9.666377	-0.467771	0.386500	0.356697	0.190051	-0.157788	-0.451904	-0.108643	0.538330	-10.399798	-83.408364	169.348469
37374		9.344515	-0.627587	0.386608	0.355221	0.227485	-0.198269	-0.461182	-0.104004	0.545166	-9.042536	-83.301429	168.192892
37375		9.358777	-0.631918	0.584961	0.346763	0.184017	-0.238600	-0.461914	-0.107178	0.531494	-7.573393	-83.218441	166.919252
37376		9.181573	-0.730892	0.416332	0.332193	0.144446	-0.257208	-0.455322	-0.098389	0.533203	-6.071154	-83.156134	165.603980
37377		9.007613	-0.591176	0.532274	0.307379	0.156665	-0.275523	-0.447754	-0.103516	0.531250	-4.526039	-83.083003	164.230697
37378		9.812208	0.088656	0.897309	0.271080	0.070662	-0.238540	-0.455811	-0.107666	0.527100	-3.220736	-83.054210	163.078210
37379		10.706770	0.417273	0.610565	0.235811	-0.053806	-0.135642	-0.456055	-0.100830	0.525635	-2.461095	-83.090592	162.454725
37380		10.501462	0.465078	0.503782	0.223832	-0.042508	-0.034828	-0.459229	-0.101563	0.527588	-2.169792	-83.118103	162.296445
37381		9.876209	0.382072	0.764654	0.212813	-0.078555	0.046494	-0.447021	-0.108398	0.525879	-2.285059	-83.163833	162.541003
37382		9.677575	0.342119	0.861757	0.164059	-0.205434	0.110363	-0.457275	-0.100830	0.525635	-2.759938	-83.281012	163.119847
37383		9.999784	0.288959	0.342796	0.088208	-0.297751	0.155003	-0.450928	-0.095215	0.520020	-3.554040	-83.448264	163.975844
37384		10.045026	0.010509	-0.304492	0.009174	-0.217562	0.181736	-0.454834	-0.103027	0.531250	-4.533083	-83.567639	164.972455
37385		9.659470	-0.192236	-0.495345	-0.040834	-0.140008	0.180535	-0.452637	-0.098145	0.520752	-5.540785	-83.640306	165.968592
37386		9.637536	-0.618328	-0.751431	-0.072064	-0.145049	0.161199	-0.450195	-0.100342	0.512695	-6.484746	-83.715651	166.882742
37387		9.872086	-1.097641	-1.003697	-0.072214	-0.069081	0.124015	-0.449951	-0.097900	0.530029	-7.214582	-83.748380	167.581001
37388		10.060369	-1.559120	-0.998824	-0.040471	0.057269	0.080261	-0.449219	-0.100830	0.521973	-7.609866	-83.712273	167.961292
37389		10.155297	-1.924764	-0.637598	0.015296	0.193703	0.026731	-0.447754	-0.093506	0.514893	-7.609441	-83.602242	167.975310
37390		10.437530	-2.036002	0.004001	0.063555	0.252589	-0.014618	-0.449951	-0.093262	0.510742	-7.329350	-83.462199	167.736030
37391		10.920870	-1.814791	0.484885	0.084676	0.242711	-0.025106	-0.449707	-0.095703	0.519287	-7.012049	-83.328102	167.471033
37392		11.425513	-1.236240	0.946594	0.093114	0.169301	0.008811	-0.452393	-0.100342	0.508545	-6.896835	-83.233567	167.414704
37393		11.694605	-0.598177	1.171657	0.055976	0.045518	0.075078	-0.442871	-0.101074	0.500000	-7.201591	-83.204514	167.759458
37394		12.006837	0.062126	1.060618	0.010675	-0.068685	0.161546	-0.447021	-0.102051	0.492432	-8.006367	-83.233638	168.582026
37395		12.057184	0.502479	0.793583	-0.043107	-0.093864	0.236369	-0.451172	-0.094971	0.505371	-9.235953	-83.268601	169.800874
37396		11.985363	0.638324	0.842786	-0.071276	-0.045353	0.290522	-0.447754	-0.100342	0.497314	-10.700213	-83.267735	171.240139
37397		11.623332	0.598091	1.046901	-0.063181	-0.043995	0.321624	-0.450439	-0.094727	0.494141	-12.313346	-83.257739	172.833609
37398		11.258917	0.316014	1.208500	-0.047161	-0.074090	0.327266	-0.446777	-0.095703	0.490967	-13.964191	-83.258791	174.474700
37399		10.639930	-0.048021	1.459463	-0.014979	-0.041734	0.303921	-0.443604	-0.103760	0.487549	-15.453283	-83.239712	175.971138
37400		10.093612	-0.472953	1.636442	0.010812	-0.059617	0.234711	-0.450195	-0.095459	0.488281	-16.615280	-83.237709	177.153472
37401		9.732013	-0.970612	1.645007	0.029390	-0.097533	0.144054	-0.455811	-0.089844	0.484863	-17.410667	-83.268929	177.976962
37402		9.321988	-1.398308	1.976263	0.088193	-0.116371	0.052774	-0.443604	-0.103027	0.488281	-17.775878	-83.325645	178.401526
37403		8.945588	-1.573507	2.185419	0.167136	-0.141779	-0.034534	-0.440918	-0.084717	0.483398	-17.738631	-83.410902	178.466025
37404		8.614098	-1.556652	2.313704	0.263700	-0.176179	-0.105061	-0.442871	-0.095215	0.480469	-17.351099	-83.527595	178.233998
37405		8.420766	-1.316134	2.395674	0.360812	-0.226153	-0.148957	-0.439941	-0.094971	0.487793	-16.763768	-83.678293	177.856588
37406		8.232708	-1.033566	2.608896	0.452338	-0.277561	-0.156101	-0.442139	-0.095215	0.477539	-16.130324	-83.858450	177.486046
37407		8.009703	-0.666419	2.800842	0.522489	-0.300313	-0.126427	-0.440918	-0.090820	0.482422	-15.626404	-84.045482	177.285915
37408		7.693889	-0.293849	2.674984	0.572056	-0.356687	-0.060281	-0.438721	-0.099854	0.478516	-15.508121	-84.253938	177.502445
37409		7.786241	0.044848	2.492504	0.590911	-0.367277	0.043186	-0.427734	-0.092773	0.487305	-15.997549	-84.451357	178.340055
37410		8.151740	0.569437	2.409838	0.583075	-0.303078	0.168994	-0.430664	-0.087891	0.480957	-17.147341	-84.592497	179.836679
37411		8.404635	0.929551	2.675509	0.539490	-0.211473	0.311381	-0.424805	-0.089600	0.482910	-19.050106	-84.653704	-177.936072
37412		8.652243	1.142633	2.662503	0.477445	-0.107488	0.432668	-0.428711	-0.085449	0.481689	-21.484571	-84.627866	-175.210220
37413		9.143527	1.352876	2.470787	0.420833	-0.015062	0.523581	-0.434326	-0.089111	0.486084	-24.199598	-84.520578	-172.235126
37414		9.696969	1.402938	2.296736	0.354849	0.034971	0.575871	-0.431885	-0.073730	0.480957	-26.968840	-84.362163	-169.242586
37415		10.252647	1.231086	2.033116	0.297110	0.115444	0.550873	-0.435059	-0.075439	0.485352	-29.266381	-84.156105	-166.756680
37416		10.380503	0.887714	2.129145	0.259180	0.141639	0.471518	-0.437744	-0.077637	0.480713	-30.974980	-83.952428	-164.883589
37417		10.476126	0.259909	1.919604	0.239345	0.145880	0.360271	-0.436768	-0.069092	0.480469	-32.075107	-83.774225	-163.633450
37418		10.522744	-0.084325	1.947959	0.211772	0.151070	0.240477	-0.434082	-0.067627	0.477051	-32.593570	-83.629468	-162.983810
37419		10.358017	-0.408546	1.836537	0.182635	0.121092	0.136198	-0.436035	-0.075684	0.460938	-32.746034	-83.529879	-162.719306
37420		10.075079	-0.715874	1.571510	0.172743	0.044775	0.045239	-0.438721	-0.072021	0.467041	-32.721087	-83.496350	-162.638843
37421		9.864646	-1.004669	1.284333	0.189533	-0.016478	-0.048400	-0.438477	-0.065674	0.470947	-32.457589	-83.520157	-162.788964
37422		10.130876	-1.018399	1.245990	0.232123	-0.060597	-0.136403	-0.434326	-0.083008	0.469238	-31.906790	-83.593246	-163.203464
37423		10.336797	-0.862929	1.221013	0.264703	-0.060394	-0.198216	-0.437500	-0.071777	0.468262	-31.054360	-83.682987	-163.902799
37424		10.498313	-0.637501	0.933463	0.297748	-0.038990	-0.245386	-0.441650	-0.077881	0.468506	-29.887932	-83.775653	-164.898666
37425		10.401564	-0.376253	0.836755	0.340101	0.038114	-0.276289	-0.426025	-0.075439	0.464111	-28.326730	-83.834556	-166.267262
37426		10.011699	-0.149505	0.919902	0.382103	0.056176	-0.292199	-0.433350	-0.086670	0.465820	-26.591884	-83.885364	-167.785969
37427		9.667619	0.113881	1.006249	0.398951	-0.005110	-0.307957	-0.430420	-0.072510	0.458252	-24.886945	-83.965697	-169.264896
37428		9.601232	0.173200	1.058667	0.388239	-0.089450	-0.321290	-0.432373	-0.082031	0.457275	-23.259744	-84.089807	-170.671363
37429		9.473681	0.216352	1.009013	0.362492	-0.152002	-0.341675	-0.428467	-0.083008	0.456055	-21.610560	-84.246170	-172.114581
37430		9.410693	0.272751	0.880425	0.331883	-0.153704	-0.357464	-0.436279	-0.079346	0.466553	-19.807078	-84.403249	-173.729902
37431		9.321445	0.332136	0.825765	0.301248	-0.128523	-0.370605	-0.430176	-0.086670	0.457520	-17.806583	-84.542646	-175.560552
37432		9.257311	0.438921	0.771621	0.281846	-0.114703	-0.366281	-0.436768	-0.085449	0.456543	-15.717585	-84.668421	-177.490690
37433		9.262471	0.503934	0.629931	0.252453	-0.106694	-0.350317	-0.436768	-0.096436	0.468018	-13.641084	-84.779737	-179.424980
37434		9.216158	0.655463	0.515451	0.228101	-0.111170	-0.321857	-0.432617	-0.087891	0.470459	-11.673430	-84.884645	178.736508
37435		9.166299	0.788620	0.310530	0.201543	-0.104784	-0.281695	-0.431641	-0.088379	0.466064	-9.899448	-84.975216	177.077282
37436		9.192913	1.001912	0.171372	0.162856	-0.054804	-0.229579	-0.438721	-0.103516	0.458740	-8.374762	-85.029468	175.646386
37437		9.000743	1.129284	0.130483	0.114997	0.030896	-0.169752	-0.430908	-0.104980	0.462891	-7.174204	-85.026542	174.513239
37438		8.912973	1.273159	0.155396	0.066737	0.082697	-0.111506	-0.428467	-0.100098	0.460693	-6.341434	-84.989371	173.721623
37439		8.990828	1.306998	-0.016348	0.014290	0.077824	-0.069863	-0.435059	-0.102539	0.458008	-5.826521	-84.950793	173.218769
37440		9.206756	1.399722	-0.240451	-0.028898	0.094078	-0.029404	-0.437500	-0.106689	0.455811	-5.589024	-84.901201	172.969658
37441		9.208459	1.370580	-0.346876	-0.085177	0.200547	0.011675	-0.436279	-0.105713	0.464111	-5.585710	-84.787776	172.923184
37442		9.010447	1.410204	-0.273534	-0.130721	0.259866	0.062707	-0.432373	-0.105713	0.453857	-5.881281	-84.638407	173.150746
37443		8.895746	1.247435	-0.069372	-0.166751	0.246650	0.120013	-0.441895	-0.103516	0.455566	-6.532033	-84.492136	173.714346
37444		9.307815	1.065265	0.088343	-0.204012	0.146320	0.148880	-0.444824	-0.115479	0.450928	-7.410674	-84.400930	174.485637
37445		9.493545	1.024901	-0.035134	-0.237431	0.117091	0.165019	-0.436035	-0.118896	0.444824	-8.398961	-84.323181	175.347938
37446		9.358037	0.886398	0.100751	-0.272125	0.160343	0.173454	-0.444092	-0.121094	0.456299	-9.388366	-84.219407	176.191560
37447		9.060986	0.807865	0.284399	-0.306028	0.166592	0.165078	-0.437988	-0.121826	0.449219	-10.312863	-84.110938	176.950548
37448		8.631659	0.429223	0.478674	-0.331514	0.131201	0.156569	-0.440674	-0.127930	0.453125	-11.212717	-84.022684	177.670235
37449		8.562322	0.281330	0.637504	-0.339213	-0.006177	0.129452	-0.441650	-0.126709	0.446777	-12.104276	-84.012948	178.377205
37450		8.552929	0.337118	0.675116	-0.338063	-0.151023	0.095775	-0.438477	-0.124512	0.456543	-12.990005	-84.087831	179.078938
37451		8.840968	0.125436	0.465407	-0.347783	-0.229152	0.066443	-0.442627	-0.135010	0.452637	-13.845424	-84.208506	179.744486
37452		9.240512	-0.007448	0.132072	-0.360493	-0.229204	0.045550	-0.432373	-0.133057	0.464111	-14.624411	-84.331709	-179.674251
37453		9.437125	0.032559	0.115793	-0.354411	-0.192208	0.038120	-0.440186	-0.135010	0.454102	-15.329579	-84.434276	-179.163764
37454		9.642112	-0.067302	0.035458	-0.329799	-0.135028	0.030562	-0.427734	-0.142578	0.463867	-15.907121	-84.506386	-178.767417
37455		9.887988	-0.237556	-0.099513	-0.283482	-0.097244	0.028436	-0.437744	-0.140869	0.458984	-16.393654	-84.557236	-178.435867
37456		9.972817	-0.333321	-0.322327	-0.232044	-0.060785	0.015652	-0.437012	-0.142822	0.458984	-16.721316	-84.590371	-178.234332
37457		9.794806	-0.313467	-0.530133	-0.191091	-0.048209	0.024561	-0.434082	-0.149414	0.460205	-17.057521	-84.614631	-178.000651
37458		9.849390	-0.243787	-0.828894	-0.185922	-0.071915	0.034739	-0.436279	-0.156006	0.463135	-17.496684	-84.650365	-177.660602
37459		10.016944	0.025375	-1.147911	-0.205217	-0.072895	0.048871	-0.434814	-0.155273	0.464600	-18.036381	-84.683587	-177.230701
37460		10.074999	0.426139	-1.363738	-0.261680	-0.027737	0.066765	-0.425537	-0.151367	0.462646	-18.631086	-84.688929	-176.778062
37461		10.202001	0.838468	-1.419140	-0.336227	-0.001914	0.080520	-0.430664	-0.155273	0.472168	-19.296897	-84.677072	-176.296900
37462		10.455300	1.305771	-1.326503	-0.416832	0.027716	0.082431	-0.435547	-0.154053	0.468262	-19.955949	-84.648527	-175.868900
37463		10.823420	1.572458	-1.030778	-0.471939	0.075107	0.061329	-0.436279	-0.159180	0.466797	-20.419612	-84.598237	-175.668817
37464		11.234834	1.619322	-0.777894	-0.515933	0.131888	0.028587	-0.435059	-0.168945	0.463623	-20.599648	-84.523986	-175.778965
37465		11.509544	1.344233	-0.470528	-0.527067	0.195648	-0.042751	-0.438477	-0.171143	0.462646	-20.259473	-84.429840	-176.418124
37466		11.631309	0.884281	-0.194877	-0.487765	0.187128	-0.116512	-0.434082	-0.174561	0.460938	-19.529005	-84.354008	-177.426969
37467		11.673253	0.398954	0.337946	-0.427673	0.119759	-0.188395	-0.434326	-0.180176	0.464355	-18.517223	-84.326780	-178.683925
37468		11.970176	-0.281438	1.155658	-0.375108	0.036670	-0.254040	-0.426514	-0.182861	0.461426	-17.269335	-84.353803	179.852049
37469		12.286248	-1.126787	1.727167	-0.344276	-0.065545	-0.320657	-0.434326	-0.183350	0.452637	-15.776717	-84.444566	178.160098
37470		12.367208	-1.894903	1.741173	-0.321395	-0.104355	-0.384180	-0.424316	-0.192871	0.462891	-13.907945	-84.561089	176.103646
37471		12.153994	-2.440991	1.611423	-0.291586	-0.074121	-0.448028	-0.427979	-0.196045	0.465088	-11.515578	-84.661496	173.538860
37472		11.612204	-2.552596	1.702589	-0.245180	-0.088986	-0.500210	-0.432373	-0.198730	0.463623	-8.700483	-84.764377	170.576611
37473		10.632011	-2.140215	2.055939	-0.180042	-0.159920	-0.509638	-0.425781	-0.207275	0.469238	-5.724152	-84.894419	167.490513
37474		9.627281	-1.294297	2.307997	-0.113480	-0.260861	-0.459157	-0.419678	-0.215332	0.468018	-2.925203	-85.065716	164.621468
37475		8.852803	-0.287543	2.371682	-0.055913	-0.355790	-0.371428	-0.420166	-0.203125	0.463867	-0.504305	-85.278255	162.165743
37476		8.161759	0.452804	2.468593	-0.061705	-0.382441	-0.264739	-0.421143	-0.208496	0.470703	1.369306	-85.498621	160.256521
37477		7.615746	1.024142	2.758601	-0.134644	-0.368720	-0.170085	-0.423828	-0.205566	0.470947	2.664275	-85.708598	158.886299
37478		7.219140	1.111794	2.618251	-0.236555	-0.387215	-0.099871	-0.417236	-0.211182	0.478027	3.482723	-85.929430	157.935707
37479		6.960996	1.136349	2.297628	-0.331198	-0.336366	-0.072767	-0.412598	-0.222656	0.468262	4.085327	-86.121124	157.147390
37480		6.874668	1.040729	2.341329	-0.412501	-0.283890	-0.083770	-0.416260	-0.228760	0.478271	4.769699	-86.281942	156.230580
37481		7.202357	0.795399	2.153640	-0.455459	-0.238884	-0.120022	-0.410889	-0.228027	0.473389	5.791517	-86.413938	154.951172
37482		7.781323	0.542297	2.145423	-0.483985	-0.140910	-0.183295	-0.424072	-0.229492	0.472656	7.357141	-86.484460	153.110633
37483		8.836706	0.203134	2.276660	-0.486011	-0.057640	-0.269025	-0.404541	-0.232178	0.478027	9.659042	-86.496228	150.531412
37484		10.243385	-0.192204	2.232910	-0.458230	0.044821	-0.362762	-0.408203	-0.236572	0.471436	12.632941	-86.433121	147.294730
37485		11.681784	-0.600800	2.434560	-0.389797	0.189320	-0.448795	-0.410400	-0.239014	0.478760	15.914218	-86.266283	143.788990
37486		12.851982	-1.122633	2.576012	-0.311761	0.273841	-0.498144	-0.414063	-0.252930	0.472900	19.097667	-86.032908	140.425253
37487		12.992636	-1.518101	2.207855	-0.262523	0.292395	-0.485194	-0.407715	-0.249268	0.474121	21.787025	-85.780371	137.584202
37488		12.260318	-1.702461	1.651601	-0.236311	0.331731	-0.418349	-0.400146	-0.251709	0.474854	23.612992	-85.514614	135.623109
37489		11.114928	-1.416035	1.621265	-0.208018	0.439794	-0.311712	-0.414551	-0.251221	0.466797	24.261618	-85.213393	134.858723
37490		10.176660	-1.005697	1.973802	-0.159190	0.477112	-0.186906	-0.420166	-0.252686	0.468994	24.025750	-84.922237	135.009862
37491		9.560871	-0.534048	2.372281	-0.118229	0.386129	-0.081570	-0.423340	-0.264160	0.464844	23.461467	-84.702461	135.514366
37492		9.069402	-0.160424	2.272803	-0.077020	0.273409	0.008904	-0.419434	-0.258057	0.466309	22.730547	-84.562483	136.210126
37493		8.875595	0.073821	2.278683	-0.067997	0.122119	0.110757	-0.422119	-0.262451	0.462891	21.811266	-84.523297	137.100368
37494		8.723980	0.246161	2.052040	-0.103040	-0.107967	0.214687	-0.415771	-0.255859	0.473389	20.798428	-84.627777	138.064405
37495		9.103725	0.330062	1.594139	-0.132101	-0.288892	0.302676	-0.419922	-0.260254	0.457031	19.587500	-84.844473	139.210364
37496		9.428871	0.178528	1.224695	-0.133647	-0.356347	0.364552	-0.412598	-0.257080	0.465088	18.026667	-85.107295	140.706286
37497		9.793393	0.071430	0.988267	-0.108399	-0.288031	0.394324	-0.421875	-0.251709	0.458740	15.968250	-85.332672	142.715475
37498		10.101189	-0.016812	0.892735	-0.084687	-0.134437	0.394063	-0.416016	-0.258301	0.462402	13.463828	-85.466808	145.185248
37499		10.198109	-0.279110	0.949665	-0.071600	0.008066	0.391148	-0.415771	-0.255371	0.465820	10.641683	-85.510602	147.980928
37500		9.767234	-0.732997	0.835472	-0.049701	0.131440	0.366451	-0.418213	-0.256348	0.469971	7.843901	-85.472293	150.764766
37501		9.779630	-0.897541	0.859511	-0.011449	0.230267	0.330412	-0.426758	-0.248535	0.456543	5.308678	-85.364408	153.307446
37502		9.638176	-1.043450	0.758226	0.029379	0.277649	0.308067	-0.418701	-0.251221	0.460449	3.056343	-85.220943	155.590231
37503		9.372667	-1.120972	0.715725	0.079495	0.312908	0.298307	-0.423828	-0.248779	0.464111	1.024755	-85.049364	157.680776
37504		9.234387	-1.131240	0.742668	0.119755	0.316874	0.283176	-0.423828	-0.236816	0.460938	-0.743840	-84.870547	159.531057
37505		8.981571	-1.064106	0.711787	0.144886	0.307815	0.272132	-0.427002	-0.239746	0.466309	-2.312540	-84.691600	161.195534
37506		8.927143	-1.014329	0.746876	0.171675	0.286899	0.260705	-0.437500	-0.239502	0.459961	-3.696861	-84.521969	162.690755
37507		8.716874	-1.023003	0.904807	0.192876	0.226462	0.254169	-0.432617	-0.232910	0.458008	-4.978267	-84.383087	164.095097
37508		8.727942	-1.044190	0.871092	0.213407	0.153396	0.238513	-0.437500	-0.235352	0.455078	-6.136104	-84.284737	165.387441
37509		8.821090	-1.039119	0.798324	0.236431	0.099562	0.213341	-0.436768	-0.238037	0.455566	-7.139714	-84.215447	166.538142
37510		8.858139	-0.910276	0.654519	0.264120	0.048850	0.190017	-0.440430	-0.231934	0.451172	-8.009510	-84.175711	167.570480
37511		8.845385	-0.834959	0.572580	0.285959	-0.002623	0.156113	-0.430908	-0.239990	0.463379	-8.714123	-84.165686	168.449304
37512		8.866903	-0.632909	0.320352	0.316123	-0.034705	0.116203	-0.432373	-0.228027	0.458740	-9.203919	-84.177318	169.129662
37513		8.932495	-0.349248	0.154132	0.332792	-0.040911	0.071944	-0.445801	-0.230225	0.454590	-9.450070	-84.195275	169.574593
37514		9.034103	-0.270582	0.154176	0.344224	-0.051869	0.041646	-0.437256	-0.234863	0.463623	-9.529758	-84.223008	169.858877
37515		8.636899	-0.527760	0.061496	0.348598	0.009892	-0.010312	-0.442871	-0.228516	0.461426	-9.263420	-84.219927	169.797771
37516		8.208115	-0.656642	0.276464	0.343146	0.020485	-0.090812	-0.434814	-0.233154	0.459717	-8.537399	-84.218740	169.271602
37517		9.310807	-0.209749	0.267031	0.328955	-0.066805	-0.122969	-0.432373	-0.233887	0.455811	-7.710710	-84.268182	168.635985
37518		8.958745	-0.472623	-0.165250	0.310939	-0.033020	-0.141546	-0.434570	-0.222168	0.464111	-6.748209	-84.299520	167.853669
37519		8.745506	-0.487899	0.003735	0.302234	0.045153	-0.170654	-0.437500	-0.230469	0.462646	-5.574164	-84.285949	166.853625
37520		9.144734	-0.327919	-0.011216	0.297513	-0.008920	-0.176338	-0.433594	-0.223389	0.464844	-4.395499	-84.302188	165.846352
37521		8.922645	-0.446617	-0.158102	0.298689	-0.000897	-0.171762	-0.436768	-0.225830	0.468506	-3.238844	-84.310976	164.861757
37522		9.487745	-0.043872	0.220858	0.271375	0.000271	-0.157495	-0.434326	-0.218994	0.468994	-2.171710	-84.317448	163.951552
37523		10.472725	0.372230	0.384851	0.224612	-0.094709	-0.080019	-0.425049	-0.220459	0.466309	-1.596743	-84.374977	163.508900
37524		10.855121	0.395663	0.027865	0.182738	-0.107732	-0.012291	-0.426270	-0.219238	0.468506	-1.430063	-84.439234	163.452573
37525		10.527604	0.264237	0.027032	0.158934	0.000438	0.013640	-0.435791	-0.221680	0.468262	-1.417418	-84.440624	163.537169
37526		10.294627	0.329092	0.399288	0.117602	0.022189	0.020433	-0.431396	-0.218994	0.465820	-1.460113	-84.429987	163.653715
37527		10.315651	0.414450	0.386021	0.044585	-0.033931	0.038301	-0.435059	-0.220703	0.467285	-1.663439	-84.450700	163.889479
37528		10.353772	0.293154	0.006007	-0.045059	0.011566	0.054254	-0.430908	-0.221191	0.475586	-2.000099	-84.445450	164.207736
37529		9.772758	-0.048973	-0.142720	-0.102686	0.102097	0.051603	-0.434326	-0.222168	0.465576	-2.336558	-84.387793	164.492502
37530		9.391176	-0.352243	-0.312242	-0.115920	0.112334	0.033961	-0.423340	-0.221191	0.465088	-2.565510	-84.325025	164.661778
37531		9.313827	-0.763208	-0.359497	-0.090448	0.154230	0.009895	-0.436523	-0.222656	0.467285	-2.632056	-84.238469	164.682387
37532		9.314947	-1.109803	-0.454580	-0.036476	0.175212	-0.008390	-0.433105	-0.219971	0.463623	-2.554857	-84.140768	164.589733
37533		9.372105	-1.414531	-0.649223	0.028283	0.172761	-0.019437	-0.434814	-0.221680	0.456543	-2.388314	-84.044403	164.444387
37534		9.664391	-1.641378	-0.651962	0.093223	0.182195	-0.017248	-0.432861	-0.223633	0.462891	-2.195004	-83.942859	164.309671
37535		9.957121	-1.858230	-0.470485	0.147902	0.161430	-0.000009	-0.438477	-0.224609	0.459473	-2.076874	-83.852563	164.281856
37536		10.221777	-1.712925	-0.247915	0.202381	0.107228	0.032540	-0.432617	-0.223389	0.458740	-2.105907	-83.792854	164.433647
37537		10.647106	-1.447772	0.016813	0.253431	-0.017311	0.088517	-0.438965	-0.228760	0.461670	-2.430324	-83.802957	164.911763
37538		11.298242	-0.984533	0.088797	0.265662	-0.151178	0.159547	-0.439209	-0.213867	0.458740	-3.157797	-83.887387	165.802504
37539		12.022876	-0.568972	-0.036086	0.256365	-0.227225	0.239386	-0.423340	-0.219238	0.461670	-4.383707	-84.010519	167.188697
37540		12.419176	-0.137233	-0.338943	0.217931	-0.196710	0.302705	-0.435059	-0.219482	0.464355	-6.011894	-84.109428	168.957163
37541		12.341921	0.097533	0.031423	0.173126	-0.053598	0.332339	-0.431885	-0.211182	0.461670	-7.784779	-84.119307	170.844861
37542		12.007938	0.273510	0.985097	0.157092	0.041158	0.351370	-0.436035	-0.211426	0.460449	-9.580336	-84.067955	172.746438
37543		11.643628	0.528765	1.979888	0.162284	-0.026789	0.362875	-0.434082	-0.211914	0.463623	-11.481797	-84.047283	174.757361
37544		11.297934	0.654560	2.305998	0.183379	-0.146581	0.369910	-0.436035	-0.208740	0.459473	-13.540425	-84.085705	176.938661
37545		10.953991	0.524444	2.145128	0.202840	-0.222494	0.362252	-0.445068	-0.205566	0.463867	-15.692345	-84.158824	179.224512
37546		10.338680	0.135960	1.679855	0.227389	-0.235463	0.314255	-0.436768	-0.209473	0.461182	-17.640211	-84.238746	-178.680693
37547		9.599828	-0.271377	1.932149	0.281343	-0.196834	0.248007	-0.430664	-0.201416	0.467529	-19.183733	-84.302893	-176.961671
37548		9.004567	-0.672374	2.268428	0.327920	-0.189716	0.184850	-0.437256	-0.196777	0.472412	-20.372739	-84.371619	-175.572081
37549		8.537348	-1.053471	2.508851	0.394233	-0.180683	0.129759	-0.432129	-0.195557	0.468262	-21.238939	-84.443891	-174.469029
37550		8.066886	-1.236402	2.728718	0.475149	-0.217029	0.088997	-0.426270	-0.195801	0.475098	-21.934832	-84.543011	-173.490461
37551		7.705130	-1.154460	2.716585	0.546103	-0.282891	0.073532	-0.423096	-0.190918	0.482178	-22.695185	-84.678730	-172.406703
37552		7.418697	-0.961248	2.662250	0.602919	-0.315323	0.101206	-0.439453	-0.187988	0.468750	-23.707574	-84.824180	-171.037206
37553		7.377003	-0.667461	2.567511	0.600999	-0.304750	0.167696	-0.432373	-0.186279	0.480469	-25.156246	-84.945030	-169.231275
37554		7.713569	-0.277899	2.216237	0.559998	-0.243066	0.263464	-0.427246	-0.185791	0.481201	-27.078915	-85.005821	-166.973155
37555		8.226431	0.164933	2.291544	0.499505	-0.128433	0.369678	-0.427246	-0.185059	0.482666	-29.328302	-84.971989	-164.422092
37556		8.891601	0.510469	2.306109	0.414806	-0.102325	0.465085	-0.427246	-0.173828	0.479248	-32.017850	-84.888553	-161.477444
37557		9.949192	0.887498	2.448375	0.323756	-0.082095	0.528167	-0.423340	-0.174805	0.479736	-34.916585	-84.762112	-158.374815
37558		10.744545	1.093407	2.353218	0.237112	-0.026700	0.540127	-0.431152	-0.168945	0.481201	-37.565244	-84.593437	-155.572306
37559		11.473277	1.262031	2.079866	0.166788	0.044085	0.492780	-0.424561	-0.164551	0.478027	-39.605545	-84.398672	-153.420730
37560		12.171937	1.231232	1.829987	0.112995	0.098277	0.421565	-0.431396	-0.163818	0.479492	-41.029270	-84.201335	-151.918920
37561		11.177440	0.805457	1.619330	0.066505	0.205212	0.309605	-0.434814	-0.166016	0.484863	-41.537538	-83.997005	-151.363766
37562		10.591215	0.612960	1.999318	0.022291	0.221229	0.176864	-0.435059	-0.160156	0.477539	-41.456669	-83.836788	-151.426295
37563		10.253762	0.206321	2.219345	-0.019114	0.157063	0.064508	-0.434326	-0.159668	0.476563	-41.182361	-83.745881	-151.707332
37564		9.784931	-0.152636	2.283682	-0.037965	0.039624	-0.036653	-0.430420	-0.162842	0.477295	-40.930853	-83.744431	-151.976274
37565		9.699890	-0.467879	2.005154	-0.022015	-0.119424	-0.136715	-0.435303	-0.163330	0.480713	-40.815486	-83.848498	-152.099083
37566		9.843902	-0.619159	1.506509	0.030435	-0.208712	-0.236871	-0.432129	-0.164063	0.477539	-40.570812	-84.029541	-152.321643
37567		9.868243	-0.432197	1.199911	0.105483	-0.198481	-0.318670	-0.432617	-0.161133	0.472656	-39.873550	-84.235335	-152.955893
37568		9.864869	-0.296210	1.037659	0.160171	-0.140796	-0.357219	-0.432129	-0.161865	0.472900	-38.708459	-84.429306	-154.028534
37569		9.922508	-0.328479	1.007555	0.211439	-0.103424	-0.373808	-0.426270	-0.162842	0.482666	-37.212570	-84.608883	-155.403665
37570		9.837781	-0.341049	0.998566	0.241122	-0.051803	-0.359221	-0.428711	-0.170898	0.483643	-35.490203	-84.756785	-156.988777
37571		9.823915	-0.257009	1.030782	0.261266	0.016227	-0.334639	-0.425781	-0.162842	0.488525	-33.548888	-84.858955	-158.781856
37572		9.714522	-0.188406	0.987407	0.269017	0.045343	-0.294479	-0.428467	-0.167236	0.478027	-31.654093	-84.930051	-160.523504
37573		9.742059	-0.028987	0.871752	0.253902	0.044417	-0.256497	-0.434082	-0.171875	0.479004	-29.934369	-84.984661	-162.097949
37574		9.560384	0.230048	0.761133	0.234222	0.058172	-0.224963	-0.424316	-0.171143	0.476318	-28.332845	-85.020436	-163.564929
37575		9.070408	0.425254	0.843130	0.210993	0.057151	-0.183097	-0.437744	-0.162354	0.481934	-26.971546	-85.041408	-164.804093
37576		8.888509	0.644867	0.917384	0.169170	-0.015915	-0.150838	-0.429932	-0.166992	0.478516	-26.030679	-85.090312	-165.645230
37577		8.743449	0.763799	0.669931	0.127835	-0.055237	-0.122920	-0.424316	-0.170654	0.477051	-25.377169	-85.150707	-166.221670
37578		8.634428	0.738767	0.515362	0.080538	-0.057112	-0.086399	-0.424316	-0.174805	0.479736	-24.969478	-85.203577	-166.578559
37579		8.725352	0.775700	0.621280	0.024007	-0.041190	-0.062483	-0.428955	-0.176270	0.480469	-24.687192	-85.241402	-166.842076
37580		8.785096	0.695643	0.571563	-0.038043	-0.002645	-0.050691	-0.426270	-0.171631	0.480225	-24.403016	-85.257053	-167.143162
37581		8.903217	0.597750	0.578837	-0.091795	0.031888	-0.045809	-0.431396	-0.174805	0.478516	-24.077935	-85.252577	-167.516171
37582		9.040354	0.517892	0.407931	-0.145843	0.087053	-0.047680	-0.429932	-0.174072	0.476318	-23.623635	-85.220224	-168.049956
37583		9.090231	0.453292	0.341182	-0.195584	0.116044	-0.048546	-0.432129	-0.167725	0.477539	-23.118349	-85.171669	-168.663501
37584		9.072294	0.422159	0.193133	-0.237621	0.106717	-0.041859	-0.423828	-0.177002	0.477051	-22.717009	-85.126922	-169.196978
37585		8.937281	0.514326	-0.010704	-0.274871	0.099639	-0.021206	-0.430176	-0.179932	0.477051	-22.487131	-85.080377	-169.579774
37586		8.765885	0.692597	-0.068387	-0.301737	0.094203	0.009939	-0.433350	-0.173096	0.476563	-22.485237	-85.030566	-169.749262
37587		8.562561	0.821606	-0.183050	-0.338122	0.099748	0.054763	-0.429443	-0.187744	0.466309	-22.758069	-84.967285	-169.663854
37588		8.564876	0.806521	-0.033792	-0.368847	0.050727	0.090987	-0.430664	-0.184326	0.472656	-23.385910	-84.922345	-169.239777
37589		8.679309	0.721035	-0.134437	-0.403891	-0.026650	0.111926	-0.435547	-0.183838	0.475342	-24.345438	-84.911954	-168.502767
37590		8.752685	0.656707	-0.254971	-0.442133	-0.054295	0.127542	-0.433105	-0.182617	0.471436	-25.494097	-84.911578	-167.597946
37591		8.643442	0.480880	-0.362114	-0.491999	-0.045083	0.137291	-0.435547	-0.187012	0.472168	-26.695857	-84.901809	-166.668400
37592		8.455108	0.335690	-0.531851	-0.526160	-0.073248	0.151424	-0.441650	-0.188477	0.466309	-28.082004	-84.901323	-165.573468
37593		8.653606	0.040593	-0.634413	-0.547574	-0.103770	0.157479	-0.432617	-0.193115	0.463379	-29.604915	-84.911548	-164.353457
37594		8.809991	-0.118430	-0.582144	-0.555213	-0.181160	0.141253	-0.435791	-0.192627	0.470703	-31.310537	-84.962109	-162.954571
37595		9.415001	-0.313051	-0.628932	-0.559998	-0.207184	0.099972	-0.430176	-0.195068	0.469727	-32.908841	-85.033911	-161.666196
37596		10.117422	-0.357744	-0.809359	-0.548634	-0.139626	0.055302	-0.437500	-0.187744	0.467773	-34.047239	-85.085210	-160.833128
37597		10.377603	-0.367158	-0.661993	-0.508422	-0.086887	0.012506	-0.432129	-0.198730	0.465576	-34.739492	-85.123968	-160.424673
37598		10.718651	-0.531799	-0.492529	-0.452521	-0.058895	-0.027529	-0.429199	-0.208252	0.469971	-35.082455	-85.162685	-160.334744
37599		11.090295	-0.570389	-0.463477	-0.404277	0.006805	-0.057945	-0.433594	-0.209229	0.467529	-34.970162	-85.180316	-160.673864
37600		11.065969	-0.652570	-0.272991	-0.338640	0.110300	-0.067677	-0.438477	-0.209717	0.471680	-34.370531	-85.152422	-161.464413
37601		10.969183	-0.711895	0.095525	-0.272879	0.129516	-0.086921	-0.439941	-0.211426	0.468018	-33.558594	-85.120526	-162.430173
37602		10.720242	-0.831940	-0.069224	-0.208350	0.103219	-0.112621	-0.437256	-0.208740	0.459717	-32.675465	-85.108303	-163.430392
37603		10.103899	-0.812280	-0.123381	-0.155402	0.065718	-0.132777	-0.436768	-0.212646	0.462891	-31.780924	-85.118900	-164.411543
37604		9.837894	-0.673903	-0.158638	-0.165481	0.032424	-0.154587	-0.433594	-0.209717	0.462646	-30.880446	-85.151179	-165.404492
37605		9.983980	-0.443994	-0.319509	-0.215824	0.099389	-0.172215	-0.437012	-0.213867	0.462646	-29.664586	-85.153677	-166.742813
37606		10.198934	-0.048303	-0.489836	-0.249240	0.246464	-0.194187	-0.435547	-0.220215	0.460938	-27.875063	-85.085573	-168.676228
37607		10.541535	0.355017	-0.053259	-0.252909	0.348842	-0.231054	-0.434570	-0.216064	0.458008	-25.629613	-84.968698	-171.069609
37608		11.153309	0.477286	0.666287	-0.220626	0.338639	-0.294356	-0.441162	-0.225830	0.450928	-23.132336	-84.863778	-173.697709
37609		11.697615	0.301686	1.237427	-0.152752	0.257459	-0.358022	-0.445313	-0.228760	0.450684	-20.506358	-84.805191	-176.416253
37610		12.159860	-0.137567	1.502613	-0.084921	0.094885	-0.422747	-0.447998	-0.231689	0.454346	-17.835095	-84.835668	-179.141375
37611		12.483522	-0.582524	1.193763	-0.049044	-0.112536	-0.466324	-0.432861	-0.237793	0.456055	-15.192502	-84.975631	178.183367
37612		12.285885	-0.748938	0.453641	-0.052488	-0.217964	-0.474410	-0.435059	-0.236084	0.447266	-12.508365	-85.164334	175.465028
37613		11.518535	-0.300258	0.259147	-0.091060	-0.185222	-0.434375	-0.440674	-0.245361	0.456787	-9.870130	-85.318965	172.771330
37614		10.746340	0.484489	0.643496	-0.143492	-0.171176	-0.365725	-0.437500	-0.232422	0.455811	-7.567486	-85.450057	170.384655
37615		10.167224	1.154428	1.241775	-0.193254	-0.205413	-0.264950	-0.427490	-0.240723	0.453857	-5.924381	-85.586996	168.631453
37616		9.844227	1.603038	1.688600	-0.249819	-0.260512	-0.167997	-0.430176	-0.238037	0.452148	-4.985327	-85.747105	167.552100
37617		9.735351	1.590310	1.714990	-0.298211	-0.325744	-0.079742	-0.429199	-0.241699	0.452393	-4.738727	-85.939125	167.139562
37618		9.632183	1.341507	1.621020	-0.338856	-0.328272	-0.006495	-0.430664	-0.248291	0.453613	-5.107186	-86.129203	167.320224
37619		9.560717	0.902694	1.674808	-0.393730	-0.271389	0.041083	-0.427979	-0.256104	0.457764	-5.901323	-86.283866	167.896065
37620		9.071611	0.598914	2.044469	-0.469407	-0.197923	0.065757	-0.433594	-0.253174	0.457275	-6.949839	-86.394705	168.683156
37621		8.547513	0.117387	2.327760	-0.554432	-0.204969	0.069995	-0.431641	-0.254150	0.457275	-8.147885	-86.507952	169.571287
37622		8.186232	-0.246953	2.359501	-0.629462	-0.226658	0.040637	-0.430176	-0.259521	0.453125	-9.217682	-86.635173	170.287630
37623		7.900819	-0.545268	2.338394	-0.676251	-0.165007	-0.028786	-0.424805	-0.266602	0.451660	-9.582104	-86.733147	170.270612
37624		7.736471	-0.864103	2.341165	-0.674537	-0.065469	-0.129165	-0.423584	-0.260742	0.459717	-8.782471	-86.784344	169.088528
37625		7.717072	-1.263621	2.264256	-0.619274	0.048653	-0.262977	-0.436523	-0.271729	0.453613	-6.406153	-86.778528	166.359135
37626		8.173639	-1.384560	2.315479	-0.542360	0.150929	-0.402411	-0.429688	-0.272949	0.451660	-2.549624	-86.712639	162.191061
37627		8.927613	-1.595091	2.329377	-0.438201	0.232912	-0.509404	-0.428955	-0.274902	0.440186	2.202036	-86.581727	157.185808
37628		9.731356	-1.769863	2.206345	-0.307132	0.276518	-0.589934	-0.435547	-0.284668	0.450928	7.316398	-86.397943	151.891480
37629		10.767403	-1.725778	2.037216	-0.172530	0.311409	-0.615392	-0.424805	-0.291992	0.440918	12.117101	-86.163977	146.987625
37630		11.514322	-1.569192	1.782052	-0.074929	0.372270	-0.560028	-0.433350	-0.293701	0.440430	15.828711	-85.881621	143.229972
37631		11.452386	-1.202545	1.798597	0.003167	0.452419	-0.422345	-0.430664	-0.282471	0.435059	17.935284	-85.564764	141.125336
37632		11.064078	-0.725767	2.192018	0.078515	0.393774	-0.242172	-0.429688	-0.300293	0.442139	18.757590	-85.309133	140.351485
37633		10.608324	-0.318755	2.211005	0.126645	0.194667	-0.047837	-0.440186	-0.303955	0.442627	18.724862	-85.196167	140.463114
37634		10.097919	0.010589	1.912411	0.166159	0.089233	0.108476	-0.442871	-0.285645	0.428711	17.945496	-85.169385	141.346722
37635		9.531295	0.239559	1.857102	0.152321	-0.028902	0.221315	-0.435059	-0.292969	0.434814	16.663328	-85.224348	142.726962
37636		9.378070	0.289214	1.530941	0.111295	-0.176040	0.298393	-0.439941	-0.287109	0.437500	15.078674	-85.370370	144.386890
37637		9.478817	0.317036	1.467429	0.055152	-0.271305	0.343652	-0.437744	-0.288330	0.437256	13.191235	-85.570644	146.317916
37638		9.686405	0.156652	1.395344	-0.005043	-0.302777	0.373777	-0.439941	-0.284424	0.447754	10.909945	-85.787334	148.608742
37639		9.833336	-0.156972	1.163578	-0.044133	-0.236549	0.394160	-0.446777	-0.293457	0.447021	8.118692	-85.959810	151.387876
37640		9.916359	-0.450463	0.889499	-0.059893	-0.123991	0.387102	-0.434814	-0.286133	0.448242	5.054654	-86.058189	154.430892
37641		9.924439	-0.649538	0.752902	-0.064481	0.000942	0.372612	-0.437012	-0.279541	0.447998	1.927654	-86.072105	157.534229
37642		9.706789	-0.824909	0.759451	-0.049163	0.101745	0.346369	-0.441650	-0.277344	0.447998	-0.969916	-86.017814	160.416412
37643		9.522178	-0.938454	0.758579	-0.018044	0.153098	0.328794	-0.437988	-0.282227	0.440186	-3.597149	-85.924097	163.045767
37644		9.242083	-0.943864	0.790766	0.029724	0.192740	0.316031	-0.447266	-0.286865	0.438232	-5.942760	-85.801330	165.420514
37645		8.985545	-1.056382	0.935934	0.070903	0.217408	0.299319	-0.447510	-0.275391	0.437500	-7.976044	-85.658333	167.506166
37646		8.813189	-1.091200	0.923215	0.109694	0.240530	0.272530	-0.440186	-0.273682	0.436279	-9.633395	-85.500580	169.237436
37647		8.706459	-1.196521	0.942978	0.139559	0.252723	0.250462	-0.448975	-0.275146	0.435303	-10.988998	-85.333849	170.683570
37648		8.725860	-1.167558	0.972372	0.161764	0.252637	0.228369	-0.458008	-0.271973	0.431885	-12.089082	-85.168184	171.886385
37649		8.844703	-1.013563	0.991544	0.186057	0.236462	0.208371	-0.450439	-0.274170	0.435303	-12.994946	-85.011403	172.908538
37650		8.912362	-0.844886	1.015378	0.197655	0.187404	0.200576	-0.463135	-0.268066	0.434814	-13.862594	-84.882600	173.899204
37651		8.967361	-0.715043	1.008296	0.208362	0.119447	0.194763	-0.450684	-0.272217	0.437500	-14.751595	-84.790078	174.917649
37652		8.950202	-0.601607	0.826859	0.220798	0.057320	0.178109	-0.459717	-0.269043	0.434326	-15.604960	-84.733977	175.907576
37653		9.070383	-0.490413	0.474200	0.238538	0.000361	0.154660	-0.455811	-0.272705	0.434326	-16.389276	-84.710711	176.838436
37654		9.135410	-0.493125	0.185256	0.264466	-0.037735	0.127312	-0.462158	-0.264893	0.433350	-17.059665	-84.712729	177.669812
37655		9.226594	-0.515383	-0.041382	0.282789	-0.065495	0.097586	-0.460449	-0.272949	0.437988	-17.596475	-84.733265	178.377569
37656		9.277364	-0.581958	-0.221300	0.298243	-0.058221	0.069097	-0.452881	-0.266357	0.439453	-17.946571	-84.755240	178.906690
37657		9.120928	-0.699651	-0.386683	0.304639	-0.017360	0.029670	-0.456055	-0.264404	0.440918	-17.982092	-84.760862	179.123579
37658		9.260954	-0.631330	-0.336565	0.302142	0.030069	-0.010032	-0.464111	-0.261475	0.434326	-17.692384	-84.748514	179.012440
37659		8.936333	-0.761508	-0.266918	0.291356	0.080372	-0.049649	-0.454834	-0.262207	0.438232	-17.082324	-84.714530	178.573363
37660		8.993217	-0.692331	-0.049907	0.269662	0.125999	-0.093878	-0.466064	-0.258545	0.439941	-16.151202	-84.663037	177.799343
37661		9.319198	-0.528281	0.207135	0.245577	0.136897	-0.116977	-0.459717	-0.261719	0.444824	-15.098440	-84.607069	176.889191
37662		9.287019	-0.609031	0.343007	0.225145	0.136376	-0.120122	-0.465820	-0.262939	0.430176	-14.059165	-84.551091	175.980772
37663		9.109047	-0.637459	0.478289	0.213012	0.127623	-0.135076	-0.460205	-0.259033	0.440918	-12.973350	-84.499647	175.018494
37664		9.227443	-0.635245	0.637218	0.188130	0.054442	-0.149604	-0.457520	-0.251953	0.436523	-11.925258	-84.490002	174.079783
37665		9.098943	-0.759605	0.453558	0.171246	0.010059	-0.161340	-0.459717	-0.264648	0.438965	-10.873972	-84.504224	173.128099
37666		9.202252	-0.517826	0.514592	0.155899	-0.002556	-0.172122	-0.467773	-0.261230	0.440186	-9.774031	-84.525688	172.118781
37667		10.158873	0.000787	0.707852	0.136336	-0.115320	-0.126650	-0.459229	-0.265137	0.435547	-9.056073	-84.604377	171.481935
37668		10.404490	-0.018530	0.254189	0.110781	-0.163490	-0.070621	-0.458740	-0.262939	0.441895	-8.716459	-84.705530	171.210533
37669		10.016368	-0.051204	0.133243	0.095586	-0.048708	-0.059503	-0.458984	-0.266113	0.442871	-8.340254	-84.739853	170.893613
37670		9.900218	0.166495	0.386605	0.056738	-0.047672	-0.048906	-0.463135	-0.267334	0.437744	-8.044161	-84.773239	170.634866
37671		9.855885	0.325692	0.240137	-0.013884	-0.112982	-0.027011	-0.457764	-0.257324	0.444580	-7.981386	-84.841204	170.569731
37672		9.903617	0.320392	-0.189326	-0.088879	-0.108434	0.005751	-0.457275	-0.262207	0.444336	-8.162113	-84.904611	170.705998
37673		9.823649	0.060040	-0.461275	-0.154460	-0.020663	0.024274	-0.462158	-0.267090	0.437744	-8.422924	-84.916071	170.884883
37674		9.599438	-0.289124	-0.692704	-0.192006	0.055958	0.031085	-0.456299	-0.263428	0.430420	-8.673330	-84.884074	171.031779
37675		9.565891	-0.725266	-1.029300	-0.178030	0.108173	0.017516	-0.467285	-0.268311	0.441162	-8.779892	-84.823108	171.042243
37676		9.644001	-1.169423	-1.009055	-0.134347	0.193055	0.000613	-0.464355	-0.271729	0.432617	-8.673795	-84.716078	170.864350
37677		9.752043	-1.381056	-0.693490	-0.084979	0.239332	-0.009177	-0.459473	-0.272461	0.433105	-8.448132	-84.583164	170.594667
37678		9.789906	-1.508423	-0.378275	-0.036153	0.234358	-0.011612	-0.468750	-0.261963	0.434082	-8.193939	-84.453620	170.324444
37679		9.986461	-1.551306	-0.149204	-0.000776	0.173453	-0.000208	-0.462402	-0.265137	0.431641	-8.049312	-84.357221	170.184523
37680		10.363942	-1.498270	-0.139442	0.023928	0.119914	0.023406	-0.476563	-0.267334	0.431152	-8.068291	-84.289671	170.223322
37681		10.824069	-1.250795	-0.062728	0.042058	0.113031	0.055660	-0.466797	-0.271484	0.425293	-8.266597	-84.223049	170.452669
37682		11.129708	-0.850635	0.379036	0.038123	0.090837	0.108449	-0.468262	-0.272949	0.431152	-8.769427	-84.164729	170.985997
37683		11.534452	-0.486822	0.561172	0.005847	0.007739	0.179914	-0.465820	-0.266113	0.428223	-9.753749	-84.145801	171.984636
37684		11.900273	-0.238760	0.343045	-0.036334	-0.028092	0.255985	-0.469971	-0.269775	0.427002	-11.205625	-84.137298	173.429159
37685		12.124202	0.014581	0.231654	-0.080067	0.044995	0.323143	-0.469238	-0.270020	0.425781	-12.954923	-84.075372	175.147435
37686		12.137942	0.282036	0.705388	-0.123074	0.135349	0.376158	-0.470215	-0.266602	0.427490	-14.840977	-83.950635	176.978879
37687		12.001070	0.589634	1.537535	-0.149502	0.154201	0.428431	-0.470703	-0.264648	0.425781	-16.904633	-83.800516	178.974037
37688		11.545005	0.765975	2.072666	-0.167702	0.084246	0.462360	-0.479248	-0.269287	0.429688	-19.159744	-83.674879	-178.848026
37689		10.870017	0.616041	2.187163	-0.171653	-0.013522	0.459067	-0.472656	-0.266602	0.426758	-21.496169	-83.592694	-176.590233
37690		10.174399	0.136410	1.783399	-0.168585	-0.074470	0.406975	-0.477051	-0.265137	0.420898	-23.649326	-83.544812	-174.514690
37691		9.497031	-0.484334	1.563428	-0.160601	-0.093856	0.312514	-0.477051	-0.265869	0.425293	-25.379295	-83.521285	-172.860396
37692		8.965084	-1.103807	1.660852	-0.147537	-0.113154	0.193514	-0.484619	-0.262207	0.424072	-26.594776	-83.533165	-171.716235
37693		8.628095	-1.480406	1.753705	-0.107167	-0.138898	0.079966	-0.476807	-0.263184	0.425293	-27.342106	-83.585078	-171.020094
37694		8.432380	-1.635055	1.712878	-0.036735	-0.174506	-0.016733	-0.477295	-0.269775	0.422852	-27.703747	-83.680337	-170.671430
37695		8.365312	-1.554242	1.956766	0.081548	-0.197500	-0.076814	-0.478760	-0.269287	0.428711	-27.787488	-83.802662	-170.534340
37696		8.314097	-1.452492	2.361784	0.209222	-0.258298	-0.104596	-0.475098	-0.270996	0.429199	-27.820305	-83.963678	-170.374820
37697		8.433063	-1.256217	2.416841	0.316384	-0.347842	-0.084483	-0.471680	-0.265869	0.427979	-28.133125	-84.164002	-169.872229
37698		8.741086	-1.129414	2.216861	0.426280	-0.395496	-0.037426	-0.472656	-0.260010	0.433350	-28.781120	-84.375592	-168.969565
37699		8.954235	-0.753322	2.299608	0.500862	-0.333731	0.032666	-0.471924	-0.264893	0.438721	-29.630726	-84.534874	-167.821816
37700		9.124879	-0.230956	2.508684	0.530884	-0.240004	0.119078	-0.475342	-0.255859	0.441406	-30.681278	-84.621619	-166.455056
37701		9.185779	0.324079	2.675443	0.518868	-0.138041	0.212101	-0.464844	-0.267578	0.439209	-31.931916	-84.627438	-164.894453
37702		9.370331	0.783159	2.761153	0.498035	-0.071486	0.302983	-0.463867	-0.259033	0.441406	-33.432240	-84.570230	-163.094867
37703		9.303971	1.075253	2.623263	0.475037	-0.020763	0.370014	-0.475098	-0.249756	0.447266	-35.062346	-84.462017	-161.177972
37704		9.270390	1.167067	2.493984	0.448754	0.032632	0.403287	-0.468506	-0.245850	0.439941	-36.607230	-84.313559	-159.361345
37705		9.319237	1.044155	2.107246	0.408895	0.076101	0.407081	-0.477295	-0.244629	0.439453	-37.953103	-84.138764	-157.767228
37706		9.446558	0.871732	2.016281	0.356841	0.134956	0.374434	-0.473145	-0.238281	0.443115	-38.905737	-83.946773	-156.597906
37707		9.638946	0.619513	2.024497	0.289403	0.091720	0.327902	-0.480225	-0.239990	0.439697	-39.786752	-83.788166	-155.539102
37708		9.626506	0.194209	1.803502	0.227947	0.081533	0.271086	-0.472412	-0.234863	0.444580	-40.468821	-83.654236	-154.715571
37709		9.408907	-0.149102	1.701327	0.186547	0.101171	0.192416	-0.478027	-0.229004	0.450684	-40.775096	-83.539587	-154.293841
37710		9.560404	-0.337555	1.648063	0.147536	0.041590	0.107891	-0.472656	-0.233887	0.439209	-40.971171	-83.482992	-154.005467
37711		9.888257	-0.588221	1.316292	0.136924	-0.018755	0.032852	-0.477539	-0.234863	0.438477	-41.082052	-83.479852	-153.808910
37712		10.156532	-0.667126	1.263577	0.164304	-0.019388	-0.034116	-0.478271	-0.239014	0.450684	-40.929229	-83.502934	-153.862016
37713		10.381026	-0.881937	1.343045	0.220126	-0.031342	-0.096042	-0.477051	-0.232178	0.446777	-40.542026	-83.553559	-154.118776
37714		10.578491	-0.986765	1.091530	0.286178	-0.057640	-0.150532	-0.479736	-0.234619	0.438965	-39.988649	-83.636396	-154.504673
37715		10.781048	-1.013655	0.866260	0.350839	-0.037865	-0.196906	-0.476318	-0.235107	0.449463	-39.130068	-83.726096	-155.160267
37716		10.711637	-0.903734	0.709050	0.415046	-0.025489	-0.234430	-0.479004	-0.233643	0.453125	-38.019643	-83.823201	-156.032109
37717		10.490693	-0.643461	0.719057	0.474545	0.003712	-0.257969	-0.483887	-0.227783	0.449707	-36.644931	-83.912313	-157.135292
37718		10.130035	-0.415779	0.730926	0.521796	0.034920	-0.265297	-0.478760	-0.226074	0.452148	-35.079151	-83.987147	-158.403246
37719		9.620399	-0.306046	0.799490	0.547957	0.045177	-0.269829	-0.482178	-0.230225	0.458252	-33.408584	-84.053982	-159.761302
37720		9.398374	0.052126	0.951327	0.565998	-0.018527	-0.262875	-0.479980	-0.236816	0.450928	-31.917955	-84.146274	-160.927897
37721		9.516587	0.240139	0.713381	0.540166	-0.060254	-0.264593	-0.478027	-0.236084	0.449707	-30.509980	-84.255663	-162.026054
37722		9.413795	0.363716	0.652028	0.497756	-0.016301	-0.262874	-0.480713	-0.229736	0.458740	-28.965933	-84.340607	-163.285217
37723		9.264151	0.489512	0.797287	0.442914	-0.005160	-0.262124	-0.474365	-0.234375	0.450684	-27.382583	-84.415493	-164.615242
37724		9.210973	0.692926	0.645584	0.387662	0.000283	-0.255727	-0.476318	-0.242432	0.453857	-25.815230	-84.483129	-165.960869
37725		9.160385	0.868742	0.604363	0.332495	0.048729	-0.234656	-0.477295	-0.224365	0.459961	-24.237017	-84.516138	-167.349006
37726		9.066011	0.989090	0.528451	0.280156	0.074102	-0.197825	-0.472412	-0.233887	0.458740	-22.819034	-84.524678	-168.606296
37727		9.043769	1.078219	0.456848	0.224131	0.090026	-0.168196	-0.473877	-0.228027	0.451416	-21.556306	-84.514803	-169.739810
37728		8.921115	1.068425	0.363939	0.183361	0.105920	-0.125004	-0.480225	-0.229980	0.450684	-20.532150	-84.486133	-170.657211
37729		8.860146	1.073732	0.366998	0.147184	0.108036	-0.093627	-0.483643	-0.223389	0.456055	-19.705674	-84.448014	-171.396809
37730		8.922340	0.966987	0.207061	0.109120	0.105240	-0.064730	-0.481445	-0.234619	0.455078	-19.080198	-84.405724	-171.956489
37731		9.006087	0.906425	-0.012466	0.064752	0.122493	-0.038280	-0.483643	-0.234131	0.456055	-18.598825	-84.347989	-172.396871
37732		8.967216	0.840460	-0.067907	0.016645	0.161527	-0.007682	-0.482666	-0.241211	0.458740	-18.254245	-84.263860	-172.727626
37733		8.837344	0.823742	-0.041099	-0.034274	0.192890	0.024339	-0.490479	-0.235352	0.454346	-18.061022	-84.156166	-172.935522
37734		8.670997	0.653307	0.096042	-0.078588	0.162857	0.052615	-0.482666	-0.240723	0.451904	-18.102986	-84.060394	-172.932650
37735		8.594723	0.578246	0.131413	-0.115983	0.061925	0.072030	-0.484131	-0.236572	0.446289	-18.434000	-84.015484	-172.660579
37736		8.605289	0.496939	-0.139690	-0.143035	-0.047912	0.084095	-0.491455	-0.231934	0.451172	-19.035944	-84.028285	-172.131792
37737		8.685738	0.432355	-0.203763	-0.174282	-0.111858	0.081659	-0.492676	-0.238037	0.450439	-19.759595	-84.074964	-171.498538
37738		8.938794	0.430559	-0.474435	-0.230328	-0.122182	0.084485	-0.489014	-0.238037	0.463623	-20.565528	-84.126258	-170.815035
37739		8.876264	0.490114	-0.755487	-0.284741	-0.081011	0.092491	-0.492188	-0.240967	0.453613	-21.368946	-84.152460	-170.165308
37740		8.776786	0.402115	-0.694202	-0.328148	-0.062679	0.112648	-0.484863	-0.235840	0.453613	-22.274457	-84.164050	-169.438116
37741		8.851588	0.342019	-0.589106	-0.371082	-0.122469	0.120914	-0.491455	-0.237305	0.447998	-23.378153	-84.203740	-168.536329
37742		9.128276	0.520193	-0.370414	-0.404080	-0.224326	0.109802	-0.485107	-0.248535	0.447266	-24.702758	-84.297708	-167.431770
37743		9.603426	0.710444	-0.506314	-0.443315	-0.275684	0.075744	-0.484619	-0.243896	0.452148	-26.037163	-84.423783	-166.340015
37744		9.998766	0.622614	-0.768145	-0.464357	-0.214653	0.052016	-0.489990	-0.251221	0.460693	-27.151350	-84.522592	-165.481976
37745		10.449543	0.458845	-0.500588	-0.450765	-0.079673	0.028264	-0.487305	-0.250244	0.447021	-27.778868	-84.557632	-165.104940
37746		10.690964	0.212099	-0.016768	-0.407159	0.027691	-0.011359	-0.485107	-0.248535	0.447998	-27.878444	-84.548792	-165.233308
37747		10.817592	-0.144367	0.377096	-0.367900	0.071161	-0.059681	-0.487061	-0.253662	0.447998	-27.572832	-84.530671	-165.745953
37748		10.594088	-0.375304	0.389964	-0.330314	0.062968	-0.100160	-0.490479	-0.253662	0.445313	-27.060963	-84.527113	-166.444340
37749		9.971910	-0.602689	0.123743	-0.301545	-0.006148	-0.130623	-0.482666	-0.261475	0.454102	-26.549077	-84.566099	-167.126000
37750		9.584561	-0.765162	-0.379714	-0.284036	-0.085162	-0.162193	-0.488037	-0.261963	0.446045	-26.061932	-84.653202	-167.772826
37751		9.686025	-0.544654	-0.845053	-0.281521	-0.047181	-0.187162	-0.492188	-0.269043	0.446533	-25.308003	-84.726174	-168.685899
37752		9.943863	-0.071598	-0.614576	-0.290530	0.091321	-0.196271	-0.489258	-0.267822	0.447266	-24.133921	-84.727877	-170.026194
37753		10.211616	0.439952	-0.176799	-0.292627	0.185149	-0.191005	-0.485840	-0.270020	0.448730	-22.761456	-84.676303	-171.566834
37754		10.758387	0.726799	0.115945	-0.288927	0.199368	-0.190530	-0.485352	-0.270752	0.438477	-21.391853	-84.613712	-173.102762
37755		11.514412	0.683437	0.617804	-0.250878	0.203439	-0.210106	-0.493164	-0.274658	0.444092	-19.910920	-84.549363	-174.728622
37756		12.174423	0.203059	1.030562	-0.188571	0.158552	-0.256700	-0.485107	-0.273926	0.433105	-18.257471	-84.513872	-176.492220
37757		12.703634	-0.294340	1.031546	-0.142322	0.047116	-0.303753	-0.490967	-0.282227	0.438965	-16.515613	-84.542419	-178.317850
37758		12.925583	-0.722440	0.842727	-0.126932	-0.012566	-0.340726	-0.488037	-0.288086	0.440918	-14.628354	-84.604081	179.719287
37759		12.419686	-0.874093	0.662881	-0.160954	-0.083876	-0.349427	-0.494141	-0.289551	0.432373	-12.757240	-84.700485	177.753484
37760		11.584660	-0.615244	0.561328	-0.220354	-0.152554	-0.329639	-0.495850	-0.287354	0.443848	-11.061554	-84.827340	175.929857
37761		10.954648	-0.065776	0.736118	-0.255138	-0.194450	-0.293044	-0.490723	-0.297119	0.442871	-9.572906	-84.969349	174.294623
37762		10.377795	0.556565	1.466701	-0.279863	-0.240561	-0.257554	-0.480713	-0.294434	0.447754	-8.293865	-85.130789	172.855787
37763		10.024047	1.071928	2.075394	-0.335662	-0.328837	-0.210245	-0.484619	-0.299072	0.441162	-7.352991	-85.336148	171.724758
37764		9.793539	1.228121	2.030733	-0.377997	-0.406745	-0.160107	-0.493652	-0.303467	0.446533	-6.780336	-85.581075	170.938982
37765		9.536327	1.107479	1.808760	-0.386009	-0.411671	-0.118829	-0.479980	-0.306885	0.441406	-6.451705	-85.825457	170.393743
37766		9.157580	1.007997	1.828381	-0.394725	-0.351193	-0.087122	-0.478027	-0.304199	0.445801	-6.290321	-86.033334	170.011153
37767		8.717752	0.619516	2.031608	-0.413669	-0.309865	-0.058254	-0.483887	-0.306152	0.451904	-6.312379	-86.215649	169.801821
37768		8.338656	0.198086	1.994486	-0.470819	-0.293199	-0.052766	-0.486328	-0.311768	0.449463	-6.400980	-86.388315	169.626217
37769		8.108678	-0.229963	1.829594	-0.519664	-0.216412	-0.081032	-0.478027	-0.313232	0.452881	-6.159047	-86.518764	169.091624
37770		7.975865	-0.553368	1.994492	-0.550087	-0.075943	-0.146946	-0.479980	-0.326904	0.446045	-5.152804	-86.572727	167.773730
37771		7.894793	-0.871449	2.281936	-0.552505	0.048454	-0.226950	-0.469727	-0.312500	0.449219	-3.259875	-86.556605	165.566379
37772		8.007880	-1.080602	2.484259	-0.538609	0.143249	-0.316277	-0.487793	-0.329590	0.446777	-0.538409	-86.482916	162.536647
37773		8.549121	-1.221733	2.496502	-0.487114	0.210810	-0.409306	-0.473633	-0.329834	0.440674	2.908806	-86.359124	158.809170
37774		9.129895	-1.401730	2.483921	-0.403748	0.285247	-0.498926	-0.479736	-0.331543	0.441406	6.841778	-86.174203	154.641957
37775		9.964806	-1.637864	2.459337	-0.303022	0.314553	-0.553561	-0.478516	-0.333984	0.433350	10.837262	-85.948931	150.469094
37776		10.746999	-1.746930	2.051382	-0.210969	0.362473	-0.554396	-0.483398	-0.346924	0.434326	14.348813	-85.679127	146.832904
37777		11.146193	-1.677601	2.009068	-0.154107	0.439486	-0.509599	-0.481201	-0.343018	0.422852	16.998093	-85.359259	144.093019
37778		11.081142	-1.130890	1.958258	-0.123426	0.475136	-0.408826	-0.484375	-0.349121	0.432129	18.606527	-85.030614	142.413894
37779		10.866822	-0.491084	2.094550	-0.099005	0.493141	-0.266498	-0.490234	-0.353027	0.426270	19.157374	-84.715325	141.809937
37780		10.467392	0.059338	2.426672	-0.068117	0.428139	-0.111945	-0.489746	-0.355469	0.414307	18.928861	-84.464699	142.006216
37781		9.880702	0.422408	2.439655	-0.042436	0.218897	0.041134	-0.499756	-0.358154	0.424316	18.282582	-84.354787	142.637205
37782		9.455157	0.674792	2.139235	-0.045188	0.066286	0.160346	-0.490967	-0.352539	0.426025	17.269415	-84.348873	143.635247
37783		9.342926	0.843505	1.987408	-0.085543	-0.066293	0.256368	-0.484375	-0.348877	0.426270	15.912380	-84.428628	144.955627
37784		9.625248	0.882810	1.737430	-0.174909	-0.210445	0.322216	-0.496826	-0.356689	0.430176	14.297744	-84.595403	146.482966
37785		9.848054	0.685682	1.396749	-0.249103	-0.255008	0.372087	-0.476563	-0.349121	0.425049	12.297818	-84.788065	148.354233
37786		9.967163	0.409974	1.264401	-0.302993	-0.230593	0.390988	-0.496338	-0.352783	0.425537	9.970033	-84.963276	150.522999
37787		10.129762	0.101558	1.114119	-0.341229	-0.174625	0.375132	-0.498291	-0.344238	0.428955	7.520026	-85.096317	152.792080
37788		10.121789	-0.447481	0.822376	-0.367863	-0.076218	0.334633	-0.497803	-0.348633	0.427734	5.139792	-85.163200	154.975344
37789		9.917518	-0.582569	0.750433	-0.360181	0.043837	0.287111	-0.501221	-0.350830	0.428467	2.987630	-85.151299	156.934185
37790		9.586213	-0.875070	0.628797	-0.334533	0.099780	0.249406	-0.504150	-0.348145	0.425293	1.105642	-85.101616	158.636574
37791		9.176063	-0.928533	0.611432	-0.292906	0.160088	0.209157	-0.497803	-0.345459	0.427002	-0.443583	-85.012116	160.029204
37792		9.102643	-0.796295	0.750673	-0.264496	0.173584	0.185020	-0.508545	-0.356201	0.415039	-1.768767	-84.912987	161.213335
37793		9.013285	-0.730018	0.726718	-0.220060	0.157402	0.185115	-0.510986	-0.352051	0.426025	-3.023618	-84.820002	162.352711
37794		9.122746	-0.722323	0.603075	-0.175565	0.186572	0.184792	-0.515137	-0.351563	0.421631	-4.198094	-84.709006	163.437038
37795		9.225255	-0.766074	0.606661	-0.126866	0.228428	0.190028	-0.516602	-0.354004	0.406494	-5.304050	-84.571130	164.480902
37796		9.257173	-0.826108	0.627381	-0.074976	0.257653	0.187902	-0.512695	-0.355469	0.409424	-6.298368	-84.415735	165.442620
37797		9.146266	-0.946298	0.629730	-0.017088	0.260734	0.178758	-0.512207	-0.343506	0.406006	-7.150732	-84.256970	166.295380
37798		9.043540	-1.016625	0.690816	0.038241	0.239583	0.170639	-0.515869	-0.350342	0.406982	-7.899619	-84.110430	167.076116
37799		8.927898	-0.953219	0.654137	0.090738	0.210017	0.165504	-0.518799	-0.349609	0.409668	-8.576161	-83.979356	167.814646
37800		8.877327	-0.891331	0.496180	0.142308	0.150453	0.168318	-0.517090	-0.352051	0.406006	-9.261155	-83.881593	168.591451
37801		8.921662	-0.793656	0.191089	0.197662	0.102300	0.164678	-0.516357	-0.347656	0.412109	-9.914978	-83.809700	169.369010
37802		8.812203	-0.767169	-0.027763	0.242542	0.077290	0.157066	-0.515137	-0.349854	0.417236	-10.513363	-83.752504	170.116682
37803		8.692911	-0.720891	-0.092138	0.272770	0.052230	0.131218	-0.529297	-0.343994	0.412109	-10.974118	-83.710742	170.743463
37804		8.698704	-0.712160	-0.074070	0.288642	0.011865	0.108688	-0.524170	-0.342285	0.410645	-11.347403	-83.694359	171.291354
37805		8.401047	-0.917800	-0.127357	0.300725	-0.012670	0.060541	-0.515625	-0.346436	0.411377	-11.491652	-83.696303	171.615850
37806		8.470937	-0.835353	-0.104684	0.308640	0.004311	-0.013469	-0.529785	-0.348633	0.413818	-11.238942	-83.697742	171.545472
37807		9.089023	-0.527923	0.220073	0.318158	-0.044038	-0.040424	-0.518799	-0.338867	0.411133	-10.890303	-83.728689	171.384123
37808		8.478840	-0.708502	0.078025	0.325938	-0.027714	-0.077369	-0.524170	-0.345215	0.411865	-10.329672	-83.754802	171.013955
37809		8.317238	-0.614910	0.447403	0.331773	-0.044291	-0.133810	-0.533936	-0.340820	0.418457	-9.483146	-83.794769	170.359620
37810		8.316066	-0.561785	0.427382	0.322371	-0.159546	-0.147085	-0.528809	-0.342285	0.418213	-8.656314	-83.900676	169.719728
37811		8.081648	-0.573098	0.294955	0.308434	-0.229139	-0.166737	-0.519531	-0.336426	0.425049	-7.757129	-84.046062	168.999229
37812		9.255004	-0.037313	0.306290	0.272989	-0.307825	-0.142119	-0.518311	-0.339111	0.428223	-7.030759	-84.233804	168.432229
37813		10.315907	0.018068	0.024266	0.229105	-0.362329	-0.050370	-0.521240	-0.339600	0.432617	-6.859153	-84.445204	168.397664
37814		10.217558	-0.247384	-0.242697	0.203811	-0.257450	-0.012791	-0.529053	-0.341553	0.427734	-6.845531	-84.594891	168.507239
37815		10.463078	-0.192793	0.136891	0.168479	-0.181652	-0.007991	-0.527588	-0.343994	0.424072	-6.828240	-84.700660	168.592791
37816		10.874221	-0.037952	0.173142	0.099280	-0.228497	0.011002	-0.514404	-0.329590	0.426514	-7.007478	-84.832224	168.835845
37817		11.052755	0.128067	-0.216173	0.026126	-0.209820	0.035213	-0.515869	-0.342041	0.436523	-7.380582	-84.950892	169.231426
37818		10.978237	0.171635	-0.463073	-0.052490	-0.118735	0.056715	-0.522217	-0.343994	0.434082	-7.876525	-85.016363	169.705029
37819		10.661193	0.171684	-0.644083	-0.123546	-0.049118	0.065210	-0.524170	-0.337402	0.437988	-8.414472	-85.040907	170.179913
37820		10.512043	-0.100175	-0.904251	-0.154018	0.025705	0.055668	-0.515381	-0.341797	0.427490	-8.836656	-85.023914	170.521052
37821		10.517482	-0.380613	-0.743627	-0.132329	0.184261	0.042072	-0.518066	-0.342529	0.429688	-8.993627	-84.917932	170.608474
37822		10.543459	-0.653478	-0.164810	-0.087424	0.300860	0.042593	-0.520996	-0.348877	0.427734	-9.008643	-84.746207	170.579202
37823		10.862346	-0.730140	0.374627	-0.060216	0.303626	0.068771	-0.527832	-0.349121	0.425537	-9.162132	-84.570312	170.704658
37824		11.230652	-0.660238	0.737633	-0.063434	0.205384	0.134866	-0.531738	-0.342285	0.421387	-9.786309	-84.443869	171.301149
37825		11.545229	-0.660844	0.882302	-0.100361	0.084640	0.221710	-0.535645	-0.349609	0.428223	-11.028087	-84.375341	172.497028
37826		11.900439	-0.628148	0.876033	-0.149872	-0.023899	0.293903	-0.530762	-0.339844	0.429688	-12.810432	-84.356294	174.207685
37827		12.288959	-0.584175	0.526872	-0.208244	-0.072024	0.359916	-0.528564	-0.342041	0.423096	-15.053169	-84.348800	176.347402
37828		12.262596	-0.585353	0.132300	-0.243389	-0.052716	0.397074	-0.530273	-0.337646	0.429199	-17.478146	-84.316369	178.650100
37829		11.921876	-0.706896	-0.038396	-0.245795	0.019128	0.382677	-0.537354	-0.345947	0.428223	-19.658921	-84.238239	-179.293806
37830		11.544485	-1.057160	-0.052814	-0.186980	0.129384	0.337742	-0.543701	-0.337891	0.418945	-21.288721	-84.103350	-177.757274
37831		10.906571	-1.431451	0.321049	-0.108332	0.196375	0.262656	-0.544434	-0.338379	0.427002	-22.288633	-83.945101	-176.808382
37832		10.238483	-1.579309	0.988623	-0.009312	0.189923	0.178791	-0.543457	-0.345215	0.427002	-22.788379	-83.807559	-176.305181
37833		9.709742	-1.651483	1.336802	0.069599	0.100240	0.105147	-0.544434	-0.337158	0.421387	-23.054274	-83.733271	-175.991681
