// General information: 
//  MT Manager version: 2022.2.0 
//  XDA version: 2022.2.0 build 7381 rev 124627 built on 2023-07-19
// Device information: 
//  DeviceId: 00B4C223
//  ProductCode: MTW2-3A7G6
//  Firmware Version: 4.6.0
//  Hardware Version: 2.0.0
// Device settings: 
//  Filter Profile: human(46.1)
//  Option Flags: Orientation Smoother Disabled, Position/Velocity Smoother Disabled, Continuous Zero Rotation Update Disabled, AHS Disabled, ICC Disabled
// Coordinate system: ENU
PacketCounter	SampleTimeFine	Acc_X	Acc_Y	Acc_Z	Gyr_X	Gyr_Y	Gyr_Z	Mag_X	Mag_Y	Mag_Z	Roll	Pitch	Yaw
01748		-4.421290	-0.232176	8.948072	-0.035425	-0.015265	-0.013191	-0.975830	0.307861	-0.586670	-1.455171	26.556830	-9.661821
01749		-4.429844	-0.268885	8.943745	-0.039727	-0.011511	-0.013420	-0.976074	0.309570	-0.598633	-1.480810	26.549765	-9.674007
01750		-4.447389	-0.260990	8.900512	-0.039800	-0.008966	-0.009695	-0.972900	0.302979	-0.592041	-1.505730	26.544325	-9.683173
01751		-4.426840	-0.290467	8.912848	-0.033712	-0.012491	-0.008100	-0.986572	0.313477	-0.597656	-1.526387	26.536770	-9.691928
01752		-4.455813	-0.248468	8.911082	-0.039839	-0.007696	-0.007833	-0.980713	0.314453	-0.590332	-1.550801	26.532079	-9.700220
01753		-4.445169	-0.310773	8.918453	-0.034674	-0.010621	-0.010852	-0.976074	0.310791	-0.599121	-1.572806	26.525546	-9.710762
01754		-4.433397	-0.295257	8.892053	-0.034095	-0.009750	-0.005914	-0.981201	0.309082	-0.594971	-1.593358	26.519715	-9.715870
01755		-4.453171	-0.258686	8.912112	-0.027827	-0.009500	-0.006905	-0.979004	0.314453	-0.594238	-1.610316	26.513881	-9.723900
01756		-4.404057	-0.227831	8.955879	-0.028515	-0.006557	-0.006249	-0.977539	0.311279	-0.596680	-1.627791	26.509861	-9.729631
01757		-4.352615	-0.277255	8.921400	-0.032853	-0.001533	-0.004606	-0.970215	0.305908	-0.594238	-1.647034	26.508622	-9.736330
01758		-4.392995	-0.306277	8.931119	-0.033091	0.006255	-0.003128	-0.974609	0.310791	-0.590820	-1.666328	26.512021	-9.742027
01759		-4.361522	-0.382064	8.869432	-0.027106	0.006543	0.004062	-0.976563	0.298828	-0.598389	-1.679869	26.515550	-9.743328
01760		-4.451095	-0.482214	8.852293	-0.017186	0.004716	0.002085	-0.977295	0.314453	-0.596191	-1.688561	26.518124	-9.747462
01761		-4.421963	-0.475707	8.868980	0.000640	-0.000571	0.012792	-0.979980	0.317383	-0.591797	-1.683651	26.517725	-9.743043
01762		-4.501441	-0.304645	8.868277	0.017127	-0.011371	0.016197	-0.974609	0.310059	-0.595703	-1.668542	26.511305	-9.732806
01763		-4.481324	-0.275574	8.895606	0.019603	-0.014085	0.016910	-0.983887	0.312012	-0.587646	-1.651480	26.503233	-9.725502
01764		-4.451275	-0.213740	8.927914	0.017812	-0.014315	0.015537	-0.979980	0.314209	-0.592285	-1.636156	26.495089	-9.717988
01765		-4.470158	-0.224740	8.933529	0.012099	-0.013533	0.011749	-0.978516	0.312500	-0.594238	-1.624875	26.487246	-9.714002
01766		-4.459836	-0.229348	8.955857	0.009314	-0.010619	0.009497	-0.977539	0.311035	-0.590820	-1.616165	26.481137	-9.709208
01767		-4.467393	-0.274676	8.919928	0.008895	-0.016736	0.006809	-0.981689	0.317627	-0.595947	-1.608106	26.471379	-9.708328
01768		-4.426528	-0.195422	8.925382	0.003600	-0.009836	0.005711	-0.984619	0.310059	-0.596680	-1.603753	26.465658	-9.705417
01769		-4.397096	-0.227007	8.959319	-0.002867	-0.003567	0.006316	-0.983887	0.312012	-0.593750	-1.602680	26.463434	-9.705090
01770		-4.457263	-0.174679	8.972232	-0.008683	0.001029	0.008128	-0.974365	0.314697	-0.592285	-1.604758	26.463962	-9.701356
01771		-4.447758	-0.234003	8.979050	-0.012394	0.004547	0.001267	-0.977295	0.315186	-0.591064	-1.610647	26.466304	-9.704404
01772		-4.447319	-0.249064	8.947075	-0.017003	0.008504	-0.000488	-0.978271	0.312988	-0.590088	-1.620001	26.470988	-9.706531
01773		-4.427439	-0.290290	8.926890	-0.019658	0.007441	0.001379	-0.971924	0.306152	-0.592041	-1.630045	26.474988	-9.709562
01774		-4.409094	-0.265263	8.953168	-0.019693	0.008711	0.003244	-0.986572	0.307129	-0.594238	-1.639880	26.479841	-9.712504
01775		-4.438667	-0.235100	8.919129	-0.020276	0.007844	-0.001697	-0.977051	0.310303	-0.599365	-1.651159	26.484021	-9.717511
01776		-4.440651	-0.223393	8.950265	-0.023438	0.013501	-0.001751	-0.977783	0.311768	-0.591553	-1.664595	26.491546	-9.721904
01777		-4.451793	-0.258465	8.944583	-0.028604	0.016421	0.001268	-0.979004	0.303711	-0.598633	-1.679874	26.500685	-9.725177
01778		-4.480951	-0.333748	8.880488	-0.021341	0.013527	0.001156	-0.984131	0.311768	-0.589111	-1.691279	26.508268	-9.729214
01779		-4.413996	-0.236558	8.933394	-0.020347	0.010381	0.002033	-0.972900	0.305420	-0.589844	-1.701560	26.513960	-9.731889
01780		-4.352801	-0.318197	8.856504	-0.019029	0.016061	-0.000381	-0.981934	0.305664	-0.596924	-1.712123	26.522911	-9.737289
01781		-4.374449	-0.423671	8.862516	-0.010388	0.017404	0.004946	-0.973389	0.305176	-0.599121	-1.715927	26.532674	-9.738235
01782		-4.458083	-0.318211	8.926077	-0.003880	0.019990	0.009231	-0.978271	0.310547	-0.596680	-1.715074	26.544116	-9.738247
01783		-4.449772	-0.193947	8.928447	-0.000718	0.014333	0.009284	-0.969727	0.309814	-0.596680	-1.712071	26.552194	-9.736358
01784		-4.442123	-0.291140	8.951316	-0.002363	0.019152	0.007200	-0.976563	0.308594	-0.593018	-1.710919	26.563124	-9.735778
01785		-4.482473	-0.291802	8.911815	-0.003881	0.019989	0.009229	-0.969727	0.307861	-0.586670	-1.709791	26.574442	-9.734031
01786		-4.453992	-0.246212	8.911186	-0.005438	0.011975	0.006369	-0.972656	0.309082	-0.588379	-1.710602	26.581177	-9.735456
01787		-4.504554	-0.266118	8.898667	-0.003956	0.012405	0.006206	-0.977051	0.308350	-0.593506	-1.710317	26.588099	-9.735501
01788		-4.365086	-0.358098	8.867468	0.000798	0.013493	0.007253	-0.968750	0.308350	-0.590576	-1.707312	26.595718	-9.735742
01789		-4.387625	-0.356626	8.903417	0.005821	0.015646	0.011705	-0.977051	0.311035	-0.600098	-1.699876	26.604589	-9.732325
01790		-4.438140	-0.336384	8.873896	0.008063	0.020717	0.013904	-0.978271	0.312744	-0.593262	-1.690847	26.616504	-9.727655
01791		-4.441090	-0.321172	8.904702	0.011676	0.019902	0.014785	-0.976563	0.311768	-0.592773	-1.679205	26.627865	-9.722341
01792		-4.503138	-0.267015	8.916653	0.009887	0.019675	0.013410	-0.982666	0.307617	-0.594971	-1.669285	26.639115	-9.716822
01793		-4.465283	-0.278413	8.922806	0.010499	0.019268	0.016483	-0.977783	0.307617	-0.595215	-1.657820	26.650139	-9.710402
01794		-4.466598	-0.329502	8.907067	0.005402	0.019653	0.015762	-0.974365	0.309082	-0.590576	-1.649787	26.661409	-9.705507
01795		-4.487923	-0.302292	8.894293	0.008366	0.020511	0.015436	-0.974854	0.316162	-0.593750	-1.639851	26.673125	-9.699776
01796		-4.530848	-0.221865	8.932984	0.002779	0.017322	0.015755	-0.981201	0.311523	-0.593506	-1.633304	26.683062	-9.692611
01797		-4.522520	-0.188391	8.937238	0.000723	0.016029	0.010977	-0.979004	0.309326	-0.592529	-1.628991	26.692137	-9.689652
01798		-4.522230	-0.254174	8.890047	-0.001558	0.012228	0.010643	-0.967041	0.305420	-0.598389	-1.626360	26.699041	-9.686767
01799		-4.495775	-0.272325	8.954886	-0.003613	0.010936	0.005865	-0.980225	0.306152	-0.602051	-1.625961	26.705116	-9.686991
01800		-4.514480	-0.221385	8.893990	-0.003956	0.012407	0.006193	-0.975586	0.317139	-0.595947	-1.625943	26.712162	-9.689064
01801		-4.476469	-0.273369	8.917356	-0.004716	0.007767	0.003832	-0.980225	0.309326	-0.593262	-1.626735	26.716389	-9.690534
01802		-4.516636	-0.260489	8.910017	-0.003421	0.004418	0.006249	-0.984863	0.312988	-0.596680	-1.626362	26.718775	-9.688898
01803		-4.527338	-0.241006	8.919678	-0.009999	0.004376	0.005687	-0.979980	0.305176	-0.600586	-1.629619	26.721090	-9.689117
01804		-4.487798	-0.307222	8.911560	-0.009468	0.006683	0.002780	-0.974854	0.315918	-0.590576	-1.633720	26.724727	-9.691716
01805		-4.508380	-0.320896	8.916172	-0.011444	0.002679	0.003982	-0.972412	0.306152	-0.593506	-1.638283	26.726042	-9.692998
01806		-4.487739	-0.269992	8.894419	-0.012318	0.001843	0.007218	-0.981689	0.315186	-0.599121	-1.642709	26.726968	-9.691867
01807		-4.519512	-0.250363	8.940706	-0.014715	0.002024	0.002768	-0.978027	0.308838	-0.596680	-1.649491	26.727888	-9.693916
01808		-4.499345	-0.238636	8.935830	-0.013687	-0.002390	0.001781	-0.975830	0.319580	-0.597412	-1.656221	26.726325	-9.695570
01809		-4.519254	-0.252799	8.940767	-0.016653	-0.003248	0.002103	-0.977783	0.313721	-0.594482	-1.664261	26.724214	-9.697948
01810		-4.517157	-0.229384	8.892428	-0.022358	-0.002453	-0.001696	-0.971924	0.313965	-0.597412	-1.676958	26.722560	-9.699352
01811		-4.515188	-0.297487	8.845945	-0.019544	-0.006641	-0.001309	-0.980469	0.314453	-0.607422	-1.687610	26.718448	-9.703852
01812		-4.476106	-0.298405	8.884927	-0.014449	-0.007029	-0.000585	-0.977051	0.312988	-0.596924	-1.695382	26.714274	-9.705262
01813		-4.505919	-0.292767	8.899953	-0.014144	-0.007234	0.000952	-0.972656	0.309570	-0.590088	-1.702281	26.709859	-9.708300
01814		-4.466027	-0.254373	8.922284	-0.009316	-0.008684	-0.001728	-0.973389	0.308105	-0.587646	-1.707462	26.704620	-9.713166
01815		-4.514652	-0.275236	8.910579	-0.015552	-0.010197	-0.002621	-0.974854	0.313721	-0.597168	-1.716170	26.698447	-9.718436
01816		-4.473015	-0.303171	8.886322	-0.009279	-0.009951	-0.003596	-0.969238	0.303955	-0.597412	-1.721854	26.692446	-9.724816
01817		-4.443905	-0.283808	8.935371	-0.013155	-0.010382	0.001828	-0.974121	0.314209	-0.597900	-1.727905	26.686242	-9.727228
01818		-4.442303	-0.298672	8.903876	-0.014641	-0.000513	-0.000963	-0.975586	0.315918	-0.596436	-1.735953	26.685772	-9.732765
01819		-4.412486	-0.345463	8.905796	-0.009240	-0.001105	0.001297	-0.970703	0.306152	-0.599854	-1.739993	26.684872	-9.735696
01820		-4.453341	-0.319355	8.930406	-0.006691	0.003757	0.005039	-0.969482	0.311768	-0.595459	-1.741799	26.686944	-9.736036
01821		-4.442135	-0.261785	8.886862	-0.007070	0.006493	0.007237	-0.979248	0.308350	-0.594238	-1.742953	26.690498	-9.735308
01822		-4.492936	-0.320572	8.891121	-0.005893	0.007128	0.005539	-0.975342	0.309570	-0.588623	-1.744205	26.694454	-9.736206
01823		-4.503929	-0.301321	8.900674	-0.012509	0.008352	0.006843	-0.980225	0.318115	-0.593262	-1.748605	26.699066	-9.735767
01824		-4.484400	-0.288858	8.895511	-0.004941	0.005246	0.008282	-0.978027	0.314209	-0.590576	-1.748534	26.701920	-9.732756
01825		-4.484798	-0.288933	8.895307	-0.005777	0.003141	0.009649	-0.984863	0.316162	-0.598877	-1.748223	26.703597	-9.730416
01826		-4.504039	-0.315502	8.868326	-0.003914	0.000833	0.007290	-0.973633	0.312256	-0.597168	-1.747802	26.703927	-9.726650
01827		-4.476947	-0.281317	8.948697	0.000346	-0.001661	0.009381	-0.966309	0.312988	-0.602051	-1.744017	26.702849	-9.724387
01828		-4.454558	-0.295233	8.880465	-0.000339	0.001281	0.010042	-0.977783	0.308594	-0.593506	-1.740707	26.703633	-9.721027
01829		-4.485188	-0.287983	8.895142	-0.002164	0.002323	0.010533	-0.974121	0.316650	-0.596436	-1.738063	26.704856	-9.718104
01830		-4.485387	-0.287827	8.895046	-0.005130	0.001465	0.010854	-0.979004	0.317383	-0.586914	-1.737303	26.705649	-9.714113
01831		-4.496828	-0.306791	8.921431	-0.002315	0.007575	0.008291	-0.975098	0.307861	-0.594971	-1.735438	26.709841	-9.712729
01832		-4.505292	-0.314293	8.867732	-0.007223	0.001447	0.007941	-0.974609	0.319580	-0.593018	-1.736737	26.710510	-9.711031
01833		-4.476384	-0.255012	8.899711	0.001523	-0.001028	0.007684	-0.977295	0.312012	-0.598145	-1.732773	26.709765	-9.709870
01834		-4.477154	-0.293532	8.916371	-0.002127	0.001057	0.008665	-0.979736	0.316406	-0.593994	-1.730915	26.710298	-9.705227
01835		-4.487517	-0.273758	8.926258	-0.005703	0.000611	0.005913	-0.977051	0.314209	-0.594238	-1.731615	26.710460	-9.705232
01836		-4.488388	-0.312932	8.942846	-0.007528	0.001653	0.006404	-0.976807	0.317627	-0.594482	-1.733520	26.711254	-9.702177
01837		-4.466626	-0.275267	8.889504	-0.009695	0.004166	0.007225	-0.980713	0.313232	-0.596680	-1.736160	26.713476	-9.701410
01838		-4.497042	-0.321399	8.889015	-0.009658	0.002901	0.005358	-0.971191	0.310547	-0.594482	-1.739590	26.714983	-9.698610
01839		-4.467867	-0.315156	8.905879	-0.006883	-0.000024	0.007609	-0.970459	0.312744	-0.602539	-1.740472	26.714811	-9.697514
01840		-4.508598	-0.288601	8.930557	-0.005095	0.000198	0.008985	-0.975586	0.315918	-0.587891	-1.740190	26.714934	-9.696621
01841		-4.506604	-0.263447	8.882254	-0.003500	-0.003168	0.003223	-0.979248	0.311279	-0.588623	-1.740371	26.712885	-9.698276
01842		-4.507194	-0.302619	8.898977	-0.007150	-0.001083	0.004205	-0.972168	0.310059	-0.593262	-1.742694	26.711996	-9.699133
01843		-4.485651	-0.303547	8.862569	-0.002551	-0.005051	0.005965	-0.971924	0.307129	-0.592041	-1.741523	26.708917	-9.698994
01844		-4.526450	-0.315449	8.904262	0.002086	-0.010285	0.005857	-0.977783	0.320801	-0.597168	-1.737963	26.702893	-9.702663
01845		-4.466101	-0.262846	8.922001	0.000602	-0.010713	0.006017	-0.972412	0.312744	-0.600342	-1.734922	26.696572	-9.702381
01846		-4.493756	-0.230509	8.888872	-0.003011	-0.009892	0.005132	-0.971191	0.315430	-0.600586	-1.734472	26.690833	-9.698914
01847		-4.484590	-0.275559	8.927673	-0.001868	-0.007993	0.005303	-0.981934	0.309326	-0.595215	-1.733076	26.686057	-9.699142
01848		-4.472316	-0.308840	8.886479	0.000674	-0.013243	0.002281	-0.983154	0.311035	-0.596680	-1.731308	26.678322	-9.700326
01849		-4.501634	-0.301547	8.901827	0.002731	-0.011963	0.007061	-0.979248	0.306885	-0.601318	-1.726736	26.671303	-9.699351
01850		-4.482199	-0.313379	8.945935	0.003072	-0.013434	0.006730	-0.974121	0.308350	-0.590332	-1.722318	26.663512	-9.698920
01851		-4.509897	-0.228181	8.928045	0.002767	-0.013228	0.005193	-0.981201	0.313477	-0.593018	-1.718253	26.655736	-9.699120
01852		-4.518116	-0.169282	8.921994	-0.003168	-0.014940	0.005836	-0.981201	0.311035	-0.587646	-1.717681	26.646998	-9.699756
01853		-4.508854	-0.162627	8.976043	-0.014049	-0.011016	-0.004656	-0.976318	0.313965	-0.591553	-1.726099	26.640320	-9.706308
01854		-4.466815	-0.243768	8.936703	-0.023561	-0.013172	-0.006763	-0.977783	0.313232	-0.597900	-1.740845	26.632346	-9.713927
01855		-4.475638	-0.422642	8.918565	-0.024400	-0.015278	-0.005399	-0.980713	0.316162	-0.582031	-1.755367	26.623210	-9.720868
01856		-4.481980	-0.432024	8.865887	-0.015471	-0.024277	-0.005294	-0.970215	0.303467	-0.595703	-1.764952	26.608911	-9.725555
01857		-4.430349	-0.413446	8.878965	-0.004736	-0.022949	0.002955	-0.976074	0.313232	-0.590576	-1.765739	26.595529	-9.726989
01858		-4.459283	-0.301455	8.925058	0.002762	-0.023534	0.008122	-0.968506	0.315674	-0.591797	-1.761008	26.581998	-9.728485
01859		-4.437030	-0.288137	8.921261	0.000665	-0.023549	0.005210	-0.981201	0.311768	-0.594482	-1.758049	26.568311	-9.728465
01860		-4.425949	-0.294135	8.943945	-0.000662	-0.018930	0.004670	-0.978760	0.310547	-0.596191	-1.756311	26.557354	-9.727605
01861		-4.431752	-0.262487	8.874679	-0.002180	-0.018094	0.006700	-0.973877	0.313232	-0.597900	-1.754604	26.546818	-9.726739
01862		-4.462420	-0.280838	8.938611	-0.004344	-0.015580	0.007526	-0.971680	0.309570	-0.599609	-1.754167	26.537878	-9.724771
01863		-4.450227	-0.261926	8.912618	-0.003249	-0.012218	-0.000145	-0.984619	0.312256	-0.594971	-1.755081	26.530587	-9.728402
01864		-4.469214	-0.274888	8.918074	-0.001683	-0.014517	0.005666	-0.973145	0.309326	-0.593994	-1.753660	26.522212	-9.728075
01865		-4.446822	-0.275464	8.882091	0.000671	-0.013247	0.002270	-0.976563	0.308594	-0.593750	-1.751629	26.514374	-9.730140
01866		-4.405623	-0.197131	8.888028	0.000331	-0.011776	0.002602	-0.981934	0.314453	-0.592285	-1.749959	26.507495	-9.734120
01867		-4.427417	-0.274222	8.958268	-0.002786	-0.007376	0.000691	-0.977783	0.310303	-0.599121	-1.750410	26.502992	-9.737310
01868		-4.427125	-0.274661	8.958399	-0.008098	0.000802	0.001477	-0.972412	0.313721	-0.595703	-1.753999	26.503283	-9.738840
01869		-4.456470	-0.282138	8.941538	-0.012210	-0.001953	0.001630	-0.970947	0.314697	-0.593750	-1.759628	26.501901	-9.741535
01870		-4.473507	-0.336517	8.851268	-0.007419	-0.002140	0.000811	-0.985352	0.315918	-0.589111	-1.762974	26.500558	-9.742917
01871		-4.354538	-0.376306	8.871899	-0.003224	-0.002114	0.006629	-0.986816	0.305176	-0.597412	-1.762025	26.499173	-9.742410
01872		-4.384183	-0.330118	8.870190	0.005339	0.001926	0.005989	-0.978516	0.306396	-0.591309	-1.756671	26.500082	-9.741804
01873		-4.396372	-0.334710	8.928436	0.007404	0.003203	0.010767	-0.976318	0.301514	-0.605469	-1.748498	26.501814	-9.738753
01874		-4.466287	-0.222082	8.934798	0.008209	0.006573	0.011270	-0.969727	0.311035	-0.595215	-1.739980	26.505631	-9.740334
01875		-4.448230	-0.286174	8.962853	-0.000164	0.006320	0.009342	-0.981689	0.310059	-0.590576	-1.736577	26.509122	-9.738255
01876		-4.488704	-0.220507	8.970795	-0.007391	0.007966	0.007585	-0.970215	0.307129	-0.601074	-1.738087	26.513602	-9.737696
01877		-4.437449	-0.333502	8.888679	-0.009182	0.007746	0.006211	-0.976807	0.316406	-0.591553	-1.740757	26.517855	-9.737649
01878		-4.388095	-0.419163	8.870071	-0.002261	0.006306	0.006433	-0.976563	0.308838	-0.586182	-1.739616	26.521437	-9.736703
01879		-4.429444	-0.391749	8.894585	0.006318	0.010141	0.015503	-0.984863	0.308350	-0.590576	-1.730770	26.527224	-9.730755
01880		-4.440022	-0.226740	8.917935	0.011821	0.005746	0.012150	-0.969971	0.313477	-0.591064	-1.720000	26.530375	-9.728972
01881		-4.481924	-0.237409	8.959161	0.007335	0.005727	0.014503	-0.971436	0.313477	-0.594238	-1.710817	26.533615	-9.723576
01882		-4.441117	-0.276679	8.902232	0.003915	0.010336	0.011056	-0.973389	0.305664	-0.590820	-1.704868	26.539544	-9.718552
01883		-4.453078	-0.294849	8.928376	0.005399	0.010763	0.010894	-0.977539	0.312500	-0.593506	-1.697869	26.545605	-9.715561
01884		-4.443895	-0.313582	8.917921	0.007189	0.010983	0.012267	-0.980469	0.312012	-0.599365	-1.689720	26.551857	-9.713234
01885		-4.405327	-0.325515	8.924361	0.007800	0.010567	0.015338	-0.973389	0.307373	-0.594482	-1.680069	26.557881	-9.707392
01886		-4.475352	-0.317414	8.900098	0.009251	0.012258	0.017043	-0.977051	0.306641	-0.590332	-1.669362	26.564994	-9.701265
01887		-4.494955	-0.250700	8.871240	0.014380	0.010595	0.015894	-0.976807	0.302734	-0.595215	-1.655780	26.571040	-9.695064
01888		-4.498841	-0.208154	8.966010	0.011139	0.008684	0.012813	-0.982178	0.305176	-0.596436	-1.645195	26.575958	-9.695260
01889		-4.468150	-0.227406	8.919142	0.006720	0.006141	0.011430	-0.987549	0.302979	-0.597900	-1.637243	26.579378	-9.691833
01890		-4.449396	-0.252336	8.930647	0.007898	0.006774	0.009733	-0.979004	0.312256	-0.601318	-1.629378	26.583137	-9.695131
01891		-4.459216	-0.297582	8.893443	0.003914	0.010336	0.011050	-0.980225	0.310303	-0.597656	-1.623174	26.588953	-9.692023
01892		-4.440896	-0.270325	8.919895	0.004253	0.008864	0.010718	-0.982422	0.314453	-0.596924	-1.617103	26.594015	-9.689615
01893		-4.492066	-0.327485	8.924163	0.008508	0.006359	0.012803	-0.983643	0.319824	-0.592041	-1.607732	26.597580	-9.685310
01894		-4.460644	-0.202849	8.890902	0.011814	0.005739	0.012149	-0.971924	0.318848	-0.594238	-1.596943	26.600763	-9.678859
01895		-4.422530	-0.201026	8.929376	0.009184	0.003415	0.012140	-0.975098	0.312012	-0.598633	-1.587350	26.602630	-9.674925
01896		-4.503954	-0.251226	8.948529	0.002463	0.008646	0.009342	-0.976807	0.310059	-0.597168	-1.582693	26.607550	-9.669198
01897		-4.453954	-0.245012	8.928578	0.001079	0.004426	0.003903	-0.981201	0.312744	-0.591309	-1.580114	26.609867	-9.670558
01898		-4.464652	-0.277568	8.923149	-0.005939	0.009668	0.009275	-0.971924	0.320313	-0.590332	-1.580329	26.615273	-9.668493
01899		-4.465405	-0.277521	8.922773	-0.000777	0.006737	0.006262	-0.979492	0.310791	-0.585938	-1.578155	26.618950	-9.668382
01900		-4.506404	-0.302731	8.932198	0.001655	0.005276	0.008841	-0.975830	0.313477	-0.592041	-1.574136	26.621773	-9.663396
01901		-4.464543	-0.251350	8.873913	0.001655	0.005276	0.008841	-0.969971	0.307861	-0.586670	-1.569817	26.624653	-9.661607
01902		-4.467837	-0.262483	8.953821	0.002026	0.002540	0.006643	-0.971436	0.311768	-0.595215	-1.566176	26.625917	-9.661450
01903		-4.455893	-0.256507	8.895450	0.001792	0.000021	0.011079	-0.977783	0.313965	-0.595703	-1.561093	26.625822	-9.658134
01904		-4.456175	-0.255995	8.895323	-0.001348	0.005690	0.011029	-0.976807	0.309082	-0.595703	-1.558120	26.629039	-9.653570
01905		-4.457770	-0.241983	8.926756	0.001013	0.006955	0.007636	-0.979248	0.307129	-0.588623	-1.554527	26.632862	-9.652581
01906		-4.469429	-0.260709	8.953078	-0.003137	0.005472	0.009654	-0.978271	0.313477	-0.593262	-1.552999	26.635837	-9.652566
01907		-4.498196	-0.280634	8.904249	-0.000977	0.002953	0.008831	-0.974609	0.314697	-0.593262	-1.550172	26.637387	-9.650742
01908		-4.447903	-0.274488	8.884465	0.001992	0.003803	0.008509	-0.976807	0.304199	-0.588867	-1.546013	26.639428	-9.647142
01909		-4.460391	-0.226942	8.957704	-0.000673	0.002746	0.010366	-0.974121	0.307617	-0.593750	-1.542568	26.640882	-9.644330
01910		-4.488988	-0.246665	8.908963	0.000845	0.001906	0.008339	-0.973633	0.310791	-0.589844	-1.539104	26.641800	-9.646557
01911		-4.438586	-0.240651	8.889232	-0.002462	0.002529	0.008991	-0.967529	0.309814	-0.592773	-1.537077	26.643108	-9.644621
01912		-4.479147	-0.265865	8.898874	0.001519	-0.001037	0.007677	-0.976074	0.305908	-0.592529	-1.533378	26.642385	-9.643229
01913		-4.498251	-0.239060	8.887177	0.005771	-0.003547	0.009764	-0.979004	0.311035	-0.594727	-1.526365	26.640225	-9.640695
01914		-4.479643	-0.250405	8.930897	0.009382	-0.004377	0.010646	-0.971680	0.305176	-0.592285	-1.517291	26.637599	-9.639466
01915		-4.469102	-0.216574	8.936260	0.007930	-0.006066	0.008941	-0.978760	0.316895	-0.597168	-1.509260	26.633983	-9.637417
01916		-4.498989	-0.260855	8.936255	0.007593	-0.004594	0.009271	-0.970703	0.309814	-0.591309	-1.501588	26.631257	-9.634904
01917		-4.428693	-0.280301	8.928656	0.005804	-0.004811	0.007897	-0.972900	0.311279	-0.597168	-1.495084	26.628343	-9.633546
01918		-4.439659	-0.246045	8.970418	0.002971	0.000652	0.009381	-0.982666	0.305176	-0.595703	-1.490060	26.628649	-9.630797
01919		-4.447878	-0.252860	8.916928	0.001183	0.000435	0.008007	-0.973877	0.310547	-0.597412	-1.486212	26.628742	-9.629456
01920		-4.439073	-0.258556	8.938539	0.001624	0.006540	0.010703	-0.984131	0.302002	-0.589844	-1.481631	26.632403	-9.628789
01921		-4.457843	-0.245540	8.894782	0.001690	0.004010	0.006972	-0.976807	0.312500	-0.592285	-1.477816	26.634528	-9.628171
01922		-4.450120	-0.237762	8.948055	-0.000132	0.005058	0.007463	-0.980957	0.307129	-0.594238	-1.475203	26.637176	-9.630275
01923		-4.499381	-0.270280	8.903970	0.000679	0.008426	0.007963	-0.975830	0.312744	-0.596191	-1.471716	26.641844	-9.629094
01924		-4.450322	-0.250582	8.915773	0.001689	0.004010	0.006971	-0.978027	0.314209	-0.591797	-1.468160	26.643976	-9.629463
01925		-4.480065	-0.256532	8.898685	0.002296	0.003595	0.010042	-0.974121	0.312256	-0.596191	-1.463113	26.645908	-9.626870
01926		-4.409531	-0.289484	8.859037	0.011271	0.003412	0.015046	-0.964111	0.312256	-0.594971	-1.451744	26.647820	-9.619171
01927		-4.421188	-0.306480	8.885449	0.019540	0.007632	0.012875	-0.980469	0.309326	-0.598145	-1.436031	26.652104	-9.614827
01928		-4.451135	-0.153026	8.913363	0.021089	0.005330	0.018684	-0.968262	0.315430	-0.594727	-1.417975	26.655238	-9.605760
01929		-4.483102	-0.182539	8.944578	0.014175	0.006982	0.008751	-0.977051	0.310547	-0.591064	-1.406515	26.659090	-9.604046
01930		-4.483949	-0.181404	8.944176	0.001796	0.011588	0.009993	-0.975586	0.314697	-0.593506	-1.402080	26.665612	-9.599094
01931		-4.474988	-0.253172	8.918695	0.001459	0.013060	0.010322	-0.974854	0.309814	-0.598877	-1.397495	26.672966	-9.596466
01932		-4.454913	-0.253505	8.881576	0.001459	0.013060	0.010322	-0.980713	0.301514	-0.593750	-1.393155	26.680357	-9.592507
01933		-4.427746	-0.285325	8.914637	-0.000026	0.012637	0.010483	-0.972168	0.303467	-0.597656	-1.389371	26.687471	-9.589769
01934		-4.487622	-0.245240	8.895195	0.001761	0.012852	0.011857	-0.971436	0.305420	-0.587646	-1.384419	26.694721	-9.592159
01935		-4.440304	-0.264226	8.923378	0.002305	0.015161	0.008955	-0.976074	0.312256	-0.594482	-1.379756	26.703259	-9.590438
01936		-4.491368	-0.230266	8.925549	0.001055	0.017061	0.014379	-0.972168	0.309082	-0.599121	-1.374538	26.712903	-9.585668
01937		-4.512051	-0.203506	8.912954	-0.000397	0.015373	0.012675	-0.975830	0.308350	-0.592041	-1.370351	26.721614	-9.581563
01938		-4.493049	-0.242663	8.892526	0.002095	0.011379	0.011526	-0.973633	0.312012	-0.595459	-1.365289	26.728033	-9.579014
01939		-4.485085	-0.300623	8.898795	0.003580	0.011801	0.011365	-0.975342	0.315430	-0.595703	-1.359174	26.734679	-9.575692
01940		-4.464715	-0.248150	8.876804	0.004520	0.009914	0.014106	-0.968994	0.305908	-0.594971	-1.351978	26.740287	-9.568083
01941		-4.536590	-0.212738	8.915696	0.005971	0.011601	0.015809	-0.972656	0.305176	-0.600098	-1.343208	26.746878	-9.561905
01942		-4.547388	-0.191692	8.925275	0.007080	0.003389	0.009229	-0.973145	0.304443	-0.597412	-1.335874	26.748743	-9.562665
01943		-4.495933	-0.198750	8.873941	0.007717	0.001709	0.010434	-0.972656	0.305176	-0.587646	-1.327588	26.749595	-9.559786
01944		-4.555441	-0.144318	8.886783	0.009394	-0.005652	0.008789	-0.981445	0.308350	-0.593018	-1.319037	26.746157	-9.561135
01945		-4.526333	-0.123245	8.935843	0.006559	-0.011557	0.001653	-0.963867	0.308350	-0.596924	-1.313860	26.739293	-9.563692
01946		-4.418401	-0.234617	8.969094	-0.000724	-0.007354	0.003610	-0.977539	0.316650	-0.593018	-1.312566	26.734870	-9.565509
01947		-4.455277	-0.196051	8.913861	-0.003517	-0.003152	0.003222	-0.974365	0.301025	-0.594971	-1.312765	26.732841	-9.567183
01948		-4.525102	-0.228171	8.906607	-0.004791	0.000207	0.000810	-0.980225	0.306152	-0.599609	-1.314679	26.732655	-9.571477
01949		-4.503685	-0.229313	8.870145	-0.001730	-0.002937	0.004597	-0.974121	0.307861	-0.601318	-1.313459	26.730767	-9.572273
01950		-4.551582	-0.261438	8.826727	0.011406	-0.014488	0.006813	-0.982422	0.311279	-0.594727	-1.304219	26.722350	-9.574872
01951		-4.465031	-0.147189	8.988347	0.015627	-0.015547	0.001068	-0.973877	0.308594	-0.593750	-1.293990	26.713194	-9.577748
01952		-4.442598	-0.095218	8.967314	-0.004902	-0.007369	-0.002208	-0.976563	0.313721	-0.593262	-1.296793	26.708618	-9.583711
01953		-4.492996	-0.206729	8.957170	-0.015759	-0.003595	-0.002998	-0.975342	0.311523	-0.591064	-1.305795	26.706255	-9.589369
01954		-4.442362	-0.308005	8.907678	-0.018821	-0.000450	-0.006785	-0.975830	0.306152	-0.602051	-1.317936	26.705575	-9.595047
01955		-4.432353	-0.329582	8.897667	-0.015313	0.002509	-0.000308	-0.968018	0.300293	-0.593018	-1.325947	26.706742	-9.599069
01956		-4.492246	-0.277493	8.910294	-0.011738	0.002937	0.002441	-0.978760	0.304199	-0.596924	-1.331331	26.708266	-9.604834
01957		-4.510346	-0.213039	8.881707	-0.004733	-0.002517	0.006781	-0.976074	0.306885	-0.595703	-1.331204	26.706647	-9.604236
01958		-4.460635	-0.246476	8.878902	-0.002367	-0.001259	0.003391	-0.969971	0.314209	-0.603027	-1.330955	26.705692	-9.609627
01959		-4.540388	-0.258489	8.881669	-0.001663	-0.005468	0.000867	-0.966797	0.304932	-0.601807	-1.330754	26.702304	-9.612777
01960		-4.481920	-0.179375	8.962575	-0.000120	-0.007771	0.006677	-0.974365	0.306885	-0.593506	-1.328139	26.697904	-9.609570
01961		-4.469166	-0.226601	8.889602	-0.004299	-0.007784	0.000858	-0.973633	0.302734	-0.602051	-1.329435	26.693190	-9.612691
01962		-4.432477	-0.304417	8.961909	-0.005337	-0.002102	0.003712	-0.979004	0.313721	-0.589844	-1.330760	26.691829	-9.616947
01963		-4.479847	-0.246160	8.916452	-0.006888	0.000006	0.007601	-0.968994	0.315918	-0.600830	-1.331649	26.691667	-9.615861
01964		-4.487685	-0.201337	8.878056	-0.007402	-0.003569	0.008637	-0.972412	0.305908	-0.593262	-1.332760	26.689494	-9.609195
01965		-4.448596	-0.148913	8.932033	-0.005214	-0.007356	0.005952	-0.979004	0.304443	-0.589355	-1.333115	26.685092	-9.609056
01966		-4.507985	-0.200875	8.915070	-0.006186	-0.004204	0.005077	-0.971680	0.305176	-0.596191	-1.334576	26.682395	-9.612185
01967		-4.487101	-0.188663	8.910528	-0.008455	-0.009256	0.002873	-0.973389	0.308594	-0.594238	-1.337662	26.676864	-9.613991
01968		-4.488458	-0.214601	8.959260	-0.009394	-0.007368	0.000134	-0.974365	0.311768	-0.594727	-1.342312	26.672417	-9.617943
01969		-4.465509	-0.230044	8.891351	-0.011761	-0.008627	0.003524	-0.967773	0.308350	-0.589355	-1.347108	26.667255	-9.619340
01970		-4.465764	-0.217227	8.923397	-0.009092	-0.007576	0.001668	-0.980225	0.305176	-0.599365	-1.351160	26.662673	-9.618754
01971		-4.445111	-0.205379	8.918725	-0.012251	-0.000636	0.003480	-0.976074	0.315186	-0.585449	-1.356303	26.662088	-9.620300
01972		-4.464230	-0.232318	8.891934	-0.006186	-0.004205	0.005076	-0.980713	0.303955	-0.589111	-1.357760	26.659399	-9.620648
01973		-4.462721	-0.193498	8.875473	-0.000790	-0.004830	0.007333	-0.977051	0.308350	-0.598145	-1.355200	26.656464	-9.619660
01974		-4.475278	-0.132787	8.980753	-0.003788	-0.004209	-0.000179	-0.978027	0.307861	-0.600586	-1.356780	26.653716	-9.626913
01975		-4.495187	-0.198551	8.970786	-0.010579	-0.007997	0.001827	-0.968750	0.307861	-0.597900	-1.361390	26.648891	-9.629406
01976		-4.473492	-0.200585	8.934437	-0.014310	-0.001904	-0.001293	-0.974121	0.305176	-0.589111	-1.369256	26.647644	-9.634496
01977		-4.431971	-0.242965	8.878013	-0.020010	-0.001070	-0.005085	-0.979248	0.313232	-0.598877	-1.381303	26.646692	-9.641524
01978		-4.394817	-0.388220	8.903167	-0.014040	-0.000850	0.002106	-0.977783	0.307129	-0.589600	-1.388103	26.645943	-9.644051
01979		-4.492710	-0.231221	8.907501	-0.014438	0.003149	0.006167	-0.968750	0.308350	-0.595947	-1.393753	26.647561	-9.643933
01980		-4.482773	-0.251922	8.897453	-0.010161	-0.000634	0.006388	-0.978271	0.302246	-0.589111	-1.397098	26.647015	-9.643231
01981		-4.473370	-0.206283	8.934368	-0.006823	-0.002526	0.003870	-0.974609	0.312012	-0.593506	-1.399005	26.645351	-9.644497
01982		-4.492264	-0.180723	8.922698	-0.011281	-0.003791	0.004351	-0.970947	0.313965	-0.591309	-1.403580	26.642895	-9.646782
01983		-4.482861	-0.187868	8.944588	-0.010401	-0.002951	0.001122	-0.978027	0.307129	-0.594727	-1.408324	26.640949	-9.649802
01984		-4.473726	-0.195562	8.966330	-0.021593	0.002299	0.000671	-0.971191	0.308594	-0.604736	-1.419880	26.642001	-9.651203
01985		-4.513398	-0.236378	8.944174	-0.019407	-0.001486	-0.002019	-0.979004	0.311768	-0.602051	-1.430697	26.640848	-9.656257
01986		-4.491902	-0.239155	8.907699	-0.021742	-0.004012	-0.000497	-0.976563	0.303711	-0.593506	-1.442543	26.638483	-9.660275
01987		-4.511693	-0.201491	8.927780	-0.025049	-0.003384	0.000155	-0.972900	0.306152	-0.598633	-1.455953	26.636273	-9.663906
01988		-4.511388	-0.203879	8.927880	-0.027141	-0.003386	-0.002755	-0.981201	0.308594	-0.587891	-1.471596	26.634074	-9.672623
01989		-4.491573	-0.180657	8.954987	-0.036328	-0.006969	-0.005198	-0.977539	0.307373	-0.585693	-1.492978	26.629730	-9.679623
01990		-4.531476	-0.209773	8.964862	-0.041091	-0.008026	-0.006255	-0.977539	0.314941	-0.590088	-1.517681	26.624562	-9.688677
01991		-4.479246	-0.274247	8.898570	-0.042547	-0.009710	-0.007965	-0.980957	0.307129	-0.591553	-1.543396	26.618600	-9.697398
01992		-4.438652	-0.291853	8.905922	-0.040028	-0.014965	-0.010994	-0.975098	0.318115	-0.595947	-1.568753	26.609488	-9.707627
01993		-4.436341	-0.256928	8.889898	-0.041610	-0.011608	-0.005234	-0.982666	0.314697	-0.596680	-1.593128	26.602474	-9.714558
01994		-4.418049	-0.260132	8.965506	-0.041946	-0.010138	-0.004903	-0.975098	0.313232	-0.595459	-1.617819	26.596365	-9.717407
01995		-4.437582	-0.277019	8.970543	-0.046228	-0.006359	-0.005119	-0.970459	0.314453	-0.599365	-1.644845	26.592354	-9.724352
01996		-4.417078	-0.321138	8.950465	-0.047537	-0.001734	-0.005653	-0.976318	0.313721	-0.600098	-1.672972	26.591155	-9.727575
01997		-4.455406	-0.325483	8.911749	-0.048115	-0.002797	-0.000895	-0.978516	0.310059	-0.595947	-1.699896	26.589250	-9.731876
01998		-4.424731	-0.336713	8.896906	-0.042989	-0.004472	-0.002044	-0.980225	0.312256	-0.593994	-1.724375	26.586487	-9.736155
01999		-4.415068	-0.294504	8.934078	-0.039714	-0.003840	-0.000829	-0.973877	0.310791	-0.591553	-1.746456	26.583982	-9.740392
02000		-4.434248	-0.271881	8.922353	-0.041389	0.003514	0.000847	-0.969971	0.309326	-0.595459	-1.769300	26.585729	-9.743080
02001		-4.426347	-0.268965	8.975607	-0.049462	0.003081	0.000438	-0.987305	0.302734	-0.597656	-1.796664	26.587207	-9.746641
02002		-4.455181	-0.292926	8.926523	-0.048008	0.004759	0.002147	-0.970215	0.307129	-0.589355	-1.822907	26.589743	-9.754292
02003		-4.466003	-0.330054	8.920685	-0.054689	0.008757	-0.002509	-0.975830	0.307861	-0.589355	-1.854164	26.594415	-9.759859
02004		-4.456722	-0.354733	8.909974	-0.052902	0.008963	-0.001136	-0.976807	0.314697	-0.601318	-1.884226	26.599216	-9.766232
02005		-4.456434	-0.320374	8.893108	-0.051114	0.009169	0.000236	-0.979248	0.315430	-0.591309	-1.912656	26.604171	-9.770056
02006		-4.469451	-0.330839	8.950750	-0.050268	0.011277	-0.001120	-0.975830	0.314453	-0.591553	-1.941203	26.610394	-9.773052
02007		-4.423796	-0.329680	9.042261	-0.067057	0.012095	-0.003145	-0.974609	0.316406	-0.593994	-1.979769	26.616954	-9.779113
02008		-4.384966	-0.311347	9.031760	-0.089870	0.026547	0.000054	-0.970215	0.321045	-0.597656	-2.030845	26.631894	-9.780346
02009		-4.417032	-0.222039	9.044435	-0.110835	0.038694	0.000879	-0.975586	0.314697	-0.583252	-2.093623	26.653758	-9.784457
02010		-4.423401	-0.311782	9.074344	-0.142039	0.053177	-0.007587	-0.978027	0.315430	-0.602295	-2.177100	26.683744	-9.789202
02011		-4.399380	-0.320081	9.088284	-0.172020	0.065255	-0.002114	-0.976563	0.316162	-0.599121	-2.276130	26.720738	-9.795964
02012		-4.355709	-0.331432	9.064843	-0.206802	0.089080	0.003149	-0.977295	0.319580	-0.591553	-2.394036	26.771647	-9.799609
02013		-4.316554	-0.475672	9.056041	-0.228112	0.112970	0.001396	-0.970459	0.312012	-0.588379	-2.524871	26.836016	-9.805609
02014		-4.134653	-0.423467	9.211708	-0.281104	0.154698	0.014629	-0.965576	0.323730	-0.595215	-2.683100	26.924511	-9.805496
02015		-4.087399	-0.316714	9.355255	-0.349848	0.236266	0.026793	-0.979492	0.326416	-0.593750	-2.878233	27.060114	-9.799446
02016		-4.139915	-0.717101	9.374788	-0.431543	0.311853	0.051022	-0.969727	0.327637	-0.593994	-3.114674	27.239668	-9.776735
02017		-4.200094	-0.568303	9.374882	-0.480129	0.370310	0.050308	-0.965820	0.334473	-0.595947	-3.380276	27.452753	-9.761663
02018		-3.924281	-0.558346	9.051485	-0.491282	0.485167	0.021228	-0.960938	0.327881	-0.593018	-3.663769	27.730421	-9.766498
02019		-3.456102	-0.267856	9.812354	-0.564165	0.644114	0.052513	-0.952637	0.339600	-0.599609	-3.983361	28.100243	-9.764185
02020		-0.726718	-0.378244	11.147295	-0.726438	0.928873	0.213226	-0.945557	0.344727	-0.596924	-4.354168	28.639208	-9.673034
02021		-1.276762	-2.063947	11.661444	-0.500734	1.453861	0.381429	-0.937256	0.352051	-0.597412	-4.555242	29.486216	-9.501634
02022		-3.328029	-3.614714	11.323440	-0.298995	1.728725	0.643569	-0.928467	0.356445	-0.605469	-4.559661	30.501341	-9.168747
02023		-2.397012	-3.735614	10.987415	-0.160639	1.848856	0.816102	-0.906006	0.351074	-0.619629	-4.420453	31.593565	-8.725369
02024		-3.492381	-2.724067	13.099533	-0.054427	1.815208	1.023516	-0.895996	0.360840	-0.608643	-4.133112	32.673086	-8.131801
02025		-1.025257	-2.496379	13.721834	0.040254	1.510822	1.238337	-0.872070	0.362549	-0.616455	-3.686221	33.584683	-7.361039
02026		0.610535	-2.441383	13.246769	0.153141	1.228530	1.467071	-0.861816	0.359863	-0.619629	-3.061525	34.335479	-6.403848
02027		0.316312	-2.051305	14.272886	0.226678	0.943424	1.561294	-0.848145	0.357422	-0.624023	-2.331913	34.917182	-5.352949
02028		2.089420	-2.277250	14.719434	0.126175	0.546416	1.503225	-0.849121	0.364990	-0.631348	-1.663178	35.258327	-4.319113
02029		3.367775	-2.255157	14.061948	-0.130810	0.153243	1.371486	-0.841064	0.363525	-0.629883	-1.183036	35.365348	-3.363249
02030		4.427123	-2.460645	13.339621	-0.402091	-0.180475	1.155060	-0.832520	0.370850	-0.633789	-0.944051	35.271905	-2.554897
02031		5.231819	-2.838030	12.529814	-0.616865	-0.432925	0.926787	-0.840576	0.381592	-0.623535	-0.920588	35.032284	-1.904733
02032		5.365034	-2.738022	12.095409	-0.754193	-0.616947	0.713035	-0.841797	0.388672	-0.624512	-1.064955	34.682919	-1.404577
02033		5.297197	-2.346282	11.925653	-0.861023	-0.790952	0.527232	-0.843018	0.394043	-0.629395	-1.344248	34.235928	-1.030838
02034		4.760683	-1.668276	11.937277	-0.937941	-0.916020	0.385641	-0.843994	0.396729	-0.606934	-1.724482	33.713487	-0.752747
02035		4.174660	-1.319758	11.870796	-0.968157	-1.023448	0.312402	-0.850586	0.413330	-0.607910	-2.147725	33.133175	-0.518723
02036		3.150919	-0.950574	12.000715	-0.959566	-1.067278	0.277128	-0.855225	0.425537	-0.607422	-2.580026	32.524381	-0.305106
02037		2.089535	-0.964695	12.080864	-0.935737	-1.092463	0.223796	-0.865479	0.428223	-0.605957	-3.015777	31.905098	-0.121606
02038		0.816672	-1.011063	12.619677	-0.941510	-1.089841	0.137750	-0.865479	0.440430	-0.589355	-3.486039	31.281236	0.007331
02039		-1.061189	-0.872710	13.158536	-0.988169	-1.168156	-0.003324	-0.867920	0.444580	-0.587402	-4.026524	30.612836	0.052314
02040		-2.733858	-1.232303	13.654898	-1.037501	-1.307817	-0.200837	-0.874268	0.455078	-0.585693	-4.655714	29.851606	-0.019891
02041		-3.528261	-1.657274	13.324935	-1.038747	-1.480143	-0.413410	-0.881348	0.459717	-0.591309	-5.341603	28.985652	-0.209807
02042		-3.746752	-2.268063	12.927157	-0.924529	-1.605506	-0.603983	-0.889648	0.464355	-0.588379	-6.009692	28.030402	-0.503071
02043		-4.316932	-2.495077	12.751498	-0.739768	-1.662448	-0.741088	-0.910156	0.466064	-0.584717	-6.598232	27.036464	-0.864841
02044		-5.555108	-2.242344	12.864410	-0.518060	-1.756242	-0.845220	-0.915283	0.463867	-0.585449	-7.075663	25.973859	-1.273075
02045		-6.692562	-2.090646	12.741579	-0.300788	-1.925262	-0.911378	-0.939697	0.464844	-0.586914	-7.426832	24.813056	-1.696041
02046		-6.955303	-1.622609	12.343758	-0.109469	-2.136698	-0.942253	-0.969482	0.466797	-0.590576	-7.657908	23.522654	-2.111153
02047		-6.847763	-0.889450	11.995647	0.003358	-2.310123	-0.917040	-0.979736	0.458008	-0.582031	-7.799083	22.139766	-2.486542
02048		-6.880782	0.147845	11.798848	0.010241	-2.447776	-0.888343	-1.008057	0.460449	-0.577881	-7.915689	20.675081	-2.826603
02049		-6.946930	0.816563	11.459261	-0.103410	-2.560934	-0.873536	-1.038818	0.455322	-0.579834	-8.079179	19.151747	-3.140157
02050		-6.844454	0.438569	10.696286	-0.240549	-2.614184	-0.881493	-1.059814	0.455811	-0.559570	-8.311666	17.591587	-3.446121
02051		-6.504178	-0.363810	9.847193	-0.304976	-2.649481	-0.883423	-1.081055	0.450928	-0.540039	-8.568767	16.015005	-3.739844
02052		-6.291648	-1.155357	8.982983	-0.260467	-2.607307	-0.887640	-1.104492	0.446533	-0.539307	-8.792706	14.456038	-4.031241
02053		-6.105770	-1.391801	8.480989	-0.159880	-2.502429	-0.896244	-1.133545	0.440430	-0.526611	-8.952375	12.959492	-4.329261
02054		-5.997577	-1.628046	7.926708	-0.056429	-2.340188	-0.926594	-1.153809	0.434326	-0.506104	-9.051940	11.546901	-4.655049
02055		-6.038536	-1.754458	7.552114	0.031335	-2.166943	-0.971503	-1.185059	0.422607	-0.489990	-9.100125	10.232346	-5.018714
02056		-6.930908	-1.510149	7.578463	0.060869	-2.024404	-1.031989	-1.194580	0.425537	-0.482666	-9.131705	8.988488	-5.428280
02057		-7.324683	-1.093348	7.652615	0.049978	-1.982247	-1.114833	-1.215332	0.412109	-0.465088	-9.167258	7.764892	-5.886503
02058		-7.044547	-0.496992	7.577476	-0.054335	-1.963998	-1.171034	-1.231689	0.406982	-0.462402	-9.257410	6.542137	-6.376172
02059		-7.135538	-0.277580	7.505884	-0.183241	-1.915105	-1.177076	-1.243408	0.399658	-0.438232	-9.410956	5.349261	-6.869644
02060		-7.819181	-0.211204	7.423265	-0.293052	-1.899146	-1.143662	-1.263428	0.396729	-0.429688	-9.615926	4.163603	-7.341323
02061		-7.746172	-0.286964	6.578323	-0.337371	-1.942450	-1.079007	-1.277100	0.385254	-0.411133	-9.833104	2.961462	-7.766798
02062		-6.153691	-0.333260	5.084692	-0.317412	-1.906937	-0.973715	-1.289795	0.383301	-0.395752	-10.027946	1.785271	-8.131804
02063		-4.569385	-0.124290	3.501867	-0.236692	-1.652021	-0.818432	-1.304199	0.382568	-0.376709	-10.167666	0.770393	-8.430883
02064		-3.850772	0.042134	2.828937	-0.139024	-1.213267	-0.671095	-1.307129	0.374268	-0.365723	-10.246898	0.014669	-8.689662
02065		-4.779829	0.287048	3.488876	-0.037815	-0.790526	-0.550187	-1.317139	0.369385	-0.369629	-10.265034	-0.487951	-8.922515
02066		-5.975459	0.505786	4.431419	0.022692	-0.561815	-0.456696	-1.314941	0.374756	-0.364014	-10.247388	-0.854457	-9.126209
02067		-6.531280	0.557687	4.956524	0.048890	-0.416487	-0.345936	-1.320557	0.367188	-0.355713	-10.214112	-1.125287	-9.282202
02068		-7.117677	0.456048	4.771783	0.071229	-0.319485	-0.194977	-1.326660	0.374023	-0.350098	-10.169215	-1.327980	-9.363249
02069		-7.209658	-0.067261	4.300955	0.118925	-0.160300	-0.043331	-1.321777	0.361084	-0.347656	-10.098230	-1.423545	-9.374832
02070		-4.809663	1.747610	3.460561	0.093390	0.096722	0.105340	-1.329590	0.369629	-0.349609	-10.043435	-1.360733	-9.328513
02071		-7.734943	-0.161288	-0.837477	0.248524	1.978584	0.214946	-1.312012	0.363770	-0.364746	-9.897385	-0.223661	-9.406806
02072		-5.440306	0.684862	-2.570982	-0.083842	2.408986	0.226863	-1.306885	0.380127	-0.382568	-9.943867	1.156436	-9.519960
02073		-3.730327	-1.867495	10.941545	-0.185651	2.793453	-0.062123	-1.286377	0.375732	-0.397461	-10.058397	2.725691	-9.836448
02074		-3.224565	-4.146761	13.736885	-0.421877	2.381704	-0.358135	-1.281738	0.377441	-0.416260	-10.324001	4.030826	-10.283999
02075		0.365745	-7.565633	8.594424	-0.241695	2.274840	-0.196913	-1.271973	0.383545	-0.424805	-10.488432	5.291600	-10.634841
02076		-0.139311	-6.667704	8.032733	0.357039	2.774274	0.384295	-1.253418	0.378418	-0.446533	-10.289405	6.893166	-10.708762
02077		-7.780787	-1.200691	14.617969	0.430742	3.037497	0.437351	-1.231689	0.382568	-0.461914	-10.048744	8.649638	-10.773271
02078		-9.843664	-1.842489	14.147588	0.332880	2.580260	0.138819	-1.232910	0.389648	-0.479248	-9.885732	10.118025	-10.956759
02079		-3.657119	-2.540244	11.562307	0.446740	2.465660	0.248709	-1.208252	0.387451	-0.494629	-9.646791	11.533678	-11.061123
02080		-3.580373	-0.206929	11.591215	0.340708	2.678849	0.197131	-1.186279	0.390137	-0.519531	-9.481441	13.064819	-11.211708
02081		-5.169848	-0.649199	11.649837	0.235592	2.667041	0.113509	-1.175049	0.392822	-0.527344	-9.390555	14.582164	-11.407039
02082		-5.936248	0.810317	11.827147	0.184551	2.465644	0.208235	-1.155273	0.385498	-0.537354	-9.314031	15.994438	-11.526579
02083		-6.186168	0.085333	11.388418	0.108032	2.281763	0.188785	-1.135986	0.385742	-0.548096	-9.281796	17.301355	-11.639085
02084		-5.678633	-2.646832	10.288405	0.173312	2.113232	0.188431	-1.129395	0.386475	-0.551758	-9.209588	18.512887	-11.735109
02085		-5.028620	-3.454191	9.733897	0.272588	2.047756	0.146963	-1.112549	0.389160	-0.563232	-9.087788	19.683900	-11.848053
02086		-6.055606	-2.489666	10.341050	0.382033	1.966033	0.135802	-1.099609	0.385498	-0.578125	-8.904427	20.807908	-11.957547
02087		-9.131985	-0.581858	11.797752	0.439435	1.670421	0.256221	-1.077393	0.384033	-0.583984	-8.651747	21.775474	-11.962153
02088		-8.369551	-0.826255	11.033016	0.438596	1.193224	0.264192	-1.081055	0.379883	-0.584961	-8.379772	22.473479	-11.913544
02089		-6.191010	-2.420097	9.713856	0.476685	0.902479	0.257349	-1.068115	0.389893	-0.599121	-8.075325	23.005665	-11.839151
02090		-5.612891	-2.382885	9.439385	0.516036	0.740424	0.277666	-1.063477	0.376465	-0.600098	-7.736186	23.447404	-11.734909
02091		-5.578217	-1.172234	9.665009	0.506239	0.611523	0.289465	-1.056641	0.379395	-0.606934	-7.393267	23.815929	-11.609437
02092		-5.391701	-0.536523	9.798890	0.458161	0.493799	0.279988	-1.056152	0.371094	-0.608398	-7.075051	24.116577	-11.478046
02093		-5.016297	-0.744470	9.500235	0.398389	0.403897	0.238467	-1.054443	0.373535	-0.610596	-6.797241	24.362200	-11.363612
02094		-4.334338	-0.871767	9.072310	0.375855	0.354700	0.230167	-1.048828	0.377441	-0.609863	-6.532211	24.579213	-11.249391
02095		-3.948297	-0.751518	8.746841	0.401620	0.346703	0.244818	-1.045654	0.375732	-0.614258	-6.247156	24.791668	-11.123984
02096		-3.528428	-1.223396	8.388501	0.472287	0.365092	0.277707	-1.051514	0.371338	-0.609131	-5.912599	25.016415	-10.977759
02097		-4.196567	-1.314509	8.733312	0.526366	0.401089	0.320584	-1.044922	0.359375	-0.622314	-5.535005	25.262866	-10.804889
02098		-5.587389	0.196474	10.058489	0.497578	0.380177	0.303506	-1.033691	0.360840	-0.614990	-5.176696	25.495892	-10.639587
02099		-5.296258	1.242390	9.712231	0.397541	0.232393	0.217567	-1.033447	0.367188	-0.622314	-4.894143	25.638983	-10.518609
02100		-4.030392	-0.912664	8.880909	0.367580	0.249035	0.163614	-1.036621	0.365723	-0.624023	-4.643449	25.788964	-10.431862
02101		-4.917597	-0.359802	9.714256	0.289436	0.257998	0.151787	-1.031738	0.352295	-0.615234	-4.440318	25.942749	-10.352259
02102		-4.891117	0.853165	9.783911	0.155021	0.221145	0.108014	-1.034180	0.364258	-0.624023	-4.325318	26.073828	-10.298155
02103		-4.664790	-0.072238	9.480571	0.045384	0.219586	0.053219	-1.034424	0.358398	-0.631104	-4.288112	26.201130	-10.278556
02104		-4.199369	-0.400744	9.090183	-0.021719	0.229601	0.028383	-1.022949	0.361572	-0.634521	-4.296559	26.333552	-10.275197
02105		-3.917777	-0.490033	8.862471	-0.054713	0.294412	0.034360	-1.021729	0.354736	-0.633057	-4.323555	26.502794	-10.271188
02106		-4.062402	-0.940149	8.605520	-0.040483	0.345525	0.026679	-1.025879	0.359863	-0.627930	-4.345766	26.701349	-10.274624
02107		-4.305747	-1.736074	8.655415	0.024260	0.370613	0.036626	-1.012695	0.368164	-0.635742	-4.328538	26.914227	-10.272940
02108		-4.859378	-1.002532	8.941881	0.079837	0.326766	0.067556	-1.021484	0.364258	-0.636230	-4.269505	27.103809	-10.249161
02109		-4.938281	-0.338671	9.145038	0.095056	0.279133	0.072904	-1.015137	0.362061	-0.638672	-4.198871	27.265947	-10.219387
02110		-5.018638	-0.790126	9.135962	0.085778	0.232525	0.057763	-1.007568	0.361084	-0.634033	-4.136922	27.401230	-10.196932
02111		-4.887631	-0.853059	8.902238	0.072053	0.180118	0.056772	-1.008545	0.356934	-0.640625	-4.081805	27.506062	-10.172495
02112		-4.791106	-0.798602	8.864674	0.074637	0.159263	0.058457	-1.009277	0.370117	-0.637207	-4.024257	27.599473	-10.145902
02113		-4.792335	-0.923606	8.780158	0.082500	0.131483	0.061193	-0.999268	0.364746	-0.642578	-3.960613	27.676639	-10.116141
02114		-4.728695	-0.917069	8.688672	0.107314	0.106289	0.073428	-1.007324	0.355713	-0.640869	-3.878579	27.740306	-10.077265
02115		-4.761713	-0.944914	8.570607	0.137906	0.083477	0.073956	-1.005615	0.355713	-0.642090	-3.778191	27.790440	-10.036898
02116		-4.697634	-1.101778	8.675134	0.169496	0.050546	0.085266	-1.004639	0.356445	-0.642578	-3.655696	27.822560	-9.987755
02117		-4.654548	-0.586117	8.877128	0.175661	0.028848	0.087957	-1.001709	0.353516	-0.644775	-3.528252	27.841810	-9.935859
02118		-4.732602	-0.561434	8.963134	0.162150	0.031910	0.079108	-1.002930	0.354736	-0.637207	-3.411387	27.862870	-9.889804
02119		-4.746980	-0.476386	8.824115	0.127062	0.047590	0.067845	-1.002686	0.354736	-0.646729	-3.318119	27.891982	-9.851526
02120		-4.762302	-0.440024	8.998040	0.118041	0.064725	0.059626	-1.005127	0.359619	-0.636719	-3.232905	27.931035	-9.819192
02121		-4.599867	-0.417758	8.685462	0.103471	0.070576	0.059637	-0.997559	0.351563	-0.645020	-3.155934	27.972934	-9.786938
02122		-4.801260	-0.501026	8.727400	0.100284	0.080291	0.055550	-0.997803	0.353760	-0.643066	-3.082275	28.020684	-9.757646
02123		-4.733173	-0.440795	8.820513	0.102946	0.072629	0.048719	-0.995850	0.353760	-0.656006	-3.008850	28.063351	-9.732390
02124		-4.705611	-0.461070	8.739108	0.109801	0.072366	0.050909	-1.005127	0.345459	-0.642090	-2.930912	28.106364	-9.705677
02125		-4.737032	-0.530432	8.637708	0.136458	0.055213	0.058232	-0.998535	0.353516	-0.643799	-2.835003	28.139275	-9.673523
02126		-4.553807	-0.638863	8.769140	0.149182	0.055032	0.067707	-0.997803	0.339111	-0.647461	-2.728988	28.172759	-9.635185
02127		-4.662998	-0.469499	8.719499	0.146528	0.074234	0.073506	-0.996582	0.345703	-0.649170	-2.622786	28.216862	-9.593533
02128		-4.507373	-0.607421	8.768516	0.156228	0.077257	0.079175	-1.001953	0.342285	-0.646484	-2.509391	28.263226	-9.548225
02129		-4.551733	-0.492948	8.891911	0.144026	0.104398	0.089474	-0.997803	0.348145	-0.654541	-2.399927	28.324846	-9.496801
02130		-4.583045	-0.229396	8.972505	0.118846	0.157513	0.090490	-0.991699	0.348633	-0.644043	-2.305272	28.417258	-9.446034
02131		-4.636386	-0.215084	8.924568	0.078663	0.198957	0.089626	-0.999268	0.338379	-0.646484	-2.234082	28.532870	-9.396638
02132		-4.633123	-0.485958	8.898556	0.055330	0.242952	0.098174	-0.993164	0.351074	-0.648193	-2.174070	28.674237	-9.342616
02133		-4.570579	-0.460847	8.941178	0.024171	0.282301	0.111668	-0.995605	0.344971	-0.643799	-2.127752	28.837952	-9.280463
02134		-4.534809	-0.386056	9.033917	-0.018332	0.333454	0.124051	-0.988037	0.342285	-0.647949	-2.102342	29.031594	-9.211283
02135		-4.318706	-0.180172	9.343005	-0.093403	0.408904	0.134056	-0.986328	0.351563	-0.654053	-2.117175	29.268231	-9.137139
02136		-4.155262	0.368269	9.803973	-0.201751	0.525467	0.120573	-0.978027	0.349365	-0.653320	-2.199720	29.571744	-9.074842
02137		-4.545889	0.418783	9.594147	-0.307382	0.698734	0.042907	-0.968750	0.345459	-0.653320	-2.370280	29.972424	-9.068822
02138		-4.638045	0.130212	9.566314	-0.432757	0.821225	-0.000834	-0.962646	0.363281	-0.655273	-2.629955	30.442455	-9.097066
02139		-3.888745	-0.263853	10.129898	-0.526474	0.971932	-0.040476	-0.959473	0.350586	-0.657227	-2.960944	30.997181	-9.159526
02140		-3.333342	-0.607199	10.394746	-0.590127	1.220935	-0.081246	-0.951172	0.361572	-0.658203	-3.350390	31.692956	-9.263013
02141		-2.911606	-1.198223	10.554623	-0.579332	1.589130	-0.088140	-0.943848	0.362305	-0.668945	-3.748978	32.598186	-9.393099
02142		-3.212082	-0.653852	10.789210	-0.673351	1.972559	-0.031198	-0.922363	0.379150	-0.674072	-4.197339	33.724059	-9.512022
02143		-3.316855	-0.496286	10.944848	-0.743441	2.395242	0.051008	-0.894287	0.375244	-0.678955	-4.675813	35.094124	-9.609452
02144		-2.792044	-0.211776	11.130923	-0.816987	2.877470	0.125355	-0.877930	0.380371	-0.671387	-5.194797	36.742239	-9.700444
02145		-2.901938	-0.402085	10.526719	-0.839514	3.375664	0.243086	-0.849609	0.387939	-0.686768	-5.710782	38.680317	-9.761743
02146		-2.741014	-0.491653	9.972149	-0.756610	3.883126	0.364087	-0.817139	0.402344	-0.689453	-6.163460	40.913901	-9.795631
02147		-2.095574	-0.876195	9.668436	-0.568566	4.510802	0.472438	-0.782471	0.403809	-0.694580	-6.504349	43.511919	-9.821875
02148		-1.863029	-1.541428	9.573551	-0.366383	5.259428	0.657503	-0.740234	0.407471	-0.696533	-6.686960	46.547445	-9.786907
02149		-1.874835	-2.191768	9.327650	-0.137759	6.078716	0.881453	-0.679932	0.414795	-0.701172	-6.658259	50.064802	-9.646240
02150		-3.443509	-2.487113	9.588106	0.053202	6.939905	1.026797	-0.613525	0.399658	-0.693359	-6.462446	54.080699	-9.440103
02151		-6.012457	-2.103366	10.952927	0.029839	7.938115	1.143728	-0.553223	0.413330	-0.696289	-6.223927	58.672906	-9.177500
02152		-9.284832	-4.346104	11.446020	-0.025288	8.655398	1.356830	-0.474609	0.407959	-0.684326	-5.779130	63.684372	-8.656771
02153		-17.381901	-0.150899	12.500424	-0.074380	8.978305	1.480580	-0.402588	0.396729	-0.656738	-5.004034	68.885151	-7.767333
02154		-24.453025	-0.970174	13.594913	-0.625642	8.353596	1.257628	-0.328125	0.408691	-0.640381	-4.408859	73.712488	-6.764018
02155		-24.059527	-2.613301	15.961292	-0.930413	7.427541	1.132919	-0.270752	0.405762	-0.604248	-3.555234	78.002843	-5.337359
02156		-18.873239	-2.712472	16.249995	-1.176094	6.572721	1.212869	-0.225586	0.402100	-0.580322	-1.232149	81.793424	-2.297423
02157		-11.643002	-2.983902	16.823857	-1.504511	5.816525	1.283271	-0.181152	0.407227	-0.549805	5.319303	85.104586	5.159202
02158		-3.466990	-2.550334	16.427839	-1.924242	5.160272	1.494438	-0.152100	0.414551	-0.515137	32.595755	87.700497	33.582392
02159		8.615987	-2.505351	13.024966	-2.623417	4.889608	1.653286	-0.116943	0.423584	-0.491943	110.689700	87.682814	113.222959
02160		-6.438237	-3.136670	12.927895	-2.888486	5.408534	2.252689	-0.081299	0.430908	-0.443848	137.396225	84.796255	141.632180
02161		-24.104359	-6.362150	23.876076	-2.601121	3.146844	2.220826	-0.063477	0.435547	-0.425293	138.339459	82.607517	144.077673
02162		-14.381368	-6.780536	19.817861	-2.538086	0.790664	1.684239	-0.060303	0.427002	-0.421875	134.120710	81.619516	141.284084
02163		-9.726699	-8.250968	15.679625	-2.123356	-0.911218	1.230848	-0.062256	0.437012	-0.420410	127.177754	81.427012	135.492017
02164		-6.481427	-7.989999	9.161725	-1.667088	-2.212240	0.959312	-0.086182	0.440430	-0.436523	117.023843	81.643626	126.189752
02165		-4.957981	-6.528855	6.496798	-1.146170	-3.398707	0.781748	-0.096924	0.442871	-0.453613	102.633625	81.887849	112.312075
02166		-0.636798	-4.580597	7.580514	-0.795594	-3.998867	0.630120	-0.127686	0.444336	-0.479004	86.046409	81.706143	96.013743
02167		-0.726603	-4.266977	8.272132	-0.477319	-4.404576	0.510099	-0.155029	0.446777	-0.504395	69.983250	80.891627	80.040433
02168		-0.588470	-3.819263	7.043483	-0.234712	-4.412095	0.363921	-0.188965	0.448975	-0.524658	57.158943	79.574386	67.164202
02169		-0.512529	-4.136593	6.145102	0.031257	-4.337306	0.180574	-0.231201	0.457031	-0.545654	47.559968	77.971572	57.358932
02170		-1.108871	-3.983845	5.245782	0.312509	-4.400734	0.004121	-0.265869	0.455322	-0.568359	40.099599	76.146279	49.520125
02171		-2.639397	-2.784671	5.481661	0.451460	-4.546908	-0.222509	-0.309814	0.457520	-0.594482	34.041839	74.143173	42.984039
02172		-3.379126	-1.637421	6.077773	0.385795	-4.737738	-0.529818	-0.361328	0.457031	-0.609619	28.736358	71.978520	37.206695
02173		-3.272345	-0.966036	6.219217	0.160902	-4.863272	-0.869758	-0.408936	0.470215	-0.628174	23.974266	69.702050	32.066399
02174		-3.199864	-0.560483	6.502210	-0.120521	-4.883858	-1.211654	-0.470703	0.476563	-0.645508	19.601686	67.354820	27.441895
02175		-3.647435	-0.687305	6.861734	-0.404782	-4.819163	-1.519824	-0.531738	0.496094	-0.644287	15.593971	64.985517	23.312635
02176		-4.701282	-0.975047	7.619563	-0.576902	-4.735407	-1.783055	-0.593506	0.520996	-0.642822	11.920238	62.585651	19.586052
02177		-5.201544	-1.054278	7.907147	-0.648663	-4.684899	-1.947491	-0.665283	0.542969	-0.649170	8.655309	60.143318	16.287697
02178		-5.752243	-1.342211	8.658148	-0.593751	-4.666155	-2.010994	-0.735352	0.560303	-0.637695	5.849521	57.628449	13.407477
02179		-6.240053	-0.680066	9.621381	-0.539537	-4.670793	-1.974003	-0.816162	0.578613	-0.624268	3.516307	55.053117	10.973425
02180		-7.067081	0.271045	10.169115	-0.579591	-4.669232	-1.908879	-0.899170	0.589600	-0.594482	1.525086	52.419768	8.915119
02181		-7.899588	1.364228	11.227518	-0.725271	-4.710465	-1.795932	-0.971924	0.599365	-0.546387	-0.205056	49.732498	7.222697
02182		-8.473145	1.692844	11.458132	-0.957119	-4.752245	-1.663967	-1.058838	0.633545	-0.482910	-1.779291	46.984345	5.849142
02183		-9.376098	1.952099	12.180513	-1.209408	-4.757092	-1.516205	-1.133301	0.634766	-0.411133	-3.237945	44.222892	4.774422
02184		-10.266914	1.428884	13.165345	-1.416291	-4.753594	-1.382559	-1.194824	0.634277	-0.321533	-4.614079	41.441899	3.942751
02185		-11.986692	0.359419	14.467981	-1.553410	-4.765113	-1.270884	-1.235352	0.629883	-0.221191	-5.903770	38.655930	3.318109
02186		-13.291371	-0.932352	15.615892	-1.579722	-4.873515	-1.187539	-1.256836	0.626953	-0.127930	-7.086080	35.794826	2.858572
02187		-15.066169	-1.435249	16.297443	-1.527643	-4.977486	-1.119655	-1.249023	0.590088	-0.044189	-8.137605	32.882467	2.542001
02188		-16.847038	-2.153205	16.157184	-1.415029	-5.063186	-1.107707	-1.239746	0.559082	0.017334	-9.069076	29.909429	2.308848
02189		-18.546498	-3.157483	15.778772	-1.210100	-5.120907	-1.103668	-1.227051	0.513428	0.065186	-9.838534	26.910614	2.143844
02190		-20.304155	-3.280115	15.326117	-1.004404	-5.190716	-1.191581	-1.203369	0.479248	0.110840	-10.485753	23.853349	1.975044
02191		-21.157312	-2.247354	14.322754	-0.910639	-5.357586	-1.505646	-1.186279	0.435547	0.153809	-11.117849	20.675568	1.677514
02192		-20.473596	-0.696880	12.816577	-1.014428	-5.497010	-1.964407	-1.160889	0.376953	0.175049	-11.864225	17.356217	1.169407
02193		-19.450272	-0.353377	10.770528	-1.118798	-5.504967	-2.417146	-1.117920	0.332275	0.189697	-12.695244	13.978774	0.457382
02194		-19.076722	-0.840075	8.658219	-1.038702	-5.315718	-2.805631	-1.085693	0.288330	0.181885	-13.482016	10.640299	-0.443740
02195		-19.384366	-0.922563	6.724153	-0.679319	-5.055609	-3.068129	-1.049805	0.253662	0.179932	-14.031122	7.407633	-1.478319
02196		-19.493517	-0.473605	3.236701	-0.147828	-4.814888	-3.163609	-1.041992	0.233154	0.162354	-14.226432	4.282995	-2.572387
02197		-18.032292	0.259280	-2.111202	0.610275	-4.233867	-3.114149	-1.025879	0.200928	0.135986	-13.931855	1.494887	-3.717531
02198		-19.938044	2.289509	-8.374443	1.453616	-3.320272	-2.853460	-1.020508	0.188721	0.129150	-13.105395	-0.742628	-4.866266
02199		-24.525753	7.005596	-13.987444	1.985948	-2.216364	-2.319722	-1.006592	0.181396	0.114502	-11.937884	-2.271411	-5.892005
02200		-24.754159	12.324828	-13.821873	1.584692	-1.037035	-1.413677	-1.012695	0.151611	0.104248	-10.997263	-3.018868	-6.572087
02201		-21.280405	13.909340	-8.558255	0.587283	-0.064027	-0.630371	-0.996582	0.157471	0.101563	-10.639364	-3.123523	-6.923753
02202		-10.349522	8.669017	-1.691545	-0.061349	0.573698	-0.267265	-0.991943	0.146240	0.088135	-10.661374	-2.831410	-7.138794
02203		-16.669061	-1.226817	-3.775254	1.363272	3.147283	-0.054904	-0.978271	0.141846	0.070068	-9.865553	-1.063416	-7.494531
02204		-6.743070	1.313320	-3.896898	1.592343	3.392011	0.932265	-0.975586	0.146729	0.055908	-8.951141	0.939523	-7.288726
02205		-8.120216	12.003452	14.032452	1.086681	3.019046	0.686020	-0.959473	0.156006	0.042969	-8.321903	2.708005	-7.163138
02206		0.561970	5.610090	15.851975	-0.492028	2.920200	-0.324288	-0.947754	0.156982	0.033447	-8.627867	4.334337	-7.597650
02207		0.854667	-9.508859	7.762451	-0.755677	3.540306	-0.382100	-0.929443	0.161133	0.023193	-9.107883	6.304078	-8.132250
02208		-4.330658	-11.353243	9.689485	-0.165641	4.509746	0.377978	-0.918945	0.157715	0.014404	-9.226985	8.888175	-8.335226
02209		-11.714028	-4.612601	17.070731	0.060779	4.960249	0.112948	-0.901367	0.142822	-0.000488	-9.261532	11.702945	-8.737655
02210		-13.315373	-3.384832	16.021360	0.244519	4.682439	-0.013184	-0.902100	0.155762	-0.020752	-9.221298	14.348812	-9.191009
02211		-11.008372	1.859743	14.816245	0.405203	4.202455	0.220235	-0.888672	0.157227	-0.029541	-9.059215	16.745381	-9.462128
02212		-10.000369	1.147286	13.235179	0.534261	3.839077	0.304673	-0.868652	0.156738	-0.043701	-8.806182	18.944997	-9.643286
02213		-11.164679	-1.410392	12.748008	0.739063	3.373433	0.537679	-0.859619	0.153564	-0.042969	-8.375565	20.901457	-9.629919
02214		-11.745279	-3.796283	11.717454	1.006862	2.772532	0.591985	-0.855469	0.150879	-0.054443	-7.752449	22.521828	-9.511847
02215		-10.195817	-4.182978	10.160870	1.210300	2.165885	0.709597	-0.847656	0.159424	-0.054443	-6.953257	23.803980	-9.249643
02216		-9.208954	-1.949706	10.123392	1.257760	1.647005	0.801308	-0.838379	0.158936	-0.059570	-6.074119	24.794020	-8.870293
02217		-9.893865	1.727847	12.234332	1.049508	1.252710	0.686044	-0.846436	0.158447	-0.053955	-5.321470	25.546714	-8.520567
02218		-9.660316	3.992083	11.619442	0.661715	0.712314	0.419597	-0.828857	0.155518	-0.065918	-4.843390	25.975222	-8.298497
02219		-4.661929	-1.077718	9.745692	0.552649	0.518705	0.233559	-0.831543	0.152100	-0.055664	-4.472239	26.281830	-8.180561
02220		-6.721115	-0.084870	9.886892	0.443032	0.392611	0.228553	-0.834473	0.159180	-0.064453	-4.161039	26.516810	-8.057288
02221		-5.380018	0.027736	9.576511	0.382063	0.243164	0.159454	-0.829346	0.160889	-0.065918	-3.900535	26.661773	-7.970090
02222		-4.620711	-0.632647	9.260843	0.333396	0.218025	0.129834	-0.826416	0.157959	-0.064697	-3.675324	26.792207	-7.899817
02223		-5.191694	-0.223390	9.308058	0.278542	0.216346	0.119392	-0.831787	0.153564	-0.063232	-3.484216	26.919783	-7.835741
02224		-4.460637	0.155932	9.517703	0.179517	0.200255	0.058645	-0.827148	0.150391	-0.063232	-3.366816	27.037193	-7.809398
02225		-4.480753	0.145929	9.442358	0.069916	0.258380	0.017291	-0.827393	0.151123	-0.066650	-3.325274	27.185163	-7.811780
02226		-4.204321	-0.643219	9.047051	0.008176	0.280463	-0.012966	-0.824707	0.154297	-0.064697	-3.328235	27.345975	-7.834206
02227		-4.895836	-0.584288	9.011360	-0.002663	0.301895	0.017442	-0.821533	0.152588	-0.062988	-3.328976	27.518842	-7.838079
02228		-4.853758	-0.872872	9.086245	-0.009521	0.269627	0.016143	-0.828613	0.155518	-0.065430	-3.333349	27.674381	-7.841401
02229		-5.166233	-0.448084	9.147357	-0.040053	0.244613	0.044011	-0.821045	0.153564	-0.070801	-3.346556	27.815369	-7.825991
02230		-4.949259	-0.114602	9.168512	-0.097353	0.220836	0.020688	-0.822510	0.153320	-0.067139	-3.399098	27.943129	-7.824657
02231		-4.846157	-0.381383	9.016077	-0.146581	0.222211	-0.004825	-0.824463	0.155029	-0.065430	-3.487841	28.069649	-7.840260
02232		-4.853151	-0.513347	8.845558	-0.162282	0.225214	-0.007016	-0.826416	0.154541	-0.069580	-3.586313	28.198906	-7.857470
02233		-4.895367	-0.591796	8.818972	-0.169501	0.213991	-0.008600	-0.815674	0.151855	-0.074463	-3.689497	28.320542	-7.875710
02234		-4.883793	-0.740126	8.691543	-0.163010	0.203174	-0.003809	-0.823975	0.155762	-0.067139	-3.787283	28.437236	-7.890456
02235		-4.986611	-0.978559	8.573224	-0.142040	0.180937	0.003086	-0.822998	0.156494	-0.067383	-3.870724	28.540368	-7.900156
02236		-4.849787	-0.952244	8.576636	-0.109577	0.157494	0.021223	-0.821045	0.146484	-0.072998	-3.929389	28.631868	-7.896995
02237		-4.919811	-0.702650	8.603463	-0.086049	0.141104	0.033997	-0.816406	0.156494	-0.073730	-3.970382	28.713433	-7.885030
02238		-4.946200	-0.551812	8.522882	-0.061973	0.118495	0.038874	-0.814941	0.148438	-0.072266	-3.995467	28.783325	-7.868748
02239		-4.790617	-0.723464	8.586227	-0.012031	0.086094	0.036717	-0.817871	0.156982	-0.072998	-3.991991	28.833565	-7.852559
02240		-4.659659	-0.379333	8.743855	-0.020546	0.097782	0.069515	-0.822998	0.156006	-0.070801	-3.983201	28.892816	-7.815330
02241		-5.517025	-0.747780	8.272013	-0.020546	0.099458	0.047191	-0.816406	0.155273	-0.076660	-3.981547	28.951109	-7.792881
02242		-4.625232	-0.724354	8.694890	0.014990	0.077281	0.041080	-0.811279	0.157471	-0.074463	-3.960855	28.997493	-7.773242
02243		-5.042230	-1.101974	8.253583	0.067682	0.061382	0.055287	-0.815430	0.155762	-0.068359	-3.905184	29.034322	-7.743711
02244		-4.648421	-0.487918	8.501519	0.095785	0.065765	0.081881	-0.817139	0.152100	-0.077881	-3.824938	29.075643	-7.696786
02245		-5.020050	-0.394579	8.633081	0.117226	0.052344	0.071395	-0.817383	0.155273	-0.072021	-3.735467	29.107845	-7.656191
02246		-4.899665	-0.785947	8.488798	0.139927	0.048554	0.077435	-0.819336	0.157227	-0.077393	-3.630850	29.139006	-7.611272
02247		-4.727527	-0.919443	8.533422	0.170811	0.041793	0.091516	-0.820068	0.147949	-0.081787	-3.503933	29.165759	-7.556911
02248		-4.702144	-0.781233	8.620564	0.189779	0.064141	0.106908	-0.816650	0.155518	-0.068115	-3.361526	29.206650	-7.493131
02249		-4.623537	-0.685114	8.725074	0.189287	0.097309	0.117299	-0.814941	0.157471	-0.078857	-3.216627	29.265776	-7.423768
02250		-4.758947	-0.682495	8.757651	0.187110	0.127168	0.133602	-0.814697	0.155762	-0.073486	-3.068037	29.343244	-7.344451
02251		-4.680185	-0.495061	8.862603	0.158034	0.164730	0.143485	-0.814941	0.152100	-0.074707	-2.933359	29.441427	-7.259765
02252		-4.685518	-0.317777	8.962983	0.119679	0.208723	0.142879	-0.814453	0.144043	-0.072266	-2.821217	29.565474	-7.176489
02253		-4.826018	-0.293386	8.941376	0.078504	0.265904	0.145318	-0.814209	0.149414	-0.067383	-2.732463	29.721319	-7.093177
02254		-4.528687	0.091603	9.308762	0.017765	0.313527	0.139879	-0.814209	0.148682	-0.069824	-2.680584	29.905012	-7.014467
02255		-4.599144	0.138092	9.402897	-0.085406	0.397935	0.109902	-0.815186	0.147461	-0.075195	-2.698737	30.135359	-6.958076
02256		-4.379394	-0.248572	9.374383	-0.166669	0.521419	0.072413	-0.812988	0.150146	-0.081299	-2.777678	30.436161	-6.930396
02257		-4.063591	-0.490676	9.551641	-0.227571	0.685942	0.061850	-0.808350	0.154541	-0.081055	-2.898060	30.830084	-6.915796
02258		-3.791189	-0.100290	9.913718	-0.298103	0.920765	0.034387	-0.814453	0.156738	-0.072998	-3.072940	31.358270	-6.928726
02259		-3.578778	0.130820	10.306531	-0.321691	1.228056	-0.031844	-0.798340	0.163086	-0.086914	-3.292161	32.059410	-7.000020
02260		-3.860515	0.282169	10.504396	-0.434525	1.518817	-0.087593	-0.801758	0.153320	-0.086426	-3.605832	32.925195	-7.125347
02261		-3.727265	-0.474366	10.577097	-0.602982	1.801377	-0.089093	-0.802490	0.160645	-0.092529	-4.029996	33.951195	-7.272771
02262		-3.437922	-0.767814	10.851408	-0.682797	2.172018	-0.048181	-0.794678	0.157227	-0.098633	-4.503594	35.190136	-7.422592
02263		-3.408305	-0.507057	10.695507	-0.794022	2.570477	0.041219	-0.790771	0.170166	-0.100830	-5.030053	36.659298	-7.548811
02264		-3.409786	-0.263033	10.505481	-0.886114	2.977174	0.135195	-0.783936	0.163818	-0.107422	-5.599723	38.364655	-7.654861
02265		-2.981572	-0.380509	10.464161	-0.917860	3.428790	0.234949	-0.768066	0.168213	-0.113770	-6.181372	40.332098	-7.746752
02266		-2.567813	-0.393098	10.032259	-0.858757	3.986890	0.328062	-0.753662	0.173828	-0.125488	-6.735677	42.622508	-7.844713
02267		-1.564319	-1.200587	9.877373	-0.655810	4.723073	0.447019	-0.747803	0.171875	-0.139160	-7.183248	45.339115	-7.951705
02268		-0.520714	-2.226098	9.820446	-0.420591	5.607520	0.714665	-0.729736	0.170654	-0.144287	-7.427589	48.577108	-7.959913
02269		-1.241472	-2.480630	9.951823	-0.189323	6.720809	0.965325	-0.706543	0.172119	-0.154297	-7.478151	52.466423	-7.888200
02270		-2.485293	-3.142546	10.180346	-0.140578	7.919742	1.083134	-0.677979	0.180420	-0.164063	-7.528482	57.045060	-7.854465
02271		-4.941509	-2.402062	11.735191	-0.184375	9.344550	1.332910	-0.650391	0.177734	-0.165771	-7.543059	62.452368	-7.752046
02272		-11.148910	-4.503162	12.517607	-0.077603	10.350106	1.590960	-0.612793	0.179199	-0.167480	-7.288619	68.449029	-7.426777
02273		-22.327710	2.586243	13.572959	-0.183704	10.482336	1.464114	-0.570068	0.178711	-0.169434	-7.173601	74.512176	-7.197404
02274		-28.854551	-1.291912	14.863236	-0.983611	9.524420	1.108272	-0.542236	0.180908	-0.174316	-8.193360	80.003293	-7.666898
02275		-28.586967	-3.110863	17.673139	-1.545916	8.189420	0.975789	-0.510010	0.187988	-0.167480	-10.747981	84.723232	-9.351363
02276		-21.891588	-4.268798	19.676116	-1.996053	6.870072	1.093591	-0.478516	0.196533	-0.166992	-18.966971	88.693250	-16.436405
02277		-9.976043	-4.050075	21.345674	-2.375712	5.587125	1.316910	-0.453369	0.192627	-0.169922	170.328826	88.005254	174.214174
02278		5.593534	-5.799345	20.141674	-2.797137	4.747138	1.700148	-0.432861	0.198242	-0.166260	163.303201	85.135451	168.780694
02279		10.477142	-5.886088	11.247023	-2.936678	5.284894	2.460423	-0.406738	0.202148	-0.166748	158.631313	81.813514	165.771073
02280		-30.477247	-12.436885	28.235400	-2.049091	3.958818	2.700382	-0.378174	0.208984	-0.162842	154.405483	79.120699	162.674797
02281		-21.096167	-11.038596	25.180080	-1.667975	0.621550	2.023538	-0.351074	0.210205	-0.169189	149.197944	78.260173	158.336358
02282		-12.700431	-10.870386	19.485549	-0.903950	-1.465253	1.124161	-0.352539	0.209961	-0.180420	143.798638	78.612038	153.351135
02283		-11.897106	-9.049013	10.749842	-0.589110	-3.502751	0.567269	-0.346924	0.212402	-0.201172	135.289214	79.934012	145.032383
02284		-4.257717	-5.526880	10.237413	-0.374505	-5.295342	0.207155	-0.348145	0.218750	-0.219238	119.671156	81.710300	129.430774
02285		-0.214022	-4.293984	9.862548	-0.213447	-6.011803	0.043198	-0.367432	0.221191	-0.240967	95.236994	82.746650	104.898749
02286		2.303085	-1.584959	7.895041	-0.300674	-6.132668	0.035378	-0.390625	0.220459	-0.258789	68.431880	82.218108	78.041250
02287		2.869955	-0.453169	5.961016	-0.450898	-5.833146	-0.001603	-0.396973	0.230713	-0.277344	49.280696	80.469101	58.934369
02288		2.556552	-0.904227	3.721599	-0.503090	-5.617378	0.027652	-0.420166	0.229004	-0.293701	37.319628	78.102679	47.056390
02289		1.983474	-0.033014	2.536727	-0.405109	-5.484834	0.035096	-0.447021	0.242188	-0.295166	29.748756	75.468161	39.517995
02290		0.020979	-0.697895	3.694003	-0.404921	-5.372160	0.089205	-0.457031	0.239258	-0.319092	24.707392	72.702116	34.516832
02291		-1.176486	0.683748	5.251200	-0.499288	-5.373714	0.023728	-0.479004	0.245117	-0.316162	20.926536	69.858570	30.825476
02292		-2.812687	1.059903	6.507737	-0.724234	-5.282993	-0.183030	-0.496338	0.254150	-0.317627	17.707227	67.031435	27.809730
02293		-3.725193	0.694104	6.930327	-1.010255	-5.268932	-0.482404	-0.509033	0.263428	-0.315430	14.679361	64.209442	25.119169
02294		-4.278702	-0.426875	6.784051	-1.205582	-5.243175	-0.796565	-0.527832	0.256348	-0.323975	11.773517	61.383514	22.628104
02295		-5.445430	-0.991745	8.637948	-1.278548	-5.192273	-1.133439	-0.538818	0.260010	-0.319824	9.003164	58.574316	20.272580
02296		-6.502621	0.086545	9.489227	-1.489283	-5.115838	-1.331294	-0.551270	0.262695	-0.333496	6.361017	55.764909	18.143221
02297		-7.318594	-1.834504	9.744208	-1.439480	-5.113182	-1.589457	-0.554443	0.266602	-0.330078	3.903676	52.928225	16.131802
02298		-8.009886	-1.701406	10.270893	-1.431032	-5.065384	-1.540866	-0.563477	0.260010	-0.333496	1.786891	50.066371	14.474008
02299		-8.813721	-1.689643	10.486415	-1.277145	-4.960883	-1.691275	-0.574707	0.264648	-0.345947	-0.095318	47.238260	12.938832
02300		-8.872037	-1.575686	11.454992	-1.219250	-4.818343	-1.838513	-0.586182	0.257080	-0.357178	-1.836246	44.452789	11.485232
02301		-11.062228	-2.414154	12.692996	-1.096287	-4.615796	-1.987324	-0.594482	0.252197	-0.382324	-3.416495	41.758228	10.088761
02302		-13.974347	-2.310077	14.218293	-0.947088	-4.605529	-2.085126	-0.605469	0.249023	-0.401367	-4.815977	39.032807	8.765604
02303		-16.679147	-2.861481	15.488217	-0.824502	-4.752736	-2.170913	-0.618408	0.251709	-0.427734	-6.044314	36.203560	7.523553
02304		-18.966617	-3.447508	16.148805	-0.657427	-4.979595	-2.222553	-0.656006	0.249756	-0.454102	-7.074429	33.215936	6.374808
02305		-21.004770	-3.129756	16.173185	-0.516124	-5.228020	-2.273872	-0.693848	0.249512	-0.470459	-7.924980	30.075338	5.312983
02306		-22.346514	-2.933272	15.336416	-0.454785	-5.491228	-2.387621	-0.734863	0.254395	-0.496826	-8.674168	26.757138	4.284785
02307		-22.915521	-2.614771	13.664464	-0.477612	-5.756188	-2.660470	-0.786377	0.253174	-0.503418	-9.407535	23.259683	3.192024
02308		-21.115374	-1.814415	10.755702	-0.504173	-5.924927	-3.098122	-0.825928	0.264160	-0.512939	-10.157764	19.605817	1.927771
02309		-19.087704	-1.101803	8.654089	-0.488019	-5.795888	-3.470823	-0.894287	0.260742	-0.491211	-10.869132	15.976901	0.507459
02310		-20.068162	-0.709922	8.295430	-0.415779	-5.435347	-3.645935	-0.939453	0.260010	-0.479736	-11.474616	12.510733	-0.988466
02311		-22.632057	-0.516935	7.606305	-0.291684	-5.137750	-3.623614	-0.981689	0.244385	-0.459229	-11.915468	9.206216	-2.454166
02312		-23.870956	-0.524573	4.659157	-0.091044	-4.900765	-3.474127	-1.031494	0.232178	-0.442139	-12.149169	6.039805	-3.831447
02313		-22.559636	0.861113	-0.323453	0.189750	-4.407064	-3.167559	-1.059082	0.217529	-0.417236	-12.138467	3.188435	-5.081718
02314		-22.442007	4.290148	-5.772813	0.347668	-3.485155	-2.665523	-1.083496	0.202637	-0.398682	-11.976523	0.912710	-6.162335
02315		-26.334717	8.163864	-10.185437	0.079325	-2.396812	-1.811808	-1.096924	0.197510	-0.384033	-11.930206	-0.646709	-6.896740
02316		-29.469516	13.010193	-12.420122	-0.740212	-1.443607	-0.764696	-1.102051	0.193359	-0.373779	-12.347705	-1.549956	-7.154593
02317		-23.001442	12.429880	-12.988158	-1.203273	-0.258930	-0.329661	-1.111328	0.193604	-0.383301	-13.030116	-1.737118	-7.309598
02318		-21.261470	-0.969951	-14.423967	0.228938	2.528261	-0.054211	-1.095215	0.201416	-0.392578	-12.890230	-0.333468	-7.668059
02319		-23.270595	-1.549013	-8.721843	1.983807	3.519348	0.143050	-1.076172	0.191895	-0.409180	-11.754977	1.653059	-8.021592
02320		-1.424099	5.276239	8.741298	1.579238	3.549114	0.345721	-1.065186	0.178467	-0.421387	-10.857718	3.686157	-8.229455
02321		-5.586831	9.789338	16.527204	-0.066156	3.135939	-0.744178	-1.051758	0.177979	-0.435059	-10.953394	5.368987	-8.993714
02322		3.648409	-8.276250	9.756435	-0.493880	3.513365	-1.317373	-1.032471	0.178467	-0.452393	-11.358664	7.198372	-10.133711
02323		-0.644248	-9.880293	7.972848	-0.033853	4.550176	-0.222030	-1.003174	0.178955	-0.469482	-11.471326	9.727843	-10.784699
02324		-8.320472	2.274679	14.122934	0.400399	5.375315	0.142731	-0.973633	0.182617	-0.486816	-11.345622	12.763208	-11.327369
02325		-17.129625	2.485435	19.573159	0.403414	5.042309	0.218416	-0.947266	0.181885	-0.501709	-11.224654	15.620023	-11.787277
02326		-16.218417	2.476824	16.833831	0.768091	3.998249	0.805414	-0.924072	0.177734	-0.505615	-10.778314	17.957491	-11.774102
02327		-10.804016	-1.434869	12.945858	0.888947	3.416586	0.937912	-0.897949	0.179688	-0.523926	-10.208411	19.979362	-11.595843
02328		-12.365227	-8.068489	11.393555	1.236928	3.114305	0.767593	-0.892578	0.179932	-0.525635	-9.449126	21.813795	-11.461395
02329		-10.372388	-5.516991	10.051920	1.516075	2.412312	0.881064	-0.868896	0.164795	-0.531738	-8.461596	23.256944	-11.158051
02330		-8.903735	-0.209974	10.477520	1.619034	2.013416	1.071875	-0.853516	0.159668	-0.544678	-7.333988	24.485601	-10.669726
02331		-10.995779	1.090005	11.498926	1.485819	1.553397	1.033974	-0.854004	0.147949	-0.536865	-6.256818	25.438876	-10.140709
02332		-12.345473	3.755477	13.192087	0.996467	0.773100	0.638066	-0.842285	0.141846	-0.544189	-5.532010	25.918970	-9.791221
02333		-6.324098	0.652501	10.464993	0.790387	0.425875	0.349558	-0.839355	0.136719	-0.547852	-4.991675	26.179806	-9.597876
02334		-5.667188	-0.039017	10.047177	0.579565	0.287383	0.242613	-0.846924	0.132080	-0.548096	-4.596957	26.357639	-9.462208
02335		-5.286917	0.235679	9.802831	0.438488	0.239308	0.177376	-0.839111	0.131836	-0.545410	-4.299748	26.501758	-9.364689
02336		-5.431228	-0.574350	9.468313	0.340861	0.208479	0.114684	-0.846191	0.129395	-0.543213	-4.074928	26.627819	-9.304621
02337		-4.630421	-0.290720	9.245443	0.254048	0.158775	0.069155	-0.832764	0.131104	-0.546631	-3.911817	26.720892	-9.271244
02338		-4.706583	-0.644524	9.097389	0.205866	0.188421	0.025707	-0.832764	0.126465	-0.543701	-3.788996	26.831698	-9.266362
02339		-4.497871	-0.644121	9.158765	0.180471	0.180608	0.038989	-0.830811	0.131348	-0.543701	-3.676846	26.935993	-9.252698
02340		-4.632449	-0.128768	9.350715	0.118644	0.186219	0.014986	-0.829346	0.128906	-0.554199	-3.606869	27.045067	-9.254164
02341		-4.778937	0.082539	9.299945	0.042748	0.191044	0.015546	-0.830078	0.136230	-0.541504	-3.580493	27.154457	-9.255669
02342		-4.637284	-0.137631	9.285689	-0.014352	0.210662	0.014906	-0.821289	0.129395	-0.542725	-3.587113	27.277440	-9.258046
02343		-4.871885	-0.395379	9.158354	-0.066688	0.218953	0.004586	-0.828125	0.128906	-0.548828	-3.627221	27.402394	-9.267772
02344		-4.810806	-0.583740	8.996125	-0.112009	0.205655	0.004797	-0.823486	0.125244	-0.549805	-3.692787	27.522076	-9.276644
02345		-4.846672	-0.693424	8.874110	-0.127666	0.193811	0.010857	-0.827637	0.124023	-0.553467	-3.765655	27.632871	-9.281588
02346		-4.691835	-0.653092	8.871321	-0.138361	0.185086	0.023372	-0.824219	0.131348	-0.549561	-3.840542	27.741425	-9.277945
02347		-4.803102	-0.732870	8.735571	-0.131981	0.173400	0.024771	-0.815674	0.128174	-0.542236	-3.911444	27.841078	-9.273335
02348		-4.767432	-0.788766	8.690697	-0.112122	0.155558	0.018141	-0.820557	0.129150	-0.548584	-3.972401	27.932498	-9.272053
02349		-4.866032	-1.011373	8.608801	-0.083804	0.153383	0.031643	-0.819824	0.128418	-0.554199	-4.013279	28.020993	-9.262314
02350		-4.756531	-0.853492	8.531139	-0.043486	0.129889	0.045423	-0.811768	0.131348	-0.546631	-4.026134	28.098789	-9.242346
02351		-4.855948	-0.791699	8.553964	-0.006478	0.101715	0.061914	-0.815674	0.132080	-0.546143	-4.012343	28.158972	-9.210668
02352		-4.859783	-0.582732	8.622925	0.010384	0.084683	0.070553	-0.819580	0.132568	-0.546875	-3.985621	28.211880	-9.172313
02353		-4.808714	-0.632117	8.604891	0.025005	0.076264	0.066771	-0.817627	0.141357	-0.555176	-3.951663	28.257684	-9.136247
02354		-4.776410	-0.641141	8.609226	0.041626	0.063605	0.069924	-0.806641	0.128906	-0.547852	-3.906690	28.298431	-9.097263
02355		-4.734405	-0.605418	8.653903	0.049877	0.066047	0.075837	-0.818848	0.133789	-0.546387	-3.855377	28.338698	-9.054751
02356		-4.817964	-0.743321	8.516500	0.081246	0.057710	0.076377	-0.812012	0.133301	-0.548584	-3.785494	28.376204	-9.011214
02357		-4.721395	-0.418295	8.700332	0.088605	0.067861	0.090548	-0.815918	0.133057	-0.556152	-3.707364	28.417971	-8.959080
02358		-4.870307	-0.869030	8.417565	0.137377	0.045605	0.085827	-0.809814	0.136230	-0.550537	-3.602037	28.448742	-8.908753
02359		-4.792356	-0.751881	8.586982	0.166526	0.050784	0.096048	-0.808838	0.128662	-0.551514	-3.477078	28.480772	-8.852149
02360		-4.662331	-0.576269	8.756509	0.173117	0.065818	0.101586	-0.811279	0.121338	-0.550293	-3.346636	28.523412	-8.792190
02361		-4.753335	-0.605255	8.767154	0.161886	0.087576	0.107619	-0.819092	0.128662	-0.550781	-3.221217	28.576645	-8.729218
02362		-4.643472	-0.655612	8.722184	0.167397	0.114708	0.115824	-0.814209	0.122070	-0.553467	-3.090226	28.647416	-8.661476
02363		-4.590199	-0.634664	8.775788	0.159088	0.149565	0.132259	-0.812744	0.122559	-0.555664	-2.959411	28.736610	-8.584210
02364		-4.619137	-0.432434	8.810561	0.151203	0.197661	0.140036	-0.812500	0.120850	-0.552490	-2.830993	28.855223	-8.502930
02365		-4.701764	-0.449600	8.810950	0.126629	0.233914	0.145780	-0.815674	0.119141	-0.550049	-2.715218	28.992766	-8.418876
02366		-4.717506	-0.618824	8.704434	0.114542	0.262248	0.157919	-0.816650	0.117676	-0.554199	-2.602355	29.148470	-8.327087
02367		-4.716206	-0.607984	8.843928	0.101286	0.294019	0.167621	-0.804932	0.116455	-0.549561	-2.494137	29.320683	-8.229589
02368		-4.520863	-0.140732	9.208710	0.051989	0.355109	0.179656	-0.805176	0.122314	-0.554932	-2.410427	29.529734	-8.125183
02369		-4.552783	0.180068	9.461083	-0.031823	0.439888	0.168284	-0.805420	0.125977	-0.551270	-2.379156	29.785238	-8.030329
02370		-4.343847	0.066260	9.611212	-0.125407	0.568080	0.137606	-0.796387	0.127930	-0.556885	-2.412647	30.115033	-7.958802
02371		-4.053589	-0.256103	9.655421	-0.170774	0.734189	0.089277	-0.794434	0.121338	-0.560791	-2.490531	30.537150	-7.924352
02372		-3.775764	-0.246905	9.920343	-0.211495	0.958283	0.053381	-0.791016	0.125488	-0.562256	-2.607283	31.088206	-7.920919
02373		-3.562205	0.109911	10.397507	-0.226924	1.263703	-0.004883	-0.778320	0.123535	-0.559082	-2.759238	31.810971	-7.967884
02374		-3.588233	0.444580	10.817103	-0.331488	1.574002	-0.064138	-0.773438	0.133789	-0.559570	-3.000267	32.710835	-8.068632
02375		-3.806063	-0.080582	10.537637	-0.492508	1.907206	-0.048314	-0.755127	0.133789	-0.561523	-3.339858	33.799992	-8.177977
02376		-3.401340	-0.161722	10.984746	-0.621839	2.282678	-0.015537	-0.735352	0.141357	-0.561035	-3.757262	35.105607	-8.290766
02377		-3.225364	-0.231931	11.195612	-0.793675	2.709745	0.061916	-0.725586	0.141113	-0.569580	-4.264861	36.656415	-8.385276
02378		-2.789159	-0.599564	11.105894	-0.925804	3.206987	0.172891	-0.693604	0.148193	-0.563232	-4.831187	38.496456	-8.448503
02379		-2.568491	-0.640088	11.029150	-1.020576	3.754990	0.318133	-0.665771	0.157715	-0.572266	-5.425102	40.655076	-8.466812
02380		-1.640327	-1.517045	10.599654	-0.943277	4.412805	0.521481	-0.648193	0.157715	-0.565186	-5.923212	43.200729	-8.407411
02381		-0.723585	-1.985878	10.191126	-0.659294	5.260767	0.778048	-0.608887	0.173584	-0.560059	-6.177371	46.244564	-8.235365
02382		0.312637	-2.724797	10.096846	-0.271831	6.397631	1.051003	-0.566895	0.174316	-0.559082	-6.103638	49.953292	-7.930768
02383		-1.814616	-3.136075	10.194616	0.048582	7.634271	1.331737	-0.510254	0.173584	-0.549316	-5.678061	54.382111	-7.430822
02384		-5.804755	-2.427043	12.158840	0.046991	8.836064	1.559326	-0.449219	0.161377	-0.532227	-5.010791	59.505492	-6.670747
02385		-10.483403	-3.164511	13.353790	-0.078352	9.628950	1.824308	-0.394043	0.168457	-0.506348	-3.889211	65.086821	-5.357673
02386		-20.414065	1.613248	12.790557	-0.251964	9.813105	1.737755	-0.326172	0.156250	-0.475098	-2.340164	70.754902	-3.535182
02387		-28.680442	-3.802264	14.675869	-0.694282	8.868564	1.380530	-0.285645	0.160645	-0.441650	-0.533669	75.855153	-1.238593
02388		-26.253722	-2.269037	16.966362	-0.757737	7.591340	1.362064	-0.248779	0.158936	-0.413330	3.169878	80.187565	2.985665
02389		-17.996822	-2.690330	17.371708	-0.954178	6.542632	1.426985	-0.211182	0.151367	-0.377441	11.871547	83.809118	12.317534
02390		-10.035679	-2.843619	19.210529	-1.372347	5.582217	1.467616	-0.190674	0.139404	-0.353027	35.328811	86.462642	36.637387
02391		2.375226	-4.401772	17.036532	-1.834566	4.758496	1.588750	-0.172119	0.144531	-0.324219	85.945809	87.069787	88.374191
02392		8.012456	-3.081345	8.960015	-2.073989	5.126029	2.030504	-0.162109	0.139160	-0.296875	122.833787	85.110030	126.525411
02393		-27.870379	-8.043048	24.438137	-1.483855	4.061276	2.324254	-0.139404	0.131104	-0.282959	131.745905	82.634585	136.338833
02394		-15.097132	-7.218029	20.526565	-1.284255	1.310272	1.928105	-0.138428	0.119629	-0.266602	129.919251	81.313471	135.234754
02395		-9.968187	-7.637514	18.173266	-0.777295	-0.331272	1.609890	-0.145264	0.121094	-0.275146	124.991065	80.699006	130.693657
02396		-5.917063	-6.530141	12.493990	-0.485756	-1.423828	1.482044	-0.151611	0.099609	-0.282471	117.858133	80.405857	123.742634
02397		-4.816622	-4.448041	8.839059	-0.164927	-2.614089	1.377041	-0.169189	0.087402	-0.293701	107.856659	80.263272	113.691135
02398		-4.135088	-1.566260	6.864443	-0.308154	-3.587981	1.202933	-0.182373	0.077148	-0.307861	95.258292	80.004560	101.082239
02399		-0.162789	-1.288245	7.711413	-0.622019	-4.203885	0.898790	-0.207764	0.073242	-0.332031	81.678748	79.424842	87.642707
02400		-0.115035	-0.953846	7.053974	-0.935983	-4.418570	0.673018	-0.222168	0.069336	-0.350098	69.075986	78.410630	75.347369
02401		0.593265	-0.913160	5.729322	-1.152552	-4.504998	0.380342	-0.253662	0.068115	-0.367676	58.198728	77.066647	64.891485
02402		0.586574	-1.454502	4.617164	-1.192043	-4.486640	0.100040	-0.267822	0.077148	-0.389404	49.132678	75.493930	56.262434
02403		0.419880	-1.518829	4.763561	-1.112759	-4.495672	-0.096627	-0.288574	0.073730	-0.409668	41.678861	73.723902	49.191555
02404		-0.380535	-0.870841	4.815498	-1.021278	-4.471592	-0.268783	-0.321533	0.070313	-0.426025	35.523896	71.814099	43.359942
02405		-0.691549	-0.475808	5.897458	-1.011498	-4.433397	-0.457691	-0.348389	0.076172	-0.441650	30.334101	69.824530	38.477158
02406		-1.477731	0.497667	6.559349	-1.071719	-4.443079	-0.615955	-0.366699	0.079834	-0.468506	25.811665	67.740221	34.284347
02407		-2.511577	1.290658	7.184560	-1.238320	-4.447213	-0.783776	-0.396973	0.091064	-0.475830	21.761339	65.589893	30.644088
02408		-3.494889	1.380890	8.220895	-1.448870	-4.548788	-0.946507	-0.425293	0.094727	-0.495361	17.994661	63.318264	27.389149
02409		-4.074917	1.271196	8.708743	-1.661883	-4.660832	-1.037875	-0.462402	0.107178	-0.508301	14.544718	60.921452	24.561447
02410		-4.778774	0.365190	9.141752	-1.758775	-4.703774	-1.127129	-0.499512	0.121094	-0.527588	11.414516	58.434480	22.102315
02411		-6.063848	0.311553	10.560238	-1.783816	-4.759600	-1.171980	-0.527344	0.127197	-0.529297	8.630087	55.865942	20.002268
02412		-7.342017	0.073153	11.440150	-1.850678	-4.913500	-1.235929	-0.577148	0.143555	-0.538818	6.070746	53.157963	18.161003
02413		-8.033364	-0.603094	11.769595	-1.774058	-5.098185	-1.290052	-0.621338	0.154541	-0.547852	3.799817	50.311223	16.560821
02414		-8.551238	-0.482149	11.527771	-1.789615	-5.239076	-1.374267	-0.671875	0.159180	-0.544189	1.703741	47.343655	15.138109
02415		-8.502436	-0.815429	11.660975	-1.757711	-5.207668	-1.441540	-0.716064	0.171387	-0.535889	-0.196143	44.370739	13.891192
02416		-9.591348	-0.831842	12.792580	-1.798299	-5.034609	-1.505164	-0.765869	0.177246	-0.529541	-1.982182	41.462791	12.780990
02417		-12.873929	-0.925065	15.008778	-1.847041	-4.856486	-1.632609	-0.802002	0.194580	-0.512939	-3.710279	38.636789	11.736714
02418		-16.817497	-1.027493	16.461627	-1.944067	-4.919373	-1.853027	-0.854736	0.184814	-0.490234	-5.459799	35.734601	10.684532
02419		-18.585244	-1.303506	16.224117	-1.965550	-5.115639	-2.152658	-0.891113	0.194092	-0.470459	-7.199828	32.684809	9.589060
02420		-19.207515	-2.162940	15.832583	-1.858569	-5.204375	-2.407862	-0.922852	0.186523	-0.452393	-8.840632	29.531901	8.473802
02421		-21.535147	-3.633532	15.684121	-1.581921	-5.223401	-2.666561	-0.969238	0.179199	-0.420410	-10.281756	26.326065	7.327640
02422		-23.579032	-3.899964	14.673927	-1.154045	-5.326593	-3.064482	-0.994629	0.170654	-0.397217	-11.471774	22.990320	6.059214
02423		-23.707517	-2.422751	12.404393	-0.716648	-5.543426	-3.558770	-1.026367	0.150146	-0.362793	-12.401085	19.460034	4.620533
02424		-22.785704	-0.181836	10.073814	-0.399561	-5.613301	-3.969234	-1.048340	0.132813	-0.336914	-13.110118	15.814534	3.034116
02425		-22.582372	1.139989	8.170774	-0.204899	-5.430988	-4.136212	-1.063477	0.117676	-0.312744	-13.622249	12.238013	1.395948
02426		-23.039525	0.268496	5.646133	0.194049	-4.863066	-4.109205	-1.073242	0.090820	-0.297852	-13.815052	8.967430	-0.262325
02427		-25.798951	-0.095973	-1.292357	0.483735	-4.316676	-3.677103	-1.077637	0.067139	-0.276855	-13.727999	6.062564	-1.735559
02428		-25.899713	0.648046	-3.706882	1.185496	-4.080361	-3.430693	-1.082520	0.038330	-0.261719	-13.159891	3.328042	-3.111753
02429		-28.277728	3.955272	-11.498940	1.493837	-3.054857	-2.915467	-1.078125	0.021729	-0.240723	-12.351114	1.251107	-4.358691
02430		-28.031344	12.040338	-19.022940	1.200857	-1.457771	-2.070433	-1.073242	0.006592	-0.239990	-11.673962	0.185538	-5.348501
02431		-23.759810	14.902409	-22.910462	0.270455	0.805206	-1.397350	-1.063965	-0.003662	-0.246826	-11.521510	0.475638	-6.228818
02432		-27.383362	7.021409	-16.149959	0.351160	3.145993	-1.582305	-1.051025	-0.018066	-0.248535	-11.345893	2.062799	-7.478218
02433		-8.932051	0.294328	0.331410	0.314385	3.767778	-1.609544	-1.025879	-0.019043	-0.251221	-11.233609	3.998488	-8.810281
02434		-12.794345	2.614560	15.093377	0.022026	3.418858	-1.655999	-1.015625	-0.034180	-0.253418	-11.331016	5.735219	-10.131886
02435		-0.753078	0.250710	15.635045	-0.329349	2.576618	-1.646805	-1.001709	-0.043213	-0.256104	-11.653476	6.993101	-11.361481
02436		3.097870	-4.774345	9.229313	-0.073260	2.972699	-0.450825	-0.982178	-0.044678	-0.260986	-11.775605	8.609992	-11.968977
02437		-4.473809	3.567890	13.507853	0.157152	3.958841	0.293164	-0.973389	-0.037354	-0.270508	-11.734630	10.864007	-12.274292
02438		-11.310952	1.692592	16.857479	0.256305	4.179951	0.325665	-0.948242	-0.038086	-0.273193	-11.650677	13.248510	-12.586976
02439		-12.373908	0.981543	16.118615	0.318631	3.715042	0.753298	-0.933350	-0.048584	-0.276611	-11.467298	15.419508	-12.594136
02440		-9.517093	-3.333722	13.092446	0.400795	3.421651	0.649798	-0.922607	-0.039795	-0.283936	-11.242031	17.416854	-12.619204
02441		-8.957011	-6.404409	11.132163	0.552519	3.248068	0.486465	-0.904785	-0.042725	-0.278809	-10.952053	19.295857	-12.711878
02442		-10.688995	-4.192793	11.514338	0.842686	2.855791	0.588860	-0.888672	-0.051514	-0.279053	-10.457721	20.968572	-12.685828
02443		-10.921005	-1.551237	11.726869	0.990481	2.228594	0.669469	-0.885010	-0.056641	-0.276611	-9.828371	22.292256	-12.525099
02444		-8.834609	-1.850131	10.490303	1.021487	1.737648	0.690979	-0.877197	-0.058105	-0.277588	-9.146702	23.342170	-12.282914
02445		-7.437389	-3.306530	9.540494	1.074206	1.340380	0.777176	-0.879395	-0.056641	-0.277588	-8.387933	24.168332	-11.933612
02446		-6.744194	-1.266130	9.682590	0.949257	1.060372	0.698865	-0.882324	-0.055176	-0.270020	-7.701122	24.828856	-11.594819
02447		-6.701827	0.440280	10.065213	0.800932	0.894760	0.623940	-0.875000	-0.070068	-0.270752	-7.106054	25.382670	-11.279958
02448		-7.466641	1.578822	11.153980	0.620812	0.687871	0.464800	-0.872559	-0.059570	-0.270020	-6.645284	25.808875	-11.042587
02449		-5.607430	1.393439	10.221953	0.441241	0.472981	0.308341	-0.867432	-0.062988	-0.273926	-6.320986	26.097504	-10.885112
02450		-5.135970	-1.481412	9.580288	0.369653	0.440508	0.245256	-0.870361	-0.075439	-0.271240	-6.052554	26.366652	-10.763106
02451		-5.329824	-0.121121	9.580014	0.268525	0.351325	0.209387	-0.862549	-0.071045	-0.273193	-5.848770	26.578747	-10.656860
02452		-4.708784	0.403351	9.567067	0.203757	0.322870	0.151470	-0.864258	-0.073486	-0.262939	-5.696801	26.774572	-10.584476
02453		-4.907957	-1.155017	8.926670	0.171303	0.307879	0.114921	-0.864990	-0.065430	-0.267822	-5.573361	26.956053	-10.534196
02454		-5.156741	-0.800017	8.993838	0.155157	0.246760	0.106300	-0.866211	-0.069336	-0.265137	-5.459261	27.105613	-10.484820
02455		-4.913539	-0.972069	8.805283	0.191574	0.169638	0.093237	-0.871338	-0.072266	-0.271484	-5.326053	27.206879	-10.439082
02456		-4.908506	-1.496100	8.639707	0.219875	0.149114	0.094292	-0.866211	-0.063232	-0.262451	-5.175205	27.299831	-10.390800
02457		-4.714576	-0.840039	8.903809	0.235272	0.118905	0.101513	-0.867920	-0.074219	-0.261963	-5.012750	27.372352	-10.336173
02458		-4.720446	-0.352319	8.904001	0.208085	0.140272	0.075792	-0.859131	-0.070801	-0.259033	-4.873539	27.459040	-10.298702
02459		-4.403675	-0.870999	8.900168	0.203911	0.146140	0.080843	-0.862549	-0.077393	-0.264648	-4.735507	27.545872	-10.258358
02460		-4.767060	-0.727354	8.799518	0.205639	0.151939	0.093186	-0.865967	-0.069336	-0.260742	-4.592438	27.639781	-10.209777
02461		-4.713279	-1.058624	8.775704	0.217613	0.145777	0.098216	-0.864258	-0.083008	-0.267822	-4.440969	27.727009	-10.157650
02462		-4.875131	-0.627225	8.839234	0.217067	0.137203	0.114188	-0.868652	-0.076172	-0.259277	-4.284292	27.813111	-10.094176
02463		-4.948419	-0.589340	8.862852	0.199893	0.119142	0.109241	-0.862305	-0.070068	-0.254883	-4.138640	27.885336	-10.033052
02464		-4.669969	-0.799228	8.718407	0.207802	0.117730	0.117519	-0.860840	-0.069824	-0.255859	-3.985419	27.960081	-9.965951
02465		-4.635878	-0.963648	8.656485	0.221735	0.131935	0.128342	-0.856201	-0.078613	-0.260498	-3.821323	28.040073	-9.892501
02466		-4.745843	-0.740964	8.594362	0.252663	0.126751	0.144051	-0.862793	-0.073486	-0.261475	-3.634073	28.120540	-9.808030
02467		-4.752131	-0.694930	8.677246	0.279176	0.102729	0.151471	-0.871826	-0.083252	-0.259521	-3.428938	28.184224	-9.717718
02468		-4.915470	-0.551683	8.661547	0.279754	0.089123	0.154859	-0.862305	-0.077637	-0.252441	-3.221676	28.242933	-9.624100
02469		-4.845042	-0.319759	8.809351	0.269104	0.081617	0.146469	-0.863770	-0.080811	-0.256104	-3.023045	28.293812	-9.535677
02470		-4.871258	-0.199493	8.844478	0.231787	0.085856	0.142477	-0.862305	-0.082520	-0.261230	-2.846621	28.349663	-9.449475
02471		-4.730495	-0.376479	8.852209	0.216210	0.096938	0.132172	-0.862305	-0.083008	-0.258545	-2.682580	28.408428	-9.370382
02472		-5.151636	-0.293391	8.635991	0.203947	0.113199	0.132194	-0.858154	-0.080566	-0.256836	-2.525293	28.479153	-9.291234
02473		-4.788095	-0.197286	8.901884	0.187006	0.106249	0.113517	-0.854736	-0.084717	-0.257568	-2.383531	28.542413	-9.224095
02474		-4.761032	-0.307740	8.838483	0.164735	0.126409	0.105924	-0.858398	-0.086182	-0.257813	-2.256661	28.619690	-9.161935
02475		-4.700119	-0.317022	9.013873	0.128379	0.166417	0.102549	-0.854736	-0.093994	-0.257324	-2.152286	28.716898	-9.103049
02476		-4.678085	-0.180148	8.978487	0.080558	0.202768	0.103092	-0.856689	-0.082275	-0.255859	-2.075032	28.837565	-9.044161
02477		-4.635563	-0.091905	9.108222	0.023905	0.244877	0.096163	-0.856934	-0.079590	-0.253174	-2.033003	28.979431	-8.990865
02478		-4.753923	-0.360718	8.955126	-0.026479	0.298263	0.097042	-0.854492	-0.094971	-0.261719	-2.019623	29.154493	-8.937782
02479		-4.598399	-0.674280	8.796435	-0.051465	0.354303	0.099970	-0.863037	-0.080811	-0.250488	-2.020376	29.359065	-8.884243
02480		-4.564129	-0.517070	8.888752	-0.056591	0.422677	0.106025	-0.859863	-0.090088	-0.256592	-2.022332	29.605466	-8.827917
02481		-4.525418	-0.003113	9.284909	-0.096871	0.500710	0.108491	-0.856445	-0.081299	-0.257568	-2.047515	29.894057	-8.771990
02482		-4.663725	0.596875	9.684382	-0.205619	0.605112	0.078958	-0.854004	-0.082764	-0.253418	-2.145561	30.244316	-8.738031
02483		-4.131664	0.156766	9.830442	-0.271337	0.752945	0.013938	-0.850342	-0.079102	-0.261963	-2.305604	30.675374	-8.752127
02484		-3.566869	-0.651656	9.914314	-0.288498	1.003182	-0.020446	-0.845703	-0.081055	-0.264893	-2.491438	31.251145	-8.797464
02485		-3.610116	-0.366574	10.092103	-0.301820	1.316474	-0.044983	-0.834961	-0.066650	-0.270020	-2.700778	32.003132	-8.871791
02486		-3.897195	-0.187893	10.125031	-0.374619	1.596320	-0.028041	-0.835449	-0.076904	-0.273926	-2.953542	32.917609	-8.947980
02487		-3.752924	0.351955	10.494637	-0.492402	1.877838	-0.023116	-0.816406	-0.076904	-0.277344	-3.282744	33.990831	-9.038016
02488		-3.438711	0.326013	10.750192	-0.617269	2.244026	-0.011665	-0.817383	-0.077148	-0.277344	-3.694425	35.275280	-9.144985
02489		-3.259913	-0.273759	10.881241	-0.748515	2.641052	0.042693	-0.791992	-0.068359	-0.282227	-4.181035	36.786163	-9.247464
02490		-3.020987	-0.737933	10.772635	-0.821595	3.105938	0.152349	-0.780273	-0.062500	-0.299561	-4.690448	38.568315	-9.315292
02491		-2.827226	-0.629178	10.803152	-0.926144	3.604745	0.299827	-0.767090	-0.063721	-0.297852	-5.227471	40.640300	-9.329240
02492		-2.252286	-1.082015	10.580078	-0.902322	4.202977	0.478114	-0.746582	-0.057617	-0.306641	-5.705685	43.064320	-9.275248
02493		-1.272676	-1.531561	10.103006	-0.675147	4.973345	0.707813	-0.721680	-0.045410	-0.311035	-5.981940	45.939772	-9.121091
02494		0.043438	-2.453122	9.772183	-0.286491	6.074273	0.956018	-0.685547	-0.046143	-0.309082	-5.945322	49.458437	-8.853482
02495		-1.126752	-2.859525	9.402417	0.038830	7.313914	1.272322	-0.656982	-0.049805	-0.308594	-5.538667	53.700404	-8.366463
02496		-4.118118	-2.738570	12.180674	0.043995	8.661000	1.520746	-0.623291	-0.046387	-0.302490	-4.892456	58.721338	-7.623234
02497		-8.536017	-4.367214	13.993950	-0.190854	9.882333	1.864475	-0.584473	-0.049072	-0.298340	-3.831786	64.448244	-6.297431
02498		-16.945080	0.210899	14.614625	-0.169663	10.460022	1.995250	-0.539063	-0.042725	-0.277588	-1.902831	70.491444	-4.109659
02499		-27.550003	-0.783311	13.770909	-0.644088	9.880625	1.661327	-0.493408	-0.043945	-0.269531	0.701984	76.164060	-1.011528
02500		-28.950068	-4.309013	17.463111	-0.957237	8.569836	1.425244	-0.453613	-0.050537	-0.251221	5.504276	81.027450	4.439611
02501		-22.890529	-2.772470	18.947289	-1.120698	7.266921	1.600484	-0.417236	-0.048340	-0.232422	19.455017	84.926928	19.130864
02502		-14.964276	-3.726614	21.311058	-1.485365	6.060785	1.649745	-0.377686	-0.053467	-0.224121	62.462656	87.087395	63.076745
02503		-1.364069	-4.485801	20.679593	-1.973812	4.835531	1.760378	-0.348633	-0.056152	-0.212891	110.764677	86.162696	112.581531
02504		20.108426	-4.828008	14.150944	-2.322129	4.615418	2.208642	-0.325928	-0.057129	-0.197510	128.443430	83.727815	131.657145
02505		-26.382540	-8.943649	25.803836	-1.806163	4.330542	2.583973	-0.301025	-0.061523	-0.174561	134.054804	80.976785	138.358589
02506		-20.400362	-9.319052	25.586893	-1.570340	0.872032	1.960583	-0.291504	-0.065918	-0.175537	130.852591	79.817311	136.021137
02507		-10.545763	-10.751159	17.767843	-0.838401	-1.319581	1.318505	-0.286133	-0.072266	-0.183838	124.519421	79.684305	130.071006
02508		-9.986886	-7.329080	9.197462	-0.595974	-3.300630	1.048437	-0.273926	-0.080566	-0.198242	113.239872	80.081693	118.959199
02509		-4.514494	-2.664889	10.054763	-0.676909	-5.550422	0.709477	-0.284912	-0.089111	-0.212891	94.200385	80.449352	100.037564
02510		-0.229795	-1.734942	10.122586	-0.809987	-6.295476	0.471660	-0.283691	-0.096680	-0.235840	73.175193	79.778596	79.172124
02511		2.670383	0.183300	7.482210	-1.064797	-6.447512	0.342997	-0.290527	-0.094727	-0.265137	55.940289	77.997918	62.233865
02512		3.387992	0.710464	5.148369	-1.358372	-6.027722	0.226105	-0.294189	-0.094238	-0.297363	44.140039	75.669284	50.917595
02513		3.252946	-0.097455	2.096063	-1.357777	-5.706686	0.178996	-0.311279	-0.104736	-0.327393	36.090926	73.099322	43.367995
02514		3.072271	1.187126	1.949110	-1.369645	-5.363240	0.203374	-0.315186	-0.109375	-0.345947	30.450258	70.460539	38.256772
02515		0.338712	2.297232	3.430186	-1.472333	-4.951788	0.185336	-0.323730	-0.100342	-0.373535	26.298583	67.914054	34.716202
02516		-1.286442	2.131545	6.108484	-1.536997	-4.859134	0.141448	-0.328857	-0.098145	-0.411377	22.886772	65.343490	31.959135
02517		-2.662649	2.538308	6.670586	-1.780172	-4.890189	0.042273	-0.339844	-0.078369	-0.431885	19.813708	62.725678	29.673546
02518		-1.718135	1.489358	7.010742	-1.971293	-4.912969	-0.120246	-0.346924	-0.073730	-0.475586	16.922225	60.069751	27.667061
02519		-2.526237	0.708220	7.790118	-2.041694	-4.785241	-0.250163	-0.361816	-0.062012	-0.507813	14.304377	57.468260	25.971337
02520		-4.471019	0.405521	9.560870	-2.053508	-4.661926	-0.372865	-0.386475	-0.043701	-0.547363	11.901144	54.908229	24.495462
02521		-6.718389	0.788897	10.285380	-2.072622	-4.613356	-0.570152	-0.407959	-0.021729	-0.586182	9.605332	52.372654	23.116679
02522		-9.051779	0.745062	10.991647	-2.052957	-4.606021	-0.884848	-0.432129	0.012939	-0.622803	7.316826	49.829187	21.688218
02523		-10.725105	0.641805	11.638893	-1.921877	-4.645789	-1.190212	-0.461426	0.031250	-0.644287	5.120169	47.256902	20.223739
02524		-11.559387	0.542052	12.623548	-1.721843	-4.738715	-1.357181	-0.501465	0.053711	-0.672119	3.123424	44.596395	18.818491
02525		-11.721146	0.640529	13.259355	-1.542138	-4.821226	-1.476409	-0.553467	0.085205	-0.695068	1.342972	41.868906	17.506043
02526		-12.634741	0.544054	14.553129	-1.429884	-4.869745	-1.586795	-0.591064	0.102539	-0.717041	-0.279932	39.078587	16.268796
02527		-15.177678	0.331739	16.226970	-1.422988	-5.023468	-1.700456	-0.645996	0.136719	-0.722900	-1.806255	36.182734	15.100793
02528		-16.733672	-0.019216	16.406126	-1.510956	-5.418676	-1.905863	-0.704834	0.151367	-0.738770	-3.332979	33.023343	13.937790
02529		-15.179567	-0.586142	14.961467	-1.564520	-5.732787	-2.179175	-0.768555	0.181885	-0.732666	-4.845118	29.657481	12.750105
02530		-14.427716	-1.477293	14.187570	-1.540506	-5.747909	-2.374501	-0.829590	0.182861	-0.719238	-6.279957	26.239066	11.572971
02531		-15.201398	-1.841030	14.429969	-1.494049	-5.718819	-2.489520	-0.891846	0.198730	-0.702393	-7.600769	22.813376	10.448315
02532		-15.855233	-2.076464	14.817244	-1.491086	-5.736351	-2.611953	-0.943604	0.205078	-0.680664	-8.846805	19.338066	9.359995
02533		-15.395959	-2.007507	14.279988	-1.509727	-5.771372	-2.769665	-0.996094	0.215088	-0.651123	-10.034754	15.814974	8.283597
02534		-14.082256	-1.818875	13.333593	-1.523354	-5.658207	-2.915872	-1.041260	0.200195	-0.617676	-11.170696	12.313307	7.201497
02535		-12.435213	-1.080757	12.165507	-1.521112	-5.390855	-2.993815	-1.081299	0.207520	-0.595947	-12.238195	8.939866	6.126880
02536		-11.488679	0.045115	11.028714	-1.542267	-4.998273	-2.966820	-1.109619	0.196289	-0.570068	-13.254531	5.764610	5.088576
02537		-11.128331	0.405948	9.361240	-1.530940	-4.509044	-2.869408	-1.148926	0.196045	-0.553467	-14.203823	2.863700	4.098714
02538		-10.669331	0.096312	7.013714	-1.293833	-3.917728	-2.714973	-1.160645	0.187500	-0.525146	-14.970419	0.293374	3.154856
02539		-11.308619	0.186205	5.703613	-0.894975	-3.168093	-2.467561	-1.173584	0.178955	-0.522217	-15.468750	-1.830418	2.263913
02540		-15.541379	2.102777	3.734374	-0.544564	-2.483141	-2.260283	-1.189941	0.171631	-0.499756	-15.738818	-3.554389	1.395051
02541		-23.069421	4.789856	-0.611050	-0.241887	-2.125278	-2.181740	-1.206543	0.168213	-0.496094	-15.808877	-5.067186	0.517437
02542		-25.509279	8.288649	-7.497952	-0.089928	-1.813093	-2.049907	-1.206299	0.147461	-0.491699	-15.773472	-6.390055	-0.337496
02543		-20.873035	9.196670	-10.206418	0.032441	-0.920914	-1.718381	-1.208252	0.144531	-0.486328	-15.656274	-7.165772	-1.151230
02544		-14.115940	6.276001	-6.875157	0.209085	0.266460	-1.134186	-1.208008	0.141357	-0.483887	-15.449885	-7.194566	-1.826675
02545		-13.873578	4.202760	-0.295332	0.333730	1.031154	-0.639465	-1.194580	0.133545	-0.503906	-15.193525	-6.722659	-2.343170
02546		-13.789454	1.554581	5.729053	0.409340	1.048356	-0.444417	-1.176025	0.131592	-0.503418	-14.910547	-6.209141	-2.750827
02547		-11.828407	-0.368657	6.927936	0.472651	0.757875	-0.403130	-1.177734	0.122559	-0.498291	-14.601555	-5.849121	-3.089885
02548		-8.175515	-1.322439	5.905682	0.588146	0.637003	-0.423361	-1.181152	0.122559	-0.505859	-14.229007	-5.555205	-3.420471
02549		-7.048801	-1.372598	5.888348	0.691631	0.773684	-0.457375	-1.166260	0.113525	-0.511230	-13.795851	-5.189577	-3.786911
02550		-1.369561	1.436536	5.668972	0.985499	1.334107	-0.594452	-1.151123	0.108154	-0.521484	-13.184935	-4.524156	-4.301409
02551		-1.929055	-4.287642	3.010111	1.347507	3.846074	-0.286524	-1.121094	0.097900	-0.528564	-12.370762	-2.412341	-4.953303
02552		-1.879240	2.916848	-0.416465	0.895564	2.955534	-0.760395	-1.100830	0.101318	-0.546875	-11.832706	-0.846106	-5.737748
02553		4.578775	0.051915	7.728251	-0.224518	3.447968	-1.123577	-1.069824	0.094482	-0.552002	-11.959765	0.953452	-6.778152
02554		-1.061336	-7.337816	8.901712	-0.315389	4.228953	-0.987052	-1.036133	0.102051	-0.571045	-12.176409	3.206355	-7.841570
02555		-9.632463	-7.194296	14.571118	0.038886	4.578460	-0.458465	-0.999512	0.097656	-0.582031	-12.215076	5.714053	-8.658170
02556		-11.673754	-0.805819	19.856486	0.210443	4.535018	-0.322021	-0.969727	0.094238	-0.595947	-12.181815	8.216770	-9.396099
02557		-12.512851	3.855605	19.823602	0.467375	4.359783	0.043066	-0.933350	0.093750	-0.600098	-11.994943	10.663624	-9.905224
02558		-12.926941	8.968857	18.600223	0.414268	3.767544	0.715671	-0.903564	0.093994	-0.616211	-11.764549	12.863203	-9.952427
02559		-9.826491	2.094900	14.660491	0.204143	3.335499	0.849193	-0.878418	0.099121	-0.615234	-11.623846	14.832368	-9.864044
02560		-10.068513	-6.346047	12.668472	0.189490	3.091044	0.713685	-0.856934	0.099121	-0.625488	-11.499812	16.652827	-9.819629
02561		-7.618890	-6.442882	10.629227	0.260923	2.749861	0.392484	-0.834961	0.093018	-0.628418	-11.377699	18.240814	-9.919557
02562		-4.411410	-1.451960	10.105988	0.290971	2.686771	0.287713	-0.810547	0.096924	-0.626465	-11.257403	19.786399	-10.071248
02563		-7.045281	-1.392734	9.941762	0.447252	2.652387	0.370799	-0.786621	0.097656	-0.635254	-11.031773	21.317656	-10.165842
02564		-9.992027	-6.605465	9.630841	0.813978	2.307743	0.554190	-0.766357	0.092041	-0.634766	-10.537495	22.679814	-10.099438
02565		-6.387737	-7.101407	7.596592	1.004035	1.764773	0.723902	-0.763428	0.087891	-0.631348	-9.862772	23.747621	-9.853696
02566		-3.139225	-3.035188	7.812764	1.189276	1.788390	0.973793	-0.741699	0.084717	-0.633301	-9.007488	24.854068	-9.437496
02567		-7.921112	-0.057094	9.048059	1.161787	1.626054	1.008925	-0.733398	0.077393	-0.634766	-8.135719	25.860776	-8.962284
02568		-6.338793	-2.518628	9.081646	1.358804	1.295111	1.041097	-0.726074	0.065918	-0.636230	-7.112838	26.679685	-8.416194
02569		-10.288294	4.896896	14.327305	0.952262	0.971838	0.771599	-0.723389	0.054688	-0.639160	-6.376126	27.283976	-8.000667
02570		-7.786466	1.606867	10.092441	0.664665	0.501995	0.360011	-0.713135	0.053955	-0.623535	-5.903437	27.596458	-7.807586
02571		-5.500104	-1.162070	9.332660	0.498649	0.355888	0.240275	-0.717773	0.055664	-0.630615	-5.555682	27.812552	-7.679646
02572		-5.626693	0.589591	9.131516	0.355700	0.344581	0.157629	-0.711670	0.044434	-0.628662	-5.312699	28.022139	-7.602357
02573		-4.638522	-1.221063	10.164729	0.249530	0.212566	0.120862	-0.715576	0.046631	-0.628906	-5.138070	28.149221	-7.540568
02574		-5.863195	1.160866	9.730498	0.085329	0.135862	0.127489	-0.709961	0.044189	-0.627930	-5.052400	28.237625	-7.469154
02575		-5.352518	0.666517	9.485198	-0.023727	0.132709	0.065471	-0.708984	0.054688	-0.625488	-5.048732	28.316169	-7.438137
02576		-5.154398	-0.516247	8.953422	-0.064742	0.136443	0.029175	-0.706299	0.045166	-0.629639	-5.078917	28.399814	-7.430283
02577		-4.888644	-0.428735	9.109621	-0.100764	0.129939	0.027083	-0.708740	0.054199	-0.624512	-5.131117	28.474846	-7.424057
02578		-4.979331	-0.507878	8.849157	-0.132569	0.140325	-0.000691	-0.704834	0.051758	-0.628906	-5.209575	28.559064	-7.435980
02579		-5.110992	-0.681429	8.758940	-0.156428	0.150037	-0.031234	-0.703125	0.044922	-0.624023	-5.312477	28.642513	-7.469076
02580		-4.937048	-1.243965	8.530238	-0.140838	0.166499	-0.043769	-0.695801	0.051514	-0.631104	-5.410082	28.739220	-7.510937
02581		-4.966605	-1.067975	8.551506	-0.120904	0.176620	-0.032372	-0.705322	0.048096	-0.623779	-5.494058	28.837673	-7.546802
02582		-4.982346	-0.639026	8.677184	-0.121015	0.177741	-0.030523	-0.703857	0.056396	-0.622314	-5.576867	28.941313	-7.581177
02583		-5.046298	-0.735828	8.564719	-0.123723	0.159024	-0.036420	-0.698486	0.057861	-0.631592	-5.663490	29.029412	-7.618950
02584		-4.932575	-0.867774	8.599547	-0.117321	0.140398	-0.033609	-0.694580	0.052979	-0.624512	-5.744276	29.111404	-7.653306
02585		-5.004564	-1.064357	8.391791	-0.106606	0.135172	-0.021536	-0.698730	0.056152	-0.624023	-5.815854	29.186674	-7.680129
02586		-4.913435	-1.485175	8.279576	-0.089847	0.133511	0.008583	-0.691895	0.056641	-0.633789	-5.867467	29.267036	-7.686753
02587		-5.154229	-1.118258	8.290886	-0.057367	0.137343	0.031802	-0.689697	0.057617	-0.628662	-5.893999	29.346632	-7.679055
02588		-5.044283	-0.750639	8.432414	-0.039068	0.119887	0.041704	-0.697510	0.061035	-0.631592	-5.905567	29.421097	-7.663225
02589		-5.074279	-0.513206	8.678526	-0.037738	0.101024	0.027201	-0.685303	0.058350	-0.637451	-5.921126	29.479727	-7.656117
02590		-5.104422	-0.587296	8.621624	-0.041090	0.083288	0.016739	-0.695801	0.051758	-0.630127	-5.940650	29.531781	-7.654167
02591		-5.044025	-0.834763	8.514420	-0.038445	0.072493	0.017049	-0.695068	0.057373	-0.621338	-5.958940	29.573553	-7.651798
02592		-5.086916	-0.889819	8.415691	-0.029503	0.073983	0.013181	-0.691406	0.058105	-0.624023	-5.972674	29.620012	-7.651576
02593		-5.184568	-0.768132	8.441738	-0.018875	0.059129	0.018123	-0.686035	0.054443	-0.634521	-5.978956	29.654234	-7.647605
02594		-5.040367	-0.946658	8.393592	0.001226	0.040899	0.013104	-0.690918	0.054688	-0.622803	-5.973999	29.681768	-7.645180
02595		-5.007551	-0.991978	8.498418	0.017038	0.035052	0.026183	-0.689697	0.055420	-0.628174	-5.956260	29.702748	-7.634262
02596		-5.001480	-0.967733	8.419310	0.030355	0.026667	0.040536	-0.695068	0.056152	-0.632568	-5.925224	29.723722	-7.612861
02597		-4.874701	-1.201369	8.408522	0.062494	0.024250	0.062420	-0.682861	0.064697	-0.632568	-5.869259	29.740668	-7.577394
02598		-5.134839	-1.210724	8.235250	0.098137	0.021971	0.087195	-0.684814	0.055908	-0.630859	-5.784026	29.761564	-7.525016
02599		-5.136329	-0.866180	8.353280	0.129722	-0.008152	0.102384	-0.691895	0.053467	-0.636963	-5.675405	29.762234	-7.461102
02600		-5.194251	-0.613696	8.479129	0.142032	-0.044487	0.090592	-0.684814	0.049072	-0.628174	-5.561773	29.745207	-7.402141
02601		-4.983157	-0.860694	8.576332	0.153082	-0.056603	0.091291	-0.692627	0.053955	-0.632813	-5.441899	29.717414	-7.342464
02602		-5.033090	-0.756750	8.496944	0.172196	-0.067438	0.094661	-0.684570	0.054932	-0.636963	-5.309063	29.687234	-7.279546
02603		-4.990108	-0.492471	8.790077	0.163827	-0.068441	0.090422	-0.694824	0.043213	-0.632324	-5.183106	29.652410	-7.219906
02604		-5.085633	-0.423666	8.627146	0.147356	-0.055182	0.072686	-0.691650	0.052246	-0.627686	-5.072142	29.627794	-7.172343
02605		-5.156942	-0.263471	8.635650	0.139828	-0.074485	0.051059	-0.693604	0.043945	-0.627197	-4.972683	29.587344	-7.138388
02606		-5.173688	-0.141285	8.695516	0.119343	-0.102422	0.025585	-0.694336	0.047363	-0.630127	-4.891792	29.533246	-7.119195
02607		-5.321661	-0.162788	8.629995	0.101889	-0.121955	0.001804	-0.697021	0.047119	-0.633545	-4.828813	29.463222	-7.115069
02608		-5.304055	-0.506342	8.512794	0.090257	-0.139683	-0.023795	-0.699219	0.045410	-0.622559	-4.779555	29.385404	-7.126346
02609		-4.575752	-1.428100	8.493044	0.143517	-0.170621	-0.017729	-0.701904	0.044189	-0.620117	-4.697795	29.286659	-7.132548
02610		-4.699973	-0.901692	8.712316	0.149637	-0.153008	0.016431	-0.702637	0.041260	-0.626465	-4.601430	29.203071	-7.117043
02611		-4.697956	-0.857503	8.764879	0.152825	-0.143755	0.021433	-0.697998	0.042480	-0.626465	-4.502695	29.121471	-7.099387
02612		-4.841212	-0.824712	8.722575	0.147064	-0.127076	0.034060	-0.692139	0.043213	-0.624512	-4.403088	29.053354	-7.074064
02613		-4.984114	-0.620371	8.751868	0.144772	-0.129909	0.036849	-0.701416	0.039551	-0.625977	-4.304625	28.980281	-7.047373
02614		-4.985183	-0.355947	8.840239	0.126455	-0.118970	0.026946	-0.701660	0.040527	-0.624268	-4.219481	28.916364	-7.027405
02615		-4.968556	0.147699	8.994098	0.076887	-0.096866	0.007165	-0.706787	0.037109	-0.627930	-4.170216	28.860864	-7.021934
02616		-4.923702	-0.074769	9.001339	0.031670	-0.065655	-0.012583	-0.700928	0.035156	-0.627441	-4.153097	28.825688	-7.030421
02617		-4.868754	-0.090438	9.119797	-0.051749	-0.043564	-0.031544	-0.714111	0.042480	-0.620605	-4.190944	28.799032	-7.052760
02618		-4.973246	0.051816	9.139020	-0.137544	-0.007656	-0.056690	-0.705566	0.036865	-0.628662	-4.285896	28.795057	-7.092727
02619		-5.016457	-0.062819	9.058929	-0.221467	0.004982	-0.084290	-0.703125	0.045410	-0.624268	-4.438653	28.793771	-7.151760
02620		-4.788349	-0.304411	9.082799	-0.290332	0.006019	-0.116458	-0.705078	0.034668	-0.631348	-4.640169	28.794661	-7.231321
02621		-4.244962	-1.152181	8.821078	-0.295750	0.018917	-0.135550	-0.704834	0.051270	-0.632080	-4.851936	28.798556	-7.324497
02622		-4.025473	-1.525238	8.897465	-0.270730	0.081073	-0.127036	-0.703613	0.044189	-0.628418	-5.047639	28.841180	-7.415197
02623		-4.763278	-0.768201	8.898969	-0.266528	0.129610	-0.116012	-0.701416	0.053711	-0.631104	-5.239810	28.908678	-7.502234
02624		-4.920338	-0.357911	8.964518	-0.253932	0.146328	-0.139512	-0.705322	0.054443	-0.627686	-5.432191	28.987232	-7.605486
02625		-4.913155	-0.206278	9.027630	-0.255670	0.173559	-0.166915	-0.701660	0.048096	-0.639893	-5.636128	29.076461	-7.729158
02626		-5.092545	0.218979	9.303672	-0.277912	0.203217	-0.197886	-0.692627	0.061279	-0.635498	-5.863251	29.183393	-7.875031
02627		-3.758578	1.019605	10.361931	-0.349427	0.342275	-0.227493	-0.698242	0.053223	-0.628906	-6.146934	29.364235	-8.050995
02628		-4.223100	2.333348	11.429241	-0.614015	0.838803	-0.292874	-0.680664	0.063477	-0.627686	-6.622208	29.825474	-8.307553
02629		-5.555183	1.389209	11.561359	-1.016081	0.829302	-0.318943	-0.678955	0.070557	-0.632080	-7.342095	30.274279	-8.587688
02630		-5.359892	3.060481	11.115750	-1.540158	0.629947	-0.320044	-0.678223	0.085205	-0.633789	-8.358383	30.608814	-8.858727
02631		-4.604780	4.846650	11.779803	-1.992965	0.406035	-0.052849	-0.668945	0.102783	-0.648193	-9.538950	30.833184	-8.939471
02632		-3.325817	4.168647	12.209795	-2.760420	0.207955	0.369938	-0.666748	0.124268	-0.642334	-11.005893	30.989958	-8.723988
02633		-2.131008	4.482465	12.956149	-3.594538	0.167611	0.725539	-0.664063	0.146729	-0.642578	-12.831628	31.168869	-8.276077
02634		-3.163046	5.126215	14.399286	-4.717081	0.303203	0.936316	-0.662598	0.181396	-0.650635	-15.239988	31.468586	-7.718607
02635		-6.524725	6.222118	13.204142	-6.057561	0.234014	1.045053	-0.648682	0.238037	-0.652832	-18.381176	31.768891	-7.094877
02636		-7.558500	4.251361	12.176854	-7.612165	0.074474	1.120025	-0.644287	0.292969	-0.642822	-22.373037	32.032727	-6.405622
02637		-6.925576	3.876416	9.778509	-8.898588	-0.132350	1.207376	-0.636230	0.359863	-0.634277	-27.056291	32.251405	-5.629809
02638		-6.231498	2.875618	7.486499	-9.607833	-0.365055	1.367187	-0.638672	0.433594	-0.615967	-32.058783	32.455818	-4.702250
02639		-3.127979	-1.911152	5.395046	-9.356277	-0.680568	1.750258	-0.636230	0.517578	-0.589600	-36.749594	32.698557	-3.462530
02640		-4.766685	-9.481956	6.568828	-7.608936	-1.347092	2.641105	-0.623535	0.563232	-0.566406	-40.027321	33.032727	-1.480382
02641		-7.039902	-15.464922	10.038730	-4.104621	-2.336381	4.061738	-0.623779	0.594727	-0.556396	-40.645562	33.516435	1.674756
02642		-2.135815	-7.593303	11.367176	-1.294006	-2.841078	4.770755	-0.616699	0.604004	-0.550049	-39.280482	34.023294	5.452734
02643		0.208623	1.832291	10.758652	-0.080753	-3.074111	5.241636	-0.622803	0.601318	-0.559814	-36.975478	34.490016	9.623962
02644		1.552646	8.057556	11.075084	-0.281641	-3.052082	5.557959	-0.614258	0.600098	-0.570801	-34.631634	34.932583	14.010569
02645		0.919321	8.525402	10.714938	-1.169996	-2.998947	5.683648	-0.605957	0.612549	-0.571289	-32.724358	35.306674	18.485573
02646		0.521568	4.925401	9.247483	-1.831320	-3.055253	5.635537	-0.603760	0.617432	-0.562256	-31.158071	35.526141	22.985089
02647		1.452727	0.732235	8.224440	-1.772666	-3.130132	5.526958	-0.597656	0.627686	-0.577393	-29.571877	35.577664	27.454604
02648		1.884360	-1.407890	8.842764	-1.207509	-3.091762	5.444463	-0.584961	0.629639	-0.562500	-27.691975	35.512873	31.863966
02649		0.765323	-1.882478	10.945867	-0.582111	-3.043575	5.351759	-0.592285	0.630127	-0.582764	-25.518992	35.325126	36.183260
02650		-1.702226	-0.786270	13.389987	-0.153431	-3.209423	5.203120	-0.579102	0.621582	-0.590576	-23.156766	34.871914	40.430015
02651		-3.212469	0.697801	14.385722	-0.089279	-3.607929	4.961459	-0.583252	0.620850	-0.602295	-20.867533	34.018983	44.561893
02652		-2.982098	1.446819	13.403428	-0.254585	-3.960531	4.648267	-0.589111	0.614990	-0.601563	-18.845320	32.781462	48.485550
02653		-2.000528	1.644722	11.841914	-0.466363	-4.135904	4.335381	-0.598633	0.615723	-0.599854	-17.174567	31.294067	52.132894
02654		-1.016291	1.368772	10.739508	-0.579279	-4.080333	4.087165	-0.625244	0.624023	-0.608643	-15.785517	29.707819	55.508095
02655		-0.677610	0.857073	9.803343	-0.533738	-3.873708	3.895288	-0.638184	0.622803	-0.608887	-14.578520	28.148787	58.629537
02656		-0.017416	0.709613	8.806175	-0.335107	-3.581516	3.752874	-0.648193	0.618164	-0.612305	-13.424362	26.668506	61.537643
02657		1.141435	0.562540	7.860710	-0.051142	-3.135618	3.695328	-0.661621	0.621338	-0.606689	-12.249451	25.386023	64.275549
02658		1.930396	0.285457	8.036956	0.244638	-2.534392	3.693971	-0.671387	0.617432	-0.612793	-11.005799	24.380294	66.881542
02659		1.793139	0.307203	8.707594	0.453248	-1.829089	3.684603	-0.660156	0.612061	-0.614014	-9.733672	23.728504	69.358656
02660		0.547078	0.239927	9.670631	0.535943	-1.130829	3.602008	-0.655762	0.615234	-0.614258	-8.487517	23.404932	71.691549
02661		-0.856843	-0.658079	10.887825	0.577301	-0.545936	3.444581	-0.655273	0.606689	-0.619629	-7.291557	23.365329	73.864590
02662		-4.207254	-0.839946	12.879138	0.713729	-0.120895	3.244494	-0.628906	0.609375	-0.630127	-6.074162	23.501791	75.883119
02663		-8.998748	-1.426098	15.436981	0.988561	-0.190678	3.024696	-0.627441	0.598145	-0.637939	-4.750843	23.555981	77.772454
02664		-13.212224	-0.795365	17.712475	1.172566	-0.667571	2.824285	-0.619873	0.601807	-0.643799	-3.364278	23.277905	79.558089
02665		-14.165055	2.624510	19.430516	0.944886	-1.371892	2.603313	-0.621582	0.594482	-0.649170	-2.175621	22.564454	81.213227
02666		-14.923488	6.375684	19.407288	0.162667	-2.193301	2.331393	-0.634277	0.594238	-0.662598	-1.524349	21.341138	82.693372
02667		-13.731730	8.976465	16.343067	-1.040011	-3.059164	2.000474	-0.643311	0.612549	-0.657227	-1.672739	19.620660	83.964961
02668		-10.905150	8.604938	12.366492	-2.359350	-3.681824	1.630564	-0.668945	0.633057	-0.658691	-2.679671	17.538500	85.031433
02669		-7.522873	5.488319	8.717553	-3.205798	-3.878948	1.346177	-0.703125	0.661621	-0.648926	-4.248102	15.366325	85.970600
02670		-5.443669	2.473187	6.331624	-3.407320	-3.638978	1.110849	-0.728027	0.683594	-0.629395	-5.985674	13.337309	86.814047
02671		-4.549902	-1.225306	5.414962	-2.959031	-3.145590	0.836708	-0.750244	0.719238	-0.611816	-7.527208	11.603379	87.515308
02672		-5.045649	-4.091515	5.341868	-1.946432	-2.577039	0.551618	-0.765869	0.733398	-0.595703	-8.537364	10.176545	88.041185
02673		-6.664065	-4.819818	5.553035	-0.657166	-2.109579	0.213343	-0.778076	0.748291	-0.600830	-8.860604	8.999525	88.345754
02674		-9.703714	-4.571851	6.358358	0.548760	-1.883724	-0.134599	-0.803223	0.748047	-0.601807	-8.528454	7.912554	88.430549
02675		-12.760151	-3.015158	7.874234	1.475602	-2.010166	-0.459822	-0.824707	0.736328	-0.608887	-7.693461	6.734498	88.328068
02676		-12.643984	0.093829	6.881131	1.917273	-2.335234	-0.816058	-0.846191	0.723633	-0.619141	-6.621726	5.341644	88.026007
02677		-8.884171	2.344593	3.407928	1.960156	-2.443825	-1.084046	-0.876709	0.702637	-0.617920	-5.534139	3.882999	87.551779
02678		-5.258061	4.097460	0.553990	1.664927	-2.080417	-1.147223	-0.896729	0.694824	-0.627441	-4.606373	2.632002	86.998247
02679		-5.336167	4.308764	0.166512	1.173367	-1.349845	-1.066966	-0.913086	0.682861	-0.630859	-3.953054	1.814679	86.442568
02680		-8.216934	3.070001	0.610384	0.722719	-0.629066	-0.891831	-0.925781	0.677490	-0.635986	-3.546919	1.416838	85.952765
02681		-10.630553	1.896029	1.205540	0.442692	-0.156760	-0.662841	-0.938477	0.677246	-0.633301	-3.299659	1.304102	85.575552
02682		-11.140909	0.706739	1.700917	0.293800	0.145572	-0.483542	-0.940918	0.680176	-0.639648	-3.131747	1.368367	85.290917
02683		-8.838373	1.723645	4.289772	0.173075	0.421988	-0.396428	-0.943848	0.673096	-0.643066	-3.036307	1.597195	85.047649
02684		-10.490312	3.079133	4.261222	-0.637587	1.578388	-0.306107	-0.936279	0.678711	-0.637207	-3.403398	2.488121	84.818425
02685		-11.508418	0.777615	0.241342	-0.968921	1.825042	-0.211005	-0.920898	0.691406	-0.647461	-3.966035	3.523440	84.626950
02686		-3.957201	-2.026141	7.407139	-0.968068	1.967071	-0.216632	-0.905762	0.687988	-0.643066	-4.529066	4.637451	84.416193
02687		-5.168913	0.771103	13.229789	-1.261149	1.643492	-0.388938	-0.899902	0.703857	-0.644531	-5.276379	5.556119	84.109119
02688		-0.820962	1.201054	12.028792	-1.599203	1.307951	-0.872540	-0.898193	0.718506	-0.637695	-6.245530	6.251257	83.530617
02689		5.628501	-6.445265	5.909009	-1.611039	1.568313	-1.141006	-0.892334	0.725830	-0.640137	-7.254559	7.066171	82.767309
02690		3.459931	-11.236235	4.629902	-1.413214	2.401717	-0.696480	-0.867920	0.732422	-0.631104	-8.136882	8.375658	82.179546
02691		-2.763771	-7.818475	9.901155	-0.974139	2.913728	-0.528847	-0.856934	0.743896	-0.625244	-8.781144	9.981677	81.623841
02692		-3.189611	-4.766601	10.915261	-0.787286	3.134618	-0.641074	-0.829590	0.739014	-0.635010	-9.351182	11.696375	80.963622
02693		-3.446331	-1.867315	11.164045	-0.432753	3.465016	-0.385133	-0.806152	0.749268	-0.637695	-9.720066	13.616952	80.400145
02694		-7.116198	2.765150	13.636835	-0.129729	3.403575	0.069990	-0.783203	0.751709	-0.646240	-9.866081	15.544593	80.095559
02695		-9.686279	3.114627	14.739544	-0.176812	3.046875	0.257298	-0.761475	0.756348	-0.650391	-10.011794	17.288788	79.929387
02696		-10.681650	-1.760925	13.378109	-0.020239	2.558661	0.363844	-0.743896	0.752441	-0.645996	-10.034694	18.768451	79.874619
02697		-8.272723	-5.613527	10.652566	0.189043	2.086434	0.454397	-0.723877	0.760498	-0.663330	-9.907581	19.990129	79.923513
02698		-5.815917	-6.856409	9.133841	0.428937	1.964079	0.369035	-0.712891	0.746826	-0.662109	-9.650766	21.135483	79.939621
02699		-6.617834	-4.561217	9.454269	0.645737	1.860450	0.420890	-0.683105	0.744141	-0.664063	-9.254547	22.225818	80.003655
02700		-7.821354	-1.129295	10.748011	0.719537	1.562388	0.455192	-0.672363	0.742432	-0.676514	-8.789416	23.151620	80.128212
02701		-7.809854	0.145293	10.692358	0.653991	1.203486	0.465515	-0.659180	0.730469	-0.676758	-8.343516	23.872500	80.300203
02702		-6.446238	-0.848874	10.152340	0.584984	0.910986	0.409792	-0.649658	0.727051	-0.678223	-7.933296	24.423700	80.471581
02703		-5.718961	-1.796418	9.413736	0.535810	0.730531	0.383595	-0.638672	0.737305	-0.687744	-7.551208	24.867401	80.645486
02704		-6.179064	-1.750886	9.571443	0.513694	0.580262	0.356287	-0.630371	0.722412	-0.685791	-7.178255	25.224790	80.819571
02705		-6.180565	-0.655996	9.835686	0.469804	0.376409	0.321044	-0.632080	0.714600	-0.690674	-6.834078	25.460671	80.988783
02706		-5.232398	0.541020	9.873875	0.414891	0.229056	0.275463	-0.629395	0.713379	-0.692627	-6.524843	25.611104	81.143264
02707		-4.634383	-0.061896	9.411095	0.357938	0.201026	0.224597	-0.625732	0.706299	-0.687988	-6.263485	25.739322	81.267216
02708		-4.445182	-0.765693	9.236697	0.309857	0.201197	0.185404	-0.618652	0.705811	-0.699463	-6.036723	25.867105	81.368584
02709		-4.428858	-0.242347	9.291067	0.261316	0.202725	0.163880	-0.619385	0.708252	-0.689453	-5.846496	25.991804	81.455338
02710		-4.423106	-0.229303	9.154532	0.230163	0.209112	0.145329	-0.617920	0.710449	-0.695313	-5.675794	26.121161	81.531980
02711		-3.980982	-0.565053	8.893811	0.204252	0.234371	0.139543	-0.612305	0.706055	-0.697021	-5.525151	26.262077	81.602316
