// General information: 
//  MT Manager version: 2022.2.0 
//  XDA version: 2022.2.0 build 7381 rev 124627 built on 2023-07-19
// Device information: 
//  DeviceId: 00B4C3A0
//  ProductCode: MTW2-3A7G6
//  Firmware Version: 4.6.0
//  Hardware Version: 2.0.0
// Device settings: 
//  Filter Profile: human(46.1)
//  Option Flags: Orientation Smoother Disabled, Position/Velocity Smoother Disabled, Continuous Zero Rotation Update Disabled, AHS Disabled, ICC Disabled
// Coordinate system: ENU
PacketCounter	SampleTimeFine	Acc_X	Acc_Y	Acc_Z	Gyr_X	Gyr_Y	Gyr_Z	Mag_X	Mag_Y	Mag_Z	Roll	Pitch	Yaw
63349		9.630382	-0.022789	1.650808	0.018106	0.026924	0.001475	-0.517090	-0.161865	0.549805	3.540483	-82.092419	155.711257
63350		9.587053	-0.016850	1.611973	0.016745	0.023277	-0.000407	-0.516602	-0.162842	0.548096	3.543087	-82.075872	155.723439
63351		9.620113	-0.016272	1.622788	0.003883	0.022149	0.000700	-0.510742	-0.159668	0.550049	3.546346	-82.065028	155.726214
63352		9.626442	-0.039921	1.600115	-0.001200	0.017348	0.006523	-0.509033	-0.160645	0.543701	3.511745	-82.052150	155.765987
63353		9.603381	0.012168	1.618339	0.001688	0.018257	0.007792	-0.507324	-0.165283	0.544922	3.485757	-82.043779	155.797026
63354		9.619139	-0.076223	1.562370	-0.001431	0.017589	0.000945	-0.513428	-0.164307	0.532959	3.474414	-82.030629	155.812654
63355		9.624428	-0.041912	1.678606	-0.013164	0.020350	-0.001650	-0.512695	-0.162354	0.553467	3.478054	-82.020731	155.805183
63356		9.635863	0.012087	1.632562	-0.011571	0.021493	-0.002562	-0.510254	-0.155029	0.542725	3.474001	-82.005146	155.807520
63357		9.602089	0.011493	1.625992	-0.018655	0.022181	0.001079	-0.513184	-0.163818	0.547607	3.462924	-81.994296	155.811733
63358		9.625789	0.017633	1.603696	-0.028366	0.012375	-0.000284	-0.516846	-0.165771	0.542725	3.442168	-81.984065	155.821810
63359		9.611043	-0.054113	1.595590	-0.030113	0.010546	0.002168	-0.517090	-0.163086	0.542725	3.422992	-81.979907	155.827572
63360		9.610863	-0.054724	1.596655	-0.019613	0.011903	0.002285	-0.517578	-0.165527	0.540039	3.396992	-81.969942	155.847347
63361		9.602819	-0.091287	1.629605	-0.010768	0.008232	0.003613	-0.514893	-0.175781	0.553223	3.383630	-81.967155	155.858431
63362		9.605396	-0.133081	1.621944	0.000412	0.011411	0.004674	-0.510498	-0.166504	0.543213	3.360003	-81.957637	155.886894
63363		9.626483	-0.085653	1.607556	-0.001862	0.008445	0.004642	-0.514160	-0.158936	0.551025	3.347561	-81.954763	155.902204
63364		9.630269	-0.068320	1.592497	0.008099	0.010928	0.010643	-0.512207	-0.163574	0.551514	3.304163	-81.945798	155.956021
63365		9.599421	-0.052258	1.641972	0.007045	0.008657	0.005671	-0.516846	-0.164551	0.541992	3.292657	-81.942834	155.975540
63366		9.603256	-0.035220	1.626645	0.005220	0.005206	0.016791	-0.513916	-0.160889	0.550537	3.224198	-81.937309	156.052814
63367		9.624444	0.011164	1.611803	0.000119	0.005219	0.015184	-0.514404	-0.171631	0.541748	3.171139	-81.936611	156.110293
63368		9.628327	0.027737	1.596288	-0.001326	0.004767	0.014547	-0.511963	-0.156738	0.540527	3.108414	-81.931265	156.177669
63369		9.610946	-0.003368	1.595973	-0.006186	0.002273	0.010151	-0.511230	-0.159424	0.542725	3.072742	-81.932082	156.213938
63370		9.570826	0.018456	1.612057	-0.015093	0.002064	0.009119	-0.506836	-0.158203	0.544434	3.024458	-81.928106	156.259443
63371		9.604245	0.017698	1.620709	-0.023298	-0.003400	0.008084	-0.519531	-0.158936	0.547852	2.988523	-81.932099	156.286077
63372		9.589667	0.004265	1.677089	-0.021623	-0.000637	-0.001490	-0.522949	-0.165039	0.547363	2.979898	-81.929383	156.287931
63373		9.603017	-0.042639	1.627875	-0.021097	0.000498	0.000995	-0.511963	-0.158936	0.545654	2.973001	-81.930933	156.286510
63374		9.582965	-0.031333	1.635885	-0.012412	0.000950	-0.003548	-0.506348	-0.159912	0.544189	2.977582	-81.927193	156.280016
63375		9.612411	-0.048756	1.660541	-0.007072	-0.001571	-0.004730	-0.522705	-0.158447	0.547363	3.002259	-81.929755	156.254822
63376		9.605731	-0.083806	1.619210	-0.009827	0.000475	0.000815	-0.513428	-0.159668	0.548584	2.990828	-81.926471	156.266269
63377		9.639118	-0.083869	1.628025	-0.011663	0.001840	0.004512	-0.512451	-0.159668	0.550537	2.974865	-81.927357	156.279464
63378		9.569554	-0.043898	1.619467	-0.004966	0.002966	0.005213	-0.518311	-0.164063	0.548096	2.948078	-81.922861	156.309354
63379		9.595060	-0.079956	1.659893	0.004973	-0.007786	0.002206	-0.512451	-0.161621	0.546875	2.952949	-81.929186	156.311134
63380		9.620480	-0.014182	1.627784	0.013052	-0.010093	0.003842	-0.505371	-0.163086	0.541260	2.944753	-81.932072	156.332197
63381		9.647351	0.009136	1.660335	-0.000519	-0.005953	0.004933	-0.516602	-0.159912	0.543213	2.935075	-81.937428	156.345493
63382		9.621921	-0.013850	1.553303	-0.003872	-0.004107	0.000873	-0.511230	-0.165039	0.548584	2.928127	-81.936833	156.355321
63383		9.651388	-0.031459	1.577829	0.003960	0.000911	-0.002119	-0.520752	-0.158691	0.546387	2.948070	-81.938055	156.341292
63384		9.655313	-0.013204	1.562120	0.000216	0.004574	-0.001844	-0.509033	-0.162842	0.544189	2.952412	-81.932395	156.342333
63385		9.639117	0.016265	1.554873	-0.014888	0.011457	-0.000144	-0.517578	-0.156982	0.546631	2.951382	-81.927640	156.338581
63386		9.677755	-0.007767	1.613409	-0.006594	0.013725	-0.000352	-0.513428	-0.162109	0.545654	2.944005	-81.916835	156.347606
63387		9.676250	-0.067314	1.622134	-0.004623	0.015311	0.002771	-0.507324	-0.161133	0.542969	2.936317	-81.909960	156.356518
63388		9.707927	-0.024647	1.568028	0.005724	0.020789	-0.002976	-0.510986	-0.156494	0.546631	2.945381	-81.895099	156.355792
63389		9.659513	-0.037777	1.618122	0.002878	0.026032	0.003813	-0.506836	-0.161865	0.551514	2.935621	-81.882120	156.371138
63390		9.577610	-0.051634	1.659814	-0.000101	0.028325	0.003781	-0.512939	-0.159912	0.540283	2.912756	-81.863238	156.399799
63391		9.583917	-0.075012	1.637447	0.002528	0.018508	-0.001165	-0.508789	-0.162598	0.550781	2.924333	-81.854419	156.393390
63392		9.567677	-0.045260	1.630483	0.001135	0.003893	-0.003692	-0.510742	-0.160889	0.551025	2.937103	-81.849247	156.386349
63393		9.591675	-0.038310	1.606841	-0.004795	0.001396	-0.004700	-0.516602	-0.159668	0.550049	2.962091	-81.850115	156.362154
63394		9.633005	-0.001796	1.583938	-0.009765	0.004362	0.000508	-0.509766	-0.162598	0.546875	2.951536	-81.844811	156.372749
63395		9.619570	-0.013950	1.567794	-0.010007	0.006869	0.003297	-0.519531	-0.158936	0.547852	2.940466	-81.842783	156.381963
63396		9.611502	-0.050209	1.600234	-0.005037	0.003902	-0.001911	-0.511230	-0.154297	0.543701	2.942392	-81.837641	156.382466
63397		9.574083	-0.068688	1.607622	-0.006173	0.000009	0.001781	-0.509766	-0.163574	0.545410	2.940983	-81.839494	156.384139
63398		9.567338	-0.045547	1.632465	-0.002148	0.004806	-0.000635	-0.515625	-0.165771	0.545166	2.939428	-81.833936	156.389858
63399		9.563275	-0.063652	1.648829	0.001355	0.003648	0.001883	-0.514648	-0.163818	0.548096	2.941177	-81.833709	156.392698
63400		9.604634	-0.027294	1.625802	0.002211	-0.000920	0.000335	-0.518799	-0.153564	0.550781	2.939457	-81.831412	156.400565
63401		9.618034	-0.015687	1.642160	-0.005622	-0.005939	0.003321	-0.513916	-0.162109	0.544434	2.933437	-81.836714	156.407217
63402		9.619497	-0.015184	1.568233	-0.010261	-0.008674	0.004494	-0.513428	-0.156006	0.543945	2.909199	-81.838966	156.431458
63403		9.619613	-0.015399	1.567519	-0.007286	-0.006144	-0.002893	-0.519287	-0.159424	0.546143	2.927050	-81.844202	156.413030
63404		9.629076	-0.021601	1.599515	0.001318	-0.007320	0.001236	-0.520508	-0.163086	0.548340	2.922187	-81.845577	156.424264
63405		9.635878	-0.044884	1.574266	-0.000741	-0.005709	-0.000643	-0.516357	-0.165283	0.540771	2.934732	-81.850631	156.414985
63406		9.634658	-0.103989	1.581195	0.000394	-0.001815	-0.004334	-0.513184	-0.162109	0.542480	2.950669	-81.848675	156.403898
63407		9.653343	-0.072626	1.508595	0.010901	-0.000469	-0.004200	-0.516357	-0.155273	0.543457	2.983038	-81.850623	156.381332
63408		9.615912	-0.090443	1.516122	0.014683	0.006834	-0.003826	-0.515381	-0.160889	0.543945	3.003263	-81.843800	156.374691
63409		9.635830	-0.101406	1.509060	0.017482	0.010934	-0.001306	-0.516846	-0.159424	0.554443	3.025440	-81.839308	156.366229
63410		9.645037	-0.107345	1.542668	0.014287	0.008651	0.000506	-0.519287	-0.159668	0.539795	3.027740	-81.831638	156.377599
63411		9.626173	-0.094888	1.478375	0.024396	0.011816	0.004972	-0.511719	-0.164307	0.547363	3.028656	-81.826831	156.394619
63412		9.648649	-0.089602	1.529080	0.029928	0.016133	0.010310	-0.506348	-0.162842	0.547607	2.999485	-81.815162	156.446283
63413		9.644280	-0.049642	1.612697	0.028698	0.020258	0.007823	-0.515137	-0.156982	0.547607	2.989835	-81.805608	156.476469
63414		9.687934	0.003822	1.648919	0.033639	0.024374	0.003553	-0.518311	-0.158203	0.543945	2.988301	-81.789170	156.502720
63415		9.651403	0.044941	1.651254	0.029891	0.028042	0.003817	-0.510742	-0.161865	0.546387	2.993701	-81.775044	156.518393
63416		9.668291	0.074771	1.654610	0.013369	0.027393	0.003916	-0.512939	-0.151855	0.550537	2.978501	-81.756810	156.546552
63417		9.645186	0.068892	1.608043	-0.000726	0.030398	0.002500	-0.517578	-0.158691	0.545410	2.971163	-81.741295	156.557371
63418		9.688652	0.020688	1.716917	0.006671	0.026268	0.003207	-0.514404	-0.156982	0.540527	2.955168	-81.723712	156.583142
63419		9.639991	0.007347	1.767315	-0.002326	0.029260	0.003402	-0.513428	-0.156006	0.543945	2.943690	-81.708874	156.597220
63420		9.643572	0.024889	1.753809	-0.008471	0.022185	0.004242	-0.513428	-0.153564	0.548340	2.916133	-81.693643	156.625443
63421		9.617916	0.060053	1.714984	-0.022380	0.018796	0.000339	-0.516846	-0.162598	0.542480	2.907359	-81.684702	156.625177
63422		9.597793	0.012504	1.658540	-0.020543	0.012612	0.004071	-0.515381	-0.158936	0.541504	2.875648	-81.674965	156.650613
63423		9.542829	-0.036153	1.666091	-0.019988	0.011482	-0.001806	-0.521729	-0.157227	0.545166	2.878104	-81.670148	156.640382
63424		9.520101	-0.041998	1.617647	-0.017165	0.008500	-0.000224	-0.517822	-0.151855	0.540283	2.865809	-81.662569	156.648088
63425		9.566899	-0.088462	1.577965	-0.009766	0.004366	0.000491	-0.518311	-0.160889	0.550049	2.866538	-81.661890	156.645523
63426		9.596155	-0.106121	1.603188	-0.001226	0.004125	-0.002489	-0.513428	-0.153809	0.539795	2.873028	-81.656797	156.643779
63427		9.610917	-0.093308	1.547300	0.008107	0.008664	0.002288	-0.511230	-0.161377	0.548096	2.876137	-81.653710	156.649157
63428		9.617282	-0.058193	1.589601	0.010534	0.012321	0.000777	-0.516602	-0.159424	0.544678	2.875383	-81.644148	156.661274
63429		9.614373	-0.016745	1.599332	0.020206	0.011154	0.001528	-0.506348	-0.161377	0.546631	2.887905	-81.639615	156.664145
63430		9.610106	-0.034815	1.616578	0.016823	0.015268	0.005817	-0.517822	-0.154785	0.545166	2.870788	-81.628570	156.696168
63431		9.616395	0.000079	1.659188	0.018358	0.012523	0.005216	-0.517090	-0.161377	0.548340	2.867657	-81.623359	156.713789
63432		9.582831	-0.000470	1.651470	0.020567	0.011603	0.005554	-0.514893	-0.159668	0.549072	2.854127	-81.614304	156.744697
63433		9.616034	-0.000324	1.661277	0.020504	0.007716	0.005860	-0.514404	-0.157227	0.550537	2.850696	-81.611861	156.763867
63434		9.613221	0.040719	1.670397	0.012981	0.004076	0.005753	-0.516602	-0.154297	0.542480	2.833789	-81.607222	156.793848
63435		9.609061	0.022360	1.686926	0.007793	0.007290	0.005372	-0.521729	-0.156006	0.548340	2.825067	-81.605008	156.811003
63436		9.577009	0.080928	1.670875	-0.004119	-0.001598	0.003657	-0.512207	-0.157227	0.541748	2.807295	-81.603426	156.832109
63437		9.575697	0.021338	1.678064	-0.007523	-0.003641	-0.000105	-0.520264	-0.150146	0.537109	2.813127	-81.607313	156.825683
63438		9.610781	0.022262	1.613151	-0.011549	-0.008438	0.002313	-0.514404	-0.156250	0.543945	2.797781	-81.609623	156.839844
63439		9.626943	-0.007557	1.620362	-0.015109	-0.011169	0.000095	-0.512695	-0.159668	0.546387	2.799916	-81.617823	156.832762
63440		9.609711	-0.037559	1.618862	-0.019312	-0.004751	-0.002437	-0.510498	-0.153809	0.545654	2.798205	-81.618023	156.828420
63441		9.601644	-0.073771	1.650449	-0.021003	-0.002692	-0.000293	-0.520264	-0.163574	0.551514	2.796866	-81.621361	156.821436
63442		9.612530	-0.079192	1.609623	-0.021368	-0.003139	-0.004324	-0.513428	-0.158691	0.540771	2.800908	-81.620594	156.810214
63443		9.612620	-0.079076	1.609086	-0.015413	-0.007727	-0.004246	-0.515137	-0.158447	0.549561	2.819103	-81.626702	156.786724
63444		9.636625	-0.014095	1.650401	-0.011240	-0.007059	-0.000782	-0.515137	-0.159668	0.549805	2.815971	-81.628283	156.788451
63445		9.600623	0.026566	1.649698	-0.021929	-0.002007	0.001550	-0.523193	-0.150146	0.548584	2.806816	-81.631280	156.788830
63446		9.600641	0.026187	1.649599	-0.020177	-0.000175	-0.000901	-0.514893	-0.155273	0.545166	2.797296	-81.628858	156.792552
63447		9.620710	0.014391	1.641743	-0.022544	0.000057	0.000303	-0.514893	-0.160400	0.553711	2.792240	-81.630639	156.788433
63448		9.634015	0.025664	1.658436	-0.026510	-0.000852	0.002411	-0.520752	-0.157715	0.542480	2.766739	-81.628810	156.804277
63449		9.654141	0.013565	1.650247	-0.030903	-0.006094	0.000792	-0.520996	-0.157471	0.547363	2.756139	-81.634126	156.800921
63450		9.643655	-0.040022	1.624238	-0.029982	-0.006775	-0.001056	-0.519287	-0.162109	0.548584	2.742922	-81.635428	156.802187
63451		9.685459	-0.062411	1.534701	-0.019112	-0.004988	0.003124	-0.521973	-0.158203	0.547363	2.729777	-81.640175	156.808231
63452		9.670651	-0.075982	1.590720	-0.014938	-0.004324	0.006589	-0.518555	-0.160400	0.549316	2.695054	-81.640341	156.839823
63453		9.626441	-0.072332	1.622481	-0.018505	0.006182	0.013368	-0.511719	-0.152100	0.554199	2.640294	-81.638966	156.888281
63454		9.590299	-0.032743	1.622701	-0.022589	0.002324	0.008657	-0.512451	-0.158691	0.549561	2.592096	-81.635544	156.929706
63455		9.597875	-0.041321	1.729055	-0.023295	0.007586	0.008657	-0.514404	-0.160645	0.542969	2.552728	-81.633233	156.959834
63456		9.601835	-0.024299	1.713701	-0.017026	0.004377	0.005644	-0.518066	-0.156250	0.543213	2.519408	-81.628555	156.988703
63457		9.603189	0.034433	1.706620	-0.018131	-0.001776	0.000970	-0.512695	-0.165771	0.547119	2.514538	-81.631405	156.986953
63458		9.580741	0.028402	1.656666	-0.024437	-0.009538	0.003334	-0.511230	-0.164307	0.541992	2.488313	-81.634588	157.004161
63459		9.584948	0.045835	1.639952	-0.030150	-0.007449	0.000468	-0.512939	-0.165283	0.548096	2.479458	-81.640674	156.999479
63460		9.606224	-0.008764	1.695944	-0.030400	-0.004943	0.003255	-0.513916	-0.154785	0.536621	2.449709	-81.641313	157.016317
63461		9.570481	-0.026903	1.629058	-0.034433	-0.009739	0.005655	-0.513916	-0.157471	0.545410	2.418531	-81.648836	157.031716
63462		9.604022	-0.027452	1.636897	-0.030221	-0.011331	0.000757	-0.506592	-0.158447	0.549805	2.399183	-81.652985	157.039036
63463		9.637565	-0.027664	1.644731	-0.032280	-0.009713	-0.001127	-0.511475	-0.159668	0.552490	2.395655	-81.660329	157.027736
63464		9.657773	-0.039611	1.635913	-0.024291	-0.008839	0.001777	-0.516113	-0.158447	0.545410	2.375677	-81.663299	157.039331
63465		9.604460	-0.028915	1.634299	-0.021860	-0.005181	0.000277	-0.515381	-0.164307	0.551270	2.371887	-81.668083	157.034329
63466		9.641945	-0.010947	1.626953	-0.016695	-0.001319	0.001605	-0.513184	-0.160645	0.551514	2.355406	-81.666576	157.046412
63467		9.637967	-0.029487	1.642344	-0.020482	-0.008619	0.001210	-0.506104	-0.160400	0.550537	2.349299	-81.673350	157.044550
63468		9.646153	0.006088	1.610188	-0.018543	0.000042	0.005296	-0.515381	-0.160156	0.544434	2.317437	-81.671326	157.071331
63469		9.591297	-0.042920	1.616556	-0.019247	0.005303	0.005306	-0.507080	-0.167236	0.539551	2.293793	-81.670225	157.087909
63470		9.611294	-0.055029	1.608938	-0.018234	0.001430	0.002209	-0.517090	-0.148926	0.545166	2.274058	-81.667226	157.101714
63471		9.604560	-0.032172	1.633650	-0.015619	-0.001302	-0.001787	-0.513672	-0.158203	0.550781	2.281257	-81.669744	157.089219
63472		9.624648	-0.043600	1.625507	-0.012484	-0.002906	-0.003295	-0.514648	-0.163818	0.543213	2.286323	-81.669062	157.082954
63473		9.648795	-0.036849	1.601517	-0.011807	-0.001085	-0.002349	-0.517090	-0.159668	0.556885	2.297874	-81.671441	157.068269
63474		9.659533	-0.041996	1.561272	-0.013525	0.008050	0.000760	-0.513916	-0.157227	0.551270	2.285098	-81.664617	157.078534
63475		9.624479	-0.044160	1.626495	-0.013927	0.009857	0.005095	-0.516846	-0.164795	0.543945	2.264639	-81.660902	157.094974
63476		9.637615	-0.032897	1.644340	-0.009647	0.012156	-0.000092	-0.510498	-0.159424	0.539795	2.256833	-81.651711	157.102411
63477		9.624132	-0.044927	1.628526	-0.010792	0.008253	0.003586	-0.513672	-0.159668	0.538574	2.244335	-81.648880	157.112620
63478		9.650642	-0.021948	1.662809	-0.009100	0.006201	0.001436	-0.514893	-0.167725	0.547363	2.231999	-81.643142	157.124621
63479		9.625290	0.013819	1.622965	-0.009713	0.008269	0.000198	-0.515869	-0.149170	0.546143	2.233337	-81.640224	157.121471
63480		9.596937	-0.011144	1.663494	-0.008880	0.010785	-0.000397	-0.517822	-0.163818	0.542725	2.227364	-81.631832	157.127783
63481		9.619486	-0.063866	1.647725	-0.008725	0.011480	-0.001939	-0.512207	-0.161377	0.549316	2.237091	-81.627029	157.116726
63482		9.623360	-0.045676	1.633056	-0.014597	0.012884	-0.003263	-0.505859	-0.162354	0.551270	2.238888	-81.617394	157.111311
63483		9.623207	-0.045766	1.633959	-0.023124	0.006047	-0.001265	-0.520020	-0.161133	0.538086	2.238548	-81.615716	157.102090
63484		9.643143	-0.057550	1.626749	-0.018113	0.009211	0.001614	-0.517334	-0.161621	0.547363	2.220043	-81.608344	157.115190
63485		9.633814	-0.051566	1.594703	-0.022670	0.003286	0.001512	-0.517090	-0.154297	0.543701	2.209599	-81.608310	157.116446
63486		9.638869	-0.076848	1.643680	-0.013323	0.007790	0.006325	-0.517578	-0.154297	0.547607	2.175398	-81.601773	157.148770
63487		9.606771	-0.018415	1.628699	-0.018272	0.008518	0.003154	-0.516846	-0.160156	0.547852	2.160339	-81.598778	157.157237
63488		9.649241	-0.025469	1.670870	-0.017973	0.005059	0.007473	-0.519287	-0.160889	0.545898	2.119471	-81.593863	157.193833
63489		9.621501	-0.007074	1.573470	-0.011424	0.005474	0.009746	-0.507568	-0.155273	0.544434	2.083255	-81.592748	157.227654
63490		9.639001	-0.036102	1.508766	-0.008221	0.007759	0.007953	-0.511963	-0.163818	0.546387	2.046107	-81.586374	157.265845
63491		9.648065	-0.043589	1.542311	-0.015789	0.011218	0.008775	-0.520752	-0.157227	0.544434	2.010407	-81.581944	157.296617
63492		9.630238	-0.016544	1.608952	-0.020673	0.015838	0.005314	-0.522217	-0.161865	0.545654	1.975310	-81.570848	157.325246
63493		9.636756	-0.040272	1.585633	-0.018823	0.014483	0.001623	-0.516113	-0.163818	0.549561	1.965158	-81.564403	157.328436
63494		9.632401	-0.059084	1.602955	-0.012523	0.017393	0.006694	-0.509521	-0.160889	0.542236	1.929283	-81.552422	157.362450
63495		9.618563	-0.013527	1.654284	-0.017157	0.019517	0.000437	-0.512451	-0.162598	0.549316	1.924041	-81.543070	157.361640
63496		9.625061	-0.037026	1.631101	-0.024088	0.013826	0.001524	-0.516113	-0.162354	0.550049	1.902482	-81.533226	157.374457
63497		9.562274	-0.019805	1.598585	-0.025599	0.009491	0.001163	-0.518311	-0.156006	0.550537	1.890919	-81.529630	157.375147
63498		9.587253	-0.056565	1.639952	-0.024313	0.009241	0.003348	-0.518799	-0.163330	0.541992	1.862390	-81.522356	157.395550
63499		9.587169	-0.057388	1.640418	-0.024601	0.000765	0.005459	-0.515137	-0.152588	0.537598	1.835996	-81.523836	157.411814
63500		9.608932	-0.068013	1.559359	-0.028262	0.001249	0.004468	-0.514648	-0.161377	0.541992	1.801918	-81.521071	157.435087
63501		9.584726	-0.075612	1.583193	-0.023000	0.001910	0.004562	-0.514160	-0.160156	0.552490	1.779741	-81.521877	157.448015
63502		9.613008	-0.051583	1.543772	-0.022548	-0.000858	0.007336	-0.511719	-0.157715	0.544922	1.738435	-81.520528	157.481990
63503		9.604794	-0.088774	1.575129	-0.016876	-0.001997	0.003095	-0.510498	-0.166016	0.546143	1.725848	-81.523544	157.488770
63504		9.588898	-0.059626	1.567001	-0.011520	-0.004531	0.001935	-0.511475	-0.157959	0.543701	1.712276	-81.524283	157.500830
63505		9.588960	-0.060032	1.566603	-0.008629	-0.003641	0.003229	-0.510742	-0.155518	0.538574	1.704078	-81.528243	157.507950
63506		9.633241	-0.065252	1.534676	-0.006665	-0.002075	0.006368	-0.518066	-0.157959	0.546143	1.675748	-81.527612	157.538126
63507		9.619755	-0.020027	1.584001	-0.011318	-0.004804	0.007505	-0.509033	-0.165527	0.545654	1.649666	-81.532308	157.561768
63508		9.624853	-0.045798	1.632101	-0.013626	-0.000682	0.008420	-0.518555	-0.160889	0.547852	1.609380	-81.530924	157.599659
63509		9.628968	-0.028555	1.616366	-0.015683	0.000946	0.006537	-0.508545	-0.162354	0.550781	1.583864	-81.532307	157.620201
63510		9.644903	-0.059080	1.624133	-0.020180	-0.001084	0.006134	-0.512695	-0.159668	0.547852	1.548674	-81.531160	157.649359
63511		9.635743	-0.053201	1.591399	-0.019095	-0.001061	0.002749	-0.511963	-0.161865	0.546875	1.535975	-81.533632	157.654966
63512		9.611604	-0.060386	1.614849	-0.011365	-0.003829	0.000391	-0.511230	-0.160400	0.544678	1.528256	-81.533988	157.661440
63513		9.620834	-0.067281	1.647135	-0.008474	-0.002941	0.001686	-0.518555	-0.163330	0.544434	1.525921	-81.537520	157.662722
63514		9.574221	-0.079487	1.621078	-0.011774	-0.002033	0.004727	-0.515137	-0.165527	0.543701	1.501000	-81.536835	157.686068
63515		9.598413	-0.073165	1.597269	-0.015120	-0.000149	0.000658	-0.511719	-0.164063	0.540039	1.498518	-81.538752	157.683649
63516		9.633236	-0.014034	1.599703	-0.015370	0.002344	0.003456	-0.515625	-0.162598	0.546631	1.476214	-81.535567	157.701723
63517		9.604895	-0.039712	1.639347	-0.017744	0.002577	0.004652	-0.519775	-0.157227	0.548340	1.456580	-81.535981	157.715124
63518		9.638233	-0.040128	1.648348	-0.020387	-0.000803	0.000557	-0.520020	-0.165527	0.540527	1.442429	-81.534516	157.723055
63519		9.640891	-0.081712	1.639012	-0.015957	-0.002663	0.001241	-0.511475	-0.163574	0.541260	1.437455	-81.537882	157.722671
63520		9.635875	-0.057062	1.590468	-0.011979	-0.001753	-0.000847	-0.510498	-0.168457	0.544189	1.433961	-81.536939	157.723707
63521		9.646765	-0.062159	1.549790	-0.007279	-0.000004	0.005129	-0.509033	-0.164307	0.545410	1.418729	-81.538837	157.738720
63522		9.640005	-0.040126	1.574686	-0.013113	0.000436	0.010905	-0.519775	-0.165039	0.540527	1.369569	-81.537011	157.785225
63523		9.595742	-0.036657	1.606523	-0.013566	0.003209	0.008133	-0.516357	-0.162109	0.548828	1.338863	-81.537107	157.812241
63524		9.615750	-0.048707	1.598781	-0.010626	0.001884	0.001060	-0.506836	-0.161133	0.542969	1.328337	-81.534120	157.821550
63525		9.594172	-0.097066	1.613371	-0.008569	0.000253	0.002940	-0.504883	-0.167969	0.541992	1.320748	-81.535837	157.828088
63526		9.598302	-0.079211	1.597646	-0.011462	-0.000632	0.001643	-0.514893	-0.157227	0.549561	1.308487	-81.534591	157.838303
63527		9.604860	-0.045156	1.639412	-0.012390	0.000043	0.003488	-0.505615	-0.155762	0.549805	1.296617	-81.536436	157.846957
63528		9.622292	-0.015917	1.640627	-0.012390	0.000043	0.003487	-0.510986	-0.158447	0.554688	1.276034	-81.534792	157.866549
63529		9.624935	-0.057735	1.631244	-0.014832	-0.003615	0.004960	-0.515137	-0.156006	0.548340	1.257399	-81.538750	157.880628
63530		9.595787	-0.040269	1.606168	-0.016957	-0.005873	0.003355	-0.511719	-0.165527	0.539795	1.235092	-81.540453	157.899351
63531		9.627506	-0.042553	1.687901	-0.020914	-0.001909	-0.001945	-0.505859	-0.155762	0.548584	1.239404	-81.543348	157.886708
63532		9.633410	-0.022778	1.598554	-0.018722	-0.007715	0.005780	-0.510986	-0.164551	0.547607	1.207310	-81.546174	157.913386
63533		9.596056	-0.041883	1.604515	-0.019243	-0.008830	0.003285	-0.516113	-0.158936	0.546143	1.192971	-81.553097	157.920566
63534		9.620401	-0.035483	1.579802	-0.009293	-0.012532	0.001269	-0.510010	-0.173096	0.543213	1.183809	-81.558551	157.929596
63535		9.645696	-0.072216	1.618885	-0.015332	-0.011809	0.001474	-0.514404	-0.162354	0.551758	1.178917	-81.567159	157.929492
63536		9.663305	-0.042876	1.619112	-0.016870	-0.009060	0.002088	-0.515381	-0.158203	0.543945	1.162317	-81.570692	157.940914
63537		9.660963	-0.059517	1.560827	-0.010923	-0.006593	0.003145	-0.511230	-0.163818	0.555176	1.153056	-81.576331	157.947779
63538		9.646068	-0.073457	1.616613	-0.015039	-0.003327	-0.000613	-0.510986	-0.157959	0.548340	1.147111	-81.576543	157.950485
63539		9.630203	-0.044181	1.608635	-0.011014	-0.003403	0.004408	-0.517822	-0.161865	0.544189	1.132649	-81.580369	157.962556
63540		9.646135	-0.074136	1.616178	-0.005880	0.001424	-0.001332	-0.510010	-0.169189	0.549072	1.134270	-81.577797	157.962866
63541		9.606013	-0.051184	1.632466	-0.002669	0.003708	-0.003109	-0.514160	-0.156006	0.545166	1.153124	-81.577463	157.946091
63542		9.623362	-0.021222	1.634280	-0.004976	0.007831	-0.002186	-0.508545	-0.161133	0.541504	1.158333	-81.571293	157.942981
63543		9.603331	-0.067227	1.576224	-0.009884	0.007594	0.001743	-0.514648	-0.158447	0.550781	1.153979	-81.568788	157.945488
63544		9.576475	-0.033166	1.609696	-0.009024	0.003031	0.000171	-0.516602	-0.158691	0.550049	1.148057	-81.565406	157.951577
63545		9.558990	-0.063173	1.608678	-0.009183	0.002330	0.001708	-0.514893	-0.159424	0.542969	1.144653	-81.565917	157.953529
63546		9.588163	-0.081779	1.633556	-0.010880	0.004377	0.003860	-0.512451	-0.165527	0.545654	1.123070	-81.561719	157.974524
63547		9.601446	-0.070826	1.650646	-0.010179	-0.000887	0.003824	-0.513184	-0.158936	0.544434	1.111162	-81.564096	157.984498
63548		9.594693	-0.048417	1.675729	-0.004841	0.003653	0.003656	-0.515137	-0.155029	0.541260	1.094232	-81.560381	158.003766
63549		9.605479	-0.053313	1.635538	-0.004524	0.005056	0.000582	-0.514893	-0.158447	0.549072	1.097642	-81.559318	158.001530
63550		9.618646	-0.042364	1.653314	-0.005271	0.012520	0.008989	-0.513184	-0.156982	0.540039	1.058907	-81.550529	158.043308
63551		9.619918	0.016005	1.648530	-0.007670	0.019833	0.011177	-0.513428	-0.158691	0.544922	1.018648	-81.541111	158.083397
63552		9.619517	0.014675	1.650882	-0.014502	0.029014	0.012678	-0.520996	-0.165039	0.544678	0.959742	-81.522930	158.139894
63553		9.651645	-0.001006	1.532280	-0.017472	0.037414	0.020738	-0.520508	-0.153809	0.549561	0.876362	-81.503515	158.217906
63554		9.695111	-0.008231	1.505607	-0.022482	0.065508	0.028626	-0.509766	-0.158203	0.542969	0.750294	-81.464433	158.337843
63555		9.756329	-0.029905	1.547356	-0.033249	0.102826	0.034614	-0.510742	-0.166992	0.542969	0.603393	-81.407588	158.470969
63556		9.830707	-0.084615	1.674155	-0.060743	0.149880	0.042791	-0.505859	-0.156006	0.547119	0.403024	-81.320409	158.643192
63557		9.810954	-0.163196	1.752477	-0.071968	0.175869	0.043948	-0.522217	-0.158447	0.544189	0.202612	-81.221614	158.808068
63558		9.790946	-0.285179	1.896272	-0.093401	0.188829	0.032668	-0.522705	-0.152344	0.540039	0.027786	-81.111934	158.936563
63559		9.728242	-0.400528	1.997710	-0.149259	0.173829	0.030492	-0.516846	-0.166992	0.536133	-0.159992	-81.014157	159.043914
63560		9.558477	-0.362341	1.902670	-0.206204	0.146666	0.015403	-0.517822	-0.164795	0.529297	-0.331018	-80.928405	159.102659
63561		9.555785	-0.323257	1.851426	-0.217728	0.126926	-0.000395	-0.523438	-0.164307	0.538818	-0.443328	-80.857529	159.093899
63562		9.534309	-0.327448	1.739428	-0.199379	0.117265	-0.019007	-0.520264	-0.159912	0.539551	-0.486300	-80.788755	159.026407
63563		9.599903	-0.341192	1.637381	-0.191833	0.107789	-0.027996	-0.514893	-0.166992	0.537354	-0.486525	-80.728980	158.919117
63564		9.644894	-0.458162	1.481330	-0.164275	0.118878	-0.031191	-0.531494	-0.169922	0.540039	-0.467736	-80.659537	158.810146
63565		9.675728	-0.573339	1.440162	-0.117731	0.136291	-0.027189	-0.522217	-0.167236	0.543213	-0.429350	-80.583417	158.706713
63566		9.690453	-0.676394	1.644504	-0.090736	0.139219	-0.011232	-0.520508	-0.165527	0.534912	-0.439121	-80.502125	158.669313
63567		9.731300	-0.741072	1.631441	-0.081158	0.131995	0.004073	-0.522217	-0.166016	0.531982	-0.488115	-80.428326	158.675686
63568		9.744038	-0.743671	1.529484	-0.059218	0.116878	0.016604	-0.531982	-0.177490	0.533936	-0.574675	-80.359805	158.734453
63569		9.727722	-0.701432	1.590510	-0.034293	0.107564	0.023154	-0.520996	-0.160156	0.535400	-0.660609	-80.299882	158.805539
63570		9.688424	-0.606882	1.669078	-0.001215	0.107884	0.025183	-0.537842	-0.161865	0.527100	-0.741364	-80.236402	158.891993
63571		9.673392	-0.475333	1.603349	0.021957	0.097745	0.027064	-0.532959	-0.165771	0.525146	-0.806661	-80.182042	158.974868
63572		9.707579	-0.373360	1.553418	0.044220	0.078310	0.022937	-0.518799	-0.174561	0.532471	-0.854341	-80.135223	159.054382
63573		9.687688	-0.275008	1.442660	0.041934	0.078221	0.029639	-0.532227	-0.164307	0.533936	-0.916237	-80.091998	159.145447
63574		9.661614	-0.139570	1.415470	0.011276	0.092636	0.026838	-0.525635	-0.171143	0.531006	-0.992693	-80.037329	159.234591
63575		9.675818	-0.056197	1.495645	-0.021317	0.116546	0.021579	-0.520752	-0.170898	0.525635	-1.060797	-79.972193	159.295192
63576		9.629920	-0.009570	1.474932	-0.056742	0.129652	0.007089	-0.528564	-0.174316	0.533691	-1.108108	-79.896573	159.314650
63577		9.591870	-0.114403	1.545821	-0.087538	0.130574	-0.008952	-0.532471	-0.162842	0.515625	-1.114084	-79.823724	159.273620
63578		9.568582	-0.262619	1.565904	-0.105230	0.126481	-0.033862	-0.523682	-0.169434	0.518799	-1.059259	-79.750224	159.161358
63579		9.528006	-0.423755	1.403823	-0.113543	0.119688	-0.054750	-0.537598	-0.168457	0.526367	-0.937484	-79.684054	158.975331
63580		9.493933	-0.534694	1.341738	-0.115088	0.120729	-0.068176	-0.539795	-0.170410	0.523193	-0.784166	-79.614129	158.757222
63581		9.486627	-0.592564	1.430782	-0.103961	0.125275	-0.079499	-0.533936	-0.173096	0.520264	-0.584040	-79.544747	158.497030
63582		9.523020	-0.567919	1.437082	-0.095543	0.124345	-0.080783	-0.525391	-0.174072	0.528564	-0.386238	-79.472498	158.244924
63583		9.597152	-0.524487	1.438239	-0.078248	0.115682	-0.080222	-0.527832	-0.165771	0.519043	-0.175376	-79.408284	157.988680
63584		9.633380	-0.514047	1.385971	-0.056758	0.111495	-0.076302	-0.535400	-0.174072	0.526123	0.025125	-79.343424	157.756816
63585		9.650811	-0.447720	1.278846	-0.037450	0.118928	-0.066423	-0.531006	-0.170410	0.519043	0.211943	-79.277042	157.548721
63586		9.607152	-0.464937	1.368511	-0.017647	0.131370	-0.054274	-0.525146	-0.168945	0.525635	0.362640	-79.200513	157.390165
63587		9.577292	-0.441488	1.356204	-0.005692	0.139857	-0.046549	-0.529541	-0.172363	0.520508	0.502927	-79.122015	157.247869
63588		9.544173	-0.377639	1.354933	-0.003958	0.148532	-0.042390	-0.538330	-0.170410	0.520264	0.621507	-79.035814	157.130181
63589		9.523410	-0.302782	1.372124	-0.004403	0.155337	-0.045489	-0.537109	-0.179688	0.515137	0.754863	-78.948336	156.995618
63590		9.519293	-0.328489	1.507555	-0.002581	0.154443	-0.054774	-0.533447	-0.174805	0.503662	0.905890	-78.858340	156.844984
63591		9.512443	-0.341760	1.536693	0.002488	0.143722	-0.059359	-0.535889	-0.177490	0.515381	1.079505	-78.777243	156.673327
63592		9.457163	-0.324981	1.546564	0.008447	0.131241	-0.058635	-0.543457	-0.178955	0.511963	1.244589	-78.700379	156.514212
63593		9.448716	-0.237398	1.579089	0.013196	0.122978	-0.060393	-0.537598	-0.176025	0.519287	1.423941	-78.630953	156.342871
63594		9.325204	-0.194235	1.517806	0.015513	0.111003	-0.060750	-0.543945	-0.173340	0.515625	1.596108	-78.565510	156.180943
63595		9.276562	-0.098675	1.504593	0.038089	0.099437	-0.065022	-0.534424	-0.175293	0.516602	1.800659	-78.509275	155.998367
63596		9.216937	-0.099970	1.525358	0.072672	0.099932	-0.056141	-0.540527	-0.171631	0.514893	1.989752	-78.450159	155.852958
63597		9.185276	-0.119841	1.571767	0.100645	0.100463	-0.055357	-0.534180	-0.169922	0.506836	2.199290	-78.393289	155.701801
63598		9.272458	-0.150553	1.643747	0.139381	0.109090	-0.037820	-0.540283	-0.178955	0.512207	2.371165	-78.329178	155.613006
63599		9.241877	-0.182532	1.797888	0.210371	0.127476	-0.017948	-0.534912	-0.180420	0.505127	2.533645	-78.257574	155.574042
63600		9.201742	-0.125756	1.703808	0.289964	0.137546	0.005329	-0.535889	-0.174561	0.513916	2.667580	-78.178222	155.610871
63601		9.267076	-0.077011	1.677043	0.348003	0.171204	0.028373	-0.539307	-0.167480	0.514893	2.774987	-78.082815	155.708740
63602		9.288043	-0.051311	1.731055	0.412340	0.217577	0.047209	-0.546387	-0.174561	0.514648	2.854587	-77.959020	155.873751
63603		9.400005	-0.178118	1.790269	0.476579	0.237343	0.066398	-0.535156	-0.165039	0.506836	2.925942	-77.826925	156.083922
63604		9.614710	-0.295041	1.977696	0.522208	0.266925	0.080630	-0.535156	-0.159180	0.513428	2.976197	-77.675916	156.343000
63605		9.891123	-0.384965	2.144240	0.565581	0.294712	0.087369	-0.536865	-0.158691	0.500732	3.040032	-77.511717	156.613323
63606		10.090997	-0.502655	2.216016	0.641920	0.269308	0.103893	-0.545166	-0.153076	0.510010	3.104031	-77.360314	156.929190
63607		10.032714	-0.556344	2.080952	0.717212	0.183999	0.108103	-0.542236	-0.144531	0.512451	3.221730	-77.260266	157.233652
63608		9.730653	-0.325351	1.846511	0.760941	0.183620	0.125981	-0.544434	-0.152588	0.512695	3.313613	-77.158821	157.591684
63609		9.413399	0.156066	1.850608	0.766728	0.174392	0.151302	-0.541016	-0.152344	0.509766	3.356490	-77.065910	158.002245
63610		9.240957	0.654911	1.802164	0.729758	0.152453	0.177407	-0.544678	-0.141602	0.506592	3.313091	-76.984200	158.479514
63611		9.383566	1.011570	1.696144	0.660648	0.107784	0.189642	-0.549805	-0.139160	0.506348	3.215313	-76.930528	158.972320
63612		9.767866	1.198447	1.742810	0.548504	0.075433	0.189711	-0.546143	-0.129395	0.502441	3.053654	-76.892714	159.464762
63613		10.098999	1.339189	1.683277	0.392881	0.034419	0.151181	-0.550049	-0.119873	0.513672	2.910151	-76.879327	159.847133
63614		10.236435	1.376971	1.552851	0.220388	-0.036985	0.083310	-0.545654	-0.125732	0.504150	2.837231	-76.902350	160.056505
63615		10.212648	1.348043	1.617406	0.132128	-0.059643	-0.000943	-0.551270	-0.121338	0.511475	2.929765	-76.938254	160.043120
63616		10.019437	1.204371	1.749736	0.112719	-0.065155	-0.097925	-0.546631	-0.125244	0.504150	3.246414	-76.971987	159.788942
63617		9.893540	0.974263	1.697189	0.131221	-0.045461	-0.168947	-0.544189	-0.124756	0.512207	3.753620	-76.993870	159.349417
63618		9.767244	0.749460	1.648564	0.165650	0.004494	-0.206891	-0.550293	-0.128906	0.510742	4.361555	-76.982486	158.827221
63619		9.500124	0.488133	1.591599	0.156526	0.042197	-0.204425	-0.541748	-0.127930	0.514648	4.954430	-76.950654	158.314615
63620		9.292961	0.311001	1.467935	0.076349	0.074385	-0.189254	-0.545898	-0.124756	0.510498	5.449010	-76.898068	157.856003
63621		9.198320	0.308136	1.171939	-0.015454	0.096980	-0.158939	-0.538330	-0.124268	0.505371	5.812670	-76.835598	157.477377
63622		9.195701	0.343364	1.129804	0.022457	0.076079	-0.134381	-0.538330	-0.119629	0.512451	6.135227	-76.783993	157.163875
63623		9.129860	0.410450	1.208928	0.138124	0.066385	-0.106876	-0.541260	-0.132813	0.510742	6.462885	-76.741221	156.912468
63624		9.072447	0.371971	1.324182	0.193616	0.050506	-0.096973	-0.552734	-0.127930	0.501953	6.796205	-76.706050	156.688601
63625		9.042240	0.259474	1.370456	0.220954	0.039488	-0.078296	-0.541992	-0.125488	0.509277	7.107080	-76.679905	156.503136
63626		8.894248	0.153900	1.386383	0.240725	0.024156	-0.063790	-0.543701	-0.117676	0.503906	7.393100	-76.661275	156.355316
63627		8.751666	0.187213	1.116318	0.236406	-0.001099	-0.046092	-0.545410	-0.122559	0.502930	7.646959	-76.660177	156.237521
63628		8.725185	0.252213	0.773678	0.227916	-0.008180	-0.032862	-0.541992	-0.124268	0.515869	7.861154	-76.662082	156.156323
63629		8.897644	0.360757	0.433086	0.205934	-0.015106	-0.024216	-0.542480	-0.126709	0.510498	8.049877	-76.670460	156.087529
63630		9.194974	0.593936	0.189011	0.197668	-0.009744	-0.014056	-0.544434	-0.128906	0.510010	8.203178	-76.674961	156.050711
63631		9.728336	0.848475	0.255747	0.267471	0.001290	0.000511	-0.536621	-0.114014	0.510498	8.362499	-76.675993	156.048368
63632		9.972698	1.006808	0.525924	0.324435	0.022845	0.019753	-0.541992	-0.119629	0.509277	8.496184	-76.664879	156.106448
63633		10.033354	0.951444	0.772053	0.283334	0.006080	0.039065	-0.545654	-0.116455	0.512695	8.570727	-76.666473	156.200572
63634		9.920470	0.774560	0.595166	0.233801	-0.026147	0.052214	-0.542236	-0.108398	0.504150	8.592570	-76.685969	156.320292
63635		9.773964	0.613987	0.354767	0.240398	-0.039922	0.070238	-0.547119	-0.115967	0.513184	8.584203	-76.716312	156.474319
63636		9.777125	0.585389	0.294015	0.310778	-0.030053	0.089789	-0.543457	-0.100830	0.510986	8.560861	-76.741285	156.685903
63637		9.867616	0.603867	0.242596	0.350490	0.035314	0.119241	-0.537354	-0.103516	0.514893	8.470100	-76.733109	156.989366
63638		9.894859	0.717794	0.413509	0.318870	0.111956	0.148660	-0.542236	-0.105713	0.517090	8.260097	-76.682570	157.397940
63639		9.952681	0.835168	0.709559	0.243285	0.184637	0.148693	-0.550781	-0.094238	0.508545	7.989223	-76.591606	157.823520
63640		9.990819	1.060484	0.796004	0.113856	0.233374	0.129998	-0.543701	-0.104492	0.510498	7.674121	-76.469869	158.219520
63641		10.025093	1.151379	0.963907	0.026746	0.267938	0.096606	-0.555908	-0.101807	0.509521	7.387069	-76.326662	158.534522
63642		9.978371	1.176631	1.459991	0.000844	0.278511	0.057424	-0.541504	-0.095215	0.506836	7.175899	-76.173200	158.756990
63643		9.866873	1.157037	1.680881	-0.003870	0.263347	0.039476	-0.547119	-0.101563	0.505615	7.015096	-76.028003	158.924266
63644		9.717854	1.000944	1.963734	-0.013038	0.238163	0.033577	-0.557617	-0.094727	0.506348	6.869858	-75.895666	159.071067
63645		9.345417	0.908869	1.845046	-0.073255	0.140939	0.057739	-0.551758	-0.097412	0.512939	6.667051	-75.821121	159.240839
63646		9.173240	0.817177	1.434458	-0.096449	-0.002858	0.077763	-0.553467	-0.098877	0.501465	6.441890	-75.828650	159.421109
63647		9.163472	0.850663	1.013406	-0.120504	-0.121621	0.099934	-0.550537	-0.088623	0.502441	6.184525	-75.905960	159.619219
63648		9.218389	0.924860	0.505318	-0.207151	-0.220541	0.116008	-0.546631	-0.097168	0.503906	5.859020	-76.039412	159.837451
63649		9.586761	1.016139	0.182935	-0.238897	-0.284484	0.136088	-0.543945	-0.088867	0.513184	5.480468	-76.211077	160.090294
63650		9.894349	1.022884	0.175886	-0.266692	-0.285168	0.151967	-0.546875	-0.094482	0.504395	5.038522	-76.382818	160.393093
63651		10.125354	0.852297	0.040072	-0.287937	-0.281258	0.147338	-0.552002	-0.101074	0.505371	4.587448	-76.552257	160.691261
63652		10.247033	0.626629	-0.047181	-0.216868	-0.254737	0.127961	-0.552246	-0.100830	0.505371	4.208077	-76.704475	160.958445
63653		10.167853	0.499662	-0.348325	-0.126767	-0.180764	0.123628	-0.541504	-0.091064	0.508057	3.873382	-76.814566	161.231560
63654		9.961707	0.449026	-0.398221	-0.041059	-0.101902	0.125174	-0.541260	-0.090088	0.515381	3.565215	-76.878754	161.528978
63655		9.867483	0.614904	-0.052240	-0.010990	-0.088868	0.121134	-0.539551	-0.093750	0.513916	3.281280	-76.935520	161.817919
63656		9.884600	0.975134	-0.181675	-0.083309	-0.079959	0.112333	-0.543213	-0.092773	0.520264	2.972368	-76.986334	162.091350
63657		9.846547	1.208396	-0.453824	-0.173923	-0.070217	0.106835	-0.545898	-0.094238	0.516113	2.623337	-77.031308	162.351173
63658		9.941306	1.162782	-0.463322	-0.220981	-0.081740	0.103475	-0.538330	-0.079834	0.519775	2.253526	-77.082335	162.606049
63659		10.255941	0.905019	0.519534	-0.286189	-0.118475	0.081604	-0.541016	-0.093262	0.522705	1.903055	-77.153679	162.801252
63660		11.287364	-0.068726	2.722112	-0.410937	-0.201216	-0.024861	-0.539063	-0.092285	0.513916	1.752495	-77.270338	162.719953
63661		12.530580	-1.333257	2.925715	-0.519193	-0.378794	-0.220099	-0.539063	-0.093750	0.523193	2.057154	-77.484877	162.106793
63662		12.991434	-2.080230	1.187894	-0.244252	-0.461085	-0.403284	-0.541504	-0.110107	0.517822	3.027583	-77.740382	160.975497
63663		12.983076	-2.819552	1.677627	-0.000312	-0.310435	-0.436618	-0.540527	-0.104492	0.525879	4.244047	-77.903826	159.734730
63664		12.614267	-2.841614	1.980505	0.047476	-0.238966	-0.394249	-0.533691	-0.103760	0.529785	5.386585	-78.023191	158.599466
63665		11.771681	-1.439088	1.296182	0.417526	-0.208507	-0.282195	-0.537354	-0.113770	0.527344	6.453570	-78.127104	157.757325
63666		10.881340	0.266439	2.167337	0.637209	-0.236302	-0.055422	-0.534668	-0.103271	0.527100	7.051016	-78.259806	157.525124
63667		10.692573	1.143638	2.418003	0.425858	-0.351565	0.219520	-0.529297	-0.101807	0.530029	6.814725	-78.476691	158.019356
63668		11.142844	1.379876	2.343014	0.099091	-0.395199	0.414780	-0.529785	-0.096436	0.534912	5.828809	-78.729871	159.088195
63669		11.524986	1.924566	2.746523	-0.082162	-0.384239	0.479403	-0.518555	-0.105957	0.537109	4.502052	-78.975644	160.396345
63670		11.636486	2.186092	3.368189	-0.183501	-0.270103	0.464564	-0.526855	-0.097656	0.539063	3.081226	-79.149647	161.741418
63671		11.160177	1.852980	3.837469	-0.216651	-0.171124	0.361386	-0.523682	-0.090576	0.540039	1.902366	-79.258415	162.819011
63672		10.565560	1.515810	3.982296	-0.222822	-0.134381	0.214458	-0.519531	-0.088135	0.540527	1.141398	-79.340523	163.468806
63673		10.074238	0.981385	3.849672	-0.297355	-0.066856	0.089580	-0.521240	-0.096191	0.541504	0.708686	-79.381479	163.739594
63674		9.527003	0.244939	3.777325	-0.398170	-0.031462	0.020828	-0.519775	-0.093994	0.536865	0.423971	-79.401391	163.802548
63675		9.119792	-0.211972	3.705034	-0.517001	-0.038807	-0.013466	-0.522705	-0.094482	0.544678	0.177126	-79.425419	163.756176
63676		8.754623	-0.412469	3.545867	-0.617360	-0.049459	-0.037798	-0.522461	-0.103027	0.539063	-0.054211	-79.455365	163.637127
63677		8.461301	-0.513301	3.326486	-0.676263	-0.079043	-0.070542	-0.516113	-0.104004	0.542480	-0.217214	-79.502589	163.412680
63678		8.317312	-0.636249	2.974310	-0.662026	-0.121252	-0.137901	-0.513428	-0.110596	0.537354	-0.163921	-79.573850	162.978060
63679		8.224256	-0.821483	2.810002	-0.594017	-0.159517	-0.199239	-0.517090	-0.109619	0.544678	0.126301	-79.667123	162.340858
63680		8.348611	-1.069902	2.703969	-0.536996	-0.188596	-0.229274	-0.522217	-0.124023	0.538574	0.552286	-79.775848	161.600562
63681		8.375674	-1.296583	2.621557	-0.459215	-0.183123	-0.209714	-0.520752	-0.112305	0.544922	0.974327	-79.880991	160.908324
63682		8.436291	-1.180662	2.480432	-0.371314	-0.189409	-0.146201	-0.513916	-0.121826	0.539795	1.250664	-79.989196	160.416881
63683		8.663585	-0.771080	2.495805	-0.297393	-0.171268	-0.047985	-0.513672	-0.124756	0.543457	1.256880	-80.088523	160.241418
63684		9.017084	-0.486466	2.571851	-0.252634	-0.118777	0.053856	-0.512451	-0.119141	0.543457	0.947494	-80.158448	160.413761
63685		9.249251	-0.316800	2.573209	-0.210442	-0.083782	0.138969	-0.512939	-0.130615	0.558838	0.377793	-80.209200	160.873409
63686		9.372211	-0.290245	2.580448	-0.171659	-0.053777	0.208012	-0.513428	-0.116211	0.549316	-0.407667	-80.241253	161.575976
63687		9.268061	-0.435218	2.563379	-0.175743	-0.005166	0.266197	-0.511475	-0.124268	0.540283	-1.387881	-80.243671	162.472255
63688		9.025898	-0.584086	2.583869	-0.233458	0.033099	0.293107	-0.518066	-0.127930	0.544434	-2.488559	-80.220214	163.458794
63689		8.816156	-0.609232	2.494442	-0.323660	0.050224	0.285911	-0.515869	-0.132080	0.549561	-3.605297	-80.184641	164.407721
63690		8.676955	-0.641294	2.531336	-0.413763	0.067350	0.250513	-0.513916	-0.124756	0.547607	-4.647764	-80.136954	165.230212
63691		8.507802	-0.611634	2.550830	-0.508514	0.055479	0.198282	-0.518555	-0.125000	0.536621	-5.565652	-80.097071	165.870030
63692		8.453189	-0.600225	2.427046	-0.572467	0.029486	0.130114	-0.512451	-0.126709	0.545654	-6.304352	-80.073618	166.292231
63693		8.353367	-0.592924	2.274563	-0.592553	0.017477	0.061591	-0.518555	-0.125977	0.539063	-6.831086	-80.061537	166.486158
63694		8.195988	-0.583945	2.135261	-0.596039	0.027399	-0.003904	-0.515625	-0.133789	0.535889	-7.145839	-80.047248	166.464395
63695		8.154450	-0.684315	2.325389	-0.615359	0.064269	-0.066082	-0.517334	-0.136719	0.539551	-7.252111	-80.017368	166.218169
63696		8.158678	-0.899799	2.350827	-0.635367	0.099297	-0.123712	-0.525146	-0.150635	0.541260	-7.174033	-79.970793	165.774489
63697		8.202362	-1.234460	2.354322	-0.584295	0.097980	-0.178740	-0.520752	-0.142090	0.537598	-6.890199	-79.929520	165.150093
63698		8.341289	-1.598840	2.340602	-0.477292	0.072656	-0.219968	-0.520020	-0.150146	0.536621	-6.429747	-79.903718	164.409859
63699		8.553929	-1.941609	2.327275	-0.402286	0.034208	-0.221201	-0.518066	-0.154785	0.529053	-5.934427	-79.899780	163.676479
63700		8.776382	-2.017673	2.245790	-0.364339	-0.000965	-0.196381	-0.523193	-0.156006	0.538818	-5.512284	-79.912420	163.040817
63701		8.851567	-1.874516	2.070009	-0.345197	-0.053918	-0.142173	-0.511475	-0.154053	0.541504	-5.262994	-79.952719	162.590606
63702		8.811261	-1.515348	1.810271	-0.337540	-0.124347	-0.069164	-0.508301	-0.161377	0.534424	-5.268296	-80.028177	162.404956
63703		8.824184	-1.160063	1.607149	-0.343482	-0.190888	0.009990	-0.511230	-0.159424	0.538574	-5.550007	-80.138415	162.495005
63704		8.653739	-1.054942	1.144621	-0.322564	-0.213475	0.060525	-0.520020	-0.158203	0.535400	-6.004715	-80.257466	162.774124
63705		8.623107	-1.082243	0.924851	-0.253840	-0.188199	0.061515	-0.517090	-0.153076	0.538574	-6.417108	-80.362750	163.048789
63706		8.783333	-1.092060	0.792280	-0.203353	-0.149148	0.058259	-0.517334	-0.165039	0.537109	-6.787471	-80.444661	163.311736
63707		8.879190	-1.038824	0.642192	-0.154488	-0.088490	0.046824	-0.510254	-0.161621	0.544678	-7.064549	-80.493664	163.506784
63708		9.051868	-0.935278	0.547602	-0.131967	-0.004767	0.036073	-0.510986	-0.165771	0.534424	-7.264577	-80.494721	163.638239
63709		9.113155	-0.841798	0.782406	-0.124218	0.082845	0.035068	-0.517334	-0.163818	0.541016	-7.411950	-80.446986	163.719353
63710		9.205141	-0.727804	0.855266	-0.163399	0.131846	0.036514	-0.513184	-0.169922	0.539307	-7.570234	-80.370330	163.790178
63711		9.139391	-0.618040	0.915335	-0.210062	0.145531	0.036919	-0.516113	-0.158691	0.540283	-7.742129	-80.286784	163.846308
63712		9.143772	-0.662124	1.209323	-0.252400	0.126736	0.020845	-0.515625	-0.166260	0.536865	-7.898499	-80.214244	163.863601
63713		9.112533	-0.910423	1.044774	-0.269202	0.098086	-0.005569	-0.515137	-0.161621	0.544434	-7.983377	-80.160938	163.797058
63714		9.041763	-1.072987	0.594948	-0.242635	0.046436	-0.032014	-0.515869	-0.167969	0.537598	-7.997124	-80.138199	163.675414
63715		9.162053	-1.265351	0.286226	-0.193830	0.012337	-0.048331	-0.513672	-0.164795	0.538818	-7.938617	-80.136951	163.507158
63716		9.304255	-1.390233	0.157165	-0.127723	0.038999	-0.071477	-0.520996	-0.164551	0.532715	-7.762105	-80.121537	163.259203
63717		9.474811	-1.569517	0.173730	-0.043709	0.053758	-0.091354	-0.512695	-0.163574	0.546631	-7.459912	-80.099851	162.930882
63718		9.670177	-1.649613	0.121853	0.024976	0.054579	-0.113474	-0.507080	-0.167480	0.532959	-7.055361	-80.078273	162.540402
63719		9.864179	-1.651005	-0.035756	0.084757	0.046218	-0.120069	-0.514404	-0.166260	0.541016	-6.592260	-80.062058	162.123411
63720		9.940038	-1.525980	-0.144546	0.150609	0.046818	-0.118605	-0.506836	-0.157715	0.528809	-6.105011	-80.044213	161.719616
63721		9.989107	-1.257951	-0.149026	0.211757	0.047005	-0.103858	-0.512939	-0.160645	0.535156	-5.624559	-80.025400	161.358843
63722		10.234446	-1.045265	-0.033681	0.256554	0.054649	-0.080444	-0.510742	-0.157959	0.537109	-5.202467	-80.000042	161.085220
63723		10.417937	-0.836860	0.226676	0.263661	0.078508	-0.048488	-0.515625	-0.163086	0.535889	-4.865739	-79.959562	160.900535
63724		10.497676	-0.735647	0.519688	0.205924	0.057985	-0.004362	-0.509521	-0.164551	0.537842	-4.720426	-79.928242	160.878461
63725		10.446755	-0.787154	0.689175	0.111582	0.018871	0.024124	-0.509766	-0.154541	0.528320	-4.722267	-79.918216	160.949118
63726		10.343514	-0.917265	0.902287	0.032395	-0.001358	0.043584	-0.511963	-0.156006	0.542725	-4.846543	-79.918557	161.099759
63727		10.258679	-0.861846	0.825255	-0.082805	-0.078445	0.044217	-0.509521	-0.164551	0.542725	-5.051428	-79.963039	161.263513
63728		10.061594	-0.668117	0.345162	-0.222683	-0.161435	0.031268	-0.516357	-0.159912	0.541504	-5.329852	-80.055197	161.419853
63729		9.812531	-0.439681	-0.450187	-0.272880	-0.181182	-0.009190	-0.507080	-0.164307	0.535156	-5.505688	-80.160934	161.443486
63730		9.645623	-0.370751	-0.813574	-0.222750	-0.154082	-0.063089	-0.504639	-0.162109	0.540527	-5.477015	-80.254086	161.290498
63731		9.904080	-0.543690	-0.317419	-0.109237	-0.120226	-0.106121	-0.504150	-0.156982	0.535889	-5.216523	-80.330230	160.966574
63732		10.740375	-0.591881	0.623217	0.052365	-0.086831	-0.112812	-0.500977	-0.164795	0.540039	-4.835646	-80.387377	160.613834
63733		12.242069	-0.078024	1.496767	0.153281	-0.096435	-0.036730	-0.504395	-0.158936	0.542236	-4.643759	-80.446067	160.512146
63734		13.169558	0.894303	1.848534	-0.080541	-0.198871	0.124975	-0.503662	-0.160889	0.535156	-5.177146	-80.555443	161.009313
63735		13.410083	1.434330	2.122434	-0.330824	-0.318883	0.270748	-0.499023	-0.164551	0.549316	-6.408090	-80.723464	162.068606
63736		14.278296	2.198489	2.766550	-0.307688	-0.250167	0.356484	-0.503662	-0.156738	0.546875	-7.946250	-80.842130	163.451484
63737		15.224510	3.224260	3.855866	-0.318061	0.025348	0.484143	-0.500488	-0.150391	0.545410	-9.803416	-80.786900	165.152012
63738		13.023604	1.685452	3.420298	-0.676105	0.213131	0.478780	-0.501953	-0.153320	0.544678	-11.699894	-80.617621	166.684488
63739		10.540246	-0.432945	2.667672	-1.056947	0.212580	0.224592	-0.502930	-0.156738	0.541992	-12.899259	-80.473143	167.290290
63740		9.759958	-2.000704	2.715247	-0.783815	-0.025408	-0.062603	-0.492676	-0.163818	0.536133	-13.161259	-80.497223	167.103916
63741		9.607012	-2.829852	2.970705	-0.233540	-0.141026	-0.247465	-0.500488	-0.159180	0.537842	-12.567116	-80.609509	166.369804
63742		9.441992	-2.965168	3.362714	0.186637	-0.137194	-0.313197	-0.499512	-0.159180	0.545654	-11.494276	-80.725527	165.394232
63743		9.520805	-2.698223	3.229726	0.430410	-0.091506	-0.328509	-0.496826	-0.160645	0.541748	-10.164882	-80.814323	164.301086
63744		9.359407	-2.475425	3.172308	0.559253	-0.005158	-0.303403	-0.495117	-0.161377	0.549805	-8.787970	-80.847491	163.234165
63745		8.964808	-2.364265	3.280900	0.710967	0.049808	-0.197119	-0.500488	-0.156250	0.540039	-7.655582	-80.837313	162.503615
63746		8.381478	-1.924804	3.511035	0.717309	0.160955	-0.012165	-0.493408	-0.152344	0.540527	-7.131827	-80.748282	162.392564
63747		8.111566	-1.178507	3.659266	0.561584	0.263326	0.216295	-0.497559	-0.143799	0.544678	-7.435168	-80.584820	163.029901
63748		8.468637	-0.381530	3.436616	0.399055	0.299530	0.398992	-0.500000	-0.148682	0.538086	-8.419431	-80.384654	164.262889
63749		9.092457	0.351009	3.113212	0.357319	0.322108	0.455487	-0.496094	-0.147461	0.537354	-9.544563	-80.163524	165.615988
63750		9.446384	0.901678	2.790055	0.451773	0.320820	0.393366	-0.507080	-0.134766	0.537842	-10.373329	-79.944683	166.723377
63751		9.321053	1.269333	2.788885	0.506325	0.356518	0.262650	-0.506592	-0.125977	0.533203	-10.694279	-79.718271	167.348035
63752		8.693128	1.477312	2.749303	0.445857	0.388527	0.135739	-0.502930	-0.124268	0.530762	-10.632948	-79.486231	167.548634
63753		8.160237	1.490188	2.716206	0.404501	0.318247	0.033215	-0.512695	-0.111572	0.526367	-10.318500	-79.305398	167.468372
63754		8.396202	1.079909	2.763808	0.434210	0.207335	-0.059886	-0.508301	-0.124023	0.525391	-9.784563	-79.195507	167.184290
63755		8.741678	0.444397	2.665657	0.485546	0.099063	-0.153079	-0.501709	-0.109863	0.529541	-8.999638	-79.155745	166.672246
63756		8.879536	-0.099845	2.270575	0.513750	0.010125	-0.223875	-0.503662	-0.113525	0.530518	-8.038537	-79.170038	165.996722
63757		8.871594	-0.498433	1.963921	0.515304	-0.039003	-0.248149	-0.498779	-0.108154	0.534180	-7.014272	-79.212727	165.258401
63758		8.732394	-0.599581	1.708427	0.463011	-0.042612	-0.225862	-0.501709	-0.115479	0.525146	-6.087743	-79.252769	164.588635
63759		8.494275	-0.434648	1.561153	0.386935	-0.012808	-0.166127	-0.505859	-0.113525	0.531006	-5.364112	-79.271464	164.081617
63760		8.357406	-0.104582	1.505014	0.388486	0.035445	-0.110486	-0.508301	-0.103516	0.528320	-4.799529	-79.257877	163.736846
63761		8.338405	0.206860	1.471933	0.415247	0.032504	-0.061006	-0.496582	-0.103271	0.530029	-4.363671	-79.243991	163.539235
63762		8.407827	0.475704	1.496763	0.434028	0.010803	-0.016352	-0.498291	-0.103516	0.529541	-4.063265	-79.239554	163.489909
63763		8.456678	0.636676	1.463621	0.436850	0.001696	0.029524	-0.497559	-0.100342	0.534424	-3.894741	-79.239291	163.577007
63764		8.419383	0.706170	1.411243	0.421647	-0.010777	0.062014	-0.494385	-0.097656	0.531250	-3.841430	-79.244112	163.771999
63765		8.500976	0.727579	1.266391	0.427884	-0.014882	0.080943	-0.502930	-0.087402	0.527832	-3.836257	-79.251393	164.020137
63766		8.617944	0.722389	1.179948	0.445841	-0.014690	0.060557	-0.492920	-0.091309	0.524170	-3.765337	-79.258563	164.211336
63767		8.749423	0.672298	1.044423	0.473301	-0.015297	0.030012	-0.492920	-0.085449	0.530029	-3.580890	-79.268086	164.303478
63768		8.834889	0.612091	0.882103	0.515969	0.001571	0.017072	-0.499756	-0.080078	0.522217	-3.335270	-79.267702	164.357779
63769		8.847541	0.625971	0.899109	0.531088	0.064506	0.034560	-0.499268	-0.078369	0.527344	-3.117353	-79.231560	164.449558
63770		8.825624	0.762144	0.861092	0.445186	0.084167	0.075332	-0.500244	-0.078857	0.513184	-3.073129	-79.182227	164.667629
63771		8.808003	1.018086	0.701187	0.355937	0.078712	0.118676	-0.494629	-0.073730	0.520264	-3.204039	-79.135345	165.012423
63772		8.780778	1.222019	0.857221	0.311813	0.076799	0.156581	-0.500000	-0.066650	0.515137	-3.475709	-79.087395	165.474460
63773		8.733048	1.334858	1.019049	0.244952	0.063656	0.189974	-0.496094	-0.065674	0.518066	-3.878891	-79.045894	166.031901
63774		8.711079	1.397274	0.985109	0.203458	0.027127	0.199228	-0.504883	-0.070313	0.512939	-4.341856	-79.023460	166.625714
63775		8.669946	1.347430	1.005756	0.146545	0.004887	0.189926	-0.487549	-0.062256	0.512695	-4.809253	-79.013873	167.191224
63776		8.606952	1.228056	1.090420	0.064226	-0.007365	0.175661	-0.492432	-0.057617	0.510742	-5.287975	-79.010516	167.719914
63777		8.515617	0.861625	1.192116	-0.028242	-0.023239	0.152907	-0.496094	-0.054443	0.510254	-5.753613	-79.017235	168.181626
63778		8.362456	0.479264	1.140809	-0.092343	-0.068535	0.116083	-0.497559	-0.061768	0.510742	-6.165923	-79.050719	168.551293
63779		8.209127	0.118473	1.142046	-0.079788	-0.123897	0.075836	-0.490479	-0.056152	0.514893	-6.469862	-79.118395	168.818138
63780		8.166870	-0.045169	1.200848	-0.016374	-0.195294	0.039663	-0.487305	-0.053223	0.507324	-6.661078	-79.228325	169.006863
63781		8.202186	0.056806	1.085122	0.022220	-0.270799	0.037954	-0.489014	-0.051758	0.506348	-6.853154	-79.381750	169.219151
63782		8.366147	0.467984	0.863130	-0.013831	-0.323815	0.059795	-0.483887	-0.060791	0.513916	-7.162752	-79.563112	169.529590
63783		8.803365	0.763454	0.678837	-0.052629	-0.349200	0.088967	-0.485352	-0.057373	0.512451	-7.604737	-79.756889	169.952076
63784		9.375798	0.794862	0.140448	-0.040877	-0.380731	0.119878	-0.486816	-0.056641	0.508545	-8.172790	-79.964993	170.508969
63785		9.979442	0.650839	-0.173531	-0.006859	-0.403091	0.159653	-0.486084	-0.060791	0.516846	-8.883285	-80.181750	171.230123
63786		10.487588	0.391909	-0.308668	0.027812	-0.382127	0.208134	-0.476318	-0.054688	0.511719	-9.758182	-80.380054	172.137571
63787		10.969173	0.222935	-0.345947	0.064210	-0.292637	0.238134	-0.473877	-0.050293	0.517334	-10.690764	-80.522775	173.124407
63788		11.299184	0.148172	-0.465165	0.126480	-0.207742	0.252803	-0.468506	-0.052734	0.512207	-11.609261	-80.613238	174.132608
63789		11.537231	0.254589	-0.737602	0.192410	-0.137858	0.272262	-0.476807	-0.045898	0.512207	-12.518817	-80.659817	175.170022
63790		11.805671	0.375094	-0.790581	0.225598	-0.068722	0.297144	-0.465088	-0.053711	0.510498	-13.449349	-80.661767	176.247711
63791		11.890538	0.675160	-0.922567	0.301668	-0.039980	0.315541	-0.470459	-0.051514	0.519531	-14.370950	-80.642485	177.360729
63792		11.760617	0.805071	-1.011825	0.467248	-0.042340	0.305578	-0.477295	-0.043701	0.512207	-15.164509	-80.623312	178.440022
63793		11.853909	0.727268	-1.031905	0.436991	-0.037461	0.254661	-0.465820	-0.033936	0.505371	-15.794834	-80.607005	179.336518
63794		11.730364	0.698228	-1.046751	0.316986	-0.090357	0.172721	-0.467529	-0.033203	0.504883	-16.273052	-80.631604	-179.991001
63795		11.752362	0.850516	-1.323115	0.232436	-0.343551	0.066334	-0.467041	-0.038086	0.510254	-16.700326	-80.811521	-179.419277
63796		12.364649	1.141139	-1.247919	0.141068	-0.708497	-0.067153	-0.466064	-0.039551	0.510010	-17.131211	-81.213459	-178.897489
63797		13.749815	0.718298	-0.602492	0.119140	-0.656208	-0.261202	-0.461426	-0.046143	0.510742	-16.837819	-81.618712	-179.121331
63798		14.381683	0.034530	0.209803	0.151033	-0.159942	-0.475408	-0.465088	-0.042480	0.503662	-15.126096	-81.784375	179.240034
63799		13.399236	-0.171728	1.123082	0.208821	0.170572	-0.574359	-0.455322	-0.053223	0.503662	-12.627948	-81.770367	176.840668
63800		12.383228	-0.437211	3.048619	0.111611	0.101602	-0.525560	-0.466553	-0.051514	0.500488	-10.438414	-81.776163	174.696745
63801		11.528329	-0.435072	3.310930	-0.001012	-0.093822	-0.431046	-0.457275	-0.056885	0.501221	-8.800324	-81.872368	173.045085
63802		10.668934	-0.343837	3.598674	0.065725	-0.097426	-0.327919	-0.459961	-0.059326	0.498779	-7.503783	-81.956798	171.777329
63803		10.022442	-0.342307	4.021688	-0.052861	-0.002498	-0.200393	-0.462891	-0.063477	0.498291	-6.721235	-81.974342	170.960269
63804		9.579951	-0.090909	5.031517	-0.330008	0.046963	-0.108298	-0.451416	-0.065430	0.494873	-6.445811	-81.957102	170.494929
63805		9.273537	0.442839	5.471831	-0.572945	-0.021673	-0.056022	-0.450439	-0.066895	0.504883	-6.551019	-81.974975	170.273484
63806		9.150445	0.992566	4.962040	-0.762031	-0.104250	-0.046431	-0.457275	-0.075439	0.494873	-6.842786	-82.039548	170.131007
63807		8.943593	1.357809	4.701634	-0.724873	-0.153094	-0.083685	-0.454346	-0.084229	0.495117	-6.984596	-82.134305	169.858696
63808		8.637232	1.348366	4.660641	-0.614688	-0.117457	-0.156883	-0.459229	-0.091797	0.490234	-6.738915	-82.213808	169.259033
63809		8.460363	0.799676	4.357798	-0.557243	-0.127994	-0.226824	-0.456787	-0.089600	0.488037	-6.161637	-82.303184	168.358062
63810		8.684254	-0.046358	4.004942	-0.507009	-0.149322	-0.286573	-0.453369	-0.089111	0.497070	-5.290490	-82.406447	167.189868
63811		9.224697	-0.790339	3.678944	-0.495271	-0.142426	-0.336595	-0.445068	-0.092773	0.486572	-4.166005	-82.505566	165.773147
63812		9.693481	-1.458494	3.434629	-0.508398	-0.118292	-0.374870	-0.446289	-0.100098	0.493896	-2.841549	-82.587918	164.147496
63813		9.893046	-2.092197	3.140101	-0.464881	-0.131678	-0.395232	-0.454834	-0.115967	0.485107	-1.371053	-82.673507	162.400004
63814		9.913885	-2.387244	2.867478	-0.389983	-0.150600	-0.406061	-0.451660	-0.118652	0.490723	0.228113	-82.763540	160.566400
63815		9.718641	-2.393602	2.753255	-0.319069	-0.132941	-0.364345	-0.441895	-0.119629	0.489502	1.717381	-82.837989	158.884858
63816		9.819012	-2.060401	2.659408	-0.246922	-0.147743	-0.264243	-0.444580	-0.125732	0.488525	2.821499	-82.917889	157.633345
63817		10.182092	-1.528817	2.420807	-0.208681	-0.116325	-0.125935	-0.450439	-0.130127	0.486816	3.323484	-82.982375	157.010882
63818		10.305678	-0.849334	2.128505	-0.163904	-0.035780	0.017925	-0.455078	-0.131592	0.482422	3.162867	-83.004657	157.081813
63819		10.173181	-0.383079	2.153616	-0.119023	-0.035516	0.147819	-0.445068	-0.128906	0.484375	2.422062	-83.030911	157.763271
63820		10.339836	-0.043632	2.124025	-0.174768	0.033391	0.260999	-0.449951	-0.127197	0.487793	1.102180	-83.017585	158.995824
63821		9.955427	0.013420	2.026368	-0.199093	0.098663	0.315223	-0.445557	-0.126221	0.482910	-0.474047	-82.963876	160.472810
63822		9.459499	0.021597	1.805200	-0.221600	0.056420	0.301622	-0.442383	-0.133057	0.485352	-1.985658	-82.929019	161.871727
63823		9.057944	-0.048945	1.774208	-0.284666	0.054306	0.261658	-0.451904	-0.138428	0.484375	-3.332841	-82.892847	163.068753
63824		8.677997	-0.163806	1.652026	-0.328102	0.080709	0.211596	-0.445068	-0.132324	0.478760	-4.456489	-82.839629	164.015434
63825		8.592957	-0.351994	1.553522	-0.349828	0.098340	0.153646	-0.447266	-0.141357	0.483887	-5.306223	-82.777885	164.673704
63826		8.534437	-0.612809	1.483528	-0.354618	0.100594	0.089185	-0.461426	-0.139648	0.476074	-5.859639	-82.716689	165.030488
63827		8.616846	-0.841350	1.561645	-0.335951	0.111754	0.043515	-0.455566	-0.147217	0.471191	-6.185415	-82.652294	165.168697
63828		8.836014	-1.055331	1.733078	-0.323169	0.163621	0.014795	-0.448242	-0.152100	0.469482	-6.351727	-82.559300	165.153402
63829		8.828409	-1.225871	1.818129	-0.313650	0.207291	0.002199	-0.453369	-0.152588	0.463623	-6.433156	-82.443030	165.058102
63830		8.730948	-1.296427	1.844590	-0.272248	0.224777	-0.001419	-0.457031	-0.149170	0.479004	-6.470534	-82.316234	164.942129
63831		8.598264	-1.370341	1.937250	-0.233218	0.254800	0.007069	-0.461426	-0.149658	0.467285	-6.505394	-82.172624	164.846282
63832		8.368035	-1.332660	1.865505	-0.247523	0.278411	0.015697	-0.459473	-0.162109	0.464600	-6.576827	-82.014163	164.778888
63833		8.151418	-1.435043	1.661736	-0.267022	0.273592	0.023648	-0.457764	-0.159912	0.462891	-6.689976	-81.858794	164.742478
63834		7.972114	-1.569361	1.584481	-0.238189	0.252757	0.016767	-0.459717	-0.163574	0.451660	-6.771591	-81.714856	164.690695
63835		7.898094	-1.685793	1.517218	-0.175522	0.237082	0.008701	-0.465820	-0.158691	0.455322	-6.789755	-81.581283	164.611243
63836		7.820008	-1.865135	1.525591	-0.065343	0.206874	0.003430	-0.457031	-0.160645	0.458984	-6.743784	-81.464332	164.530520
63837		7.865586	-1.896558	1.556200	0.024288	0.187515	-0.006004	-0.465820	-0.167725	0.449463	-6.617663	-81.359927	164.420881
63838		7.963762	-1.805351	1.475431	0.073395	0.180404	-0.018508	-0.463135	-0.161133	0.458496	-6.427641	-81.259396	164.274761
63839		8.192859	-1.543404	1.329150	0.060541	0.151630	-0.018302	-0.464111	-0.169922	0.452881	-6.256553	-81.176109	164.140582
63840		8.296516	-1.191665	1.254963	0.042749	0.097072	-0.011852	-0.463867	-0.170410	0.452881	-6.148361	-81.122498	164.059408
63841		8.309556	-0.767983	0.995888	0.023844	-0.011422	-0.004089	-0.471191	-0.169189	0.453857	-6.117425	-81.131154	164.045764
63842		8.338692	-0.484606	0.596859	-0.008916	-0.087931	0.010541	-0.466309	-0.166260	0.458984	-6.194381	-81.181554	164.121990
63843		8.372902	-0.260882	0.363207	-0.058104	-0.054648	-0.007542	-0.455566	-0.166748	0.456055	-6.214940	-81.215049	164.112945
63844		8.452077	-0.117606	0.284067	-0.092616	0.000220	-0.037749	-0.453857	-0.166260	0.446045	-6.127383	-81.218258	163.974162
63845		8.543745	-0.114119	0.150284	-0.081980	0.047684	-0.106346	-0.467285	-0.173828	0.453125	-5.757285	-81.199290	163.555974
63846		8.639522	-0.411541	0.234801	-0.058976	0.097087	-0.169861	-0.459473	-0.179688	0.449463	-5.131454	-81.154231	162.891957
63847		8.806112	-0.779467	0.451794	-0.064488	0.163605	-0.207768	-0.454590	-0.179443	0.450439	-4.352967	-81.072539	162.070454
63848		8.848799	-1.070450	0.485824	-0.066459	0.191985	-0.236238	-0.462158	-0.180176	0.447754	-3.487118	-80.973202	161.158805
63849		8.961720	-1.174977	0.291948	-0.034736	0.170030	-0.259357	-0.462646	-0.181885	0.441162	-2.538015	-80.885593	160.181371
63850		9.083849	-1.105526	-0.043943	0.016679	0.167389	-0.278678	-0.454590	-0.174072	0.439941	-1.516247	-80.796619	159.159544
63851		9.179885	-1.080695	-0.163111	0.088194	0.165970	-0.286649	-0.465332	-0.186035	0.437744	-0.439525	-80.706187	158.123683
63852		9.283191	-1.009049	-0.179161	0.179530	0.170604	-0.294596	-0.458740	-0.190674	0.442627	0.689496	-80.609399	157.087155
63853		9.479371	-0.821905	0.104399	0.249642	0.163632	-0.263794	-0.468506	-0.196045	0.443359	1.737696	-80.514285	156.173415
63854		9.723332	-0.575392	0.277795	0.233873	0.115406	-0.195297	-0.467285	-0.191162	0.437744	2.525313	-80.445480	155.514064
63855		10.007191	-0.342800	0.488493	0.170931	0.075138	-0.111269	-0.462158	-0.196533	0.441650	2.996694	-80.401211	155.139188
63856		10.329161	-0.244970	0.744759	0.054301	0.029818	-0.029057	-0.466309	-0.198975	0.436279	3.122196	-80.384776	155.046836
63857		10.381380	-0.315581	0.750412	-0.104109	-0.033841	0.025054	-0.467285	-0.197510	0.438721	2.992297	-80.406702	155.121931
63858		10.105184	-0.416848	0.092646	-0.243158	-0.123270	0.033041	-0.459961	-0.198730	0.431641	2.763191	-80.479766	155.216353
63859		9.805889	-0.441141	-1.173009	-0.300725	-0.181393	-0.008473	-0.457520	-0.198975	0.437744	2.657792	-80.585154	155.152371
63860		9.851541	-0.468284	-1.911405	-0.235294	-0.182924	-0.079586	-0.461914	-0.198975	0.430664	2.830947	-80.689365	154.843603
63861		10.022360	-0.844368	-2.220830	-0.093749	-0.152947	-0.140804	-0.451660	-0.207764	0.430664	3.308179	-80.774351	154.309478
63862		10.466997	-1.530629	-2.163722	0.129353	-0.123708	-0.194786	-0.451660	-0.199707	0.437256	4.100055	-80.839797	153.585715
63863		11.327093	-2.240794	-1.408451	0.346075	-0.125450	-0.192552	-0.453369	-0.213623	0.440186	5.027287	-80.904448	152.851263
63864		13.279943	-2.353070	0.175786	0.461711	-0.197810	-0.089131	-0.446777	-0.209717	0.436279	5.678895	-81.014662	152.462613
63865		15.355489	-1.171138	1.541301	0.217515	-0.360771	0.159045	-0.449951	-0.208496	0.439697	5.359294	-81.230940	152.916066
63866		15.130846	0.546334	1.072044	-0.079476	-0.171376	0.441670	-0.451172	-0.208984	0.440186	3.717690	-81.351067	154.533990
63867		14.907637	2.020791	1.765098	-0.136703	0.062200	0.570588	-0.453857	-0.196289	0.443848	1.492703	-81.332126	156.709230
63868		14.757884	3.429680	3.619886	0.029991	-0.020103	0.640891	-0.448730	-0.204102	0.443115	-0.901293	-81.347750	159.151476
63869		13.586993	3.666405	3.804238	-0.041981	-0.002078	0.673793	-0.455811	-0.200195	0.437988	-3.451562	-81.336137	161.710639
63870		12.471957	3.137000	4.378659	-0.373723	0.388612	0.557627	-0.462646	-0.209961	0.432129	-5.612743	-81.090965	163.684161
63871		11.502332	1.825639	5.434320	-0.430873	0.624501	0.388824	-0.467041	-0.198486	0.434570	-6.990418	-80.712743	164.833205
63872		9.760678	0.578430	5.762114	-0.369540	0.597223	0.221795	-0.461670	-0.205078	0.428955	-7.695306	-80.359018	165.336595
63873		8.762760	-0.754822	4.388067	-0.425960	0.017156	0.109579	-0.460693	-0.212158	0.427490	-8.290792	-80.342467	165.696916
63874		8.858490	-1.344698	3.869748	-0.173282	-0.171556	0.040322	-0.468750	-0.196289	0.425537	-8.609714	-80.437999	165.923130
63875		9.211328	-1.886037	4.381549	0.342587	-0.043783	0.036301	-0.468018	-0.206787	0.432861	-8.551787	-80.461619	166.067283
63876		9.509948	-2.836986	4.663685	0.735472	-0.010842	0.065643	-0.463623	-0.202393	0.427490	-8.356927	-80.463775	166.300425
63877		9.829679	-3.832687	4.574851	0.857983	-0.128530	0.118573	-0.465576	-0.196289	0.428711	-8.324486	-80.528699	166.769808
63878		10.107095	-3.918501	4.308461	0.630233	-0.189449	0.175185	-0.458740	-0.196777	0.434570	-8.658582	-80.622573	167.477887
63879		9.931600	-2.691649	3.631061	0.354867	-0.131838	0.285829	-0.463867	-0.198975	0.431396	-9.503531	-80.673239	168.544125
63880		9.562328	-0.969150	3.122768	0.298742	-0.003040	0.384127	-0.460205	-0.199219	0.432861	-10.652711	-80.637594	169.885547
63881		9.345385	0.453627	2.821280	0.337839	0.160972	0.409496	-0.467773	-0.193848	0.428711	-11.731627	-80.503503	171.179304
63882		9.158977	1.308000	2.545625	0.368890	0.270246	0.338325	-0.465820	-0.185059	0.437012	-12.451490	-80.312530	172.127062
63883		8.677532	1.637377	2.346091	0.323326	0.317664	0.200532	-0.470459	-0.184814	0.432861	-12.681471	-80.111823	172.552277
63884		8.107629	1.728208	2.400098	0.201084	0.338338	0.019725	-0.481934	-0.191406	0.430908	-12.390554	-79.921143	172.377257
63885		7.850554	1.680359	2.577724	0.191696	0.312796	-0.143488	-0.479980	-0.177734	0.429443	-11.618455	-79.764878	171.708302
63886		7.862560	1.329082	2.707546	0.206391	0.272500	-0.264858	-0.474609	-0.181641	0.427734	-10.515077	-79.641763	170.710492
63887		7.815142	0.987811	2.505487	0.192497	0.230076	-0.339280	-0.482910	-0.183594	0.422363	-9.233064	-79.547148	169.523038
63888		7.686210	0.663980	2.286383	0.264504	0.149943	-0.356992	-0.471680	-0.187988	0.419189	-7.917602	-79.493656	168.342857
63889		7.597675	0.328999	2.178966	0.351350	0.086293	-0.321802	-0.476074	-0.193115	0.421387	-6.691288	-79.469965	167.304193
63890		7.686459	-0.062886	2.146758	0.336537	0.087242	-0.250341	-0.467529	-0.187256	0.424072	-5.701856	-79.436693	166.497384
63891		7.688810	-0.281412	2.065980	0.260642	0.070827	-0.161966	-0.473877	-0.190674	0.418701	-5.030994	-79.406861	165.970702
63892		7.895908	-0.216756	1.817336	0.185665	0.050415	-0.091451	-0.471191	-0.196045	0.423096	-4.630847	-79.383405	165.675319
63893		8.205515	-0.068696	1.708166	0.102073	0.074584	-0.030924	-0.478271	-0.200684	0.424561	-4.453700	-79.344093	165.558440
63894		8.620383	0.223755	1.733716	0.062132	0.098002	0.018410	-0.480957	-0.197510	0.421143	-4.448737	-79.288200	165.593109
63895		9.060522	0.517852	1.738687	0.080576	0.111916	0.063933	-0.479248	-0.189209	0.420654	-4.561905	-79.223282	165.759148
63896		9.257816	0.818933	1.713008	0.129728	0.158126	0.083923	-0.476074	-0.192627	0.425049	-4.697810	-79.130006	165.976697
63897		9.083166	1.015714	1.825283	0.143635	0.205953	0.084544	-0.476074	-0.193604	0.415039	-4.808380	-79.010282	166.176991
63898		8.904494	1.029485	1.993654	0.122283	0.226063	0.063921	-0.480957	-0.191895	0.419922	-4.866626	-78.879046	166.311264
63899		8.704508	0.764605	1.983680	0.089168	0.183793	0.024726	-0.481201	-0.195557	0.413818	-4.835516	-78.774807	166.335496
63900		8.671595	0.549257	1.853057	0.106841	0.138473	-0.010666	-0.478027	-0.189453	0.408447	-4.707653	-78.697162	166.271109
63901		8.601491	0.427215	1.620643	0.123583	0.137267	-0.035230	-0.479980	-0.191162	0.414063	-4.498643	-78.622273	166.134024
63902		8.477764	0.342600	1.334329	0.117068	0.118499	-0.033485	-0.485352	-0.188965	0.416260	-4.307781	-78.556969	166.011327
63903		8.411392	0.330538	1.263265	0.097473	0.079618	-0.025214	-0.480469	-0.199463	0.412842	-4.157856	-78.514424	165.919206
63904		8.350391	0.341655	1.067055	0.077146	0.041685	-0.005556	-0.497803	-0.187988	0.414795	-4.086244	-78.491778	165.894833
63905		8.292150	0.309062	0.858674	0.077821	-0.012296	0.019310	-0.486084	-0.187012	0.416260	-4.091898	-78.499897	165.949976
63906		8.336438	0.341829	0.834979	0.107282	-0.056057	0.054512	-0.485352	-0.198486	0.414063	-4.191675	-78.530668	166.118126
63907		8.354968	0.382789	0.887345	0.121031	-0.091115	0.106085	-0.489258	-0.197998	0.422607	-4.434685	-78.580037	166.440689
63908		8.455333	0.478431	0.805383	0.113345	-0.111232	0.149989	-0.483398	-0.193604	0.412598	-4.816804	-78.637673	166.900357
63909		8.539040	0.534042	0.826533	0.103934	-0.118068	0.196323	-0.484375	-0.184082	0.411865	-5.339871	-78.696989	167.498428
63910		8.672614	0.655849	0.867947	0.101531	-0.107723	0.230919	-0.482422	-0.189941	0.413818	-5.968708	-78.746472	168.202609
63911		8.812247	0.826279	1.009866	0.043175	-0.063376	0.277064	-0.479980	-0.189209	0.414795	-6.751720	-78.766875	169.030031
63912		8.910243	1.046156	1.013569	-0.053152	-0.026694	0.319959	-0.487061	-0.184814	0.414795	-7.703498	-78.760133	169.973030
63913		8.917271	1.299062	1.029541	-0.150976	-0.018870	0.358915	-0.483887	-0.188232	0.420166	-8.815279	-78.743204	171.022256
63914		8.911312	1.342833	0.849088	-0.204324	-0.037222	0.375729	-0.483154	-0.183105	0.415771	-10.012330	-78.730237	172.127156
63915		9.063203	1.102309	0.595924	-0.215936	-0.079261	0.379788	-0.490479	-0.183838	0.414551	-11.246279	-78.736663	173.263064
63916		9.369045	0.747197	0.567752	-0.197276	-0.155576	0.359494	-0.485352	-0.182617	0.420898	-12.461728	-78.782873	174.390792
63917		9.743848	0.465356	0.603317	-0.164229	-0.188093	0.334536	-0.482910	-0.176514	0.417236	-13.618138	-78.846560	175.477540
63918		9.971869	0.220876	0.585303	-0.159833	-0.160037	0.305295	-0.486816	-0.191650	0.416504	-14.681834	-78.894079	176.472067
63919		10.125838	-0.051774	0.505372	-0.148596	-0.143998	0.251856	-0.482910	-0.178711	0.423340	-15.583332	-78.938003	177.307808
63920		10.236835	-0.144907	0.415575	-0.059386	-0.154154	0.195978	-0.488037	-0.184326	0.420410	-16.291589	-78.993549	177.998525
63921		10.531928	-0.014053	0.528331	0.070477	-0.143833	0.139927	-0.486084	-0.192871	0.416504	-16.763895	-79.051699	178.524630
63922		10.725444	0.159810	0.454302	0.180452	-0.150050	0.098455	-0.486084	-0.177246	0.418457	-17.066362	-79.119074	178.941758
63923		10.797599	0.153605	-0.138146	0.253586	-0.180931	0.082877	-0.491699	-0.173584	0.427734	-17.313756	-79.206029	179.345439
63924		10.742268	-0.192590	-0.629550	0.254981	-0.207259	0.086324	-0.483887	-0.180664	0.422852	-17.600334	-79.306115	179.789632
63925		10.629864	-0.244928	-0.888688	0.157315	-0.245708	0.130307	-0.490967	-0.173584	0.417480	-18.114205	-79.419175	-179.591942
63926		10.561776	0.281490	-0.830277	-0.008348	-0.296436	0.174032	-0.478027	-0.171631	0.416992	-18.915528	-79.550352	-178.778001
63927		10.705705	1.079112	-0.704823	-0.243371	-0.471156	0.164776	-0.481689	-0.177002	0.425537	-20.032455	-79.775352	-177.780535
63928		11.744919	1.717728	-0.303420	-0.428174	-0.739340	0.049121	-0.477783	-0.179443	0.420166	-21.268157	-80.163771	-176.770983
63929		13.681025	1.208579	0.255238	-0.360590	-0.830506	-0.228794	-0.475342	-0.179199	0.432861	-21.782867	-80.656483	-176.454667
63930		15.091333	0.172301	1.350534	-0.034391	-0.591866	-0.573976	-0.467773	-0.182129	0.437744	-20.654568	-81.093736	-177.613533
63931		15.157316	-1.040966	2.756908	0.088881	-0.317682	-0.793335	-0.469482	-0.186523	0.430420	-18.206149	-81.418626	179.964638
63932		14.776579	-2.331139	3.405153	0.067855	-0.228280	-0.817592	-0.470459	-0.185059	0.444336	-15.398206	-81.681420	177.169048
63933		12.917124	-2.266510	3.256362	0.035884	-0.186537	-0.697180	-0.468018	-0.198486	0.431641	-12.870497	-81.884602	174.639738
63934		11.222983	-1.422829	4.058241	-0.146513	-0.171497	-0.478062	-0.467773	-0.199707	0.434814	-11.197045	-82.039813	172.868718
63935		10.716083	-0.225574	4.853399	-0.441324	-0.227216	-0.260946	-0.464600	-0.207031	0.437012	-10.560668	-82.197812	171.974833
63936		10.550752	0.724858	4.657930	-0.630795	-0.217391	-0.121130	-0.472168	-0.204834	0.429688	-10.582203	-82.334806	171.635634
63937		10.330101	1.263657	4.494695	-0.745982	-0.264953	-0.072841	-0.470215	-0.212402	0.438232	-10.908072	-82.493662	171.537017
63938		10.225082	1.492281	4.054450	-0.808006	-0.236478	-0.092426	-0.462646	-0.215820	0.431885	-11.164980	-82.638453	171.333065
63939		9.758209	1.154777	4.111482	-0.744242	-0.091437	-0.150040	-0.461182	-0.220703	0.432373	-11.007430	-82.708328	170.748114
63940		9.226856	0.715339	3.906241	-0.645750	-0.045751	-0.234373	-0.457520	-0.216797	0.435059	-10.373084	-82.760531	169.739531
63941		9.077394	0.287020	3.455868	-0.623611	-0.067511	-0.308149	-0.465088	-0.227539	0.432129	-9.400357	-82.830882	168.402742
63942		9.308346	-0.245062	3.323055	-0.607978	-0.037803	-0.355231	-0.461914	-0.233887	0.433594	-8.161443	-82.884753	166.806970
63943		9.476789	-0.953826	3.213796	-0.575513	-0.010062	-0.405062	-0.470947	-0.241455	0.427002	-6.641145	-82.922280	164.946470
63944		9.542204	-1.732233	2.885432	-0.493432	-0.053879	-0.452146	-0.463379	-0.247803	0.428711	-4.855345	-82.980198	162.866095
63945		9.649221	-2.212455	2.723943	-0.398426	-0.114281	-0.468382	-0.463379	-0.250000	0.433350	-2.923690	-83.065622	160.693871
63946		9.562459	-2.372038	2.590939	-0.281013	-0.116609	-0.412283	-0.457764	-0.253418	0.428711	-1.143634	-83.141905	158.742512
63947		9.439985	-2.329956	2.396429	-0.151615	-0.101106	-0.285559	-0.457275	-0.253418	0.434570	0.141048	-83.203111	157.364987
63948		9.561203	-2.292110	2.282298	-0.066724	-0.060171	-0.111054	-0.460938	-0.259277	0.433350	0.648160	-83.238176	156.819607
63949		9.581278	-2.081164	2.068442	0.024774	0.005507	0.048429	-0.459717	-0.253906	0.437256	0.437720	-83.237114	157.049634
63950		9.697569	-1.636942	2.045507	0.063811	0.042369	0.190948	-0.469971	-0.257080	0.428711	-0.439645	-83.213819	157.973748
63951		9.611015	-1.101158	1.985505	0.083131	0.085839	0.297544	-0.467041	-0.255615	0.429932	-1.801852	-83.163158	159.397425
63952		9.235825	-0.622665	1.947051	0.051515	0.118924	0.356002	-0.463379	-0.254395	0.430908	-3.430488	-83.086729	161.071327
63953		8.704793	-0.356941	1.955673	-0.009707	0.131049	0.357531	-0.475098	-0.253418	0.432373	-5.056496	-82.998564	162.707613
63954		8.311635	-0.225091	1.903451	-0.023693	0.121402	0.321947	-0.472900	-0.250000	0.433350	-6.493100	-82.911721	164.145208
63955		8.063722	-0.040791	1.707372	-0.048015	0.101057	0.265124	-0.479004	-0.250488	0.427246	-7.662146	-82.837446	165.299450
63956		7.896229	-0.043260	1.526855	-0.070527	0.088845	0.208762	-0.470215	-0.242188	0.432861	-8.578330	-82.771057	166.185930
63957		7.791362	-0.208607	1.429713	-0.074288	0.083768	0.143068	-0.469971	-0.248291	0.428711	-9.191814	-82.712894	166.765286
63958		7.890561	-0.503731	1.422054	-0.074432	0.112235	0.081944	-0.476563	-0.250488	0.430176	-9.508640	-82.642702	167.045477
63959		8.200826	-0.757680	1.570141	-0.050787	0.148565	0.045497	-0.469482	-0.254883	0.427490	-9.620205	-82.556354	167.132462
63960		8.496044	-0.972897	1.642732	-0.050713	0.173235	0.027947	-0.480469	-0.253662	0.419189	-9.638232	-82.456685	167.125090
63961		8.524999	-1.125054	1.718728	-0.078990	0.193801	0.032786	-0.482666	-0.245605	0.415039	-9.676221	-82.345991	167.121584
63962		8.515150	-1.201600	1.679223	-0.114967	0.208988	0.028808	-0.479980	-0.242432	0.415283	-9.708886	-82.226017	167.091813
63963		8.359814	-1.182009	1.392877	-0.130959	0.231003	0.017647	-0.489746	-0.245605	0.417236	-9.687998	-82.095774	166.998816
63964		8.234069	-1.087250	1.213226	-0.122422	0.254704	-0.001309	-0.488037	-0.251709	0.416504	-9.574487	-81.952837	166.817089
63965		8.093446	-1.053940	1.151404	-0.086960	0.272778	-0.030342	-0.493408	-0.254395	0.411621	-9.318073	-81.803441	166.511579
63966		8.091843	-1.139555	1.222087	-0.037449	0.277256	-0.043357	-0.490479	-0.255371	0.402344	-8.993172	-81.651375	166.165283
63967		8.291096	-1.136759	1.225257	0.004481	0.252335	-0.049102	-0.481689	-0.260498	0.407227	-8.646527	-81.514738	165.821293
63968		8.455191	-1.144846	1.160215	0.018498	0.232492	-0.035923	-0.487793	-0.250244	0.406006	-8.365877	-81.386851	165.551891
63969		8.516371	-1.069005	1.090473	0.021361	0.217600	-0.024487	-0.480957	-0.254883	0.408447	-8.138866	-81.267394	165.338472
63970		8.463209	-0.906831	1.056048	0.022635	0.202749	-0.019246	-0.499023	-0.256836	0.409180	-7.946835	-81.154734	165.160946
63971		8.362675	-0.747973	1.124124	0.024245	0.186653	-0.023869	-0.497314	-0.261230	0.406738	-7.746670	-81.052568	164.976243
63972		8.365096	-0.638234	1.074588	0.027669	0.144129	-0.035505	-0.488037	-0.250488	0.399902	-7.530749	-80.974260	164.777338
63973		8.469881	-0.624533	0.968211	0.037456	0.108538	-0.047497	-0.494873	-0.254883	0.404541	-7.283128	-80.918007	164.552165
63974		8.585421	-0.624120	0.759806	0.056370	0.066983	-0.066358	-0.493652	-0.255859	0.392822	-6.982415	-80.885500	164.283967
63975		8.727947	-0.601812	0.584653	0.075404	0.043487	-0.083021	-0.494873	-0.250977	0.404541	-6.620113	-80.868295	163.964622
63976		8.826645	-0.474966	0.448062	0.077613	0.028370	-0.085022	-0.493164	-0.260010	0.405762	-6.260320	-80.858502	163.648870
63977		8.862762	-0.408708	0.457506	0.052574	0.022456	-0.081417	-0.500488	-0.260986	0.410645	-5.926816	-80.852557	163.345426
63978		8.885441	-0.318374	0.328499	-0.000312	0.010968	-0.082602	-0.495361	-0.258057	0.407715	-5.627677	-80.852018	163.045866
63979		8.874748	-0.361607	0.299338	-0.055555	0.000891	-0.089706	-0.493408	-0.263916	0.412598	-5.334514	-80.858311	162.720531
63980		8.980389	-0.559465	0.472780	-0.103396	-0.011897	-0.108639	-0.496826	-0.265137	0.396484	-5.009096	-80.871724	162.334538
63981		9.119464	-0.941250	0.326213	-0.131797	-0.025541	-0.117221	-0.491699	-0.264648	0.398193	-4.668284	-80.893857	161.916726
63982		9.161204	-1.170445	0.095843	-0.131693	-0.061152	-0.144189	-0.491699	-0.269043	0.403320	-4.242860	-80.936281	161.413073
63983		9.256872	-1.308315	-0.126592	-0.092436	-0.076795	-0.169364	-0.504639	-0.270264	0.399902	-3.699136	-80.988774	160.812728
63984		9.614784	-1.256625	-0.181616	-0.021518	-0.083458	-0.188822	-0.501465	-0.270264	0.400879	-3.043551	-81.044028	160.140078
63985		9.960750	-1.117534	-0.375107	0.059155	-0.059259	-0.202726	-0.492188	-0.269043	0.411377	-2.274188	-81.085198	159.399413
63986		10.288567	-0.988682	-0.378625	0.132796	-0.017157	-0.199944	-0.492920	-0.274414	0.403076	-1.467212	-81.100018	158.663131
63987		10.495726	-0.876680	-0.149171	0.128838	-0.014277	-0.171675	-0.497559	-0.271973	0.403076	-0.758102	-81.111955	158.023947
63988		10.761085	-0.878021	-0.133430	0.067110	-0.033073	-0.127718	-0.489502	-0.276367	0.405518	-0.249935	-81.132906	157.552042
63989		10.852932	-0.859649	-0.139910	-0.005361	-0.020940	-0.079609	-0.496094	-0.278809	0.400879	0.047550	-81.146821	157.251695
63990		10.887285	-0.664187	-0.377879	-0.106047	-0.028566	-0.048235	-0.499268	-0.283203	0.399170	0.166737	-81.164593	157.073066
63991		10.761922	-0.553796	-0.821237	-0.220420	-0.071344	-0.042949	-0.489990	-0.270996	0.398926	0.208174	-81.207223	156.907172
63992		10.490868	-0.595703	-1.272923	-0.280594	-0.106567	-0.072412	-0.495850	-0.278564	0.398438	0.320405	-81.269669	156.634416
63993		10.690407	-0.798751	-1.307138	-0.198295	-0.099494	-0.105060	-0.494629	-0.284668	0.395264	0.611410	-81.328014	156.228922
63994		11.896334	-0.854055	-0.123225	-0.004525	-0.029478	-0.075764	-0.491211	-0.282471	0.397949	0.897026	-81.346067	155.940835
63995		13.762961	-0.230704	0.978776	0.044492	-0.129639	0.074308	-0.479736	-0.283936	0.404053	0.656581	-81.422742	156.213643
63996		14.479898	0.556465	1.258772	-0.228594	-0.309155	0.252013	-0.493652	-0.285889	0.396973	-0.438186	-81.601967	157.191542
63997		14.547846	1.505342	1.980420	-0.676771	-0.168335	0.365182	-0.498291	-0.281738	0.403809	-2.258274	-81.695325	158.643050
63998		14.777581	2.613165	2.778576	-0.676192	-0.138037	0.436544	-0.490723	-0.289063	0.400635	-4.393794	-81.761606	160.412973
63999		14.325502	2.404894	3.819689	-0.561788	-0.135623	0.482707	-0.499023	-0.289063	0.397217	-6.667947	-81.814194	162.389299
64000		13.207835	1.894830	4.172265	-0.800355	0.204948	0.443724	-0.495605	-0.280273	0.386475	-8.752237	-81.665468	164.035579
64001		11.151220	0.418390	4.615623	-0.941876	0.305273	0.287234	-0.498779	-0.289307	0.385742	-10.186473	-81.467783	164.943771
64002		9.327745	-1.034941	4.398261	-0.695251	0.370316	-0.008771	-0.503662	-0.291504	0.389648	-10.302324	-81.261522	164.661598
64003		8.518732	-1.882251	4.626888	-0.351641	0.013489	-0.189998	-0.502686	-0.303711	0.384277	-9.791096	-81.274828	163.944375
64004		8.548619	-2.360948	4.069273	0.107153	-0.140690	-0.279427	-0.504395	-0.293213	0.383301	-8.777566	-81.381698	162.984785
64005		8.658785	-2.619352	4.243558	0.536820	-0.047130	-0.270162	-0.503906	-0.299805	0.385742	-7.474693	-81.432225	161.982025
64006		8.917107	-3.102077	4.182231	0.719604	-0.068651	-0.163923	-0.499268	-0.300293	0.392090	-6.472315	-81.484006	161.388852
64007		9.706714	-3.562136	4.345322	0.735940	-0.154201	-0.001644	-0.500732	-0.295654	0.385742	-6.102404	-81.573826	161.445009
64008		10.587560	-2.930867	4.174149	0.571729	-0.115946	0.192171	-0.500732	-0.289795	0.395264	-6.565337	-81.628875	162.247561
64009		10.936031	-1.560611	3.538266	0.391984	-0.023856	0.403030	-0.503174	-0.284668	0.390869	-7.901217	-81.615264	163.828695
64010		10.845863	-0.386137	3.115656	0.337801	0.009818	0.538774	-0.502441	-0.286621	0.393066	-9.765452	-81.563307	165.912291
64011		10.197196	0.421492	2.808150	0.338180	0.033073	0.531291	-0.512207	-0.285889	0.398438	-11.550448	-81.490303	167.916717
64012		9.343033	0.922737	2.497587	0.330005	0.093738	0.404710	-0.505371	-0.274414	0.395996	-12.792592	-81.389811	169.367531
64013		8.780068	1.210145	2.394846	0.286730	0.141949	0.250835	-0.508789	-0.284912	0.395752	-13.420418	-81.279946	170.172623
64014		8.545247	1.343015	2.302778	0.258199	0.135094	0.085911	-0.509521	-0.276123	0.394287	-13.466255	-81.194075	170.372196
64015		8.609746	1.216597	2.365160	0.283016	0.124239	-0.074619	-0.516846	-0.273682	0.393555	-12.926438	-81.136472	169.993839
64016		8.581120	0.777640	2.375889	0.295300	0.124848	-0.210112	-0.510986	-0.276123	0.395508	-11.905917	-81.093328	169.135720
64017		8.355686	0.440106	2.151607	0.292838	0.109930	-0.295367	-0.515381	-0.283691	0.392822	-10.596605	-81.066503	167.984057
64018		8.043484	0.341414	1.961039	0.328908	0.076817	-0.327489	-0.512939	-0.282715	0.400391	-9.183305	-81.056186	166.747715
64019		7.749528	0.223107	1.833291	0.374442	0.063561	-0.311796	-0.509277	-0.278564	0.393066	-7.806104	-81.048471	165.574571
64020		7.587335	-0.086142	1.917110	0.385937	0.084708	-0.246186	-0.512695	-0.282715	0.389160	-6.657341	-81.018879	164.639030
64021		7.506105	-0.259310	1.929747	0.363177	0.104068	-0.161332	-0.514648	-0.288818	0.392822	-5.821762	-80.971549	164.007547
64022		7.463560	-0.287395	1.826565	0.368806	0.093110	-0.088756	-0.508301	-0.288086	0.396729	-5.258132	-80.924132	163.654355
64023		7.577406	-0.209129	1.876988	0.373455	0.080141	-0.021146	-0.511475	-0.284180	0.394531	-4.936364	-80.881361	163.549029
64024		7.759789	0.109458	1.898662	0.330543	0.100606	0.034357	-0.508789	-0.274902	0.393066	-4.835876	-80.822996	163.642645
64025		8.175111	0.649592	1.882236	0.251287	0.142424	0.078461	-0.516846	-0.267334	0.392822	-4.918188	-80.739752	163.875737
64026		8.568150	1.205725	2.007766	0.186189	0.198079	0.101193	-0.512939	-0.282227	0.395264	-5.100437	-80.622350	164.172114
64027		8.785958	1.570998	2.042175	0.145549	0.220381	0.105347	-0.515381	-0.282959	0.391846	-5.302840	-80.493017	164.465682
64028		8.871227	1.597982	2.007668	0.140903	0.193050	0.075218	-0.512695	-0.279785	0.383789	-5.412296	-80.379567	164.662173
64029		8.827636	1.380436	1.777517	0.147727	0.168284	0.020119	-0.520752	-0.272949	0.383301	-5.335311	-80.284381	164.673787
64030		8.569106	0.898814	1.695724	0.172204	0.112149	-0.020828	-0.513184	-0.281738	0.385986	-5.129603	-80.222174	164.568840
64031		8.247597	0.380281	1.579757	0.181424	0.060330	-0.035174	-0.523926	-0.276123	0.392822	-4.885125	-80.191385	164.430081
64032		8.197565	-0.026353	1.531253	0.236940	-0.008414	-0.013576	-0.516846	-0.280273	0.392578	-4.702798	-80.197531	164.386499
64033		8.408623	-0.187521	1.237870	0.264601	-0.071073	0.025115	-0.524902	-0.273193	0.395020	-4.646825	-80.238829	164.487391
64034		8.639519	-0.124120	0.954604	0.198903	-0.079186	0.083177	-0.529053	-0.275391	0.395508	-4.827261	-80.280808	164.789777
64035		8.752177	0.132235	0.599114	0.147601	-0.094089	0.147359	-0.525879	-0.280762	0.390869	-5.255942	-80.328976	165.314311
64036		8.836071	0.442975	0.462458	0.124220	-0.118469	0.198687	-0.521484	-0.277588	0.395508	-5.886320	-80.386224	166.029600
64037		8.916900	0.660261	0.448310	0.116372	-0.158532	0.237792	-0.528076	-0.270996	0.386719	-6.674811	-80.463506	166.900696
64038		9.072511	0.793065	0.357053	0.099897	-0.192868	0.266732	-0.522217	-0.265381	0.400391	-7.602586	-80.554970	167.903081
64039		9.198112	0.812330	0.354614	0.085163	-0.203651	0.290697	-0.529053	-0.277588	0.400635	-8.643385	-80.648864	169.011341
64040		9.313425	0.820111	0.569636	0.083911	-0.221439	0.301520	-0.528809	-0.266846	0.393799	-9.756026	-80.747368	170.191253
64041		9.347830	0.901034	0.766054	0.087822	-0.223847	0.303434	-0.529297	-0.267334	0.398682	-10.897317	-80.844311	171.402246
64042		9.173060	1.092981	1.022191	0.074426	-0.227009	0.291602	-0.531006	-0.265137	0.399902	-12.032858	-80.939513	172.599227
64043		9.016172	1.272684	1.033626	0.034512	-0.247315	0.282503	-0.530762	-0.263916	0.405273	-13.199322	-81.044382	173.804117
64044		9.017858	1.371885	0.729692	-0.031703	-0.269483	0.271129	-0.529297	-0.268311	0.401123	-14.411650	-81.158241	175.016617
64045		9.173701	1.132757	0.580203	-0.092737	-0.289066	0.273744	-0.527344	-0.262695	0.404785	-15.719051	-81.279358	176.289595
64046		9.357250	0.749304	0.424313	-0.121032	-0.288518	0.273220	-0.540527	-0.265381	0.409668	-17.075532	-81.394806	177.595403
64047		9.640385	0.322087	0.211012	-0.120859	-0.289068	0.261530	-0.533691	-0.260498	0.407471	-18.425863	-81.508820	178.894712
64048		9.901258	-0.019053	-0.181548	-0.057719	-0.298331	0.245483	-0.534912	-0.260254	0.414551	-19.727676	-81.625524	-179.818840
64049		10.174501	-0.046697	-0.431935	0.026348	-0.290480	0.237756	-0.530762	-0.263672	0.423096	-20.978179	-81.736148	-178.535950
64050		10.390235	0.137675	-0.488071	0.131605	-0.283033	0.249878	-0.525391	-0.251709	0.419922	-22.234202	-81.835427	-177.186881
64051		10.521250	0.418275	-0.531765	0.176328	-0.216982	0.264874	-0.530029	-0.255127	0.412842	-23.445972	-81.893048	-175.856904
64052		10.563696	0.331353	-0.796427	0.113600	-0.130513	0.270544	-0.533691	-0.255371	0.423828	-24.585038	-81.899595	-174.636753
64053		10.408647	-0.018958	-1.464085	0.061098	-0.039839	0.262861	-0.535645	-0.253906	0.415771	-25.571202	-81.858378	-173.601407
64054		10.276500	-0.227857	-1.492413	0.043967	-0.017477	0.262125	-0.533203	-0.252441	0.416504	-26.513049	-81.802895	-172.620595
64055		10.341778	-0.172898	-1.111218	0.016494	-0.096596	0.254881	-0.530762	-0.242188	0.425537	-27.578075	-81.787724	-171.531176
64056		10.891626	-0.164642	-0.559275	-0.067746	-0.286468	0.176049	-0.533691	-0.250732	0.424316	-28.774181	-81.886368	-170.358184
64057		12.391824	-0.517343	-0.807798	0.024031	-0.745962	-0.026370	-0.528076	-0.251221	0.428711	-30.175561	-82.267846	-168.925576
64058		14.211683	-0.823893	0.338765	0.309507	-1.001396	-0.324068	-0.526611	-0.252686	0.437012	-31.008693	-82.857941	-167.902702
64059		14.060939	-0.245976	2.572326	0.231096	-0.391150	-0.451417	-0.528320	-0.245850	0.435059	-29.983858	-83.184238	-168.797965
64060		13.460335	-0.885604	2.891198	-0.008372	0.205267	-0.435549	-0.525635	-0.259277	0.426758	-27.679202	-83.203253	-171.119957
64061		13.362717	-1.607136	2.667234	0.001993	0.093601	-0.465931	-0.531738	-0.269531	0.435059	-25.459322	-83.276647	-173.350405
64062		12.860480	-1.543358	3.697479	0.163726	0.040208	-0.456516	-0.526367	-0.262695	0.435059	-23.245807	-83.365169	-175.480752
64063		12.096391	-1.319472	4.882736	0.075659	0.137773	-0.368814	-0.529053	-0.266357	0.437988	-21.259530	-83.374087	-177.432941
64064		11.471440	-0.873046	5.211270	-0.040987	0.087149	-0.348809	-0.531494	-0.265137	0.437500	-19.512601	-83.398390	-179.211380
64065		10.712855	0.470286	4.405233	0.007037	-0.081850	-0.360600	-0.527100	-0.265625	0.427490	-17.930053	-83.511083	179.203566
64066		10.306610	1.058203	4.420053	-0.056865	-0.132532	-0.314571	-0.525635	-0.269775	0.432617	-16.628724	-83.638455	177.865071
64067		10.128710	0.598665	4.487806	-0.214861	-0.045006	-0.250147	-0.524902	-0.275146	0.436523	-15.569595	-83.704926	176.679404
64068		9.780754	0.136122	4.452056	-0.268113	0.073186	-0.199296	-0.527588	-0.275635	0.436279	-14.618377	-83.695344	175.571727
64069		9.603713	0.140506	4.068985	-0.379699	0.061523	-0.158182	-0.537598	-0.278809	0.429932	-13.957344	-83.685495	174.691604
64070		9.511007	0.481891	3.535318	-0.475396	0.045289	-0.138187	-0.521240	-0.284424	0.428955	-13.471400	-83.680072	173.932530
64071		9.274358	0.639751	3.281607	-0.485245	0.053877	-0.173639	-0.526611	-0.291504	0.434082	-12.805773	-83.674564	172.986919
64072		9.144254	0.361203	3.185493	-0.450441	0.041147	-0.242676	-0.527832	-0.290771	0.425293	-11.783582	-83.682038	171.702714
64073		9.226144	-0.244669	3.050295	-0.419718	0.029199	-0.299786	-0.536377	-0.293945	0.431396	-10.463786	-83.700692	170.136748
64074		9.321266	-0.843602	2.795977	-0.358112	0.037884	-0.314128	-0.527588	-0.301758	0.428711	-9.018222	-83.710533	168.479897
64075		9.338586	-1.306192	2.523626	-0.244591	0.059669	-0.276132	-0.532227	-0.306152	0.416016	-7.686655	-83.701602	167.003082
64076		9.354344	-1.551656	2.363852	-0.148193	0.075617	-0.199138	-0.531738	-0.307617	0.429199	-6.690110	-83.673569	165.918919
64077		9.298143	-1.578724	2.231227	-0.097675	0.145084	-0.091577	-0.534180	-0.308838	0.428955	-6.187071	-83.598747	165.360267
64078		9.150383	-1.409610	1.980191	-0.056967	0.212712	0.014030	-0.534180	-0.311768	0.427246	-6.166011	-83.477319	165.310088
64079		8.827995	-1.136443	1.945265	-0.020384	0.259812	0.115190	-0.538086	-0.312744	0.420410	-6.593855	-83.323942	165.732847
64080		8.416768	-0.961426	1.969869	-0.019757	0.261033	0.179385	-0.537598	-0.306885	0.416748	-7.305851	-83.163608	166.442272
64081		8.100307	-0.860971	1.890130	-0.044792	0.250200	0.213097	-0.531494	-0.317139	0.425781	-8.162825	-83.007030	167.283492
64082		7.905559	-0.680458	1.904024	-0.091067	0.232798	0.212578	-0.543457	-0.304199	0.418457	-9.018456	-82.857485	168.096943
64083		7.867351	-0.505844	1.795032	-0.159466	0.216840	0.197712	-0.548096	-0.301025	0.416016	-9.825566	-82.718292	168.822216
64084		7.923453	-0.411698	1.728834	-0.196554	0.181722	0.160767	-0.539551	-0.307617	0.414063	-10.492614	-82.600071	169.385076
64085		8.135242	-0.372236	1.676297	-0.200276	0.172151	0.117753	-0.549072	-0.308105	0.416016	-10.967449	-82.492525	169.752055
64086		8.378945	-0.431177	1.625286	-0.197534	0.166346	0.072909	-0.553223	-0.301758	0.415039	-11.244607	-82.391448	169.921322
64087		8.665447	-0.496731	1.615394	-0.199174	0.161429	0.034449	-0.549316	-0.307861	0.412842	-11.361837	-82.298812	169.928289
64088		8.848298	-0.660691	1.644982	-0.202768	0.169606	-0.010390	-0.554199	-0.309814	0.403564	-11.288440	-82.205174	169.740818
64089		8.939066	-0.832730	1.549495	-0.207641	0.177046	-0.050391	-0.552002	-0.310303	0.416992	-11.053021	-82.113178	169.386914
64090		8.853841	-0.984652	1.582397	-0.220931	0.201830	-0.078418	-0.551025	-0.308105	0.406982	-10.700559	-82.008554	168.907073
64091		8.935042	-1.141614	1.661888	-0.242404	0.239517	-0.105714	-0.552734	-0.307129	0.407471	-10.236094	-81.886533	168.301544
64092		8.998522	-1.144708	1.567991	-0.237280	0.252803	-0.117350	-0.561523	-0.318115	0.404053	-9.730736	-81.755975	167.657470
64093		9.003860	-1.065774	1.439464	-0.242100	0.252694	-0.104308	-0.561523	-0.314209	0.403809	-9.295796	-81.624978	167.081564
64094		8.988641	-0.882696	1.401891	-0.262463	0.252050	-0.089435	-0.566895	-0.317383	0.398193	-8.945536	-81.490939	166.579246
64095		8.966679	-0.680151	1.391150	-0.298457	0.249689	-0.065775	-0.559570	-0.319336	0.394043	-8.717633	-81.357274	166.179666
64096		8.937295	-0.475586	1.215851	-0.347799	0.211215	-0.047573	-0.566162	-0.331543	0.399902	-8.616403	-81.242174	165.879459
64097		8.928781	-0.335443	0.959332	-0.407419	0.184186	-0.032015	-0.562012	-0.335938	0.396973	-8.624403	-81.142498	165.655174
64098		8.817423	-0.297501	0.735591	-0.446998	0.174018	-0.041849	-0.562988	-0.333740	0.386719	-8.628691	-81.047968	165.404069
64099		8.733421	-0.274192	0.665764	-0.461839	0.162421	-0.060565	-0.565430	-0.328369	0.389404	-8.582321	-80.963060	165.093053
64100		8.715934	-0.288775	0.733153	-0.458187	0.160985	-0.090908	-0.569580	-0.331787	0.386963	-8.432143	-80.880033	164.678903
64101		8.720479	-0.353246	0.777191	-0.472347	0.125649	-0.106850	-0.573975	-0.337158	0.387451	-8.255602	-80.819598	164.229805
64102		8.751050	-0.458789	0.723620	-0.483977	0.101092	-0.122859	-0.567139	-0.339600	0.386963	-8.047378	-80.772772	163.741730
64103		8.739839	-0.690105	0.731449	-0.491942	0.104190	-0.132705	-0.564453	-0.343018	0.382080	-7.809988	-80.726041	163.219478
64104		8.690251	-0.888887	0.813798	-0.506259	0.115860	-0.146815	-0.566895	-0.339844	0.372559	-7.532320	-80.672049	162.647948
64105		8.725931	-1.151469	0.963254	-0.514355	0.101050	-0.159323	-0.570557	-0.347900	0.381104	-7.225628	-80.628258	162.042299
64106		8.803044	-1.263045	0.811532	-0.494503	0.077155	-0.173203	-0.572998	-0.353760	0.367432	-6.876109	-80.597166	161.404605
64107		8.876911	-1.250147	0.567477	-0.443077	0.038755	-0.185673	-0.564697	-0.353516	0.370605	-6.470080	-80.589372	160.739562
64108		8.825467	-1.190620	0.386705	-0.383732	-0.002280	-0.184734	-0.571533	-0.361084	0.368652	-6.051585	-80.602853	160.096225
64109		8.687669	-1.116135	0.192189	-0.339900	-0.053433	-0.190650	-0.578613	-0.352051	0.366211	-5.600271	-80.646289	159.445259
64110		8.686881	-1.232744	-0.070935	-0.312883	-0.096845	-0.197471	-0.576416	-0.362793	0.375977	-5.121118	-80.712805	158.781718
64111		8.879348	-1.426344	-0.207902	-0.240554	-0.108876	-0.220295	-0.563965	-0.360840	0.366699	-4.511861	-80.787448	158.028634
64112		9.271768	-1.560086	-0.095357	-0.156017	-0.114261	-0.252691	-0.566406	-0.367676	0.372559	-3.732924	-80.863936	157.152711
64113		9.684548	-1.601083	0.024681	-0.058456	-0.115501	-0.268456	-0.570801	-0.363037	0.372314	-2.823754	-80.940671	156.201880
64114		10.033942	-1.473739	0.012894	0.007839	-0.119159	-0.270295	-0.560303	-0.366455	0.372070	-1.859207	-81.016077	155.233417
64115		10.349668	-1.332594	0.241178	0.038038	-0.118566	-0.248977	-0.567871	-0.366211	0.376221	-0.934354	-81.089318	154.323074
64116		10.621675	-1.018742	0.636349	0.020707	-0.130544	-0.193604	-0.562744	-0.370361	0.372070	-0.213926	-81.166161	153.609514
64117		10.694575	-0.661088	0.532774	-0.021310	-0.160135	-0.126986	-0.560547	-0.377686	0.376709	0.252888	-81.259720	153.128639
64118		10.660179	-0.237345	0.044185	-0.107876	-0.219879	-0.047256	-0.562988	-0.382813	0.371094	0.375647	-81.386547	152.945501
64119		10.542689	0.058298	-0.622218	-0.188309	-0.272945	-0.002800	-0.570068	-0.388672	0.370850	0.292853	-81.544749	152.923956
64120		10.345407	0.087204	-1.040131	-0.215826	-0.253534	-0.001953	-0.567383	-0.385254	0.381592	0.183451	-81.691100	152.913106
64121		10.336756	-0.267582	-1.077503	-0.175947	-0.210430	-0.030049	-0.566650	-0.379639	0.372559	0.212749	-81.813438	152.785470
64122		10.636769	-0.767388	-0.549290	-0.049818	-0.165497	-0.051961	-0.562012	-0.380127	0.375732	0.398457	-81.909320	152.572593
64123		11.717310	-0.791329	0.193931	0.098828	-0.171036	-0.016653	-0.559570	-0.377930	0.371338	0.536924	-82.009062	152.493767
64124		12.770044	-0.568011	0.534907	0.109233	-0.245741	0.093774	-0.566895	-0.379395	0.376953	0.222294	-82.151521	152.878152
64125		13.008098	-0.072196	1.346347	-0.024694	-0.192341	0.180801	-0.564209	-0.375000	0.379395	-0.542418	-82.263271	153.639539
64126		13.975349	1.152003	3.290671	-0.080719	-0.062152	0.251310	-0.567383	-0.380127	0.380615	-1.653821	-82.297459	154.717968
64127		16.332895	2.864830	4.751753	-0.093978	0.099010	0.422493	-0.573730	-0.376465	0.379150	-3.461320	-82.231837	156.491551
64128		15.782628	2.997223	3.759349	-0.464227	0.294861	0.591165	-0.571289	-0.375244	0.380127	-6.067013	-82.036550	158.857056
64129		12.861745	1.921573	3.615985	-0.888890	0.442812	0.451790	-0.579834	-0.392578	0.367188	-8.152806	-81.754624	160.453279
64130		10.652954	0.258371	4.141021	-0.745228	0.365023	0.186453	-0.585205	-0.382568	0.372314	-9.082957	-81.533012	160.965486
64131		9.729538	-1.676283	4.041033	-0.218717	0.235272	-0.023470	-0.590820	-0.380859	0.365479	-8.972456	-81.403905	160.730865
64132		9.677180	-2.627991	4.037570	0.036600	0.115752	-0.149583	-0.591064	-0.386719	0.359863	-8.324342	-81.352290	160.100200
64133		9.325631	-2.882711	4.038306	0.206777	0.071455	-0.202978	-0.588135	-0.386475	0.364014	-7.406096	-81.329555	159.295045
64134		8.173934	-3.014824	3.600242	0.499416	0.046601	-0.205186	-0.586182	-0.383545	0.364014	-6.331993	-81.318044	158.501574
64135		7.215860	-3.139101	3.251414	0.702811	-0.004278	-0.152695	-0.587402	-0.380615	0.374268	-5.353602	-81.331279	157.923038
64136		6.725337	-3.164275	3.295281	0.782004	0.045474	-0.025103	-0.583740	-0.374023	0.377197	-4.795022	-81.307423	157.814798
64137		6.542924	-2.985545	3.278840	0.758620	0.123126	0.132502	-0.582520	-0.382813	0.373291	-4.807436	-81.232651	158.270946
64138		6.954714	-2.433800	3.104258	0.690955	0.158053	0.267453	-0.592041	-0.379883	0.375732	-5.342844	-81.129589	159.216905
64139		8.049520	-1.434780	3.054177	0.611922	0.199075	0.338856	-0.587646	-0.368408	0.372559	-6.141371	-80.998558	160.383994
64140		9.462255	-0.195736	3.136070	0.530071	0.257534	0.370941	-0.601563	-0.373047	0.374512	-7.051233	-80.828141	161.616490
64141		10.639197	1.223973	2.970124	0.509071	0.328573	0.364326	-0.589844	-0.362793	0.367920	-7.870540	-80.616264	162.746039
64142		10.618686	2.102602	2.952704	0.512730	0.470290	0.305310	-0.609619	-0.359375	0.372070	-8.380522	-80.325290	163.564568
64143		9.482877	2.307108	2.929901	0.513602	0.530751	0.168810	-0.603516	-0.354492	0.367432	-8.376654	-80.012254	163.863150
64144		8.586215	2.027854	2.912564	0.475706	0.343512	0.002604	-0.600830	-0.349121	0.380371	-7.953291	-79.817686	163.713567
64145		8.490934	1.552349	3.012462	0.404710	0.162463	-0.137890	-0.608887	-0.356445	0.376465	-7.212873	-79.737745	163.200682
64146		8.741836	0.977162	2.863137	0.350212	0.117149	-0.235291	-0.613037	-0.354736	0.374756	-6.228596	-79.687283	162.407887
64147		8.824509	0.580578	2.420342	0.300258	0.082904	-0.293234	-0.602295	-0.351563	0.380127	-5.106836	-79.658495	161.446379
64148		8.916505	0.203920	1.960998	0.312104	-0.010047	-0.307714	-0.605225	-0.355469	0.375488	-3.963268	-79.678564	160.469377
64149		8.960566	0.030997	1.682330	0.343974	-0.051071	-0.304804	-0.609131	-0.360352	0.375244	-2.809578	-79.719959	159.500955
64150		8.876727	-0.147294	1.525340	0.360247	-0.047452	-0.272605	-0.609863	-0.354248	0.373047	-1.743854	-79.753720	158.631306
64151		8.777131	-0.200096	1.375564	0.402666	-0.030097	-0.220662	-0.606934	-0.363037	0.382324	-0.807975	-79.775622	157.918589
64152		8.751598	-0.110242	1.289833	0.435427	-0.006083	-0.146510	-0.609619	-0.362793	0.372803	-0.089695	-79.780164	157.445861
64153		8.761423	-0.069070	1.203700	0.446413	0.012548	-0.058070	-0.607666	-0.359131	0.393311	0.358013	-79.774727	157.254687
64154		8.878327	0.285443	1.254991	0.469648	0.029788	0.030346	-0.607178	-0.356201	0.384766	0.533620	-79.758213	157.353310
64155		9.025198	0.673331	1.327346	0.478439	0.063335	0.104989	-0.605469	-0.355713	0.380127	0.481195	-79.724284	157.689019
64156		9.160087	1.045913	1.381454	0.455640	0.102731	0.143535	-0.600830	-0.351074	0.388672	0.291538	-79.666413	158.150770
64157		9.240436	1.108062	1.422259	0.447087	0.109169	0.146371	-0.621094	-0.353027	0.388428	0.095458	-79.605976	158.614368
64158		9.319869	1.058065	1.232600	0.451347	0.092664	0.119390	-0.615967	-0.344482	0.394287	-0.013978	-79.553381	158.992247
64159		9.317485	1.139434	1.022926	0.441699	0.119878	0.107730	-0.610107	-0.351563	0.390869	-0.086860	-79.486472	159.327590
64160		9.103959	1.280513	1.024514	0.426140	0.149063	0.125113	-0.615234	-0.346924	0.388672	-0.221651	-79.401351	159.716758
64161		8.969729	1.329057	1.057916	0.393596	0.126745	0.154725	-0.616211	-0.339355	0.386475	-0.458673	-79.330041	160.191235
64162		8.921992	1.463500	1.108009	0.326325	0.077499	0.175838	-0.621826	-0.340820	0.389404	-0.797814	-79.285048	160.730366
64163		8.863377	1.570760	1.078292	0.238653	0.036208	0.185387	-0.627197	-0.333252	0.392334	-1.212704	-79.264285	161.295662
64164		8.751689	1.617537	1.152192	0.147551	-0.018481	0.186490	-0.624756	-0.330811	0.391357	-1.687947	-79.272716	161.869169
64165		8.720164	1.629711	1.088556	0.078177	-0.057201	0.179412	-0.626465	-0.333984	0.401855	-2.185122	-79.303850	162.424606
64166		8.825509	1.658089	1.049658	0.054473	-0.102812	0.165414	-0.619629	-0.334717	0.395752	-2.664147	-79.359284	162.947612
64167		9.049900	1.672562	1.032666	0.016242	-0.125084	0.165073	-0.624268	-0.334717	0.397705	-3.171880	-79.427908	163.477496
64168		9.124067	1.756067	0.812801	-0.075724	-0.097829	0.178505	-0.621094	-0.338135	0.396729	-3.775770	-79.478295	164.051464
64169		9.031735	1.698986	0.765345	-0.210001	-0.079990	0.206700	-0.616943	-0.335693	0.398926	-4.544529	-79.517289	164.714805
64170		8.892016	1.684780	0.758762	-0.314042	-0.120916	0.235054	-0.631348	-0.324219	0.395020	-5.477999	-79.575242	165.484931
64171		8.951978	1.592403	0.686524	-0.342686	-0.155847	0.255269	-0.634521	-0.342285	0.402832	-6.512403	-79.650663	166.340806
64172		9.088979	1.420484	0.701259	-0.351212	-0.190306	0.265871	-0.631104	-0.323975	0.395752	-7.612198	-79.740921	167.258008
64173		9.273540	1.101910	0.828440	-0.369782	-0.212215	0.266516	-0.635498	-0.327393	0.412354	-8.753457	-79.841449	168.206200
64174		9.433881	0.748400	1.020552	-0.360849	-0.229915	0.243028	-0.635742	-0.320557	0.402100	-9.843860	-79.949803	169.107707
64175		9.528944	0.290505	1.048988	-0.299544	-0.243159	0.204726	-0.634766	-0.333984	0.400391	-10.806623	-80.067766	169.914877
64176		9.462297	-0.082632	1.078856	-0.131631	-0.222297	0.181950	-0.632813	-0.332520	0.392822	-11.604387	-80.173355	170.652044
64177		9.352245	-0.407625	1.315927	0.090977	-0.192208	0.188689	-0.633057	-0.325195	0.407471	-12.292528	-80.260644	171.407082
64178		9.245897	-0.833828	1.344517	0.279947	-0.196272	0.212068	-0.635254	-0.323242	0.406982	-12.962958	-80.344763	172.253904
64179		9.280145	-1.297396	0.652316	0.382234	-0.255463	0.248526	-0.632568	-0.320557	0.411621	-13.757955	-80.456207	173.286150
64180		9.132443	-1.514925	-0.189533	0.380086	-0.307542	0.278224	-0.634033	-0.322021	0.410156	-14.718778	-80.588784	174.484993
64181		8.848149	-1.199164	-0.606576	0.252313	-0.324254	0.341254	-0.631104	-0.304932	0.413330	-16.014071	-80.718067	175.948064
64182		8.792607	-0.357469	-0.525509	0.046588	-0.296599	0.378041	-0.641113	-0.310059	0.413574	-17.559325	-80.819293	177.544550
64183		9.253148	0.585420	-0.255505	-0.180241	-0.364608	0.361205	-0.636230	-0.311523	0.420166	-19.294153	-80.954032	179.200802
64184		10.212577	1.281037	-0.203277	-0.329001	-0.521401	0.257336	-0.639404	-0.308838	0.420654	-21.012884	-81.184886	-179.246277
64185		11.439652	1.388111	-0.385300	-0.245277	-0.731251	0.039601	-0.630615	-0.310547	0.433350	-22.308777	-81.567869	-178.073879
64186		12.280351	1.154284	0.117540	-0.021749	-0.878602	-0.225994	-0.626465	-0.312256	0.436768	-22.828043	-82.083729	-177.557941
64187		12.695748	0.861635	0.941303	0.046256	-0.741463	-0.423100	-0.626953	-0.315186	0.436523	-22.348217	-82.571031	-178.011528
64188		12.787000	0.525921	1.470609	-0.027082	-0.543150	-0.515741	-0.618652	-0.313477	0.446777	-21.101071	-82.970911	-179.280357
64189		13.304778	0.078820	1.877118	-0.030646	-0.514416	-0.563872	-0.619385	-0.322021	0.448486	-19.437960	-83.361313	179.030778
64190		13.843169	-0.508366	1.981238	0.080016	-0.443344	-0.599279	-0.617920	-0.332275	0.449707	-17.211792	-83.711832	176.840465
64191		13.108168	-0.322009	1.645741	0.248693	-0.316172	-0.519659	-0.616943	-0.333984	0.458740	-14.876370	-83.970209	174.638625
64192		11.884827	0.246086	2.405375	0.148514	-0.164285	-0.315541	-0.617676	-0.332031	0.450195	-13.322309	-84.106868	173.165602
64193		11.446040	0.417089	3.627833	-0.253481	-0.065861	-0.126154	-0.619873	-0.334717	0.456055	-12.859342	-84.161929	172.558013
64194		11.406301	0.518257	3.665169	-0.420565	-0.004894	-0.018373	-0.615234	-0.327637	0.457031	-12.995913	-84.168246	172.457016
64195		11.126246	0.294361	3.923371	-0.464630	-0.011484	0.016352	-0.619873	-0.341797	0.458740	-13.360098	-84.174451	172.559309
64196		10.586057	-0.379032	4.384472	-0.591976	-0.011750	-0.012643	-0.616943	-0.336914	0.454346	-13.635098	-84.183813	172.498757
64197		9.677404	-0.826850	4.098059	-0.609886	-0.065498	-0.074341	-0.616943	-0.348145	0.450928	-13.657817	-84.232266	172.174172
64198		8.951966	-0.812790	3.872610	-0.604093	-0.136049	-0.145312	-0.614502	-0.348145	0.448242	-13.366885	-84.328492	171.537892
64199		8.536603	-0.445231	3.986664	-0.685332	-0.116665	-0.207599	-0.621582	-0.352051	0.455811	-12.729981	-84.422402	170.507152
64200		8.292828	-0.124903	3.644836	-0.752884	-0.055279	-0.239481	-0.617188	-0.359375	0.457275	-11.839227	-84.483370	169.182763
64201		8.234191	-0.137786	3.279531	-0.736826	-0.043970	-0.279419	-0.614746	-0.355225	0.446777	-10.671271	-84.541256	167.589127
64202		8.560423	-0.425148	2.964667	-0.659435	-0.076218	-0.335745	-0.616943	-0.370361	0.448242	-9.119365	-84.618020	165.654682
64203		9.132689	-0.885944	2.790495	-0.535961	-0.067966	-0.380716	-0.612793	-0.367188	0.448242	-7.169727	-84.689391	163.391912
64204		9.539896	-1.537790	2.622763	-0.377276	-0.051845	-0.387296	-0.616699	-0.375244	0.449707	-5.022075	-84.743040	161.021954
64205		9.706029	-2.075794	2.456354	-0.210929	-0.020230	-0.334419	-0.611816	-0.377441	0.443848	-3.059385	-84.769980	158.933465
64206		9.569507	-2.188620	2.438908	-0.108708	0.045033	-0.214644	-0.610107	-0.373047	0.443115	-1.758662	-84.749784	157.568648
64207		9.394844	-2.013569	2.458784	-0.080284	0.064027	-0.053675	-0.614990	-0.378418	0.454834	-1.449571	-84.715821	157.215861
64208		9.359335	-1.677982	2.337455	-0.049971	0.075530	0.100714	-0.621338	-0.384521	0.446289	-2.074527	-84.671135	157.818636
64209		9.536171	-1.161962	2.077109	-0.033395	0.108394	0.220619	-0.614014	-0.373779	0.453857	-3.397355	-84.604921	159.131868
64210		9.758351	-0.567843	1.871213	-0.001612	0.100677	0.316846	-0.616699	-0.367920	0.439697	-5.247430	-84.534025	160.993228
64211		9.663280	-0.210499	1.640642	-0.000062	0.132811	0.379701	-0.624512	-0.372803	0.445313	-7.391812	-84.436319	163.151353
64212		9.373333	-0.036885	1.704866	-0.056400	0.209236	0.384686	-0.619385	-0.365234	0.433594	-9.445831	-84.285757	165.186768
64213		9.135587	0.027518	1.758165	-0.149327	0.252101	0.336540	-0.623779	-0.367920	0.436035	-11.137656	-84.111089	166.805113
64214		9.000156	0.042737	1.591594	-0.213300	0.265897	0.265518	-0.627930	-0.369629	0.439941	-12.377113	-83.931255	167.932368
64215		8.941260	-0.047281	1.457097	-0.226213	0.236287	0.170845	-0.635498	-0.370605	0.436035	-13.110075	-83.779543	168.543018
64216		8.940116	-0.271348	1.348644	-0.241298	0.211809	0.087321	-0.634033	-0.369385	0.430176	-13.429312	-83.650263	168.729009
64217		8.954183	-0.550286	1.458860	-0.249972	0.201444	0.016418	-0.633301	-0.356445	0.432373	-13.409643	-83.537746	168.568909
64218		8.993028	-0.654686	1.428166	-0.249288	0.207652	-0.032036	-0.632813	-0.367920	0.428467	-13.148961	-83.426476	168.166683
64219		8.982681	-0.673142	1.326671	-0.272846	0.196918	-0.043812	-0.638428	-0.368896	0.429932	-12.870153	-83.324128	167.732439
64220		8.957742	-0.721879	1.351501	-0.290798	0.202383	-0.044084	-0.634766	-0.370605	0.429688	-12.603674	-83.216885	167.300247
64221		8.859103	-0.836180	1.300417	-0.294428	0.226752	-0.034097	-0.641602	-0.365479	0.427002	-12.373401	-83.096193	166.902236
64222		8.845035	-1.014513	1.183095	-0.310396	0.235560	-0.007313	-0.634766	-0.373535	0.422607	-12.274841	-82.965511	166.627673
64223		8.798332	-1.243377	1.114199	-0.325638	0.239615	0.002132	-0.645996	-0.375732	0.421875	-12.231174	-82.833018	166.399472
64224		8.803410	-1.445133	1.057948	-0.310245	0.250422	0.002997	-0.644775	-0.379395	0.408203	-12.176568	-82.692691	166.169128
64225		8.834639	-1.588365	1.051990	-0.276465	0.233320	-0.016182	-0.647949	-0.374756	0.417236	-12.042214	-82.565856	165.877757
64226		8.957229	-1.636806	1.127103	-0.252604	0.189164	-0.036659	-0.648926	-0.381104	0.414551	-11.853626	-82.464442	165.545439
64227		8.995606	-1.604529	1.062761	-0.215048	0.163490	-0.054579	-0.646729	-0.375977	0.411621	-11.597637	-82.381004	165.166721
64228		8.943085	-1.437014	1.034185	-0.144788	0.126440	-0.073445	-0.649658	-0.384766	0.412598	-11.261050	-82.318605	164.747251
64229		8.893723	-1.393288	0.899081	-0.070588	0.094173	-0.082645	-0.647705	-0.381592	0.410156	-10.875251	-82.276664	164.320955
64230		8.849468	-1.276211	0.693088	-0.012195	0.080187	-0.077242	-0.649658	-0.379639	0.416016	-10.494498	-82.239999	163.933467
64231		8.911785	-1.183513	0.485533	0.037209	0.075739	-0.080174	-0.646729	-0.384521	0.416504	-10.079239	-82.207422	163.539698
64232		9.035330	-1.084984	0.587234	0.076377	0.083719	-0.086676	-0.649658	-0.383301	0.406738	-9.614184	-82.168956	163.118256
64233		9.191141	-1.138293	0.738969	0.104038	0.100009	-0.093472	-0.651367	-0.377686	0.412842	-9.097546	-82.123035	162.660728
64234		9.368729	-1.126237	0.490222	0.129479	0.088685	-0.101074	-0.650391	-0.385742	0.410400	-8.550039	-82.082034	162.186653
64235		9.462498	-1.144009	0.349565	0.181690	0.089680	-0.108084	-0.652344	-0.383301	0.409912	-7.946882	-82.041971	161.686597
64236		9.598736	-1.178544	0.381856	0.238832	0.094199	-0.117384	-0.655273	-0.390381	0.404053	-7.279159	-81.997749	161.154281
64237		9.695023	-1.191656	0.434490	0.309085	0.098253	-0.104736	-0.654541	-0.378662	0.407959	-6.624330	-81.951026	160.675649
64238		9.777977	-1.162791	0.411868	0.330685	0.091269	-0.092593	-0.648193	-0.384277	0.400391	-6.018335	-81.905297	160.258689
64239		9.770310	-1.088021	0.203389	0.336755	0.078609	-0.067797	-0.662109	-0.388184	0.414307	-5.515400	-81.866274	159.949396
64240		9.740371	-0.966121	0.017229	0.364167	0.070689	-0.059753	-0.657227	-0.383057	0.411377	-5.038842	-81.829545	159.682469
64241		9.689366	-0.839246	0.101963	0.432063	0.064166	-0.074578	-0.649658	-0.386230	0.417480	-4.466722	-81.798324	159.358393
64242		9.702410	-0.873167	0.319845	0.517828	0.055658	-0.099309	-0.653320	-0.378662	0.417969	-3.757279	-81.771108	158.945058
64243		9.703152	-0.861024	0.330106	0.561425	0.059394	-0.114853	-0.657959	-0.376953	0.426758	-2.960716	-81.742855	158.469043
64244		9.732022	-0.818849	0.436945	0.585209	0.075177	-0.118758	-0.651855	-0.377930	0.417725	-2.141185	-81.703410	157.983391
64245		9.777782	-0.894863	0.727507	0.595367	0.098224	-0.110979	-0.655518	-0.372559	0.425049	-1.345925	-81.650938	157.528250
64246		9.735106	-1.102406	1.319628	0.519482	0.093258	-0.103400	-0.654053	-0.372070	0.426758	-0.635904	-81.599132	157.115085
64247		9.590585	-1.327073	1.632399	0.434457	0.027328	-0.094208	-0.656250	-0.379883	0.419434	-0.012943	-81.585610	156.740818
64248		9.217711	-1.161514	1.129652	0.448839	-0.103571	-0.076422	-0.661865	-0.376709	0.429443	0.546744	-81.645340	156.438667
64249		8.891693	-0.851277	0.330152	0.430744	-0.224405	-0.056049	-0.653076	-0.374023	0.420166	1.034659	-81.775276	156.198837
64250		8.520678	-0.428380	-0.452389	0.481966	-0.328805	-0.043568	-0.653320	-0.368408	0.439453	1.518296	-81.963685	155.992861
64251		8.473955	-0.343735	-0.963412	0.615533	-0.366493	-0.021937	-0.658203	-0.364502	0.431152	2.016636	-82.174988	155.849618
64252		8.706154	-0.707961	-0.820586	0.772918	-0.293213	-0.000404	-0.660645	-0.357178	0.448242	2.513552	-82.343547	155.798666
64253		9.057018	-1.091807	-0.370504	0.901448	-0.211809	0.036313	-0.656494	-0.353027	0.451904	2.926817	-82.467547	155.906632
64254		9.906912	-1.370759	0.845879	1.014315	-0.154466	0.089984	-0.656006	-0.354492	0.457031	3.155400	-82.559434	156.265837
64255		11.677246	-0.583341	3.293934	1.179099	0.028051	0.189072	-0.663086	-0.355225	0.462891	3.006188	-82.550995	157.101459
64256		16.210261	3.053724	5.865774	0.837940	0.062341	0.516100	-0.665039	-0.344727	0.456055	1.222878	-82.526941	159.387784
64257		20.606172	6.100479	5.666730	0.365700	-0.240778	1.146185	-0.663574	-0.329590	0.462158	-3.631356	-82.653029	164.497962
64258		15.308745	3.953732	3.789470	0.206914	0.153788	1.160974	-0.666748	-0.325684	0.457764	-8.513790	-82.495481	169.544879
64259		10.483548	2.125428	4.327646	0.549773	0.745298	0.601086	-0.673096	-0.318359	0.459473	-10.181786	-82.020026	171.549923
64260		9.117503	0.079289	4.962528	1.129756	0.324702	0.214493	-0.671387	-0.301270	0.459717	-10.149944	-81.815737	172.175326
64261		9.557809	-1.387897	4.976649	1.408169	0.025172	0.055766	-0.677246	-0.298584	0.461426	-9.538447	-81.797978	172.376496
64262		9.862283	-2.246919	4.765525	1.338359	-0.129968	-0.007486	-0.670898	-0.291992	0.470215	-8.819361	-81.872539	172.428495
64263		9.464840	-2.662164	3.542605	1.302338	-0.294872	-0.028484	-0.683350	-0.290283	0.473145	-8.128575	-82.043952	172.488275
64264		8.806192	-2.860712	2.835258	1.442056	-0.324805	-0.006756	-0.675049	-0.285645	0.481689	-7.451803	-82.229087	172.642901
64265		8.316085	-2.791915	2.774854	1.553684	-0.224549	0.083306	-0.666992	-0.277100	0.483887	-7.024151	-82.352600	173.113490
64266		7.926294	-2.240144	2.892654	1.595703	-0.080494	0.218437	-0.671631	-0.264893	0.486816	-7.073982	-82.383156	174.089913
64267		7.828935	-1.518531	2.910208	1.675053	0.010808	0.353482	-0.674072	-0.255859	0.502441	-7.600473	-82.353044	175.593247
64268		8.274060	-0.883951	2.954631	1.795462	0.051881	0.434197	-0.682373	-0.245361	0.507080	-8.363374	-82.289111	177.404776
64269		9.539451	-0.184887	2.809013	1.909139	0.161081	0.427799	-0.677490	-0.228027	0.503662	-8.936255	-82.162898	179.090800
64270		10.915918	0.617640	2.460914	1.989898	0.430739	0.362071	-0.683594	-0.207275	0.499512	-8.979042	-81.886790	-179.711029
64271		11.558947	1.470344	2.188186	2.109437	0.704032	0.288022	-0.682129	-0.209229	0.500488	-8.460873	-81.464959	-179.009395
64272		11.016590	1.934679	2.407571	2.236892	0.864469	0.225315	-0.694824	-0.192871	0.504150	-7.553520	-80.956477	-178.626908
64273		9.674970	1.936440	2.911236	2.200335	0.768169	0.164702	-0.685547	-0.178955	0.494385	-6.529651	-80.510001	-178.383100
64274		8.910256	1.896581	2.487086	2.098936	0.560502	0.100473	-0.694336	-0.170654	0.494385	-5.459344	-80.184537	-178.245109
64275		8.678774	1.817825	2.157761	2.055715	0.475817	0.040549	-0.697754	-0.162842	0.492188	-4.274908	-79.912806	-178.247956
64276		8.707407	1.494321	2.170231	2.120906	0.417719	0.007574	-0.708496	-0.143066	0.489990	-2.991654	-79.673574	-178.313277
64277		8.827798	0.943387	2.489209	2.186756	0.319837	-0.003950	-0.703369	-0.135254	0.490479	-1.678802	-79.492420	-178.370358
64278		8.795088	0.458808	2.339102	2.201162	0.244211	-0.001131	-0.704834	-0.127930	0.497070	-0.392141	-79.352382	-178.392422
64279		8.730245	0.148804	2.067996	2.171410	0.226797	0.011199	-0.707275	-0.125000	0.488037	0.822841	-79.224286	-178.358900
64280		8.614054	-0.030475	1.730733	2.126709	0.253090	0.042504	-0.708252	-0.106201	0.494141	1.905141	-79.079705	-178.216333
64281		8.425203	-0.070926	1.660385	2.123716	0.255193	0.096144	-0.711670	-0.097168	0.500000	2.815173	-78.937681	-177.899970
64282		8.308455	-0.018508	1.522844	2.115629	0.275907	0.163701	-0.714355	-0.083252	0.494629	3.516451	-78.784813	-177.375391
64283		8.422443	0.204441	1.372955	2.100529	0.331021	0.229106	-0.714355	-0.075684	0.494629	4.010185	-78.605954	-176.647700
64284		8.793581	0.462954	1.317043	2.125528	0.342917	0.297389	-0.717041	-0.059326	0.489258	4.330695	-78.422191	-175.728136
64285		9.299113	0.804546	1.112539	2.169651	0.341764	0.343307	-0.717529	-0.056885	0.487305	4.558298	-78.243971	-174.687325
64286		9.612734	1.116517	0.884751	2.247323	0.345107	0.379291	-0.715820	-0.030029	0.480469	4.746438	-78.064359	-173.559988
64287		9.704895	1.331704	0.843446	2.360727	0.381468	0.409771	-0.719238	-0.012939	0.479736	4.922815	-77.868115	-172.353463
64288		9.622153	1.417449	1.072825	2.439334	0.411948	0.422583	-0.726807	-0.003906	0.476318	5.123402	-77.654101	-171.124593
64289		9.502168	1.536014	1.183823	2.414557	0.367096	0.419200	-0.728271	0.008545	0.476563	5.343070	-77.468305	-169.928964
64290		9.311226	1.647880	0.965366	2.341252	0.310893	0.403998	-0.728027	0.021484	0.469971	5.589202	-77.313011	-168.802552
64291		9.236270	1.713334	0.841800	2.295532	0.239579	0.394140	-0.728760	0.038330	0.466309	5.857870	-77.200694	-167.725659
64292		9.183643	1.695607	0.775765	2.247838	0.149941	0.372807	-0.727051	0.059814	0.463867	6.184697	-77.137713	-166.735866
64293		9.082853	1.673914	0.791548	2.180677	0.075865	0.360225	-0.729492	0.063965	0.473633	6.522997	-77.119093	-165.797355
64294		9.083306	1.691620	0.766379	2.088783	0.057998	0.360979	-0.724854	0.079834	0.453613	6.816655	-77.110233	-164.866761
64295		9.274392	1.872128	0.775466	1.990368	0.036425	0.362045	-0.731689	0.088135	0.449463	7.053648	-77.116293	-163.936125
64296		9.442682	2.175823	0.915706	1.905973	0.031653	0.365522	-0.731445	0.097900	0.450439	7.239362	-77.124555	-163.002222
64297		9.511534	2.549338	0.892468	1.793450	0.059283	0.371347	-0.726318	0.113281	0.444580	7.332675	-77.119571	-162.039968
64298		9.433223	2.935553	0.866382	1.662389	0.109987	0.370932	-0.720703	0.120850	0.447998	7.342492	-77.084495	-161.068666
64299		9.157328	3.101525	0.905087	1.575692	0.125002	0.365224	-0.726807	0.135498	0.442383	7.309682	-77.041865	-160.104793
64300		8.915664	3.151872	1.045471	1.522875	0.087175	0.353126	-0.729004	0.136230	0.445801	7.296978	-77.018412	-159.192061
64301		8.830232	3.002531	1.173977	1.486158	0.077434	0.338026	-0.728271	0.153809	0.440186	7.298982	-77.000731	-158.316356
64302		8.815777	2.779241	1.174447	1.426282	0.066374	0.321382	-0.730469	0.157959	0.434326	7.318883	-76.986877	-157.493690
64303		9.011400	2.563150	1.149030	1.340245	0.042811	0.312365	-0.737549	0.168701	0.425049	7.312826	-76.987062	-156.695437
64304		9.195257	2.360003	1.101585	1.262773	0.049992	0.317151	-0.731689	0.166748	0.435059	7.255816	-76.982205	-155.889901
64305		9.224047	2.112534	0.934175	1.183797	0.064047	0.332080	-0.724854	0.183105	0.428711	7.105721	-76.971305	-155.035780
64306		9.166067	1.839217	0.874168	1.155048	0.045690	0.346192	-0.727295	0.194336	0.418213	6.918402	-76.970147	-154.159751
64307		9.055176	1.645507	1.053926	1.166017	-0.013179	0.363647	-0.725830	0.197998	0.428467	6.702751	-77.004085	-153.248836
64308		9.172972	1.729366	1.322494	1.149757	-0.028735	0.378067	-0.732178	0.209717	0.414795	6.451621	-77.045971	-152.310589
64309		9.383414	1.931899	1.432484	1.070464	-0.007204	0.396696	-0.722656	0.219971	0.419678	6.091043	-77.076642	-151.307419
64310		9.423358	2.023802	1.155091	0.979099	-0.025181	0.404798	-0.723389	0.220947	0.410400	5.667746	-77.115574	-150.293089
