// General information: 
//  MT Manager version: 2022.2.0 
//  XDA version: 2022.2.0 build 7381 rev 124627 built on 2023-07-19
// Device information: 
//  DeviceId: 00B4C223
//  ProductCode: MTW2-3A7G6
//  Firmware Version: 4.6.0
//  Hardware Version: 2.0.0
// Device settings: 
//  Filter Profile: human(46.1)
//  Option Flags: Orientation Smoother Disabled, Position/Velocity Smoother Disabled, Continuous Zero Rotation Update Disabled, AHS Disabled, ICC Disabled
// Coordinate system: ENU
PacketCounter	SampleTimeFine	Acc_X	Acc_Y	Acc_Z	Gyr_X	Gyr_Y	Gyr_Z	Mag_X	Mag_Y	Mag_Z	Roll	Pitch	Yaw
60120		-5.146323	1.580422	8.408710	-0.003584	0.003727	0.002426	-0.948730	-0.019287	-0.592041	11.046053	30.948473	-26.549387
60121		-5.088358	1.594865	8.408227	-0.001215	-0.002073	0.001453	-0.945801	-0.011230	-0.592041	11.046269	30.947464	-26.550858
60122		-5.134906	1.616515	8.390627	-0.005930	-0.002190	0.000412	-0.947510	-0.017822	-0.590576	11.044468	30.946663	-26.552696
60123		-5.102982	1.612941	8.404031	-0.004853	-0.001737	0.002301	-0.954346	-0.015137	-0.587646	11.042911	30.945770	-26.551468
60124		-5.102815	1.612306	8.404255	-0.010320	-0.002232	-0.002222	-0.952148	-0.021729	-0.592529	11.037703	30.945236	-26.555038
60125		-5.143941	1.612311	8.413681	-0.007433	-0.002945	-0.006551	-0.949219	-0.011719	-0.591309	11.031608	30.944593	-26.562046
60126		-5.102411	1.610390	8.404867	-0.008973	-0.005094	-0.003506	-0.952637	-0.007568	-0.588379	11.026551	30.942589	-26.566824
60127		-5.128339	1.591753	8.418936	-0.007247	-0.004489	-0.004804	-0.946045	-0.014893	-0.582031	11.021043	30.940885	-26.569193
60128		-5.111264	1.606192	8.428024	-0.011126	-0.005999	-0.007283	-0.940430	-0.010986	-0.584473	11.013420	30.938784	-26.576563
60129		-5.112684	1.570876	8.424270	-0.008083	-0.003096	-0.003366	-0.950684	-0.013916	-0.582275	11.008022	30.937697	-26.581142
60130		-5.112559	1.570064	8.424498	-0.007193	-0.001099	-0.003225	-0.950684	-0.010498	-0.587646	11.004343	30.937907	-26.585225
60131		-5.116138	1.624454	8.402006	-0.007571	-0.004565	-0.003212	-0.948730	-0.019043	-0.589111	10.999189	30.935951	-26.588914
60132		-5.100888	1.604862	8.406849	-0.007434	-0.002944	-0.006553	-0.949219	-0.019043	-0.587402	10.994129	30.935487	-26.595414
60133		-5.124732	1.574974	8.367385	-0.009022	-0.001927	-0.008596	-0.947510	-0.018066	-0.579102	10.986527	30.935650	-26.604382
60134		-5.127038	1.584920	8.421017	-0.007945	-0.001475	-0.006707	-0.951660	-0.022949	-0.582764	10.981219	30.936027	-26.610796
60135		-5.127009	1.584028	8.421203	-0.007193	-0.001098	-0.003225	-0.950439	-0.013672	-0.589844	10.976525	30.936008	-26.618499
60136		-5.117477	1.585538	8.398977	-0.005467	-0.000493	-0.004523	-0.954102	-0.016357	-0.590576	10.973437	30.936698	-26.623356
60137		-5.127017	1.582631	8.421460	-0.005792	-0.000570	-0.002930	-0.955078	-0.023682	-0.588623	10.969683	30.937003	-26.625955
60138		-5.081552	1.604263	8.363258	-0.006494	-0.004112	-0.001324	-0.942383	-0.019531	-0.587402	10.966848	30.935308	-26.629175
60139		-5.132336	1.602041	8.394974	-0.008319	0.001616	-0.010202	-0.949219	-0.013672	-0.592773	10.959355	30.937646	-26.639531
60140		-5.095140	1.576863	8.435225	-0.008082	-0.003096	-0.003368	-0.948730	-0.016602	-0.594727	10.954988	30.936745	-26.643961
60141		-5.109820	1.594581	8.431103	-0.009212	-0.006937	-0.006839	-0.944824	-0.014404	-0.597656	10.947559	30.933941	-26.648880
60142		-5.126237	1.578106	8.422784	-0.006357	-0.002490	-0.004666	-0.941650	-0.017822	-0.591797	10.943783	30.933522	-26.654084
60143		-5.148290	1.582731	8.387480	-0.008082	-0.003096	-0.003368	-0.953857	-0.019043	-0.592529	10.938435	30.932541	-26.656356
60144		-5.142488	1.561005	8.414681	-0.005333	-0.005427	-0.004359	-0.950195	-0.016846	-0.591309	10.935158	30.930436	-26.661730
60145		-5.106413	1.580313	8.378959	-0.008406	-0.003173	-0.001775	-0.949707	-0.021484	-0.583740	10.930148	30.929165	-26.664471
60146		-5.115699	1.577350	8.401601	-0.007329	-0.002721	0.000114	-0.949951	-0.010986	-0.597412	10.927411	30.928095	-26.666569
60147		-5.115516	1.576659	8.401843	-0.006357	-0.002489	-0.004666	-0.956543	-0.017334	-0.585449	10.922647	30.927521	-26.670826
60148		-5.117509	1.587132	8.455558	-0.005553	-0.005284	0.003903	-0.947754	-0.026123	-0.585449	10.922038	30.924598	-26.670764
60149		-5.131561	1.560057	8.393770	-0.008082	-0.003095	-0.003369	-0.950195	-0.014893	-0.591064	10.916691	30.923489	-26.678106
60150		-5.097827	1.590611	8.411413	-0.004988	-0.003364	0.005639	-0.953857	-0.023193	-0.591797	10.917116	30.921458	-26.676662
60151		-5.125463	1.538314	8.421133	-0.006252	-0.002269	0.002003	-0.955566	-0.015869	-0.586670	10.914686	30.920286	-26.677408
60152		-5.140278	1.556787	8.416812	-0.004098	-0.001366	0.005782	-0.956543	-0.011963	-0.586426	10.915799	30.919363	-26.675617
60153		-5.123245	1.572150	8.425718	-0.006389	-0.003892	0.005343	-0.950439	-0.016602	-0.583740	10.914291	30.916842	-26.673339
60154		-5.139563	1.556462	8.417309	-0.005312	-0.003441	0.007232	-0.951660	-0.012939	-0.591797	10.915061	30.914595	-26.670860
60155		-5.088336	1.557730	8.386037	-0.004476	-0.004832	0.005791	-0.951660	-0.013428	-0.587402	10.914752	30.911543	-26.668639
60156		-5.088588	1.602825	8.443892	-0.006659	-0.000580	0.008519	-0.958008	-0.019775	-0.589355	10.915370	30.910765	-26.664955
60157		-5.129210	1.558393	8.395515	-0.004797	0.001649	0.003882	-0.948975	-0.015625	-0.587158	10.914659	30.911553	-26.663710
60158		-5.121807	1.571649	8.426685	-0.001998	-0.003853	0.007976	-0.947021	-0.018555	-0.592285	10.917552	30.908993	-26.660796
60159		-5.121479	1.571745	8.426867	-0.004098	-0.001366	0.005781	-0.942139	-0.010986	-0.594727	10.917699	30.907935	-26.658956
60160		-5.111765	1.574062	8.404612	-0.003021	-0.000915	0.007670	-0.954346	-0.010010	-0.589844	10.920093	30.907061	-26.655871
60161		-5.120918	1.571939	8.427172	-0.003723	-0.004458	0.009272	-0.950195	-0.017822	-0.590576	10.921422	30.903898	-26.648314
60162		-5.069740	1.573509	8.395805	-0.001108	-0.001856	0.008118	-0.952393	-0.019531	-0.576416	10.925002	30.902445	-26.645054
60163		-5.132948	1.580070	8.369615	-0.006147	-0.002048	0.008671	-0.951660	-0.011719	-0.595703	10.924904	30.900610	-26.644338
60164		-5.120004	1.572151	8.427687	-0.006011	-0.000424	0.005332	-0.945068	-0.013916	-0.590576	10.924829	30.900266	-26.642723
60165		-5.134810	1.590827	8.423342	-0.002186	-0.002306	0.006229	-0.948975	-0.011475	-0.585693	10.926167	30.898658	-26.637844
60166		-5.097335	1.566577	8.463502	-0.006334	-0.000501	0.006925	-0.952148	-0.021484	-0.590088	10.926438	30.898097	-26.635195
60167		-5.141644	1.577564	8.392529	-0.003021	-0.000915	0.007669	-0.949463	-0.012695	-0.585938	10.927874	30.897054	-26.632645
60168		-5.100164	1.576679	8.383449	-0.004422	-0.001442	0.007373	-0.959229	-0.018066	-0.590820	10.929331	30.895915	-26.629821
60169		-5.114854	1.595467	8.379155	-0.004235	-0.002989	0.009118	-0.947021	-0.020020	-0.584961	10.930422	30.893532	-26.625498
60170		-5.099485	1.576792	8.383840	-0.003587	-0.002834	0.005932	-0.947754	-0.019043	-0.586670	10.931781	30.891767	-26.623795
60171		-5.065602	1.607669	8.401484	-0.006714	-0.003966	0.006933	-0.944824	-0.018555	-0.580811	10.930673	30.889097	-26.624752
60172		-5.132780	1.590769	8.424591	-0.004422	-0.001442	0.007372	-0.953613	-0.015381	-0.586670	10.932129	30.887958	-26.621929
60173		-5.119347	1.537698	8.424966	-0.006010	-0.000423	0.005331	-0.949463	-0.021484	-0.578613	10.931109	30.887421	-26.622352
60174		-5.085696	1.568808	8.442422	-0.000865	-0.000015	0.011446	-0.954346	-0.012207	-0.587158	10.936067	30.886641	-26.616678
60175		-5.156259	1.562526	8.385059	-0.001942	-0.000465	0.009557	-0.945068	-0.014893	-0.589600	10.938792	30.885597	-26.614276
60176		-5.100342	1.588446	8.437998	0.000537	0.000512	0.011742	-0.951416	-0.016113	-0.592773	10.944686	30.885082	-26.608342
60177		-5.122503	1.594601	8.402393	0.000027	0.001981	0.011589	-0.952393	-0.014404	-0.589111	10.949400	30.885301	-26.601306
60178		-5.071706	1.596290	8.370757	-0.002129	0.001082	0.007811	-0.952393	-0.017578	-0.591064	10.952481	30.885533	-26.597875
60179		-5.133565	1.558842	8.420528	-0.001756	-0.002011	0.011301	-0.945557	-0.018799	-0.593994	10.955816	30.883499	-26.592206
60180		-5.075328	1.573790	8.420064	-0.001699	0.001377	0.012885	-0.957764	-0.014160	-0.588135	10.960870	30.883345	-26.585412
60181		-5.122047	1.596405	8.402328	0.001752	0.002586	0.010292	-0.944092	-0.019043	-0.587158	10.966179	30.884021	-26.579857
60182		-5.140767	1.547244	8.389193	-0.000346	0.005075	0.008099	-0.951660	-0.010742	-0.587891	10.970639	30.886467	-26.575731
60183		-5.118779	1.542294	8.424470	0.002320	0.004505	0.012028	-0.958252	-0.017822	-0.578125	10.976982	30.888019	-26.569153
60184		-5.114989	1.566460	8.374941	0.002888	0.006424	0.013764	-0.943115	-0.017578	-0.590820	10.985290	30.890604	-26.561142
60185		-5.149243	1.581684	8.414869	0.003074	0.004877	0.015508	-0.951660	-0.021729	-0.583740	10.993260	30.891939	-26.554617
60186		-5.085448	1.654606	8.369146	0.002506	0.002959	0.013772	-0.951904	-0.016846	-0.584717	11.001126	30.892573	-26.547041
60187		-5.094898	1.653027	8.391421	-0.000542	0.000064	0.009850	-0.947021	-0.019775	-0.594727	11.004812	30.891812	-26.545683
60188		-5.107920	1.582561	8.405353	-0.006091	0.001348	0.010249	-0.953125	-0.016602	-0.586670	11.006462	30.891924	-26.540620
60189		-5.074258	1.613430	8.422833	-0.003776	-0.001283	0.004185	-0.950928	-0.018066	-0.581055	11.006319	30.891105	-26.540776
60190		-5.107721	1.582546	8.405477	-0.001805	0.001162	0.006217	-0.954590	-0.022705	-0.583740	11.009055	30.891554	-26.538381
60191		-5.085458	1.577008	8.441038	-0.004609	0.000110	0.005624	-0.944580	-0.019287	-0.595459	11.008999	30.891254	-26.540812
60192		-5.139445	1.585898	8.392305	-0.002315	0.002631	0.006065	-0.953369	-0.021484	-0.584961	11.011488	30.892545	-26.538329
60193		-5.113255	1.603757	8.378548	-0.002639	0.002554	0.007657	-0.951660	-0.013672	-0.590332	11.013429	30.893512	-26.536774
60194		-5.106042	1.617114	8.409561	-0.001805	0.001162	0.006217	-0.955811	-0.018555	-0.588867	11.016165	30.893960	-26.534379
60195		-5.098419	1.585365	8.382872	-0.000913	0.003157	0.006361	-0.947754	-0.015869	-0.600830	11.018686	30.895357	-26.532310
60196		-5.111744	1.638441	8.382505	-0.004226	0.003576	0.005616	-0.951172	-0.023682	-0.591309	11.019991	30.897229	-26.530000
60197		-5.096775	1.619651	8.386986	-0.001541	-0.002149	0.003040	-0.951172	-0.017822	-0.589111	11.020722	30.896115	-26.530812
60198		-5.100905	1.596029	8.436226	-0.007969	0.003699	-0.000202	-0.949707	-0.016846	-0.584473	11.017933	30.898693	-26.532300
60199		-5.111982	1.637533	8.382537	-0.005548	0.001285	0.000399	-0.954834	-0.010498	-0.589600	11.015677	30.899681	-26.534888
60200		-5.115769	1.568788	8.374029	-0.002744	0.002337	0.000991	-0.955811	-0.018066	-0.590820	11.016194	30.901362	-26.535767
60201		-5.142633	1.595960	8.445344	-0.003313	0.000418	-0.000745	-0.945068	-0.023193	-0.588867	11.014776	30.901985	-26.537918
60202		-5.116532	1.613332	8.431631	-0.005489	0.004674	0.001983	-0.954590	-0.013428	-0.599121	11.014207	30.904872	-26.537850
60203		-5.123857	1.600081	8.400525	-0.000464	-0.001701	0.004928	-0.946045	-0.016846	-0.589844	11.016223	30.903774	-26.536940
60204		-5.065804	1.614359	8.400080	-0.003498	0.001966	-0.002489	-0.957764	-0.018555	-0.589355	11.015112	30.905627	-26.540148
60205		-5.122350	1.633710	8.404691	-0.007400	0.005618	0.001534	-0.948486	-0.009033	-0.588623	11.012479	30.908946	-26.541391
60206		-5.124410	1.599186	8.400358	-0.002560	0.000790	0.002735	-0.950684	-0.017578	-0.588379	11.013587	30.909567	-26.541325
60207		-5.119044	1.577882	8.427199	-0.005548	0.001286	0.000398	-0.952148	-0.011719	-0.584717	11.011344	30.910572	-26.541050
60208		-5.131910	1.585351	8.369254	-0.004655	0.003281	0.000543	-0.951416	-0.015381	-0.592529	11.010676	30.912834	-26.542104
60209		-5.134373	1.595938	8.422642	-0.004471	0.001734	0.002287	-0.952881	-0.020996	-0.588379	11.009715	30.913870	-26.541135
60210		-5.156709	1.601353	8.387053	-0.003069	0.002260	0.002583	-0.947510	-0.013672	-0.593018	11.010576	30.915334	-26.540981
60211		-5.108242	1.613318	8.408954	-0.004286	0.000187	0.004030	-0.951660	-0.020508	-0.598389	11.010228	30.915356	-26.540609
60212		-5.106293	1.647216	8.413346	-0.005933	-0.002179	0.000405	-0.961182	-0.019043	-0.591797	11.008424	30.914561	-26.542450
60213		-5.117647	1.610078	8.431576	-0.008537	0.001783	-0.001940	-0.942383	-0.007080	-0.593994	11.003747	30.916139	-26.547033
60214		-5.093097	1.592955	8.413834	-0.005424	-0.003649	0.000556	-0.949951	-0.020264	-0.589600	11.002189	30.914502	-26.548962
60215		-5.158306	1.564957	8.383346	-0.005224	0.001364	-0.001194	-0.951416	-0.018311	-0.580322	10.999630	30.915793	-26.548734
60216		-5.093045	1.592070	8.414033	-0.005364	-0.000261	0.002141	-0.955078	-0.012695	-0.589355	10.998862	30.915887	-26.549191
60217		-5.093075	1.591862	8.414054	-0.003393	0.002182	0.004175	-0.947998	-0.007568	-0.587402	10.999194	30.916912	-26.549198
60218		-5.124825	1.595026	8.400896	-0.005688	-0.000339	0.003733	-0.951904	-0.019287	-0.591309	10.998771	30.916788	-26.548622
60219		-5.139846	1.613732	8.396412	-0.000264	0.003310	0.003178	-0.947754	-0.016357	-0.588867	11.000648	30.918638	-26.546385
60220		-5.134479	1.592625	8.423205	-0.006012	-0.000416	0.005325	-0.947021	-0.014404	-0.591064	11.000570	30.918297	-26.544775
60221		-5.124872	1.594818	8.400907	-0.000324	-0.000078	0.001592	-0.955078	-0.018311	-0.581787	11.001670	30.918447	-26.544938
60222		-5.124753	1.594821	8.400979	-0.004102	-0.001361	0.005773	-0.950439	-0.010254	-0.591797	11.002777	30.917525	-26.543154
60223		-5.083298	1.593675	8.391931	-0.003777	-0.001283	0.004181	-0.949219	-0.015137	-0.581787	11.002678	30.916630	-26.542408
60224		-5.124432	1.594550	8.401227	-0.005688	-0.000338	0.003733	-0.955811	-0.015869	-0.595459	11.002255	30.916507	-26.541831
60225		-5.122397	1.628592	8.405656	-0.003269	-0.002753	0.004333	-0.946533	-0.010498	-0.585938	11.002413	30.914798	-26.541394
60226		-5.114471	1.596587	8.379176	-0.003777	-0.001283	0.004181	-0.947021	-0.010010	-0.586670	11.003174	30.914094	-26.540644
60227		-5.080676	1.627109	8.396833	-0.007659	-0.002780	0.001698	-0.950195	-0.024414	-0.577148	10.999925	30.912669	-26.539110
60228		-5.133054	1.591223	8.424338	-0.006581	-0.002333	0.003587	-0.954102	-0.019043	-0.582275	10.998810	30.911440	-26.538883
60229		-5.102891	1.553532	8.433419	-0.002191	-0.002306	0.006221	-0.955811	-0.020752	-0.584473	11.000262	30.909680	-26.543800
60230		-5.123180	1.593397	8.402208	-0.003068	0.002260	0.002584	-0.948975	-0.018311	-0.597168	11.001124	30.911143	-26.543646
60231		-5.134612	1.556854	8.420257	-0.003208	0.000634	0.005918	-0.951904	-0.014404	-0.591553	11.002101	30.911211	-26.543628
60232		-5.138135	1.612174	8.397758	-0.003208	0.000634	0.005918	-0.954834	-0.011719	-0.589844	11.003899	30.911395	-26.541495
60233		-5.139843	1.577892	8.393570	-0.005504	-0.001886	0.005475	-0.951904	-0.011963	-0.580811	11.003229	30.910074	-26.538366
60234		-5.094594	1.645098	8.393164	-0.006152	-0.002041	0.008658	-0.953125	-0.015869	-0.587891	11.004087	30.908454	-26.534778
60235		-5.081271	1.592101	8.393458	-0.002699	-0.000836	0.006069	-0.956055	-0.010986	-0.587646	11.005288	30.907588	-26.533070
60236		-5.137301	1.611973	8.398307	-0.003777	-0.001283	0.004180	-0.947510	-0.011230	-0.585205	11.006048	30.906885	-26.532320
60237		-5.150569	1.541183	8.412081	-0.004224	0.003575	0.005616	-0.940430	-0.012695	-0.590576	11.006515	30.908581	-26.528061
60238		-5.073986	1.605200	8.424570	-0.002962	0.002473	0.009247	-0.954346	-0.015869	-0.590576	11.009695	30.909435	-26.523511
60239		-5.139429	1.578000	8.393804	-0.000911	0.003153	0.006361	-0.952637	-0.030273	-0.586426	11.012309	30.910910	-26.519471
60240		-5.137709	1.612484	8.397959	-0.001235	0.003076	0.007953	-0.952881	-0.017334	-0.589600	11.016082	30.912244	-26.515693
60241		-5.139584	1.578633	8.393589	-0.000219	0.000135	0.008255	-0.943848	-0.017334	-0.581787	11.019546	30.911751	-26.517808
60242		-5.105884	1.609692	8.411081	-0.003532	0.000557	0.007509	-0.944580	-0.007568	-0.587402	11.021688	30.911717	-26.514642
60243		-5.105955	1.609795	8.411017	-0.003145	0.004022	0.007504	-0.947754	-0.016602	-0.594238	11.023456	30.913503	-26.509226
60244		-5.081619	1.593477	8.392986	-0.003286	0.002396	0.010838	-0.950684	-0.022217	-0.584961	11.026981	30.914138	-26.503643
60245		-5.123101	1.594710	8.402008	-0.003004	0.005648	0.004170	-0.957275	-0.021973	-0.594727	11.027839	30.917235	-26.504296
60246		-5.115934	1.607871	8.433036	-0.003025	-0.000913	0.007659	-0.945557	-0.015869	-0.584717	11.030227	30.916358	-26.501220
60247		-5.096641	1.612425	8.388460	-0.005505	-0.001883	0.005473	-0.949219	-0.011719	-0.579590	11.029594	30.915056	-26.501897
60248		-5.132339	1.592335	8.424563	-0.004935	0.000033	0.007211	-0.951416	-0.022461	-0.584717	11.030799	30.914760	-26.498994
60249		-5.139521	1.579250	8.393512	-0.003532	0.000557	0.007508	-0.947754	-0.019531	-0.583984	11.032124	30.914519	-26.498251
60250		-5.147087	1.611480	8.420166	0.001183	0.000658	0.008551	-0.949463	-0.015625	-0.587891	11.037326	30.914427	-26.494390
60251		-5.112852	1.597784	8.379935	-0.002412	-0.002171	0.014472	-0.946045	-0.015137	-0.592529	11.041474	30.911956	-26.488473
60252		-5.114810	1.608805	8.433540	-0.006662	-0.000567	0.008504	-0.959229	-0.023438	-0.587402	11.042085	30.911180	-26.484799
60253		-5.052207	1.646498	8.384170	-0.001178	-0.005247	0.006520	-0.950195	-0.016357	-0.588623	11.044073	30.907873	-26.485704
60254		-5.093175	1.647453	8.393563	-0.009001	0.000091	0.002984	-0.952637	-0.019287	-0.589844	11.041528	30.908072	-26.485564
60255		-5.138103	1.579703	8.394295	-0.006584	-0.002327	0.003583	-0.951172	-0.014160	-0.592285	11.039626	30.906725	-26.486945
60256		-5.120895	1.594889	8.403318	-0.004815	-0.004901	0.007364	-0.950195	-0.021240	-0.584229	11.040625	30.903637	-26.484573
60257		-5.131953	1.558291	8.421613	-0.005505	-0.001882	0.005472	-0.945068	-0.011963	-0.594971	11.040006	30.902331	-26.484498
60258		-5.135134	1.613383	8.399361	-0.007232	-0.002483	0.006765	-0.946045	-0.010254	-0.582520	11.039578	30.900668	-26.482210
60259		-5.103064	1.609838	8.412763	-0.003920	-0.002907	0.007511	-0.946289	-0.021973	-0.594238	11.040479	30.898604	-26.475342
60260		-5.108009	1.631033	8.386226	-0.003413	-0.004378	0.007661	-0.949951	-0.015381	-0.587402	11.042416	30.895778	-26.472708
60261		-5.066376	1.629746	8.377290	-0.006584	-0.002326	0.003583	-0.947998	-0.015869	-0.588623	11.040533	30.894487	-26.473739
60262		-5.100183	1.643533	8.417771	-0.006442	-0.000699	0.000250	-0.950684	-0.016602	-0.587158	11.038482	30.894542	-26.475492
60263		-5.128300	1.591119	8.427252	-0.007662	-0.002771	0.001694	-0.948486	-0.012207	-0.584717	11.035307	30.893153	-26.477060
60264		-5.118627	1.592939	8.405070	-0.005039	-0.000176	0.000548	-0.950439	-0.017334	-0.593018	11.034194	30.893469	-26.478551
60265		-5.137313	1.543156	8.392061	-0.002051	-0.000679	0.002884	-0.951904	-0.019043	-0.585449	11.034772	30.893136	-26.477996
60266		-5.135402	1.577402	8.396380	-0.002310	0.002629	0.006063	-0.950928	-0.015625	-0.589355	11.037263	30.894425	-26.475514
60267		-5.101687	1.608112	8.413929	-0.005505	-0.001881	0.005471	-0.946533	-0.023682	-0.583252	11.036652	30.893103	-26.475706
60268		-5.075097	1.625887	8.400443	0.000613	-0.001261	0.006812	-0.953613	-0.023682	-0.592041	11.040814	30.892122	-26.473231
60269		-5.106815	1.629326	8.387285	-0.006377	0.002688	0.001838	-0.953369	-0.013672	-0.587646	11.038806	30.893793	-26.478879
60270		-5.089893	1.644313	8.396169	-0.006077	-0.003796	0.003732	-0.951660	-0.015625	-0.594727	11.037932	30.891725	-26.478747
60271		-5.101197	1.607365	8.414369	-0.006949	0.000773	0.000100	-0.951172	-0.019043	-0.589355	11.034873	30.892517	-26.480126
60272		-5.112679	1.570377	8.432463	-0.005039	-0.000175	0.000547	-0.951172	-0.018066	-0.589355	11.033760	30.892834	-26.481617
60273		-5.110937	1.604262	8.436753	-0.004078	0.005204	0.002284	-0.957031	-0.015381	-0.588379	11.033381	30.895874	-26.483316
60274		-5.152246	1.560149	8.387967	-0.004326	0.003368	-0.001046	-0.947754	-0.020020	-0.595947	11.032373	30.898358	-26.485400
60275		-5.145240	1.573007	8.418943	-0.002493	0.004178	0.004322	-0.956543	-0.015625	-0.586182	11.033525	30.900621	-26.485344
60276		-5.124459	1.611851	8.378438	-0.001986	0.002707	0.004472	-0.955078	-0.021240	-0.588623	11.035671	30.902128	-26.483895
60277		-5.124646	1.611860	8.378322	-0.001338	0.002864	0.001291	-0.952393	-0.016846	-0.590576	11.036362	30.903888	-26.488220
60278		-5.091003	1.642416	8.395867	-0.004857	-0.001724	0.002288	-0.958740	-0.010498	-0.591309	11.035837	30.903143	-26.488770
60279		-5.092880	1.607785	8.391634	-0.006949	0.000774	0.000099	-0.947754	-0.012939	-0.585938	11.032779	30.903901	-26.490704
60280		-5.150984	1.592916	8.392176	-0.007197	-0.001063	-0.003231	-0.947998	-0.022949	-0.591064	11.029099	30.904133	-26.494786
60281		-5.104348	1.569997	8.409878	-0.004715	-0.000096	-0.001044	-0.953613	-0.024414	-0.586670	11.026898	30.904580	-26.497697
60282		-5.128770	1.586098	8.427912	-0.005039	-0.000175	0.000547	-0.952637	-0.016357	-0.598389	11.025784	30.904897	-26.499190
60283		-5.117325	1.622211	8.409978	-0.005870	0.001217	0.001987	-0.945557	-0.015137	-0.591064	11.024040	30.905758	-26.503115
60284		-5.107770	1.624222	8.387693	-0.003130	-0.001123	0.000994	-0.947266	-0.020508	-0.590576	11.024109	30.905492	-26.504435
60285		-5.100510	1.636753	8.418894	-0.008534	0.001801	-0.001940	-0.949707	-0.010742	-0.588623	11.019556	30.907151	-26.506521
60286		-5.134184	1.605361	8.401479	-0.005611	-0.002090	-0.001193	-0.949951	-0.022949	-0.588135	11.017404	30.906582	-26.509399
60287		-5.119179	1.585994	8.406047	-0.006442	-0.000697	0.000248	-0.954590	-0.023438	-0.590820	11.014609	30.906521	-26.511369
60288		-5.136002	1.570214	8.397360	-0.003312	0.000426	-0.000746	-0.955811	-0.012695	-0.591309	11.014089	30.907318	-26.513633
60289		-5.109587	1.587560	8.383869	-0.004533	-0.001646	0.000696	-0.948486	-0.015137	-0.587646	11.012483	30.906661	-26.518047
60290		-5.119034	1.584870	8.406347	-0.005039	-0.000175	0.000546	-0.949951	-0.020996	-0.595215	11.011369	30.906978	-26.519541
60291		-5.107298	1.620958	8.388611	-0.006649	-0.005712	0.001989	-0.946289	-0.013672	-0.598633	11.008732	30.903964	-26.521174
60292		-5.129143	1.626297	8.353392	-0.005936	-0.002168	0.000397	-0.960205	-0.017822	-0.588623	11.006924	30.903176	-26.523020
60293		-5.067733	1.629561	8.433416	-0.005936	-0.002168	0.000397	-0.952881	-0.013916	-0.586182	11.004392	30.902315	-26.525008
60294		-5.123460	1.603970	8.380561	-0.008600	-0.001583	-0.003531	-0.954346	-0.013916	-0.587891	10.999773	30.902286	-26.529353
60295		-5.076703	1.580958	8.398327	-0.005936	-0.002168	0.000397	-0.948486	-0.030273	-0.582764	10.997215	30.901317	-26.530711
60296		-5.149518	1.585093	8.394556	-0.005611	-0.002089	-0.001194	-0.958252	-0.014404	-0.588623	10.995062	30.900747	-26.533589
60297		-5.083617	1.567016	8.367603	-0.004026	-0.003117	0.000845	-0.941895	-0.014893	-0.590820	10.993711	30.899197	-26.540972
60298		-5.132112	1.599697	8.403825	-0.004922	-0.005110	0.000695	-0.950684	-0.019287	-0.585938	10.992392	30.896721	-26.542996
60299		-5.141389	1.596911	8.426421	-0.006442	-0.000697	0.000248	-0.949707	-0.018066	-0.582764	10.989620	30.896711	-26.542877
60300		-5.131735	1.598740	8.404237	-0.005936	-0.002168	0.000397	-0.958496	-0.017822	-0.587158	10.987813	30.895923	-26.544722
60301		-5.090250	1.596974	8.395293	-0.008741	-0.003212	-0.000200	-0.951904	-0.012207	-0.589355	10.983388	30.894409	-26.549771
60302		-5.114466	1.612933	8.413501	-0.004533	-0.001646	0.000695	-0.953125	-0.015869	-0.588379	10.982519	30.893882	-26.551354
60303		-5.116214	1.578264	8.409306	-0.007338	-0.002690	0.000098	-0.946533	-0.014648	-0.581787	10.979043	30.892703	-26.552103
60304		-5.097232	1.627163	8.422738	-0.007014	-0.002610	-0.001493	-0.951172	-0.019775	-0.590088	10.975952	30.891872	-26.555243
60305		-5.130609	1.595879	8.405468	-0.007156	-0.004240	0.001837	-0.952881	-0.021729	-0.588867	10.973074	30.889633	-26.556184
60306		-5.115393	1.576598	8.410118	-0.006583	-0.002327	0.003578	-0.949707	-0.023682	-0.587158	10.971955	30.888408	-26.555964
60307		-5.120423	1.597504	8.383652	-0.003843	-0.004668	0.002583	-0.947021	-0.009766	-0.594727	10.971221	30.885867	-26.561427
60308		-5.097903	1.591328	8.419412	-0.005936	-0.002167	0.000396	-0.948975	-0.018799	-0.591309	10.969414	30.885078	-26.563272
60309		-5.138965	1.591991	8.428831	-0.008817	-0.001457	0.004721	-0.952881	-0.022705	-0.589355	10.966760	30.884213	-26.558411
60310		-5.129127	1.593992	8.406731	-0.003843	-0.004667	0.002582	-0.957520	-0.016602	-0.592529	10.966724	30.881780	-26.559141
60311		-5.109737	1.598314	8.362297	-0.007662	-0.002769	0.001688	-0.949707	-0.019775	-0.586426	10.963624	30.880402	-26.563722
60312		-5.111552	1.608358	8.416147	-0.007728	-0.006153	0.000095	-0.944580	-0.015137	-0.588135	10.960429	30.877404	-26.566270
60313		-5.106581	1.631162	8.367717	-0.009911	-0.013603	-0.000208	-0.952148	-0.021240	-0.591797	10.954695	30.870171	-26.568818
60314		-5.102289	1.574688	8.390738	-0.012369	-0.007999	-0.005872	-0.952881	-0.015381	-0.588867	10.946715	30.866783	-26.575510
60315		-5.116669	1.636857	8.445065	-0.015565	-0.012506	-0.006472	-0.944336	-0.014893	-0.587158	10.935718	30.860840	-26.584569
60316		-5.128255	1.643703	8.388169	-0.011886	-0.016036	-0.002251	-0.953369	-0.015381	-0.580078	10.928713	30.852536	-26.589904
60317		-5.114132	1.633900	8.447174	-0.019657	-0.019005	-0.007225	-0.953125	-0.010742	-0.589111	10.914680	30.842947	-26.596944
60318		-5.123175	1.674242	8.395250	-0.020112	-0.025851	-0.008825	-0.956299	-0.021484	-0.591309	10.900122	30.829832	-26.607820
60319		-5.147130	1.654191	8.410756	-0.022544	-0.035130	-0.012467	-0.948975	-0.011230	-0.592285	10.881670	30.811788	-26.622360
60320		-5.114504	1.613859	8.421621	-0.025672	-0.036252	-0.011477	-0.954834	-0.020508	-0.594238	10.862379	30.793101	-26.636268
60321		-5.120842	1.563975	8.388330	-0.024013	-0.039029	-0.014370	-0.959717	-0.013672	-0.593994	10.842239	30.773162	-26.650520
60322		-5.136672	1.556645	8.435449	-0.021344	-0.039617	-0.010449	-0.949707	-0.013672	-0.587646	10.825576	30.752463	-26.664157
60323		-5.133464	1.554456	8.437805	-0.020906	-0.039338	-0.005382	-0.950928	-0.012939	-0.584473	10.810208	30.731314	-26.671618
60324		-5.070198	1.600993	8.444043	-0.017592	-0.039763	-0.004644	-0.959961	-0.017822	-0.589355	10.797645	30.709903	-26.681453
60325		-5.063913	1.543972	8.468139	-0.013807	-0.026777	-0.005764	-0.952881	-0.009521	-0.588623	10.787027	30.695805	-26.689538
60326		-5.129349	1.481409	8.434516	-0.009531	-0.021831	-0.003273	-0.953857	-0.018066	-0.592041	10.780692	30.684337	-26.696228
60327		-5.075080	1.560785	8.466502	-0.007045	-0.020870	-0.001087	-0.947754	-0.015869	-0.592041	10.775902	30.673158	-26.697617
60328		-5.064180	1.562610	8.445103	-0.006590	-0.014026	0.000520	-0.952881	-0.013428	-0.586670	10.773017	30.665677	-26.700850
60329		-5.053685	1.564674	8.423419	-0.002888	-0.010991	0.001268	-0.953857	-0.019531	-0.592041	10.772032	30.659832	-26.699738
60330		-4.857472	1.600796	8.456816	-0.010676	0.019189	-0.006098	-0.948730	-0.012451	-0.581055	10.766706	30.671755	-26.703167
60331		-4.539929	1.769397	8.076296	-0.025796	0.115867	-0.038150	-0.953613	-0.012695	-0.583984	10.747470	30.741463	-26.714292
60332		-4.874584	1.795884	8.496822	-0.039276	0.173762	-0.050763	-0.948975	-0.024170	-0.593750	10.720591	30.845164	-26.727801
60333		-4.869246	1.739244	8.332529	-0.046364	0.184149	-0.065925	-0.946289	-0.016602	-0.591797	10.684498	30.956234	-26.750482
60334		-5.327078	1.858400	8.336743	-0.054184	0.166146	-0.075646	-0.954102	-0.029053	-0.590576	10.640034	31.058270	-26.781462
60335		-5.316402	1.720013	8.379760	-0.057868	0.075135	-0.072829	-0.945801	-0.017334	-0.578613	10.587915	31.108621	-26.825848
60336		-5.022428	1.571750	8.383990	-0.070376	0.075285	-0.083984	-0.945801	-0.007080	-0.594482	10.525381	31.160305	-26.873718
60337		-5.377560	1.103228	8.553478	-0.062562	0.083570	-0.065807	-0.942139	-0.014404	-0.587158	10.473314	31.214493	-26.904458
60338		-5.322677	1.010704	8.513329	-0.040415	0.080802	-0.034159	-0.945801	-0.006592	-0.590820	10.445166	31.264033	-26.918979
60339		-5.426370	0.982510	8.598400	-0.019068	0.082788	0.000555	-0.947266	-0.010986	-0.599365	10.440550	31.310895	-26.904601
60340		-5.294564	1.209267	8.546354	0.011827	0.078122	0.025949	-0.945313	-0.014160	-0.594238	10.462752	31.352676	-26.879819
60341		-5.276409	1.399296	8.573696	0.032461	0.099515	0.046790	-0.943848	-0.010498	-0.597168	10.504627	31.404234	-26.832757
60342		-5.464868	1.518676	8.448633	0.048496	0.072713	0.070973	-0.942627	-0.015869	-0.585938	10.563069	31.438222	-26.778825
60343		-5.195726	1.629279	8.361037	0.061274	0.039299	0.076281	-0.945068	-0.009766	-0.595947	10.627838	31.452589	-26.724479
60344		-5.108417	1.570406	8.309206	0.061064	0.025779	0.069873	-0.940430	-0.013916	-0.587646	10.690144	31.460165	-26.676996
60345		-5.143869	1.592526	8.347060	0.056280	0.025509	0.062120	-0.935791	-0.017578	-0.589111	10.746320	31.468172	-26.633492
60346		-5.145791	1.521478	8.282292	0.055488	0.021778	0.057026	-0.942627	-0.008301	-0.590088	10.800766	31.474791	-26.594964
60347		-5.104640	1.651115	8.258821	0.043664	0.012308	0.051224	-0.941895	-0.015137	-0.583740	10.845122	31.476472	-26.563587
60348		-5.116741	1.620174	8.275091	0.034615	0.018788	0.044007	-0.942383	-0.015869	-0.595459	10.882938	31.482762	-26.534012
60349		-5.245901	1.436197	8.304026	0.030237	0.018781	0.041340	-0.940430	-0.015869	-0.593750	10.916644	31.489094	-26.509530
60350		-5.233187	1.511836	8.289458	0.031655	0.016114	0.046712	-0.942139	-0.025146	-0.593018	10.953530	31.493554	-26.478498
60351		-5.193635	1.605158	8.261760	0.025385	0.013867	0.048659	-0.937012	-0.013672	-0.591064	10.986678	31.496394	-26.451652
60352		-5.168425	1.503471	8.260483	0.019724	0.020113	0.048866	-0.942871	-0.028076	-0.587158	11.017746	31.502837	-26.418678
60353		-5.084717	1.494384	8.321684	0.017865	0.027646	0.044918	-0.942627	-0.012695	-0.594238	11.046226	31.513753	-26.393452
60354		-5.082897	1.566123	8.328797	0.012529	0.037165	0.038463	-0.944092	-0.019287	-0.588623	11.070753	31.530901	-26.365127
60355		-5.223562	1.546713	8.290353	0.008214	0.040548	0.037384	-0.943359	-0.025635	-0.593750	11.091982	31.549868	-26.338830
60356		-5.335099	1.534345	8.319065	0.013416	0.027447	0.035586	-0.938232	-0.017090	-0.595947	11.115393	31.561850	-26.313635
60357		-5.179630	1.698130	8.216345	0.005101	0.007665	0.030880	-0.938965	-0.016113	-0.598877	11.130405	31.563122	-26.298405
60358		-4.905607	1.798970	8.133037	-0.008040	-0.004074	0.019876	-0.943115	-0.019287	-0.594238	11.133961	31.559111	-26.287660
60359		-5.110259	1.794210	8.256893	-0.021489	0.010736	0.011425	-0.942871	-0.017578	-0.590820	11.127239	31.564268	-26.282054
60360		-5.545278	1.340965	8.446208	-0.004858	-0.011285	0.017467	-0.935791	-0.020508	-0.588623	11.131297	31.556470	-26.273834
60361		-5.410067	1.520219	8.498294	0.016770	-0.074673	0.024071	-0.948486	-0.015869	-0.592773	11.145040	31.512147	-26.272277
60362		-5.297306	1.639004	8.373126	0.031132	-0.072576	0.030603	-0.947266	-0.018311	-0.593994	11.170065	31.468435	-26.263378
60363		-5.390680	1.596809	8.381513	0.036089	-0.108783	0.037649	-0.952637	-0.005371	-0.592529	11.197192	31.403431	-26.257273
60364		-5.138331	1.660362	8.365048	0.046451	-0.114933	0.038473	-0.953613	-0.017822	-0.595215	11.230766	31.335029	-26.248783
60365		-5.280362	1.529617	8.423135	0.060274	-0.099843	0.041174	-0.941406	-0.013916	-0.592041	11.273484	31.274643	-26.237171
60366		-5.139641	1.546476	8.432119	0.072397	-0.111757	0.050835	-0.944336	-0.019043	-0.590820	11.326268	31.206628	-26.220272
60367		-5.091125	1.732634	8.391006	0.072859	-0.083632	0.040194	-0.949463	-0.020752	-0.592773	11.376898	31.155551	-26.206839
60368		-5.068243	1.801234	8.459744	0.076207	-0.049119	0.043310	-0.951904	-0.015381	-0.587646	11.433489	31.123542	-26.186751
60369		-5.097816	1.778575	8.309309	0.072780	-0.040561	0.037313	-0.948975	-0.019775	-0.589844	11.485985	31.096897	-26.172000
60370		-4.756370	1.699048	8.420220	0.076069	-0.009444	0.038831	-0.946289	-0.022705	-0.589844	11.543660	31.087642	-26.149630
60371		-4.935382	1.675699	8.338004	0.066896	0.065061	0.033014	-0.947021	-0.023682	-0.595215	11.598639	31.120776	-26.124035
60372		-5.074020	1.719733	8.385657	0.075735	0.121257	0.028376	-0.950195	-0.017334	-0.587158	11.661719	31.186038	-26.090889
60373		-5.324046	1.749602	8.463005	0.069888	0.114193	0.028896	-0.943604	-0.018066	-0.586182	11.720575	31.247143	-26.060993
60374		-5.158718	1.885909	8.303754	0.054372	0.105112	0.023994	-0.946777	-0.027344	-0.597412	11.768940	31.303802	-26.032730
60375		-5.236655	1.797179	8.391757	0.049684	0.096710	0.021510	-0.941406	-0.021973	-0.587646	11.812604	31.355924	-26.010052
60376		-5.158591	1.787758	8.315235	0.039879	0.084755	0.017990	-0.948730	-0.025146	-0.587646	11.849265	31.401837	-25.988403
60377		-5.300955	1.760260	8.354761	0.034525	0.076202	0.018693	-0.947021	-0.023438	-0.584473	11.881883	31.442687	-25.970741
60378		-5.186499	1.690906	8.316162	0.033496	0.055925	0.019088	-0.944336	-0.021973	-0.593750	11.913247	31.472285	-25.952283
60379		-4.960540	1.804015	8.290661	0.023504	0.053842	0.015226	-0.939941	-0.025146	-0.589111	11.936791	31.500989	-25.939648
60380		-4.773649	1.817420	8.238905	0.019404	0.078922	0.015145	-0.944824	-0.026611	-0.598145	11.960440	31.543931	-25.920538
60381		-5.272068	1.772464	8.307186	0.003527	0.111694	0.025413	-0.934082	-0.021484	-0.595947	11.980343	31.603893	-25.893337
60382		-5.114070	1.723697	8.344062	0.010804	0.071050	0.021729	-0.941406	-0.026367	-0.593506	12.000818	31.641628	-25.870937
60383		-5.162600	1.816020	8.329477	-0.003526	0.100543	0.015826	-0.939453	-0.023193	-0.583252	12.012629	31.696487	-25.848769
60384		-5.314091	1.726318	8.278779	-0.008079	0.121936	0.009078	-0.938721	-0.021973	-0.596191	12.021715	31.764238	-25.827521
60385		-5.366422	1.693606	8.277518	-0.004289	0.091606	0.004284	-0.936279	-0.021973	-0.595215	12.028465	31.815368	-25.814360
60386		-5.240297	1.646811	8.301378	0.000239	0.090081	0.008680	-0.937500	-0.025146	-0.593262	12.039875	31.865312	-25.797805
60387		-5.075236	1.654280	8.294097	0.008320	0.093134	0.012082	-0.936768	-0.020996	-0.589355	12.056734	31.916413	-25.779408
60388		-5.282704	1.667625	8.441767	0.013537	0.120192	0.018997	-0.936279	-0.022217	-0.595215	12.081675	31.981983	-25.751734
60389		-5.223057	1.694501	8.199924	0.023437	0.107384	0.025016	-0.938965	-0.018311	-0.589355	12.112851	32.039461	-25.722045
60390		-4.937282	1.878950	8.263376	0.021604	0.114678	0.014347	-0.940918	-0.023438	-0.594727	12.140476	32.102478	-25.698114
60391		-5.247951	1.855073	8.198378	0.013891	0.143095	0.003233	-0.939697	-0.012207	-0.598145	12.161340	32.182527	-25.678603
60392		-5.170655	1.732413	8.300916	0.012694	0.127267	-0.009823	-0.932617	-0.022705	-0.598389	12.176390	32.255499	-25.668782
60393		-5.395319	1.629460	8.401838	0.022322	0.149175	-0.006722	-0.936279	-0.016846	-0.598633	12.199139	32.340204	-25.653291
60394		-5.477551	1.671590	8.391958	0.039186	0.127449	0.004615	-0.928955	-0.022461	-0.592529	12.234578	32.411520	-25.633781
60395		-5.448754	1.639996	8.372134	0.056034	0.125348	0.006949	-0.927490	-0.023682	-0.591309	12.279770	32.481201	-25.612953
60396		-5.479787	1.652285	8.328096	0.080141	0.119844	0.026093	-0.934326	-0.030029	-0.591309	12.345876	32.545609	-25.580117
60397		-5.249706	1.728711	8.356397	0.102322	0.114559	0.024824	-0.935303	-0.028809	-0.591309	12.423285	32.607030	-25.549628
60398		-5.266700	1.726195	8.316313	0.121246	0.149983	0.031218	-0.931396	-0.023438	-0.593506	12.517373	32.687588	-25.508699
60399		-4.175920	1.665502	8.626481	0.165292	0.186696	0.006847	-0.919189	-0.032959	-0.598389	12.630416	32.791514	-25.478655
60400		-3.743499	1.829028	7.973298	0.206828	0.543517	-0.026262	-0.920166	-0.032715	-0.601074	12.785334	33.099128	-25.416369
60401		-4.742874	1.737652	7.887744	0.262629	0.791552	-0.050915	-0.916260	-0.031250	-0.595215	12.984481	33.548048	-25.331545
60402		-5.132886	1.212059	8.539915	0.292753	0.923344	-0.055983	-0.906250	-0.033203	-0.598633	13.213089	34.071119	-25.226715
60403		-5.588916	1.185643	8.211870	0.362417	1.002151	-0.014326	-0.898193	-0.028564	-0.602539	13.506763	34.631954	-25.077903
60404		-5.880620	1.371833	8.136293	0.447826	1.013412	0.022913	-0.893066	-0.028320	-0.594727	13.869613	35.193544	-24.896677
60405		-5.538151	1.707322	8.369140	0.573003	0.998185	0.008446	-0.889893	-0.041016	-0.614990	14.301137	35.747405	-24.722284
60406		-5.853757	2.479906	8.253418	0.449773	1.069590	-0.003769	-0.873535	-0.044434	-0.609863	14.670296	36.341861	-24.537188
60407		-5.652513	2.193339	7.847509	0.274138	1.041092	-0.040985	-0.872803	-0.037354	-0.606934	14.924412	36.924892	-24.377952
60408		-5.740542	2.850095	7.620054	0.265310	1.116817	-0.091218	-0.865967	-0.049805	-0.611328	15.165698	37.556996	-24.234634
60409		-5.888118	2.735370	7.422281	0.177052	1.113759	-0.149919	-0.853271	-0.045898	-0.602783	15.333865	38.195566	-24.129335
60410		-6.292551	2.456207	7.573150	0.146955	1.059481	-0.185387	-0.846436	-0.053467	-0.613525	15.466162	38.809608	-24.056157
60411		-6.070192	2.354525	7.484660	0.101504	1.031982	-0.190073	-0.835205	-0.048340	-0.618652	15.568223	39.408785	-23.989913
60412		-5.946753	1.962064	7.582295	0.074067	1.089417	-0.191354	-0.825439	-0.053223	-0.610840	15.663811	40.040046	-23.910723
60413		-5.923257	1.655483	7.741420	0.091522	1.185411	-0.181194	-0.817871	-0.055176	-0.616943	15.788380	40.722250	-23.802684
60414		-5.690316	1.900765	7.664844	0.124431	1.340656	-0.171982	-0.811035	-0.053467	-0.623535	15.961519	41.488653	-23.651642
60415		-5.626670	1.838673	7.429646	0.175673	1.574642	-0.195859	-0.791260	-0.053711	-0.628906	16.190189	42.386914	-23.463292
60416		-5.569447	1.504942	7.350606	0.221664	1.845684	-0.208089	-0.778809	-0.052002	-0.628418	16.488536	43.435864	-23.215385
60417		-5.879338	1.464033	7.446493	0.262285	2.181317	-0.183243	-0.759033	-0.064209	-0.628906	16.889011	44.663399	-22.858636
60418		-5.546415	1.502771	6.554256	0.337918	2.558957	-0.244553	-0.740967	-0.071533	-0.629150	17.385825	46.106410	-22.436315
60419		-5.813346	1.869037	6.946221	0.415973	2.903085	-0.338027	-0.708252	-0.068115	-0.616699	17.967087	47.750236	-21.969870
60420		-5.915134	1.880766	7.149186	0.485797	3.254597	-0.483503	-0.690430	-0.059814	-0.628418	18.612779	49.608396	-21.484219
60421		-6.614891	2.389845	7.382701	0.515537	3.492513	-0.662146	-0.656738	-0.069824	-0.628174	19.261873	51.624426	-21.029503
60422		-7.009150	3.507214	8.058995	0.492103	3.762102	-0.954181	-0.633301	-0.073730	-0.624268	19.814771	53.839378	-20.692340
60423		-7.119151	4.538693	7.998019	0.215561	3.929407	-1.208801	-0.603760	-0.074707	-0.620117	20.105630	56.191983	-20.490909
60424		-7.693803	4.144912	7.583348	0.117230	4.181632	-1.380958	-0.562012	-0.075195	-0.614746	20.306236	58.714439	-20.335674
60425		-7.669443	4.598976	6.714214	-0.035289	4.393302	-1.586488	-0.527832	-0.078857	-0.617432	20.322111	61.390459	-20.296845
60426		-8.216143	4.728075	6.880029	-0.316215	4.555652	-1.789343	-0.482910	-0.069580	-0.614990	20.019366	64.194803	-20.436309
60427		-8.831076	3.914964	6.862544	-0.447776	4.664414	-1.986076	-0.442871	-0.062988	-0.597900	19.384693	67.094115	-20.854078
60428		-13.536018	2.506589	7.695285	-0.312888	4.671404	-1.988269	-0.407959	-0.052979	-0.588623	18.684994	69.996541	-21.415760
60429		-13.698512	1.263863	7.777517	0.122969	4.474097	-2.003674	-0.363037	-0.050293	-0.577393	17.904946	72.790260	-22.315861
60430		-13.353547	1.472224	6.670272	0.616013	4.509445	-2.046778	-0.341064	-0.062744	-0.557129	17.043695	75.607698	-23.580072
60431		-15.121320	1.448601	7.914808	1.213132	4.439820	-1.987261	-0.294678	-0.042236	-0.547119	16.155998	78.370173	-25.207172
60432		-13.987640	4.470697	6.109717	1.344897	4.552922	-2.209739	-0.253662	-0.057129	-0.524170	13.882180	81.219377	-28.302267
60433		-16.506643	8.795820	9.931250	0.913009	4.816877	-2.780502	-0.220947	-0.043945	-0.502441	5.790090	84.218012	-36.987512
60434		-17.799183	6.268061	11.358373	0.593307	3.886220	-2.662380	-0.180908	-0.038818	-0.486816	-14.506471	86.357077	-57.691580
60435		-13.677362	5.982326	10.800279	0.267522	3.803824	-3.150899	-0.155762	-0.026367	-0.471191	-63.417526	86.969736	-106.832287
60436		-11.806318	4.913169	11.173031	0.030595	3.321259	-3.345178	-0.126953	-0.009277	-0.449951	-96.691365	85.340508	-140.193951
60437		-7.465856	4.197672	11.140313	0.134618	2.612806	-3.412076	-0.108398	0.010254	-0.432861	-107.099341	83.109752	-150.734218
60438		-0.497659	5.728171	3.433802	-0.203455	3.116710	-3.404121	-0.082031	0.025635	-0.409912	-114.118762	80.649480	-157.707750
60439		-30.343879	8.483902	23.424578	0.305636	3.738036	-2.488531	-0.062256	0.036377	-0.391113	-120.665303	78.395699	-164.546195
60440		-17.848019	8.589469	16.904632	0.425798	0.402132	-1.638498	-0.053467	0.052734	-0.385498	-119.160142	77.465517	-163.259138
60441		-12.736883	7.405110	15.338038	0.614985	-1.384322	-0.767149	-0.063721	0.041992	-0.390381	-114.715360	77.435856	-159.071951
60442		-4.498130	6.460757	10.830188	0.553720	-2.652382	-0.176144	-0.067871	0.038330	-0.403809	-107.745149	77.891303	-152.264790
60443		-2.339810	5.407468	9.065711	0.439892	-3.089339	0.088224	-0.073242	0.038330	-0.427246	-99.330375	78.358693	-143.930247
60444		-1.229382	4.070368	7.612605	0.433834	-3.136326	0.244541	-0.095947	0.043457	-0.438232	-90.324064	78.648755	-134.996566
60445		-0.559623	3.698289	7.240626	0.482301	-2.924724	0.473833	-0.109131	0.035645	-0.453369	-81.523359	78.802161	-126.311605
60446		-1.578061	3.536213	7.485469	0.485559	-2.765120	0.760833	-0.118652	0.028320	-0.472168	-72.917695	78.875486	-117.826800
60447		-3.179581	3.687568	7.769542	0.444103	-2.916475	1.021063	-0.135010	0.018555	-0.476318	-63.650647	78.799882	-108.648054
60448		-3.873155	4.071603	8.165958	0.276757	-3.260813	1.228536	-0.148926	0.010742	-0.505615	-53.738840	78.427841	-98.702643
60449		-4.600609	3.788299	8.791450	0.026933	-3.704618	1.412232	-0.178223	0.000732	-0.523193	-43.635658	77.628178	-88.399323
60450		-4.446842	2.729413	8.417841	-0.205138	-4.140036	1.585457	-0.197998	-0.006592	-0.550049	-34.235341	76.348473	-78.635043
60451		-3.520276	1.419499	7.191954	-0.331498	-4.445254	1.666237	-0.227783	-0.017822	-0.577148	-26.250629	74.619068	-70.200439
60452		-2.237943	-0.212971	5.636297	-0.309077	-4.538864	1.627134	-0.260010	-0.016846	-0.599854	-20.038361	72.590406	-63.544512
60453		-1.843014	-1.997464	4.401051	-0.083376	-4.440947	1.500832	-0.306641	-0.024902	-0.618408	-15.307774	70.418130	-58.515186
60454		-2.601554	-3.464858	3.791567	0.402871	-4.209018	1.315535	-0.339844	-0.040283	-0.645508	-11.644582	68.247308	-54.850311
60455		-4.876082	-4.297938	4.596515	1.068327	-3.951900	1.203479	-0.371826	-0.052002	-0.661133	-8.465519	66.129944	-52.074430
60456		-7.844544	-3.492807	6.255940	1.678135	-3.823024	1.245965	-0.414063	-0.065430	-0.675537	-5.409235	64.041366	-49.768083
60457		-8.034088	-1.329420	7.410399	1.955387	-3.767345	1.372474	-0.449951	-0.095215	-0.677979	-2.450495	61.933471	-47.713448
60458		-7.736797	0.925579	8.248779	1.769935	-3.699751	1.428234	-0.495117	-0.110596	-0.671875	0.110134	59.830749	-45.946584
60459		-8.217673	1.961691	8.738585	1.284830	-3.576060	1.430191	-0.547363	-0.122803	-0.685547	2.139853	57.757633	-44.443130
60460		-10.020747	1.166812	9.215899	0.821780	-3.479017	1.439734	-0.588867	-0.115967	-0.686035	3.711961	55.724925	-43.129479
60461		-11.687589	0.015696	9.167508	0.639749	-3.470218	1.506639	-0.620605	-0.125977	-0.681885	5.085065	53.667614	-41.905286
60462		-12.343508	-0.557864	8.827837	0.675826	-3.512719	1.577768	-0.666748	-0.138428	-0.683838	6.386952	51.574937	-40.757704
60463		-12.621385	-0.679183	8.578869	0.793939	-3.511143	1.605209	-0.697510	-0.130615	-0.666016	7.656845	49.457185	-39.711099
60464		-13.110139	-0.446875	8.535148	0.913336	-3.459678	1.616269	-0.729736	-0.130615	-0.659180	8.892163	47.362637	-38.762749
60465		-13.601785	0.408960	8.559296	0.960149	-3.396874	1.654346	-0.774414	-0.138184	-0.658203	10.090039	45.278213	-37.876570
60466		-13.617586	2.057034	8.446095	0.835821	-3.382736	1.753581	-0.811768	-0.152832	-0.655029	11.183159	43.188312	-36.999938
60467		-13.047246	3.479257	8.300040	0.531189	-3.394091	1.912067	-0.843262	-0.147217	-0.638916	12.107168	41.054276	-36.085756
60468		-12.225934	4.174875	8.002352	0.141319	-3.391767	2.155234	-0.886963	-0.146240	-0.631104	12.848207	38.890474	-35.062451
60469		-11.498533	4.178332	7.638698	-0.216660	-3.335887	2.437106	-0.924561	-0.136963	-0.616455	13.445652	36.703595	-33.895265
60470		-11.323796	4.056433	7.748658	-0.494359	-3.234818	2.703421	-0.965332	-0.130371	-0.600342	13.927962	34.536741	-32.585364
60471		-12.169059	4.104935	8.484373	-0.737220	-3.185208	2.914806	-1.000488	-0.107178	-0.587646	14.285434	32.351902	-31.181038
60472		-12.729900	4.102587	9.232053	-0.965011	-3.199458	3.043343	-1.038086	-0.086182	-0.583252	14.482695	30.143476	-29.739941
60473		-13.239934	3.330882	9.389674	-1.148139	-3.263411	3.122793	-1.077393	-0.071777	-0.562012	14.529266	27.877591	-28.298678
60474		-13.444821	2.548027	9.216203	-1.215609	-3.294760	3.169824	-1.120605	-0.050781	-0.542480	14.482070	25.595545	-26.861166
60475		-13.611810	1.453490	8.694186	-1.166509	-3.321606	3.196126	-1.149414	-0.027344	-0.531982	14.407158	23.288707	-25.438691
60476		-13.660539	1.038298	7.955649	-1.031227	-3.282698	3.172416	-1.180908	-0.008545	-0.507324	14.344929	21.015905	-24.043578
60477		-13.661598	1.192621	6.842535	-0.907109	-3.204793	3.088461	-1.214111	0.018555	-0.487549	14.284515	18.792766	-22.706821
60478		-12.973969	1.615474	5.495851	-0.884610	-3.013999	2.920959	-1.237793	0.032959	-0.455566	14.163181	16.708068	-21.450666
60479		-12.971047	1.330159	4.301548	-0.912358	-2.719723	2.686330	-1.260742	0.053467	-0.433105	13.957666	14.816909	-20.296418
60480		-13.216123	0.089855	2.726511	-0.821825	-2.392101	2.437813	-1.293213	0.080322	-0.412354	13.744954	13.152303	-19.238622
60481		-14.011846	-1.231902	1.069861	-0.537339	-2.045972	2.183069	-1.301514	0.103027	-0.398193	13.646333	11.712476	-18.281893
60482		-15.507033	-3.670187	-1.320805	-0.004933	-1.741290	1.910789	-1.322266	0.117676	-0.383301	13.807936	10.484011	-17.440946
60483		-17.540434	-6.142652	-3.659480	0.842361	-1.506266	1.672703	-1.321045	0.127441	-0.363525	14.418997	9.409671	-16.714062
60484		-19.441550	-6.616112	-4.924215	1.778088	-1.356710	1.421717	-1.344971	0.126953	-0.344482	15.532181	8.448819	-16.122393
60485		-17.829989	-4.746521	-5.677098	2.299497	-1.107408	0.997004	-1.352295	0.123779	-0.332520	16.904266	7.677801	-15.749968
60486		-14.209536	-0.387765	-4.499412	2.044706	-0.591692	0.342103	-1.357422	0.122803	-0.318359	18.089318	7.296187	-15.665743
60487		-10.317632	6.276043	-3.964433	0.301224	1.604915	-0.770996	-1.360107	0.130371	-0.339111	18.245572	8.306606	-15.802116
60488		-17.536954	-0.890145	-4.029066	-1.129812	2.348536	-1.567825	-1.354248	0.122559	-0.344482	17.529882	9.863737	-16.250797
60489		-8.463924	-2.360605	3.381870	-1.553205	2.455537	-2.267623	-1.343262	0.112305	-0.355225	16.484541	11.589080	-17.098254
60490		0.687587	-4.355280	3.188042	-1.303863	1.780898	-2.439968	-1.340820	0.110107	-0.373779	15.508455	12.955841	-18.187304
60491		4.621806	2.551123	9.500582	-0.987296	2.219664	-2.494963	-1.336182	0.098389	-0.391602	14.687646	14.556193	-19.268917
60492		8.479511	4.519074	8.693660	-1.036863	3.815869	-2.618420	-1.324219	0.098389	-0.419678	13.836481	17.045340	-20.221773
60493		-13.663925	0.764735	9.465112	-0.707864	4.798489	-2.054692	-1.297119	0.092773	-0.448486	13.264879	19.993469	-20.751376
60494		-18.621198	1.599151	10.051732	-0.052525	4.052482	-0.873122	-1.289307	0.087891	-0.475342	13.254408	22.368740	-20.704100
60495		-16.414664	5.264393	17.171427	-0.349441	3.349219	-0.626754	-1.276123	0.095459	-0.494873	13.093483	24.319295	-20.610462
60496		-16.057743	-2.497056	14.251947	-0.384762	2.860732	-0.879477	-1.256348	0.090820	-0.519775	12.816719	26.030141	-20.748763
60497		-15.126178	1.914469	16.626278	-0.269035	2.480928	-0.593679	-1.253662	0.088135	-0.532471	12.654461	27.492410	-20.771192
60498		-22.882626	4.613027	14.961478	-0.596829	1.585424	-0.252006	-1.239990	0.085938	-0.545654	12.343730	28.411017	-20.709980
60499		-4.127533	0.602279	8.666848	-0.297661	1.184889	-0.094859	-1.233154	0.096924	-0.552734	12.224388	29.087292	-20.607463
60500		-11.984845	1.082187	12.968484	-0.154374	1.332661	-0.024263	-1.230225	0.093262	-0.559570	12.221243	29.836984	-20.439194
60501		-4.006081	2.836301	8.061516	-0.169924	0.748906	-0.067413	-1.224121	0.105469	-0.555664	12.155414	30.266008	-20.379844
60502		-4.341918	3.849926	7.915175	-0.349068	0.954227	-0.101858	-1.212891	0.103027	-0.567871	11.990830	30.813349	-20.315146
60503		-7.826109	2.140454	9.005560	-0.254865	0.712045	-0.026240	-1.205811	0.103760	-0.576904	11.887757	31.216978	-20.235535
60504		-6.184914	0.614572	8.976196	-0.208887	0.428359	-0.039126	-1.217041	0.110107	-0.576660	11.786961	31.462278	-20.204107
60505		-7.118629	1.371529	9.072672	-0.080142	0.336074	0.006373	-1.213623	0.105469	-0.578613	11.768391	31.651455	-20.155499
60506		-5.527359	1.676899	8.561650	-0.041989	0.245020	0.031741	-1.199463	0.108398	-0.579834	11.774613	31.785666	-20.102739
60507		-5.760087	1.100484	8.679354	0.012426	0.167137	0.061038	-1.207031	0.104736	-0.581299	11.816135	31.873691	-20.041122
60508		-5.575385	1.485173	8.482247	0.044440	0.121233	0.061441	-1.206299	0.111572	-0.583496	11.873491	31.934937	-19.985584
60509		-5.417563	1.798928	8.318519	0.049998	0.078627	0.058585	-1.203369	0.101563	-0.577148	11.929401	31.973519	-19.937652
60510		-5.297893	1.522503	8.397100	0.055083	0.109622	0.052726	-1.214355	0.098877	-0.583496	11.989128	32.029197	-19.889297
60511		-5.111686	1.670117	8.337773	0.059568	0.106086	0.052233	-1.208740	0.103516	-0.580078	12.050506	32.083813	-19.841561
60512		-5.537920	1.810415	8.249093	0.061878	0.126594	0.057322	-1.204102	0.104980	-0.585449	12.117211	32.148359	-19.787559
60513		-5.517863	2.000898	8.193958	0.062298	0.077398	0.050125	-1.203369	0.109863	-0.585205	12.177437	32.187042	-19.745110
60514		-5.305458	1.948703	8.235093	0.058261	0.071209	0.047581	-1.211182	0.097656	-0.582764	12.234593	32.221655	-19.705269
60515		-5.177505	1.966293	8.160306	0.060045	0.071743	0.046358	-1.195801	0.109375	-0.580322	12.291908	32.257534	-19.665999
60516		-4.850008	1.605232	8.335377	0.072812	0.100381	0.052225	-1.196045	0.104248	-0.583008	12.361408	32.307837	-19.618742
60517		-4.929849	1.576166	8.206602	0.075267	0.175210	0.062717	-1.199707	0.105713	-0.583252	12.441472	32.399480	-19.553426
60518		-5.620249	1.502009	8.259662	0.087423	0.184163	0.075352	-1.198975	0.103516	-0.587646	12.534418	32.493673	-19.478285
60519		-5.443374	1.850345	8.187505	0.090332	0.150562	0.071851	-1.200684	0.101807	-0.584717	12.624830	32.570194	-19.410105
60520		-5.444236	2.052207	8.093144	0.075019	0.124189	0.053782	-1.191895	0.100830	-0.587891	12.698563	32.633376	-19.357750
60521		-5.399818	2.057008	8.057086	0.058453	0.094044	0.032228	-1.198975	0.103760	-0.591309	12.752272	32.683144	-19.324021
60522		-5.032053	2.100107	8.107784	0.040227	0.084890	0.017969	-1.199463	0.104492	-0.591309	12.790215	32.728818	-19.301158
60523		-5.238109	1.886461	8.198927	0.033152	0.117122	0.013720	-1.205322	0.098877	-0.583496	12.824808	32.793759	-19.276117
60524		-5.317806	1.713595	8.248310	0.037767	0.117095	0.021438	-1.195801	0.102539	-0.589600	12.865333	32.856956	-19.245967
60525		-5.528265	1.713069	8.247926	0.047751	0.118613	0.025560	-1.187988	0.098389	-0.583984	12.912826	32.921157	-19.212686
60526		-5.498971	1.651457	8.088289	0.051903	0.113400	0.028372	-1.188232	0.097656	-0.588135	12.963798	32.981360	-19.178321
60527		-5.408075	1.790526	8.145612	0.059110	0.109438	0.043433	-1.196533	0.099121	-0.594971	13.023675	33.038068	-19.134374
60528		-5.657969	1.964315	8.113121	0.061671	0.101826	0.036056	-1.195313	0.099365	-0.591064	13.082220	33.090759	-19.096489
60529		-5.638180	1.966247	8.009655	0.053554	0.090983	0.029320	-1.190674	0.097656	-0.585449	13.132396	33.138913	-19.064623
60530		-5.570951	1.936042	8.038738	0.042632	0.062663	0.015787	-1.186035	0.100342	-0.597656	13.169440	33.172341	-19.046199
60531		-5.167942	2.107202	7.931244	0.033372	0.062893	0.006817	-1.187012	0.102539	-0.591309	13.197549	33.207718	-19.033615
60532		-4.915258	2.127930	8.090888	0.013479	0.087634	-0.008880	-1.201172	0.096680	-0.591064	13.211067	33.258290	-19.027680
60533		-5.144961	2.089436	7.994373	-0.006727	0.128749	-0.023506	-1.188232	0.106445	-0.587891	13.210821	33.334330	-19.024983
60534		-5.206409	2.086552	8.127692	-0.029099	0.139268	-0.050995	-1.181641	0.092041	-0.592773	13.188931	33.419214	-19.039086
60535		-5.312146	2.066121	8.181612	-0.046202	0.141764	-0.070341	-1.182861	0.096924	-0.594727	13.149915	33.508598	-19.065738
60536		-5.393803	2.109230	8.338429	-0.063699	0.124047	-0.102390	-1.193848	0.093506	-0.591553	13.087741	33.591657	-19.116798
60537		-5.658487	2.068582	8.114323	-0.076804	0.107515	-0.139939	-1.185547	0.109375	-0.595459	13.002201	33.670845	-19.195715
60538		-5.604730	1.782228	8.283162	-0.066213	0.082004	-0.169416	-1.187012	0.097900	-0.591553	12.909695	33.738917	-19.298631
60539		-5.730166	1.579886	8.142985	-0.037209	0.094253	-0.168778	-1.183838	0.097656	-0.598877	12.834545	33.814164	-19.399385
60540		-5.769230	1.595719	8.208780	-0.001163	0.082546	-0.160666	-1.185059	0.093018	-0.602539	12.782209	33.881206	-19.496714
60541		-5.045678	2.411717	8.043383	-0.028671	0.083085	-0.194356	-1.181641	0.105713	-0.592773	12.700968	33.953243	-19.616773
60542		-4.119143	2.305105	7.892204	-0.094908	0.190388	-0.287414	-1.178955	0.091553	-0.599365	12.555692	34.096202	-19.783762
60543		-5.903205	2.600599	7.673582	-0.125642	0.281111	-0.370820	-1.185059	0.093506	-0.603027	12.367529	34.300298	-19.994409
60544		-5.300705	2.350006	7.811019	-0.113704	0.103548	-0.436020	-1.186279	0.095947	-0.604004	12.145584	34.411810	-20.276757
60545		-5.596793	0.514499	8.391370	0.021673	0.203548	-0.399150	-1.178467	0.091309	-0.603760	12.022340	34.574684	-20.520302
60546		-5.151748	1.287979	9.228079	0.069399	0.309447	-0.351192	-1.180176	0.090820	-0.604736	11.952842	34.790405	-20.716780
60547		-4.449603	1.033324	8.773484	-0.012947	0.583464	-0.339616	-1.166748	0.095459	-0.612793	11.861626	35.158570	-20.866853
60548		-5.072808	0.991074	8.876412	0.111048	0.864940	-0.323708	-1.165771	0.081299	-0.608398	11.870065	35.682182	-20.966459
60549		-4.865454	0.922662	8.618663	0.173259	1.109869	-0.294814	-1.152344	0.089111	-0.615723	11.945628	36.340098	-21.010538
60550		-4.851639	0.861456	8.562265	0.269985	1.373484	-0.234427	-1.149414	0.086914	-0.629639	12.126131	37.138250	-20.971639
60551		-4.846208	1.213788	8.408171	0.349593	1.628698	-0.170063	-1.137695	0.083008	-0.633789	12.406746	38.071605	-20.843623
60552		-4.898816	1.168211	8.166117	0.410656	1.904527	-0.128878	-1.120361	0.072021	-0.642334	12.775770	39.153183	-20.633415
60553		-5.355884	1.499801	7.992891	0.444285	2.182149	-0.098822	-1.100830	0.071289	-0.653809	13.219264	40.384900	-20.341513
60554		-5.149693	1.579291	7.598868	0.508022	2.498758	-0.103059	-1.082275	0.066406	-0.659424	13.752627	41.791416	-19.976776
60555		-5.192979	1.537788	7.710033	0.585049	2.934642	-0.142866	-1.061279	0.062988	-0.680176	14.391645	43.443001	-19.531422
60556		-4.777617	1.261275	7.762770	0.664632	3.431944	-0.181114	-1.048584	0.052490	-0.687256	15.166613	45.371362	-18.971902
60557		-5.238006	1.220265	8.890032	0.721386	4.013077	-0.242156	-1.003906	0.054932	-0.694824	16.092417	47.623743	-18.268649
60558		-5.221679	2.500303	9.948269	0.598508	4.525323	-0.453356	-0.973389	0.055908	-0.716553	16.997321	50.183839	-17.526565
60559		-4.308911	1.202637	8.387611	0.561205	5.075618	-0.649375	-0.931152	0.039795	-0.729492	17.974453	53.069985	-16.693587
60560		-4.853282	0.902334	6.672271	0.683721	5.808356	-0.883733	-0.887695	0.024658	-0.743164	19.187689	56.386575	-15.691057
60561		-5.751618	2.135990	6.263617	0.661010	6.540412	-1.000303	-0.835205	0.022461	-0.759277	20.764462	60.105024	-14.285743
60562		-7.257279	3.141283	7.095689	0.580773	7.262714	-1.070778	-0.767822	0.018066	-0.770020	22.952757	64.196886	-12.191580
60563		-11.135142	4.984538	9.145173	0.534031	7.419097	-1.128933	-0.702148	0.010498	-0.775146	25.918638	68.336270	-9.290710
60564		-14.791117	5.491757	10.455960	0.516520	6.811976	-1.190970	-0.650146	0.005859	-0.781494	29.590773	72.110649	-5.707812
60565		-13.232561	4.456139	7.612069	0.505699	6.451278	-1.405854	-0.592773	0.001465	-0.773193	34.283821	75.676785	-1.129768
60566		-17.076750	4.383068	7.924328	0.602627	6.209655	-1.584286	-0.542236	-0.006104	-0.776855	41.136810	79.053429	5.533472
60567		-16.037665	5.649246	6.268389	0.673857	6.132675	-1.840938	-0.487061	-0.000244	-0.758057	52.752558	82.239262	16.906277
60568		-19.624793	6.304380	10.686154	0.562211	6.306970	-2.166798	-0.444580	-0.000244	-0.750000	77.889764	84.941284	41.863177
60569		-19.750108	6.940486	9.298476	0.295835	5.482809	-2.385181	-0.397217	-0.002686	-0.728760	120.245083	85.859077	84.169175
60570		-19.778489	9.608394	14.491085	-0.013628	5.278529	-2.602769	-0.354736	0.012451	-0.721191	157.741998	84.482861	121.793048
60571		-14.203636	4.533603	13.442627	0.062994	4.500484	-2.366628	-0.333008	0.020996	-0.692383	174.524897	82.282586	138.644443
60572		-6.605687	2.899579	14.892677	0.469674	3.523725	-2.561887	-0.311035	0.028076	-0.683838	-175.502480	80.268771	148.456876
60573		2.275730	-3.607937	-1.279848	1.392918	4.339682	-2.998696	-0.291016	0.017090	-0.664795	-167.850859	77.556966	155.434966
60574		-40.402754	1.502749	25.409987	2.542647	4.674529	-2.863539	-0.272217	0.012207	-0.646240	-162.731941	74.547770	159.203933
60575		-20.873032	5.997200	17.875673	3.493017	0.988297	-2.092841	-0.288330	-0.002686	-0.638184	-157.444970	73.609130	162.616633
60576		-17.014176	9.847464	18.607684	3.469330	-1.127290	-1.516825	-0.329590	-0.024902	-0.632080	-151.814086	73.819615	166.409200
60577		-9.870705	10.259230	14.140719	2.972205	-2.743811	-1.112803	-0.379639	-0.052246	-0.618164	-145.235859	74.831638	171.468007
60578		-6.129922	9.573647	11.424457	2.329579	-3.639707	-0.828537	-0.442139	-0.064453	-0.606934	-137.418965	76.164186	178.159763
60579		-3.320175	8.498933	8.976073	1.727450	-4.052322	-0.601507	-0.516113	-0.065674	-0.587402	-128.121880	77.494792	-173.314672
60580		-1.251573	7.722291	7.162954	1.188390	-4.172194	-0.378280	-0.576904	-0.083008	-0.565918	-117.365040	78.608422	-163.019963
60581		-0.121538	7.470693	5.813226	0.652246	-4.115928	-0.142848	-0.634033	-0.073486	-0.545166	-105.494816	79.400495	-151.315304
60582		0.197850	6.666959	4.929295	0.141585	-3.987776	0.097766	-0.668701	-0.068359	-0.499512	-93.133722	79.826433	-138.835040
60583		0.036861	5.797256	4.772144	-0.250107	-3.849216	0.335325	-0.719238	-0.061279	-0.475830	-80.843341	79.903826	-126.211223
60584		-1.116237	4.687050	5.413041	-0.485626	-3.801846	0.592853	-0.753662	-0.056885	-0.439697	-68.939194	79.661055	-113.836608
60585		-2.608546	3.859458	6.426797	-0.559030	-3.893399	0.932595	-0.785400	-0.052246	-0.393799	-57.291084	79.124779	-101.667455
60586		-3.684771	2.895685	6.935916	-0.502902	-4.173967	1.331025	-0.829102	-0.043213	-0.357666	-45.837023	78.229491	-89.696754
60587		-4.195290	1.910821	7.147516	-0.345076	-4.493801	1.725350	-0.854004	-0.042725	-0.302979	-35.007468	76.900802	-78.412943
60588		-4.273551	0.980834	6.646483	-0.138079	-4.841283	2.041516	-0.870117	-0.025879	-0.235107	-25.428223	75.085174	-68.463911
60589		-3.371109	0.064993	5.733583	0.104035	-5.037450	2.224284	-0.883789	-0.010010	-0.172607	-17.538831	72.855953	-60.326142
60590		-2.848535	-1.224068	4.828576	0.355815	-5.020558	2.239156	-0.857910	0.011230	-0.122070	-11.428767	70.387911	-54.107300
60591		-4.108419	-2.894134	4.461571	0.718954	-4.854580	2.197722	-0.823486	0.020508	-0.082520	-6.605116	67.830574	-49.393059
60592		-5.947295	-3.957672	4.916861	1.186861	-4.564398	2.171412	-0.780518	0.020508	-0.057617	-2.579177	65.322209	-45.750639
60593		-8.426596	-3.888011	6.584397	1.638507	-4.303820	2.171397	-0.740967	0.014648	-0.067139	0.997755	62.867183	-42.825090
60594		-9.599799	-2.898491	8.540166	1.925606	-4.143803	2.165880	-0.708740	0.007324	-0.072998	4.199548	60.438919	-40.444397
60595		-10.430563	-1.105490	9.886948	1.934564	-4.105473	2.080650	-0.693115	-0.009277	-0.091309	6.921186	57.976057	-38.573412
60596		-12.399050	0.184183	10.531887	1.674335	-4.174624	1.942748	-0.679932	-0.021484	-0.097656	9.053785	55.452946	-37.173486
60597		-13.831624	0.355536	10.358421	1.326299	-4.286555	1.808063	-0.686035	-0.034912	-0.128662	10.648509	52.849892	-36.150415
60598		-14.678613	0.146169	10.102631	1.042666	-4.333622	1.638939	-0.677734	-0.060791	-0.153320	11.797906	50.232065	-35.449060
60599		-15.925116	-0.079139	9.962147	0.910780	-4.324325	1.455494	-0.698975	-0.069580	-0.156494	12.656122	47.628154	-35.009740
60600		-17.367632	0.430256	10.250490	0.923895	-4.338895	1.344748	-0.710205	-0.083496	-0.175781	13.386128	45.032996	-34.736052
60601		-18.587106	2.029559	10.758023	0.969668	-4.523221	1.405165	-0.730957	-0.095703	-0.190430	14.103572	42.318742	-34.508792
60602		-18.516165	4.119512	10.507269	0.880965	-4.866917	1.688161	-0.751221	-0.099854	-0.188965	14.817444	39.377570	-34.193233
60603		-16.323901	5.554640	9.182574	0.571418	-5.188915	2.080409	-0.780762	-0.102051	-0.197754	15.438572	36.191278	-33.721696
60604		-13.863595	5.954318	8.051588	0.129586	-5.247227	2.423964	-0.803223	-0.101807	-0.194336	15.876633	32.922125	-33.085083
60605		-13.023542	5.572903	7.827171	-0.249259	-5.106740	2.699470	-0.834961	-0.097900	-0.200195	16.150230	29.678135	-32.292552
60606		-13.717071	5.116462	8.640893	-0.490453	-4.917770	2.973071	-0.868652	-0.087158	-0.188965	16.323371	26.497075	-31.333585
60607		-14.989656	4.779162	9.051565	-0.608833	-4.798916	3.281932	-0.887939	-0.074951	-0.183594	16.455334	23.324031	-30.202740
60608		-15.398436	4.768437	8.679551	-0.695127	-4.702999	3.594297	-0.917236	-0.073730	-0.178711	16.541258	20.155989	-28.902581
60609		-15.307694	4.830892	7.552018	-0.874048	-4.517129	3.811058	-0.930908	-0.052002	-0.168945	16.500637	17.049595	-27.473134
60610		-15.439798	4.839282	5.911775	-1.129441	-4.182874	3.871353	-0.946045	-0.043457	-0.161133	16.260684	14.125165	-25.967231
60611		-15.870378	3.848127	3.872499	-1.377059	-3.697681	3.801975	-0.966064	-0.030762	-0.163574	15.817674	11.483557	-24.423333
60612		-16.876331	1.310637	1.191155	-1.442195	-3.076791	3.598849	-0.976074	-0.009521	-0.159668	15.270278	9.233063	-22.885750
60613		-19.841658	-1.927624	-1.905128	-1.195762	-2.530890	3.214842	-0.975342	0.001221	-0.168701	14.792876	7.352058	-21.470657
60614		-23.398986	-7.898585	-6.170422	-0.465493	-2.135691	2.677405	-0.983154	0.000000	-0.160156	14.663475	5.779108	-20.291960
60615		-24.565782	-13.604480	-10.647947	0.970049	-1.650075	2.065788	-0.992432	0.001221	-0.156738	15.303715	4.558183	-19.391602
60616		-17.897167	-10.393499	-12.626876	2.130355	-0.666354	1.209751	-0.985107	0.001221	-0.160645	16.568799	4.001353	-18.829903
60617		-17.729812	-3.135831	-12.417527	1.679764	1.596649	0.449621	-0.980469	0.005371	-0.171875	17.573517	4.799830	-18.315407
60618		-17.271660	1.624986	-8.555453	0.043553	3.131959	-0.565341	-0.969238	0.000977	-0.182617	17.624223	6.608902	-18.081960
60619		-20.231594	2.733073	-3.230278	-1.849380	3.619217	-1.511592	-0.953613	-0.005127	-0.191162	16.537448	8.845998	-18.304316
60620		-8.247501	-4.033829	1.470022	-2.351382	3.088498	-2.182533	-0.935303	0.006348	-0.219971	15.066829	10.889806	-19.037997
60621		-0.581767	-4.137275	6.286566	-1.933593	3.189407	-2.189945	-0.909912	0.011475	-0.217041	13.800803	12.973495	-19.815749
60622		7.278677	-1.676504	11.640314	-1.231041	3.917157	-1.941289	-0.888428	0.018799	-0.230957	12.955134	15.414844	-20.397831
60623		-10.907137	-2.439366	12.552177	-0.816120	5.668241	-1.760419	-0.865234	0.022949	-0.249512	12.405995	18.805598	-20.682998
60624		-24.124252	-7.957246	10.485389	-0.155104	4.773053	-1.027506	-0.845459	0.019287	-0.253418	12.322955	21.603486	-20.673439
60625		-21.246621	-1.789156	19.668956	0.155487	3.925143	-0.721062	-0.820801	0.027344	-0.248047	12.446597	23.890261	-20.589468
60626		-18.956238	0.192165	16.281451	-0.062008	3.240824	-1.097899	-0.803223	0.026123	-0.255371	12.312617	25.839306	-20.829613
60627		-26.243139	8.323000	20.356212	-0.488798	2.907846	-0.576882	-0.784912	0.037354	-0.260498	12.047915	27.539727	-20.799296
60628		-14.820695	9.992865	9.445479	-0.378946	1.642647	-0.059492	-0.784180	0.035645	-0.265869	11.918691	28.467952	-20.617508
60629		-9.394330	3.459924	11.915062	-0.311716	1.531387	-0.155328	-0.769287	0.034180	-0.262695	11.792892	29.347564	-20.512413
60630		-3.525779	0.248009	8.933615	-0.272743	0.920532	-0.175509	-0.771729	0.046875	-0.269531	11.643193	29.884904	-20.504258
60631		-5.055727	1.745504	8.913491	-0.567645	1.077640	-0.328156	-0.760254	0.044678	-0.269287	11.283407	30.529986	-20.576872
60632		-6.223424	1.960815	8.679844	-0.479743	0.743180	-0.290099	-0.760986	0.048340	-0.278320	10.961973	30.980329	-20.672894
60633		-8.492091	1.505426	8.992446	-0.443349	0.699657	-0.283932	-0.758789	0.046631	-0.272705	10.657979	31.407136	-20.773232
60634		-6.384852	0.107784	9.531721	-0.277720	0.187557	-0.205210	-0.751953	0.050781	-0.273682	10.441727	31.534760	-20.887532
60635		-6.073786	0.435822	9.181730	-0.191721	0.273610	-0.109145	-0.757813	0.048096	-0.269287	10.312574	31.702777	-20.928071
60636		-6.275221	0.959107	8.912831	-0.133404	0.167092	-0.073107	-0.759521	0.054199	-0.272705	10.222759	31.804889	-20.958327
60637		-5.685495	1.351326	8.517438	-0.096458	0.091582	-0.055521	-0.762451	0.049316	-0.271240	10.154940	31.864678	-20.985755
60638		-5.692823	1.261162	8.557140	-0.069654	0.067089	-0.034007	-0.758057	0.050049	-0.273682	10.108866	31.906385	-21.002238
60639		-5.103544	1.376999	8.423793	-0.039341	0.009152	-0.024653	-0.751221	0.049805	-0.279297	10.079354	31.916495	-21.019058
60640		-5.120241	1.714973	8.247004	-0.044083	0.066808	-0.024324	-0.755615	0.045654	-0.276367	10.051272	31.957057	-21.029203
60641		-5.287940	1.317482	8.436460	-0.037708	0.068794	-0.019453	-0.747803	0.048584	-0.273682	10.028233	32.000222	-21.035578
60642		-5.450613	1.213788	8.423861	-0.022544	0.088317	0.007307	-0.745361	0.057617	-0.274170	10.024961	32.049759	-21.022185
60643		-5.306888	1.241581	8.360096	0.008676	0.068445	0.031623	-0.752197	0.050537	-0.280273	10.046515	32.087575	-20.994624
60644		-5.412689	1.344174	8.458588	0.022538	0.071130	0.051530	-0.753418	0.051270	-0.272461	10.083689	32.122979	-20.953759
60645		-5.389623	1.342997	8.302522	0.039354	0.079647	0.065599	-0.754639	0.045654	-0.279297	10.135645	32.163616	-20.902172
60646		-5.410744	1.256880	8.495968	0.058475	0.064223	0.073743	-0.751221	0.052734	-0.275879	10.200953	32.192817	-20.847224
60647		-5.474968	1.217260	8.427802	0.068086	0.052401	0.069623	-0.748047	0.043213	-0.281250	10.269176	32.217538	-20.796113
60648		-5.451331	1.267140	8.388365	0.085423	0.029818	0.067509	-0.754150	0.053711	-0.277588	10.345581	32.227870	-20.749378
60649		-5.249766	1.383777	8.254097	0.091177	0.023355	0.059120	-0.755859	0.047363	-0.278076	10.421475	32.237150	-20.708740
60650		-5.097532	1.886321	8.177400	0.084737	0.031166	0.042652	-0.749023	0.050049	-0.278076	10.488778	32.250724	-20.678357
60651		-5.435004	1.791751	8.131211	0.064222	0.024796	0.027625	-0.745605	0.045410	-0.268311	10.538177	32.263977	-20.658498
60652		-5.150665	1.509673	8.285020	0.060810	0.028659	0.023446	-0.754883	0.051270	-0.277100	10.584807	32.278108	-20.641182
60653		-5.290543	1.509626	8.405474	0.060035	0.059620	0.021408	-0.754395	0.052002	-0.266357	10.631962	32.311555	-20.621096
60654		-5.223447	1.255555	8.318591	0.063732	0.072279	0.023892	-0.753174	0.040771	-0.272461	10.683387	32.350176	-20.597973
60655		-5.199489	1.399388	8.319927	0.072306	0.088102	0.029224	-0.749512	0.044678	-0.270996	10.742357	32.398744	-20.569015
60656		-5.315771	1.600807	8.313683	0.069765	0.103749	0.026795	-0.754639	0.049072	-0.271973	10.800511	32.454728	-20.539848
60657		-5.122905	1.511530	8.202017	0.071480	0.105916	0.023903	-0.752197	0.047852	-0.270752	10.858455	32.513797	-20.512030
60658		-5.160512	1.751212	8.294808	0.071325	0.110719	0.012295	-0.753418	0.033936	-0.270020	10.912921	32.575223	-20.491476
60659		-5.208066	2.002269	8.163811	0.074780	0.109926	-0.013132	-0.749756	0.045898	-0.275391	10.959860	32.640478	-20.487718
60660		-5.358423	1.759526	8.245305	0.071834	0.108734	-0.045127	-0.746094	0.044434	-0.271729	10.993882	32.707024	-20.505645
60661		-5.440180	1.630329	8.239288	0.075385	0.112948	-0.064016	-0.743652	0.053223	-0.269043	11.023063	32.779498	-20.535422
60662		-5.356111	1.523747	8.265137	0.084984	0.117465	-0.074788	-0.751221	0.042725	-0.272705	11.054474	32.854224	-20.572000
60663		-5.185014	1.810169	8.222145	0.090458	0.127191	-0.094912	-0.754395	0.049561	-0.277832	11.082024	32.938092	-20.620576
60664		-5.099851	1.736187	8.253427	0.088437	0.173991	-0.124014	-0.748535	0.045410	-0.269531	11.101399	33.050055	-20.682717
60665		-5.276847	1.846844	8.423747	0.105486	0.198795	-0.149625	-0.738281	0.042725	-0.271240	11.122485	33.180202	-20.758635
60666		-4.768612	1.745251	8.558309	0.124504	0.270369	-0.175392	-0.741211	0.033936	-0.268311	11.150277	33.352072	-20.842652
60667		-4.111374	0.800937	8.634089	0.152234	0.521241	-0.196655	-0.736816	0.043945	-0.277832	11.203834	33.668696	-20.907509
60668		-6.255730	0.903322	8.546474	0.276237	0.637299	-0.148187	-0.735352	0.047363	-0.269531	11.355652	34.043867	-20.923658
60669		-4.788107	0.693828	8.228435	0.413517	0.704900	-0.123543	-0.735596	0.035645	-0.274414	11.601192	34.455504	-20.912114
60670		-5.024639	1.224339	8.659494	0.520561	0.864761	-0.082686	-0.732910	0.036133	-0.271973	11.938785	34.950705	-20.847494
60671		-5.045520	1.892095	8.492662	0.372770	1.027852	-0.082556	-0.718506	0.034424	-0.277100	12.207767	35.538189	-20.755126
60672		-4.899249	1.141505	8.473733	0.420146	1.219510	-0.066970	-0.722412	0.032471	-0.269531	12.531081	36.229417	-20.618571
60673		-4.954673	1.976171	8.045640	0.439864	1.384754	-0.064625	-0.710693	0.026855	-0.272461	12.886978	37.013174	-20.447973
60674		-5.097012	1.625607	8.135623	0.441368	1.589343	-0.088777	-0.711426	0.024414	-0.274170	13.261107	37.912222	-20.252834
60675		-5.203278	1.706968	7.834982	0.438689	1.814522	-0.103799	-0.701416	0.032227	-0.273926	13.659482	38.938745	-20.019705
60676		-5.602895	1.582849	7.839933	0.426296	1.990681	-0.100177	-0.690674	0.030518	-0.276123	14.084496	40.060360	-19.739538
60677		-5.753018	1.522453	7.506430	0.433738	2.185802	-0.088397	-0.674805	0.041016	-0.274902	14.557883	41.287900	-19.397821
60678		-6.137378	1.546277	7.302861	0.440828	2.385401	-0.069287	-0.664063	0.020996	-0.266846	15.091505	42.619871	-18.981278
60679		-6.088933	1.447478	7.148269	0.457378	2.578494	-0.060983	-0.653320	0.023926	-0.275879	15.692493	44.055072	-18.490607
60680		-6.177199	1.611070	7.165045	0.457504	2.807577	-0.067332	-0.637207	0.020996	-0.268799	16.360371	45.612440	-17.918806
60681		-6.041172	1.387160	7.177073	0.584343	3.040550	-0.162392	-0.630615	0.021729	-0.264404	17.130180	47.309026	-17.321793
60682		-6.020854	2.126926	7.364025	0.716248	3.291616	-0.322460	-0.614014	0.019531	-0.265625	17.981281	49.163528	-16.734470
60683		-6.128942	2.557356	7.422342	0.794977	3.561879	-0.531649	-0.606934	0.017334	-0.264404	18.864060	51.197515	-16.181130
60684		-6.371465	3.721786	8.001168	0.756902	3.966571	-0.797075	-0.583008	0.008545	-0.259277	19.712745	53.494179	-15.660327
60685		-6.247299	4.413531	7.888518	0.378807	4.307159	-1.076754	-0.567139	0.003906	-0.249756	20.304557	56.025544	-15.204356
60686		-5.762063	3.325206	6.684380	0.339292	4.857571	-1.351537	-0.547363	0.014404	-0.249756	20.898182	58.903960	-14.734027
60687		-6.420111	4.437927	6.752040	0.239345	5.391068	-1.628413	-0.517334	0.012207	-0.243164	21.470528	62.122511	-14.236963
60688		-7.925741	4.321034	7.487149	0.046361	5.830551	-1.829636	-0.495850	0.023193	-0.238281	22.035853	65.614583	-13.639982
60689		-10.006206	4.260430	8.196615	-0.043270	6.088691	-1.999396	-0.473145	0.020020	-0.218994	22.652160	69.277859	-12.948760
60690		-13.223939	3.235005	9.795222	0.035933	5.948526	-2.046066	-0.441406	0.027832	-0.200439	23.414176	72.873947	-12.168048
60691		-13.409298	2.472857	8.170920	0.399541	5.986140	-2.146733	-0.416016	0.031738	-0.191895	24.637888	76.508386	-11.139839
60692		-17.394385	2.052278	7.975722	1.011459	5.859803	-2.101826	-0.392090	0.030029	-0.171875	27.044117	80.056292	-9.277942
60693		-17.031415	3.671102	7.096847	1.469193	5.984346	-2.186040	-0.362549	0.024170	-0.153564	32.092164	83.659802	-5.033833
60694		-21.266802	4.670676	11.273798	1.727828	6.115442	-2.367931	-0.337646	0.022217	-0.126221	48.663913	87.242245	10.586127
60695		-20.435092	9.100008	11.788448	1.668341	5.350924	-2.558902	-0.320068	0.032227	-0.112549	154.365361	88.595836	115.361463
60696		-21.275813	8.818500	14.856322	1.323857	4.845009	-2.798491	-0.297119	0.027344	-0.088135	-165.670663	85.830902	154.596502
60697		-14.713498	4.845919	16.007677	1.450772	3.958825	-2.794121	-0.280029	0.031250	-0.066162	-156.683346	83.161373	162.785027
60698		-3.541281	4.658196	12.617898	1.389697	2.736133	-3.245379	-0.253418	0.035156	-0.053467	-149.137850	80.914095	169.595835
60699		-10.015267	2.615009	4.823145	1.595236	5.039283	-3.881004	-0.228760	0.041504	-0.027100	-146.434782	77.286597	171.413452
60700		-34.984812	6.201607	25.453224	2.302437	2.183996	-3.059422	-0.225342	0.045898	-0.007568	-142.263268	75.246412	174.346435
60701		-19.456371	10.130033	19.420577	2.645491	-0.237921	-2.071535	-0.197266	0.046143	-0.008057	-137.053052	74.583509	178.169052
60702		-12.776523	11.368013	16.917771	2.310205	-2.432730	-1.262691	-0.191650	0.037109	-0.020996	-130.168727	75.020349	-176.071838
60703		-5.932029	10.392250	12.452573	1.739834	-3.479758	-0.751633	-0.175049	0.037109	-0.025391	-121.974925	75.850434	-168.640869
60704		-1.761654	8.477682	9.530541	1.206258	-3.912542	-0.400128	-0.166016	0.036377	-0.037354	-112.692180	76.676993	-159.800221
60705		0.363246	6.755989	7.188676	0.849536	-3.936891	-0.087845	-0.164795	0.025879	-0.057129	-102.803723	77.321155	-150.156936
60706		1.193935	5.299455	5.348587	0.599350	-3.761412	0.226008	-0.144287	0.022949	-0.075928	-92.868945	77.743166	-140.337737
60707		1.657242	4.482086	4.326764	0.427903	-3.493985	0.529284	-0.133545	0.019043	-0.099121	-83.238197	77.980245	-130.743276
60708		0.827219	4.132752	4.949952	0.251491	-3.263841	0.807734	-0.134277	0.002686	-0.123291	-74.011802	78.063827	-121.462317
60709		-1.076028	3.660709	6.068637	0.100769	-3.235546	1.113517	-0.132080	-0.012207	-0.146240	-64.669328	78.006309	-111.977258
60710		-2.768955	3.443833	7.320388	-0.032481	-3.390876	1.452942	-0.132568	-0.022461	-0.171387	-54.911202	77.745852	-101.981224
60711		-4.090957	2.677242	7.967117	-0.133521	-3.747524	1.798962	-0.143799	-0.038818	-0.205566	-44.599059	77.140873	-91.344740
60712		-4.406732	1.514868	7.714577	-0.162351	-4.186615	2.081876	-0.161133	-0.055176	-0.237305	-34.417062	76.043522	-80.786505
60713		-3.830781	-0.102068	6.589707	-0.089273	-4.563117	2.261174	-0.177490	-0.075195	-0.265137	-25.243714	74.410590	-71.254398
60714		-2.429532	-2.222061	4.418081	0.146898	-4.725179	2.263207	-0.202148	-0.091797	-0.300537	-17.784618	72.362498	-63.563036
60715		-1.622975	-4.474364	2.728896	0.583779	-4.511770	2.138678	-0.235596	-0.108887	-0.333008	-11.984684	70.171300	-57.798962
60716		-3.793859	-5.546319	3.604818	1.186830	-4.115408	2.008881	-0.261719	-0.131348	-0.344482	-7.298062	68.037885	-53.514136
60717		-7.945222	-4.541580	6.519550	1.739207	-3.829333	1.936502	-0.298828	-0.142090	-0.359863	-3.217379	65.948479	-50.169726
60718		-10.234767	-1.819988	9.124477	1.944041	-3.851859	1.861266	-0.327148	-0.165283	-0.374756	0.287987	63.769111	-47.531497
60719		-9.333989	0.257952	9.227810	1.721959	-4.049818	1.689613	-0.366699	-0.180664	-0.372314	3.017768	61.415794	-45.574020
60720		-9.354913	0.802708	9.168593	1.264590	-4.102244	1.436938	-0.404053	-0.194092	-0.385254	4.894066	59.014318	-44.250337
60721		-11.405907	-0.099004	8.977179	0.963071	-4.120916	1.243980	-0.432373	-0.209229	-0.383789	6.214449	56.589375	-43.348106
60722		-12.833221	-0.369044	8.365422	0.955546	-4.097836	1.162068	-0.472412	-0.212402	-0.379639	7.319405	54.179708	-42.674072
60723		-13.091932	0.138232	8.071854	1.054961	-4.025054	1.114770	-0.507813	-0.217285	-0.374512	8.350578	51.802114	-42.145930
60724		-13.834663	0.711374	8.680556	1.154208	-3.933087	1.103867	-0.531982	-0.224365	-0.366943	9.351804	49.478542	-41.709798
60725		-15.278478	1.802067	9.620102	1.267852	-3.961453	1.195769	-0.547363	-0.232666	-0.355469	10.402902	47.119219	-41.281548
60726		-16.084156	3.402630	10.173236	1.260402	-4.106259	1.422072	-0.574707	-0.240479	-0.353516	11.490453	44.655047	-40.776440
60727		-15.666218	4.910513	9.972188	1.091929	-4.354889	1.734399	-0.588867	-0.242920	-0.334473	12.546894	42.002170	-40.155863
60728		-14.276972	5.600190	9.357450	0.789724	-4.567646	2.095514	-0.613770	-0.252686	-0.332275	13.497817	39.182339	-39.394109
60729		-12.932747	5.332408	8.852319	0.476049	-4.640015	2.462831	-0.638916	-0.249023	-0.333740	14.339462	36.257163	-38.472525
60730		-12.226274	4.619899	8.896712	0.244744	-4.599006	2.791793	-0.663818	-0.259033	-0.331055	15.090963	33.302702	-37.405810
60731		-12.405760	3.854838	9.396099	0.140481	-4.536311	3.101154	-0.703125	-0.265625	-0.333008	15.808421	30.319094	-36.206959
60732		-12.583421	3.132237	9.894720	0.111729	-4.460443	3.367288	-0.729248	-0.266113	-0.326904	16.502770	27.328004	-34.905319
60733		-12.741524	2.585864	10.164302	0.111282	-4.404493	3.585323	-0.771729	-0.278809	-0.319580	17.168218	24.312812	-33.534971
60734		-12.805428	2.063766	10.076120	0.117188	-4.303890	3.715533	-0.802734	-0.279541	-0.312012	17.780219	21.321897	-32.137095
60735		-13.035112	1.765229	9.782654	0.104196	-4.135540	3.741884	-0.835449	-0.279297	-0.298096	18.314826	18.400395	-30.752342
60736		-13.260434	1.543800	9.075587	0.072895	-3.882072	3.671083	-0.875977	-0.278076	-0.293701	18.752634	15.623434	-29.407855
60737		-13.455329	1.344375	8.167160	0.025028	-3.543392	3.511490	-0.914307	-0.273438	-0.276855	19.088576	13.046731	-28.125086
60738		-14.149408	1.143236	7.087228	0.007642	-3.142297	3.277509	-0.930664	-0.276855	-0.265137	19.343775	10.729162	-26.920137
60739		-14.882580	0.356572	5.144076	0.060700	-2.767976	2.984513	-0.954834	-0.260498	-0.255615	19.567054	8.661177	-25.822394
60740		-16.005487	-0.893223	3.225208	0.208995	-2.448741	2.622377	-0.974609	-0.260010	-0.242188	19.817314	6.834561	-24.873386
60741		-17.384026	-3.427158	0.781552	0.523702	-2.218863	2.198885	-0.998047	-0.259766	-0.236328	20.199514	5.206807	-24.122365
60742		-18.828217	-6.353578	-2.321774	1.073219	-2.043257	1.711815	-1.015625	-0.269531	-0.206543	20.856753	3.767225	-23.614305
60743		-21.173192	-8.096397	-4.517875	1.736556	-1.866760	1.203218	-1.023193	-0.269287	-0.198730	21.868523	2.519124	-23.363274
60744		-21.754348	-7.848882	-6.533684	2.209380	-1.637980	0.668016	-1.038818	-0.278564	-0.174072	23.136733	1.506385	-23.370306
60745		-19.536323	-4.901318	-7.377661	2.032003	-0.997599	0.080535	-1.037109	-0.277344	-0.162109	24.299552	0.965056	-23.559496
60746		-15.063303	-0.652272	-6.168438	0.989372	0.022010	-0.676395	-1.037354	-0.288818	-0.154541	24.862566	1.138552	-23.908149
60747		-10.610094	5.158857	-3.185074	-0.976602	1.626623	-1.727188	-1.021729	-0.281738	-0.172119	24.289761	2.399330	-24.422036
60748		-10.751958	1.616187	0.767719	-3.119363	3.462763	-2.850953	-1.007568	-0.289551	-0.194580	22.459403	4.869306	-25.137102
60749		-10.123659	-3.424367	5.013502	-3.268057	2.671939	-3.099144	-0.988525	-0.286377	-0.215332	20.476334	6.946056	-26.236312
60750		-5.170090	1.075255	12.973341	-3.295943	1.852218	-3.197582	-0.968994	-0.284424	-0.227295	18.402917	8.557235	-27.624821
60751		11.977063	1.852062	8.007967	-3.075350	2.064108	-3.120825	-0.943604	-0.280273	-0.259277	16.419241	10.223255	-28.996671
60752		10.521455	-0.699106	7.340929	-2.870579	4.677869	-3.143032	-0.914551	-0.278076	-0.274414	14.564100	13.287663	-30.039431
60753		-18.991571	-7.975215	5.970080	-1.629277	5.052993	-2.028772	-0.887695	-0.284424	-0.291016	13.519639	16.379908	-30.480733
60754		-16.065208	-1.292385	13.914768	-0.388658	4.309991	-0.480483	-0.870850	-0.278076	-0.302002	13.396444	18.846146	-30.160300
60755		-14.746333	-0.453878	17.650377	-0.560149	3.981927	-0.402022	-0.857178	-0.284180	-0.311523	13.186007	21.121922	-29.842273
60756		-16.486990	-6.852774	15.013456	-0.331610	3.480510	-0.594250	-0.844971	-0.282959	-0.319580	13.047097	23.141865	-29.713386
60757		-14.583733	-3.009441	13.768023	0.273537	2.820471	-0.354815	-0.828125	-0.270264	-0.328125	13.280084	24.764707	-29.528987
60758		-14.698973	6.349485	17.284343	-0.009078	2.421722	-0.328733	-0.822510	-0.284912	-0.321777	13.341528	26.158866	-29.379891
60759		-15.969465	7.164927	11.660440	-0.703535	1.828252	-0.241857	-0.804932	-0.277588	-0.334229	12.991013	27.213781	-29.265638
60760		-6.587297	2.005234	7.990926	-0.307860	1.488237	-0.046170	-0.798828	-0.281738	-0.337158	12.902868	28.051243	-29.080852
60761		-12.378832	3.257137	12.453090	-0.546692	1.598910	-0.166141	-0.788330	-0.276123	-0.345947	12.649856	28.969358	-28.957701
60762		-6.861533	2.153191	7.053809	-0.235401	1.062155	-0.136653	-0.780518	-0.275879	-0.349609	12.548232	29.580857	-28.894903
60763		-3.703846	5.636753	8.671347	-0.306063	1.067313	-0.165226	-0.779541	-0.266846	-0.348389	12.396265	30.202180	-28.850957
60764		-6.415614	0.833466	8.709594	-0.461602	0.837193	-0.291950	-0.776611	-0.261475	-0.354492	12.097121	30.706919	-28.924363
60765		-5.901727	1.304331	9.385067	-0.420390	0.455312	-0.296545	-0.775391	-0.267578	-0.353271	11.789878	31.000982	-29.056899
60766		-6.722856	0.508355	9.094642	-0.372265	0.491583	-0.221311	-0.767578	-0.269287	-0.357422	11.537536	31.302937	-29.137299
60767		-6.537913	0.655424	9.344576	-0.245878	0.241732	-0.157563	-0.762939	-0.270996	-0.354980	11.360044	31.460224	-29.210588
60768		-5.134189	1.456700	8.697490	-0.199034	0.206488	-0.097774	-0.769531	-0.271973	-0.356689	11.228102	31.587683	-29.249692
60769		-5.526424	1.289282	8.699132	-0.170984	0.201156	-0.079741	-0.761230	-0.265869	-0.364258	11.116808	31.713156	-29.278001
60770		-5.815637	0.984704	8.835563	-0.127533	0.151746	-0.055170	-0.762207	-0.272949	-0.360840	11.036445	31.805017	-29.296686
60771		-5.844292	0.844271	8.753704	-0.075210	0.129800	-0.005869	-0.763184	-0.266357	-0.358887	11.000639	31.882139	-29.285756
60772		-5.775116	1.312045	8.565947	-0.032696	0.084865	0.015162	-0.765137	-0.265137	-0.360840	10.994554	31.928674	-29.266634
60773		-5.552809	1.462926	8.410993	-0.008153	0.061404	0.034835	-0.762939	-0.263428	-0.361816	11.006772	31.962826	-29.237571
60774		-5.661862	1.280137	8.528949	0.022591	0.046848	0.049006	-0.763916	-0.270264	-0.361084	11.041687	31.984266	-29.200882
60775		-5.403479	1.433989	8.389797	0.037281	0.009186	0.055138	-0.768799	-0.265381	-0.355469	11.083537	31.986736	-29.165081
60776		-5.247333	1.515943	8.304917	0.049164	0.000550	0.061459	-0.761230	-0.263916	-0.361328	11.134884	31.980725	-29.126122
60777		-5.271091	1.765369	8.319246	0.046151	0.004199	0.053961	-0.769287	-0.266602	-0.358643	11.181074	31.980402	-29.091760
60778		-5.366803	1.632252	8.341554	0.034915	-0.010532	0.040104	-0.760254	-0.272217	-0.355469	11.215982	31.970487	-29.068419
60779		-5.398318	1.726799	8.175993	0.024659	-0.031813	0.018319	-0.762939	-0.268799	-0.361084	11.234871	31.953795	-29.062410
60780		-5.360247	1.636565	8.210198	0.006232	-0.041142	-0.002352	-0.760254	-0.269043	-0.360840	11.236318	31.931405	-29.071229
60781		-5.285440	1.565514	8.209573	0.007761	-0.055722	-0.006584	-0.776611	-0.268311	-0.361816	11.235167	31.903996	-29.084857
60782		-4.878061	1.832063	8.203728	-0.003971	-0.058807	-0.015872	-0.764404	-0.269043	-0.370117	11.224826	31.873187	-29.104938
60783		-5.189582	1.498409	8.300068	-0.011268	0.008582	-0.016203	-0.765137	-0.264893	-0.365723	11.213913	31.882911	-29.116475
60784		-5.348912	1.475446	8.227997	-0.004187	-0.010618	-0.022370	-0.768799	-0.265381	-0.366455	11.204525	31.879903	-29.134521
60785		-4.963361	1.612434	8.278651	-0.008429	0.000894	-0.030368	-0.771240	-0.258789	-0.355225	11.189762	31.886816	-29.156450
60786		-5.286488	1.578011	8.187017	-0.016325	0.026065	-0.037934	-0.758057	-0.264648	-0.353516	11.170506	31.906148	-29.180002
60787		-4.896314	1.804855	8.196230	-0.023065	-0.007106	-0.055225	-0.766113	-0.265869	-0.358398	11.138109	31.911237	-29.219450
60788		-4.587043	1.985110	8.165721	-0.038953	0.019483	-0.081386	-0.764160	-0.265625	-0.364014	11.090191	31.931644	-29.272673
60789		-4.836691	2.192113	8.161313	-0.057859	0.040750	-0.136527	-0.769287	-0.270264	-0.362305	11.012620	31.972427	-29.359832
60790		-4.887707	2.073336	8.022862	-0.104176	0.066251	-0.203169	-0.752686	-0.268799	-0.365967	10.887577	32.032267	-29.487950
60791		-5.162065	1.959379	8.270493	-0.128047	0.046061	-0.240025	-0.755615	-0.269043	-0.368164	10.733423	32.086771	-29.643451
60792		-5.642088	1.319657	8.555002	-0.120266	0.057472	-0.242032	-0.756348	-0.265137	-0.374268	10.584351	32.145235	-29.799021
60793		-5.570085	1.196499	8.657169	-0.082135	0.049476	-0.219711	-0.757813	-0.272949	-0.358643	10.463410	32.198821	-29.941086
60794		-5.256844	1.292360	8.541471	-0.051538	0.075354	-0.199968	-0.762695	-0.265137	-0.360596	10.369307	32.262445	-30.066932
60795		-5.450594	1.451761	8.423017	-0.039362	0.105443	-0.194642	-0.764160	-0.264648	-0.366943	10.284926	32.344534	-30.185910
60796		-5.023249	1.644580	8.395968	-0.027794	0.096636	-0.193489	-0.755371	-0.257813	-0.371826	10.207605	32.419181	-30.305295
60797		-5.037605	1.812822	8.331502	-0.035990	0.158132	-0.225606	-0.752441	-0.262695	-0.364746	10.116868	32.533763	-30.439168
60798		-5.165553	1.698959	8.558474	-0.038941	0.181594	-0.252248	-0.750977	-0.271729	-0.359375	10.016721	32.661907	-30.588363
60799		-5.278891	1.564161	8.519246	-0.019414	0.270473	-0.305554	-0.744873	-0.267090	-0.366699	9.912622	32.847350	-30.763519
60800		-4.754057	1.216906	8.658131	0.099196	0.323455	-0.347973	-0.743408	-0.271973	-0.366211	9.864272	33.064593	-30.961549
60801		-4.856105	1.284864	9.105541	0.044385	0.624113	-0.394911	-0.738770	-0.269287	-0.366943	9.784158	33.457979	-31.157258
60802		-4.582976	0.791472	8.896393	0.075896	0.774445	-0.384142	-0.735107	-0.270508	-0.363281	9.734649	33.933020	-31.329464
60803		-4.875560	1.125172	8.608169	0.145673	0.973343	-0.362541	-0.729004	-0.267090	-0.364990	9.743604	34.520122	-31.465090
60804		-4.871941	0.889232	8.489362	0.211733	1.142820	-0.346878	-0.717041	-0.268066	-0.362061	9.807372	35.199576	-31.570220
60805		-5.008779	1.044353	8.459224	0.247342	1.316788	-0.313038	-0.706055	-0.272217	-0.361572	9.915593	35.975834	-31.630817
60806		-5.325212	1.016586	8.195917	0.280388	1.494912	-0.264298	-0.707275	-0.281982	-0.358887	10.077292	36.846074	-31.633339
60807		-5.519426	1.149007	8.229637	0.282301	1.684307	-0.244800	-0.697021	-0.281250	-0.361572	10.264098	37.822862	-31.594943
60808		-5.640215	1.243662	8.295016	0.239538	1.864709	-0.236129	-0.685547	-0.283447	-0.358398	10.449329	38.898621	-31.521729
60809		-5.617581	1.125027	7.959996	0.236167	2.039675	-0.219990	-0.672119	-0.288818	-0.363037	10.659177	40.072667	-31.407334
60810		-6.084653	1.174576	8.148515	0.293525	2.278052	-0.214168	-0.669922	-0.282959	-0.364502	10.935288	41.378233	-31.245821
60811		-5.611209	1.488167	8.913072	0.233654	2.454660	-0.251049	-0.651855	-0.273193	-0.360107	11.185436	42.788142	-31.075041
60812		-5.000963	1.422159	8.348229	0.207006	2.803397	-0.283298	-0.626953	-0.283936	-0.353760	11.453731	44.395458	-30.861668
60813		-5.725702	2.148179	7.915340	0.195812	3.101860	-0.376075	-0.620361	-0.278076	-0.355713	11.713075	46.181643	-30.657226
60814		-5.508481	1.568291	7.829647	0.126783	3.464265	-0.481512	-0.597412	-0.286377	-0.353271	11.934085	48.181424	-30.458461
60815		-5.731435	1.726207	8.026224	0.121024	3.783418	-0.613246	-0.573486	-0.287109	-0.351563	12.128792	50.376530	-30.295600
60816		-5.071832	1.715202	7.728027	0.088340	4.256192	-0.775109	-0.554688	-0.284424	-0.342041	12.282911	52.854413	-30.166840
60817		-4.871549	2.196243	7.305503	0.039474	4.839652	-0.977105	-0.523682	-0.284912	-0.339600	12.367220	55.684471	-30.093298
60818		-5.109000	1.234151	6.376489	0.085323	5.435591	-1.213614	-0.500000	-0.284912	-0.332031	12.398618	58.875997	-30.117113
60819		-6.813611	3.174294	7.778693	0.097766	6.096240	-1.430991	-0.468994	-0.283691	-0.320313	12.360442	62.464779	-30.227481
60820		-8.888091	3.340364	9.481041	0.075619	6.516505	-1.575223	-0.439697	-0.284912	-0.291748	12.221465	66.305514	-30.432377
60821		-12.189310	3.245547	10.877165	0.179108	6.847346	-1.755625	-0.388916	-0.277100	-0.280762	11.909228	70.353380	-30.880926
60822		-15.947350	3.518364	11.651622	0.340216	6.613161	-1.865431	-0.360107	-0.273438	-0.257568	11.197246	74.280339	-31.835001
60823		-17.654616	2.612524	8.588258	0.745573	6.411908	-1.901720	-0.328857	-0.280762	-0.241211	10.011734	78.092757	-33.497376
60824		-17.074785	3.975216	8.046311	0.925522	6.527220	-2.166328	-0.294922	-0.269775	-0.207520	6.622585	81.975484	-37.477319
60825		-26.971809	9.092731	15.186472	0.602645	5.591717	-2.439945	-0.275635	-0.265625	-0.182373	-5.162592	85.214952	-49.681156
60826		-17.464592	11.035263	13.289538	-0.061511	4.884226	-2.903025	-0.243652	-0.260010	-0.160400	-46.788472	87.126484	-91.354106
60827		-13.519656	7.719109	15.178019	-0.814104	4.585125	-3.433793	-0.219727	-0.235596	-0.145508	-99.498884	85.875872	-143.682542
60828		-5.281856	5.357304	14.187495	-1.032221	3.801809	-3.493305	-0.209717	-0.216309	-0.125000	-115.652387	83.284436	-159.312124
60829		2.541778	3.846162	2.960179	-1.342858	4.266555	-3.951011	-0.177002	-0.209473	-0.107422	-123.348985	80.104828	-166.312690
60830		-37.146691	2.040738	24.899705	-0.672395	5.016110	-3.613320	-0.160400	-0.181641	-0.079346	-129.077827	76.731355	-171.767285
60831		-22.525188	1.977933	20.100711	1.010964	0.743096	-2.440676	-0.156250	-0.178711	-0.070801	-126.394745	75.366205	-169.603151
60832		-17.297571	5.980734	18.745930	1.882029	-1.424428	-1.389172	-0.155273	-0.179443	-0.080322	-121.049842	75.155697	-165.194214
60833		-7.831401	7.608595	12.927321	2.060874	-3.149310	-0.853807	-0.164551	-0.187012	-0.070801	-112.845640	75.540358	-157.939540
60834		-2.381128	6.974035	9.197607	1.826345	-3.725129	-0.708008	-0.179932	-0.200439	-0.078369	-103.346240	75.816893	-149.219252
60835		0.671757	6.433760	6.414423	1.507925	-3.723489	-0.623207	-0.182129	-0.206543	-0.081543	-93.901844	75.785365	-140.374140
60836		1.421915	5.954660	4.757757	1.193727	-3.431175	-0.523517	-0.199219	-0.199219	-0.097900	-85.542110	75.473520	-132.453936
60837		0.711347	6.203211	4.333655	0.912926	-3.158559	-0.364405	-0.203857	-0.208984	-0.089600	-78.298825	75.012210	-125.510097
60838		-0.493189	6.648226	4.686171	0.574576	-3.032501	-0.134901	-0.220459	-0.217041	-0.099121	-71.880218	74.488136	-119.201621
60839		-1.687213	6.354182	5.423639	0.293502	-3.094044	0.162691	-0.240723	-0.218750	-0.105469	-65.719655	73.932759	-112.980158
60840		-2.336764	5.390450	5.917944	0.164836	-3.290120	0.588281	-0.248779	-0.222900	-0.106934	-59.391252	73.360793	-106.486656
60841		-2.256254	4.408868	6.203673	0.169549	-3.477400	1.071727	-0.265137	-0.224854	-0.107910	-52.713829	72.754873	-99.614427
60842		-2.978816	3.664196	6.622556	0.260306	-3.685549	1.536840	-0.299561	-0.226318	-0.110840	-45.708612	72.039564	-92.425245
60843		-3.693434	2.823958	6.549413	0.396543	-3.942927	1.923261	-0.315918	-0.229492	-0.107666	-38.456332	71.096262	-85.027738
60844		-3.671635	2.081686	6.309004	0.548321	-4.139515	2.176004	-0.350342	-0.234375	-0.103027	-31.424102	69.862951	-77.904183
60845		-3.796999	1.066627	5.796074	0.721699	-4.266308	2.287222	-0.362061	-0.226074	-0.106689	-24.942319	68.320027	-71.416128
60846		-3.607443	-0.416939	4.803074	0.973246	-4.252031	2.337857	-0.376465	-0.220947	-0.101563	-19.191455	66.563018	-65.796825
60847		-4.335496	-2.084416	4.678957	1.350917	-4.041550	2.424797	-0.382568	-0.213867	-0.089111	-13.998244	64.733003	-60.953943
60848		-7.196413	-2.664879	6.056637	1.797173	-3.835861	2.575936	-0.396240	-0.209717	-0.089355	-9.133132	62.874390	-56.683477
60849		-9.836214	-1.768159	8.489294	2.092538	-3.756177	2.703660	-0.394043	-0.221436	-0.081299	-4.562107	60.914495	-52.868343
60850		-10.858362	-0.584647	10.367382	2.047196	-3.917724	2.681118	-0.396240	-0.217285	-0.089111	-0.575738	58.740230	-49.618020
60851		-10.657106	-0.527616	10.494161	1.788928	-4.168711	2.484630	-0.384766	-0.225098	-0.092285	2.627635	56.318752	-47.043637
60852		-10.116856	-2.152310	9.744921	1.536790	-4.262742	2.184166	-0.385254	-0.235352	-0.104980	5.061576	53.797949	-45.152427
60853		-11.409450	-3.344752	9.746842	1.530255	-4.211178	1.860698	-0.392578	-0.243408	-0.115234	6.998013	51.278724	-43.824911
60854		-14.019873	-3.069842	10.669997	1.712646	-4.178801	1.589895	-0.393555	-0.254883	-0.123535	8.667576	48.782980	-42.930569
60855		-16.311072	-1.829972	11.609838	1.930010	-4.332158	1.446551	-0.396973	-0.265381	-0.130371	10.226399	46.190901	-42.323529
60856		-17.301529	0.141459	11.698304	2.042042	-4.654487	1.494389	-0.398193	-0.273193	-0.153076	11.728113	43.410320	-41.856858
60857		-17.159034	1.980868	11.142134	1.983027	-5.017431	1.767267	-0.388428	-0.294189	-0.179688	13.199725	40.377565	-41.362707
60858		-16.330475	3.321817	9.751996	1.757768	-5.298458	2.190114	-0.408691	-0.319824	-0.199219	14.600886	37.129763	-40.737991
60859		-15.569176	3.928624	8.518349	1.405071	-5.382629	2.693784	-0.428711	-0.332275	-0.225098	15.893350	33.741657	-39.906777
60860		-15.601860	3.992679	7.861197	1.003867	-5.243967	3.215985	-0.461182	-0.356934	-0.259033	17.043300	30.338494	-38.828975
60861		-16.015809	3.288341	7.841167	0.614682	-4.946740	3.647408	-0.494629	-0.381836	-0.283447	18.022933	27.000101	-37.532309
60862		-16.362061	1.808646	7.377144	0.335581	-4.551189	3.945241	-0.552246	-0.397705	-0.319092	18.844206	23.811963	-36.072906
60863		-16.782294	0.320722	6.663623	0.243158	-4.090987	4.187910	-0.589111	-0.415283	-0.326660	19.600853	20.803226	-34.459680
60864		-16.988215	-0.881494	5.059195	0.274783	-3.524035	4.370279	-0.641846	-0.430664	-0.343506	20.347252	18.050682	-32.697333
60865		-17.179336	-1.057880	2.858000	0.331349	-2.896469	4.416068	-0.690674	-0.431885	-0.355469	21.079154	15.599100	-30.839814
60866		-17.119825	-0.013450	0.399429	0.243910	-2.156643	4.176586	-0.736328	-0.445313	-0.361816	21.683861	13.576606	-29.004383
60867		-19.790185	0.957838	-1.292921	-0.275480	-0.989587	3.408499	-0.772217	-0.445557	-0.372559	21.898057	12.322202	-27.361355
60868		-24.605746	-4.286771	-2.679852	-0.392105	-0.683467	2.598474	-0.804199	-0.446289	-0.375977	21.935071	11.403909	-26.100850
60869		-25.869870	-9.209107	-5.282707	-0.104369	-0.581732	1.949373	-0.823486	-0.439697	-0.375732	22.056274	10.675461	-25.174474
60870		-26.277243	-10.602627	-10.064572	0.394925	-0.280735	1.120310	-0.840332	-0.438232	-0.375000	22.383494	10.284573	-24.633506
60871		-24.381582	-9.218504	-13.895597	0.474650	0.875907	0.244390	-0.842773	-0.436523	-0.385742	22.717806	10.695625	-24.307650
60872		-20.200696	-2.547188	-13.728025	-0.804247	2.421571	-0.601321	-0.827148	-0.450928	-0.391113	22.302174	12.110042	-24.091947
60873		-4.865808	-0.148659	0.725085	-2.347501	2.675557	-1.765116	-0.791992	-0.430664	-0.419678	20.872766	13.910890	-24.479434
60874		-7.452563	3.581107	10.249557	-2.835784	3.041304	-2.526493	-0.764404	-0.419922	-0.441650	19.045022	16.043554	-25.273645
60875		-0.197380	1.564380	15.875729	-3.122044	1.607507	-2.946539	-0.742432	-0.401855	-0.469727	16.860748	17.443764	-26.655490
60876		8.824874	-7.124568	7.585923	-2.577877	3.582895	-2.309676	-0.702637	-0.390869	-0.482910	15.147711	19.782470	-27.402064
60877		-3.752525	-12.094591	3.179729	-1.117677	4.596479	-1.343153	-0.671143	-0.383301	-0.489990	14.481579	22.528191	-27.479273
60878		-16.920952	-5.294886	11.643437	-0.312314	4.444343	-0.829735	-0.640137	-0.382080	-0.502441	14.381398	25.113300	-27.290527
60879		-22.603809	2.548897	24.845127	-0.818859	4.332438	-1.015408	-0.601074	-0.359619	-0.506104	13.934030	27.666052	-27.244385
60880		-44.334934	11.652170	17.504881	-1.648832	2.893582	-0.734652	-0.581787	-0.358398	-0.515137	12.978136	29.376898	-27.272979
60881		-6.941379	2.096764	6.617452	0.033079	0.723873	-0.174283	-0.568359	-0.362549	-0.508789	12.995318	29.808709	-27.279526
60882		-7.552826	5.677089	11.226265	-0.454248	1.801685	-0.345063	-0.561279	-0.363525	-0.513672	12.758517	30.859609	-27.238090
60883		-6.253117	0.262201	9.807453	-0.226788	0.103662	-0.330766	-0.552979	-0.357178	-0.515869	12.526310	30.964382	-27.440285
60884		-7.618651	-2.586269	11.278165	-0.290501	0.685270	-0.124260	-0.552979	-0.354248	-0.514893	12.370606	31.363630	-27.424443
60885		-8.060894	-1.257731	9.988159	-0.100482	0.039163	-0.067198	-0.545410	-0.356201	-0.508057	12.293295	31.399162	-27.464873
60886		-5.506550	1.256411	9.014895	-0.015299	0.218109	0.030946	-0.559326	-0.358154	-0.519043	12.313008	31.517977	-27.415176
60887		-5.883954	1.638699	8.639112	0.035111	0.055737	0.041049	-0.549072	-0.357422	-0.514160	12.351473	31.549615	-27.382293
60888		-5.133390	2.613445	8.148674	0.021433	0.056903	0.026254	-0.553955	-0.359131	-0.520020	12.378654	31.578739	-27.358684
60889		-5.474677	2.098298	8.270079	0.000264	0.016756	0.001162	-0.556152	-0.352051	-0.519775	12.380570	31.593441	-27.357571
60890		-5.131507	2.201450	8.244609	-0.011762	0.003365	-0.019415	-0.555664	-0.354004	-0.515381	12.368985	31.598207	-27.371672
60891		-5.084215	2.130702	8.206521	-0.023755	-0.021524	-0.036280	-0.548340	-0.360840	-0.514160	12.341397	31.596066	-27.400665
60892		-4.762784	2.111720	8.161816	-0.048782	-0.008097	-0.057398	-0.547363	-0.354248	-0.524902	12.294657	31.599047	-27.441379
60893		-4.862989	2.302132	8.003887	-0.077314	0.021970	-0.089847	-0.553223	-0.354736	-0.515869	12.221207	31.627697	-27.499362
60894		-5.530760	1.806565	8.146221	-0.096636	0.029402	-0.104508	-0.549316	-0.357422	-0.520020	12.133540	31.657289	-27.565773
60895		-5.440371	1.536495	8.352023	-0.092997	-0.047454	-0.106253	-0.546387	-0.355469	-0.522461	12.040234	31.648855	-27.644442
60896		-5.183985	1.361579	8.425827	-0.079035	-0.037020	-0.096769	-0.546387	-0.352539	-0.512939	11.960390	31.640124	-27.715161
60897		-5.277345	1.573959	8.355052	-0.068664	-0.034580	-0.087846	-0.545898	-0.354980	-0.520508	11.888322	31.636531	-27.779887
60898		-5.113450	1.570637	8.376700	-0.057173	-0.028300	-0.075448	-0.553955	-0.344482	-0.525879	11.829031	31.630030	-27.835325
60899		-5.434859	1.450498	8.439082	-0.048053	-0.004481	-0.059111	-0.547119	-0.352539	-0.520752	11.780861	31.639816	-27.876971
60900		-5.501014	1.383031	8.404649	-0.026549	-0.025896	-0.038593	-0.543457	-0.342773	-0.524658	11.752028	31.630282	-27.907788
60901		-5.252089	1.541890	8.398059	-0.011196	-0.018131	-0.023664	-0.545654	-0.349365	-0.525146	11.736203	31.628244	-27.927975
60902		-5.366595	1.634174	8.250279	-0.008369	0.001219	-0.023582	-0.556396	-0.345703	-0.523682	11.724926	31.632156	-27.945182
60903		-5.165913	1.693050	8.238332	-0.005378	-0.011007	-0.024208	-0.550049	-0.344238	-0.526123	11.712741	31.634165	-27.964761
60904		-5.129676	1.666285	8.279065	-0.015341	0.008339	-0.033705	-0.555420	-0.353027	-0.517822	11.694475	31.643242	-27.987672
60905		-5.270013	1.685047	8.300131	-0.018314	0.008839	-0.036067	-0.538086	-0.353271	-0.526855	11.672186	31.657736	-28.012369
60906		-5.151795	1.778477	8.309322	-0.023416	0.008443	-0.042220	-0.545654	-0.351318	-0.522705	11.646339	31.667842	-28.040894
60907		-5.084227	1.824780	8.291493	-0.027935	0.019720	-0.055235	-0.540527	-0.346680	-0.528809	11.612654	31.690622	-28.076778
60908		-5.157086	1.812459	8.232528	-0.036863	0.024400	-0.067412	-0.552246	-0.344238	-0.527832	11.571473	31.712556	-28.119788
60909		-5.123817	1.657583	8.286201	-0.033509	0.025202	-0.083329	-0.551025	-0.353027	-0.521973	11.525191	31.741570	-28.173525
60910		-5.398185	1.414180	8.328032	-0.038250	0.051946	-0.076857	-0.542969	-0.352783	-0.520264	11.481808	31.779992	-28.219137
60911		-5.444598	1.531774	8.320925	-0.031749	0.037765	-0.074984	-0.544189	-0.343018	-0.525879	11.440199	31.815031	-28.265779
60912		-5.160983	1.608483	8.241437	-0.032138	0.037490	-0.080080	-0.547607	-0.341553	-0.521729	11.398077	31.845643	-28.315553
60913		-5.265299	1.419460	8.336769	-0.032058	0.069166	-0.080951	-0.540771	-0.348633	-0.526367	11.356296	31.898928	-28.362065
60914		-5.391493	1.394844	8.385636	-0.013657	0.074707	-0.068539	-0.544434	-0.347656	-0.522705	11.331295	31.949091	-28.399356
60915		-5.304967	1.549661	8.333334	-0.001739	0.076130	-0.057502	-0.536377	-0.349365	-0.525879	11.315433	32.003606	-28.429542
60916		-5.292630	1.551309	8.284798	0.000197	0.081782	-0.060560	-0.547852	-0.351318	-0.521240	11.301569	32.056828	-28.460688
60917		-5.297206	1.537772	8.226819	0.004629	0.088613	-0.054735	-0.534180	-0.346436	-0.521729	11.291109	32.118022	-28.487464
60918		-5.110405	1.653681	8.322518	0.014482	0.083807	-0.060667	-0.534180	-0.343018	-0.519775	11.285449	32.172385	-28.518473
60919		-5.050789	1.826140	8.287008	0.007500	0.100521	-0.086144	-0.541504	-0.340332	-0.517090	11.266266	32.243759	-28.564602
60920		-5.077086	1.795665	8.352217	0.006842	0.129520	-0.115522	-0.539063	-0.349854	-0.523438	11.239870	32.329927	-28.626117
60921		-5.170744	1.735927	8.383548	0.016134	0.160718	-0.140999	-0.531006	-0.343262	-0.521729	11.210142	32.441174	-28.700968
60922		-5.336135	1.624268	8.429671	0.031011	0.184498	-0.149956	-0.532715	-0.343018	-0.522949	11.188836	32.562025	-28.778418
60923		-5.314234	1.461114	8.419373	0.053940	0.224622	-0.162520	-0.528809	-0.343994	-0.522949	11.177119	32.711502	-28.859520
60924		-5.332971	1.403275	8.428122	0.085029	0.256789	-0.154562	-0.535156	-0.346436	-0.515869	11.189782	32.873481	-28.930786
60925		-4.500385	0.945439	8.514137	0.117415	0.403388	-0.144793	-0.530518	-0.344971	-0.515869	11.233229	33.121458	-28.976541
60926		-5.840124	1.192049	8.424240	0.208515	0.484469	-0.115775	-0.515625	-0.350342	-0.518311	11.347190	33.407124	-28.991221
60927		-4.657596	0.807002	8.549204	0.332940	0.582050	-0.084405	-0.515625	-0.344482	-0.516602	11.550153	33.748669	-28.971040
60928		-4.822926	1.971761	8.858216	0.249181	0.784715	-0.106616	-0.513428	-0.356445	-0.507324	11.715184	34.201840	-28.935756
60929		-5.132001	1.281514	8.376554	0.278044	0.929684	-0.101508	-0.508301	-0.355225	-0.511719	11.909905	34.740120	-28.874998
60930		-5.372620	1.334643	8.218317	0.316569	1.016021	-0.072085	-0.507324	-0.355225	-0.514160	12.149467	35.318572	-28.778069
60931		-5.456536	1.209701	8.088116	0.334142	1.112264	-0.028790	-0.496826	-0.358887	-0.500732	12.426114	35.949704	-28.633573
60932		-5.634790	1.772840	7.888915	0.345623	1.185227	-0.011858	-0.486816	-0.355469	-0.499268	12.729233	36.614478	-28.460284
60933		-5.699926	1.756681	7.714656	0.334561	1.252493	-0.009686	-0.480957	-0.368408	-0.502686	13.036724	37.320200	-28.269428
60934		-5.788000	1.857472	7.732698	0.310686	1.313150	-0.012992	-0.466553	-0.364014	-0.490723	13.343110	38.054952	-28.063607
60935		-5.745849	2.080516	7.695080	0.284886	1.401496	-0.029471	-0.457031	-0.367920	-0.487793	13.641454	38.844640	-27.848049
60936		-5.751716	2.246215	7.682263	0.266969	1.485294	-0.066484	-0.445801	-0.368408	-0.491943	13.931227	39.680751	-27.635903
60937		-5.653288	2.092514	7.707579	0.276165	1.608096	-0.095929	-0.443604	-0.378906	-0.481445	14.232900	40.592674	-27.415172
60938		-5.781423	2.047972	7.689696	0.283375	1.768997	-0.121757	-0.432861	-0.371338	-0.479736	14.557296	41.592312	-27.172533
60939		-5.784289	1.691160	7.667718	0.322609	1.970375	-0.118817	-0.413574	-0.374512	-0.471436	14.942006	42.706174	-26.876530
60940		-5.862978	1.611468	7.678661	0.368813	2.277668	-0.127138	-0.397949	-0.381348	-0.464355	15.410537	43.985320	-26.505538
60941		-5.995785	1.733284	8.245381	0.514571	2.601524	-0.206331	-0.381348	-0.383301	-0.451416	15.991255	45.456962	-26.101089
60942		-7.205696	4.391920	10.623876	0.453132	2.886755	-0.459662	-0.359863	-0.378418	-0.446533	16.470941	47.119248	-25.800218
60943		-4.210579	3.857542	7.997374	0.100571	3.007396	-0.732547	-0.338135	-0.380859	-0.436523	16.625766	48.894966	-25.671303
60944		-6.478519	2.650543	7.882937	0.091866	3.416735	-0.910624	-0.318115	-0.381104	-0.422119	16.753322	50.920601	-25.576714
60945		-7.463406	3.689019	8.396507	0.065735	3.674986	-1.117398	-0.291260	-0.376709	-0.411865	16.782586	53.125469	-25.589305
60946		-8.663192	3.170846	9.502077	0.085316	3.625396	-1.300870	-0.274170	-0.370605	-0.410400	16.670928	55.329914	-25.790278
60947		-8.620209	0.811996	7.982324	0.290414	3.798154	-1.455574	-0.244385	-0.365234	-0.384521	16.568633	57.657453	-26.114451
60948		-9.442330	-0.178743	8.379021	0.731562	3.914158	-1.523743	-0.213623	-0.368896	-0.361572	16.664696	60.056728	-26.494906
60949		-10.482788	0.553943	8.335191	1.232739	3.950402	-1.500197	-0.194824	-0.376465	-0.343262	17.065318	62.475644	-26.845352
60950		-13.343890	5.049678	9.375737	1.556013	3.814050	-1.616538	-0.163818	-0.371826	-0.319336	17.480664	64.838025	-27.379582
60951		-12.611577	7.726086	9.946635	1.586065	3.516271	-1.906601	-0.138672	-0.371338	-0.301514	17.402220	67.090696	-28.462241
60952		-11.447913	8.572096	8.194212	1.260926	3.279032	-2.294795	-0.105713	-0.360840	-0.270508	16.342495	69.271083	-30.384417
60953		-14.080774	6.314704	9.639050	0.825267	3.199924	-2.550283	-0.100342	-0.352783	-0.247070	14.215909	71.427682	-33.146277
60954		-9.579456	4.731134	9.135938	0.611038	2.539195	-2.670582	-0.068359	-0.335938	-0.235596	10.871602	73.181605	-37.026279
60955		-7.933354	5.804981	11.058427	0.234313	1.819925	-2.734595	-0.050293	-0.328857	-0.220703	6.193190	74.447744	-42.039345
60956		-6.774739	6.287261	11.797380	0.115014	1.083567	-2.481416	-0.035400	-0.320557	-0.226318	1.177199	75.159675	-47.307651
60957		-16.599244	6.607391	16.638940	0.530804	0.433454	-1.857419	-0.030273	-0.305664	-0.222412	-2.585062	75.394887	-51.514558
60958		-6.379489	7.389225	14.046567	0.703140	-0.704518	-1.385993	-0.036621	-0.305420	-0.227783	-5.076252	74.938971	-54.510954
60959		-0.228944	6.656822	9.365732	0.696859	-1.019506	-1.140267	-0.037354	-0.308105	-0.232178	-6.818226	74.288438	-56.734797
60960		0.788415	6.835125	7.690326	0.498896	-1.029270	-0.985847	-0.038574	-0.306885	-0.239746	-8.214985	73.629754	-58.488180
60961		0.061521	6.412394	7.425727	0.241582	-1.052538	-0.802915	-0.046631	-0.306152	-0.249268	-9.281704	72.961062	-59.749941
60962		-0.763324	6.098479	7.613940	0.055063	-1.140880	-0.481855	-0.058594	-0.301270	-0.259277	-9.776848	72.270575	-60.304497
60963		-1.243712	5.762928	7.797377	-0.084082	-1.315830	-0.048182	-0.072266	-0.302490	-0.275635	-9.514470	71.519313	-59.981835
60964		-1.296414	4.935261	7.745388	-0.160018	-1.573222	0.397387	-0.072754	-0.312744	-0.286377	-8.538988	70.664667	-58.856521
60965		-1.692513	4.268467	7.931877	-0.141087	-1.902478	0.834966	-0.096924	-0.313965	-0.297363	-6.891696	69.644370	-57.023911
60966		-2.218561	3.771439	7.996658	-0.114221	-2.266769	1.251138	-0.117920	-0.323730	-0.316162	-4.753577	68.424773	-54.667015
60967		-2.275731	3.256033	7.605274	-0.117172	-2.597196	1.595947	-0.146484	-0.338135	-0.329590	-2.360018	66.990690	-52.012769
60968		-1.984536	2.649909	6.826483	-0.140739	-2.832737	1.836886	-0.173340	-0.344971	-0.346680	0.018368	65.389201	-49.328098
60969		-2.193416	2.011187	6.347618	-0.163631	-2.944516	1.983600	-0.197266	-0.342041	-0.349121	2.248609	63.673373	-46.759573
60970		-3.174954	1.522761	6.104680	-0.142411	-2.974362	2.092089	-0.238525	-0.354492	-0.360352	4.304720	61.903348	-44.359037
60971		-4.860469	1.371319	6.213815	-0.074099	-2.988960	2.248876	-0.266113	-0.363525	-0.374023	6.297426	60.071791	-42.037687
60972		-6.545356	1.368518	6.074450	-0.020835	-3.010768	2.489534	-0.295654	-0.366943	-0.369141	8.285984	58.179663	-39.710271
60973		-7.662770	1.043009	5.698619	-0.008966	-3.013188	2.787269	-0.334229	-0.360840	-0.386719	10.299193	56.210216	-37.314988
60974		-8.492559	0.582309	5.341245	-0.023597	-2.985681	3.052208	-0.370117	-0.372070	-0.385986	12.272216	54.190455	-34.899360
60975		-9.993700	0.447944	5.273775	-0.062537	-2.911687	3.269485	-0.397949	-0.374756	-0.389404	14.165868	52.130102	-32.494463
60976		-12.041045	0.929561	5.833155	-0.184561	-2.816627	3.466839	-0.434570	-0.374512	-0.396729	15.918971	50.056249	-30.109485
60977		-14.236682	1.769145	6.359047	-0.455601	-2.780118	3.655293	-0.470947	-0.371826	-0.398926	17.442445	47.921621	-27.750338
60978		-15.765621	2.226044	6.158112	-0.875545	-2.809035	3.790371	-0.496826	-0.365479	-0.406494	18.611927	45.719379	-25.462571
60979		-16.367888	1.644354	5.263107	-1.333892	-2.846744	3.848119	-0.527832	-0.357178	-0.408936	19.381600	43.452580	-23.282840
60980		-16.138272	1.110488	4.028170	-1.741237	-2.805831	3.814427	-0.559570	-0.362793	-0.421631	19.770229	41.206039	-21.228193
60981		-15.702247	0.637382	3.101832	-2.068882	-2.610065	3.728193	-0.587646	-0.338135	-0.437988	19.853781	39.069478	-19.264722
60982		-15.442024	1.116308	2.642991	-2.298432	-2.285891	3.621010	-0.614014	-0.322021	-0.444824	19.721383	37.135265	-17.349329
60983		-14.786721	1.974723	2.246061	-2.500685	-1.859743	3.492816	-0.630371	-0.301025	-0.467285	19.412833	35.456849	-15.454818
60984		-14.153552	3.145009	2.065115	-2.643157	-1.408078	3.430018	-0.655518	-0.289795	-0.479248	19.003299	34.048991	-13.520983
60985		-14.657060	5.787113	1.559212	-2.798682	-1.025396	3.484276	-0.661133	-0.277344	-0.491211	18.525052	32.847775	-11.484224
60986		-15.166349	7.996910	0.580048	-3.085113	-0.690633	3.598810	-0.681152	-0.241943	-0.509766	17.920523	31.827670	-9.314469
60987		-15.137322	9.133396	-0.790419	-3.409983	-0.383825	3.717345	-0.681885	-0.225098	-0.528564	17.168210	30.974624	-7.014540
60988		-15.165587	9.267105	-2.341837	-3.653235	-0.034416	3.827435	-0.690918	-0.188477	-0.543213	16.317576	30.324541	-4.582009
60989		-15.457170	8.219278	-3.795671	-3.731143	0.292336	3.922698	-0.707520	-0.170166	-0.559326	15.462986	29.870520	-2.031393
60990		-15.738984	6.347919	-4.988280	-3.573346	0.598974	3.903168	-0.708008	-0.137939	-0.562012	14.702090	29.620501	0.556614
60991		-12.223496	-1.527095	-9.280069	-2.716332	1.239279	3.579499	-0.708496	-0.117676	-0.585205	14.385362	29.794878	3.047472
60992		-13.184115	-2.603091	-12.047673	-1.136810	1.956763	3.162881	-0.701416	-0.100098	-0.589355	14.916859	30.421859	5.400233
60993		-32.119076	16.105942	5.801030	-3.398895	4.003992	0.770709	-0.668945	-0.074951	-0.594727	13.582713	32.540803	6.564669
60994		-34.741057	-31.346636	18.864634	0.350655	1.004621	0.402720	-0.656494	-0.070557	-0.600586	14.018009	33.045292	6.992725
60995		-9.322793	-3.453531	13.472592	-0.312828	-1.393257	-0.451735	-0.665527	-0.073975	-0.599121	13.559269	32.338980	6.468066
60996		6.373461	2.910099	4.129823	0.033801	-0.334426	-0.129616	-0.672363	-0.074219	-0.594971	13.506340	32.170597	6.327838
60997		-7.531984	10.913207	11.367461	-0.141297	-0.473706	-0.117017	-0.679688	-0.072510	-0.594238	13.348575	31.928960	6.176325
60998		-1.614002	2.963030	3.450681	-0.351664	-0.255267	-0.358197	-0.673828	-0.070557	-0.597412	13.003633	31.833857	5.899906
60999		-8.488309	-2.119438	10.820458	-0.474286	0.168631	-0.357000	-0.675781	-0.070801	-0.595703	12.625314	31.980098	5.690346
61000		-6.871252	4.276042	7.506737	-0.421273	-0.576765	-0.235967	-0.678467	-0.067139	-0.598633	12.259346	31.687028	5.449308
61001		-3.462876	-0.219765	9.446157	-0.271546	-0.369675	-0.200351	-0.677490	-0.064697	-0.600830	12.011370	31.510971	5.265306
61002		-5.586669	-0.145124	9.707980	-0.257016	-0.089568	-0.138188	-0.684326	-0.058838	-0.595215	11.811742	31.477587	5.160196
61003		-5.726369	0.437878	8.973244	-0.093461	-0.015977	-0.046699	-0.679688	-0.055176	-0.605713	11.744646	31.480807	5.127108
61004		-5.735339	0.740884	8.750251	0.020842	0.025178	0.041143	-0.680908	-0.065186	-0.600098	11.774107	31.490609	5.155784
61005		-5.244630	1.388787	8.464448	0.074676	0.039050	0.102938	-0.678467	-0.060303	-0.598633	11.858502	31.507177	5.228579
61006		-5.367303	1.888451	8.191751	0.066802	0.066889	0.111475	-0.680176	-0.058838	-0.600586	11.941535	31.531995	5.309330
61007		-5.398170	1.945100	8.175770	0.062741	0.055650	0.106502	-0.683838	-0.061768	-0.599854	12.021612	31.557261	5.386853
61008		-5.274576	1.903196	8.129109	0.054032	0.033247	0.093198	-0.684570	-0.061035	-0.602783	12.088674	31.565229	5.450975
61009		-5.208573	1.570740	8.266654	0.059627	0.051610	0.086144	-0.684570	-0.062988	-0.593262	12.159784	31.590524	5.514646
61010		-5.287553	1.610326	8.452956	0.078559	0.088110	0.088776	-0.685791	-0.064453	-0.598389	12.243541	31.629613	5.583719
61011		-5.283357	1.854630	8.252082	0.092887	0.139600	0.071461	-0.674561	-0.058838	-0.600098	12.335382	31.705787	5.650453
61012		-5.538278	1.397487	8.513180	0.125468	0.171939	0.082850	-0.679199	-0.058838	-0.604492	12.450620	31.792318	5.728005
61013		-5.619632	1.555078	8.446631	0.167260	0.143212	0.115193	-0.673828	-0.059570	-0.596191	12.600912	31.864846	5.824504
61014		-5.543489	1.639015	8.472675	0.200289	0.133869	0.129721	-0.674805	-0.067871	-0.594727	12.772849	31.923860	5.927915
61015		-5.923301	1.629899	8.533246	0.232612	0.099930	0.157451	-0.672607	-0.075928	-0.601074	12.972308	31.966335	6.046301
61016		-5.663937	2.026626	8.337206	0.235868	0.007377	0.157908	-0.679688	-0.067871	-0.598389	13.164602	31.950515	6.149473
61017		-5.281471	2.139792	8.243536	0.233211	-0.022916	0.152683	-0.668945	-0.074219	-0.591064	13.352818	31.924468	6.245981
61018		-5.304165	2.308553	8.298610	0.223332	-0.050209	0.138986	-0.682129	-0.069092	-0.600342	13.526406	31.878509	6.327513
61019		-5.012779	2.599909	8.136982	0.179529	-0.075424	0.089352	-0.681152	-0.073486	-0.590576	13.657336	31.831253	6.373889
61020		-4.847256	2.665493	8.071221	0.125345	-0.074654	0.051906	-0.678955	-0.083008	-0.587158	13.742373	31.783189	6.394147
61021		-4.612577	2.815250	7.710748	0.049911	-0.048243	0.015258	-0.674316	-0.075928	-0.589111	13.775735	31.760981	6.396200
61022		-4.796215	2.861195	7.799430	-0.007928	0.000346	-0.026424	-0.678223	-0.071533	-0.597168	13.763702	31.765315	6.377141
61023		-5.113730	2.755088	8.019320	-0.056146	0.017537	-0.066227	-0.678711	-0.079834	-0.603027	13.713908	31.790740	6.336455
61024		-5.274259	2.052632	8.124666	-0.088492	-0.003227	-0.086470	-0.682861	-0.075684	-0.595947	13.634675	31.801192	6.277481
61025		-5.350693	2.130971	7.999561	-0.104599	0.016618	-0.090719	-0.689453	-0.074707	-0.592285	13.548576	31.829292	6.220547
61026		-5.209213	1.790478	8.115209	-0.108795	0.000469	-0.094192	-0.681152	-0.076416	-0.595215	13.455278	31.842685	6.157029
61027		-5.428186	1.566588	8.298956	-0.099259	0.024817	-0.083982	-0.683105	-0.068604	-0.596436	13.375138	31.874308	6.105683
61028		-5.427181	1.851607	8.281728	-0.093327	-0.013349	-0.078779	-0.677734	-0.070557	-0.596680	13.294834	31.877804	6.050060
61029		-5.258731	2.040471	8.216762	-0.092845	-0.019691	-0.078875	-0.674805	-0.066406	-0.596924	13.216369	31.883817	5.995051
61030		-5.327125	1.945727	8.162830	-0.093443	-0.029479	-0.074636	-0.677979	-0.080078	-0.597900	13.136114	31.877642	5.939655
61031		-4.361040	2.092318	7.857850	-0.114624	-0.036685	-0.092628	-0.680664	-0.078857	-0.600342	13.039022	31.875805	5.873007
61032		-4.751538	2.088950	7.898803	-0.172176	0.091483	-0.118021	-0.674072	-0.074219	-0.601807	12.908243	31.942581	5.807413
61033		-5.706307	1.614588	8.148248	-0.184252	0.070184	-0.125818	-0.674805	-0.067139	-0.601807	12.768089	32.004334	5.734922
61034		-5.396203	1.542643	8.175647	-0.185695	0.026944	-0.126483	-0.680908	-0.064941	-0.594238	12.621172	32.035829	5.653704
61035		-5.634140	1.775519	8.294219	-0.192544	0.018136	-0.117775	-0.677734	-0.066162	-0.598145	12.474658	32.067186	5.578448
61036		-5.380419	1.624251	8.213136	-0.191018	-0.037654	-0.119777	-0.675537	-0.066650	-0.598389	12.321889	32.061351	5.492051
61037		-5.074034	1.403864	8.244590	-0.184339	-0.008830	-0.106826	-0.678711	-0.065186	-0.602051	12.181704	32.075957	5.419966
61038		-5.088649	1.752657	8.236044	-0.194413	0.030682	-0.109721	-0.677490	-0.053711	-0.605713	12.035643	32.106827	5.349922
61039		-5.408603	1.374874	8.414898	-0.178144	0.060208	-0.096918	-0.680664	-0.066406	-0.601807	11.907467	32.158604	5.293950
61040		-5.351252	1.518466	8.334268	-0.159714	0.055058	-0.093099	-0.671875	-0.064697	-0.596680	11.788741	32.200917	5.238074
61041		-5.114980	1.616853	8.307452	-0.142731	0.048449	-0.094604	-0.673584	-0.056885	-0.595215	11.680504	32.245615	5.181696
61042		-4.957196	1.784874	8.121052	-0.152995	0.067882	-0.112848	-0.671631	-0.055908	-0.604736	11.559352	32.297215	5.114207
61043		-5.043527	1.453115	8.164159	-0.159467	0.071497	-0.129115	-0.680420	-0.045654	-0.606445	11.430681	32.358537	5.037739
61044		-5.143845	1.311128	8.317491	-0.142586	0.088993	-0.131006	-0.669922	-0.050781	-0.599365	11.310225	32.423798	4.960641
61045		-5.322424	1.305245	8.469919	-0.123144	0.076256	-0.133678	-0.669678	-0.053467	-0.601074	11.200643	32.487983	4.881339
61046		-5.701031	1.259608	8.747094	-0.085221	0.050968	-0.115230	-0.670654	-0.053955	-0.603760	11.115678	32.529878	4.809370
61047		-5.786217	1.413163	8.659937	-0.029850	0.000683	-0.084680	-0.670898	-0.051758	-0.597656	11.071466	32.545957	4.752540
61048		-5.627694	1.549295	8.405529	0.016999	-0.007213	-0.078549	-0.662598	-0.046387	-0.605713	11.054047	32.551003	4.697338
61049		-5.534917	1.217624	8.381283	0.042390	-0.024757	-0.073211	-0.664307	-0.040527	-0.596680	11.053481	32.551489	4.644797
61050		-5.501919	0.891020	8.613790	0.101284	-0.001524	-0.031154	-0.666260	-0.054932	-0.601807	11.101762	32.554528	4.621953
61051		-5.462453	1.247200	8.788344	0.153074	-0.007442	0.035982	-0.667969	-0.063232	-0.597412	11.204886	32.552713	4.644431
61052		-5.219117	1.231317	8.319774	0.155313	-0.012591	0.076508	-0.667480	-0.063965	-0.603027	11.321952	32.537547	4.691898
61053		-3.004029	1.886087	9.387861	0.274740	0.131914	0.042563	-0.664307	-0.063721	-0.604980	11.507146	32.613122	4.737429
61054		-5.112499	1.523954	7.713036	0.242080	0.444907	-0.004694	-0.656738	-0.053467	-0.600342	11.678624	32.863856	4.793336
61055		-5.218513	1.478935	9.029598	0.384141	0.461494	0.029343	-0.657227	-0.067139	-0.608398	11.947497	33.125316	4.876895
61056		-4.811220	1.737146	8.536692	0.422520	0.498911	0.030239	-0.660889	-0.065186	-0.597900	12.241502	33.401690	4.966918
61057		-4.717001	2.020555	9.213257	0.360617	0.677399	-0.028268	-0.649170	-0.066895	-0.596436	12.495737	33.790232	5.047109
61058		-4.885911	1.470889	7.924259	0.271877	0.951295	-0.063078	-0.642090	-0.065918	-0.602783	12.709555	34.330546	5.146205
61059		-4.967104	2.053180	9.354293	0.358439	0.986735	-0.041762	-0.635010	-0.069092	-0.598633	12.988462	34.892867	5.269986
61060		-5.178289	1.318844	7.901154	0.307692	1.188473	-0.052848	-0.624756	-0.079102	-0.592529	13.254543	35.563430	5.421228
61061		-4.679159	2.162165	7.887374	0.215091	1.381030	-0.058345	-0.610352	-0.072510	-0.593262	13.489738	36.346621	5.606467
61062		-5.205088	1.552062	8.367960	0.167436	1.594829	-0.013005	-0.606934	-0.072754	-0.597412	13.742523	37.237001	5.864108
61063		-4.864126	1.205265	8.044889	0.125654	1.818151	0.015988	-0.586914	-0.076660	-0.589111	14.017659	38.251568	6.190741
61064		-5.176598	0.817407	7.786819	0.104104	2.223346	0.068723	-0.582031	-0.078857	-0.584961	14.361027	39.477494	6.638819
61065		-5.479722	2.444406	7.800044	0.129442	2.470386	0.014923	-0.558594	-0.079102	-0.585449	14.744990	40.850640	7.114329
61066		-7.094686	3.031611	8.809898	0.114407	2.844701	-0.135922	-0.534424	-0.077393	-0.587891	15.118321	42.446146	7.573588
61067		-5.419758	3.322058	8.732250	0.095917	2.766414	-0.415881	-0.517578	-0.072998	-0.573242	15.351554	44.043185	7.829173
61068		-5.065060	3.686067	7.438996	0.022619	3.258774	-0.642527	-0.481445	-0.073975	-0.571533	15.507386	45.941563	8.027627
61069		-6.907946	2.922392	7.325981	-0.051986	3.344687	-0.848424	-0.455078	-0.076660	-0.569336	15.528016	47.922791	8.092155
61070		-6.519168	3.481477	6.435954	-0.081421	3.456141	-1.112384	-0.430664	-0.072998	-0.561523	15.382646	50.001838	7.957935
61071		-6.953795	4.934308	7.036656	-0.235896	3.575545	-1.454499	-0.416260	-0.068848	-0.551270	14.917272	52.201550	7.529480
61072		-6.762989	6.426738	7.166474	-0.671947	3.627038	-1.806594	-0.376709	-0.060791	-0.539063	13.879938	54.472413	6.713318
61073		-8.373500	5.816323	6.334990	-1.096238	3.549156	-2.151592	-0.335938	-0.041260	-0.540283	12.170784	56.735614	5.399283
61074		-8.124729	7.318176	6.226251	-1.639403	3.342553	-2.518158	-0.313721	-0.027344	-0.536865	9.553315	58.889062	3.413930
61075		-13.259587	8.294351	8.501148	-2.146646	3.036845	-2.703012	-0.288574	0.000244	-0.518311	6.093740	60.827844	0.831997
61076		-10.026197	6.263369	7.310375	-2.584987	2.594842	-2.964290	-0.259277	0.030518	-0.518555	1.659962	62.426867	-2.525933
61077		-12.766510	4.989971	7.793359	-2.725795	2.680564	-3.427349	-0.236084	0.062012	-0.516602	-3.837043	63.929728	-6.938968
