// General information: 
//  MT Manager version: 2022.2.0 
//  XDA version: 2022.2.0 build 7381 rev 124627 built on 2023-07-19
// Device information: 
//  DeviceId: 00B4C223
//  ProductCode: MTW2-3A7G6
//  Firmware Version: 4.6.0
//  Hardware Version: 2.0.0
// Device settings: 
//  Filter Profile: human(46.1)
//  Option Flags: Orientation Smoother Disabled, Position/Velocity Smoother Disabled, Continuous Zero Rotation Update Disabled, AHS Disabled, ICC Disabled
// Coordinate system: ENU
PacketCounter	SampleTimeFine	Acc_X	Acc_Y	Acc_Z	Gyr_X	Gyr_Y	Gyr_Z	Mag_X	Mag_Y	Mag_Z	Roll	Pitch	Yaw
36443		-5.020119	-0.871380	8.529207	0.003225	0.031625	0.007486	-0.013672	0.030762	-0.843994	-5.825171	29.497841	164.328157
36444		-4.863525	-0.952930	8.515606	0.004111	0.023219	0.006184	-0.024170	0.038330	-0.837646	-5.820426	29.511426	164.328427
36445		-4.863679	-0.930748	8.541450	0.004699	0.024343	0.007098	-0.017090	0.029785	-0.841553	-5.815686	29.526118	164.328921
36446		-4.794284	-0.922936	8.551344	0.003566	0.035373	0.008004	-0.017578	0.031982	-0.837891	-5.811065	29.546737	164.329574
36447		-4.943431	-0.839436	8.582071	-0.001519	0.042827	0.005554	-0.017822	0.035889	-0.840332	-5.810968	29.571876	164.327642
36448		-4.992348	-0.875823	8.523701	-0.007411	0.036425	0.001978	-0.014893	0.030029	-0.838623	-5.814619	29.592745	164.324277
36449		-4.997127	-0.898013	8.494978	-0.011293	0.030772	0.001537	-0.018311	0.034912	-0.847900	-5.821038	29.610783	164.320619
36450		-4.974616	-0.918646	8.507728	-0.009919	0.017120	0.001033	-0.024658	0.026855	-0.851074	-5.825799	29.620593	164.317919
36451		-4.922968	-0.946788	8.502877	-0.006565	0.014739	-0.002055	-0.015381	0.035156	-0.845947	-5.830132	29.629249	164.312971
36452		-4.952436	-0.939837	8.520237	-0.009198	0.009256	0.002238	-0.010986	0.033447	-0.840332	-5.833831	29.634646	164.311585
36453		-4.854685	-0.962253	8.486163	-0.002488	0.009328	0.001600	-0.016602	0.035889	-0.839600	-5.834490	29.640491	164.309450
36454		-4.855534	-0.962111	8.485694	0.000935	0.009704	0.006966	-0.019775	0.039307	-0.836914	-5.830865	29.646419	164.311135
36455		-4.946875	-0.915366	8.454804	0.001003	0.002792	0.004340	-0.017578	0.024414	-0.844727	-5.828445	29.648649	164.311426
36456		-4.949139	-0.905492	8.513766	0.006190	0.001705	0.006905	-0.017334	0.032715	-0.850098	-5.821563	29.650013	164.313607
36457		-4.902369	-0.935173	8.600811	0.001591	0.003916	0.005253	-0.027588	0.029541	-0.846436	-5.818479	29.652950	164.314010
36458		-4.900789	-0.825447	8.623757	0.000521	0.008036	0.003539	-0.022705	0.037109	-0.833740	-5.816147	29.657727	164.313561
36459		-4.858406	-0.929594	8.570347	-0.006914	0.015831	0.002975	-0.014648	0.032959	-0.839111	-5.819102	29.667252	164.311972
36460		-4.850614	-0.972260	8.535914	-0.008226	0.022573	0.000862	-0.019287	0.030273	-0.848877	-5.823133	29.680159	164.308795
36461		-4.973663	-0.940083	8.495110	-0.004045	0.023528	0.004631	-0.018555	0.034668	-0.842773	-5.824151	29.694230	164.307621
36462		-4.986657	-0.919544	8.500579	-0.003910	0.014539	0.004918	-0.018066	0.031494	-0.836670	-5.824126	29.702794	164.307641
36463		-4.993670	-0.953055	8.504970	0.001451	0.012906	0.004971	-0.011230	0.032227	-0.847412	-5.821544	29.710817	164.307476
36464		-4.973616	-0.927503	8.460808	-0.002189	0.009465	0.010460	-0.011719	0.033447	-0.847412	-5.818561	29.716810	164.311473
36465		-4.928428	-0.921603	8.431097	0.003484	-0.001703	0.008283	-0.014893	0.034424	-0.840088	-5.813252	29.716761	164.314413
36466		-4.907714	-0.952559	8.477435	0.010261	-0.003711	0.010563	-0.013184	0.035889	-0.843262	-5.802665	29.715249	164.319359
36467		-4.854885	-0.947723	8.559745	0.012022	-0.000339	0.013306	-0.019287	0.035645	-0.847412	-5.790895	29.716241	164.325632
36468		-4.904262	-0.787916	8.613745	0.007530	0.008242	0.011767	-0.009766	0.031494	-0.841797	-5.781875	29.721611	164.330573
36469		-4.931792	-0.788908	8.572094	-0.002735	0.016789	0.006746	-0.018799	0.032959	-0.841309	-5.781243	29.731977	164.331351
36470		-4.929767	-0.864941	8.542824	-0.007985	0.019956	0.001264	-0.011230	0.030273	-0.841553	-5.784917	29.743418	164.328619
36471		-4.982440	-0.935502	8.490471	-0.011862	0.014304	0.000810	-0.012451	0.026855	-0.836182	-5.791343	29.752013	164.325562
36472		-4.979714	-0.924339	8.457567	-0.014219	0.014645	0.002699	-0.014404	0.037842	-0.840820	-5.797948	29.760509	164.324123
36473		-4.901263	-0.950853	8.494174	-0.005957	0.005347	0.004578	-0.019531	0.032715	-0.843994	-5.799473	29.764228	164.324142
36474		-4.890560	-0.971695	8.487351	-0.004019	0.008173	0.004807	-0.017090	0.029053	-0.834717	-5.799334	29.769157	164.324517
36475		-4.927136	-0.930988	8.479288	0.001752	0.008207	0.008291	-0.018555	0.031738	-0.837158	-5.795317	29.774675	164.326763
36476		-4.965813	-0.880608	8.530314	0.003343	0.007287	0.008005	-0.020996	0.025879	-0.839111	-5.789887	29.779284	164.329299
36477		-4.920827	-0.874790	8.500507	-0.001779	0.006300	0.008350	-0.012207	0.031250	-0.837646	-5.787793	29.783705	164.331620
36478		-4.925462	-0.886729	8.532217	-0.000250	0.007458	0.005149	-0.016113	0.032715	-0.846191	-5.785358	29.788246	164.332269
36479		-4.952666	-0.888483	8.490618	-0.007267	0.012092	0.002468	-0.013428	0.038818	-0.840820	-5.788544	29.795679	164.330480
36480		-4.875913	-0.936203	8.500424	-0.004189	0.003884	0.001776	-0.017822	0.028076	-0.839600	-5.789348	29.797988	164.329152
36481		-4.905147	-0.928885	8.517907	-0.006681	0.013216	0.003384	-0.014404	0.038330	-0.848145	-5.791949	29.806096	164.327980
36482		-4.952049	-0.934374	8.546625	-0.000974	0.015327	0.003957	-0.009766	0.032227	-0.840820	-5.790578	29.815054	164.327321
36483		-5.037902	-0.854247	8.510091	-0.004850	0.009674	0.003496	-0.021240	0.022217	-0.841309	-5.791992	29.821180	164.326540
36484		-4.980072	-0.936301	8.504503	-0.004190	0.003884	0.001776	-0.014648	0.025879	-0.842773	-5.792797	29.823489	164.325211
36485		-4.946111	-0.910521	8.481253	-0.004369	0.004429	0.004292	-0.013916	0.028076	-0.838867	-5.793404	29.826617	164.324726
36486		-4.919965	-0.908868	8.522261	-0.000117	-0.001534	0.005430	-0.021484	0.033691	-0.839600	-5.790503	29.826048	164.326159
36487		-4.916099	-0.896618	8.490129	-0.005134	0.003850	0.005893	-0.014160	0.042725	-0.842773	-5.791064	29.828938	164.327150
36488		-4.931684	-0.888349	8.528454	-0.003950	0.001262	0.002174	-0.007813	0.043701	-0.845459	-5.791515	29.829775	164.326257
36489		-4.984799	-0.860965	8.532181	-0.001006	0.002044	0.001203	-0.021973	0.035400	-0.845215	-5.791290	29.831429	164.324949
36490		-4.952223	-0.856734	8.482201	-0.007060	-0.003811	0.000112	-0.014160	0.027344	-0.832031	-5.794029	29.829255	164.323039
36491		-4.963620	-0.924625	8.492437	-0.007060	-0.003811	0.000112	-0.016846	0.026611	-0.846680	-5.797323	29.827437	164.320756
36492		-4.993518	-0.938990	8.483575	-0.006820	-0.006434	0.000510	-0.021484	0.037109	-0.846191	-5.799708	29.823791	164.319283
36493		-4.962455	-0.925611	8.493010	-0.003395	-0.010898	0.000333	-0.014404	0.022217	-0.843994	-5.800601	29.817945	164.317695
36494		-4.944287	-0.912811	8.482070	-0.003334	-0.012976	0.003247	-0.010254	0.032471	-0.843994	-5.799877	29.810728	164.318457
36495		-4.888435	-0.918904	8.505811	-0.000391	-0.012194	0.002275	-0.013916	0.030273	-0.844238	-5.798331	29.804321	164.317874
36496		-4.902938	-0.910462	8.544777	-0.004759	-0.007765	0.006570	-0.012207	0.029053	-0.843750	-5.797512	29.800266	164.320471
36497		-4.943864	-0.903680	8.542598	0.000311	-0.009536	-0.002239	-0.017090	0.025391	-0.847656	-5.797148	29.795103	164.316906
36498		-4.956390	-0.904626	8.522412	-0.004821	-0.005687	0.003657	-0.018799	0.041260	-0.838135	-5.797384	29.792065	164.317450
36499		-4.925606	-0.891187	8.531670	-0.006235	-0.005310	0.001429	-0.012695	0.038330	-0.843994	-5.799744	29.789476	164.316286
36500		-4.985700	-0.919251	8.513888	-0.005818	-0.008477	-0.000690	-0.015381	0.031982	-0.847900	-5.801877	29.784596	164.314162
36501		-4.954614	-0.905990	8.523300	-0.006583	-0.009056	0.000911	-0.010986	0.029053	-0.833984	-5.804495	29.779881	164.312976
36502		-4.964987	-0.885767	8.530261	-0.005517	-0.013178	0.002622	-0.014404	0.034668	-0.841797	-5.805219	29.772513	164.313342
36503		-4.954217	-0.928167	8.497539	-0.000974	-0.018149	-0.004189	-0.018799	0.029297	-0.840576	-5.805951	29.762327	164.309159
36504		-4.937780	-0.906321	8.545837	-0.005341	-0.013721	0.000108	-0.003174	0.033936	-0.843018	-5.807375	29.754504	164.307910
36505		-4.932497	-0.894634	8.514491	-0.008047	-0.017126	0.001481	-0.014648	0.029785	-0.836670	-5.810342	29.745249	164.307370
36506		-4.937082	-0.928830	8.520210	-0.003813	-0.012562	-0.003093	-0.025146	0.031006	-0.846191	-5.811971	29.737901	164.303944
36507		-4.918700	-0.916278	8.509353	-0.004339	-0.015764	-0.001093	-0.012939	0.032715	-0.845947	-5.813686	29.729190	164.301655
36508		-4.936450	-0.951084	8.494577	-0.003752	-0.014641	-0.000177	-0.013916	0.030029	-0.841064	-5.814261	29.720825	164.300282
36509		-4.902856	-0.916076	8.531344	-0.001334	-0.017060	0.000847	-0.018311	0.022461	-0.842773	-5.813589	29.711552	164.299346
36510		-4.929931	-0.908509	8.550135	-0.003103	-0.015597	0.003654	-0.019287	0.022217	-0.841064	-5.812514	29.702866	164.300551
36511		-4.902010	-0.937429	8.505928	0.001495	-0.017814	0.005304	-0.014160	0.027100	-0.848389	-5.808668	29.693369	164.302118
36512		-4.844187	-0.921737	8.556596	0.002896	-0.007665	0.001820	-0.015625	0.030518	-0.840332	-5.805015	29.689097	164.301589
36513		-4.909815	-0.894655	8.540404	-0.002167	-0.005896	0.010636	-0.016113	0.036621	-0.843018	-5.801991	29.686740	164.306230
36514		-4.960467	-0.845562	8.571633	-0.000351	-0.003745	-0.000516	-0.016846	0.026611	-0.836182	-5.801086	29.684567	164.303907
36515		-4.893800	-0.903137	8.502312	-0.004648	-0.006229	0.001149	-0.020264	0.040527	-0.846924	-5.802576	29.681452	164.302521
36516		-4.920370	-0.962435	8.551102	-0.006478	-0.002686	0.001040	-0.020996	0.024414	-0.839600	-5.804711	29.679973	164.301148
36517		-4.934722	-0.896990	8.500166	-0.002468	-0.006026	0.001774	-0.016113	0.033203	-0.837891	-5.804765	29.676972	164.300270
36518		-4.885487	-0.936749	8.528338	-0.000940	-0.000036	0.004119	-0.018066	0.028076	-0.835449	-5.802814	29.677182	164.300741
36519		-4.898829	-0.937411	8.507762	-0.001942	0.002007	0.005323	-0.015625	0.032471	-0.841553	-5.801660	29.678995	164.301475
36520		-4.891283	-0.882299	8.529600	-0.004298	0.002348	0.007215	-0.015137	0.030762	-0.843994	-5.800707	29.680743	164.303818
36521		-4.925910	-0.908221	8.552483	0.000176	0.004288	0.003033	-0.015137	0.033936	-0.845215	-5.799168	29.683741	164.302969
36522		-4.909281	-0.895017	8.540673	-0.001002	0.006874	0.006754	-0.017334	0.044678	-0.836182	-5.796625	29.688043	164.304708
36523		-4.934377	-0.875047	8.526314	-0.003007	0.006129	0.003612	-0.012939	0.033447	-0.834229	-5.796849	29.692112	164.304589
36524		-4.927743	-0.908091	8.551441	-0.004837	0.009672	0.003504	-0.011963	0.028320	-0.842773	-5.797651	29.697820	164.304009
36525		-4.966103	-0.889288	8.516482	-0.005012	0.005385	0.000471	-0.012451	0.028809	-0.836670	-5.799940	29.701315	164.301295
36526		-4.920886	-0.884720	8.486638	-0.012142	0.003657	-0.002319	-0.015137	0.017822	-0.839844	-5.806624	29.703258	164.297294
36527		-4.943959	-0.932084	8.503083	-0.004299	-0.002483	0.001664	-0.020264	0.033447	-0.839355	-5.807785	29.702322	164.295442
36528		-4.902209	-0.939341	8.505602	-0.003596	0.000176	-0.002852	-0.014160	0.028809	-0.842041	-5.809631	29.702248	164.291324
36529		-4.924807	-0.898478	8.518536	-0.006893	0.000481	0.003159	-0.021484	0.031738	-0.840576	-5.811966	29.703056	164.290807
36530		-4.881066	-0.914779	8.461988	-0.002883	-0.002861	0.003892	-0.020020	0.026611	-0.833984	-5.811109	29.701643	164.291317
36531		-4.937765	-0.899429	8.498141	0.000062	-0.002080	0.002915	-0.010742	0.028809	-0.843506	-5.809435	29.700939	164.290717
36532		-4.924371	-0.898511	8.518785	-0.001468	-0.003239	0.006119	-0.015137	0.035156	-0.841064	-5.807030	29.699440	164.292714
36533		-4.924116	-0.898389	8.518945	-0.001292	-0.003782	0.003602	-0.017334	0.025879	-0.843506	-5.805877	29.697888	164.292791
36534		-4.923907	-0.898443	8.519060	-0.004475	-0.001940	0.004182	-0.014893	0.030273	-0.845459	-5.805869	29.697016	164.293430
36535		-4.922094	-0.964965	8.549824	0.000536	-0.007325	0.003710	-0.010254	0.037598	-0.842285	-5.803479	29.693419	164.293616
36536		-4.857067	-0.925088	8.535986	-0.002295	-0.001739	0.004807	-0.016113	0.038330	-0.843994	-5.802025	29.692699	164.294651
36537		-4.915973	-0.930950	8.544985	0.000061	0.002750	0.008467	-0.015625	0.034424	-0.838135	-5.798787	29.695146	164.297885
36538		-4.932982	-0.855807	8.552802	-0.002005	0.004086	0.002410	-0.021240	0.031250	-0.840332	-5.798139	29.697607	164.296959
36539		-4.869020	-0.904162	8.542135	-0.004713	0.000683	0.003785	-0.017822	0.032959	-0.840820	-5.799038	29.698547	164.296968
36540		-4.883081	-0.992911	8.524934	-0.000061	0.006910	0.002638	-0.014893	0.032959	-0.838135	-5.797296	29.702631	164.296004
36541		-4.977789	-0.870295	8.522573	-0.000238	0.007453	0.005155	-0.019531	0.033203	-0.843262	-5.795412	29.707526	164.296442
36542		-4.925537	-0.897693	8.518197	0.000704	0.007489	0.001036	-0.016602	0.034668	-0.841553	-5.793771	29.711847	164.294388
36543		-4.899774	-0.896022	8.558884	-0.001004	0.006873	0.006758	-0.018555	0.031250	-0.834229	-5.791792	29.716489	164.296023
36544		-4.902418	-0.917360	8.531457	-0.003245	0.008753	0.003219	-0.019043	0.026855	-0.842285	-5.791746	29.721656	164.295317
36545		-4.886132	-0.904392	8.519436	-0.002068	0.010997	0.005050	-0.020752	0.026855	-0.843506	-5.791020	29.728535	164.295222
36546		-4.902495	-0.895831	8.557346	0.000640	0.014400	0.003677	-0.017578	0.024902	-0.838379	-5.788784	29.736948	164.294441
36547		-4.986854	-0.881993	8.551689	-0.004073	0.010254	0.001907	-0.009277	0.030518	-0.843506	-5.790174	29.743215	164.292146
36548		-4.955094	-0.877730	8.501229	-0.005779	0.004808	0.002075	-0.017334	0.030762	-0.842773	-5.791821	29.746068	164.290953
36549		-4.954087	-0.944616	8.531507	-0.004187	0.003886	0.001786	-0.015869	0.029053	-0.843750	-5.793152	29.748761	164.289269
36550		-4.959546	-0.890478	8.532936	-0.002121	-0.002281	0.002289	-0.015137	0.029297	-0.840576	-5.792399	29.747586	164.288688
36551		-4.862750	-0.934195	8.472519	-0.002887	-0.002860	0.003891	-0.011719	0.030273	-0.841553	-5.792061	29.746530	164.288761
36552		-4.895336	-0.938620	8.522483	-0.000181	0.005372	0.008073	-0.020508	0.026611	-0.837646	-5.788566	29.750052	164.291468
36553		-4.929416	-0.876230	8.541876	0.003595	-0.000179	0.002854	-0.007568	0.035400	-0.835938	-5.784934	29.750453	164.290629
36554		-4.946758	-0.888899	8.553317	-0.001359	0.003129	0.006242	-0.017578	0.022705	-0.844238	-5.782636	29.752590	164.292284
36555		-4.948908	-0.910312	8.526154	-0.003950	0.001264	0.002182	-0.015625	0.031494	-0.841553	-5.783598	29.753812	164.290918
36556		-4.920627	-0.918158	8.508037	-0.004128	0.001806	0.004701	-0.012939	0.035400	-0.843750	-5.783345	29.755106	164.291648
36557		-4.903547	-0.905163	8.496479	-0.001711	-0.000616	0.005723	-0.012451	0.037354	-0.841309	-5.781855	29.755443	164.293089
36558		-4.907689	-0.917208	8.528443	0.001766	0.003366	0.002748	-0.021973	0.030762	-0.839355	-5.778913	29.757513	164.292433
36559		-4.930431	-0.906346	8.455159	-0.005131	0.003850	0.005907	-0.013184	0.029785	-0.838623	-5.779475	29.760370	164.293772
36560		-4.942186	-0.855248	8.547542	-0.002773	0.003508	0.004015	-0.014893	0.033447	-0.837891	-5.778726	29.762594	164.293938
36561		-4.957528	-0.877385	8.499845	-0.002537	0.000885	0.004411	-0.014893	0.032959	-0.838623	-5.778162	29.763708	164.294255
36562		-4.939081	-0.931134	8.518800	-0.003772	0.000722	-0.000336	-0.008301	0.036377	-0.846680	-5.779311	29.764093	164.291750
36563		-4.891677	-0.904787	8.516211	-0.004776	0.002766	0.000871	-0.014893	0.037109	-0.843750	-5.781279	29.766106	164.289835
36564		-4.885925	-0.871430	8.511092	-0.004717	0.000685	0.003785	-0.015137	0.024170	-0.850586	-5.781625	29.766708	164.290039
36565		-4.962122	-0.890639	8.531421	-0.001829	0.003545	-0.000106	-0.009766	0.025391	-0.845459	-5.782203	29.769068	164.287200
36566		-4.945095	-0.878051	8.519794	-0.009845	-0.000294	0.004136	-0.007568	0.023193	-0.842285	-5.785340	29.769132	164.287699
36567		-4.933776	-0.899185	8.513270	-0.002769	-0.001321	-0.001542	-0.020020	0.028320	-0.847168	-5.786691	29.768706	164.283641
36568		-4.946862	-0.900271	8.492759	-0.005128	-0.000979	0.000351	-0.020020	0.029541	-0.841797	-5.788337	29.768161	164.281699
36569		-4.933448	-0.899936	8.513381	-0.006425	-0.004761	0.003951	-0.012451	0.023438	-0.848389	-5.789929	29.765956	164.282020
36570		-4.963377	-0.913988	8.504565	-0.004655	-0.006225	0.001142	-0.014160	0.025146	-0.846191	-5.790873	29.762466	164.280948
36571		-4.907974	-0.920498	8.527924	-0.003830	-0.007727	0.002455	-0.018555	0.034668	-0.841309	-5.791316	29.758569	164.280034
36572		-4.878932	-0.928323	8.510243	-0.004009	-0.007185	0.004974	-0.013184	0.030029	-0.847168	-5.790608	29.754754	164.281542
36573		-4.914259	-0.887570	8.502982	0.000705	-0.003041	0.006745	-0.008545	0.032227	-0.844238	-5.787302	29.753740	164.283797
36574		-4.935294	-0.912551	8.546610	-0.003246	-0.001776	0.008930	-0.013184	0.027344	-0.839844	-5.785047	29.753236	164.287541
36575		-4.938346	-0.867052	8.489240	0.001708	-0.005085	0.005538	-0.015625	0.029785	-0.844238	-5.781461	29.751047	164.288850
36576		-4.959359	-0.892315	8.532852	-0.006899	0.000486	0.003162	-0.012695	0.037842	-0.838867	-5.783253	29.751500	164.288658
36577		-4.936625	-0.933911	8.519920	-0.003243	-0.006604	0.003372	-0.018799	0.031494	-0.845459	-5.783204	29.748278	164.289022
36578		-4.905833	-0.920241	8.529184	-0.001298	-0.003782	0.003601	-0.012451	0.032227	-0.837402	-5.781504	29.746323	164.289401
36579		-4.973609	-0.914562	8.485784	-0.001476	-0.003240	0.006121	-0.017822	0.027832	-0.844238	-5.779636	29.745158	164.291204
36580		-4.916512	-0.899269	8.536066	-0.000474	-0.005284	0.004914	-0.016113	0.022949	-0.844238	-5.776986	29.742423	164.292545
36581		-4.861453	-0.905318	8.559249	0.000647	-0.000960	0.003831	-0.020996	0.029053	-0.842285	-5.774646	29.742412	164.292204
36582		-4.927727	-0.878232	8.542645	-0.002183	0.004629	0.004934	-0.009766	0.029785	-0.847656	-5.773295	29.745328	164.292899
36583		-4.884619	-0.894384	8.485752	-0.003832	0.007633	0.002310	-0.019531	0.032959	-0.837891	-5.774348	29.750146	164.291312
36584		-4.946002	-0.891315	8.553503	0.000176	0.004286	0.003040	-0.023682	0.029297	-0.838623	-5.772252	29.752758	164.290787
36585		-4.931323	-0.899781	8.514628	-0.006192	0.007976	0.004205	-0.005371	0.029053	-0.841797	-5.774069	29.757792	164.290629
36586		-4.931814	-0.900014	8.514319	-0.002595	0.002966	0.001499	-0.010986	0.028809	-0.836914	-5.774019	29.759563	164.289180
36587		-4.979627	-0.926923	8.516610	-0.005543	0.002188	0.002477	-0.019043	0.032715	-0.831299	-5.775809	29.761372	164.287881
36588		-4.920849	-0.921191	8.507580	-0.004483	-0.001937	0.004184	-0.016113	0.034912	-0.847900	-5.775804	29.760502	164.288520
36589		-4.905619	-0.899144	8.555208	-0.002481	-0.001197	0.007329	-0.019775	0.030029	-0.837891	-5.774208	29.760538	164.291201
36590		-4.914830	-0.887584	8.502650	-0.005487	0.000107	0.005392	-0.014160	0.029297	-0.839600	-5.774452	29.760903	164.292498
36591		-4.961922	-0.796329	8.587729	-0.010673	0.001213	0.002830	-0.016602	0.040527	-0.849854	-5.779041	29.762058	164.291691
36592		-4.964378	-0.906647	8.564061	-0.015155	-0.005551	0.001454	-0.020264	0.035889	-0.843018	-5.785921	29.758971	164.290778
36593		-4.986133	-0.867055	8.577366	-0.024826	-0.011208	-0.002483	-0.017578	0.031006	-0.842041	-5.800041	29.752726	164.288106
36594		-4.988490	-0.912223	8.523891	-0.030200	-0.024918	-0.002380	-0.020508	0.039551	-0.846436	-5.816148	29.738377	164.285971
36595		-4.876925	-0.957958	8.484538	-0.032445	-0.018206	-0.000351	-0.017822	0.028564	-0.838379	-5.833657	29.728260	164.284874
36596		-4.788613	-0.961817	8.457858	-0.021829	-0.007686	0.005025	-0.015137	0.028564	-0.840332	-5.843126	29.724163	164.286452
36597		-4.861715	-0.873192	8.502115	-0.021767	0.000765	0.002242	-0.017334	0.029297	-0.840088	-5.854214	29.725041	164.285076
36598		-4.936871	-0.960130	8.552549	-0.015456	0.008804	0.009284	-0.018066	0.031006	-0.840576	-5.859195	29.730592	164.288341
36599		-4.958292	-0.928561	8.505952	-0.013509	0.011625	0.009516	-0.015381	0.032959	-0.840332	-5.863564	29.738067	164.291156
36600		-4.896430	-0.910836	8.464349	-0.010915	0.008660	0.008013	-0.023682	0.034424	-0.844238	-5.866352	29.743462	164.293596
36601		-4.945196	-0.907687	8.552247	-0.010205	0.016147	0.009063	-0.008545	0.025391	-0.846680	-5.869170	29.753463	164.296157
36602		-4.866234	-0.876946	8.499143	-0.011329	0.007001	0.004577	-0.013428	0.031494	-0.840820	-5.873259	29.757712	164.296452
36603		-4.880912	-0.966211	8.481309	-0.008613	0.010403	0.003205	-0.013428	0.034424	-0.849609	-5.876808	29.764210	164.294935
36604		-4.919609	-0.916911	8.532404	-0.002889	0.012497	0.003768	-0.013184	0.030273	-0.842041	-5.876509	29.771543	164.294327
36605		-4.903630	-0.903888	8.520245	-0.000942	0.015317	0.004000	-0.015869	0.032715	-0.843506	-5.875621	29.780853	164.293409
36606		-4.935399	-0.917420	8.510383	0.000595	0.016479	0.000795	-0.011475	0.033203	-0.842773	-5.874430	29.790282	164.290580
36607		-4.966958	-0.930802	8.500650	0.001708	0.010266	0.005409	-0.019531	0.034424	-0.835938	-5.871401	29.796782	164.290983
36608		-4.943471	-0.950254	8.514141	0.007022	0.010701	0.002535	-0.015137	0.029053	-0.843506	-5.865766	29.803020	164.289688
36609		-4.944297	-0.949511	8.513745	0.007256	0.008077	0.002927	-0.015137	0.027588	-0.838623	-5.860281	29.808070	164.288555
36610		-4.956086	-0.927892	8.520088	0.010497	0.004145	0.005253	-0.007324	0.036865	-0.835205	-5.851547	29.810731	164.289488
36611		-4.930000	-0.955649	8.474878	0.008778	0.003524	0.010981	-0.013916	0.032227	-0.846436	-5.842416	29.813739	164.293889
36612		-4.915206	-0.932230	8.522483	0.011013	0.001636	0.014520	-0.017090	0.028076	-0.837158	-5.830275	29.815509	164.301080
36613		-4.949941	-0.956369	8.545414	0.012244	0.001792	0.019271	-0.007080	0.035156	-0.844238	-5.816368	29.817950	164.310986
36614		-4.973716	-0.846401	8.528299	0.011118	-0.002531	0.020350	-0.010986	0.024902	-0.845703	-5.802123	29.817680	164.322287
36615		-4.949145	-0.864669	8.542566	0.006986	-0.005547	0.019494	-0.022461	0.032715	-0.845459	-5.790912	29.816043	164.332747
36616		-4.926515	-0.874424	8.615949	0.000258	-0.005593	0.020141	-0.017334	0.026855	-0.840820	-5.782857	29.814011	164.344114
36617		-4.909195	-0.890663	8.518433	-0.005425	-0.000118	0.033632	-0.008545	0.033203	-0.839844	-5.774314	29.816118	164.363686
36618		-4.901414	-0.834926	8.540565	-0.006168	0.000189	0.018402	-0.011719	0.030273	-0.843262	-5.770700	29.817279	164.373526
36619		-4.922875	-0.860000	8.583933	-0.010714	0.000340	0.019675	-0.012207	0.031738	-0.839111	-5.769784	29.818982	164.383894
36620		-4.868363	-0.897020	8.520592	-0.016133	0.004080	0.016722	-0.018311	0.024902	-0.847656	-5.772556	29.822265	164.392373
36621		-4.982486	-0.896539	8.506146	-0.007997	0.003739	0.018307	-0.016602	0.030029	-0.847656	-5.770589	29.825746	164.401388
36622		-4.992092	-0.854477	8.539569	-0.010770	0.002425	0.016764	-0.011963	0.034912	-0.839600	-5.770219	29.828088	164.410004
36623		-4.876946	-0.864132	8.494314	-0.010595	0.006709	0.019816	-0.008545	0.032715	-0.836182	-5.769399	29.833365	164.420193
36624		-4.951763	-0.891610	8.455151	-0.008597	0.007444	0.022967	-0.019043	0.036865	-0.838379	-5.765919	29.838925	164.432553
36625		-4.898141	-0.897692	8.477604	-0.007882	0.014932	0.024025	-0.022705	0.025635	-0.840820	-5.762465	29.849131	164.445131
36626		-4.921976	-0.855533	8.489945	-0.000384	0.015552	0.021776	-0.019287	0.027588	-0.837158	-5.754932	29.859243	164.456174
36627		-4.967275	-0.838742	8.545617	-0.005618	0.018756	0.016300	-0.016846	0.028076	-0.838379	-5.752709	29.871068	164.462769
36628		-5.035661	-0.714621	8.584165	-0.012111	0.011270	0.011762	-0.019531	0.028809	-0.847656	-5.755028	29.878163	164.467516
36629		-4.997512	-1.047208	8.423411	-0.019232	-0.000074	-0.002191	-0.018311	0.042236	-0.839844	-5.766056	29.878236	164.463366
36630		-5.011600	-0.921847	8.545005	-0.009408	-0.005519	0.004931	-0.017334	0.024902	-0.840576	-5.768509	29.875367	164.464735
36631		-4.941199	-0.967485	8.443464	-0.010595	-0.002934	0.008670	-0.012207	0.030273	-0.833252	-5.771014	29.874442	164.468381
36632		-4.838445	-0.947477	8.464447	0.000593	-0.006682	0.015105	-0.014893	0.035645	-0.831543	-5.764367	29.871496	164.476516
36633		-4.954702	-0.870120	8.479390	0.003547	-0.005910	0.014127	-0.010010	0.029053	-0.843018	-5.756877	29.869249	164.483740
36634		-4.945312	-0.881087	8.532183	0.001318	-0.004017	0.010587	-0.010742	0.040283	-0.840576	-5.751383	29.867561	164.488726
36635		-4.938865	-0.847038	8.527558	-0.000498	-0.005288	0.004911	-0.016357	0.035400	-0.847900	-5.749273	29.865196	164.490031
36636		-4.903125	-0.887924	8.535108	-0.002772	-0.001311	-0.001546	-0.011230	0.032227	-0.838379	-5.750184	29.864355	164.486862
36637		-4.910271	-0.855167	8.509620	-0.000092	0.004170	-0.005831	-0.009766	0.026855	-0.837158	-5.751655	29.866709	164.480470
36638		-4.954191	-0.869877	8.479714	-0.005093	0.004752	-0.010918	-0.018311	0.031006	-0.842529	-5.757164	29.868785	164.470739
36639		-4.934463	-0.903322	8.525273	-0.003188	0.009654	-0.013597	-0.015869	0.036133	-0.849609	-5.763057	29.873810	164.458365
36640		-4.891316	-0.920269	8.468327	-0.002139	0.005524	-0.011896	-0.016602	0.031006	-0.848389	-5.767220	29.876268	164.447938
36641		-4.883029	-0.932802	8.520320	0.003216	0.016487	-0.020462	-0.009766	0.028564	-0.845459	-5.771993	29.884759	164.431184
36642		-4.893306	-0.921744	8.467016	0.003214	0.016488	-0.020460	-0.017822	0.035156	-0.839600	-5.776262	29.892972	164.414395
36643		-4.940484	-0.927736	8.495481	0.005067	0.023477	-0.026049	-0.020752	0.039063	-0.837646	-5.782021	29.905150	164.393237
36644		-4.942387	-0.928673	8.494271	0.003237	0.027030	-0.026141	-0.017578	0.027832	-0.842773	-5.788499	29.919042	164.372005
36645		-4.956514	-0.996557	8.502762	0.008282	0.024366	-0.018135	-0.008789	0.037354	-0.840576	-5.789888	29.932085	164.356261
36646		-5.033143	-0.927151	8.519000	0.014210	0.013288	-0.011487	-0.007568	0.028320	-0.843750	-5.784822	29.938989	164.345579
36647		-4.989889	-0.942398	8.462296	0.010320	-0.000151	0.002216	-0.011963	0.028320	-0.839355	-5.777546	29.939410	164.344600
36648		-4.939866	-0.893169	8.487543	0.020934	-0.009835	0.002158	-0.015381	0.027100	-0.848633	-5.763380	29.933921	164.344433
36649		-4.978984	-0.862790	8.512561	0.020098	-0.003505	0.006427	-0.019775	0.030029	-0.838135	-5.748936	29.932582	164.346077
36650		-4.989516	-0.840385	8.519661	0.013662	-0.013080	0.004797	-0.011230	0.029053	-0.845703	-5.737964	29.925395	164.347857
36651		-4.946850	-0.846231	8.523009	0.012252	-0.012694	0.002568	-0.011230	0.034668	-0.845459	-5.729010	29.918567	164.347826
36652		-5.009685	-0.796467	8.534279	0.012299	-0.014778	0.005484	-0.018066	0.029297	-0.841309	-5.718541	29.910451	164.350167
36653		-4.911019	-0.906313	8.504910	0.001932	-0.012544	0.000353	-0.013184	0.026611	-0.845215	-5.716269	29.903602	164.348942
36654		-4.883609	-0.904732	8.546689	0.005705	-0.013275	0.000689	-0.018311	0.028564	-0.845459	-5.711200	29.896068	164.348028
36655		-4.922499	-0.905928	8.485431	0.007364	-0.000923	0.003192	-0.015869	0.030762	-0.839844	-5.705200	29.895990	164.347493
36656		-4.891987	-0.891752	8.494669	0.005366	-0.001658	0.000042	-0.017822	0.020020	-0.841553	-5.700919	29.895043	164.345389
36657		-4.973210	-0.855601	8.516661	0.003224	0.000891	0.007905	-0.012451	0.027344	-0.841064	-5.695774	29.896243	164.347612
36658		-4.975387	-0.876537	8.489491	-0.001187	0.002587	0.003735	-0.012207	0.027344	-0.833496	-5.694175	29.897927	164.347658
36659		-5.013004	-0.826918	8.541095	-0.004903	-0.003591	0.000742	-0.012207	0.027344	-0.844482	-5.695919	29.896239	164.345571
36660		-4.889818	-0.870081	8.521908	-0.006264	-0.005290	0.001426	-0.015625	0.025391	-0.838623	-5.697729	29.893300	164.344615
36661		-4.921880	-0.905263	8.485861	-0.001950	-0.002818	-0.000235	-0.016846	0.036133	-0.837402	-5.698108	29.891973	164.341801
36662		-4.943910	-0.864084	8.499112	-0.004083	-0.005096	0.002053	-0.010254	0.028076	-0.843750	-5.698468	29.889180	164.341246
36663		-4.949752	-0.897872	8.504130	-0.004681	-0.001389	0.006709	-0.011475	0.027344	-0.842529	-5.698275	29.889069	164.343509
36664		-4.972169	-0.856527	8.517175	-0.001003	0.002046	0.001212	-0.010254	0.029053	-0.843994	-5.697380	29.890300	164.341932
36665		-4.932610	-0.885203	8.492597	-0.005135	-0.000966	0.000351	-0.016357	0.037109	-0.844238	-5.699479	29.890116	164.339525
36666		-4.896927	-0.926168	8.500137	-0.000541	-0.003203	0.001996	-0.012939	0.030762	-0.844971	-5.697891	29.888400	164.338808
36667		-4.960756	-0.877648	8.510726	-0.003137	-0.000232	0.003501	-0.017090	0.021973	-0.842529	-5.697931	29.888748	164.339140
36668		-4.960785	-0.877748	8.510699	-0.002365	0.000347	0.001897	-0.015625	0.028320	-0.839600	-5.697536	29.889050	164.338124
36669		-4.936603	-0.897964	8.524600	-0.002596	0.002972	0.001505	-0.013916	0.030273	-0.845703	-5.697879	29.891077	164.335984
36670		-4.957034	-0.865616	8.478488	-0.002548	0.000888	0.004421	-0.010498	0.019287	-0.835205	-5.696780	29.891831	164.336592
36671		-4.961297	-0.877897	8.510385	-0.001959	0.002007	0.005341	-0.013184	0.024414	-0.842041	-5.695464	29.893598	164.336914
36672		-4.937245	-0.898074	8.524217	-0.004188	0.003898	0.001799	-0.013428	0.031006	-0.848145	-5.696263	29.895919	164.335601
36673		-4.950535	-0.898906	8.503565	-0.003726	-0.001351	0.002582	-0.017090	0.026123	-0.840332	-5.696803	29.895597	164.334719
36674		-4.972945	-0.857897	8.516585	-0.006959	0.002585	0.000253	-0.017822	0.019287	-0.843506	-5.699653	29.897082	164.332475
36675		-4.952894	-0.890850	8.562415	-0.005367	0.001659	-0.000040	-0.004150	0.024902	-0.842285	-5.702006	29.898250	164.329181
36676		-4.926582	-0.920249	8.517215	-0.003958	0.001273	0.002191	-0.013672	0.029297	-0.839355	-5.702459	29.899096	164.328298
36677		-4.914679	-0.853292	8.507264	-0.005782	0.004824	0.002093	-0.010986	0.029541	-0.844238	-5.704529	29.902340	164.326515
36678		-4.949653	-0.879563	8.529822	-0.005009	0.005403	0.000489	-0.015869	0.032471	-0.839600	-5.706277	29.905444	164.324240
36679		-4.928850	-0.854589	8.486052	-0.003831	0.007642	0.002329	-0.023682	0.027100	-0.840576	-5.707309	29.910224	164.322972
36680		-4.963718	-0.880910	8.508661	-0.005000	0.000579	-0.005089	-0.018799	0.031738	-0.846924	-5.710723	29.910260	164.317347
36681		-4.926605	-0.901145	8.542929	-0.009016	0.008761	-0.000235	-0.020996	0.030762	-0.838379	-5.715573	29.915390	164.314310
36682		-4.962756	-0.861004	8.535037	-0.006603	0.006330	0.000783	-0.013672	0.030762	-0.845947	-5.718169	29.919039	164.312168
36683		-4.989558	-0.862757	8.493573	-0.007192	0.005211	-0.000137	-0.016357	0.029541	-0.848633	-5.721847	29.922218	164.309485
36684		-4.939064	-0.912545	8.462245	-0.006777	0.002046	-0.002271	-0.012695	0.030273	-0.846680	-5.725405	29.923250	164.305615
36685		-4.939522	-0.882992	8.548214	-0.007193	0.005211	-0.000136	-0.007813	0.028564	-0.838623	-5.729067	29.926484	164.302806
36686		-4.891092	-0.953799	8.489741	-0.001052	0.004131	-0.001700	-0.014404	0.030762	-0.835205	-5.729226	29.928736	164.299174
36687		-4.866225	-0.886120	8.500300	-0.005380	0.006483	0.005539	-0.015137	0.028809	-0.837158	-5.730024	29.933070	164.299834
36688		-4.897844	-0.899885	8.490435	-0.005950	0.020727	0.004512	-0.016602	0.022949	-0.834473	-5.731498	29.945140	164.299193
36689		-4.963573	-0.851412	8.499905	0.001737	0.020806	-0.000257	-0.014893	0.033447	-0.839111	-5.730528	29.957210	164.294755
36690		-4.991610	-0.822710	8.544051	-0.008121	0.015712	-0.001693	-0.010742	0.025879	-0.846680	-5.735120	29.966065	164.290361
36691		-4.932882	-0.914572	8.478471	-0.008896	0.015133	-0.000089	-0.017822	0.029785	-0.837158	-5.740065	29.974969	164.286848
36692		-5.002171	-0.879140	8.520152	-0.007891	0.013087	-0.001302	-0.008545	0.029053	-0.845459	-5.744312	29.982350	164.282882
36693		-4.980796	-0.921122	8.506402	-0.006252	0.010075	0.001318	-0.012207	0.028320	-0.846436	-5.747108	29.988437	164.280593
36694		-4.979373	-0.930248	8.446824	-0.001656	0.007835	0.002962	-0.014404	0.032471	-0.841309	-5.746207	29.993068	164.279781
36695		-4.912170	-0.936349	8.490220	-0.005386	0.006483	0.005541	-0.019043	0.031006	-0.840576	-5.747017	29.997348	164.280645
36696		-4.930165	-0.949230	8.501204	0.001113	0.009147	0.004513	-0.017578	0.026123	-0.844727	-5.744063	30.002815	164.280766
36697		-4.988897	-0.866613	8.506366	0.000740	0.010226	0.009563	-0.010742	0.035400	-0.840576	-5.740132	30.009357	164.283918
36698		-4.976463	-0.865625	8.526584	-0.000792	0.004243	0.007186	-0.017822	0.027344	-0.836914	-5.737226	30.012183	164.286126
36699		-4.950400	-0.894363	8.481278	0.000757	0.005403	0.003980	-0.008545	0.024170	-0.837402	-5.735013	30.015728	164.286152
36700		-4.953282	-0.885179	8.540021	0.001112	0.009147	0.004514	-0.001465	0.026855	-0.838867	-5.732058	30.021196	164.286276
36701		-4.991447	-0.865350	8.504999	-0.000250	0.007449	0.005196	-0.003906	0.032715	-0.838867	-5.729983	30.026151	164.286057
36702		-4.978957	-0.864589	8.525233	-0.000838	0.006330	0.004274	-0.011475	0.030518	-0.837646	-5.728131	30.029999	164.286210
36703		-4.992662	-0.865180	8.504303	-0.005389	0.006485	0.005542	-0.010742	0.036133	-0.840332	-5.728965	30.034368	164.287106
36704		-5.012521	-0.899617	8.488156	-0.007758	0.006833	0.007439	-0.018555	0.031006	-0.840820	-5.730051	30.038684	164.289310
36705		-4.986606	-0.898736	8.529116	-0.002182	-0.000192	-0.000629	-0.006348	0.031006	-0.843506	-5.730894	30.038759	164.286994
36706		-4.942921	-0.915047	8.472571	-0.004970	0.003320	0.003406	-0.010010	0.032471	-0.844482	-5.731596	30.040842	164.286774
36707		-4.943262	-0.915199	8.472356	-0.002014	0.004092	0.002431	-0.011475	0.036865	-0.841797	-5.731441	30.043662	164.285834
36708		-4.952889	-0.873350	8.505804	-0.004383	0.004439	0.004328	-0.009277	0.028564	-0.839355	-5.731540	30.046435	164.286147
36709		-4.929142	-0.893554	8.519521	-0.002433	0.007257	0.004570	-0.012695	0.035400	-0.848389	-5.731043	30.051132	164.286551
36710		-4.955921	-0.894528	8.478036	-0.000020	0.004823	0.005586	-0.013672	0.037598	-0.843262	-5.728240	30.054196	164.287668
36711		-4.969689	-0.894845	8.457086	-0.001259	0.009495	0.006415	-0.008545	0.026855	-0.837891	-5.726605	30.060220	164.289719
36712		-4.944286	-0.893563	8.497809	-0.001847	0.008376	0.005493	-0.013428	0.025879	-0.844238	-5.724997	30.065304	164.290540
36713		-4.960384	-0.885116	8.535905	-0.003398	0.007217	0.008699	-0.010986	0.024170	-0.840576	-5.723565	30.070194	164.292893
36714		-4.975942	-0.906650	8.487899	0.000797	0.003316	0.006897	-0.002686	0.022217	-0.843994	-5.719811	30.072474	164.294973
36715		-4.952149	-0.926457	8.501701	-0.001804	0.006290	0.008407	-0.010498	0.024658	-0.836914	-5.717472	30.076898	164.296718
36716		-4.941670	-0.946631	8.494811	0.003145	0.007791	0.010589	-0.011719	0.029053	-0.851318	-5.711301	30.081940	164.300936
36717		-4.947462	-0.891514	8.496175	0.003920	0.008371	0.008986	-0.018066	0.036377	-0.840088	-5.705633	30.087494	164.303530
36718		-4.970671	-0.849342	8.508828	0.002912	0.010418	0.010203	-0.009766	0.028809	-0.842041	-5.699808	30.094010	164.307323
36719		-4.936377	-0.889525	8.515753	0.001086	0.013972	0.010110	-0.004883	0.032471	-0.840332	-5.695687	30.102757	164.311083
36720		-4.922794	-0.867099	8.562720	0.001440	0.017717	0.010648	-0.010498	0.024414	-0.842529	-5.690797	30.113460	164.314691
36721		-4.954543	-0.909966	8.466328	0.002612	0.019955	0.012496	-0.013184	0.024902	-0.845459	-5.685127	30.125872	164.318968
36722		-4.984678	-0.901141	8.483359	0.005840	0.016013	0.014825	-0.005127	0.032227	-0.850586	-5.676274	30.135839	164.325445
36723		-4.955967	-0.886368	8.491756	0.006779	0.020878	0.016288	-0.013184	0.027344	-0.841064	-5.666992	30.148958	164.332297
36724		-4.957815	-0.885026	8.490817	0.005413	0.019181	0.016970	-0.011230	0.028809	-0.841309	-5.657773	30.160851	164.339986
36725		-4.983856	-0.863345	8.475825	0.010549	0.020141	0.016632	-0.010254	0.025879	-0.833984	-5.646180	30.173489	164.347109
36726		-5.003120	-0.874708	8.486194	0.008327	0.022038	0.013090	-0.007568	0.028076	-0.836914	-5.636665	30.186790	164.352060
36727		-5.027354	-0.832001	8.498213	0.004589	0.020692	0.015666	-0.009521	0.035645	-0.849854	-5.628801	30.199742	164.358282
36728		-5.000558	-0.838893	8.479448	-0.000129	0.016567	0.013865	-0.001953	0.034424	-0.847900	-5.623690	30.209966	164.364106
36729		-4.995376	-0.871205	8.503987	0.002597	0.019962	0.012511	-0.007324	0.037842	-0.848633	-5.618146	30.222396	164.369398
36730		-5.024881	-0.892542	8.434836	0.005467	0.012273	0.014304	-0.012207	0.024170	-0.844238	-5.609539	30.230195	164.375793
36731		-5.041377	-0.882733	8.472826	0.008498	0.008870	0.019163	-0.001465	0.025635	-0.849609	-5.597958	30.236576	164.385770
36732		-5.000604	-0.888503	8.475315	0.007520	0.006091	0.014787	-0.008545	0.028564	-0.835693	-5.587809	30.240874	164.392888
36733		-5.012327	-0.866327	8.481620	0.008334	0.004584	0.016099	-0.012695	0.026611	-0.845947	-5.577124	30.244731	164.400482
36734		-5.006406	-0.831393	8.476735	0.005992	0.000107	0.012400	-0.008545	0.026123	-0.841553	-5.568449	30.245483	164.406412
36735		-5.034890	-0.822331	8.494692	0.008594	-0.002871	0.010892	-0.008545	0.027832	-0.839355	-5.559091	30.244676	164.411144
36736		-5.047575	-0.821938	8.474372	0.000920	-0.007762	0.010057	-0.012695	0.029053	-0.840820	-5.553846	30.240809	164.416032
36737		-5.022442	-0.841837	8.489097	-0.000804	-0.015948	0.001687	-0.013672	0.030029	-0.842285	-5.552553	30.232035	164.415788
36738		-5.010125	-0.862793	8.483281	-0.007960	-0.012805	0.004457	-0.010742	0.037598	-0.843262	-5.554096	30.224981	164.417303
36739		-5.008931	-0.863011	8.483964	-0.000806	-0.015948	0.001688	-0.011230	0.025879	-0.842773	-5.552910	30.216182	164.417818
36740		-5.022983	-0.854803	8.523221	-0.005946	-0.016903	0.002026	-0.008789	0.023926	-0.841797	-5.553974	30.206656	164.417992
36741		-5.032034	-0.864698	8.444456	-0.004517	-0.022119	-0.001330	-0.011963	0.034912	-0.837646	-5.555535	30.194221	164.415671
36742		-4.946972	-0.880072	8.451056	-0.009465	-0.023615	-0.003518	-0.012207	0.024658	-0.847412	-5.560238	30.180560	164.412620
36743		-4.965016	-0.818566	8.492399	-0.010063	-0.027476	-0.012949	-0.007813	0.033691	-0.844238	-5.568751	30.164389	164.403667
36744		-4.962628	-0.820577	8.493600	-0.018046	-0.025568	-0.019991	-0.007324	0.031738	-0.844238	-5.583760	30.148697	164.389883
36745		-4.964868	-0.835734	8.526470	-0.023097	-0.018065	-0.022410	-0.011475	0.030518	-0.843262	-5.603222	30.137467	164.374340
36746		-5.019676	-0.853441	8.476752	-0.026648	-0.019949	-0.022356	-0.006836	0.025146	-0.841309	-5.624113	30.124838	164.358648
36747		-4.968101	-0.809203	8.502540	-0.026066	-0.018829	-0.021427	-0.003906	0.025146	-0.840332	-5.644804	30.113188	164.343145
36748		-4.910249	-0.982332	8.500591	-0.019549	-0.013436	-0.013940	-0.007324	0.023193	-0.842773	-5.659046	30.104738	164.332588
36749		-4.986069	-0.936233	8.490823	-0.015607	-0.009892	-0.010537	-0.016602	0.030029	-0.836670	-5.670348	30.098871	164.323051
36750		-4.999068	-0.841489	8.526787	-0.010977	-0.014226	-0.005977	-0.017578	0.026611	-0.834229	-5.677016	30.090419	164.317798
36751		-5.006555	-0.830817	8.474945	-0.011526	-0.017431	-0.003985	-0.006836	0.029785	-0.846191	-5.683646	30.080372	164.313864
36752		-5.022145	-0.845050	8.487198	-0.011508	-0.022252	-0.009576	-0.012695	0.027832	-0.837891	-5.691539	30.067139	164.306770
36753		-5.017808	-0.825429	8.515594	-0.016742	-0.031666	-0.006462	-0.010742	0.031250	-0.840332	-5.701508	30.049009	164.302045
36754		-4.988626	-0.856418	8.471892	-0.018782	-0.030304	-0.012527	-0.010498	0.021973	-0.837891	-5.714268	30.031014	164.293547
36755		-4.963556	-0.900015	8.460139	-0.019334	-0.033508	-0.010531	-0.012695	0.028320	-0.845947	-5.726941	30.011590	164.285944
36756		-4.836166	-0.923618	8.469336	-0.014212	-0.027730	-0.005285	-0.012939	0.034912	-0.851074	-5.734774	29.995475	164.282054
36757		-4.929502	-0.977193	8.474821	-0.003902	-0.023082	0.002519	-0.012939	0.039307	-0.847412	-5.734748	29.982710	164.283126
36758		-4.985250	-0.894767	8.481800	0.001870	-0.023094	0.006004	-0.015137	0.020508	-0.848877	-5.729805	29.969883	164.286361
36759		-4.994450	-0.873823	8.489566	-0.002498	-0.023471	0.004754	-0.010498	0.026855	-0.848145	-5.728194	29.957006	164.288712
36760		-4.956847	-0.914494	8.498224	0.001733	-0.029461	0.005860	-0.010010	0.029785	-0.837646	-5.723171	29.940540	164.292269
36761		-5.003040	-0.873774	8.471751	-0.001458	-0.027604	0.006456	-0.009033	0.022705	-0.844727	-5.720239	29.925492	164.295643
36762		-4.987363	-0.873213	8.493794	-0.001453	-0.032420	0.000870	-0.004150	0.033936	-0.836182	-5.718584	29.907055	164.296109
36763		-5.008833	-0.853354	8.481485	-0.006415	-0.033914	-0.001297	-0.019775	0.031494	-0.840576	-5.720831	29.888056	164.294677
36764		-4.994560	-0.874676	8.476660	-0.006557	-0.040280	-0.001438	-0.010742	0.035645	-0.841553	-5.722598	29.865006	164.294144
36765		-4.911901	-0.902312	8.515646	-0.006927	-0.044020	-0.001965	-0.014648	0.032471	-0.840088	-5.725130	29.840031	164.293875
36766		-4.816186	-0.959421	8.488754	-0.008345	-0.038811	0.001399	-0.002686	0.032715	-0.844971	-5.727041	29.817981	164.295112
36767		-4.815398	-0.951074	8.549396	-0.000376	-0.026004	-0.003102	-0.013672	0.025635	-0.839111	-5.726759	29.803370	164.292571
36768		-4.808065	-0.850816	8.515673	-0.003336	-0.021956	0.003471	-0.011963	0.032471	-0.844971	-5.725676	29.791048	164.294059
36769		-4.862437	-0.902011	8.582753	0.000355	-0.013704	0.003550	-0.020996	0.035156	-0.850830	-5.723130	29.783738	164.294697
36770		-4.940806	-0.874427	8.546400	0.004320	-0.005349	0.012520	-0.030029	0.021240	-0.837402	-5.715252	29.781399	164.301035
36771		-4.877600	-0.855532	8.505713	0.001316	-0.004030	0.010589	-0.019043	0.033691	-0.846924	-5.710157	29.779730	164.305920
36772		-4.829112	-0.895455	8.533430	-0.000178	0.005353	0.008114	-0.011719	0.036621	-0.837891	-5.706644	29.783240	164.308660
36773		-4.943447	-0.893771	8.519115	0.001599	0.008703	0.010875	-0.017578	0.028564	-0.846191	-5.701853	29.789071	164.313534
36774		-5.027822	-0.781958	8.570172	0.000228	0.002191	0.005976	-0.017578	0.033203	-0.841797	-5.698701	29.790657	164.315077
36775		-4.979379	-0.852437	8.511622	-0.007286	-0.003232	0.002657	-0.009521	0.038818	-0.842285	-5.701200	29.789167	164.314836
36776		-4.928340	-0.902146	8.480475	-0.005879	-0.008439	-0.000700	-0.013672	0.034424	-0.845459	-5.703380	29.784313	164.312692
36777		-4.776856	-0.923774	8.528949	-0.009739	0.001293	-0.001269	-0.018799	0.034912	-0.850830	-5.708826	29.785312	164.310135
36778		-4.885733	-0.977545	8.512946	-0.006326	0.001626	0.004110	-0.018311	0.026123	-0.844727	-5.710020	29.786470	164.310490
36779		-4.976711	-0.833199	8.538923	-0.000182	0.000537	0.002528	-0.019287	0.029541	-0.849365	-5.708600	29.787100	164.309881
36780		-4.938809	-0.853768	8.573452	-0.015074	-0.008755	-0.009552	-0.014893	0.023682	-0.837891	-5.718926	29.781560	164.301944
36781		-5.073014	-0.909579	8.516940	-0.012484	-0.011728	-0.011068	-0.023926	0.025879	-0.843750	-5.728507	29.774450	164.292629
36782		-5.019450	-0.842755	8.569699	-0.017367	-0.022211	-0.012985	-0.019043	0.032715	-0.844727	-5.740820	29.761040	164.283328
36783		-4.973563	-0.861445	8.514116	-0.025894	-0.030400	-0.020663	-0.019287	0.027100	-0.844971	-5.760642	29.742652	164.269402
36784		-4.927283	-0.850864	8.544868	-0.030267	-0.025961	-0.016310	-0.018066	0.031982	-0.841309	-5.781295	29.726907	164.258181
36785		-5.023145	-0.861312	8.493607	-0.024730	-0.032973	-0.024396	-0.020752	0.036133	-0.835693	-5.801557	29.706899	164.241882
36786		-5.037062	-0.877404	8.506691	-0.026742	-0.041518	-0.013347	-0.023193	0.029785	-0.840332	-5.818698	29.682451	164.233660
36787		-5.097462	-0.920177	8.522862	-0.033389	-0.062242	-0.020675	-0.011475	0.030273	-0.847412	-5.841776	29.645914	164.222193
36788		-4.906326	-0.948328	8.464571	-0.028714	-0.068665	-0.013203	-0.013428	0.029297	-0.839355	-5.859077	29.605997	164.215915
36789		-4.630961	-1.056828	8.440634	-0.017245	-0.064513	-0.012097	-0.013916	0.031494	-0.837646	-5.869953	29.568888	164.209564
36790		-4.194880	-1.205466	8.456544	-0.004740	-0.028454	-0.001409	-0.013916	0.025391	-0.837891	-5.871026	29.552578	164.208325
36791		-4.386836	-1.117557	8.579381	0.009039	0.025182	0.010997	-0.013672	0.026367	-0.841064	-5.862336	29.567903	164.210858
36792		-4.831413	-0.771490	8.564992	0.018039	0.057264	0.024673	-0.024658	0.026367	-0.841797	-5.844765	29.601974	164.220949
36793		-4.947078	-0.629792	8.659139	0.000716	0.072675	0.014213	-0.009766	0.040039	-0.845459	-5.841336	29.644429	164.222382
36794		-4.806359	-0.789514	8.592330	-0.017647	0.084395	0.016248	-0.023682	0.034912	-0.839600	-5.847829	29.693472	164.225137
36795		-4.832994	-0.891720	8.601723	-0.026640	0.103726	0.010415	-0.020020	0.025879	-0.846191	-5.862548	29.753427	164.223322
36796		-4.853817	-0.873162	8.602747	-0.034968	0.119998	0.011350	-0.017334	0.040771	-0.838867	-5.881764	29.822476	164.220432
36797		-4.853635	-0.867115	8.675934	-0.044320	0.133513	0.007933	-0.017090	0.030518	-0.836914	-5.908370	29.899180	164.214440
36798		-4.685976	-0.936872	8.815452	-0.051557	0.154125	0.007850	-0.010010	0.035645	-0.841553	-5.939448	29.987468	164.206843
36799		-4.363321	-0.995623	8.736059	-0.062997	0.214193	0.015155	-0.011475	0.029785	-0.840332	-5.977202	30.110614	164.199735
36800		-3.281959	-1.380353	8.983490	-0.051179	0.346005	0.067998	-0.002441	0.029297	-0.846191	-5.994878	30.311829	164.218401
36801		-3.363301	-1.599225	9.400543	-0.051452	0.541395	0.148792	-0.001709	0.032715	-0.839111	-5.992764	30.629411	164.276249
36802		-3.832481	-1.369239	9.596753	-0.079873	0.735958	0.219436	0.005371	0.035400	-0.845215	-5.989042	31.061891	164.368367
36803		-3.042187	-2.344630	9.874317	-0.070272	0.924093	0.344612	0.015869	0.031494	-0.836914	-5.942617	31.609098	164.531314
36804		-1.964544	-3.692606	10.367148	0.027074	1.245237	0.469078	0.030029	0.032959	-0.841309	-5.804731	32.346317	164.758126
36805		-2.213759	-1.830939	11.492440	0.034148	1.733312	0.602158	0.038330	0.039795	-0.843018	-5.626809	33.368950	165.045991
36806		-3.460337	-0.710311	11.883437	-0.032492	2.190702	0.633478	0.055908	0.035156	-0.843506	-5.482691	34.653373	165.332876
36807		-3.719862	-0.551536	12.165075	-0.118454	2.626464	0.760390	0.075195	0.035889	-0.842041	-5.342937	36.192387	165.688610
36808		-3.960321	-1.200284	11.971481	-0.259485	3.027639	0.917334	0.105957	0.029053	-0.833252	-5.215911	37.968121	166.142101
36809		-4.279885	-2.466303	11.571857	-0.243080	3.381042	1.089562	0.143799	0.023926	-0.828857	-4.991331	39.952741	166.717030
36810		-5.829714	-3.348168	11.995079	-0.275753	3.607511	1.309087	0.181152	0.038086	-0.830811	-4.649757	42.075476	167.474740
36811		-7.005611	-5.473794	11.361991	-0.144037	3.599668	1.576785	0.211670	0.033447	-0.825439	-4.033579	44.202608	168.491470
36812		-7.524000	-6.638784	9.996546	0.183909	3.450490	1.885154	0.231201	0.025391	-0.817139	-2.962830	46.242006	169.848010
36813		-8.472794	-6.727163	9.094188	0.547013	3.376312	2.113809	0.261230	0.007813	-0.801025	-1.420849	48.224170	171.517554
36814		-7.123336	-6.873075	12.620835	1.090716	2.992038	2.309950	0.296387	-0.008789	-0.791260	0.719378	49.946946	173.519341
36815		-4.967391	-8.504373	17.599255	1.328449	1.902569	2.159323	0.309570	-0.027588	-0.787109	3.025416	51.000060	175.514782
36816		-3.629466	-4.693478	16.873700	1.007816	1.173485	1.408655	0.317871	-0.038574	-0.785889	4.664531	51.617137	176.872041
36817		0.444560	-6.235670	15.317404	-0.076501	0.317013	0.720725	0.329102	-0.047363	-0.775635	5.160320	51.763472	177.556380
36818		3.565136	-8.880051	11.826076	-0.516378	-0.124665	0.172500	0.328613	-0.048096	-0.777344	4.981055	51.683949	177.702034
36819		3.623639	-8.895755	11.168919	-0.530305	-0.351493	-0.191047	0.325684	-0.041748	-0.770508	4.515254	51.490971	177.494146
36820		2.340033	-7.126339	12.202360	-0.591304	-0.708245	-0.502045	0.322998	-0.034668	-0.763184	3.781586	51.107376	176.985286
36821		1.976035	-5.967518	12.509224	-0.776674	-1.173724	-0.789011	0.310059	-0.038818	-0.771240	2.732726	50.459633	176.205167
36822		2.067241	-5.270114	12.117092	-0.910671	-1.589450	-1.045580	0.309082	-0.025635	-0.766602	1.457303	49.571689	175.218693
36823		1.466989	-4.342702	11.889620	-0.989460	-1.954737	-1.281092	0.294434	-0.025879	-0.778320	0.024908	48.458571	174.071817
36824		0.655858	-3.314089	11.669559	-1.036362	-2.298471	-1.493840	0.280518	-0.014648	-0.775391	-1.493932	47.130884	172.820118
36825		-0.106529	-2.481767	11.361477	-1.058786	-2.597150	-1.671866	0.262451	-0.000488	-0.775146	-3.046444	45.602633	171.513140
36826		-0.981471	-1.727353	11.254299	-1.058390	-2.847779	-1.824431	0.242920	0.010010	-0.788330	-4.579192	43.905052	170.194493
36827		-1.948214	-1.093214	11.173373	-1.027249	-3.047627	-1.936200	0.215576	0.019775	-0.784180	-6.049636	42.059640	168.900989
36828		-2.799947	-0.679198	11.143277	-0.965980	-3.200306	-2.002322	0.193604	0.020508	-0.795898	-7.408670	40.104080	167.671988
36829		-3.742518	-0.158860	11.053210	-0.905014	-3.294890	-2.028001	0.172852	0.023926	-0.794678	-8.650067	38.068010	166.525382
36830		-5.074314	0.286212	11.089842	-0.882983	-3.347343	-2.017567	0.144531	0.037598	-0.810303	-9.784342	35.989540	165.478517
36831		-6.570233	0.341294	10.961311	-0.886988	-3.399930	-1.974117	0.118652	0.049561	-0.805176	-10.828051	33.865890	164.542850
36832		-7.702741	0.248839	10.448035	-0.853230	-3.441485	-1.895756	0.089111	0.053223	-0.805176	-11.753556	31.719336	163.732752
36833		-8.458781	0.467997	9.794806	-0.810347	-3.436624	-1.800671	0.067139	0.057129	-0.813965	-12.570721	29.572364	163.039696
36834		-8.979779	0.981088	9.264047	-0.793901	-3.365036	-1.693530	0.037109	0.053711	-0.806641	-13.303852	27.475779	162.452485
36835		-9.564533	1.531740	9.080133	-0.826320	-3.245314	-1.572886	0.014648	0.060547	-0.808105	-13.995355	25.451537	161.961793
36836		-10.399627	2.183516	8.923579	-0.883479	-3.142842	-1.434705	-0.004150	0.067383	-0.802490	-14.659957	23.503109	161.574217
36837		-11.445611	2.711929	8.516840	-0.923080	-3.049025	-1.321889	-0.033203	0.069580	-0.804932	-15.305202	21.615301	161.268694
36838		-12.637287	2.589918	7.399145	-0.845619	-2.940612	-1.249536	-0.061035	0.072998	-0.795654	-15.877717	19.799692	161.013569
36839		-13.495551	2.249923	5.765994	-0.604934	-2.780215	-1.167176	-0.074219	0.077393	-0.792236	-16.292919	18.079779	160.798734
36840		-14.345595	1.826249	3.927341	-0.254827	-2.519743	-1.053302	-0.088623	0.074951	-0.785889	-16.490715	16.524077	160.617063
36841		-15.298648	1.357873	2.184911	0.102083	-2.173819	-0.893647	-0.105469	0.070068	-0.793701	-16.470512	15.181016	160.471966
36842		-16.473340	0.773433	0.822234	0.365914	-1.787947	-0.708555	-0.127441	0.068604	-0.790039	-16.285373	14.083329	160.365980
36843		-17.415989	0.407109	-0.389991	0.510427	-1.378568	-0.532357	-0.125488	0.059570	-0.796387	-16.009763	13.237078	160.288539
36844		-17.599965	0.325909	-1.427450	0.504272	-0.947656	-0.412736	-0.136230	0.049805	-0.783691	-15.737165	12.649787	160.205565
36845		-17.353574	0.232357	-2.383364	0.406220	-0.469592	-0.392605	-0.135986	0.052246	-0.794922	-15.535307	12.328192	160.055938
36846		-16.851297	-0.088209	-2.902480	0.318352	0.070241	-0.458321	-0.139648	0.045166	-0.791748	-15.408650	12.296591	159.783950
36847		-12.695087	-5.889903	-11.581727	1.229202	1.719011	-0.357833	-0.120117	0.036377	-0.797607	-14.806185	13.193016	159.315727
36848		2.112725	3.209202	1.190187	1.578716	2.823461	0.468477	-0.088135	0.019043	-0.799805	-13.935116	14.826428	159.167926
36849		-14.496237	2.815658	22.717722	1.349434	2.707382	0.576119	-0.065186	0.015381	-0.797607	-13.173065	16.411115	159.121397
36850		-4.436411	3.942217	16.328225	1.116766	1.531463	0.542680	-0.052246	0.003174	-0.801758	-12.498695	17.335477	159.232476
36851		2.543049	5.910052	7.308432	0.864194	1.858941	0.962713	-0.033691	-0.009766	-0.807861	-11.900948	18.492652	159.560329
36852		-4.465191	2.071345	11.097230	0.452677	2.494615	1.066618	-0.013184	-0.011719	-0.798584	-11.532347	20.016077	159.884671
36853		-12.057142	-3.770698	13.476043	0.300681	2.208626	0.817108	0.009033	-0.012695	-0.812988	-11.280047	21.348640	160.105551
36854		-10.262029	-5.388468	9.972530	0.356495	1.779885	0.549630	0.021729	-0.019043	-0.806885	-11.029460	22.409906	160.223809
36855		-8.760451	-5.393726	9.863740	0.545133	1.635157	0.383610	0.036377	-0.019775	-0.808838	-10.699504	23.371240	160.264163
36856		-9.149628	-3.153339	10.760111	0.772159	1.341668	0.381920	0.053467	-0.025391	-0.812012	-10.222379	24.166745	160.344669
36857		-6.182752	0.300328	9.580518	0.742147	1.112148	0.388085	0.063477	-0.034668	-0.810303	-9.746865	24.832901	160.461537
36858		-7.070250	1.225027	10.288407	0.622729	1.015373	0.404727	0.066650	-0.031494	-0.813965	-9.326636	25.444911	160.605537
36859		-8.124211	-0.127951	10.315434	0.497012	0.715899	0.337139	0.084229	-0.037598	-0.811768	-8.980670	25.880762	160.742366
36860		-7.218246	-1.835072	9.328308	0.471722	0.466873	0.309319	0.077881	-0.051270	-0.820557	-8.643577	26.172142	160.889501
36861		-5.627239	-2.007029	9.104550	0.489326	0.313821	0.276783	0.084961	-0.050537	-0.807373	-8.297931	26.373661	161.032524
36862		-4.805135	-1.356371	9.033421	0.527291	0.244443	0.292683	0.081543	-0.060059	-0.812500	-7.921749	26.535887	161.193722
36863		-5.153245	-0.921487	9.274792	0.532750	0.190588	0.309658	0.096191	-0.053223	-0.804932	-7.534915	26.668319	161.371539
36864		-5.348234	-0.574034	9.262420	0.485891	0.151510	0.267323	0.085938	-0.053955	-0.815186	-7.184373	26.773972	161.526980
36865		-5.253034	-0.448646	9.236683	0.414364	0.116496	0.225133	0.092773	-0.063477	-0.809570	-6.885464	26.856430	161.658887
36866		-5.037513	-0.535110	9.140322	0.341226	0.079037	0.184866	0.086914	-0.066406	-0.806641	-6.638062	26.913830	161.768661
36867		-4.787938	-0.605081	9.021160	0.266972	0.081361	0.128133	0.094238	-0.076904	-0.806396	-6.449782	26.968962	161.842152
36868		-4.925018	-0.140960	9.234367	0.186749	0.085596	0.077723	0.101563	-0.074707	-0.803711	-6.321752	27.022626	161.883517
36869		-4.910155	-0.184182	9.098256	0.095685	0.080720	0.029619	0.093506	-0.073242	-0.807129	-6.259923	27.070925	161.894415
36870		-4.674073	-0.595827	9.006880	0.026135	0.083861	-0.011308	0.093750	-0.078369	-0.806396	-6.249663	27.117958	161.879118
36871		-4.640923	-0.838858	8.838544	-0.007617	0.097665	-0.031889	0.094971	-0.076172	-0.804688	-6.265456	27.172066	161.849515
36872		-4.282504	-1.089166	8.709548	-0.039440	0.114312	-0.052317	0.092529	-0.072998	-0.804688	-6.305799	27.233862	161.805767
36873		-4.078976	-1.098677	8.643504	-0.039237	0.144346	-0.068325	0.099854	-0.077393	-0.800049	-6.352035	27.312213	161.749394
36874		-4.264836	-0.987934	8.779691	-0.029118	0.180861	-0.056550	0.108643	-0.080078	-0.808350	-6.390085	27.411576	161.698001
36875		-4.425788	-0.783477	8.859536	-0.034075	0.198874	-0.055845	0.104004	-0.074951	-0.809326	-6.431760	27.521684	161.645479
36876		-4.434890	-0.931327	8.851370	-0.040645	0.232565	-0.057609	0.096680	-0.071045	-0.807861	-6.478773	27.650347	161.589380
36877		-4.872897	-0.960797	8.890864	-0.040939	0.253254	-0.049787	0.112305	-0.067871	-0.811035	-6.524768	27.791719	161.536454
36878		-5.165432	-0.951169	8.973846	-0.051806	0.241104	-0.049212	0.104004	-0.082031	-0.805908	-6.576360	27.925710	161.484747
36879		-5.087885	-1.008263	8.839376	-0.068406	0.205613	-0.046439	0.111328	-0.067627	-0.816162	-6.635818	28.040112	161.437116
36880		-4.948267	-0.926413	8.746730	-0.065351	0.192845	-0.030811	0.121338	-0.072754	-0.810791	-6.688248	28.147773	161.400507
36881		-4.784553	-1.114771	8.626384	-0.054534	0.172908	-0.025073	0.120361	-0.084717	-0.811035	-6.732375	28.244929	161.368826
36882		-4.573064	-0.894720	8.688558	-0.061684	0.169024	-0.024728	0.114258	-0.068115	-0.809570	-6.780216	28.339393	161.337702
36883		-4.192918	-0.576758	8.749902	-0.093036	0.186852	-0.044255	0.121094	-0.072998	-0.806641	-6.853032	28.443123	161.292278
36884		-4.054909	-0.800261	8.764957	-0.133142	0.244004	-0.068390	0.112793	-0.069580	-0.810791	-6.958379	28.577156	161.226669
36885		-4.231239	-1.002446	8.776383	-0.143598	0.298059	-0.080041	0.127930	-0.076172	-0.809570	-7.075961	28.741452	161.148666
36886		-4.470318	-1.064436	8.610800	-0.153402	0.336378	-0.085076	0.130615	-0.069092	-0.811035	-7.202484	28.926577	161.063894
36887		-4.696549	-1.435012	8.507447	-0.129429	0.355572	-0.077208	0.128174	-0.067871	-0.810059	-7.314314	29.123455	160.981910
36888		-4.827801	-1.652174	8.302999	-0.091587	0.364092	-0.024399	0.133057	-0.061768	-0.801514	-7.388314	29.328500	160.933211
36889		-4.958658	-1.681711	8.264115	-0.032986	0.344032	0.021235	0.140869	-0.064209	-0.801758	-7.413815	29.525906	160.915526
36890		-4.962723	-1.569497	8.313066	0.011881	0.329364	0.057124	0.133789	-0.063232	-0.802979	-7.401239	29.717201	160.922640
36891		-4.966981	-1.402117	8.477094	0.038053	0.312147	0.080966	0.129639	-0.065674	-0.808105	-7.365378	29.900898	160.946763
36892		-5.100724	-1.241923	8.435740	0.054003	0.294356	0.100152	0.135742	-0.066162	-0.806152	-7.312894	30.075441	160.985356
36893		-4.934406	-1.062318	8.437735	0.066539	0.278859	0.122417	0.142090	-0.070801	-0.808105	-7.245266	30.243193	161.039983
36894		-4.898248	-1.129484	8.419296	0.076189	0.281134	0.143704	0.147705	-0.072021	-0.805420	-7.164526	30.413270	161.108965
36895		-4.897246	-1.033752	8.385846	0.087709	0.287869	0.159962	0.147217	-0.066895	-0.799805	-7.071915	30.588674	161.188360
36896		-5.126230	-0.972636	8.494916	0.074401	0.288786	0.162452	0.159668	-0.075439	-0.808594	-6.985397	30.764233	161.269969
36897		-5.220076	-0.997601	8.381668	0.064691	0.273501	0.147689	0.152832	-0.071777	-0.807373	-6.908672	30.930406	161.343288
36898		-5.146845	-0.953955	8.450281	0.041251	0.270576	0.125592	0.148926	-0.071045	-0.805420	-6.852169	31.092895	161.402707
36899		-5.245895	-0.950610	8.311585	0.031750	0.259543	0.113751	0.157715	-0.068848	-0.801025	-6.804726	31.248688	161.455225
36900		-5.090189	-1.007522	8.279832	0.022868	0.260304	0.106062	0.159180	-0.073730	-0.796631	-6.764549	31.403925	161.502965
36901		-5.015626	-1.228590	8.246935	0.034737	0.280937	0.123767	0.160889	-0.079590	-0.804688	-6.712290	31.572496	161.560943
36902		-5.080927	-1.278879	8.259224	0.054942	0.298729	0.143629	0.166016	-0.067139	-0.799072	-6.641622	31.752025	161.631307
36903		-5.202251	-1.190576	8.296873	0.071844	0.301892	0.171934	0.164551	-0.069336	-0.806152	-6.551263	31.935566	161.720638
36904		-5.421583	-0.913112	8.297733	0.073939	0.297526	0.176246	0.166992	-0.077881	-0.800537	-6.457182	32.116346	161.813912
36905		-5.263566	-0.909225	8.289310	0.064800	0.288187	0.167798	0.166260	-0.064209	-0.793457	-6.370761	32.291578	161.902534
36906		-5.288194	-0.788931	8.409836	0.051688	0.300842	0.156732	0.177734	-0.076416	-0.795410	-6.295581	32.472776	161.983405
36907		-5.123754	-0.846094	8.512359	0.030597	0.317427	0.135653	0.177002	-0.082275	-0.799561	-6.240660	32.662456	162.049022
36908		-5.182301	-0.702782	8.674116	0.001406	0.359394	0.111255	0.178467	-0.077393	-0.802734	-6.212439	32.874051	162.095511
36909		-5.144867	-0.822142	8.618943	-0.040571	0.410426	0.092500	0.185791	-0.077393	-0.805176	-6.217290	33.113957	162.125475
36910		-5.129734	-1.024056	8.601760	-0.058951	0.477094	0.108543	0.184326	-0.077148	-0.792969	-6.228978	33.392420	162.161647
36911		-5.276169	-0.827580	8.594722	-0.086950	0.546120	0.115464	0.200928	-0.073242	-0.797363	-6.257060	33.711033	162.197212
36912		-5.293401	-0.676145	8.705408	-0.118763	0.623372	0.105886	0.194824	-0.068604	-0.792236	-6.309908	34.072669	162.220426
36913		-5.069846	-1.158428	8.784020	-0.151518	0.720564	0.133124	0.204102	-0.073975	-0.793945	-6.375472	34.491766	162.254442
36914		-4.731139	-1.212541	8.942444	-0.156890	0.861488	0.156743	0.210449	-0.080078	-0.791504	-6.440770	34.992274	162.293643
36915		-4.895007	-1.165517	9.069901	-0.169533	1.042277	0.187550	0.214355	-0.062256	-0.785645	-6.509393	35.598053	162.339383
36916		-4.709225	-1.266440	9.251450	-0.163297	1.232825	0.221897	0.233887	-0.064941	-0.786377	-6.568840	36.314260	162.393648
36917		-4.312776	-1.233894	9.446207	-0.179579	1.482131	0.261893	0.243652	-0.069580	-0.786865	-6.632814	37.175291	162.455225
36918		-4.243213	-1.266893	9.671861	-0.177511	1.781735	0.300982	0.260010	-0.067139	-0.766113	-6.692943	38.209227	162.519541
36919		-4.038009	-1.474126	10.081907	-0.181376	2.103477	0.343450	0.274414	-0.071533	-0.778076	-6.752761	39.429271	162.586586
36920		-4.150085	-1.380758	10.511759	-0.188859	2.503900	0.351072	0.293945	-0.073975	-0.763428	-6.835030	40.877581	162.623324
36921		-4.082200	-1.739775	11.018962	-0.189627	2.915261	0.386476	0.314941	-0.071289	-0.756592	-6.925895	42.562319	162.646944
36922		-3.888861	-1.512211	11.052939	-0.205017	3.406475	0.465295	0.350342	-0.063721	-0.747803	-7.016600	44.531965	162.682527
36923		-4.453521	-2.688297	11.054421	-0.168018	3.892294	0.637464	0.376709	-0.072021	-0.736084	-7.020877	46.789696	162.808256
36924		-4.902549	-3.147797	10.927261	-0.093602	4.357000	0.910246	0.416504	-0.079834	-0.724854	-6.833265	49.330713	163.129475
36925		-5.798543	-3.120286	10.518835	-0.002789	4.758126	1.209345	0.448486	-0.079102	-0.692871	-6.377219	52.118025	163.717884
36926		-6.370781	-2.073959	10.051077	0.016670	5.192268	1.480788	0.487061	-0.087402	-0.683838	-5.644874	55.165533	164.612276
36927		-8.263013	-1.663340	10.469933	-0.109967	5.598799	1.685401	0.519775	-0.091309	-0.645264	-4.680251	58.446766	165.837426
36928		-9.850707	-1.002737	11.396018	-0.441549	5.834440	1.816603	0.570068	-0.100098	-0.622559	-3.542485	61.856026	167.437649
36929		-9.238947	-1.737631	11.014781	-0.783060	5.862600	1.985329	0.608887	-0.110596	-0.590088	-2.037252	65.266195	169.616705
36930		-11.017583	-2.755246	11.012684	-0.932476	5.924933	2.160488	0.638916	-0.120850	-0.557861	0.212140	68.681488	172.637646
36931		-12.180211	-5.308824	10.992097	-0.803404	5.676877	2.374865	0.684082	-0.135254	-0.517090	3.865933	71.885000	177.004127
36932		-12.853575	-7.315963	9.778414	-0.364153	5.335109	2.602699	0.705078	-0.152344	-0.482666	9.812718	74.747242	-176.574776
36933		-10.746280	-5.673982	9.214691	0.172248	4.761536	2.918953	0.723877	-0.172363	-0.445068	19.042801	76.979585	-167.163172
36934		-8.611305	-0.395623	16.233254	0.077535	4.021948	3.168214	0.743408	-0.197510	-0.420410	31.067228	78.306875	-154.904332
36935		-16.428961	-0.168145	20.501217	-0.859365	2.990717	2.889659	0.756836	-0.218750	-0.395508	42.137956	78.697844	-143.107819
36936		-13.503716	-5.109874	21.185094	-1.708736	1.130064	2.229230	0.755615	-0.224365	-0.387451	47.834634	78.253583	-136.297376
36937		-4.919135	-11.314637	14.048216	-1.515321	-0.124782	1.662456	0.770020	-0.244629	-0.388184	49.622906	77.491228	-133.581756
36938		-2.215985	-12.048388	9.872476	-0.531122	-0.665854	1.187400	0.761963	-0.251465	-0.391602	49.961970	76.726955	-132.924069
36939		-0.966907	-9.306803	8.287064	0.270673	-0.883985	0.679924	0.768799	-0.258301	-0.399414	49.540044	76.103493	-133.518815
36940		-0.847344	-6.201899	8.130859	0.534245	-1.009721	0.064032	0.767334	-0.277344	-0.394287	48.204985	75.696878	-135.213262
36941		-1.168182	-4.378863	8.250124	0.376905	-1.146948	-0.593514	0.771484	-0.275391	-0.399902	45.627207	75.497146	-138.098534
36942		-1.470275	-3.925199	8.224087	0.123206	-1.321558	-1.176754	0.786621	-0.268555	-0.407227	41.798631	75.417183	-142.128990
36943		-1.780709	-4.118461	8.176138	0.020733	-1.531369	-1.628009	0.791748	-0.280273	-0.408447	36.891697	75.329845	-147.213151
36944		-2.488576	-3.703943	8.473066	0.074679	-1.789391	-1.942953	0.807617	-0.270020	-0.409912	31.257295	75.105285	-153.086665
36945		-3.480486	-2.901993	8.894214	0.151076	-2.110743	-2.179194	0.816162	-0.264160	-0.425049	25.137244	74.627142	-159.516517
36946		-4.522343	-2.030077	9.062037	0.179260	-2.509664	-2.365334	0.836426	-0.256592	-0.435791	18.881552	73.801450	-166.125755
36947		-5.319072	-1.257526	8.628452	0.176361	-2.936157	-2.499888	0.843506	-0.244141	-0.452881	12.878581	72.570227	-172.502236
36948		-5.476299	-0.813061	7.798566	0.159191	-3.301901	-2.561731	0.860840	-0.243408	-0.468994	7.559249	70.967393	-178.200101
36949		-5.260510	-0.685390	6.899636	0.179362	-3.539803	-2.546211	0.878906	-0.236572	-0.496338	3.131718	69.077782	176.979720
36950		-5.282614	-0.445899	6.608452	0.227982	-3.642967	-2.458877	0.912598	-0.226563	-0.531250	-0.361484	67.024275	173.071089
36951		-5.938219	-0.070662	6.893418	0.248311	-3.688881	-2.341231	0.935059	-0.226563	-0.562500	-3.089835	64.865048	169.927233
36952		-6.761635	0.378525	7.385649	0.211377	-3.737920	-2.193392	0.965088	-0.223633	-0.595703	-5.198876	62.637711	167.438690
36953		-7.586652	0.767674	7.754939	0.083063	-3.798641	-2.022073	0.994385	-0.213135	-0.650879	-6.857911	60.345319	165.496002
36954		-8.213223	0.696296	7.804695	-0.101892	-3.840026	-1.842144	1.031738	-0.207275	-0.697754	-8.188874	58.025647	164.011951
36955		-9.273816	0.230502	7.994480	-0.271493	-3.865303	-1.667986	1.068848	-0.199463	-0.777832	-9.280088	55.685137	162.893600
36956		-11.068442	-0.273918	8.165280	-0.372340	-3.944227	-1.523498	1.114258	-0.189453	-0.852295	-10.165104	53.310109	162.065985
36957		-12.701703	-0.968498	8.070691	-0.386290	-4.090917	-1.435650	1.150146	-0.179932	-0.969482	-10.877948	50.848904	161.441831
36958		-14.002155	-1.564366	7.696639	-0.304803	-4.263683	-1.388655	1.166260	-0.155762	-1.093750	-11.414702	48.298056	160.963337
36959		-14.772946	-1.829716	7.029583	-0.146084	-4.392266	-1.371559	1.172852	-0.124268	-1.238770	-11.783076	45.668450	160.572721
36960		-15.393313	-1.570284	6.415418	-0.018334	-4.448759	-1.359407	1.137207	-0.093506	-1.396973	-12.024252	43.013428	160.239553
36961		-15.548169	-1.089904	5.889737	0.036561	-4.438394	-1.332671	1.063721	-0.061523	-1.563721	-12.194383	40.360667	159.950800
36962		-14.974075	-0.778385	5.510426	0.019290	-4.371876	-1.279536	0.962646	-0.035645	-1.705322	-12.332257	37.756971	159.710938
36963		-13.760755	-0.599217	5.298874	-0.037961	-4.217310	-1.179215	0.830811	-0.004883	-1.833252	-12.459276	35.246155	159.532299
36964		-12.896518	-0.541959	5.561628	-0.120550	-4.015407	-1.046230	0.681641	0.021973	-1.927490	-12.585786	32.870014	159.425752
36965		-13.099084	-0.809650	6.144135	-0.206546	-3.844484	-0.920240	0.509521	0.051270	-1.997559	-12.724244	30.599903	159.385560
36966		-13.670594	-1.233338	6.513413	-0.275928	-3.755424	-0.831648	0.349854	0.064697	-2.042480	-12.874394	28.395860	159.397156
36967		-14.009554	-1.387497	6.360152	-0.314786	-3.694437	-0.793695	0.180420	0.074463	-2.053467	-13.038647	26.226067	159.430013
36968		-14.350499	-1.109646	5.698021	-0.361310	-3.605375	-0.794175	0.016846	0.101563	-2.045898	-13.231971	24.110722	159.456960
36969		-14.712737	-0.619491	4.701869	-0.424602	-3.457192	-0.831970	-0.127930	0.117920	-2.032471	-13.477820	22.068896	159.447799
36970		-15.198046	-0.014041	3.703834	-0.497778	-3.239762	-0.874536	-0.268066	0.128174	-1.993408	-13.780676	20.146572	159.392615
36971		-15.720743	0.369534	2.656137	-0.544248	-2.994289	-0.919587	-0.378906	0.147217	-1.947998	-14.126282	18.350699	159.286955
36972		-15.958311	0.338802	1.716101	-0.499689	-2.709570	-0.916891	-0.472656	0.151611	-1.895508	-14.450746	16.716301	159.152878
36973		-16.672555	0.405874	1.090858	-0.357552	-2.425306	-0.837784	-0.570801	0.154785	-1.839111	-14.688009	15.247515	159.031080
36974		-16.830879	0.739503	0.387292	-0.168538	-2.162936	-0.696630	-0.640869	0.161621	-1.801025	-14.801210	13.947153	158.956157
36975		-16.604785	1.693066	-0.801698	-0.023583	-1.821845	-0.532520	-0.703125	0.157227	-1.764893	-14.820721	12.857700	158.925116
36976		-16.371184	2.777946	-2.062396	-0.052030	-1.359426	-0.391241	-0.756592	0.157715	-1.743408	-14.852512	12.047057	158.905492
36977		-16.420656	2.940791	-3.027845	-0.153610	-0.784394	-0.276650	-0.780518	0.170898	-1.717529	-14.947524	11.570548	158.864955
36978		-11.380410	-6.138866	-10.756181	0.477734	0.546097	-0.242769	-0.788330	0.167236	-1.723145	-14.716395	11.837090	158.643884
36979		-7.966629	4.604296	-12.242409	2.290616	2.392865	0.459792	-0.766846	0.132568	-1.749023	-13.420525	13.230354	158.562044
36980		-7.945442	8.956201	13.003491	1.397114	3.588319	0.572207	-0.735352	0.112061	-1.793457	-12.654916	15.306998	158.411059
36981		-10.705950	6.972516	24.991907	0.958023	2.399948	0.477949	-0.705078	0.104492	-1.814453	-12.112975	16.708632	158.380276
36982		-0.314858	6.454197	11.945630	0.750954	1.828772	0.876406	-0.682373	0.092041	-1.836914	-11.595160	17.837028	158.667486
36983		1.408014	4.646889	6.912106	0.445181	2.601849	1.360466	-0.648438	0.097656	-1.859131	-11.180195	19.452252	159.161162
36984		-9.800991	-3.492364	12.866575	0.159516	3.027631	1.156551	-0.605713	0.106445	-1.888916	-10.969528	21.281756	159.497322
36985		-15.694689	-8.512680	13.101345	0.258250	2.450846	0.669316	-0.582520	0.106445	-1.905029	-10.775028	22.733075	159.615702
36986		-14.795356	-8.628946	10.961401	0.768864	1.867549	0.533310	-0.547607	0.092041	-1.921631	-10.287944	23.840752	159.727731
36987		-10.484615	-2.840615	10.265647	0.919839	1.422632	0.367882	-0.529541	0.078613	-1.935303	-9.730298	24.680553	159.797655
36988		-6.434776	2.794423	10.584829	0.780693	1.201231	0.380274	-0.514404	0.072266	-1.950684	-9.234220	25.395160	159.907562
36989		-6.972643	3.198068	10.947584	0.525279	1.019357	0.370211	-0.501709	0.059326	-1.955078	-8.875731	26.005997	160.035654
36990		-7.288327	-0.625428	9.312107	0.362918	0.762276	0.290495	-0.485596	0.058350	-1.960693	-8.618159	26.462868	160.142842
36991		-6.222018	-3.307146	8.470896	0.383497	0.579982	0.223697	-0.479492	0.057129	-1.967773	-8.358371	26.811270	160.227467
36992		-5.625309	-2.386058	8.852313	0.488099	0.451607	0.240508	-0.466797	0.048340	-1.974854	-8.026848	27.086925	160.336934
36993		-5.013573	-1.351818	8.964610	0.558238	0.322203	0.302663	-0.469482	0.031494	-1.972900	-7.630700	27.294343	160.499426
36994		-5.402173	-0.991013	8.863424	0.572021	0.237189	0.297667	-0.470947	0.031494	-1.985352	-7.223244	27.451080	160.667898
36995		-5.208971	-0.317778	9.001273	0.534553	0.170806	0.257402	-0.459961	0.018555	-1.980225	-6.846027	27.567235	160.817030
36996		-4.913663	-0.043091	9.065454	0.470975	0.132598	0.233353	-0.470459	0.009277	-1.985107	-6.510104	27.658199	160.954729
36997		-5.104773	-0.251187	9.168325	0.402293	0.137598	0.213799	-0.458984	0.005859	-1.983887	-6.219259	27.751137	161.080003
36998		-5.336075	-0.248559	9.166356	0.316739	0.127315	0.173741	-0.457031	-0.005371	-1.990723	-5.988470	27.834232	161.180927
36999		-5.306881	-0.142007	9.098904	0.237896	0.103966	0.142871	-0.459961	-0.000244	-1.988037	-5.811296	27.902941	161.263767
37000		-5.367934	-0.269744	9.199565	0.151151	0.082259	0.104831	-0.463867	-0.009766	-1.990234	-5.694295	27.955845	161.323859
37001		-4.964144	-0.757843	8.952269	0.091404	0.064507	0.074624	-0.459717	-0.010254	-1.993408	-5.620164	27.997915	161.365589
37002		-5.046448	-1.161083	8.735164	0.068069	0.058619	0.053194	-0.459717	-0.009766	-1.995605	-5.565548	28.034307	161.394038
37003		-5.112190	-0.964238	8.760967	0.048816	0.045582	0.019163	-0.460205	-0.011963	-2.000244	-5.532014	28.062455	161.401233
37004		-4.891625	-1.106551	8.706590	0.035656	0.033928	0.002249	-0.452148	-0.010742	-1.998779	-5.510683	28.081926	161.398363
37005		-4.806176	-0.929806	8.869273	0.032118	0.035000	-0.008430	-0.454102	-0.013916	-1.994629	-5.494800	28.102533	161.388400
37006		-4.738373	-0.798872	8.958324	0.023137	0.035147	-0.005858	-0.462158	-0.014160	-2.000977	-5.483145	28.122256	161.380224
37007		-4.633613	-0.649792	8.872532	0.019858	0.050746	-0.000275	-0.454590	-0.019287	-1.996582	-5.472265	28.152292	161.374564
37008		-4.543602	-0.688635	8.807320	0.028600	0.092346	0.033841	-0.452881	-0.018066	-1.994629	-5.447024	28.206807	161.388544
37009		-4.638706	-0.804755	8.750797	0.022000	0.122051	0.050443	-0.455078	-0.013672	-2.001953	-5.421443	28.280262	161.411357
37010		-4.489375	-0.778374	8.693598	0.029551	0.149114	0.072464	-0.459473	-0.016357	-2.003418	-5.385365	28.369230	161.446965
37011		-4.563476	-0.989294	8.712263	0.028458	0.176200	0.084225	-0.455078	-0.014893	-2.007568	-5.347093	28.475353	161.488528
37012		-4.820629	-0.990544	8.660120	0.031760	0.171834	0.084228	-0.442383	-0.020508	-2.009766	-5.306551	28.577866	161.530603
37013		-4.846188	-0.645197	8.664635	0.013395	0.159692	0.070173	-0.443604	-0.015381	-2.010986	-5.280577	28.673778	161.564255
37014		-4.525941	-0.720066	8.587868	0.000521	0.157201	0.061612	-0.438232	-0.023438	-2.004395	-5.264366	28.766716	161.592683
37015		-4.520563	-0.879904	8.578410	-0.001426	0.175526	0.058729	-0.430176	-0.015137	-2.005127	-5.250763	28.871040	161.618069
37016		-4.675537	-0.719081	8.650349	0.003509	0.189892	0.061071	-0.435059	-0.012939	-2.007568	-5.233812	28.982590	161.644301
37017		-4.846068	-0.723346	8.567213	-0.002111	0.188702	0.052767	-0.431885	-0.016602	-2.009521	-5.222731	29.094099	161.665124
37018		-4.937366	-0.741438	8.579726	-0.004407	0.173718	0.055080	-0.426758	-0.014648	-2.011475	-5.211610	29.196097	161.688519
37019		-4.882813	-0.806280	8.443715	-0.001875	0.157527	0.051138	-0.431641	-0.009766	-2.012695	-5.199893	29.289731	161.710228
37020		-4.507047	-0.887735	8.393167	0.004811	0.165363	0.064469	-0.421387	-0.012939	-2.006836	-5.180118	29.387439	161.740364
37021		-4.255621	-1.126059	8.345526	0.021143	0.196828	0.068138	-0.417969	-0.005371	-2.012207	-5.150759	29.504360	161.771001
37022		-4.374581	-0.847469	8.498081	0.044491	0.251112	0.091192	-0.413574	-0.014160	-2.008057	-5.101879	29.652341	161.813821
37023		-4.906441	-0.680158	8.539511	0.049724	0.279975	0.097324	-0.408447	-0.013184	-2.012207	-5.048768	29.818126	161.859079
37024		-5.218270	-0.453399	8.607448	0.038414	0.268234	0.091363	-0.406494	-0.018311	-2.012939	-5.003384	29.975823	161.901456
37025		-5.260899	-0.559831	8.643091	0.005822	0.246691	0.073838	-0.393555	-0.013672	-2.014160	-4.981783	30.121388	161.933569
37026		-5.151415	-0.541641	8.634162	-0.011804	0.232920	0.051995	-0.396973	-0.016602	-2.020508	-4.976898	30.256940	161.952254
37027		-5.132979	-0.503964	8.566944	-0.039582	0.225516	0.027853	-0.394531	-0.025391	-2.017822	-4.995845	30.388134	161.955296
37028		-4.840760	-0.657668	8.486106	-0.061539	0.230986	0.007404	-0.388672	-0.020264	-2.024658	-5.034313	30.520359	161.944522
37029		-4.445546	-1.019612	8.325457	-0.060245	0.265434	0.018794	-0.391602	-0.019043	-2.020752	-5.069407	30.673879	161.939059
37030		-4.426391	-1.290857	8.330600	-0.014060	0.321384	0.057722	-0.380859	-0.009277	-2.028320	-5.066439	30.860234	161.956205
37031		-4.691228	-1.094409	8.389315	0.025140	0.367307	0.105628	-0.374512	-0.011719	-2.026123	-5.026010	31.076245	162.002536
37032		-4.726176	-1.010692	8.510275	0.034660	0.407135	0.123170	-0.368652	-0.008789	-2.026123	-4.974819	31.314795	162.058680
37033		-4.972789	-0.871700	8.635945	0.046919	0.447071	0.128669	-0.359131	-0.010010	-2.019043	-4.915612	31.577383	162.116479
37034		-5.314212	-0.533477	8.686075	0.023518	0.472741	0.124446	-0.350098	-0.014404	-2.034912	-4.871463	31.853358	162.170545
37035		-5.255690	-0.614830	8.663369	-0.013089	0.488256	0.101232	-0.333496	-0.007813	-2.030762	-4.856783	32.138045	162.208300
37036		-5.221788	-0.703124	8.709541	-0.044112	0.523127	0.082142	-0.324463	-0.010986	-2.035889	-4.867454	32.440705	162.231421
37037		-5.069128	-0.922953	8.635039	-0.060823	0.563802	0.090356	-0.318115	-0.006836	-2.032471	-4.886005	32.767984	162.257620
37038		-5.121683	-0.988736	8.635716	-0.055176	0.634362	0.114827	-0.310791	-0.006104	-2.036621	-4.894219	33.135752	162.296499
37039		-5.261940	-0.797886	8.580625	-0.057326	0.683094	0.143995	-0.301270	-0.008545	-2.040039	-4.894140	33.533733	162.352462
37040		-5.047087	-0.777417	8.640305	-0.064236	0.754411	0.164570	-0.287109	-0.007813	-2.030273	-4.891848	33.972466	162.418775
37041		-5.020050	-0.907922	8.663073	-0.081064	0.878473	0.173164	-0.264648	0.002930	-2.040771	-4.899492	34.483381	162.483896
37042		-4.965348	-0.979450	8.767107	-0.076250	1.000452	0.213455	-0.245605	0.004883	-2.045166	-4.891636	35.064963	162.570323
37043		-4.670368	-0.672841	8.743728	-0.073973	1.197392	0.241437	-0.227783	0.010254	-2.040771	-4.876852	35.761210	162.665240
37044		-5.062204	-0.248279	9.018257	-0.123174	1.385037	0.226190	-0.194580	0.011719	-2.042969	-4.901653	36.562956	162.738994
37045		-4.936959	-0.281864	9.224628	-0.170732	1.607552	0.200046	-0.169189	0.013916	-2.042480	-4.972495	37.491289	162.780175
37046		-4.622494	-0.630469	9.445179	-0.201594	1.851306	0.189384	-0.131348	0.023682	-2.042236	-5.075383	38.557452	162.797006
37047		-4.539641	-0.803838	9.638121	-0.217118	2.125874	0.207075	-0.093506	0.023438	-2.044434	-5.191762	39.781923	162.806230
37048		-4.568606	-1.029130	9.722786	-0.226658	2.447144	0.224362	-0.056152	0.023438	-2.049805	-5.321423	41.189921	162.803086
37049		-4.744140	-1.363586	10.046321	-0.222386	2.784836	0.238017	0.009521	0.032715	-2.033447	-5.461214	42.791799	162.781323
37050		-4.677029	-0.984602	10.356613	-0.257211	3.158795	0.274324	0.070801	0.033203	-2.027344	-5.625782	44.608371	162.753192
37051		-4.326258	-1.337409	10.597431	-0.300944	3.592855	0.370730	0.137207	0.050537	-2.020264	-5.791374	46.678148	162.759721
37052		-4.329573	-1.790447	10.596413	-0.319522	4.131750	0.519467	0.206055	0.036377	-1.998779	-5.913902	49.063462	162.838338
37053		-4.268762	-3.862742	10.699682	-0.189844	4.688976	0.823139	0.291260	0.055908	-1.982422	-5.786661	51.784139	163.141672
37054		-5.609538	-4.166161	10.948004	0.037228	5.214246	1.202547	0.384521	0.050537	-1.959473	-5.230109	54.824069	163.806130
37055		-7.028859	-3.362908	10.825923	0.170761	5.778497	1.583567	0.495850	0.041260	-1.913818	-4.176795	58.198001	164.948781
37056		-9.206616	-2.946611	11.311837	0.175340	6.234019	1.838914	0.595703	0.032959	-1.866699	-2.621229	61.826442	166.625270
37057		-10.940751	-2.054716	11.899612	-0.065730	6.544505	1.997482	0.702637	0.012939	-1.821533	-0.554718	65.606683	168.968508
37058		-11.101113	-3.359873	11.438898	-0.247959	6.559001	2.186342	0.802002	0.017578	-1.755615	2.474433	69.345011	172.397261
37059		-13.870570	-2.757069	12.485327	-0.284481	6.439367	2.329578	0.891357	0.007813	-1.681885	7.101125	72.912995	177.454225
37060		-10.905543	-3.684761	9.303947	-0.057952	6.173444	2.538355	0.978027	-0.010254	-1.616943	14.635359	76.120337	-174.699622
37061		-10.952695	-3.865483	8.869381	0.250230	6.070222	2.646957	1.050781	-0.032715	-1.536133	26.720006	78.853933	-162.475430
37062		-9.098451	-2.781892	7.431865	0.387156	5.772040	2.836211	1.104004	-0.061768	-1.441895	44.975793	80.606332	-144.157251
37063		-6.665201	-0.323196	8.335825	0.120821	5.574812	3.028075	1.156494	-0.093750	-1.372070	67.470536	80.948394	-121.447602
37064		-8.301837	3.516922	17.866107	-1.093467	5.104266	3.058479	1.185547	-0.099609	-1.302979	86.183384	79.895301	-101.843009
37065		-25.014384	-2.047511	23.711598	-2.597713	3.628177	2.336428	1.205811	-0.094727	-1.243896	95.504466	78.523174	-90.842399
37066		-16.446705	-12.008272	21.224043	-2.667178	0.887386	1.740923	1.184082	-0.074463	-1.216553	95.894888	77.481924	-88.883294
37067		-12.362131	-15.459445	16.598842	-1.344422	-1.024968	1.161648	1.115479	-0.052979	-1.209717	92.329032	76.864282	-91.751595
37068		-5.976497	-12.774744	11.483491	0.113578	-2.206513	0.540167	1.053467	-0.058105	-1.215332	87.051108	76.549537	-97.243766
37069		-2.051481	-7.991462	8.329964	0.834886	-2.630837	-0.161846	0.979004	-0.054932	-1.218750	81.211148	76.492087	-103.741576
37070		0.050193	-4.798890	6.530577	0.871304	-2.656953	-0.896765	0.919922	-0.041992	-1.219238	75.016560	76.683601	-110.624959
37071		0.201292	-3.461392	5.925624	0.613510	-2.536250	-1.525117	0.846924	-0.030273	-1.228271	68.242715	77.059099	-117.941671
37072		-0.717708	-2.858672	5.805214	0.347154	-2.451830	-1.969156	0.778809	-0.004395	-1.229980	60.672419	77.474169	-125.908412
37073		-2.003580	-2.026403	6.082571	0.147670	-2.492140	-2.220591	0.721680	0.015869	-1.229492	52.095621	77.745439	-134.776099
37074		-3.048092	-1.694846	6.779491	0.015530	-2.635921	-2.385033	0.665039	0.035645	-1.225586	42.718886	77.730824	-144.382135
37075		-4.383874	-1.242110	7.538774	0.002951	-2.907206	-2.464038	0.601563	0.054199	-1.228760	33.029283	77.279727	-154.307853
37076		-5.964045	-0.626228	8.364874	0.000342	-3.286132	-2.494901	0.536133	0.074219	-1.224365	23.838496	76.302502	-163.749462
37077		-7.726644	-0.076746	8.743061	-0.021351	-3.768164	-2.498713	0.463379	0.081543	-1.237549	15.741014	74.747494	-172.098654
37078		-8.429014	0.373079	8.389842	-0.040318	-4.284315	-2.463580	0.378174	0.100342	-1.232666	9.184157	72.652210	-178.906611
37079		-8.014741	0.754121	7.463882	-0.062282	-4.676692	-2.406815	0.293945	0.104004	-1.229492	4.135870	70.141878	175.805528
37080		-7.233449	1.038980	6.419929	-0.095406	-4.870466	-2.294159	0.219971	0.103760	-1.225830	0.410502	67.404353	171.866580
37081		-6.757277	1.360392	5.905673	-0.151684	-4.861305	-2.128172	0.131348	0.104980	-1.210693	-2.321499	64.590944	168.971479
37082		-6.864329	1.739531	6.040842	-0.256557	-4.751714	-1.949254	0.060791	0.101807	-1.201904	-4.363527	61.807552	166.846575
37083		-7.715848	1.824136	6.606654	-0.405992	-4.612562	-1.755978	-0.011230	0.106934	-1.181152	-5.951196	59.076945	165.288584
37084		-8.657292	1.372377	7.153661	-0.536686	-4.513418	-1.572064	-0.072266	0.112061	-1.167236	-7.207971	56.404618	164.163755
37085		-9.588603	0.686636	7.687299	-0.571684	-4.466243	-1.405118	-0.137451	0.110107	-1.135986	-8.191808	53.752675	163.362787
37086		-10.507368	0.097534	8.342887	-0.540952	-4.448711	-1.266166	-0.189697	0.114014	-1.115234	-8.941257	51.123993	162.805720
37087		-11.831597	-0.269672	9.127980	-0.492002	-4.479912	-1.166380	-0.240967	0.109131	-1.094238	-9.519728	48.474966	162.416654
37088		-12.940959	-0.568189	9.586482	-0.471606	-4.587451	-1.118238	-0.294678	0.110596	-1.062500	-9.990300	45.775843	162.140324
37089		-13.216481	-1.014324	9.527757	-0.467377	-4.691200	-1.091595	-0.342041	0.105469	-1.033936	-10.397321	43.011489	161.940406
37090		-12.952955	-1.409193	9.366977	-0.448158	-4.716150	-1.080187	-0.395752	0.095459	-1.006104	-10.753578	40.241469	161.787376
37091		-13.172140	-1.520542	9.541728	-0.440055	-4.695106	-1.052646	-0.443359	0.104736	-0.975830	-11.074128	37.477766	161.677343
37092		-13.462179	-1.469200	9.766657	-0.484382	-4.680500	-1.021722	-0.485107	0.105225	-0.944336	-11.388708	34.733180	161.610759
37093		-13.572112	-1.454735	9.850397	-0.585804	-4.670797	-0.999672	-0.534180	0.101563	-0.924072	-11.741700	31.988722	161.578138
37094		-13.772469	-1.728269	9.444655	-0.694886	-4.628244	-0.994570	-0.589844	0.100342	-0.883057	-12.143997	29.276193	161.565712
37095		-14.304165	-1.682657	8.939120	-0.779020	-4.521223	-1.026921	-0.625977	0.095947	-0.855713	-12.601533	26.612425	161.540658
37096		-15.283344	-1.277856	8.474191	-0.851172	-4.368729	-1.115144	-0.671143	0.099121	-0.817627	-13.119090	24.029659	161.465764
37097		-16.887331	-0.443659	8.157731	-0.922595	-4.232494	-1.239051	-0.711670	0.094238	-0.784180	-13.701900	21.499286	161.324283
37098		-18.068863	0.083344	7.399672	-0.925589	-4.157413	-1.392207	-0.747803	0.088623	-0.746338	-14.303663	18.994748	161.111641
37099		-18.351048	0.314180	5.691832	-0.791594	-4.090757	-1.494672	-0.783936	0.092773	-0.707031	-14.833815	16.504922	160.858141
37100		-18.000376	0.538651	3.426481	-0.538503	-3.908126	-1.529830	-0.815186	0.077637	-0.664795	-15.213538	14.114728	160.580254
37101		-17.873337	0.961423	1.069417	-0.270450	-3.555804	-1.482565	-0.846191	0.058594	-0.625244	-15.433016	11.920477	160.289898
37102		-18.415128	1.708963	-0.835716	-0.073615	-3.091168	-1.348733	-0.867432	0.059570	-0.595703	-15.526024	10.007020	160.010865
37103		-19.026105	2.669996	-2.541336	-0.024352	-2.579773	-1.136679	-0.883301	0.040039	-0.567871	-15.576729	8.404771	159.774694
37104		-19.342773	3.787760	-3.871585	-0.112624	-2.027876	-0.890687	-0.897705	0.041504	-0.539551	-15.663667	7.148036	159.592479
37105		-19.750911	4.429819	-4.775881	-0.266304	-1.418478	-0.677993	-0.907715	0.030518	-0.525391	-15.833291	6.258085	159.436149
37106		-20.003023	4.157452	-5.186196	-0.311687	-0.817853	-0.520219	-0.912354	0.023438	-0.520264	-16.026410	5.725320	159.275353
37107		-19.969882	3.417123	-5.217071	-0.113230	-0.232245	-0.406075	-0.920898	0.033691	-0.507568	-16.108478	5.532187	159.085711
37108		-19.005363	2.958227	-4.826650	0.269911	0.355175	-0.293989	-0.918701	0.021240	-0.519287	-15.973179	5.680858	158.864626
37109		-1.346924	2.786850	1.495515	0.510223	1.000624	0.045022	-0.913330	0.020020	-0.529541	-15.693265	6.240013	158.730269
37110		5.236111	-1.783643	15.644735	0.404273	2.516602	0.579524	-0.900146	0.028809	-0.542236	-15.467861	7.717773	158.660394
37111		8.627600	-2.527277	15.093350	0.909255	1.863055	1.074008	-0.889648	0.031250	-0.563965	-14.899514	8.909501	158.975980
37112		11.145421	-2.442387	2.012161	1.262072	2.735051	1.352670	-0.870850	0.032715	-0.582275	-14.112844	10.620428	159.337066
37113		-0.556241	-1.495847	6.049159	1.316135	3.988649	1.521040	-0.862305	0.033447	-0.615967	-13.293369	13.046769	159.646903
37114		-15.438986	-2.053327	14.527781	1.068245	3.915685	1.094491	-0.825684	0.042969	-0.659668	-12.652251	15.373536	159.755744
37115		-14.982989	-1.630343	13.992576	0.982825	3.038015	0.784033	-0.808838	0.041260	-0.667236	-12.068596	17.170057	159.822532
37116		-10.854672	1.199576	12.561990	0.805556	2.645734	0.703369	-0.800781	0.040771	-0.699951	-11.578223	18.736138	159.908640
37117		-10.205651	1.826478	13.685960	0.457032	2.340433	0.572189	-0.779297	0.047363	-0.723633	-11.295562	20.116204	159.965222
37118		-11.455455	-1.407618	13.849740	0.327406	1.960073	0.483397	-0.765869	0.048584	-0.736816	-11.086144	21.271443	160.020602
37119		-11.143191	-4.327017	11.432501	0.440865	1.552893	0.359108	-0.755615	0.046387	-0.741943	-10.819032	22.185214	160.053912
37120		-8.372049	-2.970721	9.973579	0.447514	1.355587	0.123822	-0.741211	0.044189	-0.756104	-10.592176	22.961386	159.971057
37121		-7.458949	0.677424	10.675566	0.356964	1.169527	0.134659	-0.730713	0.045654	-0.766357	-10.406381	23.635833	159.918447
37122		-6.586771	-0.330603	9.972025	0.233098	0.960232	0.193290	-0.721680	0.045166	-0.760742	-10.266896	24.196778	159.927520
37123		-6.261318	-3.621448	8.831501	0.236976	0.820735	0.179445	-0.731445	0.047363	-0.773193	-10.121655	24.679505	159.945030
37124		-6.129021	-3.389765	8.699378	0.342159	0.659497	0.174642	-0.710938	0.041260	-0.778076	-9.909042	25.068854	159.979071
37125		-5.768472	-1.670570	8.755799	0.421775	0.480809	0.235948	-0.718262	0.038086	-0.781250	-9.625538	25.365136	160.072368
37126		-5.435869	-1.358287	8.943544	0.457212	0.342816	0.265111	-0.707764	0.042969	-0.784668	-9.306256	25.583722	160.200401
37127		-5.261080	-1.267844	9.146223	0.455743	0.241905	0.269123	-0.705322	0.035156	-0.789063	-8.981465	25.747040	160.342546
37128		-5.010013	-1.065843	9.178919	0.448573	0.176346	0.262287	-0.713135	0.038330	-0.789307	-8.658817	25.869808	160.488136
37129		-5.328975	-0.820823	9.448909	0.411244	0.136313	0.233639	-0.707764	0.038574	-0.797363	-8.363345	25.968908	160.620170
37130		-5.129312	-0.102002	9.569914	0.331270	0.099396	0.178185	-0.705566	0.030518	-0.793213	-8.126934	26.039811	160.721340
37131		-4.895024	0.055112	9.536050	0.213867	0.079961	0.125937	-0.703125	0.023926	-0.797607	-7.971380	26.097384	160.791459
37132		-4.879714	-0.422532	9.234076	0.108420	0.057495	0.068929	-0.709717	0.032715	-0.795898	-7.891014	26.135372	160.827795
37133		-4.487365	-0.857573	8.900987	0.055099	0.059544	0.048335	-0.704346	0.033203	-0.799805	-7.846968	26.175096	160.850919
37134		-4.419474	-1.377143	8.834866	0.052263	0.070137	0.070286	-0.698486	0.033447	-0.790039	-7.798791	26.220305	160.887121
37135		-4.271395	-1.813851	8.526505	0.086645	0.080727	0.113785	-0.699219	0.031494	-0.802002	-7.719066	26.277083	160.949952
37136		-4.055813	-1.913068	8.546492	0.145987	0.119264	0.150798	-0.703857	0.030273	-0.793701	-7.596284	26.356242	161.033156
37137		-4.455540	-2.010294	8.585045	0.194901	0.133092	0.184259	-0.694580	0.029541	-0.802246	-7.436357	26.447800	161.136616
37138		-4.618434	-1.485371	8.757907	0.194249	0.158658	0.141625	-0.701904	0.031982	-0.791260	-7.289467	26.548286	161.211349
37139		-4.941000	-0.671501	9.091135	0.162264	0.135059	0.117753	-0.703369	0.025391	-0.808838	-7.166674	26.635713	161.273028
37140		-4.665885	-0.651228	8.882047	0.119867	0.111946	0.094366	-0.689697	0.033447	-0.800049	-7.073766	26.706000	161.321994
37141		-4.542246	-0.798580	8.878242	0.078420	0.123224	0.045039	-0.693359	0.032959	-0.800049	-7.019063	26.781432	161.338709
37142		-4.673664	-0.107784	8.989775	0.036713	0.119654	0.011279	-0.693848	0.024170	-0.810791	-6.997747	26.850209	161.334344
37143		-4.649122	-0.059433	8.987435	-0.028741	0.115273	-0.025298	-0.697754	0.021484	-0.812500	-7.024314	26.916200	161.306935
37144		-4.584607	-0.476805	8.766968	-0.088836	0.117768	-0.064804	-0.697998	0.024658	-0.801025	-7.096900	26.978543	161.254112
37145		-3.429473	-0.624817	8.453823	-0.137811	0.178887	-0.094175	-0.693604	0.021729	-0.804688	-7.208338	27.075735	161.177472
37146		-3.678322	-1.054239	8.652807	-0.142282	0.256055	-0.082466	-0.692139	0.039063	-0.808350	-7.322151	27.215226	161.101765
37147		-3.215228	-1.306156	8.282346	-0.105589	0.326821	-0.050048	-0.690674	0.032959	-0.815186	-7.408379	27.399407	161.040536
37148		-3.717474	-1.397917	8.477876	-0.079002	0.424711	-0.037069	-0.692627	0.036377	-0.818604	-7.479803	27.637875	160.979048
37149		-4.119922	-1.589363	8.390769	-0.013893	0.470998	0.014646	-0.679443	0.028564	-0.807617	-7.500609	27.908606	160.946467
37150		-4.559584	-1.581793	8.374132	0.068697	0.502187	0.076837	-0.682373	0.023682	-0.819580	-7.456731	28.199548	160.951288
37151		-4.867535	-1.395912	8.434984	0.152035	0.491705	0.151538	-0.673340	0.029541	-0.826416	-7.341512	28.492179	161.005640
37152		-4.733232	-1.299103	8.498870	0.192833	0.471766	0.198593	-0.658203	0.035156	-0.825684	-7.186873	28.774634	161.093084
37153		-5.189035	-1.172116	8.775047	0.199254	0.454797	0.210654	-0.662598	0.025879	-0.835938	-7.023171	29.050231	161.190809
37154		-5.372660	-0.834415	8.807117	0.182278	0.395697	0.194686	-0.669434	0.035400	-0.832520	-6.871068	29.288723	161.283987
37155		-5.139188	-0.753879	8.729488	0.136345	0.364333	0.161569	-0.662842	0.032471	-0.834961	-6.753926	29.509104	161.358791
37156		-4.834504	-1.207312	8.602185	0.112914	0.362268	0.160104	-0.658691	0.031006	-0.834229	-6.650064	29.725910	161.433487
37157		-4.482557	-1.445433	8.438654	0.139419	0.381092	0.175354	-0.653320	0.031494	-0.843750	-6.526124	29.956482	161.517386
37158		-4.745008	-1.049892	8.578614	0.150630	0.412763	0.181344	-0.654541	0.027100	-0.841797	-6.394308	30.203130	161.603699
37159		-5.270603	-0.792013	8.681081	0.142294	0.424446	0.173344	-0.649658	0.024902	-0.841553	-6.269584	30.457912	161.684689
37160		-5.133895	-0.596897	8.603040	0.110231	0.412010	0.158110	-0.640381	0.032959	-0.850586	-6.167218	30.702370	161.757334
37161		-5.048442	-0.854712	8.660903	0.084582	0.437486	0.153689	-0.643066	0.031250	-0.843262	-6.081316	30.963132	161.825859
37162		-5.161696	-1.174262	8.554132	0.090532	0.451908	0.177004	-0.636475	0.033447	-0.855957	-5.983948	31.231258	161.909588
37163		-5.195568	-1.107775	8.383279	0.102768	0.456316	0.199127	-0.628906	0.026367	-0.853027	-5.871229	31.505228	162.008562
37164		-5.449047	-0.913195	8.338435	0.106183	0.444249	0.200926	-0.634521	0.034668	-0.858887	-5.754658	31.770100	162.110520
37165		-5.450197	-0.891527	8.378638	0.097350	0.429282	0.191107	-0.630615	0.032715	-0.858154	-5.645185	32.027874	162.207756
37166		-5.307834	-0.923615	8.479749	0.087748	0.424290	0.177222	-0.611328	0.033203	-0.866943	-5.545255	32.279709	162.296827
37167		-5.479093	-0.626881	8.523166	0.065151	0.437130	0.150991	-0.613770	0.034912	-0.862793	-5.467454	32.539477	162.368022
37168		-5.662659	-0.422563	8.547202	0.025460	0.427021	0.121357	-0.610840	0.040283	-0.872559	-5.422370	32.789634	162.420357
37169		-5.064749	-0.812626	8.543841	0.002850	0.449354	0.121496	-0.603027	0.036621	-0.871826	-5.390500	33.054684	162.471688
37170		-4.945800	-1.270374	8.447517	0.020111	0.500980	0.155345	-0.595703	0.037842	-0.878906	-5.337567	33.348789	162.543200
37171		-5.173179	-0.981980	8.510739	0.040699	0.560508	0.187407	-0.599854	0.035400	-0.884766	-5.262061	33.680621	162.633504
37172		-5.252530	-0.763646	8.515345	0.030473	0.628397	0.198124	-0.593506	0.037842	-0.886963	-5.189801	34.049514	162.727808
37173		-5.363775	-0.680288	8.533828	0.010350	0.705730	0.202499	-0.581055	0.042969	-0.890381	-5.128949	34.464770	162.821248
37174		-5.422350	-0.614666	8.515886	-0.013425	0.789225	0.193233	-0.581543	0.037842	-0.892334	-5.087266	34.925034	162.904036
37175		-5.330057	-0.275571	8.539775	-0.048348	0.884389	0.178992	-0.574219	0.044434	-0.898438	-5.073624	35.440917	162.971733
37176		-5.413940	-0.088855	8.540556	-0.116239	0.982057	0.135791	-0.563232	0.048096	-0.902344	-5.119588	36.008291	163.003222
37177		-5.490865	-0.115313	8.478600	-0.171385	1.096208	0.107027	-0.551514	0.046143	-0.914795	-5.213498	36.641364	163.006447
37178		-5.562608	-0.080820	8.401136	-0.220859	1.209175	0.066714	-0.536377	0.045898	-0.919678	-5.358664	37.334749	162.971755
37179		-5.415273	-0.473798	8.463426	-0.275263	1.328773	0.037839	-0.523926	0.051025	-0.921631	-5.554711	38.096652	162.905144
37180		-5.391117	-0.544426	8.696533	-0.302995	1.485262	0.040463	-0.513184	0.048096	-0.928711	-5.776126	38.945767	162.824769
37181		-5.000959	-1.077925	8.896701	-0.323465	1.682640	0.055189	-0.503174	0.056152	-0.935547	-6.016123	39.909850	162.734875
37182		-4.524080	-1.964976	9.186778	-0.299083	1.935279	0.129745	-0.481201	0.060547	-0.951416	-6.224695	41.020263	162.674082
37183		-4.568314	-2.154472	9.499814	-0.247883	2.234806	0.211631	-0.457031	0.067627	-0.963867	-6.383884	42.307929	162.644685
37184		-4.426123	-2.301700	9.587897	-0.192475	2.576674	0.310347	-0.436035	0.068848	-0.968506	-6.483206	43.794846	162.657449
37185		-4.583206	-2.182385	9.958433	-0.140307	2.976256	0.432055	-0.398926	0.073486	-0.990967	-6.510831	45.518528	162.729239
37186		-4.572069	-2.133428	10.240875	-0.102381	3.419693	0.555305	-0.364258	0.073975	-0.999512	-6.469504	47.501238	162.863945
37187		-5.277226	-2.405063	10.044224	-0.034362	3.856410	0.724562	-0.323975	0.081299	-1.013184	-6.299766	49.744257	163.113351
37188		-5.880626	-2.098172	9.835331	0.033839	4.243031	0.903297	-0.281738	0.082031	-1.016357	-5.965959	52.216702	163.515047
37189		-6.630379	-1.778160	9.861797	0.085441	4.624044	1.073476	-0.226563	0.080811	-1.036377	-5.445247	54.914789	164.098524
37190		-7.823055	-1.940970	10.003233	0.111532	4.951491	1.247652	-0.179199	0.083984	-1.050049	-4.688296	57.803911	164.927997
37191		-7.877110	-2.340276	9.585682	0.201643	5.310012	1.410009	-0.106201	0.082764	-1.061768	-3.584428	60.897161	166.073852
37192		-10.171812	-1.735877	9.886282	0.211484	5.572063	1.529383	-0.056885	0.084717	-1.056641	-2.085596	64.129512	167.623600
37193		-10.952555	-1.684672	9.488153	0.097069	5.607601	1.667744	0.001953	0.078857	-1.057373	-0.044308	67.360277	169.798280
37194		-12.354528	-2.171236	9.772978	-0.025346	5.587268	1.791347	0.073730	0.081055	-1.063232	2.805800	70.537202	172.864090
37195		-12.236693	-2.801812	8.577700	-0.024042	5.311107	1.952164	0.134277	0.083496	-1.061768	7.022334	73.475336	177.308092
37196		-10.554550	-4.137726	6.817388	0.204894	5.069376	2.102451	0.188232	0.086426	-1.049805	13.398396	76.125007	-176.210927
37197		-9.414245	-3.709961	5.330748	0.574250	4.732526	2.293080	0.231445	0.066650	-1.044678	22.955514	78.298929	-166.752983
37198		-8.883078	-1.724450	4.621151	0.731980	4.467955	2.479659	0.283936	0.060059	-1.034424	36.345634	79.831983	-153.548067
37199		-10.817182	2.852610	12.441253	0.294846	3.799469	2.554692	0.336670	0.046387	-1.021240	51.251358	80.396396	-138.593851
37200		-11.635040	4.856539	22.298543	-1.159303	2.098008	2.467310	0.344482	0.055420	-1.015381	60.882728	79.894160	-128.147233
37201		-19.953125	-0.980181	20.532810	-2.438921	0.309335	1.968598	0.353271	0.068604	-1.005615	63.147443	78.982347	-124.423848
37202		-8.697250	-7.183145	14.185440	-2.441559	-1.758590	1.644253	0.330566	0.098877	-1.001465	59.647684	77.674456	-126.571131
37203		-6.486583	-9.465710	8.035294	-1.608871	-2.532584	1.239488	0.304932	0.101318	-1.013672	55.075366	76.294209	-130.318728
37204		-4.640639	-8.303744	4.330403	-0.655019	-2.913251	0.791238	0.263916	0.116211	-1.020996	50.580882	74.925176	-134.573209
37205		-3.786052	-5.892289	3.091631	-0.013112	-3.006214	0.217742	0.232422	0.105713	-1.019531	46.260211	73.688504	-139.053746
37206		-2.894359	-3.192363	2.362414	0.185874	-2.955192	-0.396807	0.202148	0.118652	-1.026855	41.931266	72.631329	-143.689865
37207		-2.526473	-1.098404	2.289776	0.031496	-2.810114	-0.977130	0.159424	0.129639	-1.024902	37.388013	71.748208	-148.480899
37208		-2.259244	-0.167544	2.601664	-0.284774	-2.633110	-1.447392	0.122314	0.132080	-1.028564	32.639058	70.989020	-153.322269
37209		-3.045042	0.132038	3.665379	-0.529489	-2.534162	-1.783756	0.087158	0.144043	-1.037354	27.730011	70.245747	-158.204650
37210		-4.838764	0.290464	5.043791	-0.671536	-2.652486	-2.006315	0.054199	0.155762	-1.024658	22.752918	69.361511	-163.099699
37211		-6.535213	0.089265	5.715788	-0.655149	-3.001696	-2.114327	-0.000244	0.170654	-1.030518	17.899688	68.165812	-167.903525
37212		-6.625401	0.449422	5.029994	-0.467349	-3.420146	-2.127809	-0.051514	0.168945	-1.020752	13.536251	66.609349	-172.341918
37213		-5.903842	1.991515	3.683936	-0.312889	-3.662660	-2.075896	-0.109863	0.174561	-1.012451	9.822952	64.790095	-176.219120
37214		-5.521957	3.910651	2.765147	-0.377061	-3.678225	-1.993715	-0.153320	0.184570	-0.996338	6.688375	62.868227	-179.472879
37215		-5.602285	4.947556	2.655350	-0.614302	-3.578556	-1.872660	-0.207275	0.179199	-0.986816	3.970080	60.921201	177.844485
37216		-6.545168	5.050159	3.460554	-0.862127	-3.530380	-1.713357	-0.263184	0.193115	-0.980225	1.610691	58.948592	175.686917
37217		-7.527157	4.394883	4.205862	-0.965571	-3.634174	-1.517752	-0.312744	0.194580	-0.960205	-0.371396	56.870617	173.999936
37218		-8.918024	3.461642	4.273167	-0.828559	-3.826013	-1.311286	-0.364502	0.214844	-0.936035	-1.887397	54.664120	172.738082
37219		-8.955927	3.380569	4.128492	-0.555956	-3.977719	-1.100897	-0.418945	0.212402	-0.898682	-2.932434	52.355297	171.833549
37220		-9.299386	3.835510	4.221441	-0.382261	-4.028086	-0.880351	-0.475098	0.212402	-0.879395	-3.613967	50.022383	171.237264
37221		-10.334518	3.945108	4.590405	-0.358974	-4.063117	-0.673038	-0.523193	0.224121	-0.841553	-4.083589	47.668700	170.885369
37222		-11.199622	2.925885	4.422567	-0.383564	-4.102169	-0.464585	-0.567139	0.217041	-0.802979	-4.399700	45.305118	170.749489
37223		-11.724881	1.519343	3.832326	-0.327246	-4.082726	-0.274324	-0.620605	0.228516	-0.779541	-4.563296	42.956079	170.782001
37224		-11.914533	0.597990	3.643908	-0.221282	-3.982823	-0.140963	-0.656738	0.220703	-0.733887	-4.598554	40.674954	170.915903
37225		-12.460858	-0.303995	3.621462	-0.186418	-3.810969	-0.098207	-0.695801	0.237061	-0.698975	-4.607694	38.489868	171.067106
37226		-13.577939	-1.037545	3.460826	-0.205177	-3.580689	-0.210906	-0.729004	0.237549	-0.662354	-4.689386	36.435263	171.122384
37227		-14.309684	-1.415578	3.284879	-0.240455	-3.294973	-0.501235	-0.756592	0.240967	-0.623535	-4.919047	34.526637	170.961961
37228		-14.793650	-1.038750	3.019988	-0.300335	-2.947829	-0.917522	-0.786133	0.230713	-0.593018	-5.338350	32.797420	170.511961
37229		-14.888638	-0.688025	2.652416	-0.304529	-2.539860	-1.342466	-0.818359	0.227295	-0.556885	-5.903073	31.271435	169.774122
37230		-15.091654	0.288016	2.219728	-0.283450	-2.066086	-1.664668	-0.838379	0.219482	-0.529053	-6.549832	29.991128	168.819174
37231		-15.471714	1.009109	2.307753	-0.264633	-1.583972	-1.830561	-0.858154	0.201660	-0.518066	-7.228724	28.962938	167.745270
37232		-15.911088	1.490566	2.722473	-0.210654	-1.193005	-1.800939	-0.876221	0.191406	-0.485107	-7.856136	28.149767	166.680598
37233		-15.144914	1.655078	3.143128	-0.072966	-0.926354	-1.557617	-0.895508	0.176025	-0.474609	-8.324776	27.498471	165.763261
37234		-13.528287	2.476393	3.484925	0.065698	-0.736906	-1.136199	-0.907227	0.170166	-0.459229	-8.585449	26.985013	165.106653
37235		-10.814744	4.647138	3.442225	-0.021825	-0.494479	-0.673131	-0.904541	0.158203	-0.446045	-8.768676	26.647625	164.724755
37236		-14.941306	-5.337362	-6.240329	0.278252	0.789361	-0.650651	-0.922607	0.153809	-0.449707	-8.829434	27.037431	164.232144
37237		-21.072610	10.535502	8.576580	1.300442	1.800480	0.532235	-0.907227	0.152344	-0.472900	-8.005371	28.104615	164.399420
37238		-24.878264	10.677430	24.476831	0.695806	0.249432	0.529371	-0.905029	0.152588	-0.476074	-7.454675	28.286945	164.716419
37239		-0.066572	3.613502	7.057301	-0.096940	-1.047541	0.134399	-0.909180	0.162354	-0.468994	-7.426587	27.705187	164.888890
37240		1.760680	-4.035975	7.388130	-0.118460	0.087265	0.028483	-0.907715	0.156250	-0.463379	-7.488136	27.756809	164.897643
37241		-3.057344	-4.926145	9.635013	0.018070	0.270246	-0.036198	-0.913574	0.157959	-0.467285	-7.497491	27.910621	164.849577
37242		-3.775394	-1.555966	8.190465	0.193266	0.332647	0.103848	-0.907959	0.164063	-0.473877	-7.367273	28.107238	164.886277
37243		-6.048489	-0.045308	9.943382	0.185570	0.352287	0.112772	-0.900146	0.159668	-0.480713	-7.238767	28.318531	164.927799
37244		-6.120761	0.487883	9.560251	0.009680	0.250726	-0.015919	-0.905762	0.161133	-0.473389	-7.246701	28.459826	164.894717
37245		-5.844406	-0.460996	9.075612	-0.104481	0.188114	-0.072234	-0.903809	0.161377	-0.475098	-7.334580	28.564432	164.830415
37246		-5.363747	-1.815567	8.537493	-0.112202	0.091565	-0.063966	-0.906982	0.160400	-0.479980	-7.421155	28.611685	164.779136
37247		-5.015890	-2.336120	8.217204	-0.052591	0.043997	-0.039244	-0.902588	0.162354	-0.486572	-7.463534	28.636777	164.747994
37248		-4.936481	-1.916508	8.354233	0.020543	0.001931	-0.005451	-0.910400	0.159668	-0.477295	-7.452345	28.637397	164.742086
37249		-4.718627	-1.479967	8.344149	0.064569	-0.025146	0.028753	-0.900391	0.153564	-0.483643	-7.403831	28.628277	164.760741
37250		-4.976194	-1.468590	8.373632	0.093764	-0.029851	0.053906	-0.904785	0.150146	-0.478027	-7.331008	28.615206	164.795919
37251		-5.047009	-1.448810	8.485879	0.111407	-0.056145	0.056306	-0.903809	0.162109	-0.481445	-7.245959	28.590447	164.834917
37252		-4.736012	-1.191693	8.558042	0.111868	-0.064014	0.057424	-0.904541	0.152344	-0.475830	-7.160389	28.558122	164.875109
37253		-4.715209	-0.727762	8.684797	0.101577	-0.050841	0.047041	-0.905518	0.153076	-0.475098	-7.084154	28.535634	164.907557
37254		-4.933315	-0.588822	8.812246	0.065003	-0.042462	0.027531	-0.909424	0.155029	-0.486572	-7.035583	28.513370	164.926565
37255		-4.956965	-0.508781	8.806358	0.020154	-0.045598	-0.004423	-0.904053	0.162842	-0.478516	-7.022091	28.490211	164.925257
37256		-4.687434	-0.689764	8.799596	-0.023672	-0.038739	-0.026614	-0.911133	0.156738	-0.480469	-7.041195	28.466259	164.908919
37257		-4.566803	-0.976195	8.711312	-0.043936	-0.019348	-0.041347	-0.911865	0.157227	-0.480469	-7.076743	28.455424	164.881669
37258		-4.554935	-1.151256	8.639024	-0.045687	0.004807	-0.041955	-0.906006	0.149902	-0.483154	-7.114836	28.455129	164.851938
37259		-4.648218	-1.267372	8.578980	-0.031972	0.016688	-0.032597	-0.899658	0.159668	-0.485107	-7.142216	28.465355	164.827453
37260		-4.911588	-1.287694	8.577756	-0.018796	0.013743	-0.020772	-0.904785	0.153564	-0.476807	-7.158724	28.471626	164.810692
37261		-4.974290	-1.308176	8.618823	-0.012664	-0.002802	-0.013674	-0.908203	0.156494	-0.483643	-7.168486	28.472113	164.800008
37262		-4.797010	-1.227461	8.561740	-0.002603	-0.013319	-0.003579	-0.903320	0.153076	-0.477539	-7.169368	28.464224	164.796565
37263		-4.692734	-1.211073	8.581358	0.007824	-0.006382	0.003695	-0.904053	0.157471	-0.477295	-7.161921	28.463929	164.797394
37264		-4.782126	-1.084657	8.587951	0.008289	-0.006941	0.010099	-0.907227	0.143311	-0.477783	-7.152595	28.460643	164.802276
37265		-4.774856	-0.975753	8.617191	0.004017	-0.009848	0.009311	-0.909668	0.154785	-0.483643	-7.145474	28.458777	164.807013
37266		-4.618873	-1.062198	8.597758	0.002695	-0.002557	0.009889	-0.904785	0.153320	-0.476318	-7.139587	28.457967	164.811403
37267		-4.736944	-0.996618	8.650086	-0.000061	0.007327	0.005346	-0.907227	0.152100	-0.487549	-7.136681	28.465576	164.812188
37268		-4.879064	-0.984567	8.657498	-0.005423	0.003893	-0.002773	-0.909912	0.154541	-0.471191	-7.139598	28.467532	164.807867
37269		-4.844372	-0.960072	8.634813	-0.018709	-0.002132	-0.014458	-0.902100	0.156006	-0.476074	-7.153105	28.468355	164.796617
37270		-4.805606	-0.991197	8.608014	-0.025496	-0.007246	-0.021865	-0.906250	0.146729	-0.474609	-7.172975	28.462612	164.780854
37271		-4.777103	-1.070511	8.616212	-0.031209	-0.007558	-0.027767	-0.908691	0.149902	-0.480225	-7.197523	28.459395	164.761448
37272		-4.668927	-1.186712	8.598668	-0.029159	-0.006926	-0.024629	-0.913086	0.154785	-0.473389	-7.220351	28.453625	164.743878
37273		-4.761156	-1.158895	8.544543	-0.023639	-0.001845	-0.021983	-0.909668	0.152832	-0.481445	-7.239005	28.454055	164.727747
37274		-4.909967	-1.103002	8.647464	-0.020614	-0.003247	-0.020133	-0.918945	0.152832	-0.471436	-7.255694	28.450691	164.712786
37275		-4.864251	-0.958449	8.622567	-0.026593	-0.012041	-0.023346	-0.910889	0.151367	-0.470703	-7.276064	28.445225	164.696614
37276		-4.806551	-1.051709	8.552626	-0.036211	-0.024797	-0.023504	-0.912598	0.164551	-0.481201	-7.301872	28.429359	164.681262
37277		-4.662169	-1.141794	8.513198	-0.029377	-0.024863	-0.024353	-0.901123	0.153076	-0.479980	-7.323621	28.416529	164.665518
37278		-4.704925	-1.150412	8.544366	-0.019853	-0.023216	-0.021150	-0.904785	0.143311	-0.475342	-7.339381	28.401723	164.651572
37279		-4.671967	-1.140707	8.554049	-0.022130	-0.018178	-0.013454	-0.911377	0.156738	-0.473633	-7.353890	28.393479	164.642323
37280		-4.567127	-1.194645	8.600530	-0.014390	-0.010816	-0.013159	-0.904785	0.156494	-0.472168	-7.364548	28.386300	164.632515
37281		-4.535903	-1.251710	8.636412	-0.005628	0.008663	-0.006016	-0.907471	0.150391	-0.475342	-7.368390	28.393838	164.625830
37282		-4.761184	-1.161530	8.555011	0.000826	0.016887	0.003593	-0.910156	0.156738	-0.476318	-7.366284	28.403631	164.624530
37283		-4.772751	-1.140450	8.562302	0.004393	0.007597	0.006483	-0.904541	0.146973	-0.478760	-7.360515	28.411471	164.626002
37284		-4.842182	-1.129852	8.520550	0.006004	0.004510	0.009033	-0.910645	0.142822	-0.470215	-7.353279	28.414629	164.629251
37285		-4.859796	-1.067878	8.564431	0.006420	-0.008065	0.004382	-0.917236	0.149170	-0.479004	-7.346377	28.413422	164.630671
37286		-4.790051	-1.076917	8.606559	0.006148	-0.014408	0.004155	-0.911865	0.160156	-0.481445	-7.339808	28.405472	164.632344
37287		-4.640528	-1.122831	8.622863	-0.002473	-0.010766	0.005027	-0.905273	0.151123	-0.482910	-7.337693	28.402783	164.634407
37288		-4.539661	-1.200149	8.581573	0.007934	0.002591	0.003551	-0.908691	0.149414	-0.476318	-7.330960	28.404449	164.634275
37289		-4.720572	-1.090905	8.588976	0.007639	0.019855	0.013900	-0.909668	0.156738	-0.474365	-7.321541	28.419791	164.639523
37290		-4.915692	-0.980965	8.575803	0.006251	0.015137	0.003441	-0.912842	0.157715	-0.476318	-7.316302	28.428579	164.638279
37291		-4.926562	-0.960284	8.583405	-0.006322	-0.005677	-0.001002	-0.907715	0.150635	-0.475830	-7.318448	28.428329	164.636022
37292		-4.742309	-1.123766	8.571533	-0.012314	-0.012329	-0.007125	-0.910156	0.153564	-0.482910	-7.326011	28.420737	164.630230
37293		-4.644505	-1.216358	8.561818	-0.006158	-0.006165	-0.003562	-0.903320	0.158936	-0.474609	-7.328824	28.420029	164.626364
37294		-4.613350	-1.204084	8.570854	0.005708	0.002450	0.002985	-0.909424	0.155762	-0.477051	-7.323535	28.421575	164.625878
37295		-4.748408	-1.157600	8.575335	0.008408	0.002021	0.009950	-0.907959	0.147705	-0.474121	-7.314185	28.426493	164.630057
37296		-4.880018	-1.090736	8.608018	0.014173	-0.002846	0.007587	-0.906494	0.148682	-0.477539	-7.302421	28.425364	164.632984
37297		-4.838164	-1.097543	8.609556	0.011507	-0.008841	0.009356	-0.909912	0.149658	-0.474854	-7.291053	28.424068	164.637678
37298		-4.712827	-1.053310	8.586540	0.006947	-0.015951	0.005436	-0.907715	0.146240	-0.467285	-7.283576	28.415334	164.640298
37299		-4.629129	-1.137195	8.616356	0.006073	-0.004948	0.006597	-0.906006	0.158936	-0.477539	-7.276322	28.416049	164.642887
37300		-4.680645	-1.113355	8.563739	0.009200	0.002620	0.008316	-0.912109	0.158447	-0.478760	-7.267398	28.418078	164.645833
37301		-4.740201	-1.042756	8.606197	0.008218	0.006792	0.006689	-0.904541	0.153076	-0.468994	-7.259351	28.425460	164.647513
37302		-4.775387	-0.999893	8.601422	0.006158	0.006165	0.003561	-0.908691	0.147461	-0.481445	-7.253772	28.429159	164.647096
37303		-4.782588	-1.033380	8.604689	-0.003030	0.001404	-0.001844	-0.913086	0.147949	-0.469727	-7.254575	28.432859	164.643709
37304		-4.748448	-1.075939	8.608924	-0.008971	0.008902	0.000167	-0.903809	0.150391	-0.478271	-7.258815	28.437867	164.640873
37305		-4.707835	-1.084946	8.609501	-0.004365	0.010833	-0.004171	-0.903564	0.150635	-0.478760	-7.261467	28.446755	164.635208
37306		-4.681187	-1.160979	8.616846	-0.003443	0.013981	0.002805	-0.908447	0.157471	-0.479004	-7.261928	28.454842	164.633658
37307		-4.637703	-1.223323	8.612779	0.004938	0.020285	0.006937	-0.900635	0.152344	-0.472168	-7.256204	28.469896	164.634393
37308		-4.670656	-1.166273	8.575852	0.011740	0.023255	0.017254	-0.903320	0.153076	-0.472412	-7.243875	28.484299	164.641424
37309		-4.793789	-1.193004	8.567056	0.023948	0.026613	0.024515	-0.902832	0.148193	-0.479492	-7.222094	28.504203	164.653009
37310		-4.889038	-1.084446	8.544744	0.021003	0.014277	0.026060	-0.903076	0.148926	-0.482910	-7.201378	28.514132	164.666485
37311		-4.917939	-0.999336	8.596105	0.029227	-0.000406	0.019275	-0.912109	0.154785	-0.478516	-7.177132	28.518299	164.676899
37312		-4.827906	-1.053902	8.562937	0.013661	-0.003518	0.018206	-0.906494	0.153564	-0.478027	-7.162351	28.517541	164.686751
37313		-4.665280	-1.098965	8.599659	0.020737	-0.013543	0.012355	-0.897705	0.143066	-0.480957	-7.144590	28.513749	164.693759
37314		-4.654945	-1.042923	8.624608	0.021393	0.005979	0.015593	-0.907227	0.158203	-0.481201	-7.126554	28.518200	164.701151
37315		-4.662732	-1.074024	8.627919	0.019449	0.010046	0.018164	-0.903809	0.155518	-0.481934	-7.108647	28.528212	164.710009
37316		-4.816156	-1.038756	8.642970	0.016697	0.017795	0.016542	-0.908936	0.154053	-0.481445	-7.093459	28.539444	164.717066
37317		-4.848288	-0.981209	8.606308	0.009290	0.009458	0.011120	-0.899658	0.151855	-0.481689	-7.083521	28.548611	164.721420
37318		-4.810856	-1.008482	8.579205	0.004391	0.005466	0.009405	-0.909912	0.158447	-0.479248	-7.077113	28.552327	164.724854
37319		-4.735366	-1.058394	8.584899	0.001084	0.002664	0.004417	-0.906494	0.151367	-0.475342	-7.073680	28.557159	164.725421
37320		-4.725311	-1.010630	8.549675	0.004379	0.009741	0.003576	-0.907471	0.149902	-0.476074	-7.069247	28.562894	164.724740
37321		-4.743523	-1.023390	8.560479	-0.001496	0.009921	0.000228	-0.905273	0.152344	-0.477539	-7.068864	28.571550	164.722014
37322		-4.748135	-1.105024	8.618769	0.001704	0.005888	0.002430	-0.906006	0.151367	-0.472412	-7.066170	28.575014	164.720900
37323		-4.748316	-1.110913	8.558991	0.002956	0.008060	0.004286	-0.909912	0.152344	-0.468750	-7.061910	28.582891	164.720951
37324		-4.707599	-1.118713	8.559888	0.006775	0.007251	0.004501	-0.912109	0.154053	-0.484863	-7.055721	28.587275	164.721069
37325		-4.750312	-1.103091	8.617817	0.008653	0.010510	0.007284	-0.905518	0.158936	-0.475586	-7.047370	28.596748	164.722863
37326		-4.758144	-1.067599	8.593621	0.008307	0.013631	0.009496	-0.913574	0.150635	-0.481445	-7.038998	28.605112	164.725708
37327		-4.780434	-1.025059	8.608473	0.010348	0.018536	0.006803	-0.903809	0.148438	-0.486572	-7.030133	28.619107	164.726551
37328		-4.840510	-0.960629	8.590520	0.003683	0.015985	0.008003	-0.909668	0.148926	-0.472412	-7.024962	28.628703	164.728243
37329		-4.855577	-1.027611	8.596882	-0.001497	0.009922	0.000229	-0.907715	0.146484	-0.480713	-7.024586	28.637336	164.725520
37330		-4.776722	-1.064435	8.570949	0.000901	0.007431	0.001153	-0.901123	0.151855	-0.477783	-7.022809	28.641589	164.723458
37331		-4.787714	-1.043670	8.578389	-0.000522	0.005750	0.001860	-0.909180	0.151611	-0.479980	-7.021208	28.647963	164.722126
37332		-4.725929	-1.093356	8.563891	0.000279	0.004208	0.003140	-0.907959	0.152100	-0.484863	-7.019046	28.650522	164.721609
37333		-4.802821	-1.036407	8.617118	0.000104	0.006837	0.002789	-0.906494	0.152588	-0.476074	-7.016844	28.657571	164.720791
37334		-4.813867	-1.015591	8.624531	0.000900	0.007432	0.001154	-0.903809	0.154785	-0.479004	-7.015067	28.661824	164.718730
37335		-4.762365	-1.045029	8.617814	-0.009061	-0.000060	0.000272	-0.908447	0.156738	-0.483398	-7.018631	28.664770	164.716833
37336		-4.742047	-1.086834	8.601976	-0.003267	0.011363	0.003150	-0.903564	0.152588	-0.472168	-7.018772	28.671399	164.715751
37337		-4.777322	-1.044861	8.596769	-0.001323	0.007293	0.000582	-0.904785	0.146240	-0.477783	-7.018091	28.678538	164.713467
37338		-4.757159	-1.086135	8.580910	-0.000069	0.007329	0.005354	-0.906006	0.152344	-0.479980	-7.015559	28.683027	164.714136
37339		-4.781823	-1.064415	8.568107	0.000731	0.005786	0.006633	-0.911133	0.147461	-0.481201	-7.011763	28.689724	164.715895
37340		-4.844478	-1.014265	8.582148	0.001078	0.002665	0.004421	-0.900879	0.149658	-0.481689	-7.008686	28.691496	164.716331
37341		-4.813584	-1.001987	8.591107	-0.003020	-0.000732	0.001062	-0.914795	0.156738	-0.483887	-7.008523	28.694093	164.714999
37342		-4.706703	-1.040677	8.606099	-0.006839	0.000079	0.000844	-0.911865	0.154541	-0.483643	-7.010996	28.694144	164.713323
37343		-4.745022	-1.086800	8.600340	-0.002292	0.007191	0.004782	-0.908691	0.155029	-0.479492	-7.009558	28.701498	164.713772
37344		-4.811289	-1.057203	8.586086	-0.007713	0.011088	0.002006	-0.912109	0.159668	-0.489258	-7.012592	28.707891	164.711971
37345		-4.739890	-1.053678	8.595786	-0.000249	0.012096	0.002091	-0.900391	0.147217	-0.477051	-7.011012	28.717838	164.710284
37346		-4.785520	-1.065297	8.565933	-0.006289	0.010632	0.004215	-0.911621	0.154053	-0.484375	-7.012526	28.724126	164.709951
37347		-4.814171	-1.057787	8.584399	-0.003892	0.008140	0.005139	-0.909912	0.157227	-0.484131	-7.011934	28.732027	164.710555
37348		-4.838742	-1.036430	8.571583	-0.002744	0.003476	0.004204	-0.908447	0.151123	-0.485352	-7.011145	28.734244	164.710787
37349		-4.838835	-1.036599	8.571509	-0.003645	-0.001818	0.000132	-0.914795	0.153076	-0.483643	-7.011592	28.736129	164.708938
37350		-4.783449	-1.046239	8.593193	-0.007913	-0.006860	0.002249	-0.902588	0.148438	-0.485352	-7.013977	28.732332	164.708726
37351		-4.762631	-1.081770	8.637422	-0.002497	-0.006483	-0.000803	-0.906006	0.158447	-0.485596	-7.013878	28.731493	164.706644
37352		-4.679283	-1.030933	8.612872	-0.002398	0.002492	-0.000923	-0.906738	0.153076	-0.479736	-7.014452	28.732793	164.703629
37353		-4.749081	-1.015161	8.630193	-0.007715	0.011090	0.002009	-0.905273	0.144531	-0.481445	-7.017141	28.742127	164.701968
37354		-4.784316	-0.973998	8.624901	-0.014035	0.007557	-0.001925	-0.904785	0.163086	-0.479004	-7.024890	28.746236	164.697898
37355		-4.842889	-1.060419	8.542545	-0.016883	0.006334	-0.003426	-0.909912	0.150146	-0.484375	-7.034339	28.752472	164.693094
37356		-4.777859	-1.091788	8.555909	-0.014486	0.003841	-0.002503	-0.913330	0.142822	-0.487793	-7.042385	28.754427	164.688944
37357		-4.847228	-1.076795	8.573355	-0.010490	0.000400	-0.001936	-0.914795	0.152100	-0.474121	-7.047484	28.757389	164.685579
37358		-4.825844	-1.051176	8.530683	-0.012363	-0.004996	-0.001812	-0.908936	0.145264	-0.481201	-7.053757	28.754367	164.682586
37359		-4.767235	-1.109176	8.607685	-0.002146	-0.011742	-0.000108	-0.909668	0.149658	-0.474609	-7.053038	28.750550	164.681381
37360		-4.755765	-1.062086	8.573159	-0.008261	-0.005880	0.007377	-0.905273	0.151611	-0.483643	-7.054060	28.747672	164.684419
37361		-4.824418	-1.046161	8.591143	-0.001697	-0.008026	0.000473	-0.909180	0.151367	-0.487061	-7.053050	28.745998	164.683290
37362		-4.799596	-1.067922	8.604024	-0.005171	-0.010335	-0.001958	-0.911865	0.155518	-0.486084	-7.055042	28.739930	164.680632
37363		-4.787866	-1.021244	8.569604	-0.008818	-0.012152	-0.001824	-0.911621	0.155762	-0.489014	-7.058670	28.735741	164.678345
37364		-4.776365	-1.042810	8.562328	-0.008646	-0.012642	-0.004388	-0.907959	0.154297	-0.478760	-7.063319	28.728189	164.674297
37365		-4.768518	-1.078209	8.586544	-0.010071	-0.014323	-0.003681	-0.907715	0.150391	-0.485352	-7.068156	28.722627	164.670984
37366		-4.705048	-1.128936	8.572786	-0.007050	-0.013590	-0.004743	-0.914307	0.144531	-0.487793	-7.071964	28.714511	164.666784
37367		-4.728022	-1.107804	8.560878	0.003893	-0.010276	-0.002233	-0.912842	0.153809	-0.483154	-7.068512	28.711338	164.664082
37368		-4.830945	-1.049514	8.574388	-0.003469	-0.006587	0.003397	-0.908447	0.158691	-0.481445	-7.068003	28.707778	164.664596
37369		-4.895620	-0.945503	8.593647	0.002190	-0.016162	-0.004670	-0.911621	0.152832	-0.479980	-7.066062	28.701079	164.660785
37370		-4.773150	-1.059241	8.597327	-0.009548	-0.024350	0.000286	-0.909912	0.147217	-0.481445	-7.069318	28.687199	164.660711
37371		-4.678576	-1.091621	8.652331	-0.009731	-0.017441	-0.005887	-0.914307	0.147705	-0.481934	-7.074528	28.679684	164.656219
37372		-4.725117	-1.123661	8.595714	-0.003576	-0.013421	0.000605	-0.907227	0.152588	-0.490479	-7.074685	28.672041	164.655474
37373		-4.809803	-1.058820	8.538794	-0.003748	-0.012931	0.003170	-0.914307	0.153076	-0.483154	-7.073830	28.667709	164.656487
37374		-4.843282	-1.010867	8.594432	-0.004483	-0.020850	-0.000552	-0.900879	0.154297	-0.476318	-7.074578	28.655761	164.655590
37375		-4.844565	-1.031199	8.567463	-0.005734	-0.025159	0.000508	-0.905273	0.150879	-0.478271	-7.075215	28.644286	164.655863
37376		-4.748853	-1.069476	8.563308	-0.007105	-0.032022	-0.007052	-0.907471	0.145996	-0.481445	-7.079053	28.625527	164.651654
37377		-4.694908	-1.093540	8.617407	-0.012244	-0.026058	-0.003758	-0.909912	0.146484	-0.479736	-7.084708	28.613235	164.649238
37378		-4.641214	-1.123661	8.611629	-0.007690	-0.016811	-0.002740	-0.911621	0.147461	-0.482178	-7.088126	28.603429	164.646602
37379		-4.674584	-1.082133	8.607584	-0.003930	-0.008161	-0.000087	-0.905518	0.155518	-0.482666	-7.088574	28.601551	164.645122
37380		-4.708556	-1.040299	8.603261	-0.002848	-0.003362	0.001418	-0.903320	0.146484	-0.478271	-7.088447	28.599685	164.644096
37381		-4.687602	-1.081698	8.587691	-0.001593	-0.001192	0.003273	-0.906006	0.151367	-0.483887	-7.086784	28.601990	164.644230
37382		-4.791203	-1.097781	8.568536	-0.004961	0.003334	0.003642	-0.908203	0.157959	-0.477051	-7.087436	28.604088	164.644106
37383		-4.839339	-1.054840	8.543782	0.003200	-0.004037	0.002195	-0.910645	0.147461	-0.481445	-7.083256	28.604688	164.643769
37384		-4.773515	-1.084729	8.557490	-0.006666	-0.004690	0.004123	-0.907227	0.143799	-0.481201	-7.084427	28.602259	164.644602
37385		-4.759036	-1.085502	8.578143	0.004857	-0.014446	-0.000606	-0.905273	0.148926	-0.479004	-7.079768	28.596739	164.643288
37386		-4.747560	-1.105565	8.570993	0.004979	-0.011894	0.008015	-0.904297	0.148682	-0.487061	-7.072784	28.590488	164.647219
37387		-4.729515	-1.085634	8.619922	0.004355	-0.015119	0.010003	-0.910645	0.147705	-0.480469	-7.065105	28.585325	164.652825
37388		-4.693719	-1.058678	8.598144	0.008799	-0.012706	0.008225	-0.912598	0.148926	-0.482666	-7.055837	28.578626	164.656955
37389		-4.720635	-1.049984	8.617796	0.005432	-0.008180	0.008594	-0.913086	0.160889	-0.479736	-7.048248	28.577292	164.661089
37390		-4.754591	-1.007242	8.613601	0.002402	-0.004632	0.003834	-0.905762	0.147705	-0.480713	-7.044316	28.574875	164.661727
37391		-4.733798	-1.048228	8.598006	0.001089	0.002659	0.004419	-0.916748	0.151855	-0.478516	-7.040920	28.579397	164.662292
37392		-4.706170	-1.055869	8.578872	-0.003818	-0.001327	0.002707	-0.907959	0.152100	-0.476318	-7.041028	28.578780	164.661936
37393		-4.785753	-1.093242	8.572161	0.000288	0.004203	0.003141	-0.906738	0.146729	-0.478516	-7.038546	28.584078	164.661550
37394		-4.761447	-1.046347	8.557500	0.002401	-0.004632	0.003834	-0.910400	0.152588	-0.484131	-7.034614	28.581660	164.662188
37395		-4.805999	-1.051268	8.588181	0.001944	-0.008346	0.003258	-0.913086	0.157959	-0.481201	-7.030671	28.579823	164.662879
37396		-4.729356	-1.101748	8.594278	-0.001538	-0.010652	0.000836	-0.908691	0.153320	-0.481689	-7.029695	28.573773	164.662057
37397		-4.663346	-1.057282	8.640526	0.002233	-0.004143	0.006399	-0.911865	0.151367	-0.479736	-7.024778	28.574538	164.664444
37398		-4.666633	-1.076604	8.612590	0.004911	0.001846	0.004627	-0.901855	0.156494	-0.482666	-7.019411	28.575860	164.665078
37399		-4.763627	-1.058085	8.590025	0.006625	0.007729	0.007057	-0.905762	0.149658	-0.484131	-7.012228	28.583400	164.666945
37400		-4.774543	-1.036646	8.597643	0.003146	0.003285	0.007551	-0.909668	0.150635	-0.477295	-7.007020	28.585744	164.669359
37401		-4.795651	-0.994898	8.613137	0.000289	0.004203	0.003141	-0.910645	0.144287	-0.478271	-7.004546	28.590996	164.668972
