// General information: 
//  MT Manager version: 2022.2.0 
//  XDA version: 2022.2.0 build 7381 rev 124627 built on 2023-07-19
// Device information: 
//  DeviceId: 00B4BCF6
//  ProductCode: MTW2-3A7G6
//  Firmware Version: 4.6.0
//  Hardware Version: 2.0.0
// Device settings: 
//  Filter Profile: human(46.1)
//  Option Flags: Orientation Smoother Disabled, Position/Velocity Smoother Disabled, Continuous Zero Rotation Update Disabled, AHS Disabled, ICC Disabled
// Coordinate system: ENU
PacketCounter	SampleTimeFine	Acc_X	Acc_Y	Acc_Z	Gyr_X	Gyr_Y	Gyr_Z	Mag_X	Mag_Y	Mag_Z	Roll	Pitch	Yaw
20789		-4.439943	1.383687	8.689375	0.001224	0.008810	-0.002072	-0.624512	-0.412109	-0.422607	8.944487	26.528413	111.788518
20790		-4.411991	1.384515	8.735563	-0.002488	0.005188	-0.003506	-0.619141	-0.416504	-0.427734	8.943573	26.527649	111.786664
20791		-4.429133	1.394479	8.706971	-0.002275	0.004228	-0.001959	-0.623047	-0.414307	-0.429688	8.943128	26.526092	111.787321
20792		-4.404091	1.371106	8.704354	-0.001085	0.006652	-0.004248	-0.630127	-0.416016	-0.433838	8.942846	26.526392	111.785929
20793		-4.397608	1.403729	8.711810	-0.001796	0.006845	-0.002135	-0.631104	-0.416992	-0.427979	8.942741	26.526332	111.786736
20794		-4.421379	1.350468	8.726863	-0.002721	0.007998	-0.001568	-0.630371	-0.417236	-0.428711	8.942365	26.526998	111.786314
20795		-4.422704	1.380604	8.675083	-0.000872	0.005692	-0.002702	-0.626953	-0.410889	-0.427734	8.942578	26.526336	111.786647
20796		-4.399553	1.402731	8.710989	-0.006167	0.007953	-0.004725	-0.627197	-0.416992	-0.424805	8.939305	26.527259	111.785137
20797		-4.407241	1.369619	8.702993	0.003497	0.004583	-0.000113	-0.624756	-0.414063	-0.425537	8.942704	26.525739	111.786998
20798		-4.412548	1.391047	8.692414	-0.006666	0.007184	-0.001065	-0.627930	-0.415771	-0.426270	8.940167	26.525921	111.787300
20799		-4.417377	1.381735	8.733281	-0.002935	0.008959	-0.003116	-0.631348	-0.417480	-0.424316	8.939227	26.527145	111.787696
20800		-4.409206	1.368520	8.702171	-0.002702	0.006150	-0.005055	-0.621582	-0.408936	-0.428223	8.937810	26.527031	111.784679
20801		-4.414607	1.389757	8.691574	-0.001798	0.006845	-0.002136	-0.623779	-0.414063	-0.423340	8.937704	26.526971	111.785485
20802		-4.431278	1.369361	8.714346	-0.002011	0.007806	-0.003683	-0.624023	-0.414795	-0.423828	8.937063	26.527800	111.786119
20803		-4.399259	1.378991	8.719405	0.000742	0.006195	-0.001898	-0.632080	-0.412598	-0.422852	8.938452	26.527351	111.787011
20804		-4.399954	1.378785	8.719087	-0.002937	0.008960	-0.003118	-0.624023	-0.412109	-0.436035	8.937536	26.528652	111.786685
20805		-4.421538	1.379979	8.731453	0.000316	0.008118	-0.004993	-0.634766	-0.413086	-0.429199	8.937891	26.529567	111.785810
20806		-4.418083	1.388576	8.689997	-0.000162	0.005501	-0.004817	-0.619385	-0.412109	-0.418701	8.937899	26.529142	111.784598
20807		-4.418736	1.388382	8.689696	-0.000397	0.008310	-0.002880	-0.627197	-0.415039	-0.431396	8.938451	26.529977	111.785080
20808		-4.405786	1.353757	8.668888	-0.002013	0.007807	-0.003685	-0.627930	-0.414307	-0.421387	8.937842	26.530792	111.784831
20809		-4.399434	1.386414	8.676300	-0.001110	0.008502	-0.000766	-0.622314	-0.411377	-0.424561	8.938592	26.531548	111.786669
20810		-4.432178	1.345964	8.722079	-0.002013	0.007807	-0.003686	-0.622803	-0.414795	-0.424561	8.937981	26.532297	111.786472
20811		-4.409030	1.368427	8.757987	0.000954	0.005235	-0.000351	-0.625488	-0.404297	-0.426758	8.939885	26.531167	111.788247
20812		-4.410293	1.398488	8.706238	-0.006170	0.007954	-0.004732	-0.625732	-0.416016	-0.424316	8.936549	26.532134	111.788844
20813		-4.418154	1.365232	8.698148	0.001217	0.008814	-0.002075	-0.628174	-0.417969	-0.427246	8.938276	26.533183	111.789885
20814		-4.432617	1.399337	8.718273	-0.002917	0.007113	-0.006606	-0.621826	-0.406738	-0.426514	8.936346	26.533807	111.785986
20815		-4.419682	1.364601	8.697471	-0.002038	0.009655	-0.000202	-0.623535	-0.412598	-0.426270	8.936775	26.535165	111.788295
20816		-4.436327	1.344340	8.720220	-0.000663	0.004732	-0.001158	-0.627930	-0.421875	-0.432617	8.937461	26.534031	111.790961
20817		-4.388208	1.374167	8.702306	0.000527	0.007158	-0.003447	-0.621094	-0.407715	-0.430908	8.938330	26.534265	111.790968
20818		-4.430448	1.376943	8.727415	-0.001802	0.006846	-0.002140	-0.633789	-0.413330	-0.426514	8.938241	26.534459	111.791121
20819		-4.422153	1.364003	8.696308	-0.000187	0.007350	-0.001334	-0.625244	-0.412842	-0.426025	8.939308	26.534614	111.792485
20820		-4.402095	1.362293	8.683269	-0.002942	0.008961	-0.003123	-0.628906	-0.411377	-0.425293	8.938380	26.535909	111.792320
20821		-4.423504	1.363721	8.695666	0.003493	0.004586	-0.000111	-0.633789	-0.414307	-0.420898	8.941778	26.534390	111.794182
20822		-4.428944	1.385237	8.685000	-0.003868	0.010114	-0.002558	-0.629639	-0.414307	-0.423340	8.940537	26.536208	111.794330
20823		-4.396413	1.364420	8.741562	0.000739	0.006197	-0.001900	-0.625732	-0.418701	-0.428467	8.941923	26.535760	111.795220
20824		-4.413697	1.374532	8.712811	-0.002016	0.007808	-0.003689	-0.624268	-0.416992	-0.434082	8.941360	26.536503	111.793345
20825		-4.419163	1.395813	8.702169	-0.001090	0.006656	-0.004255	-0.622559	-0.412354	-0.426514	8.941054	26.536524	111.792792
20826		-4.407376	1.376304	8.771493	-0.003632	0.007305	-0.004496	-0.631592	-0.416748	-0.435059	8.939270	26.537198	111.791682
20827		-4.411626	1.382376	8.670752	0.001927	0.008624	-0.004190	-0.629883	-0.409912	-0.424805	8.940797	26.538328	111.791365
20828		-4.465282	1.343294	8.729145	-0.003845	0.008267	-0.006045	-0.628174	-0.409668	-0.423096	8.938491	26.539511	111.789166
20829		-4.426352	1.385650	8.742001	-0.001116	0.008503	-0.000771	-0.633789	-0.418701	-0.423584	8.939236	26.540268	111.791000
20830		-4.418187	1.372413	8.710868	-0.007101	0.009108	-0.004175	-0.622314	-0.417480	-0.420898	8.935659	26.541672	111.789524
20831		-4.425919	1.338933	8.702845	-0.002493	0.005191	-0.003515	-0.630127	-0.404297	-0.429932	8.934693	26.540799	111.789293
20832		-4.386749	1.381464	8.715814	0.000737	0.006198	-0.001901	-0.630859	-0.414307	-0.435059	8.936056	26.540478	111.790923
20833		-4.408104	1.382837	8.728236	-0.001592	0.005886	-0.000595	-0.625244	-0.417969	-0.425049	8.936462	26.539738	111.792609
20834		-4.436480	1.351141	8.732923	-0.002493	0.005191	-0.003515	-0.629395	-0.417725	-0.422852	8.935545	26.539028	111.790791
20835		-4.409091	1.382431	8.727801	0.000235	0.005427	0.001760	-0.618164	-0.413574	-0.416748	8.937643	26.537819	111.793921
20836		-4.421528	1.370806	8.709426	-0.006176	0.007956	-0.004742	-0.629395	-0.412598	-0.428711	8.934401	26.538740	111.792099
20837		-4.406074	1.390711	8.686149	0.003491	0.004587	-0.000110	-0.624023	-0.412354	-0.425293	8.937799	26.537221	111.793962
20838		-4.429781	1.337438	8.701109	-0.007103	0.009109	-0.004178	-0.627686	-0.414063	-0.425781	8.934177	26.538766	111.793785
20839		-4.395776	1.401206	8.703626	-0.001545	0.010428	-0.003869	-0.621826	-0.410645	-0.416748	8.933886	26.540888	111.793850
20840		-4.410561	1.335216	8.687742	-0.000666	0.004733	-0.001160	-0.618408	-0.410645	-0.428711	8.934620	26.539653	111.795301
20841		-4.424814	1.369415	8.707976	-0.000879	0.005695	-0.002709	-0.624512	-0.409424	-0.420166	8.934828	26.538993	111.795630
20842		-4.441934	1.379423	8.679289	-0.002494	0.005192	-0.003517	-0.624756	-0.416992	-0.423584	8.933819	26.538339	111.797040
20843		-4.425930	1.368686	8.707524	-0.003635	0.007307	-0.004501	-0.624268	-0.413330	-0.423584	8.932013	26.538751	111.796396
20844		-4.402886	1.391149	8.743500	0.002562	0.005740	0.000455	-0.623047	-0.404053	-0.426270	8.935135	26.537990	111.797707
20845		-4.389602	1.356736	8.722807	-0.002495	0.005192	-0.003517	-0.627686	-0.410645	-0.429199	8.934167	26.537117	111.797474
20846		-4.406805	1.366569	8.694101	-0.002921	0.007116	-0.006615	-0.623535	-0.413330	-0.434570	8.932082	26.537772	111.797869
20847		-4.449165	1.369051	8.719131	-0.002736	0.008001	-0.001581	-0.628418	-0.415039	-0.430176	8.931647	26.538317	111.799141
20848		-4.396261	1.377146	8.711704	-0.002282	0.004230	-0.001969	-0.628174	-0.416748	-0.421143	8.931208	26.536998	111.799281
20849		-4.375983	1.375294	8.698831	-0.003636	0.007307	-0.004503	-0.622070	-0.410889	-0.435547	8.929401	26.537410	111.798635
20850		-4.402188	1.397896	8.700918	-0.002495	0.005192	-0.003518	-0.632568	-0.414307	-0.431396	8.928449	26.536733	111.797978
20851		-4.437577	1.333308	8.697770	-0.002311	0.006077	0.001516	-0.624023	-0.416748	-0.423584	8.929047	26.535913	111.801018
20852		-4.402691	1.366820	8.751965	-0.004323	0.005651	-0.005876	-0.629395	-0.416260	-0.427490	8.926436	26.535625	111.797864
20853		-4.410797	1.363862	8.692502	-0.002496	0.005193	-0.003519	-0.625244	-0.410645	-0.434570	8.925467	26.534753	111.797630
20854		-4.415548	1.354746	8.733418	-0.001597	0.005887	-0.000598	-0.631836	-0.408691	-0.430176	8.925876	26.534193	111.798948
20855		-4.423688	1.352071	8.673887	-0.001095	0.006659	-0.004260	-0.629639	-0.413086	-0.432373	8.925566	26.534217	111.798392
20856		-4.421589	1.375819	8.722522	-0.002739	0.008002	-0.001583	-0.634033	-0.414795	-0.424561	8.925101	26.534857	111.800083
20857		-4.401339	1.374148	8.709613	0.000046	0.004544	-0.003275	-0.622559	-0.403076	-0.433838	8.925628	26.533596	111.799940
20858		-4.422589	1.375380	8.722084	-0.002283	0.004230	-0.001971	-0.629395	-0.410156	-0.433594	8.925120	26.532158	111.802037
20859		-4.422948	1.375226	8.721926	-0.000456	0.003772	0.000387	-0.622559	-0.412354	-0.427734	8.926360	26.530134	111.804134
20860		-4.402680	1.373469	8.709042	-0.003851	0.008271	-0.006055	-0.629395	-0.414551	-0.427979	8.924007	26.531430	111.803276
20861		-4.419418	1.353007	8.731730	0.000732	0.006200	-0.001902	-0.624512	-0.410400	-0.430176	8.925389	26.530985	111.804165
20862		-4.413435	1.416077	8.687852	-0.004827	0.004879	-0.002216	-0.623047	-0.417480	-0.428711	8.923437	26.529977	111.804708
20863		-4.437103	1.362587	8.702792	-0.001309	0.007622	-0.005810	-0.624756	-0.413330	-0.426025	8.922608	26.530684	111.803267
20864		-4.388604	1.361927	8.736463	-0.000198	0.007353	-0.001339	-0.629395	-0.414551	-0.434814	8.923714	26.531057	111.803468
20865		-4.422388	1.382353	8.679190	-0.001812	0.006850	-0.002148	-0.626709	-0.415039	-0.432617	8.923597	26.531002	111.804266
20866		-4.413916	1.369391	8.648142	-0.000883	0.005697	-0.002712	-0.626221	-0.410645	-0.422363	8.923828	26.530546	111.803665
20867		-4.411167	1.362912	8.748306	0.000944	0.005238	-0.000354	-0.628174	-0.409668	-0.434814	8.925727	26.529419	111.805438
20868		-4.423977	1.381779	8.678471	-0.004325	0.005652	-0.005880	-0.625244	-0.413574	-0.429688	8.923028	26.529151	111.804759
20869		-4.419788	1.359929	8.688550	0.003060	0.006515	-0.003207	-0.623535	-0.413086	-0.429443	8.925389	26.528999	111.804854
20870		-4.396777	1.382405	8.724593	-0.002498	0.005194	-0.003522	-0.622070	-0.418457	-0.425781	8.924427	26.528356	111.804458
20871		-4.397226	1.382075	8.724419	-0.002285	0.004231	-0.001973	-0.629883	-0.417969	-0.431885	8.923973	26.526802	111.805108
20872		-4.409488	1.370622	8.706046	0.000730	0.006201	-0.001903	-0.630127	-0.418213	-0.427246	8.925446	26.526550	111.803498
20873		-4.405205	1.348963	8.716144	-0.000671	0.004735	-0.001163	-0.623779	-0.418701	-0.432373	8.926168	26.525210	111.804709
20874		-4.410430	1.370536	8.705583	0.000943	0.005239	-0.000354	-0.627441	-0.408447	-0.424072	8.928159	26.524265	111.803860
20875		-4.415198	1.361523	8.746488	-0.002498	0.005194	-0.003523	-0.636963	-0.411865	-0.425781	8.927188	26.523394	111.803624
20876		-4.411512	1.370230	8.705082	0.002130	0.007668	-0.002644	-0.623291	-0.414795	-0.424072	8.929207	26.523799	111.804635
20877		-4.407345	1.348588	8.715120	-0.001601	0.005887	-0.000601	-0.626465	-0.409912	-0.429932	8.929605	26.523061	111.806316
20878		-4.417364	1.391841	8.694194	0.003485	0.004590	-0.000107	-0.622314	-0.410889	-0.428955	8.932997	26.521719	111.808486
20879		-4.433779	1.371730	8.716976	-0.002072	0.003268	-0.000424	-0.624268	-0.406250	-0.430176	8.933059	26.519483	111.810019
20880		-4.401541	1.381518	8.722331	0.001658	0.005049	-0.002467	-0.629639	-0.421631	-0.424561	8.934687	26.518676	111.812709
20881		-4.397785	1.390284	8.680947	-0.002531	0.007040	-0.000038	-0.625488	-0.410400	-0.425781	8.934762	26.518540	111.814860
20882		-4.402644	1.381127	8.721836	-0.002499	0.005194	-0.003524	-0.625488	-0.417480	-0.428711	8.933862	26.517762	111.812839
20883		-4.391636	1.391853	8.739706	-0.004281	0.010199	-0.009161	-0.623535	-0.409424	-0.423828	8.930499	26.520226	111.809533
20884		-4.436847	1.370147	8.715664	-0.001099	0.006661	-0.004265	-0.624756	-0.407471	-0.429932	8.930206	26.520426	111.808735
20885		-4.400148	1.358220	8.731232	-0.001133	0.008507	-0.000779	-0.627930	-0.416260	-0.427734	8.930939	26.521187	111.810563
20886		-4.438390	1.369614	8.714962	-0.002456	0.009740	-0.006803	-0.623535	-0.405029	-0.420654	8.929257	26.523341	111.809120
20887		-4.427478	1.380591	8.732749	-0.001133	0.008507	-0.000780	-0.621582	-0.406982	-0.431396	8.929989	26.524102	111.810948
20888		-4.414240	1.346121	8.712012	-0.001604	0.005888	-0.000603	-0.627930	-0.418701	-0.435059	8.930279	26.523557	111.816014
20889		-4.440401	1.368957	8.714041	-0.000887	0.005699	-0.002715	-0.627441	-0.411865	-0.424316	8.930481	26.522900	111.816339
20890		-4.401385	1.411520	8.727172	-0.002534	0.007040	-0.000040	-0.620117	-0.410156	-0.437012	8.930605	26.522915	111.817172
20891		-4.399936	1.365603	8.688269	-0.001313	0.007625	-0.005816	-0.632568	-0.411621	-0.427734	8.929773	26.523625	111.815726
20892		-4.421463	1.366626	8.700599	-0.003431	0.006347	-0.002964	-0.629395	-0.404297	-0.428467	8.928441	26.523566	111.816942
20893		-4.414954	1.399280	8.708233	0.000256	0.003583	-0.001728	-0.619873	-0.415771	-0.426514	8.929484	26.521624	111.817681
20894		-4.401714	1.364783	8.687497	-0.001562	0.010435	-0.003882	-0.628662	-0.413330	-0.424805	8.929145	26.523926	111.818979
20895		-4.406822	1.355558	8.728279	-0.004149	0.006536	-0.000852	-0.626465	-0.413818	-0.421387	8.928042	26.523578	111.820566
20896		-4.433066	1.378244	8.730284	-0.001818	0.006852	-0.002154	-0.628662	-0.411377	-0.435791	8.927965	26.523564	111.820437
20897		-4.370706	1.343135	8.743669	-0.003645	0.007311	-0.004516	-0.619873	-0.411865	-0.427490	8.926151	26.523980	111.819783
20898		-4.429909	1.386432	8.688674	0.000974	0.003394	-0.003841	-0.623779	-0.409668	-0.425049	8.926976	26.522372	111.819872
20899		-4.418556	1.397636	8.706670	-0.000675	0.004736	-0.001166	-0.626709	-0.407227	-0.425049	8.927695	26.521033	111.821082
20900		-4.418734	1.366838	8.757870	-0.005294	0.008652	-0.001842	-0.628418	-0.413330	-0.431152	8.925697	26.522083	111.824028
20901		-4.403203	1.386718	8.734701	0.000256	0.003584	-0.001728	-0.624023	-0.410400	-0.426514	8.926738	26.520142	111.824768
20902		-4.394667	1.373573	8.703695	-0.007121	0.009112	-0.004204	-0.621582	-0.417480	-0.422119	8.923098	26.521707	111.824740
20903		-4.416245	1.374573	8.715993	0.000724	0.006204	-0.001906	-0.624268	-0.405518	-0.418457	8.924475	26.521264	111.825628
20904		-4.425931	1.387177	8.746505	-0.000889	0.005700	-0.002717	-0.626465	-0.411377	-0.425781	8.924691	26.520715	111.825921
20905		-4.396380	1.372707	8.702967	-0.003184	0.003539	-0.004902	-0.625000	-0.415771	-0.421875	8.922863	26.519031	111.824648
20906		-4.396881	1.372334	8.702772	-0.001820	0.006852	-0.002156	-0.625488	-0.414307	-0.420898	8.922786	26.519073	111.824523
20907		-4.418356	1.373417	8.715105	-0.004152	0.006537	-0.000855	-0.624756	-0.410889	-0.426270	8.921681	26.518726	111.826108
20908		-4.418966	1.373075	8.714850	-0.001103	0.006664	-0.004268	-0.630859	-0.412354	-0.427979	8.921392	26.518859	111.825137
20909		-4.403139	1.362364	8.743100	-0.002929	0.007123	-0.006631	-0.628174	-0.412109	-0.427979	8.919382	26.519357	111.823127
20910		-4.396947	1.394993	8.750611	0.001191	0.008825	-0.002084	-0.624756	-0.414551	-0.424561	8.921107	26.520469	111.823996
20911		-4.414099	1.405106	8.721783	-0.002503	0.005196	-0.003530	-0.634766	-0.410400	-0.422852	8.920131	26.519600	111.823756
20912		-4.416787	1.350328	8.724052	-0.000890	0.005700	-0.002718	-0.629395	-0.409424	-0.428955	8.920368	26.518924	111.823510
20913		-4.363939	1.358567	8.716810	-0.002754	0.008005	-0.001596	-0.629150	-0.413818	-0.418701	8.919919	26.519474	111.824772
20914		-4.418110	1.349864	8.723454	0.000509	0.007169	-0.003458	-0.623291	-0.413330	-0.428467	8.920795	26.519707	111.824660
20915		-4.428265	1.392901	8.702495	-0.000891	0.005701	-0.002719	-0.634277	-0.415771	-0.420654	8.920994	26.519052	111.824983
20916		-4.417206	1.403832	8.720416	-0.005299	0.008653	-0.001847	-0.623535	-0.406006	-0.429932	8.919114	26.520021	111.824650
20917		-4.387415	1.358781	8.728268	-0.002504	0.005196	-0.003531	-0.621582	-0.414551	-0.429688	8.918137	26.519152	111.824409
20918		-4.420604	1.348450	8.722409	-0.004368	0.007501	-0.002409	-0.622803	-0.411865	-0.434814	8.916473	26.519763	111.826466
20919		-4.430880	1.391316	8.701417	-0.000424	0.008322	-0.002897	-0.632080	-0.412842	-0.433594	8.917005	26.520607	111.826936
20920		-4.389369	1.357757	8.727445	-0.002504	0.005197	-0.003532	-0.619141	-0.412354	-0.432617	8.916024	26.519956	111.826946
20921		-4.415663	1.380481	8.729397	-0.000425	0.008322	-0.002897	-0.625977	-0.410889	-0.434326	8.916556	26.520800	111.827417
20922		-4.407065	1.367557	8.698372	-0.002291	0.004233	-0.001981	-0.624512	-0.409912	-0.429199	8.916072	26.519585	111.828903
20923		-4.437584	1.381439	8.741507	-0.002330	0.006078	0.001505	-0.623291	-0.405518	-0.433838	8.916656	26.518768	111.831935
20924		-4.408090	1.367135	8.697919	-0.001105	0.006665	-0.004271	-0.627441	-0.411133	-0.423340	8.916249	26.519046	111.833974
20925		-4.417762	1.379662	8.728465	0.000254	0.003585	-0.001729	-0.634277	-0.414063	-0.424561	8.917290	26.517106	111.834713
20926		-4.392914	1.387130	8.674578	0.000720	0.006206	-0.001907	-0.626221	-0.411377	-0.431641	8.918711	26.516605	111.834851
20927		-4.430565	1.368141	8.709735	-0.002038	0.007818	-0.003711	-0.622314	-0.408447	-0.428711	8.918066	26.517237	111.834756
20928		-4.398593	1.377691	8.715126	-0.002505	0.005197	-0.003533	-0.627686	-0.407471	-0.433838	8.917049	26.516597	111.835847
20929		-4.419933	1.378753	8.727509	-0.002292	0.004233	-0.001982	-0.625488	-0.409912	-0.433838	8.916589	26.515046	111.836491
20930		-4.420445	1.378482	8.727293	-0.001826	0.006854	-0.002160	-0.626465	-0.413818	-0.432861	8.916392	26.515212	111.839449
20931		-4.399989	1.376964	8.714537	0.001186	0.002433	-0.002290	-0.627441	-0.413818	-0.421875	8.917757	26.512669	111.839719
20932		-4.441982	1.379706	8.739547	-0.002585	0.002492	0.003233	-0.623291	-0.415527	-0.424805	8.918580	26.509783	111.842428
20933		-4.395667	1.355156	8.724679	-0.000639	0.002893	-0.004655	-0.625732	-0.412842	-0.432373	8.918252	26.507711	111.841249
20934		-4.377601	1.429713	8.699247	-0.001653	0.001340	0.002673	-0.620117	-0.417969	-0.427246	8.919396	26.504319	111.843448
20935		-4.421810	1.378004	8.726677	0.001652	0.005054	-0.002468	-0.620605	-0.410156	-0.421387	8.921094	26.503276	111.843866
20936		-4.410571	1.389267	8.744664	-0.000680	0.004738	-0.001169	-0.623291	-0.406250	-0.429688	8.921869	26.502194	111.843813
20937		-4.406488	1.398221	8.703381	0.002078	0.003126	0.000635	-0.628662	-0.418213	-0.427979	8.924602	26.499784	111.846002
20938		-4.413600	1.365488	8.695383	0.000679	0.001657	0.001374	-0.628662	-0.414795	-0.424561	8.926696	26.496638	111.848467
20939		-4.402057	1.376982	8.713489	0.003011	0.001974	0.000075	-0.624512	-0.415527	-0.426270	8.929754	26.493626	111.850187
20940		-4.397503	1.355623	8.723681	0.002078	0.003126	0.000635	-0.636719	-0.412598	-0.426758	8.932577	26.491312	111.850497
20941		-4.395458	1.410338	8.721127	0.002545	-0.000648	0.000253	-0.631836	-0.413818	-0.431641	8.935301	26.486800	111.852068
20942		-4.402667	1.377240	8.713140	-0.006703	0.007185	-0.001115	-0.622559	-0.414063	-0.423584	8.932742	26.486772	111.852668
20943		-4.419169	1.356968	8.735848	0.005556	0.001326	0.000328	-0.620605	-0.418457	-0.431152	8.937300	26.483370	111.854482
20944		-4.412423	1.390132	8.743592	0.000466	0.002621	-0.000178	-0.628174	-0.411865	-0.434814	8.938951	26.481038	111.854113
20945		-4.382594	1.376051	8.700145	-0.000467	0.003773	0.000382	-0.627686	-0.416748	-0.419678	8.940182	26.479017	111.856205
20946		-4.382825	1.376084	8.700024	0.001399	0.001469	-0.000739	-0.611572	-0.413086	-0.423584	8.942132	26.475881	111.856077
20947		-4.420028	1.357348	8.735354	-0.000254	0.002809	0.001934	-0.626221	-0.411621	-0.430420	8.943879	26.473176	111.859054
20948		-4.409016	1.399196	8.701944	0.001652	0.005054	-0.002469	-0.621826	-0.409424	-0.429932	8.945587	26.472486	111.859940
20949		-4.404745	1.377535	8.712044	-0.001614	0.005890	-0.000610	-0.631348	-0.416748	-0.422852	8.945975	26.471751	111.861615
20950		-4.400727	1.386325	8.670745	0.000253	0.003586	-0.001730	-0.629395	-0.414551	-0.426270	8.947058	26.469921	111.861786
20951		-4.382131	1.400006	8.748115	-0.001188	0.003962	0.002493	-0.616211	-0.409424	-0.427979	8.948479	26.467818	111.865231
20952		-4.398989	1.410114	8.719383	-0.002505	0.005198	-0.003536	-0.624512	-0.417725	-0.431396	8.947514	26.467185	111.865356
20953		-4.422507	1.356753	8.734192	0.000040	0.004550	-0.003283	-0.636963	-0.411377	-0.430420	8.948036	26.465930	111.865208
20954		-4.369791	1.395737	8.675669	0.000931	0.005243	-0.000357	-0.629395	-0.410889	-0.425781	8.949992	26.464876	111.865591
20955		-4.407354	1.376738	8.710850	-0.003439	0.006350	-0.002977	-0.626465	-0.411865	-0.428467	8.948687	26.464612	111.865815
20956		-4.407888	1.376540	8.710611	0.001651	0.005055	-0.002469	-0.624268	-0.415039	-0.432129	8.950397	26.463645	111.866554
20957		-4.392048	1.366095	8.738892	-0.002041	0.007819	-0.003716	-0.626953	-0.407959	-0.427490	8.949750	26.464278	111.866457
20958		-4.425573	1.386393	8.681488	-0.000174	0.005515	-0.004835	-0.626709	-0.409912	-0.430176	8.949756	26.463903	111.866015
20959		-4.393376	1.365497	8.738317	-0.002975	0.008971	-0.003156	-0.627197	-0.407959	-0.430420	8.948783	26.465139	111.866386
20960		-4.415348	1.396925	8.699098	-0.003653	0.007315	-0.004530	-0.629150	-0.406494	-0.425781	8.946911	26.465711	111.867620
20961		-4.406457	1.353260	8.719529	-0.003440	0.006350	-0.002978	-0.634766	-0.409668	-0.425537	8.945605	26.465448	111.867843
20962		-4.388880	1.427466	8.693931	-0.004588	0.008467	-0.003971	-0.627197	-0.414307	-0.429443	8.943417	26.466382	111.869361
20963		-4.389401	1.396164	8.745084	-0.008024	0.008422	-0.007152	-0.627441	-0.412842	-0.426270	8.938400	26.467662	111.867151
20964		-4.397127	1.362558	8.736889	-0.002977	0.008972	-0.003158	-0.627930	-0.409912	-0.427490	8.937487	26.469015	111.866634
20965		-4.435322	1.373594	8.720512	-0.005693	0.008740	-0.008451	-0.633545	-0.412354	-0.428955	8.933454	26.470591	111.863634
20966		-4.389508	1.348568	8.705517	-0.004376	0.007503	-0.002420	-0.626953	-0.421631	-0.425049	8.931836	26.470938	111.864600
20967		-4.408756	1.373578	8.766706	0.000289	0.008138	-0.005015	-0.626221	-0.414063	-0.428467	8.932172	26.471868	111.863713
20968		-4.421579	1.392629	8.696621	0.000031	0.010947	-0.003082	-0.625488	-0.418701	-0.421387	8.933180	26.474350	111.861056
20969		-4.412973	1.349243	8.716856	-0.000646	0.009291	-0.004457	-0.623047	-0.408936	-0.420166	8.933189	26.475882	111.860637
20970		-4.395091	1.393263	8.742688	-0.000684	0.004739	-0.001172	-0.629639	-0.416016	-0.426270	8.933982	26.474626	111.860636
20971		-4.386384	1.380582	8.711657	0.001391	0.007866	-0.000537	-0.625244	-0.422119	-0.426270	8.936200	26.475003	111.862554
20972		-4.419628	1.370659	8.705588	-0.000221	0.007361	-0.001352	-0.623535	-0.410400	-0.423096	8.937419	26.475269	111.859973
20973		-4.408678	1.381752	8.723507	-0.002045	0.007821	-0.003720	-0.623535	-0.409180	-0.429199	8.936769	26.475904	111.859873
20974		-4.376772	1.391607	8.728917	0.001603	0.006901	0.001016	-0.629150	-0.410645	-0.421875	8.939479	26.475782	111.864295
20975		-4.400713	1.368936	8.692118	-0.002767	0.008008	-0.001608	-0.630371	-0.411133	-0.421875	8.939018	26.476335	111.865549
20976		-4.405642	1.329534	8.784291	0.002492	0.007594	0.003942	-0.624756	-0.410645	-0.427734	8.943144	26.476072	111.870397
20977		-4.533813	1.153753	8.876296	0.009213	0.019614	0.020963	-0.633301	-0.408936	-0.422607	8.956427	26.481181	111.887079
20978		-4.473251	1.443846	8.756018	0.020880	0.010272	0.032856	-0.629883	-0.417480	-0.432129	8.979314	26.479933	111.911290
20979		-4.434948	1.550979	8.665839	0.025368	0.016425	0.025420	-0.635986	-0.412598	-0.429688	9.002970	26.482827	111.930475
20980		-4.414187	1.391913	8.719104	0.027703	0.010347	0.023921	-0.633301	-0.410156	-0.428223	9.027358	26.482414	111.946148
20981		-4.535126	1.252030	8.818910	0.034609	0.008594	0.026796	-0.628418	-0.414307	-0.426270	9.056346	26.480738	111.965418
20982		-4.588592	1.278529	8.773648	0.038255	-0.005115	0.031133	-0.625977	-0.407959	-0.426025	9.088053	26.470898	111.985676
20983		-4.413048	1.505508	8.753616	0.043668	-0.017433	0.041316	-0.625000	-0.419678	-0.424805	9.125138	26.453162	112.011480
20984		-4.433981	1.488674	8.717379	0.047599	-0.023004	0.040626	-0.630615	-0.421631	-0.427002	9.164062	26.432472	112.035622
20985		-4.349943	1.433996	8.670333	0.042546	-0.023551	0.036621	-0.624268	-0.415283	-0.423096	9.198875	26.411674	112.057802
20986		-4.282159	1.458796	8.682194	0.040038	-0.024748	0.032875	-0.632080	-0.418213	-0.428223	9.231279	26.390650	112.074268
20987		-4.347485	1.489435	8.709565	0.035927	-0.013658	0.028702	-0.629883	-0.409668	-0.423096	9.260502	26.376153	112.092432
20988		-4.369019	1.440649	8.724844	0.035079	-0.016205	0.022296	-0.629883	-0.416748	-0.426514	9.287371	26.360811	112.105436
20989		-4.446324	1.429370	8.785435	0.038244	-0.013339	0.027387	-0.624023	-0.414063	-0.431641	9.317549	26.346600	112.122782
20990		-4.542033	1.344462	8.871645	0.048812	-0.017855	0.031492	-0.627441	-0.403809	-0.423096	9.354773	26.329673	112.141426
20991		-4.386351	1.402783	8.740545	0.045640	-0.027048	0.041469	-0.627930	-0.409180	-0.432617	9.392474	26.306379	112.166201
20992		-4.334655	1.598746	8.656280	0.039706	-0.028298	0.034558	-0.621826	-0.421143	-0.426514	9.424625	26.283170	112.190760
20993		-4.271592	1.543982	8.622035	0.030570	-0.024166	0.026222	-0.633545	-0.418213	-0.424805	9.449535	26.262913	112.206188
20994		-4.287953	1.472901	8.648327	0.025586	-0.020181	0.018950	-0.628174	-0.423828	-0.425781	9.469895	26.245779	112.214335
20995		-4.286314	1.505788	8.597148	0.018439	-0.015608	0.018010	-0.632813	-0.415039	-0.431396	9.485949	26.231124	112.225468
20996		-4.294079	1.520400	8.628223	0.008429	-0.012183	0.006771	-0.624512	-0.417480	-0.431641	9.493436	26.219633	112.226913
20997		-4.325742	1.511695	8.622915	0.010300	-0.008099	0.005839	-0.633057	-0.406006	-0.427490	9.501781	26.210368	112.231163
20998		-4.470702	1.493375	8.762727	0.005252	-0.015050	0.001682	-0.625732	-0.415283	-0.426270	9.505724	26.197787	112.233800
20999		-4.443361	1.470923	8.761453	0.005137	-0.024123	0.008262	-0.634766	-0.416748	-0.425537	9.511035	26.179237	112.237883
21000		-4.348156	1.552847	8.717040	0.006535	-0.022659	0.007515	-0.629883	-0.419189	-0.431885	9.517086	26.161720	112.240680
21001		-4.413529	1.449659	8.761231	0.009791	-0.023506	0.005651	-0.633301	-0.416016	-0.423096	9.524363	26.143765	112.243179
21002		-4.524960	1.371642	8.820228	0.015732	-0.030498	0.008874	-0.631348	-0.416016	-0.430420	9.535721	26.121701	112.245070
21003		-4.421903	1.387647	8.748263	0.025756	-0.042169	0.016435	-0.627441	-0.414795	-0.427246	9.554257	26.092176	112.252370
21004		-4.315670	1.428799	8.725130	0.029853	-0.040452	0.020950	-0.631836	-0.411377	-0.427490	9.576500	26.063453	112.262560
21005		-4.335304	1.409755	8.690280	0.033512	-0.043212	0.022177	-0.641357	-0.418701	-0.427246	9.600998	26.032786	112.273331
21006		-4.231327	1.526891	8.653586	0.024383	-0.039087	0.013867	-0.640625	-0.417236	-0.421387	9.618192	26.005262	112.278531
21007		-4.235194	1.496360	8.647176	0.017721	-0.031895	0.012754	-0.635254	-0.418213	-0.424805	9.631555	25.981884	112.284560
21008		-4.265054	1.488581	8.642732	0.015657	-0.028624	0.012318	-0.636230	-0.408447	-0.420898	9.643874	25.960324	112.288218
21009		-4.236704	1.567361	8.676785	0.010196	-0.019015	0.008913	-0.635010	-0.417725	-0.422852	9.652462	25.944588	112.293196
21010		-4.378746	1.503937	8.779109	0.008136	-0.015745	0.008481	-0.633301	-0.417480	-0.421387	9.659908	25.930722	112.298914
21011		-4.346986	1.490270	8.736593	0.006020	-0.025260	0.007680	-0.636230	-0.424316	-0.419678	9.665468	25.911576	112.302445
21012		-4.457583	1.512768	8.831454	0.015677	-0.030481	0.008832	-0.625977	-0.418213	-0.419922	9.676814	25.889409	112.302492
21013		-4.517629	1.448786	8.783870	0.010098	-0.046439	0.004688	-0.639893	-0.413818	-0.427734	9.682895	25.858589	112.301869
21014		-4.432926	1.535734	8.812073	0.015382	-0.063236	0.018119	-0.635010	-0.411621	-0.422363	9.694942	25.817165	112.307629
21015		-4.521198	1.663847	8.831068	0.016782	-0.076308	0.028759	-0.638184	-0.417725	-0.427246	9.710024	25.767151	112.318888
21016		-4.340614	1.585722	8.705437	0.009677	-0.088126	0.035763	-0.645020	-0.415771	-0.422607	9.722400	25.709901	112.333349
21017		-4.136352	1.399578	8.632325	0.008723	-0.086957	0.036295	-0.630127	-0.420410	-0.429443	9.734380	25.653139	112.348150
21018		-3.915369	1.433534	8.605761	0.003161	-0.065476	0.028256	-0.632568	-0.418701	-0.423340	9.742074	25.609467	112.358347
21019		-4.074634	1.693223	8.586650	0.001715	-0.040423	0.028213	-0.632324	-0.416260	-0.423584	9.749981	25.579763	112.373063
21020		-4.195230	1.674362	8.716152	-0.003034	-0.029157	0.026199	-0.636963	-0.419189	-0.422119	9.755230	25.556947	112.387207
21021		-4.092244	1.511704	8.621486	-0.006700	-0.026391	0.024978	-0.636963	-0.421631	-0.422607	9.758077	25.535478	112.401396
21022		-3.961244	1.480500	8.556310	-0.005150	-0.005770	0.024808	-0.639893	-0.420410	-0.419189	9.762900	25.525856	112.414574
21023		-4.118674	1.481075	8.627385	-0.013911	0.016557	0.018688	-0.631592	-0.419922	-0.426025	9.761906	25.529248	112.429446
21024		-4.129891	1.393402	8.622291	-0.011817	0.019676	0.019298	-0.642090	-0.419434	-0.417969	9.762600	25.534575	112.442232
21025		-3.840557	1.308948	8.546467	-0.016435	0.041856	0.014206	-0.629150	-0.415527	-0.424072	9.760130	25.552688	112.457024
21026		-3.887275	1.151003	8.637868	-0.011658	0.078019	0.004242	-0.641357	-0.413086	-0.420898	9.759511	25.592360	112.468100
21027		-5.079634	1.452107	9.329259	-0.025249	0.066652	-0.029185	-0.631104	-0.412842	-0.424316	9.741416	25.628688	112.458394
21028		-4.075338	1.629877	8.513226	-0.021177	0.020931	-0.012718	-0.643799	-0.406494	-0.427002	9.727980	25.637730	112.454935
21029		-4.348296	1.427551	8.848511	-0.037846	0.047953	-0.032894	-0.638428	-0.413086	-0.420654	9.700776	25.663851	112.440871
21030		-4.292790	1.072656	8.896522	-0.029741	0.022097	-0.031600	-0.638184	-0.417969	-0.425781	9.677294	25.675187	112.426259
21031		-4.407497	1.571363	8.786483	-0.039033	0.019031	-0.029846	-0.637207	-0.421143	-0.424805	9.648881	25.684667	112.410989
21032		-4.459949	1.803096	8.671862	-0.052057	-0.004156	-0.036850	-0.629883	-0.410400	-0.421875	9.610177	25.681849	112.385114
21033		-4.361723	1.664369	8.757283	-0.069846	-0.016068	-0.045885	-0.631592	-0.414063	-0.424561	9.558138	25.673011	112.356061
21034		-4.320945	1.567582	8.788598	-0.085415	-0.030345	-0.049495	-0.642578	-0.413574	-0.419678	9.495556	25.656732	112.325231
21035		-4.273091	1.532729	8.776188	-0.091572	-0.024230	-0.057748	-0.631836	-0.406494	-0.424805	9.427503	25.644342	112.287915
21036		-4.222756	1.652297	8.796523	-0.089484	-0.014705	-0.056957	-0.631348	-0.413574	-0.415039	9.361284	25.637289	112.253547
21037		-4.234147	1.439796	8.898746	-0.082012	0.003477	-0.057194	-0.636719	-0.408203	-0.417480	9.300117	25.640437	112.219469
21038		-4.309585	1.424129	8.919618	-0.067274	0.005196	-0.051910	-0.636719	-0.408691	-0.425049	9.248940	25.644096	112.190016
21039		-4.166047	1.566946	8.764316	-0.055009	0.012104	-0.050125	-0.637451	-0.411133	-0.430908	9.205535	25.651417	112.161243
21040		-4.042571	1.635456	8.634043	-0.061700	0.038432	-0.065848	-0.640381	-0.409424	-0.421631	9.155166	25.675236	112.126187
21041		-4.197552	1.498074	8.778317	-0.058274	0.055778	-0.080832	-0.637939	-0.407959	-0.417969	9.103412	25.710010	112.082518
21042		-4.187699	1.379223	8.768920	-0.058326	0.064030	-0.077173	-0.634277	-0.412842	-0.423584	9.052960	25.748990	112.042862
21043		-4.273137	1.355240	8.827798	-0.051652	0.069640	-0.075701	-0.631592	-0.411865	-0.426025	9.006910	25.791079	112.003706
21044		-4.389522	1.276621	8.841988	-0.041103	0.073364	-0.067955	-0.647461	-0.411865	-0.424805	8.969220	25.834763	111.969409
21045		-4.439618	1.188516	8.918483	-0.028310	0.061912	-0.055168	-0.634521	-0.414307	-0.424316	8.941751	25.870600	111.942313
21046		-4.528834	1.220505	8.915485	-0.018370	0.044806	-0.034124	-0.633789	-0.418945	-0.421631	8.925102	25.894747	111.924459
21047		-4.371563	1.389726	8.736433	-0.013617	0.030825	-0.025364	-0.632813	-0.412354	-0.427490	8.912867	25.910326	111.913010
21048		-4.295414	1.373091	8.725967	-0.014125	0.030047	-0.021707	-0.635986	-0.404785	-0.416992	8.901455	25.925282	111.901199
21049		-4.286505	1.381987	8.743169	-0.019478	0.027758	-0.020490	-0.625000	-0.410645	-0.422852	8.887062	25.938688	111.892505
21050		-4.189825	1.394043	8.668980	-0.025727	0.031173	-0.021986	-0.630371	-0.410889	-0.421631	8.868786	25.954248	111.885873
21051		-4.227582	1.295507	8.715828	-0.030798	0.043417	-0.025556	-0.633301	-0.415527	-0.420166	8.847173	25.976961	111.875514
21052		-4.332635	1.437697	8.721305	-0.039428	0.048353	-0.022274	-0.633545	-0.410400	-0.421387	8.821829	26.002242	111.866519
21053		-4.338840	1.378736	8.722240	-0.038466	0.038978	-0.026558	-0.631104	-0.404053	-0.426025	8.795336	26.022521	111.855069
21054		-4.405041	1.347221	8.810019	-0.044553	0.043265	-0.023027	-0.627686	-0.411865	-0.430664	8.766470	26.044972	111.848390
21055		-4.325442	1.337119	8.758566	-0.045032	0.040649	-0.022869	-0.631104	-0.405518	-0.426025	8.737288	26.065866	111.839402
21056		-4.257028	1.285234	8.740185	-0.042753	0.042812	-0.020686	-0.635742	-0.413574	-0.434814	8.710089	26.088043	111.833445
21057		-4.317438	1.317560	8.784292	-0.039130	0.054676	-0.015523	-0.628418	-0.408691	-0.424805	8.686905	26.116238	111.830418
21058		-4.184026	1.402354	8.672021	-0.039594	0.063017	-0.018425	-0.629639	-0.403809	-0.426758	8.663052	26.149571	111.825600
21059		-4.158688	1.438295	8.624029	-0.049297	0.088322	-0.029266	-0.637695	-0.405029	-0.432373	8.631625	26.198006	111.817099
21060		-4.246292	1.446429	8.629913	-0.059524	0.095491	-0.033627	-0.636719	-0.409912	-0.423340	8.593318	26.250893	111.809201
21061		-4.129932	1.369797	8.653959	-0.075738	0.118810	-0.047806	-0.634521	-0.409912	-0.426270	8.542787	26.318173	111.791804
21062		-4.309281	1.370566	8.749347	-0.078087	0.132223	-0.056429	-0.625000	-0.419189	-0.430664	8.489099	26.393570	111.768660
21063		-4.461033	1.272259	8.853738	-0.069498	0.138257	-0.047514	-0.630127	-0.409180	-0.426758	8.442931	26.471818	111.753123
21064		-4.390881	1.451884	8.682701	-0.074727	0.135015	-0.044865	-0.624756	-0.401367	-0.428467	8.394523	26.548118	111.735399
21065		-4.411956	1.325068	8.722446	-0.075376	0.140655	-0.041073	-0.622070	-0.408936	-0.424316	8.346803	26.627165	111.724003
21066		-4.367945	1.403370	8.758346	-0.078964	0.147069	-0.044170	-0.617920	-0.408447	-0.429932	8.296360	26.710196	111.713195
21067		-4.335267	1.370588	8.738203	-0.078216	0.163355	-0.047686	-0.625488	-0.404541	-0.435059	8.245959	26.802642	111.699525
21068		-4.415671	1.310855	8.770416	-0.067480	0.173461	-0.048369	-0.617920	-0.404541	-0.427246	8.201910	26.901066	111.687044
21069		-4.414061	1.347415	8.790300	-0.057137	0.183611	-0.040330	-0.619629	-0.401855	-0.431641	8.166424	27.004380	111.679726
21070		-4.426528	1.319162	8.792757	-0.046995	0.194847	-0.049180	-0.620850	-0.400146	-0.426758	8.134594	27.114895	111.670167
21071		-4.528136	1.186997	8.846357	-0.028393	0.206650	-0.050727	-0.616455	-0.410400	-0.437744	8.113420	27.232113	111.658181
21072		-4.467502	1.354392	8.814510	-0.021871	0.215005	-0.040709	-0.610107	-0.398193	-0.441895	8.099265	27.353311	111.653967
21073		-4.515551	1.288697	8.859369	0.003952	0.222263	-0.041184	-0.610596	-0.403564	-0.434326	8.100002	27.478610	111.649416
21074		-4.504894	1.452271	8.891239	0.023468	0.244811	-0.041328	-0.614258	-0.407959	-0.428711	8.112733	27.617052	111.651022
21075		-4.561964	1.387877	8.874320	0.020148	0.263860	-0.031011	-0.619629	-0.392334	-0.437988	8.127543	27.765124	111.656829
21076		-4.442365	1.601517	8.902729	-0.028677	0.298973	-0.031715	-0.607422	-0.409912	-0.437744	8.115621	27.932961	111.669017
21077		-4.299496	1.540741	9.105421	-0.114496	0.379684	-0.008794	-0.612061	-0.403564	-0.434570	8.064970	28.144945	111.699616
21078		-3.293925	1.147896	10.263509	-0.133215	0.477788	-0.015298	-0.609131	-0.405518	-0.434814	8.006004	28.413071	111.734359
21079		-3.220504	1.959773	10.123496	-0.053113	0.763361	-0.089722	-0.598877	-0.400391	-0.443115	7.982312	28.849243	111.747240
21080		-4.017247	1.071621	9.874616	-0.019921	0.967862	-0.099091	-0.597168	-0.403076	-0.442139	7.983895	29.401922	111.773661
21081		-3.661905	1.030216	10.195907	0.005939	1.158229	-0.116157	-0.580566	-0.404785	-0.456787	8.003724	30.064245	111.805638
21082		-3.778695	0.831794	10.192251	0.045912	1.389997	-0.159472	-0.573730	-0.400391	-0.460449	8.043619	30.861330	111.832253
21083		-3.627903	0.786930	10.435207	0.071654	1.633568	-0.209341	-0.564941	-0.406006	-0.459961	8.093763	31.800763	111.848640
21084		-3.516019	1.290303	10.333187	0.070344	1.884948	-0.307842	-0.545166	-0.412598	-0.474365	8.121254	32.890510	111.826404
21085		-3.564336	1.475799	10.255924	0.039256	2.153920	-0.430798	-0.531738	-0.410156	-0.472900	8.098691	34.142992	111.743786
21086		-3.201472	1.610328	10.546328	-0.039661	2.448017	-0.572930	-0.507568	-0.422119	-0.482666	7.987891	35.573776	111.587958
21087		-2.898126	2.362667	10.675194	-0.176103	2.846414	-0.753262	-0.497559	-0.416260	-0.498535	7.737807	37.244267	111.335698
21088		-3.037945	2.973185	10.581009	-0.368969	3.375020	-0.951263	-0.466553	-0.417236	-0.497559	7.302298	39.229060	110.968190
21089		-3.436074	3.173546	10.372850	-0.539296	3.965947	-1.156338	-0.435303	-0.406982	-0.503174	6.670636	41.561035	110.469584
21090		-4.171590	2.917876	10.405126	-0.696069	4.552716	-1.393432	-0.397217	-0.407715	-0.517578	5.799668	44.237563	109.775346
21091		-5.020159	2.577830	10.397811	-0.819623	5.173683	-1.606302	-0.360596	-0.410889	-0.522217	4.668669	47.269510	108.851763
21092		-6.313354	2.941516	10.512782	-0.895223	5.774219	-1.839485	-0.308838	-0.406006	-0.537109	3.212154	50.641776	107.598475
21093		-9.246157	1.677562	11.295162	-0.776073	6.268320	-1.904044	-0.264404	-0.396729	-0.531982	1.545438	54.271780	106.057503
21094		-12.409802	-0.405354	12.772228	-0.403538	6.422520	-1.730730	-0.211914	-0.394043	-0.531006	-0.088807	57.967842	104.364525
21095		-11.206730	-0.708543	12.093247	0.305419	6.506984	-1.588998	-0.163818	-0.401367	-0.534912	-1.568748	61.679146	102.450476
21096		-11.880260	0.119910	12.549547	0.967405	6.513059	-1.398820	-0.113037	-0.403076	-0.517090	-2.910169	65.381433	100.328982
21097		-13.427293	-0.625199	13.032335	1.632900	6.326519	-1.227037	-0.065430	-0.421387	-0.502686	-4.167396	68.952909	97.949977
21098		-13.396321	1.966665	13.255604	2.173919	5.989487	-1.245032	-0.019043	-0.434082	-0.501953	-5.780444	72.312611	94.915243
21099		-12.143560	4.488345	13.201604	2.427201	5.546451	-1.441932	0.029541	-0.449219	-0.475342	-8.581190	75.360782	90.552037
21100		-7.822481	6.016869	12.114592	2.336116	5.111505	-1.827817	0.071045	-0.462646	-0.451172	-13.997434	78.029252	83.610114
21101		-2.083174	6.970150	10.217193	1.911252	4.812561	-2.334683	0.089111	-0.468750	-0.436523	-24.170778	80.205457	72.137916
21102		2.867889	10.812767	9.580104	0.729375	4.732089	-2.938038	0.137695	-0.462158	-0.426758	-41.802830	81.576574	53.861080
21103		-22.187826	8.630847	14.333708	-0.302659	3.447760	-2.510154	0.165771	-0.459961	-0.402344	-58.633591	81.736055	37.027542
21104		-14.502845	7.581392	17.095879	-0.750892	0.736593	-1.734307	0.174561	-0.444580	-0.403320	-64.586132	81.061745	31.441124
21105		-7.614714	3.209284	15.532867	-0.607855	-0.901253	-1.185118	0.169678	-0.434570	-0.406006	-63.876791	80.225792	32.512402
21106		-1.961723	1.914355	10.508839	-0.138089	-1.725812	-0.656658	0.166504	-0.443604	-0.416992	-60.022513	79.428180	36.506606
21107		1.314955	2.120997	7.320080	0.193780	-1.948235	-0.360027	0.157471	-0.433838	-0.421631	-55.576378	78.657812	40.921449
21108		1.959772	2.015911	5.983010	0.358399	-1.929526	-0.140369	0.145264	-0.436035	-0.439453	-51.266309	77.932168	45.111009
21109		1.651673	2.328023	5.702571	0.395414	-1.880544	0.089818	0.131836	-0.435303	-0.436279	-47.156276	77.265801	49.086529
21110		0.956529	2.721508	5.917827	0.310236	-1.886663	0.354272	0.125977	-0.430176	-0.451416	-43.010719	76.642540	53.156936
21111		-0.025633	2.904879	6.550245	0.145498	-1.972553	0.655701	0.113525	-0.443115	-0.452393	-38.698988	76.031369	57.507677
21112		-1.193439	2.860001	7.393606	-0.034163	-2.148362	0.998708	0.101563	-0.439209	-0.468750	-34.005970	75.373544	62.368116
21113		-2.330180	2.513360	8.220490	-0.189371	-2.434398	1.341045	0.082275	-0.448486	-0.488037	-28.942581	74.581994	67.722038
21114		-3.260717	1.840104	8.779311	-0.269933	-2.831639	1.647093	0.060059	-0.449219	-0.501221	-23.585148	73.536335	73.451335
21115		-3.311062	1.090851	8.756671	-0.274197	-3.258842	1.879577	0.031494	-0.445068	-0.520020	-18.305031	72.172954	79.140039
21116		-2.977257	0.142913	8.498041	-0.188221	-3.598140	2.001314	0.005859	-0.445801	-0.533936	-13.452029	70.493017	84.372683
21117		-3.157025	-0.522042	8.374686	-0.019129	-3.868970	2.035888	-0.025879	-0.459229	-0.552002	-9.224822	68.543993	88.895297
21118		-3.553762	-0.536716	8.385865	0.183478	-4.102374	2.008711	-0.059814	-0.471680	-0.570801	-5.622529	66.350228	92.678354
21119		-3.966400	-0.087752	8.449049	0.332493	-4.305340	1.922720	-0.109863	-0.472656	-0.588867	-2.667409	63.965020	95.723422
21120		-4.371146	0.462778	8.690151	0.395636	-4.449582	1.799272	-0.144287	-0.476563	-0.604980	-0.304177	61.431149	98.124263
21121		-4.944201	0.959599	9.001283	0.411626	-4.554642	1.669903	-0.202637	-0.476807	-0.614990	1.551607	58.807063	99.991331
21122		-5.666637	1.093500	9.547500	0.438788	-4.638214	1.587956	-0.254150	-0.479980	-0.619629	3.068313	56.102684	101.488859
21123		-6.466607	1.464849	10.027668	0.488335	-4.723801	1.584084	-0.302490	-0.475586	-0.617676	4.382913	53.338756	102.755311
21124		-7.117454	2.141428	10.350981	0.503793	-4.790905	1.638398	-0.351074	-0.476074	-0.609375	5.568036	50.509957	103.890526
21125		-7.494176	2.510695	10.603505	0.481297	-4.816994	1.726299	-0.405518	-0.466064	-0.605225	6.642396	47.656325	104.946173
21126		-8.004266	2.530836	11.006737	0.467627	-4.780330	1.862495	-0.452148	-0.458984	-0.594238	7.664705	44.792775	105.987120
21127		-8.633055	2.563992	11.233535	0.479416	-4.663262	2.028156	-0.497559	-0.439941	-0.582764	8.669918	41.978732	107.049374
21128		-9.576414	2.974682	11.646322	0.494568	-4.460201	2.186290	-0.531250	-0.436523	-0.576416	9.668691	39.242988	108.144435
21129		-11.901531	3.474065	12.806259	0.477652	-4.251242	2.362282	-0.566895	-0.410156	-0.565674	10.647388	36.602425	109.290222
21130		-14.735409	4.413718	13.948884	0.397364	-4.215317	2.591357	-0.594727	-0.397461	-0.551270	11.579539	33.932980	110.506164
21131		-15.897986	4.815297	14.026680	0.203312	-4.322383	2.816486	-0.634277	-0.386963	-0.525879	12.377068	31.171126	111.770375
21132		-15.809629	4.302252	13.176603	-0.013217	-4.421227	2.966755	-0.653809	-0.364014	-0.505127	13.001753	28.313291	113.040568
21133		-15.556367	3.592033	12.451349	-0.165842	-4.402390	3.016759	-0.689697	-0.352783	-0.474121	13.468212	25.457840	114.280573
21134		-16.001775	2.862445	11.517153	-0.221506	-4.296149	2.973177	-0.711182	-0.345947	-0.448486	13.823078	22.651263	115.458288
21135		-16.521361	2.590490	10.539793	-0.214072	-4.106844	2.841056	-0.729736	-0.326416	-0.423828	14.096240	19.970707	116.545581
21136		-17.404036	2.014102	9.338556	-0.186048	-3.861382	2.648341	-0.759033	-0.323486	-0.389160	14.305503	17.441740	117.526228
21137		-17.701635	0.664937	8.036217	-0.063658	-3.605049	2.361425	-0.775146	-0.309082	-0.345459	14.502416	15.100282	118.357018
21138		-17.626408	-1.010812	6.696398	0.199401	-3.325367	1.949542	-0.797852	-0.308838	-0.312744	14.767634	12.963661	118.975370
21139		-17.863982	-2.510359	5.348300	0.630573	-3.098864	1.442490	-0.808594	-0.315430	-0.289795	15.201825	11.030574	119.323126
21140		-17.419183	-2.579446	3.795172	1.060460	-2.908467	0.879900	-0.827881	-0.324707	-0.261963	15.817447	9.280216	119.364434
21141		-16.109017	-2.643171	2.408190	1.295455	-2.662323	0.313316	-0.842041	-0.333496	-0.222656	16.522605	7.760915	119.110033
21142		-15.711391	-2.593707	1.577091	1.424633	-2.347961	-0.237451	-0.861328	-0.352783	-0.202637	17.274218	6.504541	118.585175
21143		-15.641123	-1.962492	0.817485	1.398435	-2.037139	-0.748879	-0.868164	-0.367432	-0.185791	17.995837	5.517899	117.819142
21144		-15.490304	-1.170503	0.061345	1.224317	-1.733082	-1.250323	-0.882324	-0.382568	-0.159180	18.608302	4.792401	116.823517
21145		-15.476180	-0.991029	-0.328301	1.027051	-1.405337	-1.708290	-0.898682	-0.406006	-0.139160	19.102612	4.342425	115.633856
21146		-16.163579	-1.030379	0.096985	0.963231	-1.131068	-1.994654	-0.896729	-0.420654	-0.127197	19.559553	4.102531	114.337757
21147		-15.895224	0.076689	0.141365	0.942898	-0.953517	-2.084432	-0.906494	-0.441162	-0.111328	20.007861	3.988375	113.026296
21148		-14.562689	1.610595	-0.149814	0.819582	-0.746900	-1.994066	-0.910156	-0.461670	-0.097168	20.393061	3.975620	111.803708
21149		-13.447596	2.959273	0.122672	0.588241	-0.456584	-1.723295	-0.916748	-0.476074	-0.094238	20.659202	4.072524	110.785245
21150		-10.501607	14.330325	1.114830	-1.327141	1.075697	-1.213860	-0.921631	-0.481201	-0.105469	19.865084	4.886805	110.345359
21151		9.854250	1.484688	-4.548052	-1.899540	2.218737	-1.762321	-0.916016	-0.484131	-0.126221	18.724535	6.415978	109.810373
21152		4.671284	8.722508	1.988735	-2.475620	3.482578	-1.260442	-0.906250	-0.489746	-0.150391	17.298017	8.532105	109.740708
21153		-1.190890	6.654018	8.155118	-2.249992	3.862925	-1.048880	-0.896484	-0.483398	-0.178223	16.019409	10.820465	109.801058
21154		-4.755021	3.037022	8.749349	-1.738256	4.216958	-0.600267	-0.893066	-0.481689	-0.210938	15.092459	13.235469	110.125833
21155		-11.810842	-4.371721	13.812656	-1.268552	4.415606	-0.344307	-0.873291	-0.477783	-0.238525	14.483851	15.727730	110.596666
21156		-14.536777	-7.750302	18.068908	-0.890731	3.956795	-0.567046	-0.867920	-0.488770	-0.271729	14.048892	18.000468	110.852609
21157		-14.731505	-6.683308	18.010753	-0.393354	3.179226	-0.684203	-0.853027	-0.483398	-0.286865	13.844480	19.858585	110.915531
21158		-13.294176	0.913139	14.577370	-0.096261	2.533078	-0.589080	-0.851318	-0.487793	-0.307129	13.797351	21.344610	110.936828
21159		-10.615559	5.821766	11.750883	-0.019245	2.057088	-0.420143	-0.843018	-0.485840	-0.319824	13.806381	22.542405	110.988974
21160		-7.392766	4.180238	9.960452	-0.025625	1.754005	-0.350887	-0.839111	-0.491699	-0.333008	13.811652	23.562743	111.038576
21161		-5.184438	-0.388441	9.641265	-0.015077	1.642826	-0.381293	-0.825928	-0.502441	-0.348633	13.809609	24.524724	111.053368
21162		-5.810703	-1.338186	10.209105	0.003851	1.529630	-0.488080	-0.816650	-0.500000	-0.343506	13.783624	25.439053	110.985428
21163		-16.351433	7.629776	14.291565	-0.413722	1.080228	-0.915677	-0.814209	-0.503662	-0.354248	13.371324	26.159626	110.581462
21164		-4.947780	1.444384	7.303672	-0.365754	0.264744	-0.408820	-0.802734	-0.502197	-0.358154	13.067395	26.357619	110.367046
21165		-4.776721	0.529710	9.871112	-0.314869	0.434693	-0.400980	-0.805176	-0.502197	-0.360107	12.804218	26.647578	110.180289
21166		-5.766435	0.421625	9.577658	-0.276321	0.287351	-0.329376	-0.806641	-0.502197	-0.365479	12.572314	26.846418	110.015802
21167		-4.680645	2.071382	8.980905	-0.174632	0.190456	-0.190390	-0.807373	-0.504150	-0.361328	12.431300	26.972364	109.924051
21168		-4.744411	0.726300	9.406246	-0.127858	0.201970	-0.151856	-0.800781	-0.501465	-0.370117	12.328278	27.100816	109.857681
21169		-4.556152	1.447620	9.030636	-0.089984	0.166729	-0.101288	-0.803955	-0.499023	-0.371094	12.259192	27.202311	109.818023
21170		-4.589914	1.686449	8.815247	-0.080507	0.179783	-0.081638	-0.803223	-0.502686	-0.366699	12.201658	27.309627	109.792319
21171		-4.468904	1.843773	8.735893	-0.077096	0.184105	-0.065030	-0.806641	-0.506836	-0.369873	12.151281	27.416399	109.777582
21172		-4.678511	1.790839	8.640326	-0.081324	0.197105	-0.059709	-0.802002	-0.503662	-0.367676	12.100538	27.530703	109.767799
21173		-4.717609	1.836904	8.537559	-0.070611	0.193187	-0.048916	-0.798340	-0.502197	-0.364502	12.059003	27.640610	109.764244
21174		-4.840220	2.105908	8.357508	-0.070385	0.164340	-0.037987	-0.795166	-0.504639	-0.379639	12.018734	27.733921	109.763572
21175		-4.767989	2.309302	8.180063	-0.083511	0.134519	-0.039809	-0.791504	-0.498291	-0.386230	11.968717	27.809858	109.757697
21176		-4.720480	2.452606	8.063648	-0.087845	0.117001	-0.050634	-0.797119	-0.507080	-0.374512	11.911683	27.878117	109.742496
21177		-4.565087	2.506895	7.949490	-0.106745	0.100604	-0.075383	-0.797119	-0.493896	-0.380127	11.835571	27.939220	109.709338
21178		-4.618235	2.115774	8.213803	-0.128501	0.095696	-0.104076	-0.792480	-0.501953	-0.383301	11.737918	28.001731	109.657178
21179		-4.501216	1.929501	8.360871	-0.136043	0.100595	-0.122498	-0.795410	-0.500732	-0.375000	11.630752	28.068199	109.593803
21180		-4.677731	1.655829	8.539850	-0.142298	0.109967	-0.133240	-0.796143	-0.509277	-0.376709	11.517086	28.141874	109.524627
21181		-4.652786	1.601082	8.608208	-0.143553	0.115668	-0.136444	-0.790283	-0.499512	-0.376465	11.402019	28.218174	109.453932
21182		-4.710604	1.388196	8.639255	-0.141775	0.097318	-0.126745	-0.798584	-0.501953	-0.385498	11.289486	28.283742	109.386852
21183		-4.583379	1.267305	8.797367	-0.131149	0.100425	-0.126350	-0.799316	-0.507568	-0.376221	11.183315	28.350105	109.320239
21184		-4.626849	1.511215	8.660020	-0.120982	0.100231	-0.115160	-0.800537	-0.501953	-0.379395	11.086062	28.415780	109.260560
21185		-4.702026	1.690582	8.521633	-0.107852	0.111193	-0.104308	-0.789063	-0.509033	-0.389648	11.000297	28.485582	109.209051
21186		-4.645406	2.007572	8.309801	-0.112308	0.114743	-0.114184	-0.782227	-0.498535	-0.380127	10.908894	28.559121	109.151480
21187		-4.646942	2.032577	8.271899	-0.126269	0.119349	-0.132518	-0.784180	-0.503174	-0.385742	10.804128	28.636409	109.082565
21188		-4.711821	1.977241	8.225928	-0.141380	0.127029	-0.146917	-0.793213	-0.495605	-0.384033	10.686409	28.720152	109.005111
21189		-4.747586	1.930589	8.287048	-0.151926	0.129990	-0.165583	-0.792725	-0.503906	-0.382324	10.556938	28.806675	108.915766
21190		-4.771631	1.786205	8.376483	-0.164612	0.125450	-0.172408	-0.787842	-0.498535	-0.386475	10.417460	28.891861	108.821186
21191		-4.857814	1.534178	8.509719	-0.162305	0.122370	-0.165332	-0.786133	-0.496338	-0.386963	10.281158	28.973691	108.730493
21192		-4.902653	1.472233	8.552137	-0.160456	0.118528	-0.154461	-0.786865	-0.501465	-0.390381	10.148758	29.052737	108.646074
21193		-4.987084	1.331755	8.573922	-0.150144	0.113781	-0.139640	-0.790771	-0.499023	-0.388428	10.026516	29.126779	108.570414
21194		-4.979077	1.114286	8.667102	-0.124158	0.093973	-0.108714	-0.781250	-0.495361	-0.392578	9.927525	29.187105	108.512270
21195		-4.833518	1.269540	8.689814	-0.110051	0.092041	-0.090749	-0.790527	-0.497559	-0.393066	9.842155	29.243834	108.465386
21196		-4.860894	1.373028	8.647594	-0.099253	0.096139	-0.085008	-0.787109	-0.494873	-0.392822	9.764802	29.302897	108.422544
21197		-4.828853	1.414658	8.616908	-0.088709	0.107618	-0.074178	-0.787354	-0.493896	-0.391113	9.697569	29.366707	108.387896
21198		-4.780640	1.591454	8.613886	-0.087972	0.108413	-0.071288	-0.787109	-0.499023	-0.395508	9.631521	29.431271	108.355086
21199		-4.740257	1.646744	8.601306	-0.085065	0.124050	-0.084142	-0.792725	-0.497070	-0.389404	9.563906	29.505246	108.315559
21200		-4.768316	1.643252	8.566576	-0.089225	0.140383	-0.089614	-0.784668	-0.491455	-0.400635	9.492816	29.589519	108.274112
21201		-4.821798	1.582295	8.646785	-0.085799	0.167804	-0.096378	-0.781006	-0.499512	-0.404785	9.422951	29.689289	108.231094
21202		-4.836842	1.319811	8.649206	-0.066966	0.200126	-0.099864	-0.775146	-0.497803	-0.399414	9.364227	29.808183	108.189103
21203		-4.592152	1.033909	8.788829	-0.051596	0.236009	-0.092945	-0.770020	-0.507813	-0.395264	9.318395	29.946118	108.155302
21204		-3.943402	1.047212	9.573801	0.026665	0.364128	-0.050614	-0.780029	-0.497803	-0.395752	9.337891	30.153091	108.162783
21205		-4.762592	0.906271	9.148985	0.068598	0.511803	-0.036754	-0.778320	-0.506104	-0.395508	9.394260	30.441712	108.195481
21206		-4.254667	1.108335	9.315787	0.075344	0.613442	-0.030065	-0.777344	-0.504395	-0.408447	9.462641	30.787601	108.244091
21207		-4.235206	1.199266	9.345858	0.097492	0.772899	-0.031097	-0.768555	-0.501709	-0.415771	9.553238	31.223157	108.310425
21208		-4.342072	1.434276	9.419653	0.100013	0.944037	-0.053734	-0.758057	-0.505615	-0.417725	9.648405	31.757879	108.382053
21209		-4.330122	1.219942	9.440475	0.106244	1.118447	-0.072762	-0.754639	-0.507080	-0.412354	9.752555	32.392418	108.462478
21210		-4.579823	1.129420	9.324211	0.108961	1.289548	-0.093009	-0.750732	-0.501465	-0.428711	9.863399	33.125748	108.551124
21211		-4.613068	1.108554	9.172929	0.115491	1.460455	-0.110440	-0.740723	-0.510498	-0.425781	9.985252	33.956760	108.650866
21212		-4.601573	1.505045	9.019628	0.104189	1.646864	-0.139822	-0.733154	-0.507813	-0.430908	10.104919	34.895977	108.756169
21213		-4.517822	1.504718	9.089015	0.082149	1.843849	-0.185561	-0.715820	-0.512695	-0.447998	10.211524	35.950459	108.857900
21214		-4.630884	1.555772	8.967529	0.072762	2.067886	-0.250554	-0.702881	-0.513428	-0.452881	10.306194	37.137941	108.946131
21215		-4.643391	1.600803	8.884850	0.073045	2.344047	-0.309676	-0.689453	-0.507324	-0.466553	10.401430	38.486841	109.032271
21216		-4.729310	1.574024	9.125881	0.064363	2.634782	-0.375995	-0.674316	-0.515625	-0.470703	10.490195	40.006455	109.113565
21217		-4.416705	1.549671	9.133693	0.081034	3.007770	-0.453644	-0.651123	-0.518066	-0.479248	10.589912	41.744084	109.194110
21218		-4.472327	1.608730	9.561713	0.056651	3.431649	-0.549729	-0.629150	-0.535645	-0.501221	10.672979	43.730472	109.267991
21219		-4.384515	1.473227	9.845767	0.063633	3.961548	-0.645734	-0.604980	-0.533691	-0.509521	10.769691	46.025310	109.352555
21220		-4.587484	1.511202	10.395947	0.066988	4.556937	-0.720591	-0.573242	-0.535889	-0.524902	10.902336	48.662983	109.480046
21221		-5.381725	1.710868	10.741378	0.123353	5.182268	-0.727069	-0.533203	-0.541992	-0.542236	11.166091	51.652875	109.730665
21222		-7.216821	2.061729	11.568574	0.157088	5.810103	-0.733986	-0.491455	-0.541260	-0.551270	11.586116	54.994845	110.141338
21223		-8.641003	1.228452	12.336055	0.240295	6.346490	-0.613821	-0.448975	-0.546631	-0.564453	12.353180	58.620870	110.892321
21224		-10.135702	0.760982	12.998418	0.495868	6.812355	-0.507965	-0.408691	-0.554932	-0.569824	13.695591	62.484641	112.106230
21225		-11.234886	2.225482	14.488515	0.777515	7.213644	-0.507335	-0.353271	-0.563721	-0.581787	15.759287	66.552078	113.896819
21226		-12.455991	3.077124	14.078589	1.184906	7.495104	-0.596989	-0.297607	-0.580566	-0.571289	18.876174	70.749478	116.511731
21227		-15.551238	3.975278	15.044576	1.782391	7.451961	-0.773468	-0.254883	-0.597656	-0.570068	23.564166	74.887924	120.346041
21228		-16.791206	5.750548	15.074410	2.346509	7.070865	-1.100106	-0.199219	-0.608398	-0.551514	30.363434	78.783569	125.943477
21229		-16.120606	8.414319	16.298315	2.605282	6.326592	-1.615034	-0.159912	-0.641846	-0.530273	39.820363	82.285739	134.012385
21230		-11.381238	9.778488	16.480068	2.748363	5.473024	-2.111097	-0.135986	-0.667725	-0.514404	55.161551	85.312609	147.853291
21231		-2.463443	13.015272	15.373938	2.349076	4.821833	-2.470259	-0.101318	-0.683594	-0.483154	93.558409	87.532682	-175.035774
21232		4.585242	11.090754	9.560596	1.107130	4.867782	-3.665513	-0.078857	-0.691406	-0.475342	173.251133	87.029006	-95.915395
21233		-27.210507	6.111780	15.356900	0.571990	3.623420	-4.013161	-0.069336	-0.693848	-0.462646	-158.586824	84.609312	-68.016336
21234		-18.010700	11.531097	20.295446	0.506866	-0.023350	-2.944723	-0.078369	-0.700684	-0.463135	-143.623670	83.806739	-53.270311
21235		-9.679350	8.562608	17.480787	0.232493	-2.115148	-2.399159	-0.114746	-0.703369	-0.448242	-126.704377	83.699876	-36.385998
21236		-0.866205	8.209334	11.041499	0.177961	-2.946091	-1.975830	-0.153564	-0.712891	-0.430908	-108.491710	83.482729	-18.164462
21237		3.309691	7.934813	7.016070	-0.254510	-2.965306	-1.915281	-0.203613	-0.708740	-0.426270	-93.070028	82.718049	-2.485705
21238		2.141146	6.205201	5.556221	-0.662936	-2.811572	-1.808560	-0.247314	-0.711914	-0.413086	-81.997658	81.611521	9.071770
21239		0.474456	5.177905	5.552724	-0.927749	-2.801194	-1.476336	-0.296875	-0.711670	-0.381592	-73.683819	80.444121	18.025305
21240		0.202427	4.096414	5.438727	-1.022069	-2.885971	-0.961515	-0.343262	-0.708984	-0.352539	-66.531326	79.361994	25.882726
21241		0.030371	3.304976	5.306474	-0.933770	-2.991981	-0.358942	-0.379150	-0.700195	-0.324951	-59.729808	78.401724	33.358390
21242		-0.436529	2.866630	5.458844	-0.754520	-3.127863	0.294125	-0.434326	-0.697998	-0.281006	-52.681382	77.541778	41.004437
21243		-1.424761	2.695796	5.746687	-0.540963	-3.287590	0.938136	-0.475098	-0.699463	-0.236328	-45.207299	76.706865	48.987835
21244		-2.986283	2.752386	6.398885	-0.342281	-3.549076	1.531367	-0.499023	-0.684082	-0.171631	-37.199824	75.748526	57.431063
21245		-3.948512	3.118189	6.681317	-0.254652	-3.914249	2.049218	-0.527832	-0.672607	-0.135254	-29.006849	74.505462	66.056862
21246		-4.440824	3.288990	6.678361	-0.254921	-4.264584	2.406414	-0.536621	-0.668701	-0.079102	-21.304602	72.869485	74.230351
21247		-4.534947	2.927910	6.504242	-0.358056	-4.554696	2.644328	-0.559570	-0.662109	-0.020264	-14.638288	70.847652	81.458659
21248		-4.436326	2.096315	6.303301	-0.394526	-4.723716	2.747211	-0.556641	-0.648193	0.030273	-9.175919	68.512910	87.520535
21249		-4.702362	0.758371	6.576899	-0.341755	-4.812695	2.777262	-0.550537	-0.618164	0.083008	-4.799218	65.963626	92.476972
21250		-5.559698	-0.258152	6.929758	-0.136765	-4.871658	2.756389	-0.523438	-0.614502	0.125977	-1.233336	63.248626	96.507423
21251		-6.747256	-0.273202	7.714413	0.136942	-4.933216	2.681992	-0.477295	-0.605957	0.154541	1.698376	60.410957	99.742204
21252		-7.841731	0.732748	8.551702	0.310541	-5.022257	2.603046	-0.440674	-0.589844	0.156250	4.114240	57.451097	102.351801
21253		-8.838988	2.020180	9.212246	0.283554	-5.122150	2.563358	-0.401123	-0.588867	0.153320	6.058140	54.393156	104.500990
21254		-9.620709	2.895052	9.742912	0.096744	-5.217832	2.588374	-0.372559	-0.596924	0.125732	7.591680	51.238124	106.353397
21255		-10.512546	3.029797	10.059559	-0.145190	-5.268806	2.666180	-0.357422	-0.598877	0.085938	8.784005	48.028123	108.026070
21256		-11.366521	2.405017	10.487070	-0.318585	-5.224411	2.782596	-0.358887	-0.609131	0.050293	9.752137	44.806629	109.611772
21257		-12.096955	1.918786	10.918901	-0.355756	-5.126316	2.903172	-0.376221	-0.601563	0.019287	10.600869	41.617388	111.147649
21258		-13.191683	2.074636	11.726272	-0.281247	-5.009374	2.966221	-0.391602	-0.608398	-0.007813	11.384632	38.465427	112.613699
21259		-15.243266	3.394725	12.807605	-0.230107	-4.961164	3.014698	-0.424805	-0.591553	-0.035156	12.089898	35.326576	114.006580
21260		-17.804046	4.925634	13.445223	-0.321617	-5.045999	3.087419	-0.457275	-0.590820	-0.044922	12.647638	32.113410	115.340620
21261		-20.006223	5.742427	13.013039	-0.520530	-5.203694	3.160974	-0.480469	-0.574951	-0.065186	12.999971	28.799933	116.622576
21262		-20.620784	5.270419	11.305248	-0.718814	-5.295203	3.193297	-0.515381	-0.547119	-0.066406	13.150718	25.420965	117.854560
21263		-20.660776	4.029964	9.232132	-0.837448	-5.175209	3.128432	-0.546875	-0.532471	-0.056152	13.143650	22.121474	119.025830
21264		-21.361723	2.413063	7.231104	-0.776343	-4.858183	2.965520	-0.575928	-0.514160	-0.054932	13.084069	19.015950	120.119600
21265		-22.180065	0.844205	5.422841	-0.555452	-4.449954	2.681012	-0.597900	-0.494629	-0.038574	13.058411	16.180682	121.085397
21266		-22.457643	-0.560159	3.615040	-0.241643	-4.012381	2.230777	-0.609375	-0.484375	-0.034180	13.113908	13.643929	121.835938
21267		-22.087924	-2.062509	1.495712	0.118680	-3.597847	1.622403	-0.619629	-0.480469	-0.020996	13.279284	11.420505	122.281960
21268		-22.112619	-3.725215	-0.493409	0.561285	-3.171939	0.815224	-0.631836	-0.466064	-0.005615	13.607570	9.537230	122.315153
21269		-21.848828	-5.181149	-2.117421	1.059689	-2.765525	-0.090942	-0.629883	-0.464844	-0.000244	14.149025	8.007222	121.880390
21270		-21.160250	-5.326919	-3.073903	1.513387	-2.330042	-1.039038	-0.635498	-0.470459	0.022461	14.897877	6.858089	120.962417
21271		-21.063594	-4.094258	-3.124122	1.755255	-1.904850	-1.905838	-0.631592	-0.479248	0.024170	15.752046	6.089815	119.613104
21272		-20.042764	0.629247	-1.714303	1.105757	-0.831566	-2.530388	-0.625488	-0.488281	0.025635	16.224185	6.026061	118.080326
21273		-19.017379	2.776651	-9.401211	0.071493	0.185142	-3.159579	-0.624268	-0.495605	0.019531	16.076271	6.627279	116.361297
21274		-22.769873	3.082750	-11.764071	-1.115461	1.423360	-3.165236	-0.623535	-0.506348	0.021973	15.243167	7.898018	114.823718
21275		-5.369778	-3.725161	-10.323565	-1.464218	2.766915	-2.688355	-0.610596	-0.510254	0.015137	14.235516	9.818861	113.725285
21276		-0.257640	1.416374	11.127112	-0.721118	4.348459	-0.777848	-0.601074	-0.499023	0.004639	13.856794	12.340680	113.901895
21277		-12.690836	18.757189	17.946286	-0.934032	3.872808	-0.307689	-0.579102	-0.503418	-0.010742	13.406393	14.534449	114.264405
21278		-12.909929	5.563982	12.953206	-1.323959	3.125557	-1.429980	-0.577148	-0.491455	-0.024902	12.539009	16.460287	113.854284
21279		-10.298136	-5.965987	12.405620	-0.912959	3.181096	-0.856005	-0.570557	-0.492432	-0.039551	11.987908	18.341296	113.758877
21280		-13.308004	-0.706371	15.629307	-0.554451	2.861926	-0.488430	-0.559570	-0.485107	-0.043213	11.693091	20.000795	113.826410
21281		-10.157264	-2.907065	14.201681	-0.404601	2.136047	-0.750814	-0.558350	-0.478760	-0.045166	11.395746	21.281802	113.638957
21282		-5.214702	-0.789895	9.957185	-0.191618	1.948973	-0.651963	-0.541992	-0.485840	-0.045898	11.227804	22.447577	113.481571
21283		-6.539114	3.019724	9.434729	-0.144099	2.066536	-0.548617	-0.543945	-0.482666	-0.053711	11.112671	23.665896	113.396969
21284		-8.551978	2.312355	10.861240	-0.180407	1.733995	-0.540262	-0.533691	-0.482422	-0.056396	10.959228	24.697885	113.273701
21285		-12.213677	3.383931	12.665407	-0.336454	1.556953	-0.675550	-0.534912	-0.480957	-0.062012	10.667558	25.642556	113.039856
21286		-12.584577	1.633930	12.780301	-0.578041	0.251063	-0.695583	-0.531982	-0.481934	-0.061523	10.160881	25.853902	112.634923
21287		-2.723803	2.645147	7.311618	-0.477228	0.306693	-0.421228	-0.531738	-0.478271	-0.071045	9.787718	26.064613	112.405787
21288		-7.193226	-0.434570	11.232809	-0.317474	0.194381	-0.282844	-0.523682	-0.480713	-0.064453	9.537676	26.199561	112.250108
21289		-4.853389	1.072852	9.059646	-0.240353	0.111028	-0.157960	-0.530273	-0.487549	-0.067383	9.362313	26.273026	112.163652
21290		-4.715893	1.430044	8.928278	-0.185639	0.044203	-0.106335	-0.526855	-0.475342	-0.070068	9.229262	26.305866	112.102593
21291		-4.745760	0.974236	9.178084	-0.138489	0.053318	-0.079559	-0.521240	-0.480957	-0.065430	9.131275	26.339156	112.059278
21292		-4.360055	1.217619	8.849215	-0.108156	0.042889	-0.053989	-0.527588	-0.483154	-0.065674	9.057084	26.366321	112.030973
21293		-3.925469	1.864844	8.470870	-0.110106	0.089098	-0.059013	-0.530518	-0.473877	-0.070313	8.982618	26.417905	112.004094
21294		-4.591778	1.442379	8.886109	-0.097998	0.107160	-0.075598	-0.530273	-0.478027	-0.068604	8.910933	26.483288	111.968432
21295		-4.741193	1.032912	8.920215	-0.075436	0.074027	-0.059669	-0.524658	-0.470459	-0.068115	8.855361	26.526340	111.939484
21296		-4.491470	1.220197	8.807080	-0.056844	0.062901	-0.044537	-0.527832	-0.476563	-0.068604	8.813956	26.563872	111.918952
21297		-4.418614	1.361499	8.732489	-0.052187	0.066275	-0.038562	-0.523438	-0.480469	-0.065430	8.777269	26.600646	111.902516
21298		-4.364181	1.081265	8.763714	-0.057130	0.073875	-0.032418	-0.525146	-0.474854	-0.066162	8.739561	26.643304	111.890661
21299		-4.330312	1.042118	8.787944	-0.053557	0.096689	-0.023850	-0.524658	-0.468750	-0.065186	8.707550	26.696005	111.886442
21300		-4.459336	1.107067	8.812907	-0.047535	0.092369	-0.011955	-0.527344	-0.479004	-0.067383	8.681918	26.747342	111.889285
21301		-4.461564	1.304442	8.652031	-0.049193	0.099155	-0.007625	-0.517822	-0.474609	-0.070313	8.657118	26.800035	111.895539
21302		-4.459344	1.472479	8.602091	-0.057983	0.092210	-0.006466	-0.525635	-0.476807	-0.072021	8.627041	26.850806	111.901799
21303		-4.552185	1.477948	8.545861	-0.077236	0.093412	-0.011456	-0.514893	-0.474609	-0.068848	8.584807	26.900580	111.905007
21304		-4.353857	1.412218	8.617335	-0.084736	0.077912	-0.009445	-0.529053	-0.477783	-0.072510	8.537914	26.943510	111.907939
21305		-4.344299	1.263055	8.657566	-0.085962	0.089264	-0.017176	-0.524658	-0.475098	-0.069336	8.488817	26.991425	111.907029
21306		-4.415269	1.474057	8.623733	-0.087281	0.095178	-0.026647	-0.521240	-0.482910	-0.069336	8.436210	27.045583	111.900575
21307		-4.485624	1.368728	8.618331	-0.084570	0.102787	-0.031468	-0.520264	-0.470215	-0.069336	8.384303	27.102358	111.891742
21308		-4.603673	1.310068	8.674976	-0.088728	0.108402	-0.030978	-0.518311	-0.481934	-0.078369	8.330118	27.164355	111.883655
21309		-4.691000	1.183642	8.690736	-0.086717	0.095091	-0.028948	-0.518311	-0.477051	-0.072021	8.277314	27.216545	111.875584
21310		-4.524513	1.322490	8.689990	-0.095942	0.085504	-0.027683	-0.521729	-0.474365	-0.067383	8.218911	27.265274	111.867344
21311		-4.541858	1.356137	8.666947	-0.103581	0.093747	-0.021935	-0.522461	-0.472656	-0.072510	8.158369	27.316114	111.863500
21312		-4.521258	1.432493	8.659860	-0.103933	0.093935	-0.028635	-0.522705	-0.479492	-0.076904	8.095400	27.369681	111.855303
21313		-4.500812	1.508643	8.652965	-0.103452	0.094793	-0.032377	-0.521973	-0.473633	-0.071045	8.031840	27.421946	111.844753
21314		-4.489684	1.303493	8.752608	-0.096853	0.097833	-0.039303	-0.524902	-0.471191	-0.069580	7.969883	27.478552	111.829955
21315		-4.503761	1.315492	8.739110	-0.085194	0.106843	-0.040321	-0.516357	-0.469971	-0.074707	7.914853	27.538264	111.815263
21316		-4.565122	1.220917	8.750147	-0.076589	0.131188	-0.037843	-0.524414	-0.468750	-0.066650	7.866222	27.613648	111.804225
21317		-4.625300	1.074130	8.820547	-0.058517	0.147670	-0.033653	-0.526611	-0.469727	-0.074463	7.830040	27.695990	111.797281
21318		-4.614699	1.176659	8.800393	-0.035243	0.154793	-0.039061	-0.514404	-0.477783	-0.076904	7.805613	27.784847	111.787415
21319		-4.653875	1.248945	8.793808	-0.039753	0.164860	-0.026593	-0.519287	-0.465576	-0.069580	7.782937	27.876393	111.786415
21320		-4.581194	1.295975	8.739768	-0.036060	0.167565	-0.023564	-0.520020	-0.474609	-0.076416	7.763159	27.971284	111.787531
21321		-4.550987	1.313479	8.818429	-0.048225	0.197133	-0.023934	-0.511963	-0.471680	-0.091309	7.737720	28.080946	111.790985
21322		-4.544489	1.393810	8.746704	-0.042482	0.215124	-0.033747	-0.511719	-0.467773	-0.085693	7.713099	28.203611	111.789615
21323		-4.268576	1.527687	9.085747	-0.084878	0.265697	-0.022011	-0.517334	-0.475586	-0.085693	7.670031	28.352060	111.800159
21324		-4.552474	1.173905	8.974065	-0.075706	0.345432	-0.048683	-0.514893	-0.466309	-0.084961	7.627084	28.549831	111.800262
21325		-3.359884	0.670611	10.473758	-0.012588	0.478457	-0.064255	-0.502686	-0.467285	-0.080322	7.621148	28.822327	111.801737
21326		-4.517829	1.009904	9.075562	-0.011789	0.659576	-0.059254	-0.502441	-0.468262	-0.078857	7.624662	29.199227	111.822161
21327		-4.059527	0.963638	9.660307	0.064526	0.774755	-0.060173	-0.507813	-0.469238	-0.080566	7.677056	29.639665	111.852402
21328		-3.975935	1.054448	9.796690	0.081713	0.964553	-0.070674	-0.496582	-0.477051	-0.087402	7.744590	30.190519	111.893227
21329		-4.065008	1.158141	9.721385	0.116113	1.142699	-0.099216	-0.498535	-0.475586	-0.085938	7.831610	30.842796	111.932461
21330		-4.062203	1.152162	9.647873	0.148156	1.336037	-0.140350	-0.495117	-0.477783	-0.090820	7.933010	31.609758	111.963638
21331		-4.135103	1.160092	9.617137	0.168931	1.528224	-0.180243	-0.488281	-0.470215	-0.096436	8.043393	32.487111	111.988178
21332		-4.205743	1.111547	9.569622	0.166246	1.725807	-0.244182	-0.483154	-0.472656	-0.099365	8.140276	33.483342	111.990537
21333		-4.170901	1.286531	9.483838	0.162053	1.932543	-0.320413	-0.473145	-0.470703	-0.106201	8.218287	34.601349	111.963010
21334		-4.149127	1.352679	9.626271	0.124754	2.144593	-0.415416	-0.466553	-0.483643	-0.109863	8.248934	35.848982	111.891625
21335		-3.991412	1.331210	9.659948	0.070956	2.416621	-0.532956	-0.456055	-0.478760	-0.113281	8.214083	37.258944	111.763899
21336		-3.878423	1.500868	9.819401	-0.010384	2.765629	-0.658441	-0.448486	-0.485107	-0.116699	8.092985	38.878324	111.576617
21337		-3.864728	1.430334	9.915884	-0.078471	3.221226	-0.781965	-0.436768	-0.482422	-0.121582	7.893786	40.764216	111.334921
21338		-3.751413	1.582545	10.037520	-0.146885	3.724569	-0.895437	-0.417480	-0.488525	-0.126709	7.613598	42.945057	111.040674
21339		-4.076410	2.291745	10.377690	-0.220347	4.329896	-1.070134	-0.396973	-0.486572	-0.132080	7.209038	45.480186	110.640875
21340		-4.386446	2.954126	10.287940	-0.316595	4.962037	-1.255661	-0.385986	-0.482910	-0.140625	6.631704	48.386087	110.098610
21341		-5.299266	2.808884	10.130807	-0.387404	5.649124	-1.460654	-0.356445	-0.483887	-0.145020	5.838581	51.690537	109.353090
21342		-7.435840	2.159940	11.047571	-0.415613	6.228448	-1.542085	-0.323975	-0.485352	-0.151855	4.863288	55.322733	108.436127
21343		-10.848921	1.370035	12.521346	-0.390846	6.707243	-1.476417	-0.298584	-0.479980	-0.155762	3.780263	59.214644	107.414908
21344		-12.719806	-0.138515	13.308644	-0.059849	6.891172	-1.282163	-0.265625	-0.491699	-0.156250	2.828778	63.195306	106.368380
21345		-12.401486	0.239552	13.693608	0.429198	7.023817	-1.157803	-0.232422	-0.486084	-0.155029	2.011249	67.240319	105.197067
21346		-13.609792	0.112915	13.276396	1.182552	7.002830	-0.985403	-0.201172	-0.496582	-0.142090	1.531216	71.264400	103.959125
21347		-14.137818	0.617309	12.901039	2.087047	6.788157	-0.946758	-0.166748	-0.508789	-0.135986	1.248658	75.162092	102.414795
21348		-13.565134	2.060010	13.292832	2.893443	6.437420	-1.072827	-0.140137	-0.522217	-0.122070	0.493231	78.855638	99.938292
21349		-12.093883	5.093454	14.062681	3.558678	5.875670	-1.352852	-0.120850	-0.523682	-0.102051	-2.448916	82.207636	94.889420
21350		-5.956637	7.791338	13.950455	3.732978	5.322788	-1.860625	-0.090820	-0.538574	-0.088379	-13.636563	85.092922	81.484420
21351		0.630170	11.768074	12.825439	2.877081	5.143845	-2.696629	-0.055664	-0.536377	-0.071045	-54.119894	86.790074	39.259236
21352		-3.365156	13.684985	9.616486	1.117731	4.996453	-4.095498	-0.031982	-0.530518	-0.037109	-100.651523	84.974763	-8.017230
21353		-25.429149	9.342036	17.993477	-0.042763	2.429696	-3.691315	-0.005371	-0.520996	-0.035889	-108.185957	82.577430	-15.570482
21354		-15.621303	9.158969	20.671470	-0.615921	-0.578611	-2.910990	0.018311	-0.516357	-0.024170	-103.142802	81.064713	-10.120541
21355		-7.908141	3.481928	16.038224	-0.297182	-2.359605	-2.297848	0.023193	-0.501221	-0.030029	-94.099163	79.964558	-0.780458
21356		-1.170361	3.763599	10.041262	0.297407	-3.135760	-1.672391	0.032227	-0.503174	-0.044678	-84.277197	78.981484	9.033640
21357		1.731592	4.925259	7.232929	0.527393	-3.225421	-1.320421	0.037109	-0.488281	-0.032471	-75.686836	77.913368	17.491613
21358		1.286902	5.069399	6.152352	0.491765	-3.206938	-0.879444	0.049805	-0.489990	-0.037109	-68.243636	76.864842	24.827343
21359		0.518972	5.761059	5.892806	0.271951	-3.218543	-0.334064	0.056152	-0.474365	-0.045898	-61.506763	75.907037	31.597379
21360		-0.069182	5.408241	5.859779	-0.033764	-3.248097	0.235143	0.059570	-0.478271	-0.062256	-55.096910	75.041716	38.235917
21361		-0.405116	4.205198	5.862059	-0.260589	-3.294222	0.854689	0.065430	-0.480957	-0.061279	-48.713729	74.260426	45.008741
21362		-1.283931	2.863412	6.267177	-0.319742	-3.352862	1.468194	0.073486	-0.478027	-0.081299	-42.077431	73.505911	52.103825
21363		-2.450201	1.889273	6.795022	-0.232887	-3.478912	2.044567	0.077148	-0.478516	-0.097168	-35.090512	72.674850	59.544286
21364		-3.410130	1.515393	7.318457	-0.123570	-3.695842	2.507413	0.082275	-0.483887	-0.120361	-27.887972	71.611477	67.181667
21365		-4.277773	1.305697	7.835259	-0.047021	-3.977219	2.806837	0.078857	-0.492920	-0.135498	-20.948293	70.195797	74.551743
21366		-4.522539	0.903134	7.937088	-0.013352	-4.283949	2.957489	0.077393	-0.490967	-0.163818	-14.678153	68.366013	81.259055
21367		-4.299051	0.114142	7.584769	0.014454	-4.528745	2.959769	0.064697	-0.509766	-0.188477	-9.408114	66.176208	86.961464
21368		-4.045409	-0.676018	7.213478	0.116631	-4.663992	2.836132	0.060059	-0.524902	-0.224121	-5.151004	63.719408	91.582608
21369		-4.526623	-0.912573	7.433537	0.277963	-4.689725	2.617696	0.029541	-0.534668	-0.259033	-1.807364	61.123428	95.173329
21370		-5.666612	-0.456105	8.069996	0.413525	-4.684261	2.389017	0.006348	-0.545410	-0.299561	0.829953	58.439454	97.947482
21371		-6.870613	0.468139	8.671466	0.432009	-4.720972	2.225520	-0.030029	-0.554443	-0.318604	2.912401	55.689954	100.132325
21372		-7.404383	1.143834	8.776024	0.354882	-4.782709	2.133537	-0.073730	-0.561523	-0.332275	4.570956	52.863651	101.921354
21373		-7.942579	1.089903	9.339197	0.275436	-4.701842	2.090987	-0.109619	-0.578125	-0.357422	5.920375	50.067189	103.443435
21374		-8.821603	0.836173	9.853124	0.232753	-4.625483	2.105009	-0.149414	-0.584961	-0.358398	7.081201	47.285134	104.808196
21375		-9.242324	1.073231	10.377203	0.269271	-4.482804	2.133929	-0.192383	-0.585205	-0.370605	8.138238	44.573149	106.063465
21376		-10.527426	1.654472	11.630188	0.349413	-4.316372	2.150207	-0.231934	-0.592041	-0.362793	9.139328	41.930536	107.228916
21377		-13.423429	2.742188	13.347020	0.431432	-4.288932	2.212728	-0.278320	-0.598145	-0.358643	10.107887	39.291548	108.335880
21378		-16.265277	4.099481	14.590627	0.439839	-4.517750	2.341861	-0.310791	-0.600098	-0.344971	11.020659	36.488358	109.408268
21379		-17.115653	4.918891	14.102504	0.333446	-4.862433	2.492169	-0.351563	-0.599854	-0.341553	11.806840	33.470629	110.444924
21380		-16.696884	5.116988	12.799638	0.164235	-5.072602	2.644294	-0.389648	-0.613037	-0.316406	12.445572	30.298483	111.472120
21381		-16.255977	4.389820	11.251741	0.011233	-5.083986	2.739059	-0.428223	-0.603760	-0.298340	12.941130	27.107617	112.488948
21382		-16.060293	3.360638	10.270864	-0.009725	-4.909639	2.782925	-0.446045	-0.601074	-0.288818	13.374195	23.993651	113.501498
21383		-16.067548	2.675393	9.653315	0.091669	-4.625106	2.775485	-0.480713	-0.597412	-0.264648	13.810401	21.039846	114.501532
21384		-15.750539	2.515388	9.087908	0.188035	-4.324470	2.729620	-0.504395	-0.593506	-0.246582	14.247391	18.245775	115.475922
21385		-16.043361	2.362898	8.371641	0.209872	-4.006333	2.590442	-0.523926	-0.591064	-0.234375	14.632123	15.648422	116.380996
21386		-16.463452	1.256190	7.428037	0.222825	-3.673928	2.363413	-0.546143	-0.591309	-0.212891	14.960383	13.257177	117.178769
21387		-17.082877	-0.763732	6.143438	0.325930	-3.329635	2.089517	-0.559570	-0.590576	-0.206543	15.289915	11.098861	117.852710
21388		-17.708537	-2.660490	4.646872	0.597218	-3.001908	1.717292	-0.563477	-0.599121	-0.200928	15.720749	9.169348	118.349574
21389		-17.898857	-3.560191	3.214213	0.908043	-2.716021	1.268261	-0.582520	-0.598877	-0.182373	16.281162	7.468902	118.622784
21390		-17.848032	-3.194103	1.864521	1.085072	-2.438949	0.723928	-0.591309	-0.596436	-0.178955	16.903629	6.003409	118.621927
21391		-17.691941	-2.840129	0.736910	1.078432	-2.160545	0.122913	-0.597168	-0.613281	-0.166992	17.493946	4.795757	118.322559
21392		-17.280614	-2.979308	-0.504734	0.996873	-1.840328	-0.462363	-0.604004	-0.614746	-0.154541	18.022317	3.865867	117.747645
21393		-16.254666	-3.143853	-1.612708	0.948782	-1.423086	-0.951408	-0.601074	-0.631348	-0.145508	18.518414	3.258194	116.973532
21394		-16.083793	-2.665803	-2.031294	0.973563	-0.957205	-1.347638	-0.597656	-0.634766	-0.134521	19.027228	2.982205	116.065193
21395		-12.871581	0.551772	0.116319	0.477542	-0.096457	-1.525033	-0.581055	-0.644775	-0.137451	19.255798	3.212207	115.220936
21396		-15.344594	3.233751	-6.224285	-0.317084	1.164080	-2.004481	-0.581299	-0.654785	-0.151855	19.018298	4.214754	114.353324
21397		-20.920288	1.499009	-9.309483	-1.389130	2.212000	-2.217807	-0.565186	-0.652832	-0.159912	18.152682	5.816755	113.550387
21398		3.172876	-0.279486	-2.697477	-1.815463	3.294771	-2.237537	-0.541016	-0.657471	-0.170410	17.034218	8.001110	112.894965
21399		-8.912979	5.436284	12.968957	-1.923031	4.105723	-1.546833	-0.519775	-0.648926	-0.195557	15.903100	10.503947	112.710321
21400		-11.070800	11.884461	15.411812	-1.828691	3.327042	-1.194952	-0.509521	-0.639648	-0.218262	14.824592	12.521023	112.552967
21401		-6.966105	4.969002	9.692202	-1.536890	3.163038	-1.162926	-0.482178	-0.644775	-0.223145	13.897746	14.437685	112.352397
21402		-9.507761	-3.354643	12.536161	-1.072460	3.605265	-0.579367	-0.471924	-0.635742	-0.249268	13.329976	16.521506	112.523356
21403		-14.816257	-3.280929	17.683018	-0.706055	3.130084	-0.505577	-0.447510	-0.636963	-0.245361	12.965795	18.329566	112.656322
21404		-10.091746	-4.897684	14.540200	-0.405973	2.428666	-0.706223	-0.438721	-0.629395	-0.263184	12.704682	19.774909	112.567163
21405		-5.878755	0.499136	10.492019	-0.174888	2.201075	-0.603590	-0.421387	-0.639160	-0.264648	12.582566	21.076935	112.502762
21406		-5.583679	4.960492	9.050697	-0.168201	2.128062	-0.534547	-0.409912	-0.637939	-0.266357	12.473083	22.332631	112.466716
21407		-6.236380	3.223687	8.984621	-0.196737	2.064821	-0.550953	-0.394043	-0.629395	-0.269287	12.338459	23.551671	112.409083
21408		-7.528305	0.438946	10.091784	-0.207314	1.901370	-0.655515	-0.382568	-0.636230	-0.275146	12.159668	24.695116	112.261362
21409		-9.220992	1.123671	10.897671	-0.270379	1.653220	-0.734812	-0.371338	-0.632568	-0.288330	11.904984	25.705097	112.025728
21410		-16.275590	4.237612	14.381796	-0.726014	0.557742	-1.136394	-0.370117	-0.632568	-0.286621	11.210753	26.148077	111.388813
21411		-3.279890	0.562921	8.178948	-0.424028	0.339825	-0.535091	-0.360596	-0.627686	-0.282715	10.838789	26.393637	111.096050
21412		-7.119055	-1.002589	11.689411	-0.261125	0.335178	-0.367919	-0.354492	-0.630371	-0.287354	10.604435	26.621312	110.905758
21413		-4.951830	-0.551963	9.475211	-0.154099	0.192705	-0.157112	-0.363037	-0.628906	-0.293701	10.482995	26.742159	110.830671
21414		-4.012520	2.690737	8.373006	-0.104488	0.171359	-0.116571	-0.361816	-0.630615	-0.291016	10.399426	26.850661	110.778161
21415		-5.320045	1.298279	9.440570	-0.097751	0.159809	-0.111908	-0.351807	-0.625977	-0.291748	10.320961	26.948095	110.727264
21416		-4.285312	1.587360	8.730141	-0.092571	0.129525	-0.100912	-0.362793	-0.634277	-0.290039	10.246217	27.031287	110.679455
21417		-4.671295	1.667522	8.747813	-0.077456	0.139767	-0.087398	-0.354248	-0.626221	-0.288086	10.185104	27.114815	110.641437
21418		-4.807770	1.482803	8.733729	-0.060854	0.131438	-0.070971	-0.359131	-0.637939	-0.297607	10.137049	27.195966	110.612558
21419		-4.723856	1.454344	8.753127	-0.046320	0.110821	-0.054855	-0.358887	-0.633789	-0.288086	10.101533	27.259833	110.591696
21420		-4.720408	1.548732	8.610742	-0.030492	0.101729	-0.041295	-0.354736	-0.629150	-0.293945	10.077833	27.321232	110.578148
21421		-4.699589	1.497654	8.717719	-0.015704	0.092852	-0.032268	-0.353271	-0.627686	-0.294922	10.065442	27.372685	110.569521
21422		-4.584798	1.426594	8.689802	-0.026477	0.080827	-0.026152	-0.347168	-0.633057	-0.289551	10.047337	27.420784	110.563186
21423		-4.576649	1.413806	8.716177	-0.032329	0.076731	-0.026315	-0.354492	-0.626709	-0.289063	10.026296	27.462542	110.556487
21424		-4.449860	1.328872	8.659057	-0.039695	0.083969	-0.018995	-0.354980	-0.625488	-0.291504	10.002840	27.511699	110.555008
21425		-4.496400	1.251308	8.692900	-0.027652	0.101251	-0.012299	-0.355957	-0.630859	-0.283447	9.989846	27.565894	110.559940
21426		-4.516009	1.672411	8.481049	-0.025482	0.111680	-0.015467	-0.356934	-0.623047	-0.298340	9.976974	27.630330	110.563771
21427		-4.621530	1.689663	8.451128	-0.034098	0.122800	-0.021297	-0.355225	-0.624512	-0.300293	9.958743	27.697581	110.565358
21428		-4.646942	1.694184	8.416823	-0.045085	0.108015	-0.030470	-0.350830	-0.623047	-0.289551	9.930005	27.761439	110.559178
21429		-4.679174	1.659657	8.476274	-0.057425	0.097203	-0.037263	-0.354248	-0.626953	-0.294434	9.892299	27.815819	110.547652
21430		-4.686140	1.681978	8.421013	-0.067964	0.085980	-0.041613	-0.356689	-0.621826	-0.298340	9.845949	27.868337	110.531822
21431		-4.661473	1.739394	8.422509	-0.076036	0.066853	-0.057422	-0.350098	-0.628906	-0.298096	9.789918	27.907535	110.503955
21432		-4.715880	1.643281	8.439635	-0.094251	0.049220	-0.057464	-0.350830	-0.632324	-0.297607	9.721816	27.940817	110.473844
21433		-4.760412	1.419670	8.534763	-0.098414	0.035611	-0.054992	-0.354004	-0.625244	-0.299316	9.652010	27.962080	110.444002
21434		-4.690329	1.443562	8.568061	-0.098890	0.030266	-0.047849	-0.339844	-0.629395	-0.296387	9.583109	27.983683	110.417894
21435		-4.715193	1.433797	8.579316	-0.095339	0.029451	-0.042980	-0.342773	-0.627686	-0.296875	9.518310	28.000260	110.395006
21436		-4.638442	1.412539	8.575041	-0.092872	0.034357	-0.041059	-0.347900	-0.626709	-0.290283	9.455058	28.023487	110.373624
21437		-4.585330	1.471804	8.627192	-0.082614	0.041100	-0.039967	-0.347412	-0.623047	-0.298096	9.399001	28.046323	110.353856
21438		-4.651762	1.469938	8.559554	-0.080076	0.048730	-0.044979	-0.349121	-0.624268	-0.297119	9.342569	28.077998	110.331425
21439		-4.737081	1.417558	8.565326	-0.081787	0.059162	-0.042610	-0.347168	-0.622559	-0.291260	9.287035	28.111257	110.311799
21440		-4.710448	1.419790	8.571569	-0.085158	0.045360	-0.042290	-0.344482	-0.625488	-0.299316	9.228281	28.140744	110.290665
21441		-4.682842	1.367637	8.581297	-0.082297	0.039220	-0.036915	-0.354492	-0.615723	-0.294922	9.173143	28.162167	110.272535
21442		-4.658563	1.310465	8.691288	-0.075811	0.048668	-0.037226	-0.354492	-0.621094	-0.298096	9.121390	28.193030	110.254923
21443		-4.638875	1.305775	8.737958	-0.054666	0.063829	-0.033541	-0.338623	-0.621094	-0.306396	9.084264	28.228043	110.241439
21444		-4.577827	1.355931	8.758263	-0.049542	0.092708	-0.024932	-0.346436	-0.627441	-0.304443	9.053379	28.282683	110.236178
21445		-4.618310	1.230436	8.752271	-0.035206	0.106762	-0.032991	-0.344971	-0.620605	-0.306641	9.029605	28.341928	110.227383
21446		-4.633184	1.386677	8.678825	-0.027166	0.140473	-0.031250	-0.340332	-0.620850	-0.300049	9.011880	28.424145	110.222874
21447		-4.673773	1.513426	8.666919	-0.039436	0.161507	-0.020129	-0.337158	-0.620117	-0.301514	8.992241	28.513211	110.227882
21448		-4.717503	1.417678	8.606250	-0.056136	0.159989	-0.035311	-0.344971	-0.619629	-0.310059	8.957574	28.606821	110.222664
21449		-4.674770	1.509205	8.601260	-0.078175	0.185100	-0.024335	-0.338867	-0.616699	-0.306396	8.915549	28.709620	110.227246
21450		-4.653404	1.656792	8.663764	-0.100638	0.207716	-0.035448	-0.343750	-0.617188	-0.302979	8.857576	28.830245	110.226593
21451		-4.446609	1.568583	8.838588	-0.091456	0.236860	-0.063610	-0.343506	-0.618652	-0.293945	8.798094	28.965811	110.210762
21452		-3.878734	1.249687	9.596200	-0.044002	0.345486	-0.059459	-0.339111	-0.628906	-0.306396	8.771621	29.166513	110.208116
21453		-4.666383	1.306194	8.886694	-0.011921	0.455030	-0.059725	-0.330566	-0.617432	-0.300049	8.769435	29.425265	110.216446
21454		-4.312045	1.306345	9.349797	-0.005369	0.538469	-0.046541	-0.326660	-0.620605	-0.298340	8.778760	29.734032	110.241535
21455		-4.447914	1.175434	9.162422	-0.003677	0.656182	-0.051599	-0.323242	-0.623047	-0.306152	8.794224	30.105971	110.275620
21456		-4.445878	0.932793	9.340366	0.019691	0.763576	-0.053361	-0.320801	-0.614014	-0.304443	8.827679	30.542692	110.319521
21457		-4.325803	0.965544	9.498785	0.039443	0.898531	-0.055842	-0.314697	-0.623779	-0.295166	8.880024	31.052171	110.376506
21458		-4.416540	1.213502	9.333672	0.072406	1.063010	-0.075314	-0.311035	-0.622803	-0.301514	8.953677	31.660155	110.438368
21459		-4.362286	1.453375	9.401323	0.084558	1.229170	-0.102541	-0.310303	-0.617676	-0.308594	9.036074	32.360808	110.501337
21460		-4.275890	1.504596	9.404133	0.088772	1.417076	-0.135778	-0.298584	-0.614502	-0.304932	9.120587	33.174305	110.563545
21461		-4.435507	1.426085	9.300794	0.064175	1.602622	-0.193041	-0.289307	-0.626465	-0.304688	9.183311	34.094305	110.609372
21462		-4.316381	1.450535	9.337956	0.026532	1.780224	-0.255289	-0.281982	-0.625244	-0.308594	9.212061	35.123871	110.633235
21463		-4.329340	1.485274	9.284896	-0.013206	1.996658	-0.337783	-0.266846	-0.622314	-0.300049	9.200236	36.279960	110.624964
21464		-4.235561	1.551842	9.305677	-0.053170	2.265771	-0.430422	-0.258545	-0.625244	-0.313965	9.143027	37.599976	110.580457
21465		-4.155254	1.500965	9.471221	-0.076561	2.618609	-0.518364	-0.239258	-0.618164	-0.307129	9.056453	39.124281	110.510738
21466		-3.968404	1.301184	9.731767	-0.101563	3.047073	-0.607389	-0.223877	-0.630127	-0.302002	8.939738	40.901928	110.419696
21467		-4.339989	1.475783	10.147553	-0.127056	3.529287	-0.710711	-0.196533	-0.622803	-0.298828	8.787149	42.958525	110.299468
21468		-3.860201	1.774006	9.780409	-0.134128	4.092200	-0.833720	-0.171387	-0.623047	-0.307861	8.596746	45.346953	110.136452
21469		-4.314704	2.348504	10.123419	-0.191781	4.705386	-1.002558	-0.147949	-0.624268	-0.300293	8.306214	48.093972	109.887632
21470		-4.949222	2.438210	10.351256	-0.228434	5.346595	-1.165944	-0.118408	-0.622314	-0.291748	7.906343	51.219011	109.534739
21471		-6.764050	1.978191	10.968314	-0.257171	5.970733	-1.242141	-0.084961	-0.621094	-0.288330	7.431599	54.700282	109.124112
21472		-9.451017	1.389349	11.877568	-0.211237	6.492891	-1.225663	-0.042969	-0.613281	-0.274658	6.962418	58.476699	108.707065
21473		-12.876061	0.598198	13.027716	-0.048658	6.717803	-1.060672	-0.017578	-0.614014	-0.264160	6.679884	62.366582	108.413778
21474		-12.702864	0.863017	12.971539	0.390202	6.824822	-0.949427	0.010254	-0.623291	-0.240723	6.731461	66.310762	108.222702
21475		-12.913249	1.326517	13.204588	0.900318	6.870576	-0.890592	0.053467	-0.622803	-0.219727	7.176592	70.276036	108.145804
21476		-14.256766	1.303371	12.931897	1.637617	6.756026	-0.866968	0.084717	-0.631348	-0.190186	8.197460	74.174894	108.231749
21477		-15.193481	2.052713	13.221287	2.422928	6.445206	-0.961139	0.099854	-0.637207	-0.160645	9.716708	77.904211	108.365586
21478		-15.185034	3.623581	14.247867	3.191590	5.828494	-1.148698	0.132324	-0.644287	-0.119629	11.349382	81.302942	108.165450
21479		-10.708100	6.210968	14.653962	3.762823	5.062643	-1.467330	0.147949	-0.659180	-0.091309	11.548459	84.308862	106.192667
21480		-3.796169	9.870347	13.509400	3.489472	4.582214	-1.974201	0.165283	-0.666748	-0.053467	3.119388	87.062486	95.736831
21481		-0.180822	10.879898	9.060971	2.181196	4.454897	-3.533877	0.194336	-0.665527	-0.031982	-77.549312	88.130309	13.770023
21482		-26.748659	9.684899	15.840174	1.115428	2.911095	-3.838965	0.204346	-0.654541	-0.018311	-106.907397	85.791146	-16.262422
21483		-15.076613	10.433586	15.927480	0.176844	-0.031877	-3.048619	0.213867	-0.641357	-0.011719	-101.687036	84.104179	-11.124580
21484		-8.168551	8.300001	15.072365	-0.332138	-1.621480	-2.718747	0.214844	-0.643311	-0.019531	-92.213447	82.670560	-1.398211
21485		-3.599158	5.698909	10.088597	-0.485723	-2.308478	-2.373070	0.221191	-0.635986	-0.030029	-83.454243	81.259224	7.727282
21486		-0.280190	5.328864	6.694542	-0.579326	-2.472534	-2.086833	0.217773	-0.627686	-0.046875	-76.579397	79.836499	15.030638
21487		0.591570	4.457574	5.238915	-0.683291	-2.476399	-1.701679	0.213623	-0.633301	-0.050293	-71.231414	78.505465	20.873057
21488		0.338338	3.796935	4.959528	-0.729000	-2.480444	-1.152828	0.209473	-0.630859	-0.067383	-66.498999	77.377035	26.136599
21489		-0.016271	3.843215	5.005239	-0.756973	-2.487835	-0.495561	0.205811	-0.622314	-0.079346	-61.912183	76.500321	31.289577
21490		-0.038700	3.647109	4.876039	-0.796033	-2.505460	0.186726	0.201904	-0.628174	-0.092285	-57.063863	75.862134	36.748986
21491		-0.597236	2.944460	5.084736	-0.791692	-2.563266	0.836457	0.181641	-0.654053	-0.091064	-51.747687	75.395743	42.704206
21492		-1.793404	2.364566	5.574907	-0.715536	-2.698190	1.440455	0.175537	-0.652344	-0.106201	-45.648451	74.991255	49.433389
21493		-2.856420	2.029935	5.973206	-0.642405	-2.930517	1.951101	0.143555	-0.664307	-0.105469	-38.822936	74.496947	56.888388
21494		-3.352255	1.719425	6.176394	-0.611618	-3.208829	2.320464	0.124268	-0.676758	-0.127197	-31.575316	73.752356	64.783500
21495		-3.612698	1.068361	6.169765	-0.605040	-3.482799	2.513705	0.104248	-0.692627	-0.147217	-24.579898	72.664713	72.450734
21496		-3.800316	0.188560	6.140803	-0.554427	-3.708277	2.572111	0.075928	-0.715576	-0.151855	-18.271886	71.212380	79.415320
21497		-4.288787	-0.522531	6.177496	-0.440312	-3.884178	2.525899	0.053711	-0.725586	-0.159668	-12.937350	69.452762	85.346398
21498		-5.198670	-0.601721	6.454195	-0.288756	-4.031657	2.403418	0.028076	-0.735352	-0.161377	-8.563501	67.425822	90.222997
21499		-6.306221	-0.144187	6.764052	-0.181778	-4.183199	2.256779	-0.007324	-0.758789	-0.170410	-5.085094	65.194801	94.133633
21500		-6.889437	0.323554	6.897113	-0.166126	-4.336450	2.099722	-0.029785	-0.767334	-0.172607	-2.373083	62.778802	97.253435
21501		-7.032577	0.610287	6.783477	-0.203889	-4.433107	1.950242	-0.061523	-0.790039	-0.172363	-0.316026	60.261363	99.725300
21502		-6.760237	0.565450	6.580553	-0.233663	-4.443173	1.831115	-0.088623	-0.802734	-0.180176	1.270406	57.691711	101.729192
21503		-6.683888	0.383060	6.621909	-0.194093	-4.384912	1.727115	-0.113281	-0.816406	-0.179443	2.526992	55.143758	103.369921
21504		-7.296308	0.381898	7.188451	-0.107898	-4.288505	1.661363	-0.140869	-0.822510	-0.178955	3.596296	52.623734	104.766684
21505		-7.778005	0.994546	7.931540	-0.008281	-4.217683	1.645366	-0.177979	-0.822510	-0.175049	4.556545	50.142143	106.000707
21506		-8.191624	2.057283	8.624310	0.013587	-4.144699	1.675451	-0.208008	-0.850342	-0.165283	5.430322	47.677026	107.146292
21507		-8.821193	2.795088	9.730829	-0.035583	-4.092164	1.735694	-0.247070	-0.840088	-0.153809	6.203270	45.239521	108.239696
21508		-9.907551	3.028273	10.734573	-0.033574	-4.082335	1.833084	-0.271729	-0.848145	-0.139648	6.938644	42.779606	109.322202
21509		-11.367974	3.065197	11.697512	0.044593	-4.147228	1.976593	-0.289551	-0.836914	-0.124512	7.692962	40.274361	110.420297
21510		-12.478676	3.360938	12.241020	0.156378	-4.321474	2.145222	-0.308105	-0.824951	-0.105225	8.489010	37.633784	111.540063
21511		-12.797980	3.617796	12.183044	0.216665	-4.502080	2.245280	-0.319824	-0.814697	-0.086182	9.255319	34.882504	112.624523
21512		-12.795843	3.783910	11.899207	0.207077	-4.611460	2.263396	-0.331543	-0.808594	-0.078125	9.931730	32.045142	113.631822
21513		-12.803332	3.812306	11.570784	0.161139	-4.627120	2.240528	-0.329346	-0.802246	-0.075684	10.495093	29.204148	114.555035
21514		-12.563131	3.825205	11.299412	0.115681	-4.560122	2.211871	-0.337402	-0.792725	-0.076660	10.964371	26.385583	115.414587
21515		-12.507402	3.857829	11.566432	0.077284	-4.423847	2.198357	-0.344238	-0.791016	-0.095947	11.357583	23.650796	116.238054
21516		-12.977147	3.309453	11.908472	0.087985	-4.262226	2.205220	-0.353760	-0.789795	-0.107422	11.718359	20.990464	117.049815
21517		-13.324246	3.172285	12.051083	0.136392	-4.098299	2.205247	-0.363525	-0.788086	-0.114990	12.067100	18.428085	117.850234
21518		-14.546964	2.656687	12.662168	0.206569	-3.972699	2.160546	-0.378662	-0.787842	-0.131836	12.412515	15.927232	118.612664
21519		-16.015128	2.059940	12.899700	0.297191	-4.006910	2.108508	-0.400879	-0.794434	-0.136475	12.761425	13.419104	119.315329
21520		-16.051109	1.150704	12.236753	0.404399	-4.152594	1.972358	-0.420654	-0.790771	-0.144531	13.117158	10.834612	119.897988
21521		-14.977604	-0.140394	10.490438	0.535249	-4.232673	1.701636	-0.448730	-0.798340	-0.156494	13.490307	8.245964	120.295192
21522		-13.239670	-1.754163	7.887850	0.710137	-4.120698	1.240542	-0.463379	-0.790283	-0.158203	13.914706	5.772850	120.428381
21523		-12.022723	-3.389202	5.730697	0.962262	-3.792182	0.595868	-0.481201	-0.802734	-0.155029	14.450286	3.578430	120.227311
21524		-12.399681	-4.334202	4.825848	1.296169	-3.379901	-0.135588	-0.500000	-0.820557	-0.167725	15.167412	1.716599	119.657464
21525		-13.046047	-4.325455	4.110623	1.598020	-3.059008	-0.776848	-0.511475	-0.827637	-0.159912	16.069044	0.144183	118.757678
21526		-12.683427	-3.466268	3.077576	1.693709	-2.755166	-1.266807	-0.519531	-0.832520	-0.161621	17.049997	-1.170015	117.612742
21527		-12.607846	-1.994649	2.108719	1.540173	-2.381539	-1.595091	-0.521729	-0.848633	-0.149414	17.970787	-2.200651	116.330779
21528		-12.688694	-0.822899	1.448996	1.163448	-1.964593	-1.781130	-0.528809	-0.861572	-0.146729	18.696872	-2.954558	115.007312
21529		-12.708162	-0.254682	1.139158	0.728352	-1.552360	-1.826656	-0.531006	-0.868408	-0.144775	19.186401	-3.460427	113.727255
21530		-12.430567	0.209641	1.079093	0.370794	-1.170749	-1.733094	-0.519775	-0.875000	-0.145264	19.471909	-3.769615	112.566504
21531		-11.254517	0.879109	1.106298	0.085566	-0.779542	-1.525044	-0.512451	-0.879639	-0.150879	19.586703	-3.902782	111.592031
21532		-9.915491	1.009366	1.071294	-0.114073	-0.336607	-1.218802	-0.510742	-0.897705	-0.156494	19.570167	-3.853955	110.868403
21533		-9.440741	0.994150	1.604398	-0.223496	0.089396	-0.869663	-0.512451	-0.892822	-0.152832	19.472296	-3.643486	110.415449
21534		-9.607342	1.188206	2.570406	-0.302590	0.415936	-0.564634	-0.506836	-0.888428	-0.164551	19.312552	-3.313611	110.189628
21535		-4.319271	0.080821	5.746287	-0.582729	1.744851	-0.682574	-0.493164	-0.892822	-0.167725	18.981222	-2.245225	110.148595
21536		10.033280	-3.056343	-7.325572	0.211176	2.388780	-0.897358	-0.472900	-0.895996	-0.175293	19.103090	-0.785234	110.109758
21537		-1.525793	13.101575	6.898334	-1.347689	3.663282	-1.348811	-0.448975	-0.900391	-0.194336	18.331059	1.446342	110.051946
21538		-2.442051	8.484147	10.038936	-2.395145	3.669723	-2.656109	-0.420166	-0.889648	-0.233154	16.920885	3.908927	109.238118
21539		-7.320605	3.060765	9.670249	-1.972104	4.017941	-2.069120	-0.395752	-0.878662	-0.249268	15.746968	6.447231	108.746700
21540		-8.416436	10.141202	9.951422	-1.591773	4.354721	-0.919263	-0.361816	-0.880615	-0.280518	14.855992	8.991182	108.899383
21541		-10.168273	7.018874	13.953777	-1.523264	4.540812	-0.694251	-0.321777	-0.873291	-0.280518	14.031739	11.605593	109.168347
21542		-13.633517	-2.600654	15.870976	-1.082654	4.117274	-0.412368	-0.315186	-0.862793	-0.299561	13.488115	13.952228	109.509544
21543		-13.486535	-6.364553	17.000351	-0.679522	3.431196	-0.477818	-0.288574	-0.863281	-0.296875	13.149331	15.924121	109.703572
21544		-10.425596	-5.073610	15.519487	-0.292037	2.747633	-0.494840	-0.272217	-0.862793	-0.312744	13.006728	17.521865	109.788220
21545		-7.951822	0.318474	12.348371	-0.052133	2.334478	-0.414233	-0.261475	-0.867920	-0.313232	13.000683	18.874304	109.862684
21546		-6.458975	2.587184	10.465022	0.040615	2.122469	-0.344668	-0.245117	-0.865479	-0.313721	13.052963	20.104191	109.950239
21547		-6.126531	1.713298	9.905366	0.062931	1.981806	-0.303859	-0.237793	-0.862793	-0.314941	13.123015	21.245387	110.044904
21548		-7.178378	1.134929	10.555767	0.031765	1.753982	-0.373032	-0.217285	-0.857910	-0.310303	13.149431	22.273336	110.067564
21549		-7.586162	1.518761	10.564572	-0.018603	1.444095	-0.419177	-0.203369	-0.861084	-0.308105	13.120579	23.129449	110.018949
21550		-7.131501	2.517472	10.005076	-0.052959	1.197497	-0.374611	-0.198486	-0.863037	-0.316650	13.066973	23.847241	109.961283
21551		-6.105906	2.824938	9.516368	-0.071971	1.038453	-0.292880	-0.195801	-0.855225	-0.309570	13.013655	24.460529	109.930368
21552		-5.258401	1.643471	9.325683	-0.094798	0.921205	-0.275070	-0.187744	-0.852539	-0.315674	12.943327	25.011216	109.892612
21553		-4.590107	1.398251	9.050804	-0.105377	0.856667	-0.278630	-0.181885	-0.851074	-0.320557	12.862290	25.521085	109.842874
21554		-9.494963	4.428468	11.180263	-0.372849	0.585611	-0.538293	-0.176270	-0.856445	-0.320313	12.539363	25.917086	109.591608
21555		-4.131743	1.142923	8.649781	-0.284644	0.385763	-0.317492	-0.162598	-0.849121	-0.324707	12.313797	26.167868	109.448008
21556		-4.612803	0.926065	9.728576	-0.255747	0.443279	-0.316168	-0.168457	-0.843018	-0.325195	12.106458	26.455321	109.311286
21557		-5.034325	1.069335	8.996508	-0.182437	0.376250	-0.254102	-0.158691	-0.858398	-0.319824	11.954297	26.692304	109.203538
21558		-5.284526	1.859852	9.036057	-0.117399	0.347807	-0.173971	-0.158691	-0.850830	-0.326172	11.858620	26.908632	109.141168
21559		-4.734860	1.184312	8.911779	-0.074563	0.304930	-0.135326	-0.151367	-0.853760	-0.321045	11.796611	27.091329	109.097430
21560		-4.787135	1.891640	8.751648	-0.064876	0.276026	-0.117638	-0.152100	-0.848877	-0.319580	11.742202	27.260565	109.060355
21561		-4.867657	2.025808	8.467099	-0.069378	0.242039	-0.098238	-0.155273	-0.848145	-0.322998	11.689667	27.403587	109.031272
21562		-4.550152	2.159223	8.200429	-0.095836	0.211309	-0.104402	-0.144531	-0.847168	-0.320557	11.617145	27.534789	108.993667
21563		-4.573578	2.422949	8.223619	-0.117063	0.223671	-0.126183	-0.150391	-0.843506	-0.322998	11.527641	27.670648	108.944025
21564		-4.820691	2.007110	8.332092	-0.122595	0.197499	-0.132530	-0.142090	-0.851074	-0.324463	11.430350	27.797072	108.886307
21565		-4.779044	2.008670	8.280506	-0.136994	0.167817	-0.137028	-0.139893	-0.850342	-0.326416	11.322385	27.902632	108.821998
21566		-4.770276	1.690300	8.445543	-0.138443	0.157278	-0.136010	-0.142090	-0.847656	-0.327393	11.212151	28.006546	108.756361
21567		-4.911431	1.375307	8.688472	-0.128182	0.122392	-0.135133	-0.142578	-0.846436	-0.322266	11.106656	28.086145	108.686983
21568		-4.781079	1.538786	8.579238	-0.118677	0.100663	-0.118764	-0.133057	-0.844727	-0.328369	11.009190	28.155997	108.624768
21569		-4.790165	1.555925	8.683858	-0.112756	0.075999	-0.105340	-0.132568	-0.845215	-0.330078	10.918474	28.206044	108.568271
21570		-4.634420	1.607462	8.517152	-0.109513	0.076288	-0.102138	-0.137207	-0.834961	-0.326416	10.829620	28.260073	108.513380
21571		-4.713231	1.724973	8.425756	-0.112699	0.075140	-0.103914	-0.141357	-0.836426	-0.326172	10.739119	28.309328	108.457457
21572		-4.694061	1.831425	8.421206	-0.120450	0.079417	-0.112128	-0.131592	-0.843506	-0.332031	10.640971	28.365883	108.396325
21573		-4.720945	1.707700	8.440683	-0.120460	0.084029	-0.109075	-0.133789	-0.835938	-0.329346	10.544748	28.420523	108.337918
21574		-4.816496	1.660876	8.375631	-0.132412	0.077440	-0.112626	-0.137695	-0.836670	-0.324463	10.439292	28.475688	108.275979
21575		-4.820606	1.677681	8.381231	-0.138866	0.063339	-0.115403	-0.138672	-0.835449	-0.324951	10.329199	28.519134	108.210800
21576		-4.862149	1.502684	8.476831	-0.147122	0.049591	-0.120691	-0.132813	-0.839111	-0.332520	10.211109	28.559081	108.140181
21577		-4.679925	1.640494	8.304944	-0.162513	0.031930	-0.121784	-0.136475	-0.843994	-0.335449	10.083586	28.585219	108.067043
21578		-4.586000	1.646486	8.559456	-0.174942	0.059925	-0.130568	-0.123779	-0.833496	-0.332031	9.946921	28.631571	107.991029
21579		-4.578352	1.224654	8.863435	-0.169957	0.074478	-0.116950	-0.130859	-0.836914	-0.334961	9.818722	28.680954	107.925574
21580		-4.621206	1.247447	8.848932	-0.139447	0.109186	-0.097666	-0.127930	-0.834473	-0.343018	9.714941	28.751469	107.875916
21581		-4.789641	1.250202	8.749358	-0.112994	0.132847	-0.089447	-0.118164	-0.835938	-0.335693	9.630729	28.830961	107.834307
21582		-4.914427	1.343493	8.629401	-0.099544	0.142913	-0.069705	-0.120850	-0.838867	-0.345215	9.560026	28.917576	107.806056
21583		-4.791503	1.395521	8.513640	-0.081246	0.137359	-0.064003	-0.127441	-0.826660	-0.332520	9.501951	28.997113	107.781077
21584		-4.901457	1.543059	8.478688	-0.087412	0.144120	-0.061139	-0.122314	-0.827393	-0.335938	9.440774	29.083419	107.758247
21585		-4.927282	1.568935	8.391029	-0.098126	0.123632	-0.062983	-0.134277	-0.828369	-0.339355	9.372456	29.155053	107.732219
21586		-4.850352	1.728427	8.290973	-0.126720	0.099564	-0.063503	-0.126709	-0.830078	-0.345703	9.285561	29.216219	107.702867
21587		-4.918872	2.087986	8.062177	-0.161719	0.074995	-0.064020	-0.119629	-0.818359	-0.333984	9.177790	29.260373	107.670763
21588		-4.985963	1.954569	8.044822	-0.223556	-0.000414	-0.092541	-0.123779	-0.829590	-0.340332	9.021039	29.267395	107.611944
21589		-5.045697	1.625030	8.254246	-0.238547	-0.033629	-0.100339	-0.126709	-0.833252	-0.337891	8.852174	29.253156	107.544927
21590		-4.844765	1.126890	8.707525	-0.229412	-0.059101	-0.079803	-0.124268	-0.828125	-0.338379	8.693321	29.225446	107.488517
21591		-4.715535	0.791898	9.018136	-0.201845	0.019735	-0.067853	-0.114502	-0.826172	-0.345459	8.558432	29.238328	107.447952
21592		-4.536367	1.284871	9.027068	-0.199211	0.100040	-0.059788	-0.123291	-0.819336	-0.341797	8.430815	29.298732	107.420126
21593		-4.729655	0.902068	8.971956	-0.188081	0.176739	-0.040417	-0.115967	-0.818359	-0.342041	8.319798	29.398166	107.412324
21594		-4.429447	1.266299	9.250708	-0.221054	0.251700	-0.044556	-0.120117	-0.821777	-0.356934	8.191344	29.543061	107.408414
21595		-4.353645	0.631615	9.314309	-0.171250	0.355230	-0.051408	-0.114258	-0.824951	-0.342529	8.094391	29.744596	107.409620
21596		-4.383125	1.183123	9.233194	-0.090764	0.480828	-0.067516	-0.112549	-0.817627	-0.347412	8.043377	30.021130	107.411376
21597		-4.380136	1.102863	9.263483	-0.047600	0.600481	-0.074585	-0.111816	-0.815430	-0.347168	8.020829	30.363662	107.419641
21598		-4.464642	1.179321	9.190276	-0.032233	0.715177	-0.092185	-0.098877	-0.821533	-0.339600	8.006015	30.774954	107.426582
21599		-4.634396	1.238171	9.062075	-0.027333	0.833978	-0.104202	-0.103516	-0.812500	-0.350830	7.996199	31.252333	107.436821
21600		-4.703346	1.313082	9.116127	-0.026847	0.940468	-0.132143	-0.096680	-0.812500	-0.347168	7.981612	31.794478	107.438073
21601		-4.834187	1.413666	8.922946	-0.031550	1.027999	-0.141977	-0.081299	-0.815186	-0.344482	7.965692	32.384955	107.441063
21602		-4.858042	1.161217	8.966791	-0.033186	1.122602	-0.160794	-0.090576	-0.814209	-0.340820	7.946171	33.032574	107.439812
21603		-4.890714	1.029724	9.019197	-0.023327	1.230664	-0.174624	-0.074707	-0.815186	-0.343262	7.933175	33.740641	107.439448
21604		-4.875338	1.287239	8.917856	-0.013849	1.344918	-0.199813	-0.060547	-0.815918	-0.339355	7.921380	34.517353	107.432249
21605		-4.939143	1.280727	8.882464	-0.021744	1.480842	-0.238882	-0.062256	-0.814941	-0.338379	7.897317	35.372465	107.410997
21606		-5.042564	1.326336	8.695082	-0.038824	1.603752	-0.279064	-0.045410	-0.806152	-0.335205	7.852650	36.302135	107.372353
21607		-5.293925	1.278717	8.451316	-0.073187	1.717212	-0.325624	-0.037354	-0.813721	-0.328613	7.774119	37.298145	107.310311
21608		-5.502237	1.088753	8.238966	-0.093525	1.820269	-0.365471	-0.027100	-0.807373	-0.332764	7.669361	38.357166	107.226500
21609		-5.698021	1.242083	8.121031	-0.109262	1.908181	-0.393204	-0.018799	-0.816162	-0.329102	7.545038	39.466571	107.127340
21610		-5.907923	1.172546	8.014165	-0.140034	1.994192	-0.418970	0.001709	-0.813477	-0.327393	7.390813	40.627959	107.011957
21611		-5.833772	1.395157	7.914075	-0.154707	2.100659	-0.458535	0.011963	-0.809814	-0.324219	7.209620	41.851080	106.870707
21612		-6.015169	1.374193	7.775692	-0.175250	2.245419	-0.517294	0.025879	-0.811035	-0.311768	6.986740	43.161557	106.689045
21613		-6.323277	1.021815	7.295487	-0.184256	2.352618	-0.555360	0.040283	-0.802246	-0.318359	6.734342	44.533783	106.476297
21614		-6.649797	0.646257	6.873014	-0.182342	2.419179	-0.573123	0.060303	-0.809326	-0.315430	6.463119	45.945513	106.241036
21615		-6.903419	0.209422	6.606977	-0.152113	2.482655	-0.557289	0.071533	-0.800537	-0.300537	6.208114	47.390449	106.009520
21616		-7.061059	0.030551	6.594666	-0.131098	2.555220	-0.528237	0.088135	-0.809082	-0.285645	5.972220	48.875378	105.793220
21617		-7.121983	-0.342039	6.939360	-0.099739	2.659629	-0.493044	0.097900	-0.804443	-0.287109	5.770173	50.416079	105.602350
21618		-7.355412	-0.274978	7.559785	-0.022616	2.822597	-0.448931	0.114746	-0.796875	-0.280518	5.640516	52.047852	105.452322
21619		-7.676703	0.235192	7.842714	0.030312	3.013298	-0.398659	0.131348	-0.794678	-0.263184	5.583126	53.784356	105.357908
21620		-8.135708	0.500761	8.268700	0.050560	3.229372	-0.334996	0.151611	-0.798828	-0.260742	5.598835	55.641382	105.341320
21621		-9.105086	0.414129	8.888644	0.133620	3.419092	-0.272493	0.166016	-0.794189	-0.241699	5.736158	57.602167	105.413387
21622		-9.213780	0.866936	8.968243	0.207278	3.587774	-0.252030	0.180908	-0.796143	-0.221680	5.965171	59.658444	105.542126
21623		-8.831139	1.068821	8.695841	0.333739	3.813662	-0.258862	0.201172	-0.795410	-0.217041	6.313680	61.842778	105.721690
21624		-9.221341	1.585573	9.615125	0.456749	4.060295	-0.260521	0.232178	-0.805664	-0.195068	6.808616	64.167315	105.982968
21625		-9.830585	1.866524	9.529221	0.658307	4.311937	-0.320154	0.241943	-0.803955	-0.170410	7.462402	66.637436	106.286417
21626		-10.521415	1.765596	9.259669	0.903020	4.482827	-0.393314	0.258301	-0.806885	-0.147461	8.300864	69.208478	106.632271
21627		-11.777489	1.473837	8.933949	1.298338	4.564999	-0.432457	0.277344	-0.814209	-0.118896	9.501272	71.826740	107.115643
21628		-13.020746	2.101064	9.330843	1.703526	4.470091	-0.550683	0.288330	-0.816895	-0.092529	10.956204	74.398740	107.615338
21629		-12.106798	2.623802	9.209843	2.009262	4.311208	-0.740066	0.310547	-0.825684	-0.052246	12.447906	76.899317	107.965924
21630		-11.429792	3.168980	9.468332	2.305851	4.122500	-0.944631	0.329102	-0.826172	-0.022217	13.818691	79.317491	108.015921
21631		-11.703043	5.685890	10.394111	2.476490	3.848194	-1.183848	0.342285	-0.822998	0.000977	14.544510	81.617073	107.312482
21632		-10.073276	8.584101	10.403045	2.117049	3.442134	-1.657789	0.358154	-0.827148	0.028320	12.105521	83.750513	103.630485
21633		-6.877155	7.186197	4.618890	1.680789	3.023154	-2.160994	0.369873	-0.817627	0.041748	2.165874	85.627463	92.681871
21634		1.359979	12.713142	9.320180	0.714303	2.076948	-1.798021	0.389404	-0.805420	0.054443	-14.652749	86.705175	75.416000
21635		-19.541800	11.722331	17.652525	-0.452381	-0.125343	-1.169785	0.391602	-0.804688	0.039307	-24.945819	86.406439	65.363528
21636		-10.419638	6.829210	13.372519	-0.706018	-1.589904	-0.858633	0.396729	-0.799316	0.016846	-25.991701	85.368014	64.719737
21637		-2.143557	4.848413	7.573098	-0.794497	-2.328420	-0.782304	0.402100	-0.793945	-0.002441	-24.638850	83.967534	66.534973
21638		1.103275	1.520975	4.273586	-0.718260	-2.628922	-0.893626	0.391846	-0.801270	-0.032715	-23.738684	82.378528	67.854909
21639		-0.342364	-1.326438	4.061674	-0.286974	-2.755039	-0.934848	0.389160	-0.800293	-0.052002	-22.977702	80.714166	68.789817
21640		-0.765419	-1.438784	3.007929	0.305455	-2.781900	-0.855840	0.385742	-0.797607	-0.088379	-21.895266	79.048146	69.710239
21641		0.298623	-0.142321	2.052363	0.707968	-2.674523	-0.796564	0.378418	-0.792480	-0.102051	-20.833074	77.451865	70.380175
21642		-0.114309	1.071924	2.303699	0.824661	-2.438090	-0.755461	0.371582	-0.790527	-0.124268	-19.987030	75.985801	70.762532
21643		-2.696308	1.643872	3.719537	0.759836	-2.249979	-0.623242	0.361328	-0.799316	-0.138428	-19.174282	74.648526	71.152031
21644		-5.607461	1.997613	5.341791	0.620406	-2.315668	-0.364072	0.347900	-0.800781	-0.166260	-18.010493	73.318321	71.991336
21645		-7.313902	1.533845	6.396108	0.490809	-2.612427	-0.049610	0.334717	-0.810059	-0.186768	-16.393291	71.876824	73.390680
21646		-7.741159	0.573039	6.720256	0.459641	-2.974110	0.275379	0.319092	-0.811279	-0.197998	-14.349363	70.268733	75.271007
21647		-6.973520	0.029022	6.209171	0.484836	-3.251095	0.551102	0.297852	-0.827148	-0.220703	-12.111695	68.524093	77.363903
21648		-5.832486	-0.071746	5.496553	0.455557	-3.338700	0.766869	0.259033	-0.833008	-0.239502	-9.900288	66.722679	79.470824
21649		-5.327234	0.131539	5.039996	0.359456	-3.238850	0.909193	0.240234	-0.839844	-0.245117	-7.900170	64.966119	81.436259
21650		-6.185745	0.354673	5.308150	0.221442	-3.073335	1.029262	0.213867	-0.844238	-0.267578	-6.111353	63.282330	83.281057
21651		-7.557244	0.483759	5.824033	0.072546	-2.974257	1.203953	0.178467	-0.854004	-0.283447	-4.446441	61.645021	85.110927
21652		-8.421524	0.216378	6.140273	-0.046971	-2.929269	1.414783	0.156006	-0.860352	-0.285400	-2.823352	60.013093	86.998186
21653		-8.878300	-0.516919	6.241387	-0.129524	-2.899099	1.593835	0.132813	-0.864746	-0.298340	-1.263190	58.381633	88.900081
21654		-9.184711	-1.313372	6.041729	-0.120239	-2.862960	1.685217	0.099121	-0.872314	-0.296387	0.218827	56.741536	90.735296
21655		-9.863820	-1.971849	6.274050	-0.020340	-2.820647	1.683847	0.067871	-0.874756	-0.309814	1.598856	55.106256	92.414582
21656		-10.917124	-1.774022	6.714618	0.081075	-2.827546	1.650795	0.044189	-0.879639	-0.321045	2.877799	53.441813	93.930468
21657		-11.989613	-0.781797	7.080856	0.076672	-2.916038	1.589536	0.020752	-0.880859	-0.323242	3.982152	51.715458	95.264802
21658		-12.543230	0.513494	7.272666	-0.118880	-3.034768	1.513902	-0.007813	-0.885986	-0.325928	4.816357	49.906670	96.426819
21659		-12.354973	0.962613	6.926302	-0.425088	-3.106492	1.446165	-0.026611	-0.875488	-0.325928	5.342911	48.056308	97.446646
21660		-11.375463	0.588959	6.137883	-0.681336	-3.068850	1.431963	-0.053223	-0.879150	-0.344238	5.655266	46.219096	98.403214
21661		-10.346536	0.517756	5.428718	-0.799750	-2.895899	1.460346	-0.079834	-0.877930	-0.347900	5.873215	44.480119	99.352820
21662		-9.371945	1.211098	5.201116	-0.889416	-2.606810	1.546650	-0.107178	-0.866455	-0.355713	6.060891	42.894417	100.360140
21663		-8.565522	1.736931	5.341648	-0.989365	-2.279759	1.700492	-0.128174	-0.862061	-0.364990	6.247135	41.487174	101.480609
21664		-7.953792	2.112302	5.682497	-1.079154	-1.983323	1.910491	-0.140869	-0.854492	-0.371582	6.464345	40.228764	102.755571
21665		-7.703805	2.433798	6.277277	-1.107701	-1.736485	2.138171	-0.162109	-0.843506	-0.371338	6.745593	39.095376	104.189649
21666		-8.225433	2.753308	7.443370	-1.061321	-1.581417	2.406419	-0.172363	-0.836670	-0.376709	7.144230	38.021486	105.802463
21667		-9.057468	3.535232	8.370215	-1.005803	-1.577178	2.725116	-0.198242	-0.823730	-0.392578	7.667222	36.919911	107.608389
21668		-8.949488	4.174684	8.427064	-1.033025	-1.662738	3.015666	-0.214355	-0.817627	-0.395996	8.239461	35.729628	109.571153
21669		-8.297190	4.151010	8.139720	-1.106747	-1.714416	3.270671	-0.237549	-0.800537	-0.404053	8.807241	34.476163	111.660099
21670		-7.562637	3.801024	7.621037	-1.178058	-1.674592	3.438828	-0.250977	-0.791748	-0.406738	9.338126	33.210375	113.822674
21671		-7.235796	3.646229	7.668030	-1.224015	-1.584770	3.563191	-0.289307	-0.779785	-0.419189	9.828581	31.970837	116.034031
21672		-6.964023	3.824244	7.865070	-1.303200	-1.498874	3.623591	-0.299316	-0.757568	-0.421143	10.239259	30.755908	118.254988
21673		-6.660539	4.199652	8.120096	-1.434886	-1.422149	3.650328	-0.316650	-0.736084	-0.428711	10.528723	29.573120	120.465936
21674		-6.546105	4.358456	8.336369	-1.622223	-1.361009	3.648380	-0.341797	-0.729492	-0.439209	10.660705	28.414833	122.652939
21675		-6.666209	4.508224	8.394767	-1.803069	-1.340432	3.638134	-0.355225	-0.705078	-0.447754	10.635919	27.270564	124.810573
21676		-7.120289	4.429955	8.723038	-1.903217	-1.345023	3.641348	-0.376221	-0.682617	-0.450439	10.507812	26.122891	126.949643
21677		-7.914656	4.745722	9.158528	-1.905890	-1.440231	3.684008	-0.393311	-0.667725	-0.467773	10.336907	24.925164	129.085984
21678		-7.922715	5.429041	8.907359	-1.890749	-1.613097	3.772291	-0.406982	-0.649658	-0.455322	10.140747	23.624289	131.240633
21679		-7.474388	5.905422	7.860356	-1.901267	-1.723237	3.894619	-0.422607	-0.618408	-0.471191	9.909801	22.259244	133.441392
21680		-6.623412	6.074799	6.494315	-1.878523	-1.680829	4.083995	-0.437012	-0.598877	-0.473389	9.682863	20.905150	135.746493
21681		-6.649209	6.856875	5.436522	-1.835179	-1.475988	4.320351	-0.451904	-0.575439	-0.476074	9.482289	19.654861	138.199852
21682		-7.307369	8.007285	4.890957	-1.850668	-1.169412	4.555998	-0.464600	-0.551758	-0.482910	9.278607	18.561607	140.811625
21683		-8.318934	9.401274	4.719100	-1.951204	-0.863436	4.769595	-0.468750	-0.528564	-0.489014	9.017628	17.634396	143.568648
21684		-9.533654	10.155717	4.576787	-2.090496	-0.621912	4.891319	-0.477051	-0.497070	-0.492188	8.664818	16.845211	146.412592
21685		-10.638428	10.082964	4.581874	-2.139785	-0.482228	4.926334	-0.488770	-0.473877	-0.500488	8.254577	16.152417	149.283325
21686		-11.056864	9.141726	4.352557	-1.985630	-0.462932	4.844692	-0.474854	-0.451416	-0.502686	7.888460	15.494223	152.103148
21687		-10.729793	7.697630	3.704028	-1.623781	-0.472374	4.627392	-0.480957	-0.419922	-0.507568	7.661746	14.863157	154.788519
21688		-10.294767	6.234910	3.205727	-1.056559	-0.445850	4.284605	-0.485107	-0.403320	-0.501953	7.683705	14.276978	157.269165
21689		-9.744456	5.533410	2.966125	-0.427093	-0.356991	3.865650	-0.482666	-0.387939	-0.508057	7.980991	13.768340	159.503464
21690		-9.370161	5.354430	3.228408	0.112812	-0.212642	3.458597	-0.477783	-0.388428	-0.515137	8.518757	13.358723	161.505006
21691		-9.761852	5.611374	4.072935	0.481908	-0.113349	3.103142	-0.477539	-0.381348	-0.514648	9.205101	13.016487	163.300419
21692		-9.034656	2.860441	4.737454	0.728111	-0.147947	2.753978	-0.478027	-0.379395	-0.517090	9.978277	12.665777	164.883781
21693		-10.759478	0.801904	1.973217	1.309976	0.456627	2.637958	-0.470947	-0.387939	-0.516602	11.074111	12.642712	166.456990
21694		-12.572220	4.248682	-2.679251	0.954641	1.164303	2.237855	-0.450928	-0.394287	-0.523193	11.942416	13.036953	167.884110
21695		-16.933761	3.690225	-3.244822	0.276605	1.827093	1.802524	-0.430420	-0.388672	-0.518066	12.395691	13.838401	169.150079
21696		-4.912299	3.304812	4.763363	-0.156701	2.455436	1.584914	-0.417725	-0.378906	-0.523682	12.617405	15.012718	170.382185
21697		-10.930986	1.910865	15.804556	-0.589818	2.141059	1.263185	-0.405762	-0.378662	-0.519775	12.550893	16.048112	171.393799
21698		-6.211372	-5.916880	14.863682	-0.741693	1.355318	0.211992	-0.388184	-0.369385	-0.530518	12.215134	16.778267	171.693418
21699		-6.109221	-13.137251	16.478484	-0.469125	1.248922	-0.616115	-0.385742	-0.370117	-0.525879	11.886767	17.547576	171.489608
21700		-11.325963	-3.761190	17.108648	-0.178897	0.784393	-0.728945	-0.366455	-0.366455	-0.526367	11.686484	18.070757	171.158754
21701		-7.649733	4.617149	11.251029	-0.086284	0.262257	-0.580593	-0.371582	-0.371582	-0.522217	11.540937	18.280717	170.848820
21702		-1.943262	6.789069	7.355125	-0.000143	0.450248	-0.186779	-0.364990	-0.364258	-0.522949	11.526938	18.553233	170.794798
21703		-1.273056	4.249680	7.688656	0.083182	0.830022	0.052303	-0.356689	-0.365234	-0.530518	11.617978	19.008928	170.927766
21704		-3.404634	0.571936	9.324195	0.112553	0.963347	0.066229	-0.350342	-0.366455	-0.524902	11.738747	19.540000	171.087777
21705		-4.617264	-0.451651	10.354801	0.113406	0.853703	-0.084292	-0.343750	-0.368164	-0.518066	11.823610	20.024495	171.144848
21706		-4.614605	1.371136	9.724963	0.099089	0.712094	-0.158222	-0.341553	-0.373291	-0.529541	11.882621	20.440662	171.141874
21707		-4.510331	3.532850	9.034290	0.043125	0.631825	-0.145840	-0.329102	-0.367188	-0.532471	11.905622	20.807921	171.135409
21708		-4.268582	3.699445	8.828983	-0.027841	0.593075	-0.088025	-0.323975	-0.377686	-0.529541	11.901731	21.149136	171.159944
21709		-3.876425	2.178483	9.011461	-0.058641	0.562656	-0.084570	-0.319092	-0.377441	-0.526367	11.876545	21.470383	171.181525
21710		-4.424026	1.309782	9.499766	-0.065405	0.531560	-0.116812	-0.311035	-0.373535	-0.522949	11.842142	21.780536	171.180795
21711		-5.304576	2.117048	9.810121	-0.061760	0.423448	-0.124424	-0.315430	-0.376221	-0.522705	11.799700	22.028414	171.160352
21712		-4.944430	3.045841	9.168798	-0.102075	0.286705	-0.103254	-0.314453	-0.376221	-0.524658	11.735494	22.199708	171.136421
21713		-3.270467	3.098728	8.220241	-0.148354	0.261472	-0.093332	-0.308105	-0.372070	-0.530273	11.642503	22.353052	171.113841
21714		-3.209308	2.457794	8.430969	-0.157781	0.344622	-0.109421	-0.311279	-0.369873	-0.524414	11.547450	22.557513	171.092831
21715		-4.280440	1.939407	9.080073	-0.189334	0.328821	-0.153219	-0.304932	-0.374268	-0.521973	11.419759	22.755429	171.041480
21716		-4.449366	1.427386	9.274271	-0.220108	0.247619	-0.187517	-0.303711	-0.369385	-0.517090	11.265413	22.914098	170.960011
21717		-4.905505	1.119471	9.629762	-0.245838	0.132350	-0.207125	-0.301270	-0.364014	-0.524170	11.082518	23.007304	170.850786
21718		-4.592707	0.819642	9.466645	-0.297886	0.002551	-0.234255	-0.301758	-0.366943	-0.525391	10.860280	23.032781	170.710485
21719		-2.844160	1.030352	8.332371	-0.302180	0.002409	-0.237671	-0.294678	-0.364014	-0.523682	10.631418	23.055352	170.566667
21720		-2.691599	1.981315	7.992035	-0.268132	0.168022	-0.194877	-0.293213	-0.357178	-0.528076	10.442668	23.168918	170.469016
21721		-3.392844	1.797772	8.566899	-0.246264	0.282769	-0.179775	-0.295166	-0.361084	-0.525146	10.271634	23.342644	170.391758
21722		-4.279607	1.059302	9.297050	-0.215052	0.300158	-0.171277	-0.294434	-0.355469	-0.530518	10.124007	23.527732	170.322290
21723		-3.962251	0.918797	9.082838	-0.194141	0.265597	-0.175253	-0.289795	-0.352295	-0.517822	9.982279	23.690939	170.244730
21724		-2.936281	1.186156	8.349995	-0.173545	0.328875	-0.173626	-0.290527	-0.355713	-0.528320	9.858148	23.892156	170.175738
21725		-3.480746	1.711575	8.524279	-0.145386	0.438499	-0.177788	-0.285400	-0.347656	-0.520264	9.750307	24.152918	170.114058
21726		-3.804090	1.810016	8.598270	-0.128152	0.459413	-0.177477	-0.273682	-0.352783	-0.533203	9.655872	24.427927	170.055431
21727		-2.986772	1.266843	8.107902	-0.132486	0.544541	-0.211221	-0.269531	-0.360352	-0.523193	9.550327	24.751592	169.982843
21728		-9.131691	3.499894	11.450114	-0.311978	0.382031	-0.365451	-0.271240	-0.344727	-0.525391	9.296651	25.000184	169.797384
21729		-3.820529	0.420737	8.360181	-0.185960	0.214662	-0.190759	-0.271729	-0.346680	-0.529541	9.150039	25.134962	169.701480
21730		-4.425376	2.045156	9.203565	-0.169734	0.255446	-0.184531	-0.267578	-0.344971	-0.525391	9.018785	25.294726	169.614407
21731		-4.803525	1.073628	9.104573	-0.132053	0.260524	-0.178260	-0.273682	-0.347412	-0.520264	8.907499	25.453949	169.529945
21732		-4.623049	1.590467	8.816448	-0.126412	0.121199	-0.137914	-0.263916	-0.337891	-0.526367	8.807228	25.533300	169.458108
21733		-4.628235	1.150936	9.045136	-0.119513	0.109051	-0.127354	-0.261475	-0.342529	-0.520020	8.710008	25.602032	169.390186
21734		-4.738614	1.155959	9.178611	-0.088506	0.068773	-0.087830	-0.264160	-0.343262	-0.521973	8.642571	25.647176	169.344437
21735		-4.544575	1.363471	8.861793	-0.076609	0.041091	-0.065970	-0.273682	-0.352783	-0.521484	8.583632	25.671986	169.308378
21736		-4.314424	1.030264	8.945003	-0.060568	0.044965	-0.050833	-0.263184	-0.339355	-0.525635	8.541185	25.700419	169.283509
21737		-4.215185	1.352560	8.769454	-0.052212	0.044528	-0.044570	-0.267090	-0.343262	-0.532715	8.502149	25.725308	169.261173
21738		-4.390760	1.391763	8.831678	-0.050193	0.060366	-0.047930	-0.261963	-0.348389	-0.517578	8.466993	25.762180	169.239515
21739		-4.439301	1.391093	8.766378	-0.040356	0.042736	-0.045279	-0.266113	-0.349609	-0.523438	8.434441	25.786089	169.216519
21740		-4.399160	1.476233	8.724450	-0.050746	0.030466	-0.046155	-0.265869	-0.344238	-0.522461	8.398198	25.805844	169.193138
21741		-4.407957	1.410628	8.732159	-0.051667	0.025598	-0.052326	-0.255615	-0.347656	-0.516846	8.356509	25.820600	169.164075
21742		-4.454259	1.184066	8.864662	-0.051242	0.017370	-0.039807	-0.261230	-0.340576	-0.522217	8.321176	25.832379	169.143455
21743		-4.429036	1.253810	8.769298	-0.033951	-0.006145	-0.039644	-0.266602	-0.344482	-0.520996	8.291827	25.828056	169.119435
21744		-4.454958	1.303058	8.773931	-0.027689	-0.014775	-0.031631	-0.252197	-0.337646	-0.519043	8.270925	25.820921	169.100999
21745		-4.351607	1.342372	8.718680	-0.030633	-0.021707	-0.031944	-0.271729	-0.341064	-0.526855	8.244979	25.807122	169.080414
21746		-4.330362	1.257121	8.736890	-0.047900	-0.014496	-0.034099	-0.262939	-0.344727	-0.512451	8.211837	25.800335	169.060459
21747		-4.312350	1.428486	8.714315	-0.047772	-0.030314	-0.033509	-0.263184	-0.337646	-0.526123	8.175319	25.781762	169.038129
21748		-4.387307	1.199696	8.806094	-0.048613	-0.034681	-0.037090	-0.258545	-0.339355	-0.525391	8.140172	25.763745	169.014483
