// General information: 
//  MT Manager version: 2022.2.0 
//  XDA version: 2022.2.0 build 7381 rev 124627 built on 2023-07-19
// Device information: 
//  DeviceId: 00B4C223
//  ProductCode: MTW2-3A7G6
//  Firmware Version: 4.6.0
//  Hardware Version: 2.0.0
// Device settings: 
//  Filter Profile: human(46.1)
//  Option Flags: Orientation Smoother Disabled, Position/Velocity Smoother Disabled, Continuous Zero Rotation Update Disabled, AHS Disabled, ICC Disabled
// Coordinate system: ENU
PacketCounter	SampleTimeFine	Acc_X	Acc_Y	Acc_Z	Gyr_X	Gyr_Y	Gyr_Z	Mag_X	Mag_Y	Mag_Z	Roll	Pitch	Yaw
46698		-4.255133	1.827404	8.848753	-0.002268	-0.001336	0.004338	-1.018799	0.071289	-0.584229	12.050759	25.112527	30.423862
46699		-4.239122	1.822408	8.802923	-0.003266	0.000032	0.001000	-1.020996	0.072754	-0.584473	12.049564	25.112924	30.422973
46700		-4.231870	1.803542	8.859410	-0.004283	-0.002749	0.007173	-1.020020	0.068359	-0.594727	12.050711	25.110580	30.425614
46701		-4.223534	1.825232	8.834083	-0.003270	-0.001513	0.001081	-1.017334	0.065430	-0.591064	12.049471	25.110096	30.424157
46702		-4.254328	1.851126	8.846667	-0.002516	0.000286	0.005760	-1.020020	0.071533	-0.583740	12.051430	25.109622	30.426325
46703		-4.231295	1.803181	8.859758	-0.003526	-0.002981	0.002664	-1.009277	0.064941	-0.584717	12.050406	25.108134	30.424724
46704		-4.254079	1.826626	8.849420	-0.002011	0.000132	0.002755	-1.023193	0.074707	-0.589844	12.051856	25.107933	30.425011
46705		-4.222790	1.824866	8.834515	-0.002276	-0.004426	0.004498	-1.020508	0.068604	-0.583984	12.051944	25.105440	30.424716
46706		-4.237590	1.821717	8.803804	-0.002268	-0.001336	0.004338	-1.017090	0.078369	-0.582520	12.053581	25.104227	30.425790
46707		-4.253325	1.802466	8.852345	0.000238	-0.002682	0.007926	-1.020020	0.070557	-0.584229	12.056079	25.102232	30.428017
46708		-4.229646	1.851936	8.855331	-0.000260	-0.003013	0.001663	-1.009033	0.067627	-0.588867	12.058069	25.100399	30.427214
46709		-4.252402	1.851272	8.847563	-0.002524	-0.002804	0.005921	-1.020020	0.072754	-0.592773	12.058498	25.098660	30.427735
46710		-4.220926	1.825384	8.835298	-0.001281	-0.007340	0.007915	-1.011963	0.073486	-0.591064	12.061302	25.093654	30.430228
46711		-4.243506	1.824809	8.827600	-0.002519	-0.001259	0.005841	-1.018555	0.080566	-0.593018	12.061758	25.092804	30.433078
46712		-4.219943	1.849723	8.833168	-0.003783	-0.004448	0.004247	-1.012695	0.073242	-0.585205	12.062327	25.089858	30.433684
46713		-4.242768	1.824712	8.827974	-0.000513	-0.002936	0.003166	-1.021484	0.068604	-0.579346	12.063113	25.088363	30.435138
46714		-4.250318	1.851462	8.848525	-0.002267	-0.001336	0.004338	-1.015381	0.064209	-0.589111	12.064750	25.087150	30.436211
46715		-4.234976	1.854496	8.879508	-0.003774	-0.001358	0.004087	-1.030518	0.078857	-0.583496	12.064100	25.086369	30.434399
46716		-4.226907	1.827623	8.859232	-0.003779	-0.002903	0.004167	-1.013428	0.072998	-0.584961	12.064738	25.084298	30.435159
46717		-4.241786	1.824488	8.828493	-0.000760	-0.001314	0.004589	-1.018799	0.070313	-0.592285	12.065860	25.083421	30.436411
46718		-4.218306	1.849353	8.834027	-0.005034	-0.003002	0.002413	-1.020264	0.074219	-0.586914	12.065313	25.081505	30.436072
46719		-4.218183	1.824838	8.836721	-0.004026	-0.001281	0.005590	-1.016846	0.069824	-0.584229	12.064865	25.080606	30.438069
46720		-4.218047	1.824696	8.836815	-0.003770	0.000187	0.004007	-1.014893	0.065674	-0.583496	12.065639	25.080286	30.439139
46721		-4.217859	1.848795	8.834358	-0.003518	0.000110	0.002504	-1.012207	0.075928	-0.585693	12.064812	25.080540	30.436812
46722		-4.202757	1.851535	8.865283	-0.006276	0.001535	0.000419	-1.017822	0.071289	-0.585449	12.063285	25.081404	30.435840
46723		-4.249129	1.825489	8.852033	-0.003266	0.000034	0.001001	-1.019531	0.069580	-0.586182	12.062155	25.081805	30.434767
46724		-4.210286	1.821075	8.814017	-0.003257	0.003124	0.000841	-1.020508	0.066406	-0.589111	12.062557	25.083509	30.434266
46725		-4.226282	1.825478	8.859972	-0.008039	0.000045	0.001751	-1.017090	0.069580	-0.583252	12.058931	25.083785	30.432398
46726		-4.241557	1.821836	8.829151	-0.004512	0.003025	-0.000912	-1.019531	0.068848	-0.580078	12.058148	25.085643	30.430799
46727		-4.210444	1.843918	8.811661	-0.006536	-0.001478	0.002082	-1.016846	0.070801	-0.590576	12.055388	25.084997	30.428020
46728		-4.241594	1.820860	8.829334	-0.006275	0.001535	0.000419	-1.016357	0.060791	-0.592529	12.053861	25.085861	30.427048
46729		-4.249508	1.847047	8.849836	-0.006527	0.001612	0.001922	-1.010742	0.071777	-0.587158	12.051263	25.087068	30.425755
46730		-4.226483	1.847118	8.857847	-0.007535	-0.000108	-0.001255	-1.019043	0.063232	-0.583984	12.048482	25.087211	30.423530
46731		-4.203903	1.798647	8.870786	-0.004507	0.004570	-0.000992	-1.025635	0.071777	-0.587891	12.046444	25.090391	30.420138
46732		-4.219109	1.819351	8.837410	-0.006280	-0.000010	0.000499	-1.007324	0.068848	-0.589844	12.044848	25.090380	30.419011
46733		-4.250141	1.820314	8.852612	-0.010549	-0.000151	-0.001758	-1.018311	0.071777	-0.591309	12.038849	25.091001	30.416055
46734		-4.211042	1.839738	8.812249	-0.004521	-0.000065	-0.000753	-1.022461	0.071533	-0.587891	12.037930	25.091108	30.414146
46735		-4.250215	1.818985	8.852850	-0.009541	0.001569	0.001420	-1.027832	0.078857	-0.583984	12.033422	25.092263	30.413778
46736		-4.219309	1.816523	8.837896	-0.007782	0.001514	0.000168	-1.022949	0.069336	-0.576660	12.030964	25.093145	30.412648
46737		-4.273331	1.841202	8.842644	-0.008039	0.000045	0.001750	-1.010986	0.072754	-0.589111	12.027302	25.093266	30.410866
46738		-4.219342	1.815279	8.838136	-0.006280	-0.000009	0.000499	-1.021973	0.064453	-0.587891	12.025706	25.093255	30.409739
46739		-4.250418	1.816563	8.853250	-0.005020	0.001633	0.002174	-1.017090	0.071045	-0.597168	12.024037	25.094403	30.408807
46740		-4.242439	1.813957	8.830349	-0.002016	-0.001414	0.002834	-1.016357	0.069580	-0.587158	12.025419	25.093325	30.408939
46741		-4.219390	1.814280	8.838319	-0.008030	0.003136	0.001593	-1.010986	0.065918	-0.586914	12.021940	25.095405	30.409167
46742		-4.219348	1.838214	8.835854	-0.002011	0.000131	0.002755	-1.009277	0.072021	-0.582764	12.023390	25.095203	30.409455
46743		-4.242457	1.837286	8.827980	-0.006779	0.001688	0.003426	-1.013916	0.066162	-0.591064	12.021066	25.096273	30.408798
46744		-4.219460	1.837430	8.835964	-0.008286	0.001667	0.003174	-1.013428	0.077148	-0.585693	12.019116	25.096882	30.409547
46745		-4.227594	1.814828	8.861534	-0.009294	-0.000051	-0.000004	-1.015625	0.074951	-0.585449	12.014323	25.097360	30.408087
46746		-4.242660	1.811018	8.830846	-0.007792	-0.001575	0.000326	-1.018311	0.077637	-0.588379	12.011728	25.096491	30.406647
46747		-4.227362	1.837758	8.859374	-0.006275	0.001536	0.000420	-1.015625	0.073730	-0.597412	12.008822	25.097746	30.406639
46748		-4.250597	1.812176	8.854063	-0.007539	-0.001651	-0.001177	-1.015625	0.072998	-0.589355	12.005973	25.097014	30.404258
46749		-4.211482	1.831582	8.813738	-0.009289	0.001494	-0.000082	-1.031006	0.062744	-0.583740	12.001232	25.098371	30.404421
46750		-4.219707	1.808858	8.839279	-0.009289	0.001494	-0.000082	-1.012207	0.072754	-0.591309	11.997843	25.099271	30.403132
46751		-4.242801	1.831472	8.829023	-0.011799	0.001301	-0.003591	-1.012207	0.069092	-0.591309	11.990782	25.100821	30.397878
46752		-4.220110	1.806796	8.839508	-0.008780	0.002888	-0.003167	-1.019531	0.071289	-0.590576	11.986952	25.102869	30.394863
46753		-4.243353	1.829387	8.829190	-0.012046	0.002922	-0.002166	-1.019775	0.073975	-0.586670	11.980203	25.105248	30.392290
46754		-4.243568	1.828398	8.829291	-0.009289	0.001494	-0.000083	-1.015381	0.070801	-0.592773	11.976814	25.106148	30.391000
46755		-4.197555	1.828788	8.845251	-0.010292	0.001323	-0.003340	-1.023438	0.078369	-0.592285	11.970658	25.107733	30.387851
46756		-4.220969	1.826907	8.837425	-0.013044	0.004296	-0.005502	-1.014893	0.070801	-0.582275	11.963850	25.110847	30.383574
46757		-4.229328	1.827889	8.860477	-0.013049	0.002751	-0.005424	-1.015137	0.073242	-0.586670	11.955633	25.113434	30.379405
46758		-4.221842	1.824035	8.837601	-0.016558	0.005949	-0.003076	-1.013428	0.068604	-0.584473	11.947540	25.117186	30.376846
46759		-4.268750	1.796855	8.824234	-0.014546	0.005821	-0.005830	-1.014160	0.073242	-0.585449	11.938579	25.121586	30.371155
46760		-4.246065	1.820372	8.829749	-0.013296	0.004371	-0.003998	-1.012451	0.066406	-0.585449	11.932024	25.124561	30.367817
46761		-4.239404	1.800342	8.886088	-0.009032	0.002964	-0.001664	-1.014893	0.073242	-0.591553	11.927172	25.126875	30.363966
46762		-4.277830	1.795744	8.847356	-0.010796	0.001473	-0.000335	-1.017578	0.069580	-0.588623	11.922851	25.127791	30.362517
46763		-4.247076	1.793209	8.832357	-0.007521	0.004531	-0.001489	-1.017822	0.070313	-0.584717	11.918975	25.130957	30.360580
46764		-4.224202	1.817529	8.837814	-0.006271	0.003081	0.000342	-1.010498	0.075439	-0.589600	11.917513	25.132695	30.359760
46765		-4.255219	1.818627	8.852977	-0.008048	-0.003047	0.001903	-1.011475	0.069580	-0.590088	11.913806	25.131208	30.358703
46766		-4.239981	1.821232	8.884004	-0.003766	0.001726	0.003929	-1.022949	0.067871	-0.585449	11.914648	25.131762	30.359927
46767		-4.239223	1.813214	8.807243	-0.006532	0.000065	0.002000	-1.013916	0.072998	-0.588623	11.912040	25.131978	30.358119
46768		-4.247077	1.815138	8.830340	-0.005030	-0.001459	0.002329	-1.010254	0.078369	-0.584961	11.911560	25.130935	30.357935
46769		-4.231848	1.817788	8.861352	-0.005025	0.000086	0.002252	-1.014160	0.073730	-0.585693	11.909841	25.131177	30.358387
46770		-4.223733	1.815081	8.838541	-0.004782	-0.003079	0.000902	-1.015869	0.069092	-0.584717	11.909039	25.129395	30.357109
46771		-4.246587	1.813917	8.830827	-0.008043	-0.001501	0.001825	-1.009766	0.067871	-0.598389	11.905428	25.128752	30.355244
46772		-4.223478	1.789932	8.841330	-0.002016	-0.001418	0.002831	-1.014404	0.076172	-0.594971	11.906810	25.127673	30.355378
46773		-4.246602	1.764638	8.835943	-0.008039	0.000045	0.001749	-1.020508	0.066406	-0.584717	11.903257	25.128019	30.356606
46774		-4.254095	1.815214	8.854218	-0.002021	-0.002963	0.002908	-1.019531	0.074219	-0.586914	11.904570	25.126065	30.356586
46775		-4.245809	1.812794	8.831431	-0.004032	-0.002836	0.005663	-1.010986	0.080566	-0.588623	11.904197	25.124160	30.356674
46776		-4.230470	1.791441	8.864920	-0.002525	-0.002815	0.005914	-1.023193	0.072754	-0.590332	11.906020	25.121934	30.358534
46777		-4.245178	1.812756	8.831743	-0.002268	-0.001344	0.004335	-1.018311	0.068359	-0.589844	11.906343	25.121077	30.360992
46778		-4.252782	1.815098	8.854872	-0.002530	-0.004360	0.005991	-1.015381	0.072021	-0.586914	11.908097	25.117975	30.362698
46779		-4.221247	1.813388	8.840076	-0.004289	-0.004306	0.007243	-1.012207	0.072266	-0.590088	11.907923	25.115114	30.364098
46780		-4.205685	1.816393	8.871162	-0.000766	-0.002868	0.004663	-1.021484	0.071777	-0.581543	11.910421	25.113005	30.365176
46781		-4.228418	1.815972	8.863361	0.000489	-0.002774	0.006417	-1.011475	0.065918	-0.586182	11.912845	25.111076	30.366258
46782		-4.220116	1.813664	8.840560	-0.005539	-0.002855	0.005412	-1.020996	0.068604	-0.584717	11.912807	25.108886	30.367801
46783		-4.227718	1.815860	8.863719	-0.002273	-0.002889	0.004411	-1.011475	0.068848	-0.584229	11.913160	25.107136	30.365936
46784		-4.227380	1.815917	8.863868	-0.000766	-0.002868	0.004663	-1.011475	0.067627	-0.589600	11.915658	25.105027	30.367014
46785		-4.273281	1.814771	8.848131	-0.000761	-0.001323	0.004586	-1.021484	0.070313	-0.597656	11.917013	25.104196	30.366290
46786		-4.218729	1.838081	8.838707	-0.002525	-0.002814	0.005914	-1.016846	0.070557	-0.590576	11.918835	25.101969	30.368149
46787		-4.226588	1.791741	8.866711	-0.003533	-0.004528	0.002733	-1.018311	0.061279	-0.596191	11.917900	25.099519	30.368265
46788		-4.225875	1.840151	8.862109	-0.003780	-0.002909	0.004160	-1.017822	0.068115	-0.587158	11.918537	25.097447	30.369026
46789		-4.217909	1.813414	8.841664	-0.002011	0.000128	0.002755	-1.013184	0.073730	-0.584717	11.918794	25.097601	30.367224
46790		-4.217792	1.813302	8.841743	-0.003775	-0.001363	0.004084	-1.017822	0.073975	-0.588379	11.919500	25.096405	30.368139
46791		-4.240600	1.836783	8.831509	-0.003518	0.000108	0.002504	-1.015137	0.074219	-0.579834	11.918765	25.096557	30.368242
46792		-4.263595	1.811752	8.826146	-0.002278	-0.004434	0.004488	-1.017822	0.071533	-0.592529	11.920264	25.093591	30.369006
46793		-4.225260	1.791030	8.867487	-0.002262	0.000202	0.004258	-1.014893	0.070068	-0.589355	11.920727	25.093576	30.369738
46794		-4.240126	1.812255	8.834272	-0.003523	-0.001437	0.002580	-1.017578	0.075928	-0.582520	11.921178	25.092516	30.369713
46795		-4.216698	1.837046	8.839891	-0.002016	-0.001417	0.002832	-1.012939	0.075684	-0.583496	11.921321	25.091760	30.369346
46796		-4.216730	1.812537	8.842407	-0.007287	0.000290	0.006511	-1.018311	0.081055	-0.581299	11.920743	25.091204	30.371979
46797		-4.239717	1.811421	8.834639	-0.005781	-0.001698	-0.002431	-1.023193	0.077148	-0.586182	11.917298	25.090887	30.369389
46798		-4.224472	1.814220	8.865602	0.000500	0.000315	0.006264	-1.016113	0.072266	-0.590332	11.921117	25.090373	30.371873
46799		-4.239495	1.811180	8.834796	-0.006536	-0.001476	0.002078	-1.025879	0.074219	-0.588867	11.918456	25.089644	30.372170
46800		-4.223993	1.838097	8.863433	-0.003775	-0.001363	0.004084	-1.019287	0.077148	-0.587402	11.919161	25.088448	30.373085
46801		-4.247237	1.788704	8.860446	-0.003523	-0.001437	0.002580	-1.015869	0.070068	-0.587646	11.918352	25.087645	30.374043
46802		-4.215697	1.835386	8.840714	-0.003523	-0.001437	0.002580	-1.016113	0.069092	-0.587402	11.918803	25.086585	30.374018
46803		-4.230894	1.807985	8.812322	-0.004021	0.000256	0.005511	-1.017578	0.070313	-0.592773	11.918643	25.086461	30.374541
46804		-4.215682	1.834994	8.840802	-0.002751	0.002978	-0.002157	-1.014893	0.074463	-0.585449	11.918537	25.088437	30.372160
46805		-4.238939	1.809743	8.835356	-0.005035	-0.003002	0.002405	-1.013184	0.069336	-0.583984	11.916779	25.086859	30.371830
46806		-4.223444	1.836631	8.863998	-0.005024	0.000089	0.002253	-1.024658	0.068848	-0.581543	11.916368	25.086693	30.371801
46807		-4.215650	1.809592	8.843525	-0.006531	0.000069	0.002002	-1.018799	0.067139	-0.590332	11.913854	25.086805	30.368709
46808		-4.238638	1.808486	8.835758	-0.006537	-0.001476	0.002078	-1.014893	0.076416	-0.583496	11.912444	25.085782	30.368368
46809		-4.246447	1.834658	8.856406	-0.004761	0.003106	0.000598	-1.021484	0.065430	-0.581299	11.910722	25.087815	30.366962
46810		-4.231599	1.812826	8.889718	-0.006279	-0.000004	0.000499	-1.014648	0.077881	-0.584961	11.909126	25.087804	30.365835
46811		-4.246748	1.809485	8.858916	-0.003014	-0.000039	-0.000502	-1.013672	0.070313	-0.589844	11.907950	25.088158	30.362286
46812		-4.215779	1.807461	8.843899	-0.005019	0.001634	0.002177	-1.018799	0.068848	-0.594727	11.907608	25.088867	30.362412
46813		-4.269754	1.832356	8.848736	-0.008038	0.000050	0.001751	-1.018311	0.068604	-0.590576	11.904164	25.089096	30.361922
46814		-4.231974	1.786944	8.892332	-0.001999	0.003218	0.002604	-1.015625	0.064697	-0.588379	11.905752	25.090643	30.362519
46815		-4.215860	1.830610	8.841625	-0.006279	-0.000004	0.000499	-1.012695	0.075684	-0.589600	11.903014	25.090959	30.359346
46816		-4.215840	1.830097	8.841741	-0.006531	0.000069	0.002002	-1.017334	0.073975	-0.582764	11.901673	25.090812	30.359159
46817		-4.239152	1.804749	8.836275	-0.004767	0.001561	0.000674	-1.013916	0.073242	-0.595947	11.899876	25.091972	30.358716
46818		-4.224210	1.807178	8.867165	-0.006016	0.003013	-0.001156	-1.017578	0.072266	-0.574219	11.898164	25.093849	30.356959
46819		-4.216106	1.828592	8.841926	-0.006039	-0.003167	-0.000854	-1.013916	0.071533	-0.595947	11.894998	25.092519	30.353784
46820		-4.208247	1.825781	8.819021	-0.004504	0.004578	-0.000980	-1.017578	0.076172	-0.587402	11.894285	25.095252	30.352339
46821		-4.247606	1.804908	8.859438	-0.007534	-0.000096	-0.001256	-1.014893	0.069336	-0.590820	11.890314	25.095739	30.351517
46822		-4.247558	1.828668	8.857112	-0.005013	0.003179	0.002102	-1.016113	0.075928	-0.595215	11.890041	25.097323	30.351798
46823		-4.208887	1.799927	8.821495	-0.006279	-0.000004	0.000498	-1.020996	0.076660	-0.587158	11.887270	25.097666	30.351926
46824		-4.216766	1.826082	8.842130	-0.005013	0.003179	0.002102	-1.017578	0.069336	-0.588379	11.886996	25.099250	30.352208
46825		-4.248156	1.803034	8.859556	-0.006273	0.001542	0.000423	-1.020996	0.072754	-0.588135	11.884294	25.100375	30.351162
46826		-4.217071	1.825048	8.842198	-0.008032	0.001595	0.001675	-1.018799	0.072021	-0.592041	11.882091	25.101122	30.350972
46827		-4.217202	1.824367	8.842276	-0.007528	0.001450	-0.001331	-1.017334	0.071777	-0.586426	11.878208	25.102411	30.349246
46828		-4.271441	1.825066	8.849428	-0.002005	0.001672	0.002680	-1.012451	0.057373	-0.583984	11.879727	25.103082	30.349688
46829		-4.225644	1.801575	8.867622	-0.007523	0.002995	-0.001406	-1.024170	0.080566	-0.589111	11.876008	25.105274	30.343371
46830		-4.232618	1.844306	8.809107	-0.008038	0.000050	0.001750	-1.011719	0.071777	-0.591309	11.873736	25.105146	30.343026
46831		-4.217567	1.822315	8.842525	-0.006285	-0.001549	0.000573	-1.012451	0.076172	-0.587158	11.870882	25.104547	30.343655
46832		-4.225750	1.799697	8.867953	-0.007774	0.003068	0.000097	-1.021240	0.067139	-0.586182	11.868493	25.106306	30.342679
46833		-4.241162	1.796127	8.837068	-0.007774	0.003068	0.000097	-1.017334	0.070068	-0.581299	11.864968	25.108337	30.340693
46834		-4.233984	1.824985	8.888609	-0.006273	0.001542	0.000423	-1.025879	0.067871	-0.590576	11.863441	25.109201	30.339721
46835		-4.226181	1.822068	8.865699	-0.007528	0.001451	-0.001331	-1.024902	0.075684	-0.584229	11.859610	25.110427	30.335331
46836		-4.218288	1.819198	8.842823	-0.006783	0.000142	0.003504	-1.018799	0.074219	-0.592285	11.858523	25.110143	30.336084
46837		-4.249697	1.795900	8.860266	-0.008771	0.004450	-0.003235	-1.018066	0.072510	-0.594238	11.853593	25.113283	30.334019
46838		-4.249829	1.795218	8.860341	-0.006789	-0.001404	0.003579	-1.015137	0.065430	-0.588379	11.852437	25.112123	30.334617
46839		-4.203620	1.795933	8.876305	-0.006525	0.001614	0.001926	-1.012695	0.071289	-0.584961	11.850060	25.113161	30.333753
46840		-4.233880	1.789679	8.814624	-0.006285	-0.001548	0.000572	-1.016113	0.073486	-0.587158	11.848394	25.112274	30.332471
46841		-4.241545	1.815765	8.835400	-0.006783	0.000141	0.003504	-1.022705	0.073975	-0.585938	11.846186	25.112280	30.332325
46842		-4.195595	1.792224	8.853661	-0.004766	0.001561	0.000675	-1.018311	0.071289	-0.583496	11.845589	25.113125	30.331510
46843		-4.233638	1.812517	8.812609	-0.007539	-0.001639	-0.001183	-1.020996	0.064453	-0.583984	11.841607	25.112591	30.327927
46844		-4.218630	1.814698	8.843584	-0.008020	0.004686	0.001527	-1.017822	0.072266	-0.586914	11.839541	25.115088	30.328046
46845		-4.218834	1.813873	8.843657	-0.010547	-0.000131	-0.001760	-1.020264	0.064941	-0.585205	11.833813	25.115490	30.322700
46846		-4.249779	1.814822	8.858894	-0.006789	-0.001404	0.003578	-1.014893	0.070068	-0.589600	11.832657	25.114330	30.323299
46847		-4.210761	1.810550	8.820961	-0.003512	0.001652	0.002430	-1.013428	0.072266	-0.577148	11.832174	25.115278	30.321009
46848		-4.218936	1.788143	8.846320	-0.006279	-0.000003	0.000498	-1.017090	0.069092	-0.583496	11.830578	25.115266	30.319881
46849		-4.241884	1.811415	8.836130	-0.005018	0.001633	0.002178	-1.016113	0.069824	-0.595215	11.829151	25.116202	30.317055
46850		-4.249877	1.813307	8.859157	-0.004772	0.000016	0.000749	-1.008789	0.072266	-0.583496	11.828485	25.116171	30.316085
46851		-4.241956	1.810716	8.836239	-0.005523	0.001777	0.005185	-1.013428	0.079834	-0.581299	11.827566	25.116941	30.317978
46852		-4.226767	1.813108	8.867256	-0.008044	-0.001494	0.001823	-1.017578	0.068359	-0.584473	11.825225	25.115937	30.317478
46853		-4.233959	1.807524	8.813481	-0.002755	0.001437	-0.002080	-1.020264	0.073242	-0.589355	11.823938	25.117272	30.314223
46854		-4.226890	1.812374	8.867348	-0.003764	0.001723	0.003933	-1.012695	0.072998	-0.581543	11.824781	25.117825	30.315446
46855		-4.219118	1.809762	8.844363	-0.006267	0.003089	0.000350	-1.017334	0.073486	-0.585205	11.822221	25.119807	30.314103
46856		-4.242212	1.833019	8.834115	-0.004766	0.001562	0.000675	-1.021484	0.070068	-0.591553	11.821624	25.120652	30.313288
46857		-4.250482	1.810557	8.859429	-0.004514	0.001490	-0.000828	-1.019287	0.068604	-0.584961	11.819679	25.121859	30.310995
46858		-4.219568	1.808438	8.844419	-0.006777	0.001686	0.003430	-1.010986	0.077393	-0.584473	11.818661	25.122450	30.311902
46859		-4.250662	1.785575	8.861890	-0.002275	-0.002895	0.004405	-1.014404	0.075684	-0.589355	11.819142	25.120609	30.312119
46860		-4.257222	1.828919	8.803536	-0.005030	-0.001457	0.002325	-1.025146	0.074707	-0.584717	11.818661	25.119567	30.311935
46861		-4.179918	1.828194	8.804440	-0.002011	0.000125	0.002755	-1.021729	0.070313	-0.592041	11.818996	25.119567	30.312831
46862		-4.242076	1.806946	8.836953	-0.006285	-0.001547	0.000571	-1.013428	0.075439	-0.580811	11.817330	25.118681	30.311549
46863		-4.250014	1.808661	8.860041	-0.006273	0.001544	0.000424	-1.017334	0.067871	-0.593262	11.814723	25.119775	30.310115
46864		-4.195691	1.831278	8.850739	-0.008044	-0.001494	0.001822	-1.016846	0.074219	-0.593018	11.812381	25.118772	30.309615
46865		-4.218769	1.830026	8.842954	-0.007527	0.001454	-0.001331	-1.013916	0.068848	-0.587402	11.808606	25.120081	30.308121
46866		-4.234426	1.777972	8.816731	-0.006273	0.001544	0.000424	-1.018555	0.074219	-0.593262	11.807079	25.120945	30.307148
46867		-4.227224	1.806839	8.868318	-0.006771	0.003232	0.003357	-1.017090	0.073486	-0.581543	11.805073	25.122686	30.308249
46868		-4.227683	1.781994	8.870606	-0.005762	0.002947	-0.002656	-1.022705	0.065918	-0.578613	11.803105	25.124698	30.305550
46869		-4.242768	1.802856	8.837456	-0.008038	0.000052	0.001749	-1.020020	0.062988	-0.590576	11.799797	25.124708	30.301329
46870		-4.227409	1.829621	8.866146	-0.002011	0.000124	0.002755	-1.022705	0.067871	-0.590332	11.801247	25.124503	30.301616
46871		-4.242701	1.802231	8.837616	-0.006531	0.000070	0.002000	-1.017090	0.069824	-0.581299	11.798901	25.124561	30.298407
46872		-4.250630	1.803955	8.860705	-0.006279	-0.000001	0.000497	-1.022217	0.069580	-0.588867	11.797305	25.124549	30.297279
46873		-4.219689	1.777633	8.848079	-0.003776	-0.001369	0.004080	-1.012451	0.065918	-0.587891	11.796977	25.123533	30.295794
46874		-4.250334	1.803374	8.860965	-0.005282	-0.001387	0.003828	-1.006104	0.074219	-0.597412	11.796751	25.122355	30.296550
46875		-4.258089	1.805375	8.884081	-0.003776	-0.001369	0.004080	-1.008545	0.075195	-0.587646	11.796443	25.121542	30.298231
46876		-4.211252	1.799121	8.823064	-0.001992	0.004760	0.002536	-1.019287	0.071777	-0.584473	11.798100	25.123962	30.298983
46877		-4.250343	1.802869	8.861064	-0.003272	-0.001510	0.001073	-1.021240	0.065918	-0.583008	11.797244	25.123296	30.298129
46878		-4.258135	1.805002	8.884135	-0.000258	-0.001475	0.001576	-1.021240	0.071533	-0.588135	11.799300	25.122332	30.297479
46879		-4.219293	1.776772	8.848440	-0.004268	0.001864	0.006940	-1.017334	0.070313	-0.587402	11.799634	25.122768	30.297751
46880		-4.265253	1.799905	8.830300	-0.002263	0.000195	0.004258	-1.017822	0.083496	-0.594971	11.801339	25.122426	30.298978
46881		-4.250066	1.802802	8.861211	0.001002	0.000159	0.003258	-1.005371	0.070557	-0.587891	11.803557	25.122427	30.302347
46882		-4.258124	1.757080	8.888781	0.007760	-0.004176	0.009244	-1.012207	0.070313	-0.583740	11.812075	25.119050	30.306096
46883		-4.311528	1.784234	8.893503	0.019064	-0.002276	0.015693	-1.020264	0.067139	-0.592285	11.827869	25.116308	30.313005
46884		-4.264487	1.787876	8.909272	0.019530	-0.009700	0.022322	-1.019043	0.066895	-0.593018	11.846262	25.108293	30.324135
46885		-4.255123	1.813343	8.883880	0.034604	-0.007979	0.024764	-1.014893	0.064453	-0.583496	11.873023	25.101189	30.335566
46886		-4.237986	1.837143	8.835286	0.031101	-0.004778	0.027121	-1.021973	0.075439	-0.594971	11.899572	25.095359	30.350299
46887		-4.292445	1.801009	8.923496	0.033119	-0.003358	0.024292	-1.015625	0.073975	-0.581787	11.925586	25.090880	30.362769
46888		-4.291346	1.781069	8.925588	0.038333	-0.015433	0.030398	-1.015381	0.072998	-0.584473	11.956541	25.078676	30.378128
46889		-4.241417	1.876644	8.855268	0.036057	-0.018321	0.034805	-1.017090	0.076172	-0.589355	11.986130	25.064541	30.395602
46890		-4.262478	1.856556	8.849792	0.037565	-0.018301	0.035056	-1.015625	0.064453	-0.577881	12.017690	25.050160	30.413448
46891		-4.236933	1.861645	8.857922	0.033523	-0.023131	0.031520	-1.019775	0.075928	-0.590820	12.044716	25.033705	30.427067
46892		-4.203254	1.888398	8.840732	0.034051	-0.018641	0.028289	-1.016357	0.072266	-0.579590	12.072457	25.019928	30.440663
46893		-4.209100	1.870731	8.866279	0.035291	-0.021639	0.030193	-1.017334	0.071045	-0.586914	12.100178	25.004447	30.455948
46894		-4.229876	1.874430	8.858598	0.032796	-0.018728	0.026535	-1.019531	0.070801	-0.581055	12.126723	24.990820	30.468431
46895		-4.196596	1.876521	8.843761	0.031522	-0.021907	0.024933	-1.005371	0.060303	-0.582764	12.150918	24.975803	30.478802
46896		-4.202728	1.834058	8.871852	0.030025	-0.020376	0.024607	-1.021240	0.069336	-0.587891	12.175267	24.961476	30.489858
46897		-4.215467	1.859295	8.838827	0.033299	-0.018873	0.023527	-1.022217	0.070557	-0.586670	12.200343	24.948407	30.497902
46898		-4.151160	1.883613	8.806364	0.030295	-0.017358	0.022951	-1.018311	0.065918	-0.575928	12.224575	24.935962	30.508322
46899		-4.180323	1.889053	8.821577	0.028807	-0.014283	0.022547	-1.021240	0.070313	-0.583252	12.247024	24.925448	30.516719
46900		-4.232918	1.869545	8.831390	0.027780	-0.017539	0.019445	-1.018066	0.059570	-0.585938	12.268884	24.913321	30.524938
46901		-4.222988	1.870366	8.808708	0.026004	-0.020567	0.020853	-1.022461	0.070313	-0.587158	12.288956	24.899531	30.531112
46902		-4.220549	1.873532	8.809204	0.023719	-0.024986	0.025347	-1.028076	0.066406	-0.585693	12.309591	24.882509	30.541959
46903		-4.209994	1.930553	8.858674	0.024238	-0.022049	0.022185	-1.020752	0.069580	-0.585449	12.328855	24.867665	30.550401
46904		-4.223299	1.882120	8.833324	0.022202	-0.026543	0.025176	-1.025879	0.071045	-0.589600	12.348477	24.849786	30.560918
46905		-4.174120	1.886081	8.849767	0.022430	-0.029708	0.023828	-1.019287	0.066406	-0.581299	12.366676	24.830492	30.570903
46906		-4.162761	1.935004	8.822591	0.019945	-0.025257	0.020090	-1.026123	0.069580	-0.588135	12.383748	24.813950	30.578442
46907		-4.191916	1.891074	8.843285	0.021475	-0.022152	0.020182	-1.024902	0.063232	-0.582031	12.400906	24.799321	30.585735
46908		-4.173439	1.913124	8.795421	0.019946	-0.025255	0.020090	-1.018799	0.073486	-0.581299	12.417969	24.782777	30.593262
46909		-4.116778	1.938425	8.786084	0.020497	-0.017687	0.016690	-1.020996	0.059814	-0.586670	12.433915	24.771067	30.598697
46910		-4.138497	1.948025	8.855401	0.014489	-0.014657	0.015542	-1.028076	0.073975	-0.580811	12.447274	24.761010	30.604850
46911		-4.167996	1.919578	8.796596	0.012477	-0.013454	0.008953	-1.024414	0.065186	-0.589600	12.456877	24.752604	30.605866
46912		-4.120514	1.921843	8.812494	0.009236	-0.010316	0.009804	-1.013672	0.062744	-0.583984	12.465990	24.745682	30.609070
46913		-4.173660	1.924271	8.820127	0.003971	-0.007521	0.004145	-1.021973	0.062744	-0.593506	12.469861	24.741292	30.608056
46914		-4.172977	1.924742	8.820347	0.002227	-0.005913	0.005322	-1.018311	0.067627	-0.581787	12.474052	24.737388	30.609098
46915		-4.195699	1.900299	8.815339	-0.001059	-0.008952	0.006489	-1.023193	0.070557	-0.583252	12.475552	24.731898	30.610071
46916		-4.201662	1.951312	8.833892	-0.005616	-0.013628	0.005984	-1.019043	0.060303	-0.579834	12.474981	24.723596	30.610469
46917		-4.192719	1.948311	8.811550	-0.009375	-0.010818	0.000573	-1.024902	0.065918	-0.580566	12.470090	24.717736	30.606120
46918		-4.137592	1.945931	8.804817	-0.011636	-0.012141	0.004916	-1.025146	0.073242	-0.576904	12.465880	24.710398	30.606064
46919		-4.174827	1.973467	8.841352	-0.018433	-0.012447	-0.000830	-1.022705	0.064941	-0.580566	12.455307	24.703724	30.601473
46920		-4.158191	1.966544	8.796283	-0.023970	-0.012661	-0.004825	-1.019531	0.053711	-0.582031	12.441494	24.697299	30.595349
46921		-3.992306	2.153259	8.755218	-0.033513	-0.009983	-0.012725	-1.015869	0.072754	-0.586670	12.419483	24.693554	30.580152
46922		-3.891119	2.213096	8.680077	-0.047765	0.007212	-0.039183	-1.019287	0.071045	-0.584473	12.384322	24.702473	30.555564
46923		-4.170739	1.736706	8.843610	-0.048951	0.020544	-0.050904	-1.024658	0.064453	-0.584473	12.345275	24.720539	30.528201
46924		-4.289032	1.736181	8.881512	-0.041182	0.014843	-0.041593	-1.028809	0.066650	-0.588379	12.313675	24.733996	30.503137
46925		-4.219203	1.846064	8.816254	-0.040499	0.002735	-0.036217	-1.025879	0.066406	-0.586914	12.282261	24.740153	30.478255
46926		-4.242992	1.864585	8.806681	-0.045258	0.004313	-0.035531	-1.027588	0.071289	-0.585205	12.249284	24.746950	30.455497
46927		-4.173676	1.909005	8.826104	-0.048570	-0.003361	-0.034139	-1.021484	0.072998	-0.584717	12.213404	24.749414	30.432318
46928		-4.158013	1.922675	8.778842	-0.051108	-0.006628	-0.037489	-1.020264	0.073975	-0.586670	12.175953	24.750296	30.406884
46929		-4.196217	1.969085	8.813688	-0.056413	-0.010000	-0.042837	-1.020752	0.064941	-0.587402	12.132943	24.750136	30.380008
46930		-4.190097	1.789925	8.808885	-0.056686	-0.014555	-0.041108	-1.020508	0.063965	-0.583740	12.090923	24.746979	30.351292
46931		-4.103489	1.877131	8.778437	-0.059700	-0.014582	-0.041602	-1.024414	0.074463	-0.581787	12.046198	24.744073	30.320187
46932		-4.172636	1.900018	8.831268	-0.064962	-0.010227	-0.047324	-1.017578	0.065186	-0.584717	11.998073	24.744043	30.288211
46933		-4.181109	1.821641	8.862954	-0.064474	-0.011911	-0.050258	-1.015381	0.071045	-0.579834	11.948487	24.743591	30.253842
46934		-4.095985	1.834885	8.839548	-0.068231	-0.007536	-0.055731	-1.020752	0.072021	-0.577637	11.896463	24.746013	30.217027
46935		-4.152052	1.737889	8.934337	-0.067160	0.004986	-0.053060	-1.020264	0.066162	-0.587891	11.845529	24.755309	30.182906
46936		-4.246943	1.662084	8.987758	-0.063116	0.008272	-0.049456	-1.022461	0.071045	-0.593994	11.798902	24.765801	30.152000
46937		-4.139875	1.669643	8.894337	-0.056320	0.008573	-0.043710	-1.015381	0.069824	-0.584961	11.756779	24.776014	30.125010
46938		-4.187788	1.741816	8.949270	-0.054528	0.017793	-0.045397	-1.026611	0.072021	-0.586182	11.716615	24.791332	30.097811
46939		-4.282255	1.757536	8.916117	-0.049752	0.013578	-0.036675	-1.020264	0.068604	-0.587891	11.680304	24.803452	30.075356
46940		-4.191173	1.746662	8.870769	-0.049019	0.010286	-0.041046	-1.022217	0.077637	-0.577393	11.644001	24.814022	30.049862
46941		-4.083238	1.949997	8.759482	-0.056286	0.016312	-0.044067	-1.024902	0.076660	-0.583740	11.602138	24.828471	30.023220
46942		-4.202150	1.874192	8.804326	-0.060544	0.020830	-0.046523	-1.020264	0.068848	-0.583740	11.558349	24.845556	29.995652
46943		-4.229272	1.702731	8.888993	-0.066572	0.020763	-0.047513	-1.031982	0.071289	-0.580322	11.509927	24.862842	29.967136
46944		-4.208234	1.768123	8.890704	-0.071103	0.016079	-0.048049	-1.019043	0.069336	-0.589355	11.459408	24.877392	29.937987
46945		-4.287639	1.711355	8.895314	-0.074627	0.010000	-0.045264	-1.017334	0.077637	-0.586182	11.406381	24.888296	29.908042
46946		-4.273733	1.681255	8.929291	-0.074129	0.002561	-0.038661	-1.021973	0.072266	-0.590332	11.355843	24.894143	29.882989
46947		-4.251011	1.697987	8.936301	-0.075137	-0.004901	-0.032308	-1.019775	0.072266	-0.584473	11.305076	24.895281	29.862310
46948		-4.251545	1.697381	9.014525	-0.059302	-0.002953	-0.025136	-1.022461	0.069824	-0.580078	11.266266	24.896476	29.844940
46949		-4.188839	1.803599	8.897896	-0.052020	-0.005882	-0.022261	-1.021729	0.069580	-0.582520	11.231357	24.895840	29.826536
46950		-4.135037	1.846177	8.887226	-0.045973	0.006556	-0.021796	-1.019531	0.066895	-0.591309	11.201546	24.901988	29.812403
46951		-4.105140	1.815397	8.874655	-0.047231	0.006477	-0.023548	-1.021484	0.075439	-0.582520	11.169726	24.908467	29.794332
46952		-4.160795	1.762346	8.886522	-0.044965	0.015583	-0.028203	-1.016846	0.073975	-0.581787	11.139277	24.920385	29.777321
46953		-4.170997	1.734785	8.911543	-0.044953	0.024856	-0.028591	-1.017578	0.071289	-0.590576	11.108332	24.937706	29.760303
46954		-4.174284	1.656910	8.917096	-0.036911	0.034104	-0.030745	-1.017090	0.070313	-0.587891	11.082765	24.960302	29.743951
46955		-4.208983	1.629893	8.933322	-0.024853	0.037351	-0.028885	-1.020996	0.076904	-0.590088	11.063924	24.984742	29.727938
46956		-4.244137	1.652683	8.945022	-0.013041	0.046842	-0.025774	-1.018555	0.074707	-0.588623	11.053967	25.013946	29.716191
46957		-4.225642	1.627281	8.953035	-0.003244	0.047163	-0.019518	-1.023682	0.079346	-0.583008	11.050386	25.042817	29.709194
46958		-4.276434	1.698199	8.929197	0.002784	0.050335	-0.018648	-1.016357	0.076172	-0.582520	11.051535	25.073201	29.702284
46959		-4.265180	1.718184	8.879049	0.002532	0.045761	-0.016952	-1.023926	0.074707	-0.591797	11.051837	25.100928	29.696019
46960		-4.292431	1.692820	8.871256	0.003785	0.041207	-0.015007	-1.014160	0.075439	-0.595947	11.054041	25.125779	29.690261
46961		-4.241984	1.716177	8.860321	0.001775	0.036672	-0.012059	-1.013672	0.062256	-0.582275	11.054750	25.147956	29.687334
46962		-4.237300	1.713630	8.835878	-0.004252	0.031956	-0.012870	-1.023193	0.075439	-0.591309	11.052433	25.167370	29.681779
46963		-4.271377	1.713831	8.849709	-0.007264	0.031916	-0.013372	-1.021973	0.080322	-0.591064	11.047441	25.186957	29.672691
46964		-4.274412	1.736753	8.846502	-0.012035	0.031916	-0.012622	-1.011230	0.072021	-0.590332	11.040722	25.206321	29.667280
46965		-4.200197	1.710711	8.848214	-0.015047	0.030331	-0.013062	-1.016113	0.078857	-0.584229	11.031192	25.225031	29.662895
46966		-4.242189	1.736354	8.883205	-0.013288	0.031838	-0.014377	-1.014893	0.079834	-0.595459	11.023279	25.244542	29.656376
46967		-4.245472	1.661801	8.887944	-0.009022	0.036599	-0.012308	-1.016113	0.074463	-0.586914	11.017694	25.266687	29.654545
46968		-4.294996	1.634791	8.872666	-0.010781	0.035094	-0.010993	-1.012451	0.070801	-0.593994	11.012277	25.287657	29.650518
46969		-4.298218	1.657841	8.869348	-0.007768	0.033590	-0.010425	-1.016357	0.077637	-0.589600	11.007822	25.307919	29.646198
46970		-4.262093	1.726545	8.824163	-0.009528	0.028992	-0.008985	-1.010742	0.075439	-0.587646	11.003337	25.325237	29.642677
46971		-4.272807	1.703012	8.848042	-0.006516	0.029034	-0.008479	-1.008789	0.074219	-0.582520	10.999842	25.342707	29.640456
46972		-4.267225	1.748622	8.820138	-0.013046	0.022886	-0.006232	-1.018066	0.077148	-0.585938	10.993755	25.356289	29.637905
46973		-4.277621	1.676022	8.848209	-0.014807	0.029110	-0.005234	-1.010254	0.082031	-0.593018	10.986396	25.373402	29.635981
46974		-4.257165	1.675341	8.855203	-0.010035	0.027568	-0.005914	-1.011475	0.076660	-0.583496	10.982359	25.389583	29.634190
46975		-4.213723	1.699744	8.868192	-0.013556	0.030738	-0.003541	-1.010498	0.078857	-0.584473	10.976216	25.407491	29.636472
46976		-4.262562	1.623995	8.857057	-0.012536	0.028956	-0.009491	-1.024170	0.080078	-0.592041	10.969858	25.424842	29.632617
46977		-4.304756	1.650126	8.891781	-0.008530	0.036870	-0.006035	-1.017090	0.068604	-0.591553	10.966229	25.446357	29.633813
46978		-4.260673	1.692920	8.825623	-0.006768	0.030647	-0.007034	-1.009033	0.070068	-0.593750	10.963918	25.464391	29.631690
46979		-4.279985	1.720186	8.868208	-0.003502	0.038364	-0.008340	-1.007080	0.076660	-0.585449	10.962748	25.487093	29.627652
46980		-4.329349	1.742532	8.848700	-0.003501	0.032179	-0.008090	-1.014893	0.070313	-0.600586	10.962103	25.506104	29.625054
46981		-4.294544	1.745194	8.886308	-0.000491	0.036862	-0.007767	-1.006592	0.077393	-0.593506	10.962696	25.527921	29.623422
46982		-4.335735	1.692762	8.849711	-0.007537	0.033920	-0.002652	-1.010498	0.083008	-0.593750	10.961289	25.547319	29.624422
46983		-4.307656	1.666563	8.835415	-0.004013	0.033846	-0.005146	-1.001953	0.075195	-0.593262	10.960345	25.567185	29.627652
46984		-4.310500	1.763158	8.826339	-0.009040	0.027714	-0.002659	-1.016357	0.079102	-0.593018	10.957751	25.583092	29.627898
46985		-4.298027	1.764717	8.856370	-0.008525	0.026051	-0.005603	-1.008545	0.070557	-0.584229	10.953731	25.598598	29.627983
46986		-4.307115	1.734952	8.803433	-0.012307	0.024638	-0.001545	-1.012451	0.073486	-0.591553	10.949404	25.612654	29.628551
46987		-4.278262	1.756869	8.785750	-0.013555	0.026106	-0.003367	-1.011719	0.072510	-0.588135	10.943178	25.627867	29.625683
46988		-4.305268	1.761184	8.853556	-0.010547	0.032336	-0.003101	-1.003174	0.074707	-0.590332	10.939840	25.646423	29.626206
46989		-4.285314	1.760831	8.860376	-0.008785	0.035394	-0.004471	-1.009033	0.080566	-0.593994	10.936532	25.667031	29.624911
46990		-4.303627	1.660115	8.835591	-0.005260	0.041509	-0.007209	-1.010254	0.075195	-0.596191	10.935592	25.691194	29.623974
46991		-4.270213	1.711073	8.868901	-0.006510	0.055355	-0.009526	-1.001221	0.075928	-0.595947	10.933205	25.723582	29.625912
46992		-4.254312	1.668407	8.955322	-0.001482	0.067683	-0.012252	-1.010498	0.071289	-0.597900	10.934431	25.763017	29.624982
46993		-4.230500	1.787858	8.927568	-0.008495	0.089126	-0.017416	-1.006348	0.076904	-0.581543	10.930590	25.815310	29.624169
46994		-4.157765	1.845302	9.052231	-0.015767	0.112180	-0.021141	-1.007080	0.070801	-0.595947	10.923546	25.880743	29.623047
46995		-4.018473	1.896163	9.123573	-0.060994	0.172273	-0.022077	-0.996826	0.074219	-0.587402	10.892736	25.980184	29.626802
46996		-4.021811	1.599969	9.171021	-0.067101	0.222116	-0.015807	-0.997070	0.076172	-0.593994	10.863523	26.106896	29.642186
46997		-3.500580	1.616281	9.723465	0.006412	0.356231	-0.051560	-1.006104	0.073730	-0.598633	10.872956	26.313118	29.649976
46998		-4.089300	1.625201	9.218159	0.021244	0.453851	-0.060507	-0.992188	0.081299	-0.603271	10.894448	26.575051	29.665337
46999		-3.978926	1.684989	9.330090	0.040461	0.537411	-0.075853	-0.992920	0.062988	-0.603516	10.926494	26.885712	29.684026
47000		-3.987391	1.503413	9.469384	0.058190	0.647448	-0.092486	-0.987061	0.076172	-0.600586	10.971069	27.260013	29.703265
47001		-3.977336	1.517180	9.574791	0.084969	0.764050	-0.107682	-0.984863	0.069336	-0.605957	11.032765	27.701533	29.725992
47002		-3.954241	1.624664	9.599880	0.105140	0.891511	-0.129191	-0.977051	0.070313	-0.595459	11.108297	28.217071	29.753320
47003		-3.864675	1.641010	9.687426	0.122612	1.045341	-0.161626	-0.962646	0.072266	-0.615234	11.193095	28.822438	29.777909
47004		-3.931261	1.687060	9.843425	0.117148	1.213083	-0.203934	-0.964844	0.062256	-0.612061	11.273578	29.526966	29.800232
47005		-3.741256	2.025280	9.689724	0.109577	1.404056	-0.266548	-0.949219	0.058838	-0.623535	11.341852	30.345601	29.807687
47006		-3.826719	2.026361	9.660449	0.089935	1.615473	-0.345358	-0.936279	0.062012	-0.626953	11.388166	31.292081	29.792668
47007		-3.746196	1.965160	9.799852	0.051330	1.851162	-0.429819	-0.914551	0.058838	-0.628418	11.398720	32.380236	29.752528
47008		-3.656947	2.012082	9.838745	-0.002766	2.144215	-0.530339	-0.894531	0.066895	-0.635010	11.362733	33.644624	29.684839
47009		-3.617849	2.173805	9.886314	-0.080494	2.472022	-0.643676	-0.878662	0.064209	-0.647705	11.259955	35.105968	29.582496
47010		-3.713900	2.170297	9.861737	-0.154301	2.851659	-0.779922	-0.857666	0.062500	-0.656982	11.084729	36.795504	29.430421
47011		-3.831882	2.462660	9.703389	-0.243694	3.259618	-0.927732	-0.828857	0.063477	-0.648438	10.815850	38.730352	29.221804
47012		-4.343472	2.498216	9.698642	-0.324882	3.695092	-1.092034	-0.797852	0.057373	-0.656006	10.443887	40.926596	28.927904
47013		-4.867748	2.844615	9.511968	-0.398763	4.088804	-1.256312	-0.761230	0.062500	-0.657227	9.950109	43.360153	28.528705
47014		-5.568203	2.587697	9.138026	-0.425448	4.528649	-1.437815	-0.729004	0.060059	-0.666260	9.333666	46.056225	27.995642
47015		-6.415630	2.609069	9.218444	-0.447749	4.936058	-1.613941	-0.680176	0.067871	-0.679199	8.560645	48.995061	27.289873
47016		-8.464478	1.716232	9.334909	-0.318844	5.283916	-1.686491	-0.638184	0.069092	-0.673584	7.737453	52.128959	26.457703
47017		-11.841373	1.024378	10.590310	0.001038	5.338729	-1.547759	-0.597900	0.070801	-0.667969	7.076928	55.280952	25.637425
47018		-11.794338	0.598718	10.392124	0.458672	5.192993	-1.403715	-0.544678	0.066650	-0.665771	6.663636	58.331165	24.826749
47019		-11.405605	0.697514	10.133908	1.004978	5.027241	-1.247260	-0.512451	0.054443	-0.666748	6.589791	61.280070	24.072913
47020		-12.710749	1.006265	10.281704	1.640455	4.770633	-1.092280	-0.471924	0.040527	-0.649902	6.950627	64.068105	23.418296
47021		-12.433121	2.174411	10.096711	2.156203	4.453613	-1.114924	-0.429688	0.027588	-0.637695	7.508968	66.682492	22.665002
47022		-11.063309	3.556037	10.261820	2.331921	4.125118	-1.221581	-0.391602	0.009521	-0.624023	7.917521	69.118555	21.661247
47023		-9.098365	2.854055	9.460276	2.391660	3.821250	-1.396067	-0.370850	0.000000	-0.616455	7.924845	71.403255	20.205782
47024		-6.814078	2.311651	8.430408	2.490660	3.593136	-1.586148	-0.336914	-0.018066	-0.597412	7.363910	73.564814	18.118745
47025		-4.551755	3.657262	7.469277	2.448223	3.441915	-1.842992	-0.310547	-0.026611	-0.585693	5.776302	75.643642	15.013472
47026		0.172635	3.583499	7.717590	2.052745	3.229134	-2.236847	-0.282959	-0.036621	-0.569580	2.110524	77.579190	10.034462
47027		-14.270917	5.209778	11.106048	1.573119	2.164258	-2.133551	-0.263184	-0.038086	-0.554443	-2.877196	78.809405	4.015111
47028		-11.290858	6.656233	15.369596	1.009286	0.421919	-1.784875	-0.255615	-0.039307	-0.548096	-7.599782	78.956594	-1.389514
47029		-5.518774	4.773019	12.559120	0.777854	-0.507125	-1.537408	-0.251221	-0.040039	-0.541260	-11.272026	78.521487	-5.592037
47030		-2.304874	4.319283	9.035098	0.430836	-1.018439	-1.344400	-0.260986	-0.045654	-0.553467	-14.003142	77.782827	-8.637272
47031		-1.412634	2.749309	7.439732	0.158044	-1.284568	-1.164950	-0.269775	-0.045898	-0.550049	-15.924767	76.894692	-10.703672
47032		-0.768823	1.478293	6.406715	0.107866	-1.406897	-0.893659	-0.267822	-0.022705	-0.561768	-16.955266	75.976030	-11.829830
47033		-0.453691	1.179592	5.909922	0.182328	-1.438453	-0.562481	-0.275635	-0.033936	-0.562012	-17.096988	75.088429	-12.088268
47034		-0.866266	1.350358	5.932456	0.235640	-1.489426	-0.198755	-0.283203	-0.028320	-0.570068	-16.462970	74.237924	-11.573423
47035		-1.431010	2.025901	6.307913	0.207588	-1.592033	0.177391	-0.295898	-0.028564	-0.572754	-15.139428	73.382254	-10.323559
47036		-1.963823	2.661434	6.579600	0.047931	-1.725688	0.531429	-0.299561	-0.037598	-0.584229	-13.358489	72.498234	-8.492040
47037		-2.512015	2.568775	6.749819	-0.167983	-1.890618	0.852895	-0.312988	-0.038574	-0.589355	-11.260901	71.537722	-6.190295
47038		-3.113564	1.947947	6.943310	-0.341520	-2.078776	1.143976	-0.318604	-0.041016	-0.606201	-8.974516	70.479630	-3.568125
47039		-3.743748	1.320130	7.140505	-0.419480	-2.289976	1.396650	-0.337646	-0.036865	-0.604004	-6.556831	69.280578	-0.742354
47040		-4.175583	0.757054	7.168738	-0.436378	-2.502778	1.592441	-0.363525	-0.040039	-0.629639	-4.146649	67.937208	2.111749
47041		-4.503618	0.313441	7.275916	-0.394754	-2.704774	1.726948	-0.382324	-0.037842	-0.633789	-1.824387	66.433294	4.871321
47042		-4.860969	0.098840	7.522731	-0.330333	-2.894950	1.792230	-0.403564	-0.039551	-0.657471	0.299675	64.787805	7.408285
47043		-5.442822	0.185658	7.994561	-0.267818	-3.070964	1.809151	-0.432373	-0.043457	-0.660156	2.188513	62.997926	9.677397
47044		-6.041907	0.667438	8.499717	-0.256875	-3.264390	1.814281	-0.465820	-0.047607	-0.681396	3.812583	61.075297	11.679664
47045		-6.216719	1.142887	8.736065	-0.308831	-3.445363	1.800033	-0.499512	-0.044678	-0.691162	5.156050	59.018087	13.429233
47046		-6.299104	1.362881	8.837669	-0.383187	-3.580031	1.786362	-0.531250	-0.050781	-0.704102	6.238377	56.875145	14.962088
47047		-6.215279	1.503417	8.694050	-0.442964	-3.661193	1.792578	-0.578125	-0.050049	-0.708008	7.128170	54.663315	16.340024
47048		-6.301943	1.658271	8.641592	-0.470886	-3.684633	1.803582	-0.614014	-0.049072	-0.720703	7.873179	52.435179	17.598352
47049		-6.624360	2.071383	8.789683	-0.488802	-3.655330	1.826467	-0.655518	-0.045654	-0.727783	8.516581	50.203980	18.776004
47050		-7.184663	2.479431	9.078419	-0.515859	-3.606180	1.847222	-0.699463	-0.035645	-0.742676	9.065076	48.000206	19.889219
47051		-7.667406	2.735067	9.220654	-0.541575	-3.548669	1.877453	-0.733643	-0.027100	-0.734619	9.540307	45.810601	20.959577
47052		-7.841973	3.054571	9.239706	-0.563442	-3.445741	1.886520	-0.779785	-0.019287	-0.731445	9.943520	43.681839	21.987277
47053		-8.148690	3.171795	9.262432	-0.573626	-3.271044	1.892108	-0.817139	-0.012939	-0.732666	10.296817	41.637060	22.988184
47054		-8.947742	3.392268	9.540132	-0.548337	-3.057304	1.901726	-0.854004	-0.006104	-0.724854	10.631489	39.716554	23.979759
47055		-10.679497	3.592443	10.407072	-0.481356	-2.916625	1.966683	-0.892090	0.014404	-0.706055	10.995057	37.854491	24.994863
47056		-11.917441	4.103336	10.941246	-0.415134	-2.943375	2.095368	-0.915527	0.027832	-0.704102	11.397392	35.967017	26.056581
47057		-12.703224	4.652749	11.092449	-0.427709	-3.035976	2.199473	-0.950439	0.043213	-0.689209	11.773534	34.000881	27.134331
47058		-12.771583	4.531821	10.801146	-0.488272	-3.127132	2.265272	-0.975586	0.069824	-0.683105	12.079453	31.979608	28.205283
47059		-12.501298	3.966161	10.267730	-0.537479	-3.151846	2.295520	-1.004150	0.080566	-0.660400	12.315393	29.928020	29.256794
47060		-12.329566	3.333963	9.725455	-0.536364	-3.140721	2.315722	-1.032471	0.093262	-0.652100	12.511778	27.885370	30.293583
47061		-12.291788	3.113827	9.219216	-0.498141	-3.100390	2.322183	-1.062744	0.097656	-0.625488	12.689521	25.853441	31.312203
47062		-12.230729	3.135753	8.536454	-0.497761	-3.013350	2.308973	-1.085693	0.123047	-0.619873	12.827493	23.877402	32.312589
47063		-12.230138	2.827584	7.629482	-0.524886	-2.873196	2.244636	-1.100342	0.133301	-0.604004	12.903592	21.978740	33.273452
47064		-12.244052	2.027278	6.684384	-0.531664	-2.680548	2.137097	-1.123291	0.151123	-0.593750	12.928899	20.208094	34.183266
47065		-12.318861	1.065478	5.846772	-0.460660	-2.463380	1.973031	-1.153564	0.165771	-0.570801	12.943014	18.572821	35.013954
47066		-12.492717	0.490837	5.219205	-0.326991	-2.261500	1.736505	-1.166260	0.178223	-0.559326	12.976125	17.087006	35.725842
47067		-12.774387	0.157816	4.891418	-0.171577	-2.097577	1.433384	-1.179688	0.188721	-0.546875	13.035154	15.725490	36.275781
47068		-12.898845	-0.000629	4.570990	-0.018882	-1.966962	1.092896	-1.194824	0.188477	-0.533691	13.122271	14.486111	36.642047
47069		-12.507409	-0.053845	3.938304	0.084023	-1.864319	0.718579	-1.207031	0.188721	-0.520264	13.210741	13.347528	36.802222
47070		-11.867309	-0.155490	3.216669	0.159803	-1.714055	0.335530	-1.212158	0.198975	-0.508789	13.295816	12.347610	36.761891
47071		-11.168790	-0.323502	2.665104	0.250208	-1.501646	-0.020045	-1.230957	0.187744	-0.484619	13.396121	11.509375	36.545429
47072		-10.932645	-0.187819	2.576327	0.379950	-1.251761	-0.293552	-1.240479	0.191650	-0.484375	13.550687	10.851179	36.207042
47073		-10.841588	0.130397	2.565571	0.529647	-1.017798	-0.486733	-1.240967	0.179199	-0.474121	13.778926	10.347561	35.789245
47074		-10.526906	0.500517	2.735253	0.645598	-0.814155	-0.629042	-1.247070	0.172363	-0.468506	14.068231	9.981610	35.318489
47075		-10.173699	0.752298	3.016521	0.716404	-0.630669	-0.744117	-1.253906	0.173584	-0.460693	14.392748	9.734168	34.807026
47076		-9.921698	1.124497	3.372168	0.738255	-0.496560	-0.881873	-1.253906	0.162842	-0.468506	14.722583	9.585906	34.237084
47077		-10.690658	2.375653	4.780767	0.543986	0.333808	-0.911626	-1.262451	0.154297	-0.462891	14.957307	9.903375	33.772747
47078		-8.035970	0.936167	-6.164841	0.004752	1.029306	-1.144963	-1.247070	0.152100	-0.472656	14.874897	10.642235	33.281474
47079		-8.631786	-1.669297	-4.324806	-0.135497	2.007137	-1.226676	-1.241943	0.152832	-0.481689	14.721719	11.933208	32.886447
47080		3.005546	1.960555	7.460713	-0.122962	2.898025	-0.966302	-1.229004	0.140381	-0.500488	14.627315	13.679858	32.767237
47081		-8.462484	7.561972	16.165267	-0.470274	2.836807	-0.966013	-1.202881	0.139404	-0.518066	14.325603	15.391768	32.631679
47082		-7.768662	6.791992	12.502764	-0.752135	2.313457	-1.268574	-1.188721	0.136963	-0.535645	13.785978	16.854221	32.231499
47083		-5.856879	2.714885	9.708032	-0.511305	2.421005	-1.151753	-1.182861	0.129150	-0.550781	13.394466	18.357657	31.898945
47084		-10.185096	4.482965	12.671771	-0.186310	2.500398	-0.546823	-1.154297	0.128662	-0.553467	13.298695	19.823992	31.924939
47085		-11.984311	3.436431	14.378946	-0.161109	1.983222	-0.397197	-1.141357	0.131104	-0.568604	13.222527	20.982596	31.965151
47086		-7.972968	-0.833744	12.343976	-0.110313	1.477539	-0.388613	-1.137451	0.134521	-0.569824	13.152012	21.857714	31.938346
47087		-4.554742	0.006853	9.918316	-0.006735	1.338490	-0.358448	-1.130371	0.137939	-0.585693	13.139052	22.652007	31.909094
47088		-5.243405	2.611444	9.538268	0.016068	1.313468	-0.355099	-1.127197	0.135742	-0.594482	13.138675	23.431193	31.878272
47089		-6.200788	3.662054	9.518537	-0.048018	1.220276	-0.346137	-1.114014	0.133301	-0.601807	13.097199	24.157968	31.838922
47090		-16.043784	6.178065	15.744394	-0.446179	0.596295	-0.636621	-1.106445	0.130615	-0.601807	12.716989	24.572536	31.530971
47091		-2.011623	-1.661559	7.757570	-0.187914	0.045953	-0.171334	-1.109863	0.130127	-0.604004	12.569499	24.620935	31.430407
47092		-6.103628	2.364190	10.032354	-0.181133	0.241836	-0.220024	-1.104004	0.133545	-0.602783	12.424777	24.783555	31.326506
47093		-3.447664	1.872266	8.480433	-0.124421	0.114528	-0.120801	-1.089600	0.138672	-0.595947	12.329952	24.863696	31.265874
47094		-5.363905	1.726265	9.413576	-0.128163	0.180237	-0.141553	-1.103516	0.135010	-0.601074	12.231779	24.981910	31.201277
47095		-4.021780	1.578507	8.933946	-0.130793	0.055013	-0.103677	-1.103027	0.138916	-0.598145	12.134071	25.026467	31.142896
47096		-4.383553	1.975360	9.055780	-0.121915	0.077959	-0.109412	-1.094727	0.138672	-0.602051	12.041808	25.083325	31.084121
47097		-4.282590	1.917878	8.889588	-0.126040	0.068566	-0.112790	-1.102539	0.137451	-0.602539	11.944986	25.136375	31.021664
47098		-4.305837	1.875671	8.860261	-0.120937	0.056435	-0.106738	-1.104492	0.137695	-0.606934	11.852589	25.180673	30.961480
47099		-4.378247	1.797821	8.972560	-0.120372	0.062915	-0.100724	-1.100586	0.130371	-0.600586	11.761696	25.228951	30.905536
47100		-4.412951	1.619406	9.054855	-0.105842	0.043325	-0.086559	-1.095703	0.143799	-0.605957	11.682400	25.263378	30.855987
47101		-4.423060	1.675550	8.994878	-0.097683	0.037760	-0.070984	-1.098389	0.139648	-0.610107	11.610858	25.293958	30.815095
47102		-4.396695	1.638155	8.981982	-0.087250	0.031999	-0.059660	-1.095459	0.136719	-0.610596	11.548639	25.318822	30.780686
47103		-4.342678	1.717955	8.890794	-0.078307	0.027774	-0.048657	-1.096680	0.140381	-0.605225	11.493505	25.341160	30.752301
47104		-4.314477	1.732077	8.874046	-0.067245	0.032705	-0.040760	-1.099854	0.143311	-0.606201	11.447761	25.364208	30.729660
47105		-4.292940	1.822200	8.874469	-0.062014	0.031367	-0.035159	-1.100586	0.144287	-0.611084	11.405705	25.386986	30.710065
47106		-4.278804	1.884434	8.822712	-0.060202	0.035957	-0.036579	-1.099365	0.143555	-0.605957	11.365250	25.411357	30.690384
47107		-4.347346	1.759429	8.861044	-0.058970	0.034480	-0.034759	-1.100830	0.141357	-0.606201	11.325188	25.435807	30.671389
47108		-4.337918	1.657642	8.898999	-0.055261	0.031585	-0.029358	-1.094238	0.138184	-0.612549	11.289227	25.456887	30.655612
47109		-4.387100	1.651656	8.882147	-0.047283	0.030308	-0.021733	-1.104492	0.135010	-0.603027	11.259091	25.477509	30.644166
47110		-4.406469	1.547449	8.857806	-0.044139	0.022884	-0.013155	-1.101563	0.133789	-0.600098	11.233356	25.491873	30.637369
47111		-4.275395	1.662090	8.843390	-0.038290	0.032249	-0.010955	-1.094727	0.150391	-0.611084	11.211337	25.512378	30.632846
47112		-4.248942	1.662157	8.904846	-0.040024	0.035400	-0.009825	-1.099854	0.139893	-0.603516	11.189509	25.533401	30.629651
47113		-4.217495	1.772668	8.803290	-0.038184	0.043087	-0.011349	-1.096191	0.140137	-0.609863	11.168004	25.560028	30.626195
47114		-4.285300	1.723424	8.834839	-0.037820	0.053866	-0.013243	-1.093750	0.145020	-0.605957	11.147488	25.591808	30.623122
47115		-4.335522	1.768063	8.813093	-0.035027	0.058580	-0.011385	-1.093018	0.142090	-0.605225	11.128596	25.627136	30.621524
47116		-4.396034	1.717062	8.821096	-0.037251	0.058403	-0.016415	-1.095459	0.141113	-0.606201	11.107775	25.661816	30.617003
47117		-4.386350	1.715226	8.850482	-0.035361	0.050905	-0.009607	-1.092773	0.147705	-0.609131	11.088756	25.692631	30.615550
47118		-4.395830	1.781021	8.789743	-0.035418	0.044716	-0.009387	-1.103516	0.148193	-0.611572	11.070146	25.718838	30.613713
47119		-4.378017	1.704400	8.802017	-0.042541	0.038733	-0.004211	-1.091553	0.134766	-0.601807	11.047825	25.742213	30.614124
47120		-4.384276	1.657454	8.881388	-0.036262	0.038699	-0.004662	-1.089600	0.151123	-0.606445	11.029685	25.764516	30.614483
47121		-4.393484	1.674948	8.824584	-0.034085	0.034233	0.000533	-1.097168	0.144531	-0.618408	11.013251	25.784839	30.617293
47122		-4.381914	1.674023	8.854776	-0.029032	0.035686	-0.001734	-1.090088	0.149658	-0.607422	10.999884	25.805128	30.619101
47123		-4.384117	1.720298	8.850335	-0.024535	0.034153	-0.000889	-1.096436	0.143066	-0.616455	10.988529	25.825560	30.621003
47124		-4.310619	1.692565	8.852891	-0.023778	0.038969	0.003721	-1.091797	0.143066	-0.615723	10.979829	25.847101	30.626610
47125		-4.351698	1.688466	8.812039	-0.029052	0.042219	0.007327	-1.089600	0.142578	-0.614014	10.968553	25.871168	30.634621
47126		-4.339893	1.736782	8.838530	-0.029022	0.045318	0.007222	-1.090576	0.139160	-0.611084	10.958141	25.895900	30.643179
47127		-4.357459	1.781376	8.802529	-0.028757	0.045267	0.005720	-1.102051	0.145996	-0.611084	10.946764	25.921852	30.650548
47128		-4.356051	1.734025	8.858447	-0.025219	0.045169	0.003247	-1.086914	0.146973	-0.609131	10.937439	25.946935	30.656596
47129		-4.388254	1.777109	8.791099	-0.024231	0.046832	0.006464	-1.094238	0.142578	-0.608154	10.928955	25.973681	30.664618
47130		-4.392104	1.775429	8.789516	-0.021519	0.043798	0.008602	-1.095703	0.145264	-0.613281	10.923148	25.997414	30.673846
47131		-4.393742	1.744331	8.712771	-0.021062	0.035949	0.005858	-1.090820	0.141357	-0.605469	10.915753	26.018101	30.680177
47132		-4.376131	1.748154	8.796911	-0.020075	0.037610	0.009076	-1.093262	0.143311	-0.618896	10.910581	26.038303	30.688952
47133		-4.310559	1.770991	8.819067	-0.028456	0.048326	0.004111	-1.087158	0.139404	-0.600342	10.899137	26.066141	30.695684
47134		-4.285591	1.796525	8.878285	-0.030149	0.056124	0.005089	-1.088135	0.137939	-0.611572	10.888082	26.097194	30.704191
47135		-4.276130	1.820066	8.905837	-0.033285	0.070116	0.005597	-1.090088	0.145020	-0.620117	10.875451	26.137119	30.714475
47136		-4.212849	1.914509	8.921969	-0.043009	0.096330	-0.000145	-1.090820	0.149414	-0.607666	10.857721	26.191364	30.724528
47137		-4.191910	2.011193	8.974541	-0.047414	0.122405	-0.009583	-1.089844	0.147705	-0.617920	10.835593	26.262333	30.731564
47138		-4.175855	2.033047	9.030822	-0.076863	0.167565	-0.008655	-1.086670	0.142090	-0.608643	10.799892	26.357590	30.744782
47139		-3.900346	1.581629	9.426690	-0.036266	0.231152	-0.051559	-1.085205	0.149414	-0.612061	10.778230	26.494239	30.738406
47140		-3.518655	1.513420	9.706049	-0.023852	0.396505	-0.073450	-1.083984	0.149414	-0.616943	10.766954	26.725306	30.738204
47141		-4.063622	1.389449	9.559196	0.025880	0.537318	-0.087616	-1.074219	0.147461	-0.618164	10.787146	27.038051	30.745764
47142		-3.792100	1.584544	9.623033	0.055043	0.674847	-0.116257	-1.074463	0.150391	-0.626221	10.824127	27.430366	30.752242
47143		-3.886060	1.515986	9.643008	0.073773	0.836246	-0.138295	-1.071777	0.136963	-0.624756	10.874004	27.916695	30.764463
47144		-3.872699	1.520967	9.674573	0.096677	0.993213	-0.165568	-1.059082	0.140869	-0.624268	10.938967	28.493461	30.779465
47145		-3.830290	1.625070	9.713101	0.116799	1.165983	-0.201682	-1.049316	0.138916	-0.626465	11.014522	29.172045	30.793377
47146		-3.857360	1.497923	9.928496	0.130940	1.354774	-0.245808	-1.045654	0.139404	-0.638428	11.097319	29.960905	30.804105
47147		-3.735147	1.728324	10.029762	0.139393	1.573604	-0.306297	-1.038330	0.137451	-0.645264	11.179317	30.880048	30.804520
47148		-3.688589	1.765475	10.174399	0.131168	1.832052	-0.389222	-1.012207	0.127686	-0.652832	11.247224	31.953099	30.785858
47149		-3.493865	1.851301	10.375350	0.106704	2.151842	-0.475314	-1.008789	0.131104	-0.658203	11.292519	33.215897	30.752853
47150		-3.196510	2.103146	10.590604	0.030138	2.543457	-0.605473	-0.967529	0.128906	-0.663330	11.274296	34.712935	30.684891
47151		-2.980290	2.508116	10.681838	-0.063559	3.011849	-0.785097	-0.949219	0.125244	-0.675537	11.163059	36.493306	30.553007
47152		-2.967351	2.639107	10.547678	-0.184499	3.550964	-0.990738	-0.923584	0.121338	-0.687744	10.930217	38.598960	30.340375
47153		-3.354012	2.723286	10.395235	-0.308110	4.126642	-1.216952	-0.891846	0.135986	-0.693604	10.550379	41.051673	30.019823
47154		-3.896770	3.024179	10.191968	-0.420644	4.722411	-1.464371	-0.849854	0.123535	-0.707764	9.996701	43.863703	29.553184
47155		-4.786488	3.361355	9.929808	-0.457369	5.342340	-1.708187	-0.798584	0.128906	-0.711670	9.275079	47.044707	28.905592
47156		-6.290915	3.206197	9.802153	-0.487864	5.918415	-1.941810	-0.758057	0.125000	-0.725586	8.333068	50.566107	28.022433
47157		-9.063969	2.308442	10.014993	-0.309573	6.357401	-2.037660	-0.705811	0.119873	-0.728271	7.295108	54.332700	26.934601
47158		-12.956019	1.411482	11.664800	0.080979	6.420881	-1.875424	-0.652344	0.121338	-0.724121	6.402541	58.113581	25.802586
47159		-12.657092	-0.020425	10.939922	0.717144	6.223432	-1.668029	-0.588379	0.119873	-0.715332	5.827427	61.759768	24.660824
47160		-12.973496	-0.158915	10.683578	1.603548	5.965048	-1.377675	-0.551758	0.099365	-0.718994	5.869642	65.240126	23.678731
47161		-13.383986	-0.065286	10.775338	2.558296	5.581224	-1.183766	-0.511475	0.085938	-0.698242	6.566821	68.491027	22.839993
47162		-12.462372	1.541167	10.592403	3.258460	5.169085	-1.146805	-0.467773	0.057373	-0.679443	7.648338	71.511121	22.001337
47163		-10.821600	2.846529	10.639974	3.747630	4.719297	-1.254133	-0.429932	0.023193	-0.676270	8.733397	74.287876	20.887085
47164		-7.414650	3.850055	9.878616	3.936053	4.281533	-1.545986	-0.390625	-0.002930	-0.655029	9.059723	76.848684	18.892918
47165		-2.089485	5.769853	8.180732	3.638971	4.069441	-2.045940	-0.359619	-0.029785	-0.632813	7.203770	79.321413	14.862884
47166		0.639967	8.989208	6.529507	2.513324	4.181320	-2.868872	-0.324219	-0.045898	-0.625244	-0.394934	81.818215	5.700192
47167		-7.970421	9.402833	7.976976	1.053770	3.777206	-3.063391	-0.299072	-0.047852	-0.602051	-15.970049	83.726425	-10.607626
47168		-16.338754	10.976433	16.562374	-0.141476	1.911245	-2.330157	-0.286133	-0.040527	-0.594727	-31.834592	84.190332	-26.480505
47169		-11.623503	6.125827	16.863517	-0.513874	0.185023	-1.728709	-0.293701	-0.027588	-0.605225	-40.234834	83.689180	-34.635194
47170		-6.616552	3.075190	12.883477	-0.233390	-1.184879	-0.903290	-0.305420	-0.040527	-0.608398	-40.019299	82.835543	-34.286012
47171		-2.967138	1.947008	9.553475	0.170165	-2.011911	-0.337994	-0.326904	-0.036133	-0.613525	-35.768750	81.802700	-30.099605
47172		-1.479114	1.645560	7.478939	0.531125	-2.436811	0.122755	-0.347412	-0.038818	-0.619385	-30.156253	80.667410	-24.731576
47173		-0.460397	2.548190	6.205444	0.639708	-2.594682	0.473451	-0.383057	-0.045898	-0.628418	-24.488517	79.465042	-19.354485
47174		-0.059807	3.113489	5.444308	0.452427	-2.650646	0.729796	-0.419922	-0.066650	-0.629883	-19.389366	78.210711	-14.424188
47175		-0.254490	2.810305	5.326350	0.134042	-2.650907	0.958812	-0.459961	-0.067139	-0.647217	-14.882256	76.914340	-9.892431
47176		-0.708262	1.844940	5.604656	-0.150709	-2.637834	1.204573	-0.495850	-0.076172	-0.653564	-10.843968	75.593159	-5.649108
47177		-1.317774	0.836568	6.046452	-0.295065	-2.648890	1.475833	-0.526611	-0.083496	-0.656494	-7.026737	74.217654	-1.525570
47178		-2.067680	0.214795	6.704145	-0.317811	-2.714809	1.743039	-0.574219	-0.079346	-0.672363	-3.378755	72.757956	2.466230
47179		-2.881143	0.049883	7.407506	-0.291577	-2.851236	1.955384	-0.628418	-0.077637	-0.675049	0.047499	71.149203	6.240093
47180		-3.525997	0.051615	7.992851	-0.278196	-3.051100	2.071830	-0.674316	-0.079346	-0.677490	3.062224	69.368559	9.609275
47181		-4.195621	0.042160	8.542553	-0.275714	-3.294644	2.112803	-0.736328	-0.059082	-0.674805	5.596457	67.386011	12.499867
47182		-4.995748	0.215116	8.995080	-0.267370	-3.577109	2.107693	-0.805420	-0.053223	-0.670654	7.637716	65.210453	14.893298
47183		-5.335921	0.486854	9.025949	-0.275163	-3.863637	2.084695	-0.869141	-0.045654	-0.665771	9.242107	62.836231	16.848007
47184		-5.233129	0.751911	8.850531	-0.319064	-4.076678	2.034887	-0.946045	-0.029785	-0.638916	10.444825	60.335317	18.420130
47185		-5.165120	0.816613	8.733943	-0.351104	-4.231820	1.989338	-1.014160	-0.000488	-0.611084	11.347617	57.729432	19.702325
47186		-5.406522	1.016008	8.949937	-0.360637	-4.291021	1.937711	-1.071777	0.023193	-0.565430	12.028803	55.096864	20.764846
47187		-5.884519	1.319596	9.210947	-0.355846	-4.330706	1.890697	-1.138428	0.061768	-0.512207	12.550441	52.432043	21.659081
47188		-6.560514	1.932021	9.596054	-0.354568	-4.358115	1.857440	-1.200684	0.086426	-0.456543	12.951544	49.761731	22.432197
47189		-7.187800	2.720582	9.819736	-0.409472	-4.385121	1.842967	-1.250000	0.114014	-0.385010	13.236056	47.065294	23.120952
47190		-7.570739	3.487415	9.794769	-0.528826	-4.342777	1.834448	-1.279297	0.156738	-0.314941	13.395624	44.401929	23.763334
47191		-8.008029	4.031189	9.813094	-0.678830	-4.180894	1.811867	-1.277100	0.177979	-0.255859	13.433253	41.820748	24.382056
47192		-8.815706	4.203168	10.278169	-0.761812	-3.940126	1.806463	-1.285645	0.199951	-0.188232	13.411905	39.384683	25.016082
47193		-10.475976	4.335328	11.349973	-0.679100	-3.733290	1.892484	-1.277588	0.210693	-0.130127	13.463333	37.041970	25.722472
47194		-12.649668	4.832092	12.606184	-0.453776	-3.694827	2.129970	-1.282471	0.216553	-0.082275	13.703160	34.697623	26.571136
47195		-14.157581	6.081829	13.085812	-0.267699	-3.815690	2.456783	-1.265869	0.217529	-0.021729	14.107229	32.227057	27.576002
47196		-13.979265	7.053321	12.421112	-0.264681	-3.945368	2.756299	-1.251953	0.233887	0.043213	14.539290	29.646110	28.706349
47197		-13.789977	6.424714	11.359400	-0.388078	-3.972287	2.926669	-1.209961	0.233398	0.099609	14.881363	27.009247	29.889217
47198		-13.533434	4.724748	10.232058	-0.401995	-3.867576	2.966877	-1.153320	0.244873	0.137695	15.167064	24.428398	31.072397
47199		-13.857685	2.780742	9.526597	-0.240591	-3.702246	2.917251	-1.089600	0.233398	0.152588	15.481079	21.931826	32.213211
47200		-14.384932	1.846433	8.990460	0.012133	-3.540821	2.794334	-1.028564	0.217529	0.159424	15.866242	19.546049	33.274005
47201		-14.671720	1.622143	8.231692	0.191775	-3.382188	2.555133	-0.999512	0.208008	0.147217	16.267271	17.270670	34.188596
47202		-15.130193	1.713463	7.312335	0.198334	-3.200713	2.198548	-0.961670	0.190918	0.131836	16.583602	15.155565	34.905482
47203		-15.315507	1.280210	6.147814	0.092707	-2.987894	1.750414	-0.955322	0.173340	0.103271	16.756738	13.221031	35.387305
47204		-15.785546	0.199472	4.955459	0.012385	-2.780462	1.265875	-0.942383	0.155029	0.090576	16.817347	11.486512	35.625804
47205		-16.081603	-0.623683	3.714733	0.093972	-2.604909	0.730109	-0.940674	0.146240	0.070068	16.866358	9.931319	35.590810
47206		-15.387346	-1.236020	2.124376	0.218712	-2.436714	0.220087	-0.936279	0.131348	0.049072	16.947495	8.559013	35.300383
47207		-14.212618	-1.469890	0.568828	0.405820	-2.163140	-0.265112	-0.938721	0.118896	0.050781	17.109912	7.414351	34.785064
47208		-13.668391	-1.344244	-0.203665	0.622366	-1.809852	-0.681342	-0.938721	0.100586	0.037109	17.385579	6.539920	34.098406
47209		-13.471478	-0.758329	-0.252779	0.804675	-1.444264	-0.978281	-0.938232	0.095215	0.033203	17.762248	5.917472	33.307600
47210		-12.549937	0.384449	0.843935	0.898723	-1.142911	-1.191483	-0.931641	0.084961	0.030029	18.194381	5.505494	32.450604
47211		-14.459613	2.722643	-0.554443	0.397424	-0.085282	-1.400016	-0.928711	0.066650	0.025391	18.347076	5.708966	31.668082
47212		-14.645023	2.221929	-7.391386	-0.344357	0.884044	-1.715209	-0.926270	0.066895	0.015137	18.069214	6.497402	30.887114
47213		-17.675783	-2.160090	-10.755158	-0.749546	2.062458	-2.106201	-0.922852	0.057861	0.010986	17.541192	7.991229	30.091657
47214		6.644795	2.349420	1.732511	-1.034679	3.274651	-1.966071	-0.899170	0.064941	-0.008301	16.867517	10.116877	29.562691
47215		-10.265883	11.441363	15.852753	-1.181668	3.653678	-1.523989	-0.895752	0.064697	-0.009521	16.143809	12.372281	29.314047
47216		-10.670282	12.915154	14.623453	-1.199538	2.879234	-1.211022	-0.879883	0.073486	-0.031494	15.406975	14.148589	29.087486
47217		-6.154811	1.908595	9.211301	-1.018035	2.819048	-1.079089	-0.878418	0.060547	-0.041992	14.778563	15.869774	28.903664
47218		-11.113436	-1.619734	14.639981	-0.612246	2.931943	-0.621585	-0.865723	0.060059	-0.041748	14.453667	17.585264	28.985098
47219		-14.409726	-0.476012	17.401189	-0.446571	2.123197	-0.630652	-0.863525	0.062256	-0.051025	14.183446	18.854468	28.931959
47220		-7.779501	-0.692651	12.658828	-0.321336	1.471750	-0.673789	-0.859619	0.054443	-0.052979	13.941932	19.766347	28.750890
47221		-3.189464	3.672766	8.580816	-0.144733	1.518463	-0.449046	-0.853027	0.063965	-0.061279	13.845385	20.674282	28.705957
47222		-4.410191	4.465281	8.923886	-0.093203	1.680536	-0.337385	-0.842285	0.061035	-0.065674	13.810388	21.655543	28.750063
47223		-6.737691	1.075558	10.627960	-0.107143	1.609940	-0.359572	-0.837158	0.061768	-0.071289	13.758565	22.602061	28.769970
47224		-7.038924	-0.680899	11.141441	-0.106024	1.329812	-0.417343	-0.836426	0.062256	-0.068115	13.677838	23.399046	28.712493
47225		-5.825389	1.488684	9.816780	-0.119889	1.094283	-0.417056	-0.840576	0.065674	-0.072510	13.573279	24.066383	28.618689
47226		-13.258387	8.042157	13.845244	-0.462038	0.851573	-0.705714	-0.831055	0.060547	-0.077637	13.183502	24.634696	28.309400
47227		-4.427765	-1.485500	9.015869	-0.296044	0.102717	-0.330344	-0.826660	0.056885	-0.084961	12.936685	24.736740	28.119748
47228		-4.705264	0.811462	9.871636	-0.248772	0.228406	-0.263250	-0.830322	0.059326	-0.078125	12.741471	24.897918	27.988334
47229		-4.348168	1.947599	9.244206	-0.133573	0.119206	-0.123365	-0.823975	0.056885	-0.077637	12.641065	24.981980	27.927353
47230		-4.920455	2.088820	8.796987	-0.136370	0.177614	-0.159626	-0.826904	0.065186	-0.081299	12.533463	25.101292	27.851876
47231		-3.721974	1.637784	8.871151	-0.115959	0.095303	-0.114508	-0.824707	0.063232	-0.079834	12.443732	25.170654	27.792679
47232		-4.420291	2.118521	9.045148	-0.128126	0.157172	-0.141605	-0.820557	0.058350	-0.080566	12.343966	25.276080	27.725013
47233		-4.286029	2.073585	8.758916	-0.118686	0.144000	-0.131565	-0.821533	0.058350	-0.077881	12.250651	25.374529	27.661477
47234		-4.528860	1.826717	8.932233	-0.106028	0.132867	-0.113337	-0.817139	0.060059	-0.082031	12.169253	25.462722	27.607593
47235		-4.418559	1.793666	8.947950	-0.092665	0.126138	-0.099864	-0.829102	0.065918	-0.079102	12.097958	25.547134	27.560949
47236		-4.506356	1.707264	8.950676	-0.073506	0.116564	-0.083697	-0.819336	0.053223	-0.082520	12.041934	25.622522	27.522999
47237		-4.363661	1.701962	8.949271	-0.065253	0.114459	-0.068222	-0.817383	0.070801	-0.081055	11.993978	25.696481	27.494230
47238		-4.224537	1.755040	9.019222	-0.046908	0.133450	-0.069135	-0.820557	0.065918	-0.085449	11.957924	25.779546	27.467383
47239		-4.386930	1.904358	8.893344	-0.023747	0.141088	-0.051564	-0.825684	0.058838	-0.088623	11.939665	25.866364	27.452351
47240		-4.439377	2.008164	8.758886	-0.022435	0.136585	-0.049561	-0.821777	0.065918	-0.073242	11.923023	25.948848	27.438006
47241		-4.572907	1.925893	8.743051	-0.022828	0.127463	-0.046070	-0.820557	0.064941	-0.084473	11.905960	26.027319	27.424534
47242		-4.641500	1.753712	8.785337	-0.018309	0.103405	-0.033215	-0.815918	0.061523	-0.089111	11.894183	26.089263	27.415958
47243		-4.580208	1.771344	8.726658	-0.022157	0.088124	-0.026920	-0.818115	0.059570	-0.077637	11.880458	26.143378	27.409221
47244		-4.510193	1.681644	8.812144	-0.023352	0.079193	-0.018927	-0.819580	0.065430	-0.083252	11.868294	26.190058	27.406351
47245		-4.463625	1.615132	8.886939	-0.017932	0.084172	-0.015117	-0.815674	0.066406	-0.083008	11.860005	26.240526	27.406442
47246		-4.435995	1.756383	8.830643	-0.004727	0.089326	-0.011488	-0.821045	0.061768	-0.078613	11.861148	26.292011	27.409539
47247		-4.398869	1.847349	8.756431	-0.011075	0.093850	-0.011287	-0.813232	0.062256	-0.084229	11.858416	26.347407	27.413287
47248		-4.554625	1.887469	8.720073	-0.009881	0.097070	-0.009684	-0.813232	0.056641	-0.086182	11.857565	26.403023	27.418532
47249		-4.568096	1.855881	8.664674	-0.014257	0.087646	-0.009997	-0.817139	0.057617	-0.089355	11.853034	26.454745	27.422275
47250		-4.576740	1.902590	8.656169	-0.016816	0.075104	-0.011386	-0.821045	0.065674	-0.084961	11.846453	26.498245	27.423562
47251		-4.588484	1.805778	8.686301	-0.015359	0.059746	-0.008813	-0.823242	0.064941	-0.085693	11.840008	26.534150	27.424377
47252		-4.508772	1.739609	8.747848	-0.014397	0.059934	-0.005545	-0.814453	0.065674	-0.090332	11.835557	26.568456	27.427323
47253		-4.440277	1.861667	8.735435	-0.020342	0.055098	-0.006375	-0.815918	0.055908	-0.083984	11.826677	26.601432	27.429049
47254		-4.459166	1.831859	8.704460	-0.015671	0.062921	-0.007473	-0.807617	0.059326	-0.093750	11.821129	26.637641	27.431170
47255		-4.452349	1.882042	8.727958	-0.019224	0.071799	-0.014762	-0.816895	0.060791	-0.084473	11.811529	26.680926	27.429821
47256		-4.480549	1.829591	8.721570	-0.019017	0.076383	-0.016503	-0.817627	0.063477	-0.082520	11.802309	26.725743	27.428029
47257		-4.548532	1.755599	8.754388	-0.018148	0.082766	-0.013553	-0.812500	0.069580	-0.085449	11.794323	26.774996	27.428864
47258		-4.616246	1.771175	8.700286	-0.013526	0.075176	-0.012344	-0.825684	0.061523	-0.085693	11.789346	26.818649	27.429513
47259		-4.605581	1.765481	8.651604	-0.009246	0.072298	-0.009872	-0.816406	0.063721	-0.083740	11.786893	26.861568	27.431280
47260		-4.569075	1.864186	8.655628	-0.013433	0.068991	-0.012028	-0.815674	0.063721	-0.090088	11.781690	26.901715	27.431310
47261		-4.603789	1.879643	8.587867	-0.010269	0.058251	-0.010927	-0.820801	0.065674	-0.082764	11.777530	26.936849	27.430567
47262		-4.563983	1.905024	8.600216	-0.021690	0.054630	-0.015948	-0.814941	0.065186	-0.085938	11.765620	26.969399	27.426237
47263		-4.555050	1.930213	8.627258	-0.024513	0.042141	-0.015860	-0.813477	0.060303	-0.094482	11.750945	26.996045	27.420270
47264		-4.547864	1.852155	8.610767	-0.032210	0.035766	-0.015410	-0.811768	0.053955	-0.083252	11.732028	27.017948	27.413789
47265		-4.598327	1.804391	8.674515	-0.039306	0.026161	-0.017804	-0.808105	0.061768	-0.084473	11.707378	27.035821	27.404494
47266		-4.563025	1.870654	8.629669	-0.037202	0.031106	-0.012994	-0.814453	0.065674	-0.086426	11.686002	27.054824	27.398905
47267		-4.556525	1.863995	8.606782	-0.052638	0.013327	-0.019645	-0.814697	0.058350	-0.091064	11.652428	27.065674	27.386764
47268		-4.633027	1.807138	8.609300	-0.061049	-0.000602	-0.014317	-0.817627	0.064697	-0.081543	11.615124	27.067031	27.376203
47269		-4.640138	1.868248	8.549502	-0.064489	-0.016433	-0.018863	-0.816162	0.059570	-0.091309	11.573241	27.061049	27.360696
47270		-4.584342	1.773473	8.632811	-0.065317	-0.034766	-0.011942	-0.814941	0.059814	-0.090576	11.532172	27.042941	27.347229
47271		-4.523986	1.733236	8.765429	-0.056675	-0.028206	-0.009106	-0.814697	0.062256	-0.083740	11.496902	27.029192	27.336379
47272		-4.504604	1.785371	8.847825	-0.054648	-0.008200	-0.014320	-0.812744	0.066406	-0.086670	11.462829	27.026258	27.324844
47273		-4.430365	1.855424	8.844590	-0.055581	0.016718	-0.012530	-0.816162	0.062256	-0.085205	11.429828	27.038082	27.317589
47274		-4.425891	1.782285	8.905331	-0.056450	0.047414	-0.020307	-0.822754	0.064941	-0.086670	11.396222	27.067049	27.309359
47275		-4.363329	1.780578	8.929586	-0.062030	0.073383	-0.027174	-0.812256	0.061523	-0.094727	11.358591	27.112312	27.300041
47276		-4.382952	1.710455	9.032613	-0.046042	0.128896	-0.045372	-0.816895	0.060791	-0.094482	11.328402	27.189868	27.286260
47277		-4.189234	1.598016	9.116037	-0.016988	0.185350	-0.050297	-0.819824	0.063232	-0.093994	11.316328	27.300585	27.276430
47278		-3.885309	1.334696	9.596751	0.023143	0.307708	-0.048311	-0.809814	0.067383	-0.095215	11.335272	27.478925	27.283394
47279		-4.393352	1.548306	9.141191	0.042084	0.404786	-0.046017	-0.813965	0.064453	-0.094482	11.371179	27.712359	27.304218
47280		-4.168514	1.601413	9.301946	0.057717	0.498488	-0.050410	-0.813721	0.061035	-0.091797	11.420902	27.998083	27.334553
47281		-4.293399	1.618956	9.194230	0.070775	0.599519	-0.066528	-0.805908	0.066650	-0.097412	11.479379	28.343115	27.367977
47282		-4.301163	1.673092	9.156040	0.086697	0.696596	-0.072587	-0.799805	0.054688	-0.099365	11.551999	28.742542	27.410810
47283		-4.308065	1.828693	9.135621	0.098684	0.797916	-0.090543	-0.806641	0.055176	-0.096191	11.632651	29.201560	27.456152
47284		-4.324582	1.959871	9.112995	0.102191	0.911504	-0.113959	-0.807617	0.061523	-0.103027	11.716527	29.726264	27.502595
47285		-4.342589	1.955757	9.208821	0.104939	1.029561	-0.148767	-0.808594	0.062012	-0.108154	11.799256	30.321835	27.543445
47286		-4.392534	1.929557	9.105071	0.098753	1.151183	-0.177963	-0.800293	0.060059	-0.101318	11.878602	30.988348	27.583229
47287		-4.559765	1.849251	9.004118	0.092863	1.274486	-0.215174	-0.803711	0.054199	-0.112061	11.951499	31.728910	27.616878
47288		-4.647509	1.754730	8.994105	0.076071	1.399644	-0.252006	-0.794678	0.054199	-0.105957	12.012607	32.543399	27.645154
47289		-4.759975	1.701352	8.939998	0.056115	1.530112	-0.288554	-0.792725	0.055420	-0.114014	12.059739	33.435839	27.668647
47290		-4.790445	1.728894	8.948129	0.040638	1.668807	-0.337332	-0.785645	0.055664	-0.115479	12.092051	34.411322	27.680379
47291		-4.598978	1.569655	9.210027	0.021556	1.862206	-0.383789	-0.785889	0.054443	-0.118896	12.111661	35.501150	27.689218
47292		-4.640696	1.834882	9.403067	0.001424	2.096160	-0.442468	-0.775146	0.053467	-0.126953	12.117058	36.728670	27.692781
47293		-4.155221	1.789811	9.268869	-0.010442	2.410805	-0.528849	-0.766846	0.048584	-0.122803	12.107227	38.143147	27.682830
47294		-4.371541	2.352496	9.363925	-0.045519	2.762108	-0.641880	-0.759033	0.039551	-0.127930	12.059666	39.767693	27.644726
47295		-4.286203	2.629919	9.228777	-0.059992	3.166001	-0.752597	-0.747314	0.037598	-0.137939	11.988520	41.631902	27.584917
47296		-4.632983	2.476561	9.411899	-0.081451	3.622339	-0.890199	-0.740479	0.044189	-0.148438	11.878649	43.768009	27.488085
47297		-4.952778	2.528127	9.679701	-0.089035	4.120605	-1.022141	-0.733643	0.034424	-0.148438	11.738359	46.198820	27.358580
47298		-5.415683	2.463852	9.473615	-0.091475	4.643422	-1.171680	-0.714111	0.042236	-0.154541	11.555248	48.940096	27.178208
47299		-7.159336	2.290641	9.958371	-0.062448	5.130363	-1.260669	-0.695068	0.036133	-0.162842	11.370108	51.964265	26.981519
47300		-8.746714	1.791200	10.110028	0.093653	5.483476	-1.250434	-0.682373	0.037842	-0.168945	11.309704	55.185641	26.836717
47301		-11.043504	1.322988	11.015686	0.279845	5.703333	-1.174071	-0.651367	0.032959	-0.173828	11.447544	58.521475	26.806916
47302		-11.127170	1.177772	10.770172	0.688124	5.767105	-1.096576	-0.635498	0.018799	-0.173584	11.937133	61.884582	26.913726
47303		-10.755210	1.244489	10.766650	1.154682	5.800924	-1.041329	-0.611328	0.025635	-0.170898	12.861701	65.258240	27.204327
47304		-12.803400	1.121911	10.309349	1.855822	5.721507	-0.968947	-0.598633	0.008789	-0.179199	14.476868	68.574847	27.800945
47305		-14.111872	2.266689	10.610687	2.609282	5.466082	-0.989169	-0.582275	0.005127	-0.164307	16.797199	71.742736	28.674959
47306		-13.687764	4.237670	10.770960	3.125234	5.023123	-1.190111	-0.550049	-0.006104	-0.168213	19.402170	74.690347	29.522246
47307		-12.040333	5.618910	11.111571	3.365793	4.466713	-1.492082	-0.542969	-0.022705	-0.162354	21.722703	77.385654	29.923125
47308		-8.381883	7.057127	10.180405	3.301654	3.911528	-1.866082	-0.529785	-0.036377	-0.151611	22.926053	79.865162	29.218308
47309		-3.874630	8.906716	9.498534	2.708840	3.678365	-2.410757	-0.505615	-0.047363	-0.148682	21.375107	82.337234	26.075250
47310		-1.411688	8.423053	8.197547	1.781032	3.620816	-3.102207	-0.477051	-0.049805	-0.136230	12.639332	84.850278	16.257673
47311		-11.986073	6.018702	10.452375	1.246060	2.721701	-3.253822	-0.463867	-0.057861	-0.145996	-11.124456	86.468671	-8.288982
47312		-17.294475	10.558953	19.489672	0.562242	0.098489	-2.405834	-0.449463	-0.052490	-0.145752	-30.835313	86.020302	-28.366566
47313		-10.083106	6.732051	15.825788	0.429572	-1.648506	-1.886660	-0.434814	-0.060791	-0.165527	-35.335923	84.635120	-33.132004
47314		-1.639876	6.056406	9.684314	0.399347	-2.473268	-1.436391	-0.429443	-0.057373	-0.176025	-33.929740	83.000417	-31.950374
47315		0.957358	5.412241	6.534608	0.100947	-2.626669	-1.271768	-0.432373	-0.064941	-0.185547	-32.307305	81.338790	-30.374845
47316		0.079668	4.050827	5.706310	-0.104272	-2.627578	-1.029674	-0.433838	-0.063965	-0.199707	-30.669764	79.745801	-28.656851
47317		-0.594444	3.324104	5.642623	-0.153045	-2.635459	-0.589000	-0.442627	-0.060059	-0.202393	-28.418024	78.262209	-26.277835
47318		-0.820884	3.078980	5.625300	-0.129327	-2.739528	-0.051482	-0.440430	-0.062012	-0.216797	-25.394372	76.847831	-23.108360
47319		-0.669699	3.116645	5.632694	-0.137369	-2.852363	0.511035	-0.447266	-0.063965	-0.231201	-21.718315	75.462284	-19.245839
47320		-0.697079	3.032484	5.623875	-0.203499	-2.905959	1.048884	-0.461182	-0.065674	-0.228516	-17.692627	74.095857	-14.955967
47321		-0.958647	2.759195	5.610589	-0.297388	-2.915156	1.525295	-0.469482	-0.064941	-0.242432	-13.517657	72.716899	-10.426719
47322		-1.593150	2.049658	5.965295	-0.361851	-2.927498	1.925703	-0.491211	-0.064697	-0.256592	-9.371308	71.290267	-5.852259
47323		-2.674811	1.438004	6.624221	-0.367499	-2.999605	2.253683	-0.503662	-0.055664	-0.262939	-5.330258	69.744889	-1.347627
47324		-3.892857	0.895489	7.519664	-0.305121	-3.163799	2.499137	-0.515137	-0.057373	-0.270996	-1.523224	68.019552	2.917522
47325		-5.126866	0.621529	8.420050	-0.209830	-3.436540	2.650078	-0.535156	-0.057373	-0.279541	1.929357	66.038664	6.792655
47326		-5.510419	0.469820	8.611308	-0.116692	-3.775142	2.685051	-0.568115	-0.060791	-0.277832	4.869452	63.787218	10.109287
47327		-5.155283	0.608651	8.310808	-0.085394	-4.048783	2.586121	-0.584229	-0.050781	-0.285645	7.193000	61.318107	12.777337
47328		-4.585985	0.676270	7.822866	-0.111315	-4.153734	2.395143	-0.602051	-0.059326	-0.291992	8.909134	58.769034	14.828291
47329		-4.666200	0.833054	7.799282	-0.170997	-4.155346	2.200798	-0.621094	-0.047607	-0.284912	10.147271	56.205962	16.407579
47330		-5.254631	0.919595	7.975995	-0.199164	-4.080957	2.075405	-0.628662	-0.036133	-0.291992	11.085849	53.688569	17.690173
47331		-6.153888	1.287516	8.639879	-0.212541	-4.016036	2.027767	-0.644287	-0.036133	-0.283691	11.852567	51.196064	18.805830
47332		-7.206454	1.966515	9.503346	-0.250222	-3.962557	2.043114	-0.663818	-0.035400	-0.281738	12.502161	48.729809	19.838069
47333		-7.938890	2.898311	10.131239	-0.357832	-3.919090	2.070793	-0.661621	-0.024414	-0.282227	13.021068	46.271209	20.814713
47334		-8.295303	3.644427	10.726822	-0.499526	-3.848450	2.080572	-0.668213	-0.014404	-0.280518	13.394264	43.852179	21.742591
47335		-9.120793	4.207477	11.495750	-0.611372	-3.759884	2.097852	-0.676270	-0.013184	-0.279785	13.658806	41.469967	22.644438
47336		-10.748263	4.738963	12.246577	-0.640525	-3.734915	2.173259	-0.678711	-0.011963	-0.280273	13.886445	39.095136	23.560172
47337		-12.223882	5.461528	12.200688	-0.638347	-3.804118	2.310722	-0.677002	-0.012451	-0.289795	14.111944	36.653418	24.517422
47338		-12.559433	6.402002	11.504047	-0.704338	-3.834441	2.458398	-0.685303	-0.020996	-0.293213	14.297598	34.178002	25.529756
47339		-13.064321	6.507125	10.805543	-0.803041	-3.770863	2.563979	-0.703857	-0.031006	-0.298584	14.414880	31.714269	26.585098
47340		-13.096686	5.926025	10.133892	-0.851031	-3.624841	2.673073	-0.701660	-0.033203	-0.321533	14.497593	29.320831	27.703215
47341		-13.289008	5.175435	9.997631	-0.786613	-3.433486	2.779194	-0.713135	-0.039063	-0.325439	14.609771	27.010508	28.888619
47342		-13.353095	4.835501	10.145563	-0.680162	-3.267733	2.840625	-0.728027	-0.049805	-0.337402	14.755966	24.786861	30.109741
47343		-13.263392	4.777719	10.365978	-0.614703	-3.120852	2.829210	-0.746094	-0.054443	-0.356445	14.893432	22.637916	31.319504
47344		-13.696091	4.399754	10.320806	-0.613355	-2.977473	2.717277	-0.763184	-0.061035	-0.369141	14.965857	20.588477	32.463394
47345		-14.174979	3.201194	9.879445	-0.599298	-2.843707	2.528679	-0.788086	-0.066162	-0.377930	14.973538	18.635191	33.500442
47346		-14.737318	1.728622	9.293318	-0.465048	-2.745866	2.274439	-0.807373	-0.068359	-0.388916	14.981268	16.778664	34.393723
47347		-15.329980	0.595336	8.394756	-0.202684	-2.706277	1.957646	-0.839844	-0.072266	-0.403564	15.061260	14.986077	35.100282
47348		-14.916349	0.146970	6.987076	0.085694	-2.697838	1.603428	-0.872803	-0.068115	-0.402100	15.233994	13.254081	35.596834
47349		-13.862063	-0.019087	5.309545	0.293267	-2.595479	1.188222	-0.881348	-0.075684	-0.402588	15.462193	11.636404	35.864246
47350		-13.085161	-0.103665	3.869664	0.417564	-2.389154	0.731150	-0.915771	-0.084961	-0.406250	15.710572	10.205428	35.899292
47351		-12.619184	-0.518888	2.983577	0.511037	-2.121070	0.285454	-0.929443	-0.081299	-0.404053	15.976000	8.989067	35.720672
47352		-12.481639	-0.560823	2.509414	0.640105	-1.849741	-0.095245	-0.950684	-0.089355	-0.398193	16.293275	7.986293	35.368586
47353		-12.062968	-0.499910	2.112103	0.769665	-1.574708	-0.369686	-0.966309	-0.093994	-0.384033	16.675249	7.179444	34.903825
47354		-11.794335	-0.204772	1.939906	0.868832	-1.286290	-0.551666	-0.980469	-0.104004	-0.386963	17.113117	6.566271	34.382177
47355		-11.961137	0.542459	1.949799	0.888344	-1.018167	-0.684826	-0.979736	-0.111084	-0.377197	17.563213	6.125326	33.828915
47356		-11.566772	1.365798	1.860166	0.771817	-0.772485	-0.762575	-0.989014	-0.127441	-0.374268	17.950042	5.837236	33.273515
47357		-10.866980	1.816236	1.825597	0.559577	-0.498840	-0.789639	-0.997559	-0.119873	-0.376953	18.220363	5.705738	32.750693
47358		-10.379326	2.066833	1.992743	0.342502	-0.222326	-0.765367	-0.988770	-0.132568	-0.376953	18.373292	5.722654	32.290778
47359		-9.805414	2.015851	2.121563	0.182029	0.053180	-0.685675	-0.995361	-0.128662	-0.378662	18.442928	5.876055	31.924496
47360		-9.296570	1.899624	2.418010	0.108444	0.307828	-0.586548	-0.991943	-0.141602	-0.377930	18.479713	6.149964	31.658827
47361		-5.367406	2.919580	4.710094	-0.186343	0.746417	-0.401627	-0.983887	-0.140625	-0.377197	18.365911	6.629466	31.573949
47362		-10.358325	2.564047	-4.451033	-0.688223	2.029097	-0.912781	-0.974609	-0.134033	-0.399414	17.956737	7.897331	31.437006
47363		3.354645	1.608963	3.665477	-0.914488	2.578694	-0.912966	-0.951660	-0.135254	-0.407471	17.427600	9.465415	31.385988
47364		-1.015236	6.851163	8.521485	-1.392084	3.075877	-1.094046	-0.937988	-0.130615	-0.431396	16.616848	11.334206	31.299819
47365		-4.463479	4.364011	11.369871	-1.509484	3.092200	-1.363725	-0.917236	-0.119385	-0.444336	15.698234	13.254664	31.035213
47366		-5.519412	1.707974	10.481151	-1.122540	3.118750	-1.109931	-0.897949	-0.134277	-0.462402	15.021754	15.146314	30.889569
47367		-9.345093	-0.237612	12.527568	-0.751772	3.193941	-0.853324	-0.875732	-0.129395	-0.473389	14.591891	17.041917	30.883251
47368		-12.182325	-1.392010	15.689049	-0.478830	2.842223	-0.756587	-0.862793	-0.125488	-0.481689	14.315288	18.727148	30.867901
47369		-11.854918	-0.577634	15.394549	-0.199268	2.247836	-0.681115	-0.839844	-0.115479	-0.494629	14.181502	20.073333	30.801793
47370		-9.543442	1.971888	12.586303	-0.034903	1.781332	-0.558428	-0.835449	-0.130371	-0.493408	14.140733	21.141318	30.735733
47371		-7.601190	4.681865	10.622126	0.004826	1.531607	-0.378553	-0.831299	-0.133545	-0.498291	14.146830	22.047448	30.738938
47372		-6.564101	4.597921	9.986281	-0.033159	1.363791	-0.325845	-0.813477	-0.134521	-0.498047	14.133848	22.850872	30.748197
47373		-5.567739	2.179464	9.562858	-0.086592	1.219415	-0.365377	-0.809082	-0.131348	-0.498535	14.071971	23.581833	30.711347
47374		-9.791152	3.892214	12.191443	-0.269825	1.194946	-0.612741	-0.796875	-0.126465	-0.509277	13.841260	24.331042	30.517796
47375		-9.165528	0.219165	11.535479	-0.395223	0.255402	-0.600586	-0.798096	-0.125977	-0.511230	13.480309	24.556991	30.187298
47376		-2.560018	1.899166	7.888414	-0.261881	0.306123	-0.330206	-0.789551	-0.122559	-0.510742	13.266254	24.771469	30.027969
47377		-4.979437	2.043846	9.398220	-0.261856	0.295087	-0.366793	-0.793457	-0.126709	-0.512451	13.040813	24.986478	29.843594
47378		-5.598417	1.137533	9.717495	-0.236972	0.221651	-0.293630	-0.786865	-0.129150	-0.506104	12.843523	25.147997	29.692548
47379		-4.505117	1.450618	9.391914	-0.181551	0.140956	-0.208739	-0.782227	-0.133301	-0.512207	12.694592	25.255771	29.582130
47380		-4.636697	1.480054	9.419484	-0.142058	0.131884	-0.176699	-0.779297	-0.126709	-0.517822	12.576174	25.351713	29.489702
47381		-4.575199	1.611833	9.193167	-0.091476	0.113231	-0.119000	-0.780273	-0.121094	-0.507568	12.500375	25.432407	29.430356
47382		-4.350889	1.753987	9.024519	-0.064304	0.110226	-0.087793	-0.781982	-0.129883	-0.515625	12.448497	25.504994	29.389626
47383		-4.372028	1.994649	8.810500	-0.059025	0.119819	-0.082686	-0.780518	-0.124023	-0.518555	12.401112	25.584781	29.353437
47384		-4.429880	2.009339	8.787604	-0.052549	0.118672	-0.075300	-0.775391	-0.123291	-0.513916	12.359641	25.660500	29.321428
47385		-4.529729	1.841866	8.897114	-0.040158	0.110302	-0.057227	-0.776855	-0.124512	-0.511963	12.329207	25.731789	29.299592
47386		-4.517228	1.812811	8.903539	-0.027965	0.100012	-0.046847	-0.771973	-0.123291	-0.508545	12.308282	25.793553	29.282606
47387		-4.464125	1.806007	8.870457	-0.014255	0.095930	-0.036486	-0.769531	-0.134033	-0.515869	12.297371	25.854247	29.271635
47388		-4.450151	1.804607	8.874705	-0.000546	0.093395	-0.026190	-0.766113	-0.122803	-0.513916	12.297324	25.909781	29.266563
47389		-4.396183	1.824637	8.839375	-0.004613	0.095185	-0.020789	-0.768799	-0.131104	-0.512451	12.296131	25.968134	29.265238
47390		-4.404932	1.799195	8.837571	-0.002144	0.092277	-0.017112	-0.778809	-0.125977	-0.519287	12.297569	26.021934	29.265662
47391		-4.487597	1.864408	8.747575	-0.002520	0.089690	-0.006197	-0.776123	-0.118652	-0.512695	12.301231	26.075418	29.272679
47392		-4.446949	1.955194	8.674551	-0.005518	0.092751	-0.006876	-0.763672	-0.119385	-0.512939	12.303575	26.128234	29.279555
47393		-4.466579	1.890756	8.776886	-0.005243	0.094239	-0.008448	-0.776611	-0.121094	-0.522949	12.305350	26.184535	29.285797
47394		-4.486056	1.952885	8.658114	-0.007573	0.086688	-0.003858	-0.770508	-0.120117	-0.510498	12.307000	26.233587	29.293741
47395		-4.501913	1.953814	8.677361	-0.014563	0.080255	-0.007920	-0.770752	-0.115967	-0.517334	12.302755	26.281990	29.298414
47396		-4.520049	1.990515	8.561694	-0.019513	0.070609	-0.014572	-0.771240	-0.124268	-0.516113	12.293639	26.323350	29.297477
47397		-4.493747	2.083280	8.536236	-0.032272	0.051628	-0.020653	-0.770752	-0.122070	-0.509277	12.273998	26.357279	29.290288
47398		-4.466765	2.028650	8.525354	-0.049801	0.035748	-0.026195	-0.772705	-0.125732	-0.515869	12.242185	26.380534	29.277322
47399		-4.555668	2.024832	8.545021	-0.058984	0.024421	-0.035100	-0.768066	-0.127686	-0.520508	12.201579	26.400969	29.257382
47400		-4.520917	1.972684	8.589752	-0.066527	0.010375	-0.035826	-0.765381	-0.115967	-0.519287	12.155957	26.411162	29.234930
47401		-4.507644	1.967678	8.622309	-0.075297	-0.003759	-0.038328	-0.767334	-0.123535	-0.520020	12.103408	26.416172	29.209151
47402		-4.552818	1.933199	8.609717	-0.087089	-0.028779	-0.040895	-0.772217	-0.119141	-0.524414	12.042253	26.404997	29.178266
47403		-4.615304	1.987349	8.504704	-0.100661	-0.061498	-0.041900	-0.769775	-0.116943	-0.519287	11.970779	26.378023	29.142570
47404		-4.538440	1.892622	8.675160	-0.109706	-0.086400	-0.042444	-0.775879	-0.120850	-0.520264	11.892900	26.334664	29.103144
47405		-4.423842	1.655668	8.897757	-0.094361	-0.068449	-0.024932	-0.777832	-0.121338	-0.509766	11.829433	26.301716	29.077260
47406		-4.245184	1.605525	8.996346	-0.079990	-0.035900	-0.028393	-0.769775	-0.122559	-0.522705	11.775493	26.284952	29.053356
47407		-4.418584	1.614890	8.905482	-0.062196	0.001606	-0.025230	-0.769287	-0.113770	-0.522461	11.734440	26.291271	29.036474
47408		-4.440203	1.626303	8.818402	-0.044417	0.022070	-0.021339	-0.773926	-0.119385	-0.519287	11.706182	26.306177	29.024536
47409		-4.396744	1.769007	8.822842	-0.039906	0.025236	-0.020658	-0.764648	-0.123291	-0.518066	11.680496	26.325195	29.013558
47410		-4.465446	1.853815	8.711756	-0.032659	0.031605	-0.018065	-0.769775	-0.124023	-0.517334	11.660416	26.345063	29.004884
47411		-4.471287	1.831908	8.789912	-0.038670	0.031520	-0.019147	-0.773682	-0.113281	-0.521240	11.636204	26.367415	28.995644
47412		-4.457118	1.823826	8.743742	-0.040174	0.026853	-0.019226	-0.764893	-0.109131	-0.517334	11.611209	26.384743	28.985609
47413		-4.405927	1.819058	8.737309	-0.038941	0.036233	-0.017836	-0.769775	-0.113281	-0.524902	11.587464	26.409573	28.977773
47414		-4.481044	1.770293	8.791601	-0.040170	0.040803	-0.019797	-0.774170	-0.114014	-0.521240	11.563091	26.434789	28.969151
47415		-4.530716	1.789143	8.771356	-0.037023	0.042716	-0.011545	-0.768799	-0.117432	-0.524414	11.542555	26.462521	28.966065
47416		-4.494604	1.757940	8.735078	-0.037979	0.041030	-0.014754	-0.772217	-0.123535	-0.524902	11.520843	26.487282	28.960609
47417		-4.544203	1.777164	8.714748	-0.034017	0.042765	-0.011000	-0.770020	-0.121582	-0.517578	11.502171	26.514971	28.957847
47418		-4.479722	1.848952	8.733178	-0.031285	0.045970	-0.009080	-0.771729	-0.128418	-0.520508	11.486152	26.541855	28.956562
47419		-4.429509	1.796592	8.730031	-0.034563	0.044437	-0.008063	-0.770020	-0.121094	-0.527100	11.468081	26.570141	28.955838
47420		-4.473956	1.771840	8.767375	-0.032787	0.052153	-0.009598	-0.768311	-0.113037	-0.519775	11.451399	26.600555	28.954996
47421		-4.484533	1.764197	8.711359	-0.034564	0.058392	-0.008617	-0.763672	-0.115723	-0.524902	11.433960	26.636730	28.955680
47422		-4.489805	1.785096	8.707430	-0.034014	0.058282	-0.011617	-0.765137	-0.123047	-0.521729	11.416344	26.670815	28.954326
47423		-4.490029	1.883108	8.751758	-0.037570	0.067657	-0.009531	-0.763672	-0.109375	-0.524658	11.397445	26.712290	28.955586
47424		-4.524702	1.874307	8.686510	-0.040299	0.073764	-0.011822	-0.759277	-0.122070	-0.525146	11.377039	26.755093	28.956038
47425		-4.466369	1.878150	8.786756	-0.043302	0.078378	-0.012554	-0.764404	-0.114746	-0.524658	11.354609	26.802924	28.956725
47426		-4.405881	1.778069	8.817272	-0.052871	0.098523	-0.011989	-0.767090	-0.116455	-0.514404	11.328347	26.859655	28.960161
47427		-4.519732	1.826325	8.874154	-0.051771	0.132430	-0.019295	-0.761719	-0.123779	-0.518555	11.302213	26.938595	28.963369
47428		-4.273974	1.729193	8.949237	-0.048051	0.166154	-0.032312	-0.757080	-0.120850	-0.520508	11.276745	27.035609	28.962450
47429		-3.810623	1.624334	9.529793	0.009415	0.247281	-0.035539	-0.761963	-0.119385	-0.528809	11.287577	27.180880	28.969820
47430		-4.373795	1.759912	9.061855	0.013498	0.349588	-0.044855	-0.757080	-0.114502	-0.525391	11.304357	27.382365	28.984144
47431		-4.186379	1.651340	9.220241	0.033266	0.418254	-0.045267	-0.758789	-0.114258	-0.527100	11.336113	27.624717	29.007148
47432		-4.216658	1.654941	9.231653	0.037383	0.516106	-0.054423	-0.750000	-0.117920	-0.520020	11.373889	27.920809	29.036927
47433		-4.279084	1.731179	9.223879	0.049312	0.614173	-0.063639	-0.750732	-0.116699	-0.530518	11.421601	28.275195	29.073857
47434		-4.242088	1.880646	9.197877	0.059776	0.712403	-0.073145	-0.739990	-0.113281	-0.527588	11.479302	28.683603	29.117835
47435		-4.242760	1.889549	9.246943	0.068200	0.810342	-0.095513	-0.732910	-0.117188	-0.531250	11.541322	29.151642	29.161007
47436		-4.327979	1.887086	9.154027	0.072824	0.928609	-0.122595	-0.730469	-0.121582	-0.532227	11.606185	29.687009	29.203062
47437		-4.373754	1.796358	9.191319	0.072530	1.051650	-0.155631	-0.726318	-0.114502	-0.528809	11.668843	30.297253	29.241121
47438		-4.344016	1.756479	9.260000	0.070576	1.178291	-0.187695	-0.712891	-0.130371	-0.528320	11.729701	30.980187	29.276323
47439		-4.293109	1.513148	9.547924	0.066370	1.355354	-0.225504	-0.708496	-0.123535	-0.529053	11.788403	31.768789	29.312046
47440		-4.216815	1.503078	9.701518	0.062363	1.575060	-0.279236	-0.691406	-0.123047	-0.530029	11.843568	32.684915	29.343835
47441		-3.964827	1.781826	9.795348	0.051365	1.829938	-0.350389	-0.686035	-0.122559	-0.531738	11.886704	33.754149	29.365104
47442		-3.909056	1.856239	9.846685	0.017976	2.146903	-0.447249	-0.660889	-0.124756	-0.525146	11.900483	35.010685	29.366874
47443		-3.748126	1.955077	9.633939	0.002620	2.504769	-0.552824	-0.654297	-0.124512	-0.527100	11.892912	36.481971	29.347833
47444		-3.894381	1.816639	9.900652	-0.027756	2.922038	-0.662324	-0.629395	-0.118896	-0.534180	11.858022	38.198480	29.312446
47445		-3.903121	1.906797	9.678630	-0.021755	3.394516	-0.761309	-0.606934	-0.119629	-0.530518	11.823767	40.192961	29.274709
47446		-4.355395	2.264659	9.562609	-0.006663	3.891476	-0.873434	-0.585205	-0.122803	-0.526855	11.791725	42.477882	29.228230
47447		-5.191544	2.526262	9.645719	0.013863	4.369049	-0.991877	-0.551270	-0.119141	-0.521240	11.756745	45.045632	29.163150
47448		-5.907926	2.595624	9.527251	0.027465	4.809639	-1.105988	-0.519531	-0.116943	-0.510254	11.710409	47.872678	29.074120
47449		-7.403203	2.237403	10.004002	0.066256	5.172232	-1.137257	-0.486816	-0.127441	-0.511230	11.706029	50.907629	29.015493
47450		-9.236152	2.223049	10.683516	0.173539	5.458156	-1.118160	-0.450684	-0.114746	-0.486328	11.819741	54.099896	29.030328
47451		-9.951270	1.429307	10.678955	0.318319	5.616771	-1.060824	-0.410400	-0.119629	-0.487305	12.108641	57.374826	29.156406
47452		-10.235751	1.457424	10.913571	0.648322	5.760750	-1.027857	-0.373291	-0.120361	-0.471191	12.703968	60.725002	29.414313
47453		-10.281820	1.504805	10.543256	0.980613	5.789407	-1.011677	-0.343994	-0.122803	-0.446777	13.631070	64.087310	29.823543
47454		-12.005824	1.063045	10.285624	1.592425	5.763035	-0.937160	-0.309570	-0.122070	-0.432861	15.214965	67.419094	30.556696
47455		-11.793288	1.532961	10.281428	2.278346	5.591147	-0.939681	-0.278809	-0.128418	-0.393066	17.526804	70.644610	31.631250
47456		-11.972031	2.738261	10.210311	2.869266	5.313452	-1.037840	-0.254150	-0.145508	-0.367188	20.507171	73.716923	33.031452
47457		-11.739832	4.626565	10.666166	3.259346	4.939160	-1.263515	-0.232910	-0.151367	-0.337891	23.875185	76.610549	34.580376
47458		-10.273476	6.677468	11.047760	3.269841	4.366996	-1.603295	-0.211426	-0.163086	-0.302002	26.880062	79.265274	35.734122
47459		-5.894554	8.586495	10.545482	2.737314	3.987507	-2.113593	-0.190430	-0.164795	-0.287598	28.356706	81.850035	35.638331
47460		-4.412138	8.876565	8.094593	1.857538	3.734578	-2.741119	-0.172119	-0.162842	-0.261719	25.891276	84.472109	32.081572
47461		-4.963449	5.616914	9.533371	1.224320	2.907875	-3.058983	-0.158203	-0.151123	-0.237305	12.237747	86.634214	17.683349
47462		-18.997994	10.903414	20.932401	0.368197	0.415649	-2.498369	-0.144043	-0.137207	-0.228516	-13.027948	86.868023	-7.835423
47463		-11.604660	5.948500	16.692833	0.249681	-1.419576	-2.074734	-0.151855	-0.132813	-0.250000	-25.953086	85.693751	-20.933367
47464		-2.539431	5.596463	10.604382	0.347808	-2.376626	-1.676503	-0.160156	-0.123535	-0.263916	-28.359563	84.042519	-23.551840
47465		0.285503	5.283173	7.296159	0.161780	-2.680855	-1.531336	-0.164063	-0.121094	-0.276123	-28.566559	82.270304	-23.857195
47466		-0.754211	4.295316	6.554234	0.010086	-2.810922	-1.277932	-0.189209	-0.102539	-0.278809	-27.803682	80.504057	-23.094062
47467		-0.810867	4.018876	5.975771	-0.068908	-2.891181	-0.859984	-0.196533	-0.115479	-0.296875	-26.113254	78.799850	-21.339747
47468		0.010424	3.681005	5.298686	-0.138443	-2.936250	-0.382431	-0.210693	-0.103760	-0.305664	-23.792346	77.180993	-18.888597
47469		0.097582	3.065980	5.223325	-0.170857	-2.917365	0.135080	-0.233887	-0.109131	-0.316895	-20.941894	75.659447	-15.860166
47470		-0.501241	2.582671	5.519748	-0.150920	-2.878051	0.692790	-0.256348	-0.114502	-0.328125	-17.612183	74.232646	-12.325492
47471		-1.268202	2.442124	5.896218	-0.107916	-2.887751	1.248963	-0.271973	-0.118164	-0.339355	-13.812661	72.827368	-8.304058
47472		-2.075140	2.272654	6.548225	-0.087581	-2.982233	1.743767	-0.292236	-0.126465	-0.337646	-9.756195	71.357247	-3.991477
47473		-2.847671	2.024476	7.141244	-0.098673	-3.137016	2.138493	-0.316895	-0.137207	-0.353516	-5.679455	69.733163	0.386518
47474		-3.576316	1.432724	7.722630	-0.139016	-3.318857	2.397863	-0.338867	-0.147217	-0.360840	-1.894677	67.925056	4.527246
47475		-4.471129	0.598695	8.148720	-0.110116	-3.556027	2.555835	-0.369141	-0.146729	-0.364746	1.501649	65.884339	8.282293
47476		-4.793263	-0.210815	8.227369	-0.024591	-3.820703	2.607840	-0.387451	-0.159912	-0.375244	4.412866	63.620064	11.513039
47477		-4.709356	-0.604486	8.091116	0.081786	-4.009352	2.543064	-0.426270	-0.169922	-0.372803	6.809952	61.182865	14.159292
47478		-5.059515	-0.459577	8.166618	0.148180	-4.101020	2.395614	-0.440674	-0.185547	-0.381104	8.696737	58.669033	16.238042
47479		-5.818826	0.077199	8.461748	0.125779	-4.155462	2.226886	-0.476807	-0.187988	-0.383545	10.131324	56.102855	17.850159
47480		-6.260419	0.412794	8.529955	0.021937	-4.194677	2.064493	-0.495605	-0.192871	-0.389648	11.163656	53.522190	19.094555
47481		-6.818995	0.330521	8.760116	-0.086459	-4.175721	1.936130	-0.522705	-0.195068	-0.395020	11.902648	50.947368	20.086701
47482		-7.683332	0.282938	9.230802	-0.140459	-4.109048	1.868903	-0.554199	-0.205078	-0.401123	12.471001	48.420058	20.934196
47483		-8.509453	0.877338	9.807390	-0.175729	-4.031460	1.838768	-0.572998	-0.204834	-0.401367	12.933556	45.926091	21.696866
47484		-9.073398	2.060079	10.511166	-0.276612	-3.949668	1.785657	-0.597656	-0.206299	-0.411865	13.255220	43.490187	22.375740
47485		-10.009781	3.314730	11.369767	-0.438145	-3.861806	1.733439	-0.623779	-0.219727	-0.410156	13.421032	41.099031	22.989836
47486		-12.064398	3.864051	12.340466	-0.554735	-3.827141	1.738926	-0.662354	-0.215576	-0.414551	13.488421	38.734658	23.586261
47487		-14.142202	4.302216	12.477441	-0.555241	-3.937664	1.870783	-0.691162	-0.216064	-0.421631	13.567132	36.281368	24.232362
47488		-14.491873	4.789689	11.435409	-0.526466	-4.057650	2.057951	-0.720459	-0.216309	-0.416992	13.686148	33.744200	24.961106
47489		-14.391031	5.319234	10.392762	-0.534573	-4.032227	2.220216	-0.749268	-0.213135	-0.415527	13.818662	31.189057	25.772330
47490		-14.672081	5.104767	9.624363	-0.535334	-3.916211	2.383048	-0.790771	-0.213623	-0.410889	13.966725	28.683070	26.678571
47491		-14.524644	4.460004	9.096197	-0.470003	-3.743884	2.563668	-0.829346	-0.203125	-0.409912	14.169124	26.237222	27.694440
47492		-14.143501	3.886000	8.737509	-0.384335	-3.565853	2.675475	-0.858398	-0.213867	-0.390869	14.409601	23.879014	28.776122
47493		-13.475252	3.277832	8.407614	-0.340467	-3.346003	2.671917	-0.891846	-0.208496	-0.379150	14.636696	21.632012	29.859676
47494		-13.213968	2.606313	8.009844	-0.343672	-3.085609	2.546633	-0.919922	-0.197021	-0.369873	14.803237	19.551409	30.885896
47495		-13.956789	1.752111	7.834626	-0.351455	-2.814151	2.313253	-0.946533	-0.200928	-0.356445	14.896049	17.646868	31.799536
47496		-14.894187	1.143549	7.517392	-0.323965	-2.623278	2.034576	-0.969971	-0.191650	-0.352295	14.935401	15.894514	32.570578
47497		-15.332257	0.433185	6.794362	-0.261864	-2.517866	1.701940	-0.987061	-0.191162	-0.332275	14.940896	14.244067	33.159220
47498		-15.354553	0.086682	5.651436	-0.151245	-2.429195	1.317054	-1.003174	-0.182373	-0.318115	14.945112	12.704832	33.538558
47499		-14.659255	-0.471142	4.320498	-0.018266	-2.325342	0.882310	-1.015625	-0.177246	-0.301514	14.967219	11.283281	33.684509
47500		-13.715600	-1.077370	2.847003	0.190987	-2.140962	0.385110	-1.019531	-0.180420	-0.294678	15.059186	10.041427	33.576713
47501		-13.135395	-1.503771	2.045377	0.479759	-1.902559	-0.130002	-1.033936	-0.179443	-0.277832	15.275931	9.006193	33.212943
47502		-12.693377	-1.473096	1.659511	0.797378	-1.655028	-0.603629	-1.041260	-0.199463	-0.249512	15.646494	8.184568	32.618851
47503		-12.169609	-1.343967	1.484180	1.081621	-1.399676	-1.022586	-1.038330	-0.199219	-0.246582	16.159506	7.572457	31.826633
47504		-12.098559	-1.213869	1.862282	1.325314	-1.163302	-1.347617	-1.045166	-0.221680	-0.235596	16.801086	7.152499	30.888122
47505		-11.735642	-0.348138	2.228388	1.442246	-0.971511	-1.529900	-1.044922	-0.228760	-0.223877	17.505707	6.878927	29.877412
47506		-11.136696	1.385727	2.448224	1.313158	-0.780958	-1.601207	-1.031006	-0.242188	-0.213867	18.139843	6.733919	28.858601
47507		-10.400804	3.040464	2.416986	0.991073	-0.556593	-1.558165	-1.032715	-0.238770	-0.203857	18.597467	6.713466	27.902973
47508		-5.874476	6.546499	4.395436	0.576157	-0.241215	-1.267067	-1.030762	-0.259033	-0.199707	18.843094	6.815772	27.164622
47509		-12.147729	6.139667	-4.459282	-0.686363	1.267327	-1.111513	-1.019775	-0.260254	-0.203613	18.404276	7.708853	26.788809
47510		-4.884503	2.065508	-3.772230	-0.821791	2.295396	-1.059467	-1.015137	-0.254150	-0.210449	17.910949	9.147879	26.618736
47511		4.823574	8.413076	3.868603	-1.054460	3.024030	-0.460222	-1.002930	-0.258789	-0.229736	17.357312	10.881430	26.895469
47512		-4.623481	11.616226	10.105601	-1.463711	3.418997	-0.721776	-0.987061	-0.242920	-0.235840	16.557770	12.875957	27.073769
47513		-7.240050	3.811228	13.184032	-1.422584	3.113366	-0.668011	-0.977539	-0.253174	-0.262451	15.777253	14.698005	27.205732
47514		-7.186091	-2.657007	11.518557	-1.042871	2.989735	-0.423389	-0.964600	-0.246582	-0.267578	15.244261	16.413603	27.437247
47515		-10.918566	-4.636698	14.942310	-0.687359	2.874904	-0.429898	-0.952148	-0.243408	-0.274902	14.912183	18.070740	27.635910
47516		-13.774312	-4.004114	17.415798	-0.386195	2.173414	-0.534751	-0.951904	-0.247803	-0.282227	14.700399	19.353072	27.657786
47517		-9.692408	-0.794641	13.940443	-0.221258	1.484161	-0.622370	-0.938477	-0.243652	-0.285889	14.528258	20.269187	27.517916
47518		-5.358892	3.473892	10.024812	-0.092355	1.288120	-0.469382	-0.933105	-0.243408	-0.282227	14.448774	21.051141	27.435589
47519		-4.506382	5.081410	8.888087	-0.075891	1.346471	-0.315507	-0.936279	-0.251221	-0.306885	14.413449	21.846904	27.452835
47520		-4.847950	2.402847	9.410051	-0.077708	1.348932	-0.275923	-0.918945	-0.242432	-0.297363	14.386858	22.634920	27.493659
47521		-5.042284	0.176685	9.622515	-0.042458	1.271797	-0.324418	-0.908447	-0.249756	-0.302734	14.364404	23.390586	27.493393
47522		-5.603085	1.039918	9.583905	-0.017191	1.155768	-0.371652	-0.905762	-0.243408	-0.306885	14.337924	24.085009	27.445921
47523		-12.571319	7.077272	13.247743	-0.253471	1.045933	-0.573900	-0.903809	-0.244873	-0.309814	14.116107	24.750470	27.256328
47524		-6.593371	1.862544	8.992026	-0.421323	0.057955	-0.470019	-0.904297	-0.247314	-0.313965	13.759517	24.847655	26.975786
47525		-3.492475	0.926213	8.248568	-0.333400	0.307222	-0.389165	-0.895996	-0.246582	-0.309326	13.488306	25.075370	26.781275
47526		-5.073243	1.588971	10.401720	-0.197389	0.132388	-0.239503	-0.908447	-0.254639	-0.312988	13.322720	25.181049	26.651826
47527		-5.691779	2.270975	9.195667	-0.242778	0.160687	-0.241080	-0.888428	-0.244873	-0.314941	13.131397	25.306373	26.525177
47528		-4.186821	1.998786	8.818641	-0.182345	0.041180	-0.166512	-0.898193	-0.239746	-0.320068	12.987322	25.350985	26.426817
47529		-4.791695	1.435056	9.396876	-0.161690	0.067256	-0.155234	-0.893066	-0.261230	-0.316650	12.858868	25.412566	26.339120
47530		-4.444922	1.818283	8.957929	-0.133384	0.024443	-0.104600	-0.894043	-0.247803	-0.314209	12.758002	25.439573	26.276412
47531		-4.469265	1.713263	9.039374	-0.115000	0.019929	-0.084179	-0.895996	-0.247314	-0.318115	12.672078	25.465464	26.225779
47532		-4.233088	1.992746	8.730292	-0.098750	0.022708	-0.070725	-0.889893	-0.244873	-0.317871	12.599876	25.487085	26.183692
47533		-4.306563	2.152054	8.740817	-0.090976	0.050591	-0.075590	-0.886230	-0.242188	-0.316406	12.531729	25.528927	26.142519
47534		-4.412005	1.920779	8.779633	-0.078101	0.046713	-0.068540	-0.895752	-0.248535	-0.309570	12.473284	25.563616	26.105007
47535		-4.329519	2.015540	8.799703	-0.070661	0.051649	-0.067541	-0.892822	-0.245117	-0.313965	12.418902	25.604975	26.068856
47536		-4.345496	2.072828	8.736569	-0.067833	0.061048	-0.067563	-0.885254	-0.240723	-0.323975	12.367358	25.647501	26.033807
47537		-4.468003	2.078965	8.692582	-0.068284	0.058112	-0.064385	-0.890869	-0.248291	-0.319336	12.315483	25.692024	26.000394
47538		-4.355538	2.022207	8.660515	-0.074662	0.050302	-0.061965	-0.887451	-0.251465	-0.316650	12.260811	25.727794	25.967257
47539		-4.382409	1.946703	8.736808	-0.080842	0.045509	-0.061226	-0.890137	-0.244385	-0.326904	12.201783	25.764821	25.934005
47540		-4.523384	1.861500	8.773129	-0.081650	0.034980	-0.054616	-0.890137	-0.241943	-0.327637	12.144121	25.791062	25.903286
47541		-4.449314	1.663739	8.818993	-0.082845	0.018403	-0.044665	-0.889404	-0.246582	-0.318604	12.086785	25.810855	25.876626
47542		-4.461185	1.665501	8.919252	-0.072922	0.011306	-0.037944	-0.887207	-0.245117	-0.320313	12.037225	25.821781	25.853068
47543		-4.459948	1.816819	8.802085	-0.074543	0.002513	-0.026922	-0.890869	-0.245117	-0.321533	11.988484	25.830510	25.835299
47544		-4.513372	1.783388	8.812834	-0.070117	-0.004963	-0.024235	-0.892578	-0.241943	-0.321045	11.943300	25.830653	25.818108
47545		-4.485407	1.888912	8.710007	-0.075433	-0.015692	-0.018413	-0.886475	-0.244873	-0.318115	11.895302	25.828146	25.803232
47546		-4.467982	1.860911	8.746027	-0.082941	-0.028286	-0.017534	-0.883301	-0.241211	-0.321533	11.843261	25.814396	25.787163
47547		-4.459237	1.899071	8.721160	-0.090969	-0.040747	-0.013653	-0.890869	-0.242188	-0.325195	11.786247	25.797261	25.772004
47548		-4.386600	1.895993	8.749089	-0.095533	-0.050127	-0.012433	-0.890625	-0.238281	-0.318848	11.727167	25.770636	25.756316
47549		-4.388575	1.840758	8.780921	-0.090825	-0.046911	-0.013332	-0.888428	-0.236572	-0.324219	11.670019	25.749977	25.740618
47550		-4.361798	1.833970	8.792655	-0.092103	-0.045479	-0.015172	-0.886719	-0.241211	-0.322754	11.612462	25.726249	25.723886
47551		-4.377868	1.750545	8.795639	-0.092171	-0.042379	-0.015331	-0.891602	-0.238770	-0.325928	11.554294	25.708330	25.707583
47552		-4.376844	1.790430	8.794084	-0.089264	-0.037615	-0.015057	-0.891846	-0.240967	-0.323975	11.498863	25.688974	25.691979
47553		-4.402973	1.733571	8.816939	-0.086394	-0.031306	-0.014859	-0.886230	-0.244629	-0.324219	11.444766	25.677185	25.677420
47554		-4.401356	1.749859	8.817469	-0.082545	-0.035577	-0.009359	-0.885742	-0.239014	-0.323975	11.394861	25.658300	25.665668
47555		-4.368399	1.766465	8.803125	-0.080780	-0.035572	-0.010609	-0.896240	-0.243652	-0.323975	11.344913	25.643610	25.653254
47556		-4.394499	1.710817	8.825606	-0.072371	-0.030458	-0.006308	-0.891602	-0.234619	-0.328857	11.301959	25.627240	25.644080
47557		-4.391929	1.704202	8.828165	-0.070607	-0.030453	-0.007559	-0.893555	-0.240967	-0.321777	11.258955	25.615063	25.634237
47558		-4.353380	1.768893	8.785821	-0.068554	-0.033190	-0.000890	-0.889160	-0.235840	-0.326172	11.219517	25.596540	25.628130
47559		-4.310675	1.719670	8.831827	-0.067961	-0.025630	-0.005771	-0.895996	-0.231445	-0.315186	11.178784	25.586858	25.620022
47560		-4.302739	1.760296	8.806499	-0.067004	-0.023908	-0.002584	-0.895752	-0.233643	-0.330566	11.140286	25.573734	25.614031
47561		-4.271086	1.778484	8.791269	-0.068175	-0.016347	-0.006208	-0.896240	-0.241211	-0.322266	11.099816	25.569298	25.606808
47562		-4.230280	1.729236	8.836202	-0.061489	-0.000881	-0.011934	-0.891602	-0.241699	-0.321045	11.063186	25.570143	25.597820
47563		-4.315792	1.738645	8.780076	-0.058109	0.005309	-0.014723	-0.889648	-0.233643	-0.327881	11.027337	25.578795	25.587936
47564		-4.292624	1.710450	8.790923	-0.058511	0.011549	-0.013505	-0.887695	-0.233887	-0.322021	10.992639	25.586794	25.579474
47565		-4.354824	1.679998	8.823739	-0.065007	0.009886	-0.011438	-0.890137	-0.244141	-0.323975	10.953959	25.597641	25.572183
47566		-4.319280	1.703403	8.861030	-0.067905	0.014740	-0.004383	-0.883545	-0.241943	-0.325439	10.916495	25.606433	25.569784
47567		-4.320868	1.697115	8.861462	-0.069518	0.019324	-0.004846	-0.885498	-0.234619	-0.335449	10.877490	25.621859	25.567725
47568		-4.367652	1.663056	8.847900	-0.065076	0.022592	-0.004225	-0.887939	-0.224854	-0.330566	10.842090	25.635049	25.566351
47569		-4.333884	1.728722	8.803573	-0.060781	0.021274	-0.001893	-0.895996	-0.226807	-0.327393	10.808980	25.651242	25.566350
47570		-4.346369	1.773753	8.822259	-0.054319	0.024493	-0.004023	-0.891357	-0.233887	-0.319824	10.779887	25.665480	25.565311
47571		-4.262280	1.746491	8.802356	-0.057622	0.025980	-0.003095	-0.886475	-0.233887	-0.326660	10.748508	25.684441	25.565106
47572		-4.274002	1.767273	8.823039	-0.053875	0.027489	-0.007166	-0.888672	-0.229736	-0.325684	10.718964	25.700699	25.562441
47573		-4.314609	1.757031	8.783717	-0.053985	0.032130	-0.007367	-0.884277	-0.231445	-0.333496	10.688831	25.723560	25.560277
47574		-4.333260	1.731214	8.830938	-0.044733	0.044741	-0.009380	-0.890381	-0.234619	-0.327637	10.664797	25.749765	25.558242
47575		-4.392422	1.749434	8.834633	-0.040626	0.040376	-0.005410	-0.891602	-0.236328	-0.333008	10.643274	25.777048	25.558255
47576		-4.281667	1.755068	8.873464	-0.028847	0.051655	-0.003829	-0.891846	-0.231934	-0.324463	10.630195	25.806557	25.560483
47577		-4.291859	1.831601	8.942246	-0.032926	0.064065	-0.000356	-0.895264	-0.230469	-0.332031	10.615678	25.846632	25.566425
47578		-4.410160	1.788930	8.824628	-0.039550	0.076619	0.008875	-0.890137	-0.232666	-0.326172	10.601209	25.888862	25.579516
47579		-4.380010	1.773454	8.939752	-0.028458	0.086151	0.005770	-0.888672	-0.232422	-0.330078	10.592084	25.940715	25.591873
47580		-4.274385	1.972616	8.937550	-0.030712	0.098224	-0.001279	-0.885498	-0.238037	-0.332031	10.581019	25.996186	25.601125
47581		-4.157530	2.156462	9.044564	-0.032156	0.142495	-0.018710	-0.880859	-0.229004	-0.330322	10.565982	26.082328	25.604728
47582		-3.754436	2.528514	9.529930	-0.125394	0.211906	0.005874	-0.888916	-0.228516	-0.333008	10.508499	26.201093	25.631698
47583		-3.167144	0.938488	9.953535	-0.114069	0.382717	-0.000048	-0.889404	-0.232666	-0.333496	10.464155	26.420543	25.674867
47584		-3.213451	2.270427	10.140765	-0.032866	0.639003	-0.108347	-0.886719	-0.228516	-0.329590	10.449858	26.791864	25.679455
47585		-3.675170	1.246154	10.166841	0.023963	0.850890	-0.149379	-0.875977	-0.233887	-0.329590	10.467037	27.290438	25.682944
47586		-3.175725	1.437515	10.641620	0.044816	1.098133	-0.185803	-0.874268	-0.232422	-0.339844	10.499640	27.928503	25.692535
47587		-3.172042	1.361369	10.793758	0.062701	1.406167	-0.240672	-0.863770	-0.235840	-0.339355	10.542909	28.749201	25.704188
47588		-3.122866	1.620285	10.792793	0.069511	1.723437	-0.326316	-0.848145	-0.234375	-0.346436	10.582931	29.754214	25.699509
47589		-3.136087	1.706545	10.812826	0.063972	2.058739	-0.428095	-0.845947	-0.231201	-0.349609	10.606373	30.961854	25.669859
47590		-3.164911	1.856151	10.752912	0.024761	2.426975	-0.564162	-0.827393	-0.248535	-0.348877	10.583950	32.388151	25.595420
47591		-2.841465	2.102471	10.799397	-0.077284	2.850677	-0.718149	-0.810059	-0.243652	-0.363525	10.470959	34.071868	25.466830
47592		-2.855100	2.576249	10.698284	-0.186442	3.359733	-0.917333	-0.792480	-0.239746	-0.356445	10.245716	36.059997	25.256443
47593		-3.302985	2.989342	10.408291	-0.328841	3.890121	-1.149789	-0.770508	-0.245850	-0.369141	9.860783	38.371881	24.928604
47594		-3.820643	3.316536	9.991518	-0.460868	4.409068	-1.404016	-0.736084	-0.246094	-0.368408	9.288487	40.996715	24.442213
47595		-4.719475	3.249610	9.627708	-0.551672	4.935063	-1.655655	-0.715088	-0.244873	-0.375244	8.515509	43.938791	23.762902
47596		-5.965249	3.094440	9.547586	-0.614511	5.419361	-1.908222	-0.671875	-0.235596	-0.369141	7.501567	47.165939	22.832836
47597		-7.340062	2.789336	9.191545	-0.590769	5.802292	-2.112254	-0.645264	-0.232422	-0.371094	6.242111	50.612771	21.608341
47598		-11.428150	1.650957	10.549617	-0.377616	5.962552	-2.058827	-0.604980	-0.243164	-0.364990	4.934784	54.127823	20.228441
47599		-12.581468	0.036672	10.793950	0.202413	5.780947	-1.841292	-0.560791	-0.233154	-0.367676	3.876252	57.512522	18.806599
47600		-11.665439	0.428749	10.375352	0.924166	5.554780	-1.612669	-0.530029	-0.239746	-0.343018	3.191289	60.746148	17.389194
47601		-12.379746	0.108580	9.970546	1.691707	5.212874	-1.413985	-0.496338	-0.241699	-0.337158	2.924422	63.772674	15.990229
47602		-10.950538	1.869610	9.787755	2.162422	4.942034	-1.437417	-0.468994	-0.257568	-0.325195	2.681988	66.641199	14.355910
47603		-10.764869	2.655415	9.835887	2.477856	4.574135	-1.512345	-0.450928	-0.264893	-0.288818	2.238625	69.297226	12.343860
47604		-8.381867	3.373807	8.924630	2.632521	4.231613	-1.717874	-0.419189	-0.270264	-0.277344	1.167258	71.750360	9.605377
47605		-5.115956	4.256687	8.316506	2.521522	4.069569	-2.021423	-0.396484	-0.280029	-0.245117	-1.158655	74.082818	5.658749
47606		-4.282148	5.759940	7.208658	1.945106	4.036987	-2.509903	-0.370361	-0.274902	-0.231201	-6.028114	76.303995	-0.531929
47607		-1.651590	3.959121	5.900560	1.176895	3.653859	-2.829617	-0.346191	-0.273438	-0.206055	-13.988116	78.087690	-9.387482
47608		-10.228825	6.607245	12.223575	0.537017	2.579151	-2.316360	-0.318848	-0.265869	-0.191650	-22.214112	79.082175	-18.094955
47609		-15.085559	5.693162	16.835125	0.277450	0.809541	-1.797339	-0.314697	-0.260254	-0.191162	-27.899152	79.064186	-24.049871
47610		-8.156811	4.958560	13.680172	0.434421	-0.513090	-1.048856	-0.320068	-0.252441	-0.173096	-29.598114	78.516512	-26.038122
47611		-2.724623	4.870136	9.493942	0.319711	-1.360879	-0.528002	-0.325439	-0.258057	-0.179199	-28.845378	77.685383	-25.459817
47612		-2.120969	3.296563	7.849836	0.182510	-1.761481	-0.131841	-0.329590	-0.257324	-0.183350	-26.954840	76.757180	-23.631103
47613		-1.161489	2.424229	6.324953	0.181350	-1.946348	0.263892	-0.341064	-0.265137	-0.192871	-24.298255	75.813088	-21.007806
47614		-0.589593	2.214703	5.270655	0.138068	-2.018198	0.635481	-0.348633	-0.254639	-0.176758	-21.224662	74.886636	-17.915408
47615		-0.521846	1.613198	4.906251	0.054324	-2.057690	0.984949	-0.367188	-0.275391	-0.180176	-17.854591	73.959235	-14.453813
47616		-0.925537	1.020151	5.049392	0.008687	-2.054137	1.301659	-0.375977	-0.263428	-0.183350	-14.330648	73.034117	-10.786456
47617		-1.778927	0.775703	5.408951	-0.026791	-2.089316	1.570324	-0.403564	-0.276367	-0.176758	-10.712957	72.054439	-6.982932
47618		-2.894651	0.631683	6.099401	-0.076019	-2.198434	1.778528	-0.418945	-0.272949	-0.185547	-7.161223	70.967432	-3.194890
47619		-4.228330	0.555267	6.896338	-0.134515	-2.384444	1.919828	-0.431885	-0.268555	-0.174316	-3.797559	69.705326	0.453855
47620		-5.390712	0.445817	7.569370	-0.213091	-2.668794	2.003608	-0.452148	-0.274658	-0.170898	-0.778485	68.222384	3.816264
47621		-5.996574	-0.010748	7.736143	-0.255931	-2.983945	2.016339	-0.474854	-0.262939	-0.168457	1.815729	66.494273	6.780815
47622		-6.057379	-0.466111	7.616005	-0.257450	-3.284832	1.979838	-0.485840	-0.272705	-0.176270	3.949280	64.556945	9.283939
47623		-5.883762	-0.636320	7.206099	-0.224023	-3.514975	1.872314	-0.502930	-0.258545	-0.164307	5.633729	62.451912	11.304361
47624		-5.470512	-0.580712	6.764991	-0.182577	-3.636994	1.731836	-0.513428	-0.262451	-0.164307	6.918448	60.271810	12.884225
47625		-5.360517	-0.094816	6.758368	-0.188516	-3.651898	1.590530	-0.519775	-0.251953	-0.160889	7.877325	58.070675	14.121682
47626		-5.477950	0.393369	6.780624	-0.234368	-3.618895	1.475412	-0.524902	-0.251709	-0.165527	8.574613	55.897473	15.110273
47627		-5.851017	0.939802	6.860183	-0.312521	-3.528911	1.390300	-0.534912	-0.240723	-0.154053	9.075664	53.768154	15.937288
47628		-6.551411	1.323870	7.195682	-0.405671	-3.430886	1.351801	-0.542236	-0.238281	-0.166016	9.433300	51.703378	16.675512
47629		-7.106083	1.568971	7.474974	-0.485025	-3.325525	1.359660	-0.545166	-0.226807	-0.171387	9.709529	49.685613	17.386589
47630		-7.169465	2.035504	7.658541	-0.550723	-3.207760	1.369347	-0.544434	-0.238525	-0.179443	9.918655	47.740835	18.081465
47631		-7.315848	2.458704	8.096779	-0.597110	-3.056287	1.376287	-0.542725	-0.233887	-0.182373	10.082353	45.869857	18.770061
47632		-8.056620	2.945682	8.869424	-0.592078	-2.904956	1.416195	-0.545654	-0.228760	-0.186279	10.248867	44.088337	19.482002
47633		-9.416558	3.608667	9.828170	-0.533340	-2.839558	1.539671	-0.542236	-0.230713	-0.197754	10.485841	42.319553	20.269024
47634		-10.644285	4.414035	10.405866	-0.474056	-2.888254	1.742720	-0.552734	-0.238037	-0.212402	10.811436	40.508667	21.168007
47635		-11.238174	5.114281	10.434674	-0.482100	-2.983439	1.983693	-0.567383	-0.248291	-0.225098	11.189936	38.604185	22.190172
47636		-10.783568	5.156192	9.819593	-0.569807	-3.047066	2.187958	-0.570557	-0.246582	-0.239746	11.547039	36.645452	23.305711
47637		-10.665600	4.712460	9.574609	-0.643493	-3.033609	2.338625	-0.585693	-0.246826	-0.248779	11.869261	34.662175	24.484543
47638		-10.675926	4.028546	9.445552	-0.627543	-2.989739	2.464015	-0.595459	-0.242676	-0.263428	12.193498	32.692492	25.713073
47639		-10.488546	3.859219	9.364514	-0.562828	-2.929758	2.556168	-0.605713	-0.249512	-0.287354	12.535593	30.730176	26.970349
47640		-10.149161	3.757051	9.268202	-0.535616	-2.841897	2.588353	-0.609375	-0.251221	-0.287354	12.853448	28.815773	28.223343
47641		-10.008384	3.629159	9.165383	-0.528818	-2.719452	2.555950	-0.626221	-0.250977	-0.313965	13.122910	26.959882	29.439711
47642		-10.264366	3.489381	9.100947	-0.539670	-2.591084	2.472713	-0.648193	-0.254883	-0.329590	13.324304	25.190588	30.595618
47643		-10.620330	3.118123	8.762076	-0.537923	-2.448981	2.336340	-0.666748	-0.256592	-0.353760	13.460855	23.507695	31.666329
47644		-10.811966	2.484688	8.246350	-0.493397	-2.305043	2.142635	-0.679932	-0.260742	-0.371338	13.550816	21.936860	32.624629
47645		-11.096734	1.908688	8.044564	-0.391044	-2.162415	1.914473	-0.693604	-0.266357	-0.384521	13.629857	20.467873	33.454086
47646		-11.385884	1.481001	7.888238	-0.240621	-2.072151	1.656095	-0.732422	-0.267090	-0.405762	13.724603	19.089990	34.134128
47647		-11.410163	1.141004	7.773342	-0.085919	-2.028956	1.374477	-0.740723	-0.270996	-0.414551	13.840247	17.767460	34.646556
47648		-11.387139	0.895421	7.612395	0.079573	-2.043955	1.092431	-0.762207	-0.279297	-0.425049	13.988346	16.480295	34.986246
47649		-10.783339	0.916644	7.137877	0.207218	-2.060481	0.801921	-0.777832	-0.274414	-0.437256	14.154292	15.218744	35.149401
47650		-9.731399	0.870908	6.476746	0.282330	-2.018784	0.502259	-0.808838	-0.273438	-0.440674	14.316768	14.026915	35.142376
47651		-8.952433	0.657284	5.873972	0.358101	-1.896033	0.220466	-0.817627	-0.288330	-0.443848	14.488610	12.939719	34.988651
47652		-8.500160	0.555620	5.450156	0.444362	-1.731550	0.003598	-0.834717	-0.292969	-0.452881	14.690633	11.979189	34.733437
47653		-8.190029	0.806115	5.259347	0.531818	-1.550728	-0.154036	-0.843506	-0.296631	-0.439453	14.933507	11.140211	34.412917
47654		-8.031713	1.105175	5.169257	0.570949	-1.354874	-0.256925	-0.854004	-0.307373	-0.452637	15.197364	10.428983	34.061496
47655		-8.023830	1.295222	5.282991	0.569918	-1.183357	-0.316805	-0.862793	-0.309814	-0.448486	15.462704	9.821486	33.700089
47656		-7.989770	1.546842	5.350918	0.533462	-1.032897	-0.351437	-0.871826	-0.310303	-0.445801	15.711149	9.305675	33.340831
47657		-7.565711	1.694980	5.225805	0.447867	-0.896473	-0.381314	-0.877930	-0.316895	-0.446533	15.913849	8.870377	32.984810
47658		-7.171018	1.603030	4.994026	0.361953	-0.731662	-0.416455	-0.883545	-0.321777	-0.451416	16.070731	8.533265	32.634613
47659		-6.879692	1.409214	4.855432	0.317299	-0.550029	-0.439338	-0.889893	-0.324219	-0.448975	16.205935	8.300780	32.300314
47660		-6.748340	1.338934	4.922555	0.318868	-0.374412	-0.448293	-0.889404	-0.323975	-0.449219	16.346547	8.166986	31.989131
47661		-6.799336	1.397442	5.195667	0.367812	-0.220540	-0.451367	-0.895752	-0.331055	-0.448730	16.518816	8.120054	31.701203
47662		-4.554806	1.788434	5.913013	0.285106	0.024984	-0.438444	-0.892090	-0.339600	-0.450928	16.650516	8.205627	31.460802
47663		-7.376825	3.527943	0.578713	-0.122224	0.835309	-0.676817	-0.882813	-0.339844	-0.459473	16.547525	8.776834	31.222105
