// General information: 
//  MT Manager version: 2022.2.0 
//  XDA version: 2022.2.0 build 7381 rev 124627 built on 2023-07-19
// Device information: 
//  DeviceId: 00B4C223
//  ProductCode: MTW2-3A7G6
//  Firmware Version: 4.6.0
//  Hardware Version: 2.0.0
// Device settings: 
//  Filter Profile: human(46.1)
//  Option Flags: Orientation Smoother Disabled, Position/Velocity Smoother Disabled, Continuous Zero Rotation Update Disabled, AHS Disabled, ICC Disabled
// Coordinate system: ENU
PacketCounter	SampleTimeFine	Acc_X	Acc_Y	Acc_Z	Gyr_X	Gyr_Y	Gyr_Z	Mag_X	Mag_Y	Mag_Z	Roll	Pitch	Yaw
64487		-4.265595	1.774038	8.840494	-0.001476	0.000361	-0.000255	-1.013184	0.066406	-0.596191	11.478311	25.321970	20.039931
64488		-4.257025	1.795258	8.848731	-0.004539	-0.002704	0.003510	-1.012695	0.065430	-0.589355	11.478204	25.319957	20.040268
64489		-4.244379	1.781841	8.797385	-0.003917	-0.001059	0.002260	-1.007568	0.055176	-0.591064	11.478400	25.319167	20.040119
64490		-4.277132	1.805746	8.841242	-0.003639	0.000451	0.002528	-0.998779	0.060791	-0.597168	11.478724	25.319127	20.040061
64491		-4.265254	1.773092	8.840848	-0.004837	0.002322	0.002541	-1.012207	0.053467	-0.589600	11.478650	25.320203	20.040513
64492		-4.285772	1.783888	8.833099	-0.001885	0.001599	0.003050	-1.008789	0.056885	-0.592773	11.480236	25.320911	20.039444
64493		-4.267160	1.809095	8.819495	-0.006823	0.004826	-0.000736	-1.009766	0.063721	-0.597168	11.478289	25.323767	20.038175
64494		-4.257334	1.793567	8.848925	-0.004261	-0.001194	0.003778	-1.008057	0.058838	-0.589111	11.478491	25.322739	20.039529
64495		-4.255225	1.776016	8.819212	-0.003230	-0.000786	-0.000777	-1.014648	0.058838	-0.601563	11.478289	25.322448	20.037527
64496		-4.267662	1.788814	8.870785	-0.004771	0.000949	0.000755	-1.005859	0.060303	-0.588867	11.477536	25.322922	20.036282
64497		-4.265803	1.771160	8.840971	-0.004493	0.002458	0.001023	-1.006104	0.061523	-0.595703	11.477264	25.324248	20.035808
64498		-4.265900	1.770877	8.840980	-0.003639	0.000451	0.002528	-1.013184	0.058594	-0.587402	11.477578	25.324337	20.036685
64499		-4.286205	1.781693	8.833331	-0.002441	-0.001420	0.002514	-1.010010	0.056641	-0.593750	11.478668	25.323315	20.036647
64500		-4.257273	1.791735	8.849326	-0.008345	0.000026	0.001496	-1.014648	0.063477	-0.591309	11.476048	25.323123	20.034135
64501		-4.255246	1.774085	8.819590	-0.002163	0.000089	0.002782	-1.010498	0.056396	-0.597168	11.477450	25.322918	20.034454
64502		-4.257324	1.791217	8.849406	-0.005247	0.003559	0.005847	-1.014648	0.057861	-0.596924	11.477900	25.324232	20.037196
64503		-4.265854	1.769717	8.841235	-0.000344	-0.000136	0.001518	-1.016357	0.068115	-0.593994	11.479996	25.324044	20.036702
64504		-4.296642	1.776545	8.855216	-0.002163	0.000089	0.002782	-1.015625	0.064941	-0.595215	11.481149	25.323693	20.039255
64505		-4.267233	1.806011	8.820092	-0.005737	-0.000833	0.003523	-1.014648	0.067627	-0.602051	11.480650	25.322885	20.039919
64506		-4.255216	1.773281	8.819767	-0.005459	0.000677	0.003792	-1.009521	0.055664	-0.582764	11.480147	25.322795	20.046100
64507		-4.277508	1.801322	8.841963	-0.002442	-0.001420	0.002514	-1.020020	0.061768	-0.597900	11.481236	25.321772	20.046063
64508		-4.255187	1.772925	8.819852	-0.002739	0.003606	0.001547	-1.009521	0.056152	-0.590332	11.482019	25.323506	20.044802
64509		-4.267163	1.805016	8.820330	-0.005672	-0.002206	0.001737	-1.006104	0.067627	-0.598145	11.481009	25.322131	20.044183
64510		-4.217904	1.804128	8.844004	-0.003017	0.002097	0.001278	-1.006836	0.061523	-0.585693	11.481418	25.323275	20.045313
64511		-4.277646	1.800292	8.842106	-0.005459	0.000677	0.003792	-1.013184	0.057129	-0.595215	11.481231	25.323284	20.046334
64512		-4.257205	1.789001	8.849912	-0.003574	-0.000922	0.000741	-1.012695	0.061279	-0.594971	11.481073	25.322693	20.044324
64513		-4.277479	1.799723	8.842303	-0.003918	-0.001058	0.002259	-1.006592	0.061523	-0.602783	11.481269	25.321902	20.044174
64514		-4.257104	1.788448	8.850072	-0.004837	0.002323	0.002543	-1.006104	0.052002	-0.598633	11.480983	25.323039	20.046664
64515		-4.267122	1.803138	8.820734	-0.006526	-0.000197	0.000233	-1.011963	0.063721	-0.597412	11.479192	25.322963	20.045364
64516		-4.265629	1.766194	8.842048	-0.003296	0.000588	0.001010	-1.017822	0.054443	-0.591309	11.479360	25.323309	20.044149
64517		-4.297988	1.809278	8.834820	-0.005115	0.000813	0.002274	-1.006592	0.063232	-0.600586	11.478974	25.323568	20.044244
64518		-4.256755	1.806328	8.799217	-0.001476	0.000362	-0.000254	-1.015625	0.054199	-0.591553	11.479819	25.323824	20.042568
64519		-4.265710	1.765413	8.842165	-0.005459	0.000677	0.003792	-1.003174	0.054199	-0.589355	11.479632	25.323832	20.043589
64520		-4.277725	1.797541	8.842628	-0.003017	0.002097	0.001279	-1.011475	0.060791	-0.593506	11.480196	25.324902	20.038958
64521		-4.275934	1.779934	8.812763	-0.005969	0.002821	0.000771	-1.008789	0.058350	-0.602295	11.479030	25.326459	20.038372
64522		-4.257690	1.785750	8.850335	-0.004772	0.000950	0.000756	-1.005859	0.056641	-0.601074	11.478270	25.327007	20.038160
64523		-4.288045	1.811359	8.813326	-0.008346	0.000029	0.001497	-1.009277	0.053223	-0.594238	11.475784	25.326913	20.037674
64524		-4.257755	1.784614	8.850533	-0.006248	0.001312	0.000502	-1.012695	0.058594	-0.591064	11.474219	25.327761	20.034316
64525		-4.237006	1.792546	8.807194	-0.003017	0.002097	0.001279	-1.012695	0.059814	-0.592773	11.474841	25.328854	20.033955
64526		-4.249638	1.805285	8.858690	-0.005969	0.002822	0.000771	-1.006836	0.052490	-0.589111	11.473518	25.330313	20.032719
64527		-4.266899	1.761962	8.842279	-0.004659	0.004741	-0.003515	-1.009277	0.058838	-0.585205	11.472067	25.333437	20.029713
64528		-4.269316	1.778693	8.872024	-0.005691	0.004331	0.001040	-1.004150	0.064453	-0.594727	11.471135	25.335778	20.025992
64529		-4.269636	1.778197	8.871969	-0.005625	0.002959	-0.000747	-1.014648	0.059814	-0.588379	11.469770	25.337585	20.024480
64530		-4.269361	1.796892	8.820925	-0.007380	0.001812	-0.001271	-1.005127	0.061768	-0.590332	11.466991	25.338782	20.023848
64531		-4.249094	1.785170	8.828729	-0.007658	0.000303	-0.001540	-1.007813	0.058838	-0.595947	11.464106	25.339188	20.021509
64532		-4.269754	1.795641	8.820990	-0.003593	0.005615	0.000046	-1.003906	0.059814	-0.593506	11.464087	25.342463	20.021317
64533		-4.290857	1.786770	8.864339	-0.007936	-0.001206	-0.001810	-1.006836	0.055664	-0.595459	11.460890	25.342053	20.018620
64534		-4.251724	1.800761	8.858610	-0.003871	0.004106	-0.000223	-1.005615	0.060791	-0.589111	11.460603	25.344556	20.016665
64535		-4.278839	1.772732	8.812805	-0.006314	0.002684	0.002290	-1.012207	0.058105	-0.584717	11.459636	25.345863	20.017005
64536		-4.248305	1.765422	8.798800	-0.005347	0.004468	-0.000477	-1.013428	0.062012	-0.593994	11.458438	25.348418	20.014819
64537		-4.281541	1.788937	8.842526	-0.007167	0.004693	0.000787	-1.010010	0.065186	-0.593018	11.456690	25.351025	20.014479
64538		-4.281795	1.788372	8.842517	-0.006248	0.001313	0.000502	-1.012451	0.058105	-0.590576	11.454976	25.351698	20.015880
64539		-4.273461	1.809355	8.850736	-0.005182	0.002185	0.004062	-1.005859	0.061523	-0.591797	11.455101	25.352523	20.017259
64540		-4.281957	1.787485	8.842618	-0.008347	0.000029	0.001496	-1.005615	0.061035	-0.594971	11.452458	25.352405	20.016488
64541		-4.292285	1.782869	8.864433	-0.002033	-0.002656	-0.000794	-1.009521	0.059326	-0.600098	11.452835	25.351064	20.014240
64542		-4.260941	1.795032	8.799503	-0.005970	0.002822	0.000772	-1.008789	0.070313	-0.591064	11.451495	25.352709	20.014566
64543		-4.261482	1.775149	8.850642	-0.007149	-0.001843	0.001480	-1.001221	0.057617	-0.595215	11.449589	25.351567	20.013833
64544		-4.279784	1.768480	8.813200	-0.005117	0.000813	0.002274	-1.011719	0.057129	-0.593506	11.448975	25.351916	20.016579
64545		-4.290286	1.763933	8.834915	-0.004772	0.000950	0.000756	-1.007324	0.063232	-0.595947	11.448389	25.352424	20.015748
64546		-4.279740	1.767772	8.813363	-0.004197	-0.002568	0.001988	-1.010010	0.059814	-0.587891	11.448104	25.350822	20.015639
64547		-4.292018	1.780590	8.865020	-0.004329	0.000175	0.005565	-1.010742	0.054932	-0.590088	11.449010	25.350347	20.017699
64548		-4.271026	1.788678	8.821788	-0.005395	-0.000696	0.002004	-1.011963	0.065430	-0.590332	11.448206	25.349713	20.015163
64549		-4.289767	1.762705	8.835412	-0.005673	-0.002205	0.001734	-1.007324	0.054932	-0.593994	11.447194	25.348338	20.014542
64550		-4.268835	1.770745	8.792161	-0.003018	0.002097	0.001281	-1.001221	0.062988	-0.589844	11.447653	25.349408	20.014191
64551		-4.260851	1.772455	8.851486	-0.006018	-0.002343	0.003252	-1.011475	0.056152	-0.601563	11.446840	25.347783	20.014497
64552		-4.270647	1.787346	8.822242	-0.003641	0.000450	0.002529	-1.005371	0.059326	-0.596436	11.447193	25.347909	20.014923
64553		-4.270687	1.787221	8.822248	-0.001886	0.001596	0.003053	-1.009521	0.064209	-0.591553	11.448907	25.348519	20.015601
64554		-4.270829	1.787027	8.822218	-0.004494	0.002460	0.001027	-1.006348	0.052490	-0.597412	11.448444	25.349893	20.016430
64555		-4.250521	1.775676	8.829956	-0.003230	-0.000783	-0.000778	-1.006836	0.056641	-0.593506	11.448240	25.349602	20.014428
64556		-4.281497	1.782367	8.843873	-0.001329	0.004614	0.003594	-0.998779	0.055908	-0.601074	11.450516	25.351942	20.012856
64557		-4.310417	1.771913	8.827936	-0.004264	-0.001197	0.003776	-1.008057	0.063721	-0.606445	11.450909	25.350901	20.013632
64558		-4.262834	1.807524	8.830384	-0.005412	0.005841	0.001314	-1.005859	0.063232	-0.595703	11.450196	25.354354	20.015453
64559		-4.290516	1.760031	8.835581	-0.007724	0.001677	0.000249	-1.007813	0.053467	-0.588623	11.447823	25.355328	20.014398
64560		-4.251298	1.774136	8.829892	-0.003641	0.000450	0.002529	-1.006104	0.059326	-0.595215	11.448206	25.355394	20.013513
64561		-4.300990	1.755099	8.857381	-0.005395	-0.000696	0.002004	-1.003174	0.067139	-0.593506	11.447506	25.354836	20.013251
64562		-4.271528	1.784463	8.822399	-0.005395	-0.000696	0.002004	-1.010986	0.064941	-0.593018	11.446593	25.354388	20.015342
64563		-4.283353	1.816525	8.823026	-0.003575	-0.000921	0.000740	-1.007813	0.062012	-0.599854	11.446588	25.353847	20.014265
64564		-4.271464	1.783825	8.822559	-0.004838	0.002322	0.002546	-1.007568	0.054443	-0.593750	11.446290	25.354939	20.017433
64565		-4.292367	1.775177	8.865937	-0.004264	-0.001197	0.003776	-1.004395	0.058350	-0.592285	11.446683	25.353898	20.018209
64566		-4.271387	1.783274	8.822708	-0.005117	0.000814	0.002275	-1.000977	0.061768	-0.594971	11.446211	25.354228	20.015948
64567		-4.271482	1.782938	8.822729	-0.004838	0.002322	0.002546	-1.011719	0.064209	-0.592285	11.446137	25.355304	20.016402
64568		-4.253329	1.788848	8.860253	-0.002739	0.003606	0.001552	-1.006104	0.058350	-0.597900	11.446866	25.357271	20.018333
64569		-4.271888	1.782409	8.822640	-0.004772	0.000952	0.000757	-1.003174	0.053467	-0.597900	11.446280	25.357780	20.017503
64570		-4.263461	1.803482	8.830908	-0.003641	0.000450	0.002529	-1.010742	0.064697	-0.595215	11.446702	25.357965	20.015859
64571		-4.271933	1.781824	8.822736	-0.005117	0.000814	0.002275	-1.004883	0.060303	-0.591797	11.446315	25.358225	20.015955
64572		-4.282321	1.777397	8.844475	-0.002444	-0.001422	0.002512	-1.005371	0.056396	-0.589355	11.447207	25.357217	20.017538
64573		-4.302728	1.788125	8.836819	-0.005970	0.002824	0.000774	-1.002930	0.054199	-0.592041	11.446041	25.358776	20.016955
64574		-4.271928	1.780938	8.822918	-0.004265	-0.001197	0.003776	-1.008301	0.060059	-0.600098	11.446378	25.357820	20.014293
64575		-4.272408	1.761457	8.873974	-0.000410	0.001232	0.003308	-1.000488	0.054199	-0.594971	11.448985	25.358197	20.015083
64576		-4.263426	1.802200	8.831187	-0.003641	0.000450	0.002529	-1.008545	0.052734	-0.592285	11.449386	25.358378	20.014262
64577		-4.281734	1.795828	8.793682	-0.003920	-0.001058	0.002258	-1.009766	0.063232	-0.587891	11.449580	25.357589	20.014111
64578		-4.282079	1.776131	8.844846	-0.004199	-0.002567	0.001987	-1.010742	0.062988	-0.601563	11.449351	25.355928	20.011956
64579		-4.281860	1.775827	8.845013	-0.006085	-0.000971	0.005041	-1.002197	0.067627	-0.592529	11.449050	25.354871	20.013545
64580		-4.271371	1.779707	8.823435	-0.002607	0.000866	-0.002026	-1.007080	0.062012	-0.595703	11.448706	25.355733	20.015022
64581		-4.291815	1.790407	8.815771	-0.005117	0.000814	0.002276	-1.007324	0.054932	-0.591064	11.448319	25.355992	20.015119
64582		-4.281830	1.774885	8.845217	-0.004265	-0.001197	0.003776	-1.005859	0.056152	-0.596680	11.448592	25.354986	20.015012
64583		-4.279713	1.757646	8.815401	-0.000689	-0.000277	0.003037	-1.018799	0.056152	-0.597168	11.450886	25.354547	20.015444
64584		-4.271121	1.778941	8.823711	-0.004265	-0.001197	0.003776	-1.005615	0.051758	-0.594727	11.451186	25.353460	20.014435
64585		-4.283462	1.791759	8.875341	-0.002165	0.000087	0.002783	-1.008789	0.062256	-0.593018	11.452587	25.353253	20.014755
64586		-4.260468	1.782839	8.802210	-0.003920	-0.001058	0.002258	-1.006348	0.057373	-0.596436	11.452684	25.352509	20.012963
64587		-4.262304	1.799770	8.832224	-0.004265	-0.001197	0.003776	-1.013916	0.063232	-0.596924	11.453077	25.351468	20.013738
64588		-4.270601	1.778243	8.824103	-0.002444	-0.001422	0.002512	-1.004639	0.070557	-0.590332	11.453999	25.350445	20.014470
64589		-4.270367	1.778116	8.824242	-0.002723	-0.002931	0.002240	-1.005127	0.062500	-0.590820	11.454773	25.348605	20.014073
64590		-4.270336	1.777797	8.824322	-0.005969	0.002826	0.000776	-1.010254	0.050781	-0.588867	11.453349	25.350214	20.017461
64591		-4.280299	1.792675	8.795024	-0.003920	-0.001058	0.002258	-1.008301	0.056641	-0.590820	11.453542	25.349424	20.017311
64592		-4.270355	1.777106	8.824451	-0.004772	0.000953	0.000758	-1.008301	0.067871	-0.590088	11.452932	25.349886	20.012067
64593		-4.280781	1.772580	8.846187	-0.003920	-0.001058	0.002258	-1.010010	0.064697	-0.593018	11.453125	25.349096	20.011916
64594		-4.270190	1.776538	8.824645	-0.003920	-0.001058	0.002258	-1.002441	0.064209	-0.601563	11.453059	25.348262	20.015625
64595		-4.271997	1.793406	8.854688	-0.003855	-0.002428	0.000468	-1.014160	0.053223	-0.591797	11.452739	25.346906	20.014190
64596		-4.241102	1.786389	8.840790	-0.001886	0.001595	0.003055	-1.012207	0.071289	-0.592041	11.454324	25.347569	20.014706
64597		-4.290281	1.786749	8.817260	-0.008627	-0.001474	0.001226	-1.013428	0.052490	-0.589600	11.451523	25.346663	20.013862
64598		-4.249318	1.764227	8.832830	-0.002724	-0.002931	0.002240	-1.006104	0.058594	-0.595947	11.452118	25.344687	20.014389
64599		-4.279927	1.770866	8.846943	-0.003920	-0.001058	0.002258	-1.013184	0.056885	-0.592285	11.452312	25.343897	20.014239
64600		-4.279248	1.790037	8.796072	-0.005741	-0.000833	0.003523	-1.012695	0.070557	-0.598633	11.451704	25.343084	20.013729
64601		-4.260623	1.795900	8.833823	-0.003069	-0.003069	0.003758	-1.000000	0.066162	-0.593018	11.452676	25.340994	20.014257
64602		-4.260425	1.795632	8.833973	-0.005052	-0.000555	0.000487	-1.007324	0.067139	-0.592041	11.451478	25.340769	20.018774
64603		-4.258497	1.778117	8.804119	-0.004838	0.002324	0.002549	-1.001221	0.054688	-0.595459	11.451406	25.341845	20.019231
64604		-4.260612	1.794942	8.834023	-0.002607	0.000867	-0.002025	-1.011963	0.062256	-0.591309	11.451164	25.342742	20.017058
64605		-4.271009	1.790247	8.855803	-0.009317	-0.001751	0.004264	-1.005371	0.062256	-0.595215	11.448761	25.341335	20.018067
64606		-4.268829	1.772679	8.826080	-0.004265	-0.001197	0.003777	-1.010010	0.056396	-0.602051	11.448975	25.340293	20.020196
64607		-4.268741	1.772518	8.826155	-0.001821	0.000225	0.001265	-1.006104	0.060547	-0.594238	11.450177	25.340337	20.019591
64608		-4.280625	1.804769	8.826762	-0.003641	0.000451	0.002530	-1.012451	0.062744	-0.594238	11.450564	25.340442	20.019641
64609		-4.279189	1.767926	8.847888	-0.003641	0.000451	0.002530	-1.014160	0.060791	-0.597412	11.451071	25.340468	20.019850
64610		-4.260267	1.793268	8.834529	-0.003297	0.000590	0.001012	-1.006592	0.063477	-0.599121	11.451202	25.340662	20.020894
64611		-4.268697	1.771665	8.826347	-0.003921	-0.001058	0.002258	-1.011719	0.058350	-0.588867	11.451395	25.339872	20.020745
64612		-4.260127	1.792804	8.834691	-0.003986	0.000312	0.004049	-1.009521	0.060303	-0.589355	11.451948	25.339648	20.022504
64613		-4.261967	1.809631	8.864730	-0.005676	-0.002202	0.001733	-1.006348	0.058350	-0.593994	11.450933	25.338275	20.021884
64614		-4.289188	1.762383	8.870027	-0.004265	-0.001197	0.003777	-1.001953	0.059326	-0.596924	11.451209	25.337240	20.021773
64615		-4.270096	1.787776	8.856743	-0.002100	-0.001283	0.000993	-1.010010	0.066650	-0.593018	11.452097	25.336468	20.020809
64616		-4.269415	1.807034	8.805874	-0.005741	-0.000832	0.003524	-1.005371	0.059814	-0.588135	11.451408	25.335748	20.023298
64617		-4.288286	1.781230	8.819347	-0.001821	0.000225	0.001265	-1.004639	0.060059	-0.593506	11.452609	25.335791	20.022693
64618		-4.279797	1.802420	8.827644	-0.003641	0.000451	0.002531	-1.004150	0.060547	-0.594238	11.452996	25.335884	20.021950
64619		-4.267802	1.769686	8.827177	-0.005677	-0.002201	0.001733	-1.006348	0.056885	-0.595703	11.451982	25.334512	20.021330
64620		-4.248725	1.794957	8.813914	-0.003986	0.000312	0.004049	-1.007324	0.061768	-0.591309	11.452580	25.334398	20.021640
64621		-4.298508	1.776063	8.841304	-0.003706	0.001820	0.004322	-1.004639	0.062500	-0.589355	11.453599	25.334990	20.023134
64622		-4.267478	1.769148	8.827442	-0.001873	-0.004943	0.003738	-1.012451	0.057617	-0.590820	11.454991	25.331881	20.023893
64623		-4.289575	1.797210	8.849826	-0.003297	0.000590	0.001013	-1.009277	0.059570	-0.591553	11.455299	25.332159	20.023177
64624		-4.258686	1.790136	8.835926	-0.004266	-0.001197	0.003777	-1.012207	0.055176	-0.590820	11.455590	25.331048	20.022779
64625		-4.278959	1.800991	8.828341	-0.003641	0.000451	0.002531	-1.009521	0.052979	-0.594482	11.456097	25.331074	20.022989
64626		-4.258509	1.789759	8.836088	-0.002445	-0.001422	0.002512	-1.005371	0.061523	-0.590576	11.457159	25.330007	20.019332
64627		-4.278653	1.800579	8.828573	-0.006022	-0.002340	0.003252	-1.009033	0.059326	-0.589355	11.456343	25.328384	20.019638
64628		-4.266528	1.768054	8.828120	0.000507	-0.002152	0.003017	-1.010010	0.072021	-0.590820	11.459087	25.326899	20.019522
64629		-4.257828	1.789376	8.836494	-0.004266	-0.001196	0.003777	-1.004150	0.059570	-0.592041	11.459479	25.325859	20.020298
64630		-4.286407	1.778961	8.820718	-0.003414	-0.003209	0.005276	-0.999756	0.056885	-0.591553	11.460420	25.323536	20.024944
64631		-4.267797	1.784925	8.858426	-0.002165	0.000086	0.002784	-1.007324	0.063721	-0.601807	11.461820	25.323328	20.025266
64632		-4.286072	1.778816	8.820910	-0.002790	-0.001561	0.004030	-1.011230	0.057129	-0.586426	11.462969	25.322232	20.026632
64633		-4.268870	1.821424	8.837569	-0.002790	-0.001561	0.004030	-1.008789	0.057129	-0.584473	11.464253	25.320957	20.027519
64634		-4.236391	1.777817	8.844776	-0.002725	-0.002930	0.002239	-1.008545	0.059082	-0.595947	11.464967	25.319007	20.024074
64635		-4.276840	1.799988	8.829573	0.000507	-0.002152	0.003017	-1.001953	0.062744	-0.587158	11.467839	25.317517	20.024258
64636		-4.303435	1.772721	8.783840	-0.001594	-0.003435	0.004010	-1.000488	0.064941	-0.590576	11.469566	25.315268	20.025135
64637		-4.255730	1.789022	8.837576	-0.001874	-0.004943	0.003738	-1.011719	0.064209	-0.587646	11.471115	25.312129	20.025414
64638		-4.296174	1.811040	8.822413	-0.005806	0.000538	0.005317	-1.007568	0.061768	-0.593750	11.470928	25.311908	20.029463
64639		-4.255372	1.788783	8.837797	-0.001034	-0.000418	0.004556	-1.001953	0.063965	-0.595703	11.473420	25.311215	20.030821
64640		-4.265133	1.804095	8.808551	-0.002445	-0.001422	0.002512	-1.011475	0.051025	-0.589355	11.474330	25.310318	20.032608
64641		-4.224290	1.781852	8.823950	-0.002510	-0.000053	0.004303	-1.013916	0.062744	-0.587891	11.475928	25.309859	20.033855
64642		-4.266891	1.821019	8.838609	-0.003985	0.000312	0.004051	-1.006104	0.060547	-0.589355	11.476574	25.309499	20.032529
64643		-4.273323	1.782505	8.800482	-0.000970	-0.001787	0.002764	-1.014160	0.063477	-0.596191	11.478553	25.308242	20.032602
64644		-4.244333	1.792680	8.816493	-0.003985	0.000313	0.004051	-1.006836	0.060791	-0.594238	11.479099	25.307990	20.034975
64645		-4.242856	1.756040	8.837567	0.000787	-0.000644	0.003290	-1.003418	0.055420	-0.590088	11.482285	25.307315	20.035518
64646		-4.276888	1.816760	8.860488	-0.002854	-0.000192	0.005822	-1.014160	0.061768	-0.595215	11.483999	25.306702	20.036239
64647		-4.243970	1.792811	8.816641	-0.000970	-0.001787	0.002764	-1.010986	0.055420	-0.591797	11.485978	25.305445	20.036311
64648		-4.283118	1.778228	8.822464	-0.003921	-0.001056	0.002259	-1.013672	0.061523	-0.591797	11.486069	25.304582	20.035557
64649		-4.282985	1.777979	8.822579	-0.003921	-0.001056	0.002260	-1.001465	0.067139	-0.594482	11.486262	25.303793	20.035408
64650		-4.274320	1.799080	8.830978	-0.004266	-0.001195	0.003778	-1.009033	0.057617	-0.592041	11.486452	25.302793	20.038863
64651		-4.253902	1.787877	8.838688	-0.002229	0.001455	0.004576	-1.015625	0.058594	-0.594482	11.488365	25.303150	20.040470
64652		-4.274129	1.798845	8.831118	-0.004547	-0.002703	0.003505	-1.009766	0.067139	-0.593750	11.488351	25.301227	20.039973
64653		-4.244857	1.808951	8.847275	-0.001876	-0.004943	0.003737	-1.015869	0.050781	-0.589600	11.489898	25.298087	20.040251
64654		-4.261679	1.766322	8.830808	-0.000064	0.001368	0.001792	-1.013428	0.062500	-0.589600	11.492206	25.298617	20.039466
64655		-4.262940	1.802909	8.809855	-0.004891	-0.002843	0.005024	-1.010742	0.060059	-0.594482	11.492480	25.296509	20.040808
64656		-4.271795	1.761886	8.852664	-0.002510	-0.000053	0.004304	-1.010010	0.058105	-0.595947	11.493934	25.295975	20.042856
64657		-4.252727	1.787481	8.839333	-0.001034	-0.000419	0.004556	-0.999756	0.061768	-0.592041	11.496425	25.295282	20.044214
64658		-4.272897	1.798666	8.831751	-0.001315	-0.001927	0.004283	-1.007813	0.063477	-0.588379	11.498483	25.293907	20.045238
64659		-4.293565	1.790072	8.875198	-0.003858	-0.002424	0.000468	-1.007080	0.066650	-0.599854	11.498163	25.292555	20.043803
64660		-4.243721	1.808586	8.847894	-0.001884	0.001595	0.003058	-1.012207	0.068359	-0.597412	11.499663	25.293225	20.047772
64661		-4.261931	1.802468	8.810434	-0.005517	-0.004490	0.006270	-1.001465	0.059814	-0.592285	11.499820	25.290050	20.049679
64662		-4.282274	1.813253	8.802852	-0.005405	0.005849	0.001329	-1.010742	0.058350	-0.598633	11.499093	25.293332	20.052527
64663		-4.243570	1.807691	8.848150	-0.005959	-0.003705	0.001461	-1.019531	0.053711	-0.593994	11.497763	25.291147	20.051548
64664		-4.251361	1.805607	8.789063	-0.003641	0.000453	0.002533	-1.004150	0.059082	-0.591553	11.498215	25.291082	20.050496
64665		-4.270311	1.779903	8.802470	-0.002165	0.000087	0.002785	-1.010010	0.066162	-0.595459	11.499615	25.290875	20.050818
64666		-4.274080	1.813915	8.862426	-0.003922	-0.001055	0.002260	-1.006836	0.056641	-0.597656	11.499646	25.290156	20.052205
64667		-4.263552	1.817797	8.840883	-0.004709	-0.000409	-0.001030	-1.011230	0.066162	-0.589600	11.498549	25.290106	20.050095
64668		-4.280634	1.774903	8.824338	-0.001884	0.001595	0.003059	-1.007080	0.060303	-0.592773	11.500125	25.290737	20.051726
64669		-4.241262	1.789124	8.818693	-0.007907	-0.000742	0.006312	-1.011475	0.054199	-0.592041	11.499125	25.289662	20.054133
64670		-4.262132	1.780216	8.862100	-0.004427	0.001099	-0.000756	-1.012695	0.058350	-0.593262	11.498284	25.290437	20.050577
64671		-4.243143	1.805441	8.848814	-0.003922	-0.001055	0.002260	-1.004883	0.058594	-0.595947	11.498477	25.289648	20.050429
64672		-4.292234	1.806094	8.825344	-0.003922	-0.001055	0.002260	-1.007813	0.058594	-0.590088	11.498581	25.288906	20.049609
64673		-4.232505	1.809129	8.827365	-0.005117	0.000819	0.002281	-1.006348	0.068115	-0.586670	11.498196	25.289167	20.049710
64674		-4.292195	1.805509	8.825483	-0.003641	0.000453	0.002533	-1.004150	0.055420	-0.599854	11.498543	25.289199	20.051005
64675		-4.290303	1.788134	8.795581	-0.004772	0.000959	0.000763	-0.996826	0.059082	-0.593506	11.497959	25.289713	20.050181
64676		-4.253405	1.799803	8.870840	-0.002446	-0.001421	0.002512	-1.012207	0.069580	-0.595703	11.498985	25.288977	20.048450
64677		-4.263037	1.814823	8.841742	-0.007781	-0.003477	0.002728	-1.013184	0.067139	-0.584717	11.496960	25.286776	20.048286
64678		-4.291792	1.804125	8.825962	-0.004428	0.001100	-0.000756	-1.010498	0.055664	-0.591553	11.495917	25.287413	20.051395
64679		-4.252553	1.818167	8.820292	-0.004772	0.000960	0.000763	-1.009277	0.058838	-0.599365	11.495334	25.287927	20.050571
64680		-4.261153	1.796462	8.812037	-0.004772	0.000960	0.000763	-1.004150	0.066162	-0.597168	11.494690	25.288472	20.048551
64681		-4.251290	1.780793	8.841374	-0.003641	0.000453	0.002534	-1.008545	0.051025	-0.584229	11.495197	25.288499	20.048763
64682		-4.263077	1.812908	8.842116	-0.005053	-0.000548	0.000489	-1.023438	0.061279	-0.582764	11.494228	25.288257	20.045990
64683		-4.282111	1.786969	8.855513	-0.004836	0.002327	0.002556	-1.008301	0.052490	-0.593750	11.494157	25.289334	20.046453
64684		-4.251277	1.779674	8.841606	-0.007500	-0.001969	0.003001	-1.013184	0.063477	-0.587402	11.492403	25.287741	20.044407
64685		-4.242651	1.800649	8.850026	-0.001476	0.000367	-0.000252	-1.009277	0.069580	-0.590332	11.493408	25.288037	20.042879
64686		-4.263226	1.811630	8.842306	-0.002453	0.005116	0.001837	-1.008057	0.061035	-0.594238	11.494445	25.290671	20.046563
64687		-4.289173	1.747535	8.817242	-0.002734	0.003609	0.001563	-1.018555	0.058350	-0.595215	11.495385	25.292581	20.046571
64688		-4.261901	1.794152	8.812146	-0.004491	0.002468	0.001037	-1.011963	0.062500	-0.600098	11.495011	25.293855	20.046490
64689		-4.262069	1.794064	8.812082	-0.000472	0.002595	0.005104	-1.006104	0.058105	-0.591553	11.498131	25.294790	20.048569
64690		-4.291525	1.764436	8.847023	0.000786	-0.000647	0.003289	-1.000732	0.057373	-0.598389	11.501201	25.294175	20.049691
64691		-4.292039	1.745351	8.897877	0.004679	0.002214	0.010943	-1.000732	0.061279	-0.589111	11.508801	25.294230	20.055347
64692		-4.284702	1.804627	8.885024	0.013597	-0.001354	0.010662	-1.007813	0.057861	-0.598145	11.521156	25.292547	20.059407
64693		-4.361621	1.741373	8.917150	0.022765	-0.001607	0.020569	-1.008789	0.057617	-0.595215	11.541465	25.289351	20.070556
64694		-4.254327	1.839955	8.849335	0.028541	-0.000338	0.025163	-1.007324	0.060547	-0.590820	11.566290	25.286422	20.084095
64695		-4.341666	1.773536	8.902958	0.022356	-0.000376	0.023882	-1.006104	0.057617	-0.586182	11.587307	25.283529	20.097454
64696		-4.401489	1.735043	9.002659	0.034635	-0.010190	0.039510	-1.006836	0.059326	-0.589600	11.618877	25.273349	20.118174
64697		-4.412319	1.663889	8.926383	0.045154	-0.027678	0.055297	-1.015381	0.062256	-0.591064	11.659780	25.251490	20.147531
64698		-4.342835	1.749052	8.946292	0.049952	-0.047798	0.064706	-1.018311	0.049561	-0.593018	11.704659	25.217187	20.180692
64699		-4.343346	1.662239	8.981348	0.060272	-0.050364	0.066483	-1.008789	0.057617	-0.592041	11.755880	25.181256	20.214010
64700		-4.241423	1.893390	8.741389	0.068982	-0.062891	0.072962	-1.012451	0.046387	-0.599854	11.813031	25.137477	20.247090
64701		-4.317617	1.888496	8.865223	0.061096	-0.058886	0.068696	-1.012939	0.054688	-0.595459	11.864753	25.096449	20.280575
64702		-4.126770	1.834925	8.833480	0.060222	-0.069930	0.068590	-1.006836	0.056641	-0.594238	11.915282	25.049291	20.309362
64703		-4.039652	1.853871	8.793252	0.056342	-0.053192	0.058878	-1.012207	0.063965	-0.588135	11.961936	25.012567	20.337415
64704		-4.260675	1.943170	8.893517	0.052049	-0.050126	0.043946	-1.011475	0.058350	-0.592529	12.002205	24.979401	20.358050
64705		-4.177660	1.831560	8.827495	0.050792	-0.055243	0.036544	-1.017334	0.050049	-0.588135	12.039677	24.944156	20.371954
64706		-4.141607	1.830087	8.814733	0.048417	-0.053327	0.026673	-1.013428	0.056152	-0.596191	12.073234	24.911155	20.378471
64707		-4.140897	1.925622	8.803294	0.046850	-0.045518	0.019391	-1.013916	0.050781	-0.587158	12.104492	24.883402	20.383013
64708		-4.192024	1.856576	8.764152	0.050551	-0.040831	0.014363	-1.020752	0.055664	-0.591309	12.136744	24.858926	20.383738
64709		-4.202868	1.928633	8.825137	0.048839	-0.043340	0.012063	-1.014893	0.058105	-0.589844	12.167343	24.833272	20.384010
64710		-4.205128	1.839305	8.860451	0.053887	-0.042804	0.011564	-1.020996	0.046631	-0.593018	12.200590	24.807938	20.384690
64711		-4.211344	1.859828	8.831776	0.057244	-0.038253	0.008052	-1.015869	0.059082	-0.588623	12.235239	24.785618	20.383135
64712		-4.143723	1.796643	8.795545	0.055077	-0.040001	0.000939	-1.020264	0.055420	-0.586182	12.266614	24.763162	20.376050
64713		-4.078552	1.989102	8.749942	0.054363	-0.032352	0.005061	-1.021973	0.054199	-0.595215	12.299161	24.744513	20.373415
64714		-4.147868	1.985368	8.851338	0.049908	-0.023336	0.005385	-1.022461	0.054932	-0.588135	12.329605	24.730801	20.372678
64715		-4.263183	1.967203	8.818861	0.052559	-0.030238	0.016252	-1.020996	0.049316	-0.584473	12.364115	24.711966	20.377203
64716		-4.132421	1.816229	8.796839	0.044948	-0.031275	0.012957	-1.020264	0.050049	-0.585938	12.393253	24.692844	20.378632
64717		-4.104456	1.921170	8.799767	0.045913	-0.029507	0.010179	-1.011230	0.049561	-0.593262	12.422422	24.675161	20.379492
64718		-4.167085	2.030436	8.815348	0.041341	-0.024261	0.014786	-1.022461	0.054199	-0.588135	12.450372	24.659918	20.382686
64719		-4.081797	1.991008	8.764944	0.035325	-0.021902	0.007449	-1.024170	0.049316	-0.587158	12.473196	24.646827	20.382881
64720		-4.065116	2.109783	8.737933	0.028628	-0.010017	0.014123	-1.013672	0.054443	-0.593018	12.494454	24.639453	20.388497
64721		-4.016076	2.147852	8.739330	0.020993	-0.003154	0.011885	-1.016846	0.053467	-0.589355	12.511267	24.636298	20.393971
64722		-4.111025	2.042570	8.757131	0.011884	0.004077	0.009397	-1.022705	0.051270	-0.586426	12.522488	24.637603	20.400508
64723		-4.189110	1.960374	8.841959	0.006279	0.007060	0.008658	-1.018311	0.043701	-0.583008	12.530624	24.640560	20.405390
64724		-4.218592	1.932447	8.877331	0.008476	0.000923	0.014715	-1.020508	0.052002	-0.578857	12.541188	24.639266	20.410842
64725		-4.141421	2.034646	8.821905	0.005937	-0.012141	0.020489	-1.022949	0.039307	-0.589111	12.551067	24.630011	20.420376
64726		-4.149138	2.014400	8.814240	0.004756	-0.005622	0.009864	-1.015381	0.056396	-0.590820	12.557907	24.625632	20.421024
64727		-4.166234	1.972487	8.798464	0.004202	-0.002111	0.008614	-1.023682	0.045654	-0.583984	12.564318	24.623463	20.424623
64728		-4.165602	1.954229	8.849939	0.001154	-0.013043	0.011355	-1.019043	0.053467	-0.594482	12.568961	24.614828	20.428305
64729		-4.094079	1.980111	8.778742	-0.002928	-0.011808	0.009083	-1.019287	0.052979	-0.577881	12.570851	24.607177	20.430862
64730		-4.175817	2.023408	8.829926	-0.007301	-0.012081	0.006549	-1.017578	0.050781	-0.590820	12.569442	24.599675	20.432729
64731		-4.163035	1.990358	8.830311	-0.009018	-0.014599	0.004255	-1.019775	0.053467	-0.588867	12.566447	24.591066	20.431935
64732		-4.112178	1.988612	8.854198	-0.011168	-0.014483	0.007051	-1.020996	0.046875	-0.581787	12.562829	24.582217	20.433578
64733		-4.128449	1.963940	8.787899	-0.013993	-0.009979	0.002256	-1.014404	0.055176	-0.590088	12.556737	24.576440	20.432188
64734		-4.129067	1.980321	8.818267	-0.011215	-0.008460	-0.001801	-1.013428	0.057373	-0.580322	12.551200	24.572048	20.428296
64735		-4.119496	2.000208	8.826869	-0.019164	-0.009626	-0.003570	-1.017578	0.044434	-0.586914	12.540676	24.567193	20.423373
64736		-4.197445	1.970509	8.840303	-0.016170	-0.011744	-0.004855	-1.024902	0.051270	-0.584961	12.531346	24.561369	20.416935
64737		-4.165917	1.961244	8.826926	-0.022694	-0.011900	-0.004589	-1.022705	0.050293	-0.591797	12.518412	24.555368	20.411078
64738		-4.125527	1.972812	8.821607	-0.025210	-0.013791	-0.010178	-1.018066	0.056885	-0.592773	12.502417	24.548933	20.401054
64739		-3.990900	1.908086	8.765166	-0.026518	-0.011033	-0.016504	-1.011230	0.051514	-0.594238	12.484300	24.544890	20.387992
64740		-4.137358	2.035661	8.802408	-0.031131	0.000242	-0.020744	-1.019775	0.049561	-0.590576	12.462956	24.547858	20.375867
64741		-4.071382	1.909174	8.757798	-0.038917	0.001467	-0.028586	-1.023193	0.050537	-0.588867	12.435353	24.552292	20.357073
64742		-4.056023	1.983411	8.752952	-0.045080	0.007966	-0.030561	-1.017578	0.049805	-0.589600	12.404012	24.560595	20.337163
64743		-4.129474	1.988260	8.803673	-0.054294	0.022616	-0.040089	-1.016846	0.053711	-0.591309	12.365834	24.578259	20.314141
64744		-4.217276	1.821437	8.953438	-0.051467	0.018111	-0.035297	-1.025391	0.051270	-0.588379	12.330157	24.592889	20.293526
64745		-4.155919	2.004291	8.826595	-0.058863	0.013434	-0.035815	-1.011230	0.056641	-0.594971	12.289920	24.604864	20.271871
64746		-4.161870	2.087592	8.814536	-0.064956	0.010657	-0.040637	-1.020996	0.048584	-0.583496	12.244678	24.615920	20.247839
64747		-4.148901	2.012244	8.755546	-0.079627	0.005075	-0.045968	-1.016846	0.051758	-0.588623	12.189456	24.624413	20.218789
64748		-4.166630	1.904323	8.813282	-0.091334	0.005286	-0.051512	-1.024658	0.057373	-0.593994	12.126081	24.633656	20.184575
64749		-4.188456	1.885697	8.858495	-0.098106	0.002252	-0.053284	-1.017334	0.054932	-0.583496	12.058218	24.641388	20.150620
64750		-4.208311	1.849238	8.874117	-0.101366	-0.005032	-0.053326	-1.023438	0.056885	-0.591553	11.987956	24.644965	20.116599
64751		-4.096891	1.786385	8.891693	-0.097562	-0.001237	-0.052018	-1.017334	0.051514	-0.586182	11.920525	24.650517	20.082946
64752		-4.098362	1.756615	8.944151	-0.086597	0.010896	-0.052930	-1.019043	0.061279	-0.596680	11.859722	24.662921	20.049811
64753		-4.147574	1.877092	8.947640	-0.075633	0.023030	-0.053839	-1.022461	0.058838	-0.594727	11.805675	24.682230	20.018152
64754		-4.160974	1.883964	8.918676	-0.065690	0.028224	-0.049489	-1.014893	0.056152	-0.589600	11.758539	24.703942	19.992420
64755		-4.166035	1.893375	8.948622	-0.060643	0.028772	-0.049995	-1.015869	0.051270	-0.593018	11.714340	24.725976	19.963825
64756		-4.240775	1.934841	8.897003	-0.060523	0.027857	-0.043658	-1.017334	0.055176	-0.592529	11.671740	24.746832	19.937859
64757		-4.170873	1.881095	8.867765	-0.064335	0.024081	-0.044953	-1.010010	0.064697	-0.587646	11.626442	24.765610	19.911735
64758		-4.111009	1.823257	8.860309	-0.059964	0.024351	-0.042418	-1.015381	0.056885	-0.591553	11.584179	24.784322	19.888780
64759		-4.222118	1.738151	8.958424	-0.053441	0.031067	-0.043358	-1.014404	0.057861	-0.587158	11.545874	24.806803	19.864488
64760		-4.134983	1.747885	8.894314	-0.049975	0.028183	-0.039847	-1.010254	0.056641	-0.584717	11.510222	24.827295	19.841883
64761		-4.189430	1.779582	8.849772	-0.046352	0.034269	-0.043067	-1.015137	0.063965	-0.593506	11.476191	24.851514	19.818134
64762		-4.263074	1.746548	8.920381	-0.044185	0.029453	-0.035269	-1.013916	0.062500	-0.582520	11.445042	24.872199	19.799721
64763		-4.207597	1.820781	8.798849	-0.044237	0.024288	-0.032799	-1.016357	0.054199	-0.593018	11.414340	24.889622	19.781042
64764		-4.237949	1.729049	8.905547	-0.043328	0.020912	-0.033096	-1.018311	0.062500	-0.589600	11.383816	24.905165	19.761533
64765		-4.241790	1.760845	8.884580	-0.040594	0.019101	-0.024757	-1.016113	0.053955	-0.594238	11.357008	24.918749	19.747164
64766		-4.201038	1.717110	8.869487	-0.041661	0.013502	-0.017733	-1.010254	0.054443	-0.589355	11.331040	24.928371	19.736460
64767		-4.199027	1.824584	8.866285	-0.039679	0.017513	-0.015141	-1.019531	0.052979	-0.582275	11.307172	24.939970	19.727836
64768		-4.210842	1.835833	8.837203	-0.042060	0.014725	-0.014415	-1.018066	0.066406	-0.593506	11.281994	24.949884	19.716164
64769		-4.200568	1.798961	8.836455	-0.045017	0.015461	-0.014903	-1.009521	0.064209	-0.583496	11.255016	24.960296	19.707421
64770		-4.212379	1.789870	8.858385	-0.047399	0.012673	-0.014178	-1.016357	0.056396	-0.596436	11.226536	24.969052	19.701663
64771		-4.264798	1.802922	8.865542	-0.048361	0.010879	-0.011412	-1.005127	0.057129	-0.597412	11.198310	24.976493	19.694509
64772		-4.202941	1.728068	8.909076	-0.043755	0.005700	-0.016061	-1.012939	0.056152	-0.590820	11.171199	24.981707	19.682910
64773		-4.222606	1.698193	8.922772	-0.038361	0.008171	-0.008171	-1.008789	0.063232	-0.584229	11.149406	24.987260	19.677427
64774		-4.204807	1.720251	8.909708	-0.033485	0.011035	-0.013201	-1.010498	0.067383	-0.583740	11.129175	24.995027	19.668529
64775		-4.226196	1.747993	8.851585	-0.030531	0.010304	-0.012710	-1.014404	0.054199	-0.590820	11.110785	25.002277	19.660485
64776		-4.179713	1.780827	8.854182	-0.026734	0.014089	-0.011386	-1.008789	0.066406	-0.589111	11.095037	25.011509	19.653458
64777		-4.080715	1.779196	8.819672	-0.026010	0.019562	-0.016872	-1.010254	0.059326	-0.587891	11.078617	25.024420	19.643951
64778		-4.073145	1.780501	8.797368	-0.028038	0.035172	-0.021423	-1.015381	0.066895	-0.596191	11.060533	25.046677	19.634351
64779		-4.203689	1.692073	8.855761	-0.022958	0.047445	-0.025023	-1.011230	0.065918	-0.591797	11.045138	25.076157	19.623153
64780		-4.270101	1.682159	8.933327	-0.022961	0.047449	-0.025019	-1.009277	0.061523	-0.587402	11.029560	25.105655	19.614994
64781		-4.234974	1.733936	8.824423	-0.023366	0.048662	-0.021699	-1.015625	0.065674	-0.592773	11.014850	25.135450	19.605985
64782		-4.238422	1.674043	8.894106	-0.021269	0.049954	-0.022689	-1.007080	0.063232	-0.595459	11.001025	25.166057	19.597536
64783		-4.237872	1.786536	8.808676	-0.016858	0.055398	-0.022592	-1.008789	0.054199	-0.600586	10.990137	25.199734	19.588767
64784		-4.195629	1.819698	8.809456	-0.023630	0.058887	-0.025058	-1.011230	0.061768	-0.593994	10.974844	25.235804	19.578129
64785		-4.212175	1.791586	8.879776	-0.031089	0.062080	-0.024489	-1.013672	0.062988	-0.599121	10.955622	25.273442	19.568959
64786		-4.197351	1.796768	8.834484	-0.032228	0.062600	-0.026248	-1.011963	0.068115	-0.597168	10.935196	25.311562	19.559760
64787		-4.183062	1.781588	8.839915	-0.034567	0.064994	-0.027973	-1.012207	0.060303	-0.594971	10.913177	25.351212	19.548737
64788		-4.207062	1.714617	8.871213	-0.035587	0.076278	-0.026490	-1.003418	0.063477	-0.588135	10.891412	25.397017	19.541739
64789		-4.312311	1.634979	8.943223	-0.031117	0.080375	-0.028174	-1.006104	0.063477	-0.597900	10.872074	25.445335	19.532392
64790		-4.188005	1.812243	8.849139	-0.026036	0.081332	-0.020537	-1.006592	0.066162	-0.597168	10.857636	25.493443	19.528435
64791		-4.343240	1.734506	8.896723	-0.020972	0.093633	-0.024082	-1.004883	0.061035	-0.594238	10.845862	25.548776	19.523188
64792		-4.255198	1.766965	8.919953	-0.018786	0.093966	-0.018739	-1.007324	0.055908	-0.593018	10.836693	25.603764	19.522187
64793		-4.342158	1.755450	8.876035	-0.011665	0.102377	-0.020823	-1.004883	0.061035	-0.599854	10.831563	25.663666	19.519995
64794		-4.299561	1.865150	8.893116	0.008190	0.104104	-0.029327	-1.001709	0.062744	-0.604004	10.835595	25.725462	19.510969
64795		-4.292698	1.928277	8.854500	0.032768	0.117986	-0.039838	-1.002686	0.060059	-0.592773	10.851571	25.796197	19.498773
64796		-4.221100	2.008307	9.127796	0.051231	0.130475	-0.053423	-1.000244	0.057617	-0.598389	10.875020	25.875500	19.479718
64797		-4.021575	2.381908	9.168013	-0.017722	0.170865	-0.027869	-1.002930	0.055908	-0.597412	10.868097	25.974701	19.481385
64798		-3.288572	2.676115	9.766537	-0.136392	0.268649	0.010433	-0.984131	0.059814	-0.598145	10.808883	26.124808	19.516690
64799		-2.628880	1.188683	10.511299	-0.110862	0.497890	-0.016818	-0.990967	0.061768	-0.602539	10.768914	26.406885	19.564251
64800		-3.137507	2.391990	10.004384	-0.039257	0.780208	-0.085189	-0.989014	0.068604	-0.600342	10.766111	26.855380	19.601851
64801		-2.838007	1.632360	10.827762	0.051577	1.074107	-0.135247	-0.985107	0.062500	-0.609619	10.817577	27.474470	19.644368
64802		-2.812921	1.173471	11.143186	0.080215	1.445531	-0.203299	-0.968018	0.057129	-0.606201	10.887232	28.309633	19.691900
64803		-2.534983	1.110253	11.451505	0.123752	1.828271	-0.309602	-0.955078	0.056885	-0.614258	10.973402	29.371836	19.718352
64804		-2.328862	1.045633	11.783094	0.134989	2.259860	-0.426324	-0.933105	0.062500	-0.631104	11.056937	30.689249	19.723866
64805		-2.099298	1.382919	11.568737	0.102515	2.751510	-0.599704	-0.914795	0.058594	-0.636963	11.096362	32.302446	19.682108
64806		-1.745996	1.859051	11.341154	-0.012912	3.353363	-0.823573	-0.883545	0.047363	-0.638916	11.028049	34.278780	19.571468
64807		-1.680026	2.328910	11.080954	-0.154667	4.063053	-1.071185	-0.848633	0.049805	-0.654053	10.825998	36.680923	19.371788
64808		-1.930222	2.895496	10.902658	-0.294926	4.826206	-1.312567	-0.812012	0.052734	-0.661133	10.479854	39.538521	19.079078
64809		-3.158256	3.209037	10.675349	-0.378354	5.624737	-1.532584	-0.769043	0.055664	-0.669434	10.009605	42.866100	18.690747
64810		-4.503137	3.511972	10.607931	-0.375067	6.384359	-1.796382	-0.703613	0.052979	-0.679199	9.399976	46.646596	18.130891
64811		-6.716938	3.647759	11.057125	-0.344654	7.083546	-1.987979	-0.654297	0.049072	-0.678711	8.646472	50.833663	17.388508
64812		-11.365009	2.172876	12.885903	-0.103193	7.508659	-1.925554	-0.596680	0.056641	-0.666748	7.963917	55.256585	16.603457
64813		-12.092088	0.607060	12.726834	0.464433	7.587890	-1.735775	-0.517090	0.054443	-0.668213	7.608703	59.698839	15.864018
64814		-11.494036	0.836349	11.372974	1.048872	7.586918	-1.584322	-0.463135	0.043457	-0.654541	7.600815	64.136386	15.171466
64815		-12.209908	0.494277	11.398475	1.874425	7.352935	-1.371593	-0.397949	0.029297	-0.627930	8.223019	68.417336	14.675071
64816		-13.936239	0.575988	11.949845	2.840096	6.882544	-1.217827	-0.341309	0.020752	-0.608398	9.645913	72.436707	14.444760
64817		-12.825351	2.847996	11.810605	3.478018	6.270848	-1.286733	-0.300781	0.001465	-0.582764	11.392566	76.103715	14.185906
64818		-10.012672	5.083673	11.746926	3.597243	5.691858	-1.599531	-0.264404	-0.031250	-0.562256	12.397585	79.499956	13.106941
64819		-6.749939	6.607220	10.758396	3.266802	5.045943	-2.057717	-0.216797	-0.049072	-0.524658	10.591326	82.569559	9.381818
64820		-0.099570	6.798151	8.575804	2.560186	4.669291	-2.575601	-0.176270	-0.047119	-0.499268	0.640893	85.393009	-2.109091
64821		4.277512	7.233397	7.645339	1.514193	4.628109	-3.212517	-0.142578	-0.036377	-0.466309	-41.434896	87.374125	-45.127207
64822		-12.878929	8.102288	12.036150	0.649147	3.686849	-2.940999	-0.112793	-0.024170	-0.449219	-92.153186	86.580021	-96.282435
64823		-16.980548	9.399835	20.883365	0.077527	0.996035	-2.130850	-0.104248	-0.021240	-0.443604	-98.517853	85.308114	-102.709697
64824		-13.010475	6.774259	18.307388	0.142904	-1.146100	-1.309250	-0.114746	-0.013428	-0.454590	-90.319579	84.609482	-94.565703
64825		-3.277686	6.421123	11.855623	0.137203	-2.568274	-0.648916	-0.120361	-0.003662	-0.466309	-75.923847	84.058523	-80.181708
64826		0.739283	4.630787	7.690139	-0.050128	-3.088287	-0.377422	-0.138428	-0.004883	-0.479980	-61.783280	83.211086	-65.929608
64827		0.861856	3.400307	5.715720	-0.154166	-3.132525	-0.078792	-0.148926	-0.002930	-0.497314	-50.437356	82.166423	-54.405244
64828		0.633113	3.064114	4.701268	-0.223531	-3.015326	0.228955	-0.164063	-0.011475	-0.511230	-41.490456	81.054018	-45.237013
64829		-0.222231	2.267813	4.816761	-0.247093	-2.960819	0.615912	-0.180908	-0.006836	-0.534180	-33.777899	79.922424	-37.276659
64830		-1.639389	2.010634	5.716761	-0.194871	-3.016463	1.091884	-0.201416	-0.008789	-0.545898	-26.395160	78.734688	-29.655403
64831		-2.751365	2.327546	6.657771	-0.186345	-3.168219	1.597570	-0.219971	-0.010986	-0.571777	-19.175073	77.412125	-22.170394
64832		-3.631337	2.754381	7.525928	-0.292586	-3.375134	2.022719	-0.246826	-0.026123	-0.597656	-12.416374	75.859725	-15.056751
64833		-4.564173	2.594411	8.259234	-0.485521	-3.625341	2.327426	-0.283203	-0.030273	-0.607910	-6.532140	74.027219	-8.679064
64834		-5.224591	1.712437	8.489720	-0.640146	-3.901586	2.516249	-0.309570	-0.037109	-0.626953	-1.675498	71.893545	-3.221518
64835		-5.666069	0.697376	8.518917	-0.690582	-4.160602	2.602822	-0.354004	-0.045410	-0.657227	2.158604	69.501484	1.256399
64836		-5.835320	-0.013901	8.387994	-0.632548	-4.373281	2.599496	-0.395996	-0.048096	-0.676270	5.120077	66.899867	4.830741
64837		-6.022152	-0.414914	8.465685	-0.484004	-4.521033	2.501807	-0.437256	-0.048096	-0.687500	7.356218	64.168284	7.588592
64838		-6.315337	-0.203816	8.662375	-0.351557	-4.629578	2.366164	-0.487061	-0.049561	-0.717529	9.029841	61.343671	9.692326
64839		-6.539605	0.531084	8.906517	-0.278738	-4.708596	2.216066	-0.536621	-0.048340	-0.725586	10.251191	58.471075	11.285144
64840		-6.981875	1.251169	9.380947	-0.276927	-4.741458	2.087703	-0.589111	-0.036865	-0.731934	11.129642	55.573842	12.516310
64841		-7.686019	1.971481	9.837135	-0.307558	-4.766079	2.046919	-0.645020	-0.035889	-0.734863	11.793144	52.664445	13.549314
64842		-8.135184	2.740837	10.049847	-0.382889	-4.776361	2.078918	-0.701904	-0.024414	-0.735107	12.313771	49.733452	14.493622
64843		-8.506773	3.223512	10.178469	-0.497783	-4.757766	2.136873	-0.748535	-0.017578	-0.725342	12.707770	46.806967	15.400159
64844		-8.859413	3.083797	10.335883	-0.563704	-4.689138	2.221467	-0.808594	0.000488	-0.720459	13.036950	43.898211	16.311362
64845		-9.088950	2.849830	10.403695	-0.544115	-4.560799	2.306279	-0.855469	0.008301	-0.708252	13.358222	41.052416	17.244895
64846		-9.188705	2.966371	10.421776	-0.479642	-4.343849	2.344249	-0.895996	0.028320	-0.699707	13.685961	38.312423	18.182802
64847		-10.042279	3.509433	11.051461	-0.413865	-4.055489	2.322275	-0.925537	0.038330	-0.684814	14.005436	35.737946	19.102805
64848		-12.628288	4.496628	12.416578	-0.343141	-3.859649	2.339362	-0.956543	0.056152	-0.677979	14.331768	33.259670	20.020056
64849		-15.210104	5.837225	13.256098	-0.356320	-3.908500	2.450417	-1.004395	0.066162	-0.656738	14.628908	30.740400	20.961143
64850		-16.143896	6.647207	12.726926	-0.508367	-4.074431	2.621784	-1.040527	0.079102	-0.638672	14.824033	28.094880	21.944947
64851		-16.086973	6.163161	11.356811	-0.706473	-4.169281	2.769772	-1.075928	0.094971	-0.616455	14.885342	25.379105	22.975249
64852		-15.847076	4.546770	9.672349	-0.795519	-4.138536	2.848659	-1.111084	0.117432	-0.591064	14.863142	22.662850	24.033212
64853		-15.259081	2.795982	8.102165	-0.732928	-3.978650	2.816431	-1.140137	0.145264	-0.569336	14.826716	20.045962	25.079474
64854		-15.469472	1.080078	6.802539	-0.537149	-3.717797	2.630787	-1.170898	0.161377	-0.541504	14.831621	17.595951	26.040399
64855		-16.470544	-0.023770	5.788458	-0.291678	-3.434374	2.293408	-1.193848	0.158936	-0.521484	14.892999	15.357081	26.837133
64856		-17.766251	-0.908249	4.604071	-0.068693	-3.184675	1.792619	-1.219727	0.166748	-0.499756	14.988865	13.324900	27.373481
64857		-18.506400	-1.579022	2.878559	0.075648	-2.962343	1.163200	-1.239502	0.191162	-0.465332	15.079225	11.512954	27.580423
64858		-18.418881	-1.378928	0.851559	0.136706	-2.719955	0.464615	-1.258545	0.181885	-0.441895	15.131059	9.935429	27.426499
64859		-17.780616	-1.562406	-0.595301	0.133435	-2.368643	-0.210256	-1.276367	0.178223	-0.419189	15.132781	8.656929	26.948393
64860		-17.545185	-1.799709	-1.397397	0.233248	-1.990733	-0.758049	-1.283691	0.176758	-0.405029	15.165337	7.666690	26.221760
64861		-17.344752	-1.723493	-1.733277	0.506276	-1.637917	-1.176338	-1.308105	0.172607	-0.388184	15.342786	6.938747	25.315989
64862		-16.905829	-0.603894	-1.786099	0.809811	-1.350275	-1.499981	-1.314697	0.156982	-0.384521	15.687407	6.421207	24.272051
64863		-15.632887	0.653944	-1.889049	1.056321	-1.026605	-1.791537	-1.320557	0.129883	-0.368164	16.168640	6.137429	23.115357
64864		-14.509322	2.363107	-1.636653	1.165231	-0.668717	-2.000135	-1.325928	0.120605	-0.364014	16.708862	6.093045	21.899234
64865		-13.351111	8.514914	-0.269623	0.414524	0.777016	-1.844194	-1.324463	0.107910	-0.362061	16.848752	6.824506	21.009177
64866		-11.899491	5.966177	-13.923741	-0.764604	2.107131	-2.030305	-1.308350	0.097168	-0.374512	16.310457	8.312988	20.230547
64867		7.796578	0.268547	-2.060578	-0.963557	3.421442	-1.576543	-1.298828	0.088867	-0.401855	15.706479	10.446573	19.897194
64868		-4.177571	8.740656	11.630457	-0.838278	4.456806	-0.850365	-1.276123	0.095703	-0.428955	15.272604	13.037045	20.112757
64869		-14.137938	11.073532	18.618542	-1.071463	3.989737	-0.902824	-1.265381	0.091064	-0.462158	14.683865	15.379143	20.205411
64870		-13.769025	-0.215583	14.452039	-1.132216	3.178078	-1.163884	-1.243652	0.105469	-0.484619	13.980289	17.308189	20.000573
64871		-10.844092	-4.012212	13.796391	-0.515414	3.034001	-0.695325	-1.227295	0.097412	-0.502197	13.696559	19.091481	20.029709
64872		-13.145556	-0.548791	16.293565	-0.124936	2.597343	-0.454968	-1.225342	0.103027	-0.515869	13.662727	20.599164	20.133274
64873		-10.909283	0.197168	14.373235	-0.082214	1.904555	-0.542427	-1.204346	0.096924	-0.526367	13.600259	21.733004	20.083801
64874		-6.271864	2.880064	9.923170	-0.005311	1.613458	-0.442466	-1.193604	0.092041	-0.540527	13.587225	22.691479	20.050961
64875		-5.629689	4.307913	9.196490	-0.043800	1.627876	-0.374209	-1.184814	0.092529	-0.540771	13.568602	23.648553	20.061050
64876		-6.451806	2.053610	10.129030	-0.066938	1.589657	-0.415682	-1.179932	0.095459	-0.553467	13.524013	24.590213	20.039755
64877		-17.834357	4.701897	17.095873	-0.554130	0.892349	-0.835896	-1.173584	0.094238	-0.561523	13.046641	25.197964	19.654012
64878		-2.249465	-0.843422	7.545890	-0.310471	0.100791	-0.255236	-1.169922	0.094238	-0.565186	12.809531	25.287573	19.509395
64879		-6.757050	3.042336	10.578952	-0.220847	0.342003	-0.245940	-1.168701	0.093018	-0.562988	12.640120	25.509835	19.403598
64880		-4.642229	0.678119	9.065618	-0.187740	0.160380	-0.179848	-1.171875	0.100830	-0.571777	12.495835	25.622539	19.312920
64881		-4.859173	1.372682	9.589076	-0.094784	0.082918	-0.090508	-1.160645	0.091553	-0.569824	12.424021	25.680194	19.266697
64882		-4.175056	1.992594	8.885519	-0.063579	0.125608	-0.087712	-1.167480	0.091309	-0.577881	12.373171	25.761860	19.227989
64883		-4.495328	1.905910	8.964030	-0.037566	0.117161	-0.067300	-1.159668	0.090332	-0.570557	12.342268	25.835759	19.200685
64884		-4.413969	2.248960	8.822640	-0.030195	0.104181	-0.054658	-1.158691	0.098389	-0.561279	12.318090	25.901329	19.179466
64885		-4.273665	2.079403	8.806556	-0.032968	0.119504	-0.056317	-1.166504	0.093750	-0.570068	12.292844	25.975176	19.159211
64886		-4.603999	1.861900	8.880531	-0.023117	0.113109	-0.048667	-1.160889	0.097900	-0.570313	12.274818	26.044983	19.142854
64887		-4.498924	1.790928	8.864935	-0.017532	0.093796	-0.034074	-1.161865	0.097656	-0.563721	12.262902	26.101718	19.132902
64888		-4.404123	1.698206	8.922664	-0.006638	0.088280	-0.022863	-1.161621	0.090332	-0.577393	12.259869	26.154468	19.129221
64889		-4.420319	1.620729	8.983004	0.011806	0.095586	-0.011464	-1.161377	0.087891	-0.574219	12.271071	26.209452	19.133605
64890		-4.403592	1.576817	8.927033	0.030559	0.097865	0.000919	-1.157227	0.099121	-0.572754	12.296481	26.264655	19.146081
64891		-4.311544	1.766031	8.841854	0.038332	0.107050	0.003882	-1.156494	0.089844	-0.572021	12.327850	26.324179	19.161664
64892		-4.420554	1.990394	8.718063	0.033141	0.114406	0.005418	-1.159180	0.098145	-0.569580	12.357038	26.388060	19.179278
64893		-4.470024	2.088807	8.572298	0.025610	0.112820	-0.006068	-1.151123	0.095947	-0.577148	12.378769	26.452021	19.189514
64894		-4.509074	2.115709	8.529322	0.011976	0.098528	-0.009390	-1.156982	0.086670	-0.573242	12.390806	26.508814	19.195764
64895		-4.531877	2.109683	8.627599	-0.010543	0.081193	-0.011855	-1.157471	0.091064	-0.569336	12.388300	26.555784	19.198072
64896		-4.482929	2.091535	8.538718	-0.025194	0.066001	-0.018765	-1.156250	0.086914	-0.569824	12.374440	26.595517	19.193993
64897		-4.399260	2.121173	8.505158	-0.047438	0.056238	-0.029793	-1.159668	0.093750	-0.571777	12.344222	26.630721	19.181624
64898		-4.438320	2.009426	8.522320	-0.074022	0.051815	-0.037800	-1.159424	0.097412	-0.576660	12.296154	26.664827	19.163637
64899		-4.475679	1.988088	8.586333	-0.090988	0.038989	-0.046513	-1.152832	0.101563	-0.581787	12.235180	26.692390	19.138369
64900		-4.455719	2.042438	8.611307	-0.097787	0.037256	-0.046615	-1.162598	0.087158	-0.577393	12.170078	26.719366	19.112798
64901		-4.476131	1.877628	8.739990	-0.099631	0.037487	-0.045360	-1.152588	0.089111	-0.574463	12.104328	26.745898	19.087970
64902		-4.509866	1.892597	8.702391	-0.100170	0.034473	-0.045893	-1.151855	0.098633	-0.587158	12.037845	26.771164	19.062399
64903		-4.525901	1.914279	8.702885	-0.096377	0.031768	-0.043830	-1.151855	0.095459	-0.583984	11.973993	26.794258	19.037688
64904		-4.515484	1.835248	8.724506	-0.092656	0.024799	-0.045620	-1.150635	0.095215	-0.573486	11.911265	26.814007	19.010930
64905		-4.487233	1.819316	8.711735	-0.081146	0.026090	-0.038080	-1.150391	0.093018	-0.586914	11.857387	26.833192	18.989018
64906		-4.527536	1.851630	8.784686	-0.073474	0.031021	-0.038905	-1.153320	0.098389	-0.584229	11.807887	26.855585	18.967246
64907		-4.470493	1.811420	8.808918	-0.068063	0.042576	-0.037647	-1.155273	0.099854	-0.583740	11.762569	26.883933	18.947723
64908		-4.456254	1.829739	8.795149	-0.065902	0.048144	-0.034744	-1.156250	0.094971	-0.577148	11.719563	26.915402	18.930755
64909		-4.486796	1.795424	8.747324	-0.048785	0.058233	-0.029522	-1.154785	0.107178	-0.572266	11.688486	26.951564	18.918330
64910		-4.504712	1.914438	8.792690	-0.044920	0.065890	-0.032380	-1.145996	0.094971	-0.577637	11.659183	26.992687	18.905106
64911		-4.495671	1.859570	8.760496	-0.050439	0.066528	-0.028653	-1.151855	0.098145	-0.576904	11.627857	27.033392	18.894253
64912		-4.534868	1.897336	8.750322	-0.038603	0.068888	-0.028925	-1.156738	0.103271	-0.583740	11.603302	27.075775	18.883537
64913		-4.574256	1.935826	8.739877	-0.030992	0.069575	-0.033592	-1.157715	0.093506	-0.578125	11.581844	27.118751	18.869916
64914		-4.568463	1.899193	8.737100	-0.034470	0.067262	-0.034691	-1.154785	0.091797	-0.580078	11.557873	27.160866	18.855309
64915		-4.426618	2.026109	8.754881	-0.032262	0.083211	-0.036668	-1.142822	0.096191	-0.579590	11.535562	27.211840	18.841455
64916		-4.318683	2.102957	8.856963	-0.034638	0.113350	-0.040762	-1.143311	0.102783	-0.583740	11.512417	27.280501	18.828898
64917		-4.324513	2.062253	8.932382	-0.044507	0.159859	-0.068234	-1.146240	0.092285	-0.590820	11.478391	27.378103	18.804876
64918		-4.155881	1.997709	9.038416	-0.031833	0.220558	-0.082107	-1.151367	0.093994	-0.574707	11.451063	27.511641	18.779817
64919		-3.555557	1.398423	9.875829	0.016656	0.354996	-0.078472	-1.145996	0.100342	-0.588135	11.460518	27.719972	18.774229
64920		-4.337483	1.353566	9.318254	0.026785	0.510188	-0.072022	-1.136475	0.096191	-0.588135	11.487017	28.014949	18.792829
64921		-4.022983	1.552868	9.505321	0.045624	0.628154	-0.075418	-1.130859	0.096191	-0.588135	11.530770	28.376296	18.824806
64922		-3.976494	1.452104	9.629804	0.070371	0.794238	-0.082771	-1.129150	0.097168	-0.600098	11.597250	28.831892	18.874336
64923		-3.974391	1.454675	9.727200	0.100924	0.959930	-0.102898	-1.123291	0.093262	-0.591553	11.686508	29.382533	18.933806
64924		-3.798206	1.795183	9.714833	0.136893	1.161236	-0.136700	-1.118652	0.089600	-0.605957	11.800163	30.050103	18.999939
64925		-3.725960	1.940691	9.838443	0.159021	1.395900	-0.193841	-1.107178	0.090820	-0.606445	11.925789	30.855708	19.063092
64926		-3.714393	1.849157	9.885637	0.161213	1.654922	-0.257748	-1.094727	0.082275	-0.617676	12.051769	31.814059	19.123027
64927		-3.764807	1.872718	9.931687	0.148265	1.938259	-0.341809	-1.079346	0.088867	-0.627197	12.164701	32.941042	19.170601
64928		-3.558262	1.659238	10.049250	0.124648	2.267801	-0.441266	-1.064453	0.083008	-0.632568	12.256096	34.264558	19.202277
64929		-3.370189	1.407579	10.360275	0.095095	2.686601	-0.557180	-1.053467	0.073242	-0.648926	12.323219	35.836617	19.219916
64930		-2.982838	1.453829	10.446958	0.060782	3.210734	-0.693636	-1.014160	0.078613	-0.659180	12.363219	37.718646	19.224479
64931		-2.846789	2.035996	10.671214	0.030618	3.853518	-0.857099	-0.987305	0.069580	-0.672363	12.376842	39.980568	19.214238
64932		-2.828208	2.208250	10.420057	0.058630	4.608876	-1.023203	-0.957031	0.068359	-0.676758	12.406456	42.685381	19.204500
64933		-3.319749	3.178422	10.498335	0.056798	5.383520	-1.237474	-0.905762	0.071777	-0.703369	12.411371	45.850288	19.161337
64934		-4.400786	3.357399	10.875879	0.091762	6.191364	-1.414007	-0.864746	0.053223	-0.706299	12.434086	49.488569	19.117571
64935		-6.398016	3.252224	11.475553	0.151639	6.939625	-1.556419	-0.811279	0.062744	-0.731934	12.506607	53.563515	19.095995
64936		-9.596999	2.528375	12.366066	0.263197	7.550919	-1.534550	-0.742432	0.050537	-0.738037	12.789461	57.976893	19.252424
64937		-13.277253	1.929513	14.322488	0.591927	7.865698	-1.404945	-0.665771	0.041260	-0.732178	13.554993	62.548593	19.739992
64938		-13.341668	1.704815	14.229800	1.173040	7.922842	-1.306374	-0.610840	0.034668	-0.730713	15.072742	67.131639	20.670285
64939		-13.971716	1.796462	13.861675	2.046186	7.867483	-1.185909	-0.541992	0.018066	-0.714844	17.916535	71.647397	22.451256
64940		-16.399908	2.535893	13.790347	3.231526	7.475682	-1.150626	-0.487549	-0.017822	-0.705322	22.758309	75.893340	25.559786
64941		-17.085241	5.583861	15.264128	4.139973	6.686335	-1.410693	-0.437500	-0.049561	-0.670654	29.588272	79.691094	30.114744
64942		-13.639801	8.688524	15.673762	4.521623	5.615285	-1.916143	-0.395752	-0.082520	-0.646973	37.914464	82.979256	35.910504
64943		-4.266488	10.473266	14.080292	4.322783	4.656906	-2.517269	-0.368896	-0.105713	-0.625488	48.325539	85.920265	43.876347
64944		4.876776	11.844633	11.307375	3.202777	4.552928	-3.520583	-0.336426	-0.121094	-0.607666	87.855668	88.926010	81.591550
64945		-9.260604	14.753033	11.670293	1.435225	5.047591	-4.765635	-0.299316	-0.129639	-0.583984	-149.483708	86.694716	-156.546661
64946		-23.611792	12.876951	20.229277	0.341026	2.137280	-3.871482	-0.286377	-0.112793	-0.584961	-136.109003	84.364524	-143.333132
64947		-14.192779	13.283200	22.283936	-0.459043	-0.662602	-2.834976	-0.316650	-0.111328	-0.582275	-123.921234	83.357784	-130.814089
64948		-7.504048	7.211435	16.887033	-0.451814	-2.476070	-1.977715	-0.336426	-0.094482	-0.601318	-109.289707	82.978539	-115.821702
64949		-0.292509	5.646215	10.341903	-0.139698	-3.242875	-1.334880	-0.386475	-0.101807	-0.616943	-93.722697	82.594899	-100.053992
64950		2.528116	5.452025	7.301705	-0.018795	-3.344769	-1.007795	-0.427979	-0.095459	-0.620117	-79.846630	81.906231	-86.044232
64951		1.618092	4.955645	6.398696	-0.049090	-3.341241	-0.529119	-0.483398	-0.098633	-0.622559	-68.108651	81.080765	-74.151016
64952		0.938179	4.992542	5.767135	-0.160475	-3.361770	0.044013	-0.547119	-0.094238	-0.617920	-57.675541	80.220813	-63.489167
64953		0.744769	4.866798	5.599674	-0.324044	-3.364254	0.655684	-0.609863	-0.092773	-0.617432	-48.060999	79.352370	-53.534765
64954		0.356498	4.149558	5.533025	-0.489913	-3.329033	1.274483	-0.671631	-0.082764	-0.599121	-38.911231	78.465659	-43.929866
64955		-0.258159	3.140106	5.737005	-0.581592	-3.298473	1.874549	-0.744141	-0.082031	-0.579834	-30.045708	77.511716	-34.528970
64956		-1.298810	2.383607	6.412231	-0.602831	-3.315741	2.405821	-0.808838	-0.062256	-0.558594	-21.448109	76.392457	-25.354392
64957		-2.401237	2.153436	6.988189	-0.605064	-3.422611	2.802072	-0.855469	-0.041504	-0.515869	-13.474017	74.999140	-16.771543
64958		-3.543795	1.719593	7.841454	-0.612360	-3.627356	3.049499	-0.913086	-0.012207	-0.478516	-6.492953	73.247259	-9.154547
64959		-4.764273	1.127949	8.654997	-0.594259	-3.924548	3.174404	-0.951172	0.001465	-0.432617	-0.742241	71.114404	-2.760693
64960		-5.243538	0.584776	8.902613	-0.532857	-4.274404	3.201102	-0.986328	0.026611	-0.378662	3.782559	68.610480	2.378292
64961		-5.119668	0.084952	8.701250	-0.462591	-4.574996	3.107119	-1.020020	0.036377	-0.316406	7.144109	65.829980	6.307664
64962		-5.331184	-0.129091	8.729205	-0.341450	-4.778298	2.896561	-1.054688	0.052246	-0.258545	9.544568	62.874557	9.182401
64963		-5.789550	0.297688	8.978063	-0.266170	-4.907841	2.658109	-1.067871	0.071533	-0.180664	11.208002	59.833822	11.248024
64964		-6.339388	1.045819	9.541597	-0.246841	-5.013102	2.446107	-1.046387	0.083984	-0.102295	12.340597	56.730653	12.741025
64965		-7.412799	1.635316	10.400396	-0.243046	-5.118933	2.307629	-0.999268	0.086914	-0.038574	13.126095	53.578372	13.864374
64966		-8.390723	2.388854	10.965700	-0.251048	-5.243574	2.301644	-0.941162	0.091553	-0.005615	13.731970	50.344601	14.811565
64967		-8.593587	2.894966	10.936569	-0.282337	-5.328947	2.367520	-0.877197	0.090088	0.004639	14.230026	47.054089	15.686218
64968		-8.346278	3.518691	10.633120	-0.394282	-5.229238	2.431662	-0.841064	0.077393	-0.008545	14.618124	43.799991	16.543217
64969		-8.680859	3.584568	10.660288	-0.516615	-4.921843	2.484038	-0.799805	0.055420	-0.042236	14.920722	40.710382	17.429468
64970		-10.452566	3.656600	12.022213	-0.543793	-4.520640	2.522848	-0.802002	0.044189	-0.073486	15.202005	37.828229	18.360865
64971		-15.101201	4.524265	14.699060	-0.404291	-4.374817	2.642985	-0.800293	0.028320	-0.106689	15.558740	35.009836	19.347474
64972		-18.518361	7.130231	15.673738	-0.389823	-4.610492	2.840247	-0.811768	0.021973	-0.127930	15.900397	32.020678	20.365060
64973		-19.636873	8.574389	14.825211	-0.648588	-4.830600	2.940083	-0.825439	0.003906	-0.142334	16.035228	28.896393	21.359000
64974		-20.880215	8.059985	13.037453	-0.946731	-4.920411	2.988571	-0.862793	0.012939	-0.159668	15.943550	25.709623	22.335376
64975		-22.000642	6.693272	10.846278	-1.089651	-4.917687	3.034886	-0.882324	0.000488	-0.177734	15.725822	22.524524	23.324359
64976		-22.270906	4.727403	8.245045	-1.011721	-4.832433	3.078422	-0.913818	0.018066	-0.174805	15.513149	19.378648	24.343010
64977		-22.085478	2.850829	5.470546	-0.776612	-4.595653	3.016025	-0.934082	0.029541	-0.179932	15.381321	16.380448	25.354786
64978		-22.202274	0.819243	3.022022	-0.430780	-4.206751	2.745429	-0.959473	0.034668	-0.176270	15.371945	13.635630	26.261510
64979		-22.555283	-0.869766	0.746832	-0.022018	-3.730000	2.295581	-0.976074	0.049316	-0.176514	15.515579	11.225525	26.975600
64980		-22.753550	-2.398493	-1.108985	0.392370	-3.218178	1.680861	-0.997803	0.047852	-0.167236	15.819898	9.187282	27.410148
64981		-23.068529	-3.714700	-2.768594	0.779369	-2.714573	0.948325	-1.008057	0.050781	-0.167480	16.282338	7.542504	27.501972
64982		-23.344782	-4.532901	-3.930439	1.115164	-2.291390	0.163137	-1.021973	0.051758	-0.162109	16.888950	6.255751	27.213180
64983		-23.682068	-3.904595	-4.151259	1.354948	-1.965227	-0.586391	-1.019287	0.044434	-0.147949	17.601547	5.280158	26.553896
64984		-22.872803	-1.130959	-4.183753	1.282147	-1.694471	-1.279904	-1.030029	0.030762	-0.145996	18.252323	4.581307	25.552216
64985		-19.261411	2.695708	-2.655946	0.889813	-1.382192	-1.897422	-1.020996	0.023926	-0.139160	18.666429	4.174530	24.265240
64986		-20.615051	7.339960	-6.359872	-0.588049	0.383769	-2.286712	-1.027100	0.026367	-0.140869	18.239642	4.797864	23.087101
64987		-20.311912	2.542849	-21.151450	-1.257592	1.943638	-2.528030	-1.008301	0.018066	-0.150146	17.420557	6.301733	22.043078
64988		15.135524	0.168172	-8.940492	-1.176244	3.907810	-1.744415	-1.003418	0.018799	-0.168213	16.709613	8.736315	21.740919
64989		-7.798417	13.687512	13.687503	-1.012019	5.466266	-0.642012	-0.976318	0.023438	-0.183838	16.229080	11.844214	22.283463
64990		-19.238833	14.893018	20.989993	-1.307180	4.792673	-1.094354	-0.962891	0.029541	-0.207275	15.517429	14.657613	22.434295
64991		-16.118282	-8.059954	15.315400	-1.101357	3.879514	-1.130444	-0.942139	0.039551	-0.217285	14.876451	16.972589	22.388937
64992		-14.399500	-7.042461	17.587446	-0.493669	3.571308	-0.727732	-0.933105	0.038086	-0.226074	14.634362	19.058614	22.511840
64993		-17.230528	-2.700709	19.962231	-0.269817	2.533721	-0.898081	-0.921387	0.041748	-0.241943	14.433566	20.593124	22.368273
64994		-9.177606	2.934522	11.886744	-0.160474	1.729476	-0.743327	-0.919678	0.042969	-0.234131	14.279066	21.660151	22.188099
64995		-4.930066	7.040132	8.120856	-0.148775	1.738310	-0.547261	-0.916992	0.040771	-0.240723	14.171668	22.702754	22.122794
64996		-6.004254	3.650294	9.567577	-0.232677	1.771689	-0.581052	-0.900146	0.036621	-0.252930	14.007793	23.769884	22.039091
64997		-8.144222	-1.192033	11.439974	-0.258134	1.619582	-0.666227	-0.902588	0.035400	-0.251709	13.795278	24.762472	21.875790
64998		-17.878200	3.242203	17.396025	-0.742265	0.432260	-0.800488	-0.886963	0.039063	-0.250977	13.191350	25.111886	21.446405
64999		-1.374797	4.026745	6.022686	-0.514272	0.125250	-0.343962	-0.892822	0.046143	-0.246826	12.815950	25.226238	21.250666
65000		-6.713438	0.519004	11.568407	-0.301730	0.200673	-0.226456	-0.887939	0.051025	-0.260254	12.597078	25.368596	21.137379
65001		-5.633380	0.571260	9.581151	-0.278228	0.069528	-0.172098	-0.886719	0.042236	-0.264404	12.397944	25.428901	21.038934
65002		-3.931621	2.377361	8.706317	-0.195157	-0.049075	-0.079303	-0.892578	0.045166	-0.257080	12.263965	25.412791	20.981833
65003		-4.502227	1.919795	9.062030	-0.159261	0.040250	-0.095831	-0.895508	0.041260	-0.259277	12.151411	25.447009	20.926390
65004		-4.241793	2.109195	8.765377	-0.147545	0.022242	-0.079776	-0.898682	0.047852	-0.253906	12.048664	25.470657	20.878542
65005		-3.991209	2.383933	8.619846	-0.160076	0.048905	-0.097871	-0.886963	0.049072	-0.259277	11.935463	25.509780	20.822804
65006		-4.252736	1.831868	8.942121	-0.160223	0.067080	-0.100015	-0.887207	0.039795	-0.260254	11.822463	25.560743	20.768117
65007		-4.450999	1.510991	8.979386	-0.130124	0.075950	-0.087413	-0.900391	0.049561	-0.255615	11.730571	25.613623	20.722181
65008		-4.419274	1.510927	8.972727	-0.102442	0.074531	-0.067165	-0.886475	0.054199	-0.265137	11.659742	25.664754	20.688663
65009		-4.299125	1.693659	8.852583	-0.086454	0.074412	-0.058911	-0.886719	0.053467	-0.261475	11.600325	25.713372	20.660090
65010		-4.384973	1.582639	8.901447	-0.068701	0.075409	-0.050112	-0.887695	0.045654	-0.257080	11.553368	25.762935	20.637159
65011		-4.333625	1.651389	8.861181	-0.060325	0.074723	-0.037098	-0.893555	0.055664	-0.259521	11.514762	25.809186	20.622112
65012		-4.320904	1.633455	8.866512	-0.049221	0.077925	-0.032611	-0.883545	0.050049	-0.265137	11.483781	25.858096	20.610318
65013		-4.411033	1.727881	8.842821	-0.048865	0.077493	-0.019651	-0.883545	0.044678	-0.262695	11.456594	25.903900	20.606441
65014		-4.389113	1.863358	8.745403	-0.060410	0.075521	-0.020796	-0.885010	0.055420	-0.261719	11.422247	25.950070	20.601648
65015		-4.364826	1.850129	8.729751	-0.058914	0.067237	-0.021735	-0.883545	0.049316	-0.261963	11.388134	25.990345	20.595117
65016		-4.422058	1.730646	8.845368	-0.065112	0.059740	-0.016119	-0.891846	0.042480	-0.265869	11.351478	26.027082	20.591199
65017		-4.426381	1.782151	8.772979	-0.060122	0.061609	-0.014749	-0.885498	0.058838	-0.256592	11.318248	26.063402	20.588270
65018		-4.410987	1.690847	8.819573	-0.051650	0.059165	-0.011677	-0.887207	0.045166	-0.263916	11.290471	26.099280	20.587007
65019		-4.408581	1.781120	8.786286	-0.050181	0.058788	-0.011412	-0.884033	0.050293	-0.266357	11.263679	26.133639	20.585773
65020		-4.411453	1.722429	8.774456	-0.053669	0.063109	-0.013104	-0.894043	0.051514	-0.263672	11.234551	26.171857	20.584065
65021		-4.420460	1.845184	8.742430	-0.053040	0.057226	-0.007402	-0.881592	0.052979	-0.259766	11.207126	26.204890	20.585110
65022		-4.408965	1.956045	8.718647	-0.060757	0.052080	-0.014721	-0.883545	0.051270	-0.262451	11.172869	26.237056	20.580976
65023		-4.455445	1.952332	8.752561	-0.064032	0.044791	-0.014943	-0.882813	0.050293	-0.255615	11.136357	26.263935	20.575716
65024		-4.387502	1.841431	8.794338	-0.065105	0.037423	-0.017942	-0.886719	0.050293	-0.258789	11.097903	26.288181	20.567712
65025		-4.413166	1.788800	8.856292	-0.058035	0.048474	-0.016286	-0.882568	0.054443	-0.258789	11.064633	26.317273	20.562021
65026		-4.417452	1.746427	8.875077	-0.043269	0.051197	-0.014269	-0.876709	0.051025	-0.267822	11.040445	26.348821	20.557976
65027		-4.481880	1.702859	8.889946	-0.029862	0.059513	-0.014899	-0.888428	0.052979	-0.262207	11.024284	26.383965	20.554475
65028		-4.463138	1.693489	8.814623	-0.010104	0.064095	-0.011496	-0.883789	0.058594	-0.262207	11.020562	26.422430	20.553725
65029		-4.437211	1.792626	8.878339	-0.004911	0.068815	-0.007994	-0.888916	0.064697	-0.263428	11.021125	26.462048	20.555688
65030		-4.433540	1.870710	8.813848	-0.011225	0.078116	-0.006271	-0.878906	0.052246	-0.261475	11.018991	26.507797	20.559932
65031		-4.413301	1.990052	8.767346	-0.020608	0.083980	-0.009003	-0.877930	0.055908	-0.265137	11.011108	26.556055	20.563114
65032		-4.323336	2.052502	8.913724	-0.042563	0.099523	-0.003227	-0.881104	0.048340	-0.265381	10.993059	26.613483	20.571879
65033		-4.257264	2.128762	8.911825	-0.075516	0.131589	-0.003710	-0.875732	0.055664	-0.267578	10.957807	26.687944	20.584169
65034		-4.086515	1.809576	9.187799	-0.080272	0.184304	-0.022231	-0.883301	0.058105	-0.271973	10.917422	26.795105	20.591229
65035		-3.601437	1.675379	9.587155	0.009781	0.307079	-0.058776	-0.884766	0.057617	-0.263672	10.925014	26.974281	20.590091
65036		-3.912720	1.228543	9.609632	0.005821	0.462019	-0.047539	-0.869629	0.055908	-0.261230	10.942161	27.240365	20.615068
65037		-4.156301	1.354504	9.286400	0.055943	0.581232	-0.062137	-0.871582	0.053467	-0.262451	10.990778	27.574118	20.645614
65038		-3.874887	1.248472	9.648382	0.094255	0.734328	-0.076794	-0.875488	0.054932	-0.270264	11.066196	27.996457	20.686365
65039		-3.901557	1.328600	9.660885	0.134754	0.891656	-0.097903	-0.864258	0.051758	-0.274414	11.168576	28.508611	20.734252
65040		-3.801089	1.608108	9.735705	0.166884	1.071931	-0.124775	-0.862061	0.057129	-0.271729	11.293131	29.125838	20.789302
65041		-3.693899	1.957012	9.692901	0.196376	1.285703	-0.178592	-0.853027	0.043701	-0.281250	11.432779	29.868262	20.839320
65042		-3.614273	1.972235	9.886069	0.200180	1.530648	-0.240850	-0.845215	0.049072	-0.280518	11.572320	30.755983	20.883782
65043		-3.604736	1.954527	9.985675	0.188747	1.806569	-0.321999	-0.841309	0.046387	-0.281494	11.699243	31.807065	20.915121
65044		-3.476942	1.877847	9.958280	0.156002	2.122803	-0.417057	-0.832275	0.046143	-0.290527	11.798933	33.047243	20.929850
65045		-3.552690	1.641646	9.958372	0.124785	2.478397	-0.534455	-0.818115	0.041748	-0.289307	11.866372	34.499937	20.918041
65046		-3.366164	1.410078	10.199973	0.085497	2.907338	-0.640767	-0.810547	0.037598	-0.296631	11.905367	36.206233	20.896616
65047		-3.128474	1.274810	10.401783	0.066121	3.441113	-0.765076	-0.786377	0.037598	-0.305908	11.928235	38.225932	20.867647
65048		-3.046232	1.817379	10.634422	0.050710	4.095980	-0.916824	-0.778076	0.037354	-0.301514	11.934928	40.631119	20.828680
65049		-3.015896	2.304763	10.331319	0.053546	4.826044	-1.080587	-0.742676	0.027588	-0.310303	11.936396	43.464565	20.781331
65050		-3.547551	3.143146	10.674703	0.081486	5.623309	-1.292874	-0.725342	0.033691	-0.308838	11.925180	46.770291	20.696235
65051		-4.212911	3.058468	10.514676	0.113388	6.415419	-1.481939	-0.685791	0.033447	-0.316406	11.909657	50.542230	20.585717
65052		-7.214782	2.907704	11.646392	0.163574	7.171563	-1.571044	-0.666016	0.033447	-0.317383	11.963708	54.748609	20.532713
65053		-11.172796	2.443513	12.881349	0.347178	7.682006	-1.512315	-0.617920	0.038818	-0.315674	12.282127	59.233958	20.672001
65054		-14.315482	1.421754	14.242187	0.739552	7.829067	-1.341585	-0.584229	0.030762	-0.311035	13.143471	63.778769	21.166464
65055		-13.760132	1.773692	14.303757	1.388137	7.789767	-1.219173	-0.550537	0.032715	-0.293945	14.842089	68.278670	22.151045
65056		-15.508228	1.217209	13.884682	2.384716	7.596149	-1.040173	-0.520020	0.021484	-0.285889	18.070995	72.621695	24.122771
65057		-16.584814	2.493240	14.277571	3.548127	7.087753	-1.033260	-0.472412	0.003418	-0.278809	23.308383	76.631626	27.440551
65058		-16.173918	5.102781	15.126915	4.383494	6.261554	-1.296844	-0.449951	-0.010010	-0.253906	30.498617	80.169524	32.210972
65059		-12.336426	8.047649	15.954134	4.796771	5.142170	-1.783182	-0.427979	-0.034668	-0.228027	38.980078	83.176890	37.999856
65060		-1.817698	9.871219	13.224724	4.539687	4.344942	-2.456946	-0.398193	-0.038574	-0.208984	49.131094	85.950185	45.578531
65061		5.341107	10.414122	7.660576	3.128624	4.575741	-4.197247	-0.377686	-0.044189	-0.184082	92.493554	89.302338	87.161711
65062		-22.216704	14.421093	15.969269	1.415310	4.291206	-5.076597	-0.359131	-0.037109	-0.161865	-138.000817	86.667711	-144.130676
65063		-18.792611	11.061250	18.621912	0.208560	1.314686	-4.247398	-0.322510	-0.017334	-0.159912	-124.620450	84.325957	-130.834392
65064		-12.552349	10.598207	20.433101	-0.355102	-0.931897	-3.665995	-0.326416	-0.020264	-0.153564	-111.873736	82.719378	-117.805861
65065		-7.263042	4.905689	14.374905	-0.157727	-2.425718	-2.939324	-0.319092	-0.005127	-0.147461	-99.058180	81.457615	-104.780273
65066		-1.123193	4.551921	9.083334	0.339138	-3.104226	-2.228732	-0.310791	0.005615	-0.156006	-87.330823	80.276332	-93.104065
65067		1.967700	5.033089	6.176066	0.558542	-3.187792	-1.680294	-0.307861	0.012207	-0.155029	-77.740351	79.079194	-83.684881
65068		2.523316	5.424683	5.069636	0.562153	-3.041346	-1.041089	-0.303467	0.004150	-0.179688	-69.947784	78.018700	-76.067068
65069		2.250017	5.901048	4.717928	0.374972	-2.858486	-0.334729	-0.303223	0.020264	-0.167236	-63.236245	77.189425	-69.418399
65070		1.720066	5.448477	4.942109	0.126873	-2.697628	0.434815	-0.299561	0.015625	-0.176270	-56.846582	76.631398	-62.937171
65071		0.992030	4.512788	5.422793	-0.076416	-2.600792	1.243636	-0.293457	0.004883	-0.185059	-50.144809	76.315985	-56.002234
65072		0.051407	3.441310	6.111090	-0.186924	-2.580779	2.027685	-0.292236	0.002197	-0.192139	-42.592280	76.134099	-48.120410
65073		-0.885752	2.787551	6.837085	-0.254966	-2.635612	2.678829	-0.294922	-0.000488	-0.203125	-34.133183	75.900997	-39.256081
65074		-2.096117	2.106834	7.631040	-0.312712	-2.796413	3.142674	-0.288818	-0.010742	-0.208984	-25.074614	75.392504	-29.726036
65075		-3.396241	1.520309	8.583627	-0.361959	-3.069950	3.445034	-0.279053	-0.034912	-0.221680	-16.121840	74.436595	-20.243286
65076		-4.579722	1.000798	9.350685	-0.403982	-3.445046	3.582909	-0.287109	-0.053223	-0.239502	-8.065342	72.928162	-11.613305
65077		-5.457704	0.264783	9.736700	-0.421551	-3.887962	3.574281	-0.283203	-0.063477	-0.257813	-1.490565	70.874650	-4.446820
65078		-5.975193	-0.385621	9.942845	-0.361427	-4.349511	3.427689	-0.302246	-0.083008	-0.285889	3.476826	68.341083	1.068005
65079		-6.180100	-0.641345	9.588242	-0.276655	-4.766131	3.178093	-0.316162	-0.096436	-0.313965	6.986465	65.453888	5.051789
65080		-6.148088	-0.376959	9.234898	-0.220137	-5.078376	2.861013	-0.332275	-0.124512	-0.341553	9.332891	62.334786	7.800348
65081		-5.990518	0.056536	8.984148	-0.208771	-5.257531	2.535677	-0.359375	-0.138428	-0.388428	10.825130	59.114312	9.644617
65082		-6.247914	0.364706	9.089189	-0.197036	-5.326118	2.287868	-0.402832	-0.150146	-0.410156	11.792584	55.859116	10.921352
65083		-6.812822	0.889818	9.688455	-0.152709	-5.338590	2.166890	-0.446289	-0.165527	-0.445068	12.497608	52.607548	11.894621
65084		-7.397594	1.841063	10.294765	-0.145908	-5.341025	2.147377	-0.488525	-0.167969	-0.462402	13.061448	49.345229	12.723561
65085		-8.143693	2.701918	11.027227	-0.174390	-5.316129	2.189156	-0.548584	-0.173340	-0.477295	13.534664	46.092503	13.494558
65086		-9.164480	3.507769	11.748612	-0.232399	-5.258082	2.269034	-0.602783	-0.174561	-0.479736	13.941015	42.851407	14.259961
65087		-9.574451	3.853142	12.147720	-0.255166	-5.140749	2.358048	-0.645020	-0.171631	-0.483154	14.314962	39.665336	15.044665
65088		-10.777466	4.425681	13.066753	-0.185279	-4.926149	2.398714	-0.702148	-0.173096	-0.480225	14.700186	36.582645	15.835461
65089		-14.542787	5.895763	15.233056	-0.040818	-4.774974	2.475564	-0.743652	-0.168213	-0.477051	15.146212	33.573859	16.647629
65090		-19.119581	7.582497	16.551882	0.066394	-4.927268	2.702250	-0.791992	-0.162598	-0.453613	15.650820	30.435133	17.522111
65091		-20.690507	8.761684	15.359549	-0.003528	-5.210931	2.985029	-0.825928	-0.154785	-0.435059	16.105391	27.095545	18.465306
65092		-20.283717	8.629706	12.677468	-0.224766	-5.302465	3.180603	-0.873535	-0.152588	-0.411621	16.405412	23.663363	19.458687
65093		-20.074239	7.363032	10.103995	-0.454440	-5.130603	3.278255	-0.907715	-0.140869	-0.386963	16.537807	20.311876	20.500791
65094		-19.979423	5.255975	8.019491	-0.544065	-4.789502	3.294219	-0.934814	-0.133789	-0.373047	16.576657	17.138820	21.583720
65095		-21.002049	3.491340	6.919355	-0.447588	-4.391034	3.216111	-0.955811	-0.119629	-0.363037	16.616165	14.201501	22.670032
65096		-22.576073	2.634647	5.945539	-0.281048	-4.089129	3.026372	-0.984375	-0.117432	-0.350830	16.683051	11.456085	23.683816
65097		-22.776928	1.546318	3.814256	-0.187092	-3.836399	2.663088	-1.004395	-0.110352	-0.337402	16.727171	8.912281	24.525343
65098		-22.353527	-0.780892	1.038134	-0.053572	-3.478292	2.072843	-1.029541	-0.104248	-0.320313	16.775939	6.658814	25.091975
65099		-21.849299	-3.294750	-2.128554	0.260147	-2.997205	1.315732	-1.036377	-0.111328	-0.307373	16.949781	4.796868	25.315101
65100		-21.547778	-5.150545	-4.386106	0.793753	-2.383816	0.501524	-1.050537	-0.117432	-0.298340	17.397831	3.405422	25.184658
65101		-21.465571	-4.941613	-5.106702	1.336218	-1.766117	-0.227189	-1.051025	-0.124268	-0.285645	18.143631	2.481715	24.750020
65102		-21.375412	-2.409936	-4.671233	1.598988	-1.240128	-0.915224	-1.059570	-0.135010	-0.266846	19.034004	1.974870	24.024642
65103		-18.438501	1.504874	-2.822251	1.433334	-0.793978	-1.567896	-1.049316	-0.157227	-0.270752	19.824429	1.844909	23.024326
65104		-17.590593	7.091680	-3.850988	0.021887	0.734463	-1.933481	-1.044678	-0.171631	-0.270508	19.804320	2.616856	22.122829
65105		-20.355163	6.851404	-13.545153	-1.732310	2.234870	-2.560781	-1.026123	-0.171875	-0.281006	18.755874	4.310225	21.157716
65106		-2.183746	-4.198053	-8.247628	-2.146889	3.491728	-2.480059	-1.003662	-0.163330	-0.311523	17.458422	6.654836	20.424440
65107		-1.027337	2.240386	7.856515	-1.438697	4.875442	-1.223427	-0.971436	-0.164795	-0.332764	16.657491	9.531145	20.573925
65108		-13.187958	11.073096	18.905083	-1.121478	4.679288	-0.584791	-0.953125	-0.163818	-0.342285	16.100849	12.199333	21.015219
65109		-14.812078	3.366403	15.631764	-1.343161	3.795696	-1.172676	-0.926514	-0.156006	-0.367432	15.319640	14.474922	20.954382
65110		-10.530378	-8.134714	13.608768	-0.879716	3.605512	-0.964478	-0.907715	-0.152344	-0.381592	14.819130	16.615278	20.956886
65111		-13.715280	-2.125904	16.994660	-0.422571	3.258108	-0.755572	-0.891113	-0.158936	-0.384766	14.596583	18.530900	21.013472
65112		-12.570198	-0.080045	15.762396	-0.321084	2.436519	-0.911478	-0.873535	-0.150391	-0.397949	14.359875	20.015431	20.846292
65113		-6.615951	3.593524	9.986760	-0.212845	2.053287	-0.751459	-0.860107	-0.155273	-0.402832	14.192046	21.261832	20.709052
65114		-5.685659	5.949806	8.543344	-0.220389	2.099872	-0.645104	-0.846924	-0.159668	-0.400146	14.041522	22.521251	20.637682
65115		-7.334841	3.215511	10.160379	-0.312471	2.007130	-0.706951	-0.833008	-0.148193	-0.404297	13.814750	23.735042	20.509793
65116		-19.104656	6.544286	18.356680	-0.720605	1.822932	-1.207073	-0.817871	-0.146729	-0.412842	13.210112	24.914707	20.038359
65117		-8.280622	-5.827894	12.011856	-0.450755	0.085572	-0.487858	-0.812988	-0.148193	-0.414551	12.832079	25.025539	19.748716
65118		-2.173594	5.182660	7.310522	-0.394451	0.490947	-0.410159	-0.810547	-0.141357	-0.414307	12.528963	25.354322	19.562203
65119		-6.880706	0.938677	10.299902	-0.358072	0.223898	-0.318798	-0.809814	-0.152588	-0.423096	12.253938	25.518884	19.393714
65120		-4.863689	0.296786	9.877688	-0.265193	0.126975	-0.213044	-0.812256	-0.152832	-0.425049	12.053953	25.618402	19.277037
65121		-4.624870	1.950537	9.254654	-0.189751	0.050686	-0.124346	-0.806152	-0.145508	-0.420166	11.916565	25.661665	19.205000
65122		-4.899262	1.353963	9.283300	-0.124832	0.061144	-0.084968	-0.804443	-0.145996	-0.424805	11.827259	25.708601	19.158729
65123		-4.531744	1.686549	8.956134	-0.111569	0.034322	-0.053862	-0.807373	-0.149658	-0.425049	11.752603	25.734213	19.128234
65124		-4.162747	2.240239	8.785764	-0.085747	0.040139	-0.055617	-0.806152	-0.151123	-0.417725	11.692320	25.765789	19.097363
65125		-4.450534	1.605744	9.015505	-0.077266	0.063048	-0.048822	-0.812012	-0.145996	-0.419922	11.640227	25.806877	19.073626
65126		-4.489695	1.698162	8.935128	-0.052701	0.065970	-0.039983	-0.803467	-0.139404	-0.417969	11.604504	25.851031	19.055738
65127		-4.461410	1.518722	9.052636	-0.034421	0.076753	-0.031293	-0.806641	-0.142822	-0.416504	11.582431	25.897766	19.044614
65128		-4.459873	1.556911	9.007089	-0.008135	0.087367	-0.022542	-0.806885	-0.143799	-0.416016	11.578140	25.951853	19.040290
65129		-4.453599	1.914170	8.863277	-0.005636	0.088263	-0.010587	-0.803955	-0.143555	-0.422852	11.578839	26.002664	19.043544
65130		-4.497790	1.938353	8.763422	-0.014790	0.071067	-0.000579	-0.807617	-0.136230	-0.428955	11.575830	26.045018	19.050842
65131		-4.487649	1.850556	8.750830	-0.026329	0.057213	0.001353	-0.805176	-0.143555	-0.415039	11.566208	26.077029	19.057579
65132		-4.516999	1.784294	8.723189	-0.033054	0.048002	0.008222	-0.802246	-0.147217	-0.422852	11.553873	26.105374	19.067422
65133		-4.403798	1.862603	8.686320	-0.037075	0.036148	0.007205	-0.802490	-0.142334	-0.427979	11.538520	26.124890	19.075115
65134		-4.402177	1.934455	8.703534	-0.040576	0.033863	0.006119	-0.803223	-0.140381	-0.424561	11.520512	26.145490	19.081828
65135		-4.376927	1.812635	8.692046	-0.045609	0.026753	0.007206	-0.806152	-0.141113	-0.424072	11.499742	26.159737	19.088314
65136		-4.411628	1.795233	8.755951	-0.047223	0.029446	0.002432	-0.797363	-0.145020	-0.426270	11.476671	26.178227	19.092147
65137		-4.464066	1.828988	8.710561	-0.048128	0.026281	0.003377	-0.801758	-0.132813	-0.420898	11.453372	26.192649	19.096166
65138		-4.414539	1.806987	8.704844	-0.054828	0.016669	0.002110	-0.810791	-0.142090	-0.422363	11.425143	26.203952	19.098166
65139		-4.428805	1.871253	8.685608	-0.063446	0.008633	0.003896	-0.809570	-0.146484	-0.422119	11.392221	26.208407	19.100266
65140		-4.469796	1.887877	8.670882	-0.069685	0.003401	0.005001	-0.799561	-0.135986	-0.430176	11.355546	26.211881	19.102394
65141		-4.419047	1.900684	8.646356	-0.084922	-0.015602	0.003703	-0.809570	-0.148193	-0.410645	11.308921	26.202746	19.101325
65142		-4.340164	1.902454	8.689709	-0.088428	-0.017877	0.002617	-0.807617	-0.135010	-0.426514	11.259687	26.194487	19.099302
65143		-4.350649	1.869808	8.764214	-0.087638	-0.018919	-0.002206	-0.804443	-0.142822	-0.430664	11.209698	26.184146	19.094138
65144		-4.350762	1.841559	8.817076	-0.088600	-0.008971	-0.002489	-0.803955	-0.138184	-0.427246	11.159462	26.181406	19.090043
65145		-4.323475	1.823382	8.885892	-0.087075	0.007995	0.000456	-0.805176	-0.138916	-0.422607	11.112005	26.185892	19.089885
65146		-4.355563	1.822165	8.900577	-0.087547	0.015757	0.003176	-0.801270	-0.140625	-0.424561	11.065292	26.196373	19.092386
65147		-4.395473	1.820357	8.855430	-0.091307	0.029668	0.012610	-0.810303	-0.140381	-0.428223	11.019941	26.211713	19.102488
65148		-4.407185	1.734415	8.917225	-0.077517	0.048680	0.005595	-0.808105	-0.135010	-0.424072	10.981422	26.240400	19.110505
65149		-4.382281	1.924041	8.890862	-0.068103	0.055688	-0.000985	-0.798096	-0.137939	-0.423584	10.946993	26.271870	19.115223
65150		-4.257104	1.962640	8.993832	-0.078227	0.091227	-0.007267	-0.797852	-0.127441	-0.417969	10.906779	26.325851	19.120292
65151		-4.311315	1.866097	8.976116	-0.058654	0.130099	-0.035726	-0.805664	-0.133301	-0.427734	10.872057	26.402954	19.112141
65152		-3.395198	1.686444	9.657876	-0.019432	0.222245	-0.040249	-0.800537	-0.133789	-0.427246	10.863340	26.534170	19.112239
65153		-4.071638	1.804287	9.286777	-0.026197	0.381632	-0.047158	-0.805908	-0.125977	-0.434082	10.857547	26.754040	19.127209
65154		-4.082272	1.481748	9.268558	0.033199	0.469347	-0.060557	-0.790039	-0.138672	-0.429932	10.886738	27.026398	19.144443
65155		-3.946035	1.453373	9.478241	0.045581	0.591113	-0.068894	-0.787354	-0.133789	-0.429688	10.927711	27.366469	19.171473
65156		-4.008028	1.290638	9.442649	0.075829	0.717449	-0.088438	-0.782959	-0.131836	-0.433350	10.987674	27.781324	19.202047
65157		-3.982280	1.385029	9.570173	0.103427	0.858690	-0.104200	-0.782471	-0.137695	-0.430420	11.067658	28.275693	19.240822
65158		-3.824635	1.557136	9.649990	0.127780	1.020538	-0.129881	-0.769043	-0.138428	-0.433838	11.164132	28.865365	19.284554
65159		-3.805236	1.686584	9.734474	0.163146	1.209326	-0.172323	-0.769531	-0.138672	-0.430664	11.280647	29.564269	19.326625
65160		-3.785217	1.826209	9.770839	0.168473	1.427172	-0.227856	-0.754639	-0.145020	-0.427734	11.397662	30.393154	19.362937
65161		-3.644060	2.057980	9.853254	0.166922	1.674161	-0.305454	-0.745117	-0.151123	-0.442871	11.506356	31.368078	19.383490
65162		-3.644348	2.023120	9.978944	0.141593	1.963210	-0.399022	-0.740234	-0.148193	-0.432861	11.589745	32.517257	19.383325
65163		-3.586560	1.815202	10.031346	0.107866	2.276155	-0.502565	-0.718506	-0.152344	-0.442383	11.640474	33.852719	19.358515
65164		-3.370735	1.667821	10.293519	0.062588	2.651310	-0.619915	-0.703613	-0.145264	-0.435791	11.649262	35.413424	19.306749
65165		-3.160293	1.549506	10.392679	0.009064	3.127201	-0.757391	-0.685303	-0.151611	-0.441895	11.609034	37.255927	19.225875
65166		-2.942705	1.742743	10.608787	-0.055584	3.707887	-0.915348	-0.660645	-0.155518	-0.442383	11.508697	39.443375	19.111753
65167		-2.834749	2.098562	10.608972	-0.084562	4.438364	-1.104508	-0.636963	-0.156006	-0.443115	11.361569	42.061408	18.956807
65168		-3.191693	2.959454	10.673706	-0.125506	5.241394	-1.343892	-0.601318	-0.144287	-0.443848	11.129067	45.157717	18.720694
65169		-3.832609	3.805744	10.799043	-0.148979	6.076201	-1.634867	-0.559326	-0.145996	-0.441162	10.767997	48.753717	18.340235
65170		-5.279897	3.644028	11.016465	-0.142345	6.905741	-1.898136	-0.505615	-0.142578	-0.420166	10.261195	52.842857	17.788770
65171		-9.166387	3.055556	12.162625	-0.049582	7.613038	-1.999940	-0.459473	-0.136230	-0.424072	9.699274	57.337472	17.135656
65172		-13.964281	2.658475	14.623113	0.258681	7.939070	-1.894043	-0.420654	-0.146973	-0.398193	9.301262	62.003075	16.500389
65173		-14.275541	0.772131	13.567916	1.000068	7.881492	-1.720706	-0.371094	-0.151123	-0.370117	9.375004	66.619000	15.943704
65174		-14.574480	1.346053	13.330447	2.093367	7.720036	-1.485753	-0.328125	-0.149170	-0.342041	10.365688	71.122372	15.716789
65175		-15.785699	1.442307	13.141965	3.304788	7.266717	-1.364063	-0.293945	-0.165283	-0.308350	12.448830	75.358086	15.911191
65176		-15.532439	4.020890	13.647483	4.263560	6.553388	-1.498440	-0.268555	-0.178223	-0.274170	15.165113	79.208429	16.187858
65177		-13.670921	6.924003	14.894564	4.792170	5.588064	-1.894102	-0.232422	-0.194336	-0.230469	16.918501	82.585331	15.179973
65178		-4.093200	9.015596	14.728849	4.728363	4.690167	-2.501169	-0.213867	-0.191162	-0.185059	12.950863	85.554718	8.466391
65179		3.156248	13.354892	13.483098	3.599529	4.515995	-3.571239	-0.182373	-0.192871	-0.163086	-28.330133	88.019136	-34.932860
65180		-4.398095	13.953169	10.395345	1.625600	4.580039	-4.762414	-0.157227	-0.179199	-0.128418	-102.910140	86.243863	-110.510178
65181		-21.015853	13.657919	21.116098	0.222486	1.904267	-3.785879	-0.135010	-0.171143	-0.122070	-108.198014	83.857742	-115.947117
65182		-13.375615	11.603110	23.724906	-0.540357	-0.772467	-2.991712	-0.129639	-0.160889	-0.131836	-101.344699	82.311527	-108.735390
65183		-6.546509	5.318684	16.906848	-0.172895	-2.519643	-1.918190	-0.137207	-0.152100	-0.131836	-90.613712	81.363320	-97.798063
65184		0.189687	5.481067	10.741554	0.330249	-3.391310	-0.969133	-0.149170	-0.155273	-0.157959	-78.500523	80.622967	-85.729947
65185		2.563550	4.844815	7.787989	0.564792	-3.579711	-0.353650	-0.154297	-0.157715	-0.164795	-67.135738	79.818426	-74.529840
65186		2.389698	4.803108	6.437898	0.632645	-3.569925	0.315507	-0.166016	-0.162354	-0.189941	-56.621578	79.009607	-64.207319
65187		1.897597	5.410450	5.657934	0.453610	-3.492974	0.928880	-0.181396	-0.183594	-0.203613	-46.922437	78.185289	-54.581733
65188		1.025639	4.946842	5.683577	0.149203	-3.408177	1.503174	-0.200684	-0.192871	-0.219971	-37.809493	77.317540	-45.349083
65189		-0.363439	4.063367	6.263844	-0.131933	-3.348410	2.051302	-0.233643	-0.211182	-0.229248	-29.157814	76.362108	-36.390246
65190		-1.820650	3.098903	6.986474	-0.320292	-3.383915	2.551992	-0.263184	-0.229004	-0.250732	-20.844903	75.215582	-27.631083
65191		-2.997471	2.326043	7.737421	-0.426699	-3.532440	2.944733	-0.293457	-0.232178	-0.257080	-13.136560	73.768789	-19.382017
65192		-4.253262	1.542612	8.575415	-0.437714	-3.768453	3.187254	-0.326904	-0.247070	-0.260986	-6.350506	71.940814	-12.023756
65193		-5.144249	0.729006	9.079340	-0.390688	-4.084088	3.305143	-0.360840	-0.268799	-0.284424	-0.719869	69.718613	-5.829971
65194		-5.685851	-0.038869	9.358449	-0.262663	-4.415734	3.301847	-0.413574	-0.276367	-0.287109	3.752720	67.130838	-0.864291
65195		-6.073174	-0.363469	9.325415	-0.087974	-4.728397	3.203629	-0.458008	-0.294922	-0.288818	7.177837	64.257577	2.945092
65196		-5.974641	-0.050714	9.187707	0.040871	-4.961070	3.052183	-0.510742	-0.304932	-0.286377	9.749532	61.181005	5.807033
65197		-6.008872	0.538440	9.309564	0.070858	-5.086878	2.853312	-0.552734	-0.313721	-0.286133	11.608525	58.013515	7.911562
65198		-6.754200	1.291489	9.797328	0.034978	-5.153044	2.662857	-0.589355	-0.319824	-0.270996	12.931902	54.796899	9.471420
65199		-7.254273	1.766436	10.096916	-0.054124	-5.204060	2.557213	-0.635254	-0.324951	-0.262451	13.882140	51.556656	10.693609
65200		-7.269637	1.718441	10.067516	-0.129508	-5.204517	2.511840	-0.677734	-0.326904	-0.250000	14.597152	48.304902	11.720123
65201		-7.667316	1.607510	10.369027	-0.157363	-5.094689	2.482839	-0.713379	-0.322510	-0.215576	15.171811	45.118432	12.629681
65202		-8.760560	2.220779	10.817156	-0.165183	-4.940896	2.474405	-0.742432	-0.317383	-0.199951	15.663647	42.004993	13.475788
65203		-9.167381	3.250840	11.495084	-0.241864	-4.717587	2.422600	-0.763916	-0.305176	-0.173828	16.036758	39.025768	14.259347
65204		-10.956921	4.203257	13.264277	-0.296907	-4.469727	2.390319	-0.777588	-0.290527	-0.150635	16.332096	36.177083	15.017007
65205		-14.434692	4.930256	15.181463	-0.277420	-4.430644	2.510303	-0.793701	-0.275146	-0.140625	16.632073	33.334865	15.817439
65206		-16.815448	6.425802	15.481456	-0.283749	-4.641301	2.752006	-0.791504	-0.262695	-0.126953	16.932163	30.326230	16.688959
65207		-17.270655	7.802741	14.007860	-0.507346	-4.796386	2.937585	-0.789063	-0.250000	-0.120361	17.085589	27.206065	17.606422
65208		-18.162001	8.155861	12.380833	-0.851581	-4.738727	3.029060	-0.794922	-0.248779	-0.125488	17.014328	24.094536	18.562358
65209		-19.212689	7.248349	10.628864	-1.093422	-4.565140	3.113519	-0.798096	-0.239258	-0.144531	16.783462	21.073392	19.586033
65210		-20.170746	5.427185	8.949233	-1.104844	-4.345161	3.209525	-0.802979	-0.239990	-0.156982	16.526285	18.155047	20.697309
65211		-21.091701	3.493569	7.501127	-0.878982	-4.150813	3.276553	-0.818359	-0.241211	-0.181396	16.363988	15.342697	21.873053
65212		-21.538173	1.705119	5.513006	-0.538467	-3.963483	3.177637	-0.836914	-0.244385	-0.197510	16.333946	12.646079	23.013235
65213		-21.568505	-0.420286	2.905271	-0.168197	-3.678754	2.849124	-0.860596	-0.242676	-0.201172	16.435825	10.163514	24.002984
65214		-21.797240	-3.107407	0.208393	0.248622	-3.274094	2.230353	-0.871338	-0.241455	-0.204346	16.690926	7.997513	24.700407
65215		-22.557577	-5.752052	-1.585919	0.740697	-2.807831	1.354638	-0.883301	-0.241943	-0.200439	17.151935	6.232660	24.975540
65216		-23.475894	-6.292496	-2.536045	1.128645	-2.415291	0.384703	-0.895020	-0.258789	-0.216797	17.780847	4.844382	24.768118
65217		-23.709403	-4.126948	-3.089426	1.124317	-2.085191	-0.639578	-0.896973	-0.267578	-0.201416	18.372974	3.822520	24.045719
65218		-22.957013	-2.037584	-3.788270	0.751303	-1.724164	-1.562004	-0.898193	-0.271729	-0.208496	18.734301	3.170310	22.879463
65219		-21.748006	-1.157538	-4.257847	0.425614	-1.304838	-2.208436	-0.888428	-0.287109	-0.204834	18.904678	2.871041	21.437329
65220		-16.793369	3.062822	-4.340162	-0.109795	0.000568	-2.412731	-0.871338	-0.286133	-0.206055	18.772890	3.318855	20.125916
65221		-19.204991	3.848326	-15.233311	-0.631112	1.668117	-2.420890	-0.844238	-0.299561	-0.215088	18.343123	4.666612	19.111453
65222		3.071329	2.018358	-6.672364	-0.695707	3.198623	-1.767374	-0.835449	-0.292725	-0.233643	17.907534	6.725739	18.716048
65223		-3.633275	14.205627	8.253772	-1.006212	4.576363	-0.789533	-0.804932	-0.287598	-0.246338	17.384652	9.361740	19.082105
65224		-9.112357	15.974899	15.146558	-1.631093	4.314764	-1.150633	-0.769043	-0.277344	-0.247070	16.469317	11.921038	19.171556
65225		-12.709325	-0.898019	14.488694	-1.397555	3.803761	-1.155321	-0.754150	-0.276611	-0.264160	15.663034	14.198636	19.136421
65226		-12.387764	-5.882985	14.531268	-0.825182	3.628403	-0.724700	-0.721191	-0.268066	-0.271240	15.234827	16.315834	19.294475
65227		-15.004373	-3.805546	18.704614	-0.457021	2.994647	-0.801999	-0.710205	-0.269531	-0.271973	14.976144	18.092230	19.296801
65228		-11.299961	0.165747	15.176917	-0.193894	2.200868	-0.776099	-0.696289	-0.272461	-0.271729	14.831234	19.428596	19.184206
65229		-6.157067	4.698639	9.687009	-0.019190	2.034659	-0.539123	-0.675537	-0.266357	-0.277100	14.822169	20.634722	19.182534
65230		-6.353544	4.402176	9.930167	-0.011590	2.064645	-0.399956	-0.667969	-0.272461	-0.272461	14.849009	21.840617	19.268495
65231		-7.242203	-0.567007	11.228566	-0.026100	1.932064	-0.508663	-0.662842	-0.270020	-0.270020	14.836798	22.985453	19.269125
65232		-7.721827	-1.073496	11.281941	-0.012449	1.557158	-0.548630	-0.646240	-0.261475	-0.271484	14.798533	23.932221	19.185195
65233		-12.996155	5.956485	14.171341	-0.209884	1.323706	-0.702771	-0.641846	-0.265381	-0.268799	14.590998	24.768105	18.967452
65234		-8.635323	4.004162	9.965052	-0.547135	0.204534	-0.535822	-0.634033	-0.268311	-0.272217	14.154752	24.961986	18.670285
65235		-3.595319	0.958939	9.159632	-0.327549	0.374847	-0.349857	-0.632324	-0.259033	-0.271484	13.902301	25.219049	18.511621
65236		-6.534413	1.149925	10.832707	-0.152890	0.295022	-0.154811	-0.637451	-0.259033	-0.277100	13.794652	25.408634	18.459642
65237		-3.565734	2.878378	7.682084	-0.163129	0.190218	-0.183119	-0.630127	-0.256836	-0.265137	13.666847	25.539510	18.373982
65238		-5.085225	2.458200	9.326587	-0.139795	0.168591	-0.140788	-0.630127	-0.258057	-0.268799	13.561592	25.656633	18.310776
65239		-4.125731	1.827037	8.921098	-0.137030	0.158524	-0.141449	-0.622070	-0.254150	-0.279053	13.457240	25.763974	18.245443
65240		-4.383814	2.362652	8.704210	-0.120112	0.161223	-0.127815	-0.633057	-0.249512	-0.276611	13.365807	25.875061	18.188611
65241		-4.689966	1.795178	8.927290	-0.104061	0.165905	-0.115702	-0.626709	-0.264893	-0.280273	13.287355	25.982928	18.139823
65242		-4.493482	2.048374	8.881086	-0.078221	0.143650	-0.085819	-0.626709	-0.254639	-0.275879	13.229854	26.078559	18.106060
65243		-4.538026	2.063658	8.838116	-0.062196	0.143158	-0.071186	-0.625244	-0.251465	-0.281738	13.185812	26.167820	18.081282
65244		-4.477880	1.916587	8.761437	-0.057210	0.133483	-0.066571	-0.623047	-0.249756	-0.275146	13.144785	26.255212	18.057786
65245		-4.459067	2.049968	8.715411	-0.057525	0.121682	-0.061781	-0.627441	-0.250488	-0.280762	13.104485	26.331232	18.035564
65246		-4.467204	2.023863	8.682266	-0.071297	0.099265	-0.064548	-0.623047	-0.257813	-0.270508	13.053607	26.399227	18.008201
65247		-4.451081	1.949841	8.680437	-0.084550	0.074714	-0.064300	-0.617676	-0.253662	-0.283203	12.993987	26.449320	17.977462
65248		-4.471398	2.026354	8.605801	-0.090216	0.061646	-0.065685	-0.618652	-0.252441	-0.275879	12.929416	26.496398	17.943812
65249		-4.514495	2.185005	8.480438	-0.103685	0.045892	-0.070739	-0.627197	-0.258545	-0.288818	12.855090	26.531153	17.904784
65250		-4.440151	2.221163	8.419444	-0.123915	0.033522	-0.078404	-0.615479	-0.257080	-0.283936	12.765778	26.564052	17.859050
65251		-4.427240	2.213288	8.458772	-0.138984	0.030722	-0.093273	-0.613281	-0.250244	-0.280518	12.663865	26.593062	17.803658
65252		-4.502147	1.966058	8.629938	-0.144912	0.032137	-0.094326	-0.616211	-0.252197	-0.276367	12.557889	26.627031	17.747644
65253		-4.480683	1.922833	8.750090	-0.140857	0.030995	-0.091971	-0.613525	-0.251221	-0.282959	12.455165	26.655852	17.692957
65254		-4.557149	1.712267	8.898278	-0.121135	0.039481	-0.078449	-0.616699	-0.246094	-0.278809	12.367601	26.691794	17.647745
65255		-4.572057	1.769153	8.796259	-0.108907	0.035536	-0.057056	-0.620117	-0.252197	-0.287354	12.293182	26.718734	17.615427
65256		-4.533027	1.700204	8.834412	-0.101319	0.030630	-0.044848	-0.618652	-0.256348	-0.282959	12.225788	26.745517	17.589945
65257		-4.463905	1.829959	8.760693	-0.091493	0.025196	-0.043490	-0.613525	-0.255371	-0.287109	12.164481	26.764957	17.564649
65258		-4.416399	2.063246	8.725107	-0.094509	0.047069	-0.045809	-0.611572	-0.246094	-0.281006	12.101650	26.801003	17.540706
65259		-4.429230	1.938860	8.669863	-0.091566	0.056754	-0.050193	-0.612305	-0.247803	-0.283936	12.040262	26.838879	17.515376
65260		-4.558628	1.916534	8.743190	-0.088979	0.061117	-0.050595	-0.606445	-0.251465	-0.290771	11.980027	26.883306	17.490213
65261		-4.628001	1.807301	8.772870	-0.078129	0.056565	-0.045677	-0.611084	-0.243896	-0.293213	11.927531	26.920494	17.467592
65262		-4.554032	1.793711	8.783008	-0.065504	0.062620	-0.038829	-0.612793	-0.247314	-0.282715	11.884110	26.964327	17.449925
65263		-4.650757	1.787475	8.791139	-0.058218	0.057089	-0.033224	-0.605713	-0.253418	-0.287109	11.846543	27.000310	17.435129
65264		-4.588074	1.827427	8.750271	-0.052374	0.061339	-0.026497	-0.614746	-0.246094	-0.280273	11.814034	27.041950	17.424980
65265		-4.625562	1.883839	8.689548	-0.047831	0.053756	-0.025010	-0.614990	-0.252686	-0.286865	11.784529	27.075086	17.414862
65266		-4.578600	1.862251	8.683161	-0.046350	0.048228	-0.022279	-0.604736	-0.247070	-0.287842	11.755866	27.108864	17.405598
65267		-4.615585	1.807753	8.626761	-0.040906	0.048073	-0.017894	-0.616211	-0.244873	-0.286865	11.732005	27.137974	17.399178
65268		-4.546410	1.832045	8.697017	-0.043175	0.039625	-0.022853	-0.608643	-0.254883	-0.286621	11.704461	27.166981	17.388393
65269		-4.571259	1.726370	8.691490	-0.033552	0.042110	-0.020381	-0.612793	-0.252441	-0.292725	11.683721	27.193029	17.379594
65270		-4.559139	1.820986	8.775421	-0.041560	0.042170	-0.020508	-0.613525	-0.246338	-0.290527	11.657905	27.223175	17.370589
65271		-4.493407	1.937491	8.613033	-0.065133	0.031689	-0.025606	-0.611816	-0.247559	-0.280029	11.616919	27.243971	17.357104
65272		-4.534615	2.137676	8.610410	-0.084887	0.023704	-0.031110	-0.604004	-0.245605	-0.281738	11.562098	27.264948	17.338971
65273		-4.472019	1.855521	8.753489	-0.095895	0.025411	-0.038080	-0.603027	-0.248291	-0.292236	11.499474	27.283627	17.316751
65274		-4.468715	2.014415	8.878026	-0.097856	0.046813	-0.038497	-0.610107	-0.243896	-0.287842	11.436425	27.318371	17.296872
65275		-4.260967	2.107424	8.982332	-0.112104	0.091067	-0.034918	-0.612061	-0.248291	-0.283936	11.369227	27.373523	17.284963
65276		-4.239060	2.051732	9.127317	-0.099147	0.159854	-0.081179	-0.601807	-0.240723	-0.288330	11.299539	27.476497	17.252316
65277		-3.807187	1.269374	9.687793	-0.037615	0.272666	-0.058447	-0.604980	-0.241943	-0.282227	11.278642	27.636302	17.248323
65278		-4.178053	1.727824	9.433125	0.002736	0.430549	-0.059054	-0.603516	-0.240723	-0.288818	11.289563	27.888783	17.263808
65279		-4.031075	1.356975	9.545302	0.021985	0.554165	-0.069355	-0.599365	-0.248047	-0.292236	11.316374	28.207972	17.288715
65280		-4.086183	1.471875	9.435282	0.041216	0.713140	-0.077155	-0.596191	-0.241943	-0.294189	11.361360	28.621141	17.329176
65281		-4.209914	1.304776	9.450829	0.073393	0.851857	-0.083130	-0.594971	-0.238770	-0.283936	11.432634	29.109055	17.384526
65282		-4.290175	1.517941	9.433480	0.102536	0.998457	-0.091358	-0.586182	-0.247314	-0.286865	11.527911	29.683863	17.454691
65283		-4.125054	1.746728	9.503094	0.121381	1.149565	-0.121833	-0.587646	-0.241943	-0.297852	11.636106	30.343171	17.526951
65284		-4.165770	1.859721	9.462384	0.125504	1.317756	-0.165640	-0.572266	-0.241211	-0.290039	11.744918	31.105411	17.595115
65285		-4.166035	1.937662	9.383998	0.119037	1.500132	-0.228746	-0.569092	-0.249512	-0.287109	11.843924	31.973623	17.649214
65286		-4.059920	2.011051	9.407357	0.102370	1.717760	-0.309318	-0.556641	-0.248291	-0.281738	11.922337	32.976744	17.682129
65287		-4.096800	2.030817	9.428836	0.069827	1.965666	-0.396580	-0.552734	-0.245117	-0.280762	11.971184	34.125691	17.693589
65288		-3.931571	1.926216	9.631912	0.033053	2.253956	-0.492063	-0.533936	-0.253906	-0.280762	11.985795	35.450839	17.682327
65289		-3.970838	1.952308	10.121154	-0.009814	2.614854	-0.593704	-0.525391	-0.251221	-0.278564	11.965703	36.987078	17.653605
65290		-3.487844	1.696964	9.725295	-0.030042	3.061482	-0.701096	-0.508789	-0.248291	-0.279541	11.926121	38.789404	17.613769
65291		-3.689206	2.603788	9.938506	-0.058317	3.596728	-0.856125	-0.483154	-0.248291	-0.272461	11.847792	40.907085	17.539782
65292		-4.041634	2.747351	9.892602	-0.087931	4.172698	-1.032875	-0.467773	-0.248535	-0.264404	11.715619	43.371043	17.414748
65293		-4.685720	2.441044	10.184663	-0.067600	4.775389	-1.213112	-0.441895	-0.238037	-0.260254	11.549984	46.191148	17.231102
65294		-5.198091	2.516276	10.308616	-0.062114	5.392794	-1.367968	-0.410156	-0.232910	-0.254395	11.343967	49.377389	16.998140
65295		-6.888840	2.368563	11.110781	0.010241	5.973544	-1.442170	-0.385742	-0.230957	-0.230713	11.174293	52.895491	16.769584
65296		-10.271547	2.685792	12.195240	0.187792	6.410222	-1.453476	-0.345947	-0.232666	-0.213623	11.130768	56.661844	16.581913
65297		-12.844577	1.337039	12.654457	0.570088	6.502836	-1.323580	-0.318115	-0.236572	-0.195313	11.433765	60.464101	16.551148
65298		-11.971636	1.681760	12.088290	1.243787	6.479318	-1.299541	-0.288330	-0.235352	-0.173340	12.206160	64.251685	16.615720
65299		-12.009716	1.628547	11.201919	2.063318	6.351047	-1.244274	-0.263672	-0.235352	-0.142822	13.658290	67.957847	16.907618
65300		-13.289167	1.838491	11.082071	2.975865	6.098076	-1.283035	-0.236084	-0.244385	-0.120605	15.845937	71.524664	17.418755
65301		-13.263220	3.262886	11.000688	3.756197	5.647251	-1.437985	-0.215820	-0.248047	-0.079346	18.559580	74.859249	18.001816
65302		-13.326145	5.605996	11.956189	4.273630	4.966024	-1.716123	-0.189941	-0.258301	-0.044922	21.177931	77.869563	18.173416
65303		-8.745322	8.632258	12.077476	4.155136	4.183666	-2.238902	-0.165527	-0.250244	-0.012207	21.911324	80.570591	16.493966
65304		-3.759055	10.984757	11.587476	3.184636	3.841405	-2.948442	-0.131592	-0.250732	0.014893	17.820777	83.217352	10.517896
65305		0.976260	8.111892	8.077999	1.853663	3.457857	-3.862821	-0.111816	-0.237549	0.031982	-0.409417	85.543780	-8.864604
65306		-18.169380	9.521169	16.103202	0.912015	1.782850	-3.438354	-0.087402	-0.221191	0.027100	-29.652844	86.033759	-38.710038
65307		-13.215106	9.440029	19.949451	0.099836	-0.897953	-2.815628	-0.065674	-0.212646	0.020996	-42.003868	84.663330	-51.160576
65308		-6.094384	5.484063	13.642780	0.241583	-2.222355	-2.193546	-0.051270	-0.198975	-0.001709	-42.509459	82.873434	-51.811395
65309		0.240375	6.565656	8.019560	0.193218	-2.757762	-1.701809	-0.032959	-0.198730	-0.022217	-40.193730	81.041778	-49.587297
65310		0.841899	5.506731	6.136536	-0.051643	-2.902540	-1.325245	-0.019287	-0.196045	-0.040527	-37.583851	79.267221	-46.912267
65311		-0.513556	4.258471	5.589618	-0.086851	-2.996788	-0.713379	-0.025391	-0.195801	-0.079346	-34.320587	77.635688	-43.533717
65312		-0.171009	4.527099	4.783327	-0.109115	-3.056981	-0.022901	-0.005127	-0.206543	-0.103027	-30.381281	76.144385	-39.429265
65313		0.744490	4.212792	4.229483	-0.182798	-3.050072	0.626740	-0.023926	-0.215332	-0.142090	-26.079472	74.772710	-34.879945
65314		0.496505	3.614543	4.328205	-0.267286	-2.981435	1.220229	-0.031250	-0.217529	-0.170410	-21.535326	73.486254	-30.001424
65315		-0.545318	2.938077	4.672888	-0.307832	-2.919677	1.753480	-0.034668	-0.236084	-0.201172	-16.850990	72.234869	-24.918013
65316		-1.858953	2.256337	5.365574	-0.311850	-2.946887	2.211997	-0.048828	-0.250244	-0.234619	-12.062696	70.909140	-19.687894
65317		-2.909664	1.381378	6.013456	-0.278265	-3.065665	2.578852	-0.068604	-0.264404	-0.257324	-7.361306	69.425213	-14.524052
65318		-4.035271	0.432664	6.682286	-0.167591	-3.255479	2.835071	-0.096191	-0.286865	-0.289063	-2.897406	67.704152	-9.630927
65319		-5.143054	-0.294891	7.152557	-0.007076	-3.509688	2.962914	-0.119629	-0.304443	-0.320068	1.115756	65.718291	-5.261082
65320		-5.758440	-0.342149	7.376369	0.112173	-3.780938	2.965536	-0.156494	-0.325439	-0.354248	4.537145	63.461731	-1.550066
65321		-6.049367	-0.114741	7.421438	0.129155	-4.024821	2.858993	-0.199707	-0.346436	-0.382813	7.256487	60.998738	1.435922
65322		-6.083256	-0.033448	7.288941	0.041536	-4.179825	2.658759	-0.242432	-0.364014	-0.411621	9.277074	58.400621	3.743314
65323		-6.149290	-0.161900	7.152025	-0.085475	-4.238733	2.423717	-0.283447	-0.379883	-0.444580	10.691266	55.767763	5.482807
65324		-6.510177	-0.157311	7.014586	-0.193404	-4.207677	2.195243	-0.332275	-0.384277	-0.469482	11.658138	53.149719	6.802203
65325		-7.326934	0.347919	7.177363	-0.286051	-4.116939	2.031892	-0.383057	-0.384766	-0.483154	12.321894	50.600467	7.850885
65326		-8.606087	1.287296	7.666319	-0.407822	-3.988969	1.974625	-0.431641	-0.391846	-0.482422	12.799137	48.114343	8.782827
65327		-9.317839	2.447568	7.874830	-0.613887	-3.839292	2.000593	-0.483154	-0.392334	-0.496094	13.115554	45.713605	9.694124
65328		-9.567566	3.300943	7.874949	-0.853929	-3.616039	2.050479	-0.522949	-0.382568	-0.494629	13.289825	43.418926	10.634595
65329		-10.957220	3.658671	8.545357	-0.995697	-3.354849	2.147691	-0.567139	-0.378174	-0.505371	13.407329	41.264601	11.652242
65330		-13.548459	4.086559	9.361059	-0.985107	-3.222977	2.380542	-0.603027	-0.367676	-0.505127	13.602197	39.141350	12.823102
65331		-15.333332	4.701987	9.303158	-0.920096	-3.243745	2.708877	-0.634521	-0.367432	-0.502441	13.910736	36.967045	14.174671
65332		-15.834444	5.025716	8.469627	-0.926115	-3.264946	2.992636	-0.675049	-0.357666	-0.503418	14.255573	34.726684	15.663716
65333		-15.510117	4.654806	7.450073	-0.990427	-3.184838	3.135331	-0.715088	-0.337402	-0.499268	14.544962	32.512448	17.206600
65334		-14.700369	3.580404	6.549721	-1.045264	-3.022337	3.145360	-0.746094	-0.331787	-0.495850	14.747160	30.373581	18.735873
65335		-14.783755	2.838016	6.655516	-1.040075	-2.851845	3.075954	-0.765625	-0.313721	-0.487305	14.876502	28.343351	20.209956
65336		-14.893482	2.427462	6.558601	-0.977009	-2.688479	2.975596	-0.795654	-0.305176	-0.500244	14.966942	26.409190	21.617155
65337		-14.196213	2.814851	6.229055	-0.950897	-2.477532	2.830776	-0.811035	-0.296143	-0.487061	14.996658	24.618683	22.945154
65338		-13.700881	2.876030	5.885815	-1.005829	-2.237360	2.631099	-0.840332	-0.281738	-0.494141	14.919266	22.985600	24.174008
65339		-13.176879	2.427206	5.161635	-1.000196	-1.978688	2.397418	-0.849609	-0.262451	-0.495850	14.772775	21.537870	25.293424
65340		-13.106171	1.939761	4.419630	-0.810692	-1.696414	2.221397	-0.873779	-0.257324	-0.495605	14.686482	20.269934	26.345238
65341		-13.373362	1.405083	3.638478	-0.435654	-1.417865	2.088633	-0.883545	-0.242188	-0.497559	14.779806	19.180019	27.353880
65342		-13.030538	0.862913	2.940096	0.063752	-1.147123	1.921567	-0.889893	-0.238770	-0.493896	15.121776	18.258010	28.296671
65343		-13.221926	0.558692	2.746771	0.563420	-0.884990	1.677591	-0.891357	-0.235107	-0.493652	15.702252	17.513862	29.127407
65344		-14.377526	0.684900	3.469251	0.966638	-0.729171	1.360152	-0.903076	-0.244873	-0.488037	16.454558	16.895067	29.788904
65345		-15.651230	1.791869	4.686472	1.103964	-0.812448	0.989423	-0.907471	-0.241455	-0.484375	17.210715	16.285521	30.213097
65346		-14.421540	2.755639	4.586521	0.852660	-1.004428	0.556745	-0.912842	-0.238037	-0.483154	17.739297	15.640924	30.348581
65347		-12.256112	2.644273	3.481458	0.391986	-1.044657	0.092148	-0.916748	-0.243408	-0.476807	17.929525	15.055163	30.209290
65348		-11.889287	4.608194	1.486735	-0.413536	-0.418717	-0.429243	-0.920654	-0.244873	-0.486328	17.612954	14.903336	29.889877
65349		-9.118097	-0.225715	-3.864131	-0.678365	0.376552	-0.892752	-0.906006	-0.229736	-0.493652	17.112218	15.262078	29.449621
65350		-14.295790	-1.185497	-5.831618	-0.732378	1.238356	-1.116894	-0.894775	-0.240723	-0.492432	16.581147	16.129452	29.025948
65351		-13.571053	0.001323	-6.502902	-0.654485	2.141233	-1.266887	-0.871826	-0.233887	-0.500488	16.102031	17.511120	28.657561
65352		1.279947	6.257724	4.916277	-1.041824	2.782800	-1.173486	-0.853760	-0.228516	-0.507324	15.437011	19.232970	28.431352
65353		-11.791807	5.663419	15.077805	-1.035454	2.602405	-1.103816	-0.826416	-0.216064	-0.512207	14.764723	20.837437	28.193543
65354		-9.017692	1.461832	14.812495	-0.757268	2.152238	-0.908257	-0.809570	-0.208496	-0.533936	14.257331	22.166467	27.983328
65355		-9.406881	-4.529880	12.824542	-0.365783	2.023961	-0.938039	-0.786133	-0.204102	-0.521484	13.949400	23.422230	27.723042
65356		-13.663209	0.535831	14.481007	-0.112534	1.586068	-0.667205	-0.783691	-0.209717	-0.517334	13.819549	24.401447	27.554538
65357		-14.947473	7.853709	14.828383	-0.388470	0.927509	-0.690475	-0.764648	-0.204102	-0.530029	13.479705	25.011318	27.267997
65358		-7.919251	4.323531	9.866047	-0.571799	-0.089668	-0.563357	-0.762451	-0.207520	-0.524902	13.002385	25.041375	26.907180
65359		-2.582906	1.452900	8.112602	-0.406328	0.243433	-0.446597	-0.768066	-0.190430	-0.532227	12.668948	25.234292	26.664404
65360		-7.005214	-1.121862	11.560023	-0.186170	0.116914	-0.268559	-0.754395	-0.193848	-0.534668	12.500756	25.339411	26.513401
65361		-3.534350	2.478749	8.102208	-0.169148	0.078247	-0.183649	-0.760254	-0.193115	-0.531738	12.361581	25.405914	26.408937
65362		-4.940057	2.475545	8.979366	-0.128517	0.087965	-0.154578	-0.757080	-0.194092	-0.528320	12.254172	25.480312	26.323853
65363		-4.752759	0.890208	9.788454	-0.035908	0.164802	-0.036573	-0.766357	-0.197998	-0.535400	12.235273	25.577100	26.321932
65364		-4.546944	1.762817	8.326201	-0.106412	0.089740	-0.104778	-0.753174	-0.190430	-0.543457	12.153599	25.646338	26.267720
65365		-4.353870	1.221378	9.234134	-0.063557	0.010768	-0.032493	-0.758301	-0.186768	-0.535156	12.110953	25.656347	26.247545
65366		-4.562065	1.440562	9.364628	-0.049757	0.046415	-0.033186	-0.758301	-0.199219	-0.531738	12.078337	25.692643	26.231886
65367		-4.281987	1.822353	8.891635	-0.045636	0.042932	-0.019647	-0.762451	-0.189697	-0.538330	12.051251	25.719113	26.223951
65368		-4.146733	2.036795	8.786446	-0.049950	0.058213	-0.024624	-0.762451	-0.190430	-0.536621	12.021432	25.760967	26.215119
65369		-4.261750	2.432152	8.523727	-0.063110	0.071829	-0.043435	-0.746582	-0.193848	-0.528076	11.979531	25.806459	26.196164
65370		-4.472097	2.263121	8.574842	-0.086819	0.066925	-0.061228	-0.753662	-0.192627	-0.532959	11.919165	25.857501	26.165638
65371		-4.577588	2.042880	8.673962	-0.094111	0.048964	-0.059365	-0.750488	-0.198730	-0.529541	11.853784	25.892018	26.133642
65372		-4.453927	2.059840	8.723230	-0.099984	0.031873	-0.055390	-0.759766	-0.190918	-0.528076	11.785414	25.922670	26.102068
65373		-4.445549	1.959239	8.768566	-0.098933	0.021120	-0.052040	-0.749512	-0.185303	-0.536621	11.717613	25.940645	26.070923
65374		-4.489938	1.859562	8.869411	-0.092580	0.012364	-0.040543	-0.757324	-0.189941	-0.537842	11.656404	25.958560	26.046030
65375		-4.422169	1.797745	8.841363	-0.091959	0.002788	-0.033808	-0.753418	-0.191650	-0.538330	11.596512	25.964081	26.023858
65376		-4.491126	1.757112	8.797913	-0.085074	-0.009835	-0.029468	-0.750244	-0.192627	-0.533447	11.541363	25.968209	26.003009
65377		-4.510822	1.709209	8.780047	-0.085190	-0.026138	-0.020790	-0.755127	-0.188721	-0.522949	11.487292	25.955963	25.985275
65378		-4.438410	1.717359	8.797048	-0.080860	-0.036348	-0.016628	-0.753418	-0.189697	-0.537354	11.436591	25.943710	25.969087
65379		-4.399254	1.697379	8.845935	-0.073234	-0.037177	-0.015019	-0.751465	-0.176270	-0.531982	11.390358	25.924582	25.953593
65380		-4.420789	1.707632	8.781885	-0.068562	-0.035746	-0.012043	-0.752930	-0.178467	-0.538574	11.347997	25.912116	25.940375
65381		-4.356260	1.750643	8.801467	-0.068842	-0.034808	-0.016877	-0.753662	-0.186279	-0.533691	11.303926	25.894507	25.924054
65382		-4.376959	1.734858	8.845950	-0.063028	-0.031583	-0.016624	-0.755127	-0.190674	-0.537842	11.263724	25.884866	25.908521
65383		-4.347829	1.775908	8.788341	-0.060788	-0.031729	-0.019429	-0.759033	-0.191895	-0.539795	11.223760	25.869251	25.891021
65384		-4.369608	1.692257	8.788653	-0.065164	-0.030328	-0.020168	-0.762939	-0.182373	-0.535645	11.181449	25.860675	25.873455
65385		-4.365085	1.738356	8.804169	-0.070596	-0.033382	-0.021933	-0.755127	-0.183594	-0.533936	11.135115	25.844386	25.854216
65386		-4.376775	1.767924	8.750338	-0.075718	-0.033622	-0.021479	-0.752930	-0.178467	-0.537109	11.086235	25.834065	25.835454
65387		-4.355271	1.746661	8.760530	-0.073513	-0.037514	-0.021661	-0.750244	-0.174805	-0.538818	11.038107	25.815393	25.815915
65388		-4.333619	1.724956	8.770833	-0.084427	-0.037218	-0.024064	-0.754883	-0.179932	-0.528320	10.983371	25.803293	25.795136
65389		-4.377824	1.629807	8.813491	-0.082574	-0.042593	-0.024592	-0.750244	-0.176514	-0.530273	10.929015	25.782051	25.773196
65390		-4.288052	1.733939	8.804679	-0.076853	-0.031637	-0.021331	-0.758789	-0.183838	-0.534424	10.879672	25.772748	25.754835
65391		-4.290024	1.702711	8.856539	-0.079737	-0.032021	-0.023685	-0.752197	-0.181641	-0.538574	10.827770	25.757321	25.734774
65392		-4.338860	1.664577	8.852448	-0.077543	-0.030831	-0.024615	-0.751465	-0.179688	-0.538818	10.777202	25.748771	25.714489
65393		-4.289571	1.743706	8.815678	-0.074645	-0.026674	-0.024854	-0.756836	-0.177490	-0.540527	10.728196	25.736447	25.694367
65394		-4.334800	1.648955	8.857360	-0.077960	-0.025898	-0.023799	-0.749756	-0.177246	-0.536865	10.677881	25.730536	25.675205
65395		-4.351714	1.654941	8.852558	-0.076937	-0.025200	-0.020138	-0.754395	-0.176758	-0.537354	10.628935	25.718512	25.658231
65396		-4.353853	1.704201	8.809027	-0.075835	-0.027141	-0.020233	-0.755371	-0.181885	-0.540039	10.580751	25.711478	25.641174
65397		-4.335862	1.644457	8.836589	-0.079096	-0.032766	-0.020323	-0.756592	-0.173828	-0.545410	10.530152	25.695185	25.623229
65398		-4.368496	1.554412	8.857497	-0.079866	-0.038169	-0.016522	-0.751709	-0.172852	-0.537109	10.480129	25.681509	25.607241
65399		-4.282113	1.620949	8.866786	-0.074381	-0.032662	-0.019229	-0.756348	-0.168213	-0.538330	10.432557	25.665134	25.590027
65400		-4.304612	1.550930	8.897638	-0.073003	-0.030489	-0.015220	-0.756592	-0.172852	-0.536865	10.387213	25.655609	25.575770
65401		-4.227965	1.583868	8.865021	-0.072231	-0.030147	-0.018273	-0.756592	-0.184814	-0.542236	10.341277	25.640528	25.559475
65402		-4.351436	1.506877	8.895293	-0.060997	-0.018794	-0.016986	-0.753418	-0.175293	-0.544922	10.302913	25.637730	25.545467
65403		-4.333389	1.597189	8.872133	-0.053699	-0.021120	-0.015788	-0.761963	-0.170166	-0.547119	10.268726	25.627463	25.531775
65404		-4.349448	1.510212	8.930006	-0.051928	-0.018787	-0.013314	-0.754639	-0.167480	-0.542236	10.236546	25.624263	25.520071
65405		-4.297940	1.630953	8.875339	-0.046440	-0.022131	-0.012709	-0.759277	-0.173828	-0.544678	10.207311	25.613099	25.508204
65406		-4.300468	1.683294	8.831562	-0.052339	-0.022720	-0.009175	-0.753418	-0.176758	-0.545410	10.175822	25.607230	25.498654
65407		-4.261827	1.664687	8.878934	-0.059203	-0.026607	-0.013052	-0.760498	-0.175781	-0.541992	10.138974	25.593564	25.486088
65408		-4.252186	1.640053	8.909035	-0.058485	-0.028721	-0.011629	-0.755371	-0.169434	-0.544922	10.103034	25.584522	25.474354
65409		-4.270835	1.595454	8.890264	-0.057048	-0.024101	-0.012099	-0.758301	-0.178467	-0.543213	10.067812	25.572161	25.462683
65410		-4.298179	1.584436	8.874751	-0.051929	-0.023844	-0.012566	-0.752930	-0.165283	-0.545410	10.035624	25.565923	25.450927
65411		-4.323346	1.626449	8.873228	-0.052686	-0.029266	-0.008789	-0.760010	-0.184814	-0.533936	10.003559	25.550305	25.440773
65412		-4.320771	1.621240	8.875436	-0.057088	-0.031635	-0.006896	-0.756348	-0.170410	-0.542969	9.969589	25.539076	25.431723
65413		-4.315874	1.587120	8.815011	-0.059643	-0.034298	-0.006298	-0.762451	-0.176025	-0.552002	9.933987	25.520361	25.422598
65414		-4.299185	1.557888	8.904536	-0.060371	-0.032172	-0.007703	-0.751953	-0.174805	-0.543457	9.897913	25.508881	25.413012
65415		-4.284840	1.557498	8.885963	-0.058962	-0.035103	-0.002989	-0.751221	-0.167236	-0.541016	9.863570	25.489376	25.405897
65416		-4.224469	1.577769	8.954362	-0.055360	-0.027989	-0.002514	-0.755127	-0.174805	-0.545898	9.831974	25.479716	25.400034
65417		-4.259117	1.585964	8.911101	-0.060191	-0.020370	-0.000492	-0.755371	-0.180176	-0.546631	9.798298	25.468279	25.396101
65418		-4.326697	1.482546	8.993062	-0.061351	-0.020890	0.004108	-0.755371	-0.170654	-0.547119	9.765393	25.461944	25.395166
65419		-4.227026	1.594641	8.963674	-0.073099	-0.019618	0.006734	-0.756104	-0.166992	-0.550781	9.726307	25.450226	25.395848
65420		-4.264790	1.562944	8.937933	-0.088975	-0.020411	0.017967	-0.756104	-0.165283	-0.545654	9.681328	25.442794	25.403650
65421		-4.182551	1.590813	8.964437	-0.098020	-0.014117	0.007302	-0.751709	-0.158691	-0.542969	9.628376	25.434129	25.405293
65422		-4.180557	1.648219	9.012349	-0.121607	-0.003879	0.015656	-0.750000	-0.160645	-0.549805	9.564849	25.436235	25.413427
65423		-4.160039	1.377197	9.131101	-0.169175	0.003767	0.039762	-0.751953	-0.159424	-0.543945	9.480667	25.434602	25.437280
65424		-4.222890	1.395436	9.021967	-0.193597	0.023842	0.049866	-0.760986	-0.162109	-0.544189	9.386337	25.449134	25.469721
65425		-4.150535	1.417766	9.159657	-0.222117	0.044333	0.064151	-0.764160	-0.170166	-0.548828	9.280194	25.468242	25.513031
65426		-4.177037	1.457365	9.077779	-0.240231	0.067726	0.064801	-0.752686	-0.161865	-0.545898	9.165098	25.506280	25.559266
65427		-3.898487	1.428873	9.317103	-0.184507	0.108861	0.015638	-0.750732	-0.153564	-0.550537	9.070221	25.566444	25.578601
65428		-3.989577	1.838014	9.183109	-0.201071	0.155863	0.003099	-0.758789	-0.161621	-0.553223	8.964672	25.659967	25.594810
65429		-3.982751	1.746015	9.230838	-0.227222	0.196496	-0.004445	-0.744873	-0.161377	-0.548584	8.843549	25.771583	25.609933
65430		-4.007725	1.355033	9.440428	-0.240797	0.265855	-0.008427	-0.749756	-0.159424	-0.556396	8.716696	25.928360	25.629233
65431		-3.907705	1.308185	9.727895	-0.251718	0.363679	-0.009281	-0.748535	-0.153076	-0.553223	8.587090	26.135150	25.656838
65432		-3.643130	1.709067	10.091536	-0.209760	0.523354	-0.040254	-0.746338	-0.150391	-0.548584	8.479749	26.440480	25.679778
65433		-3.476725	2.490541	10.400814	-0.241741	0.723619	-0.080566	-0.737549	-0.152100	-0.559082	8.350633	26.857358	25.695136
65434		-3.465924	2.768095	10.816663	-0.303319	0.954212	-0.150366	-0.730469	-0.148193	-0.560303	8.175627	27.415894	25.686414
65435		-3.582952	3.327498	10.968611	-0.447926	1.201522	-0.266299	-0.723633	-0.136475	-0.565674	7.891919	28.118857	25.622954
65436		-3.622203	3.583327	11.020044	-0.615886	1.456431	-0.433011	-0.714600	-0.143799	-0.572510	7.468361	28.983748	25.468903
65437		-3.619689	3.838982	11.164110	-0.821417	1.702970	-0.645602	-0.697754	-0.139160	-0.568604	6.860739	29.997949	25.185595
65438		-3.731832	4.181762	11.221177	-1.054059	2.045476	-0.922523	-0.677979	-0.127686	-0.582031	6.026573	31.226159	24.727227
65439		-4.364059	4.814049	11.147691	-1.399595	2.297104	-1.301538	-0.656494	-0.115234	-0.580078	4.841548	32.606936	23.997980
65440		-4.604172	4.724570	10.703655	-1.710251	2.529702	-1.701514	-0.623291	-0.107422	-0.593750	3.292040	34.125738	22.956109
65441		-5.647087	5.997898	10.964333	-2.045490	2.752754	-2.127266	-0.598633	-0.094238	-0.586670	1.314977	35.750578	21.546346
65442		-6.184506	5.661673	10.908826	-2.394001	2.958702	-2.549181	-0.564209	-0.072510	-0.598633	-1.135892	37.451727	19.730258
65443		-8.248613	7.342637	11.395607	-2.784398	3.126303	-2.877730	-0.543945	-0.054932	-0.603271	-4.095954	39.165783	17.525503
65444		-12.057485	8.977349	13.068025	-3.085700	3.113755	-3.030238	-0.523193	-0.020508	-0.615479	-7.457783	40.769678	15.038112
65445		-9.567057	8.647220	11.201376	-3.599966	2.839688	-3.236463	-0.480225	0.007813	-0.616943	-11.368323	42.071346	12.242125
65446		-7.235029	9.924736	7.597407	-4.280539	2.763520	-3.443195	-0.459961	0.050781	-0.616943	-15.921907	43.148671	9.131939
65447		-9.502815	15.096944	5.335921	-5.332744	2.805279	-2.162708	-0.427002	0.097900	-0.625732	-20.582910	44.286473	6.805871
65448		-18.352797	9.359707	7.088446	-4.806774	2.242618	0.605044	-0.407227	0.135498	-0.617188	-23.487877	45.612137	6.583164
65449		-12.305301	6.684307	6.936450	-3.954198	1.334887	2.492847	-0.394043	0.159180	-0.627686	-24.716453	46.892855	8.015304
65450		-8.908814	5.788535	6.725441	-3.103585	1.026865	3.548324	-0.375000	0.166504	-0.626221	-24.729631	48.283400	10.395505
65451		-8.110039	7.560352	6.257067	-3.061553	0.808084	3.773087	-0.355225	0.181152	-0.623779	-24.446730	49.603482	13.093505
