// General information: 
//  MT Manager version: 2022.2.0 
//  XDA version: 2022.2.0 build 7381 rev 124627 built on 2023-07-19
// Device information: 
//  DeviceId: 00B4BCF6
//  ProductCode: MTW2-3A7G6
//  Firmware Version: 4.6.0
//  Hardware Version: 2.0.0
// Device settings: 
//  Filter Profile: human(46.1)
//  Option Flags: Orientation Smoother Disabled, Position/Velocity Smoother Disabled, Continuous Zero Rotation Update Disabled, AHS Disabled, ICC Disabled
// Coordinate system: ENU
PacketCounter	SampleTimeFine	Acc_X	Acc_Y	Acc_Z	Gyr_X	Gyr_Y	Gyr_Z	Mag_X	Mag_Y	Mag_Z	Roll	Pitch	Yaw
07237		-4.492846	1.419682	8.682302	-0.005810	0.004869	-0.002529	-0.615234	-0.380615	-0.432861	9.394748	27.015152	132.932453
07238		-4.493381	1.419264	8.682094	-0.001634	0.006759	-0.001697	-0.614990	-0.387207	-0.424072	9.394577	27.015154	132.933936
07239		-4.484133	1.397919	8.656248	-0.003987	0.005220	-0.004207	-0.613281	-0.387939	-0.437744	9.392705	27.014369	132.933142
07240		-4.478863	1.448986	8.685920	-0.002468	0.004151	-0.003052	-0.615967	-0.389893	-0.440186	9.391590	27.013048	132.932818
07241		-4.489318	1.377661	8.670121	-0.004824	0.008186	-0.002591	-0.612061	-0.392578	-0.435791	9.389847	27.013789	132.933361
07242		-4.491499	1.436997	8.666921	-0.001635	0.006758	-0.001697	-0.613525	-0.381592	-0.434570	9.389762	27.013880	132.933863
07243		-4.511839	1.386962	8.676641	0.000453	0.007703	-0.001280	-0.616699	-0.383057	-0.434326	9.391397	27.014226	132.935186
07244		-4.501086	1.397846	8.694852	-0.005394	0.006172	-0.001852	-0.619141	-0.379639	-0.432617	9.388997	27.013945	132.936703
07245		-4.487562	1.395940	8.654790	0.000874	0.003433	-0.003574	-0.623779	-0.393555	-0.436035	9.390009	27.012091	132.936124
07246		-4.472613	1.426274	8.658752	-0.002737	0.009131	-0.002175	-0.616455	-0.387939	-0.440674	9.389204	27.013423	132.937014
07247		-4.488819	1.395479	8.654212	-0.001788	0.006049	-0.000279	-0.616943	-0.393311	-0.435059	9.389765	27.012739	132.938800
07248		-4.477858	1.406481	8.672520	-0.000950	0.003082	-0.001895	-0.614258	-0.382324	-0.433105	9.389830	27.010730	132.938807
07249		-4.499453	1.416297	8.679433	0.001819	0.005925	0.001293	-0.622803	-0.377930	-0.438965	9.392904	27.009829	132.941577
07250		-4.485960	1.414802	8.639287	-0.000117	0.005690	-0.000540	-0.611328	-0.384277	-0.430420	9.393855	27.009115	132.944200
07251		-4.500467	1.416287	8.678909	-0.001788	0.006048	-0.000279	-0.615479	-0.388184	-0.433350	9.394415	27.008431	132.945986
07252		-4.475591	1.425902	8.657275	0.003226	0.004972	-0.001062	-0.618652	-0.389404	-0.439453	9.397173	27.007403	132.947178
07253		-4.501380	1.416259	8.678440	-0.002469	0.004151	-0.003052	-0.621826	-0.387207	-0.431152	9.396453	27.005906	132.947006
07254		-4.448138	1.407677	8.682459	-0.001108	0.007946	0.002493	-0.618652	-0.389404	-0.434082	9.397899	27.006157	132.950501
07255		-4.491128	1.427000	8.696431	-0.003987	0.005220	-0.004208	-0.617676	-0.388916	-0.435547	9.396027	27.005372	132.949707
07256		-4.474507	1.397415	8.703426	-0.002621	0.003441	-0.001635	-0.617188	-0.378174	-0.433105	9.395217	27.003487	132.949983
07257		-4.503272	1.415087	8.677650	-0.002469	0.004151	-0.003051	-0.612549	-0.394531	-0.435303	9.394498	27.001990	132.949810
07258		-4.457085	1.414727	8.648995	0.001138	0.004027	-0.001478	-0.617920	-0.395264	-0.434814	9.395894	27.000462	132.950688
07259		-4.503912	1.414785	8.677367	-0.003190	0.001427	-0.000896	-0.619141	-0.382568	-0.432861	9.395253	26.997224	132.951598
07260		-4.486140	1.432234	8.623094	-0.001748	0.006875	-0.005207	-0.620605	-0.376709	-0.430420	9.394076	26.997597	132.949961
07261		-4.504874	1.414181	8.676966	-0.001942	0.005338	0.001138	-0.616943	-0.375488	-0.434326	9.394922	26.996380	132.952571
07262		-4.458721	1.413752	8.648312	-0.002469	0.004151	-0.003051	-0.614990	-0.389160	-0.423340	9.393697	26.994988	132.953938
07263		-4.505703	1.413595	8.676631	-0.002469	0.004151	-0.003051	-0.612793	-0.389404	-0.439697	9.392978	26.993491	132.953766
07264		-4.473527	1.414818	8.687852	0.001137	0.004027	-0.001477	-0.613770	-0.389893	-0.436768	9.394415	26.991958	132.954049
07265		-4.462654	1.425835	8.706135	-0.001901	0.006165	-0.003790	-0.614990	-0.394531	-0.431885	9.393905	26.991668	132.953620
07266		-4.470376	1.433804	8.673143	-0.000382	0.005096	-0.002634	-0.620117	-0.381836	-0.426025	9.394218	26.990864	132.952943
07267		-4.486399	1.403146	8.668645	0.001442	0.005448	-0.004310	-0.618652	-0.392334	-0.435791	9.395439	26.990218	132.952108
07268		-4.486840	1.402895	8.668457	-0.004294	0.003799	-0.001374	-0.613037	-0.384521	-0.436035	9.393749	26.988449	132.952742
07269		-4.504230	1.431924	8.661152	0.002809	0.003669	-0.001737	-0.616943	-0.376709	-0.427490	9.396408	26.986557	132.953352
07270		-4.483413	1.422165	8.653842	-0.001943	0.005338	0.001138	-0.612793	-0.385254	-0.441895	9.396810	26.985496	132.956816
07271		-4.472480	1.433042	8.672184	-0.002733	0.003557	-0.005146	-0.617432	-0.394287	-0.433105	9.395308	26.983859	132.955253
07272		-4.488540	1.402182	8.667692	-0.001223	0.008062	-0.001017	-0.618164	-0.392090	-0.429688	9.395727	26.984596	132.956392
07273		-4.477858	1.413166	8.685890	-0.001638	0.006758	-0.001695	-0.619629	-0.384277	-0.431396	9.395998	26.984446	132.957354
07274		-4.495517	1.441985	8.678479	-0.003573	0.006523	-0.003529	-0.622314	-0.385742	-0.437744	9.394248	26.984423	132.956706
07275		-4.494503	1.381920	8.681153	-0.002207	0.004744	-0.000956	-0.614990	-0.393311	-0.429688	9.394310	26.983066	132.957925
07276		-4.500753	1.422065	8.692262	0.000186	0.007110	-0.003371	-0.616943	-0.390869	-0.437744	9.394802	26.983395	132.957353
07277		-4.475982	1.431501	8.670631	-0.000230	0.005806	-0.004049	-0.618408	-0.390137	-0.438721	9.395157	26.982928	132.956721
07278		-4.487882	1.420006	8.651879	-0.002164	0.005571	-0.005884	-0.616943	-0.384521	-0.434082	9.393519	26.982678	132.954426
07279		-4.502481	1.421258	8.691499	-0.001792	0.006048	-0.000278	-0.624023	-0.387939	-0.435791	9.394076	26.981995	132.956212
07280		-4.514385	1.409896	8.672719	-0.001640	0.006758	-0.001694	-0.615479	-0.385254	-0.441162	9.393954	26.981950	132.957217
07281		-4.482392	1.411037	8.683897	-0.002055	0.005454	-0.002373	-0.613770	-0.395752	-0.432373	9.393729	26.981126	132.957612
07282		-4.478687	1.430162	8.669455	-0.002208	0.004744	-0.000956	-0.618896	-0.390625	-0.438721	9.393455	26.979981	132.958337
07283		-4.483404	1.410593	8.683447	0.000185	0.007110	-0.003370	-0.625244	-0.388916	-0.431885	9.394306	26.980187	132.958273
07284		-4.483908	1.410433	8.683213	-0.002361	0.004034	0.000460	-0.610840	-0.394287	-0.433350	9.394293	26.978382	132.959813
07285		-4.501327	1.439449	8.675888	-0.000536	0.004386	-0.001216	-0.619141	-0.387451	-0.432617	9.395221	26.976846	132.960830
07286		-4.480479	1.429583	8.668625	0.000874	0.003434	-0.003570	-0.624023	-0.384521	-0.431396	9.395903	26.975165	132.959590
07287		-4.485146	1.409979	8.682647	-0.003312	0.007116	-0.001434	-0.617432	-0.383057	-0.439209	9.395307	26.975193	132.960755
07288		-4.492866	1.418004	8.649621	-0.000121	0.005690	-0.000537	-0.616455	-0.388916	-0.431152	9.396318	26.974434	132.962786
07289		-4.489129	1.437264	8.635174	-0.000798	0.003792	-0.003311	-0.614990	-0.389648	-0.431152	9.396464	26.972759	132.962412
07290		-4.456972	1.438378	8.646461	-0.002471	0.004150	-0.003051	-0.613525	-0.389160	-0.441162	9.395402	26.971407	132.961746
07291		-4.465748	1.399245	8.674779	-0.003881	0.005102	-0.000697	-0.610840	-0.391602	-0.431396	9.394596	26.970228	132.963167
07292		-4.508750	1.418784	8.688653	0.004052	0.007581	0.000302	-0.627686	-0.392578	-0.420898	9.398420	26.970600	132.965044
07293		-4.476713	1.420073	8.699856	-0.002994	0.002964	-0.007241	-0.617188	-0.389404	-0.439453	9.396138	26.968824	132.962090
07294		-4.484263	1.427816	8.666959	-0.003881	0.005102	-0.000697	-0.623779	-0.392090	-0.428955	9.394992	26.967679	132.962661
07295		-4.467779	1.398591	8.673839	0.002379	0.007939	0.000562	-0.611572	-0.386963	-0.434326	9.398270	26.967986	132.965178
07296		-4.485395	1.427854	8.666367	0.001288	0.004738	-0.002891	-0.618896	-0.389404	-0.435791	9.399435	26.966925	132.964673
07297		-4.490021	1.408398	8.680384	-0.001948	0.005337	0.001139	-0.624756	-0.388184	-0.432861	9.400276	26.965707	132.967283
07298		-4.486214	1.427644	8.665978	-0.000952	0.003082	-0.001894	-0.615723	-0.389404	-0.426270	9.400349	26.963581	132.967394
07299		-4.476711	1.406590	8.640182	0.001441	0.005449	-0.004307	-0.620361	-0.392334	-0.430420	9.401571	26.962935	132.966561
07300		-4.487172	1.427341	8.665532	-0.003467	0.006405	-0.000018	-0.617188	-0.393555	-0.438477	9.400931	26.962518	132.967758
07301		-4.459262	1.409287	8.691008	0.002807	0.003670	-0.001733	-0.622070	-0.389648	-0.431885	9.403591	26.960626	132.968370
07302		-4.513324	1.417483	8.686490	-0.004711	0.002494	-0.002055	-0.616699	-0.390137	-0.433350	9.401471	26.958228	132.967970
07303		-4.492560	1.407457	8.679222	0.000444	0.007704	-0.001273	-0.625244	-0.392578	-0.429688	9.403102	26.958573	132.969298
07304		-4.471820	1.397599	8.671916	-0.000952	0.003082	-0.001894	-0.618896	-0.394043	-0.429199	9.403203	26.956442	132.968976
07305		-4.463768	1.436144	8.643327	-0.002624	0.003440	-0.001635	-0.622803	-0.387207	-0.438477	9.402769	26.954410	132.969626
07306		-4.466984	1.448563	8.701530	-0.002057	0.005454	-0.002372	-0.608643	-0.397217	-0.431641	9.402207	26.953688	132.969454
07307		-4.494173	1.406610	8.678525	-0.000952	0.003082	-0.001894	-0.623535	-0.390625	-0.431641	9.402639	26.951479	132.969902
07308		-4.483271	1.417552	8.696890	-0.002057	0.005454	-0.002372	-0.610840	-0.392334	-0.437256	9.402122	26.950810	132.969247
07309		-4.490872	1.425448	8.663926	-0.003883	0.005101	-0.000697	-0.614258	-0.384521	-0.427734	9.401315	26.949630	132.970666
07310		-4.458736	1.426753	8.675212	0.002807	0.003671	-0.001732	-0.615479	-0.389893	-0.432861	9.403638	26.947947	132.971192
07311		-4.503034	1.414093	8.644972	-0.001904	0.006164	-0.003788	-0.614990	-0.388184	-0.437744	9.403127	26.947658	132.970763
07312		-4.479370	1.376433	8.684696	-0.002211	0.004743	-0.000956	-0.624268	-0.392822	-0.430908	9.402852	26.946494	132.971835
07313		-4.492663	1.424867	8.663094	-0.000278	0.004979	0.000880	-0.626709	-0.391357	-0.435303	9.404558	26.945098	132.974241
07314		-4.466454	1.466527	8.685661	-0.001230	0.008061	-0.001013	-0.621826	-0.381592	-0.437256	9.404990	26.945647	132.974904
07315		-4.465423	1.406755	8.688254	0.001134	0.004028	-0.001473	-0.617920	-0.385254	-0.435303	9.406783	26.943933	132.975718
07316		-4.482915	1.435781	8.680875	-0.002058	0.005454	-0.002372	-0.617676	-0.396240	-0.434326	9.406159	26.943239	132.976791
07317		-4.462133	1.425704	8.673637	-0.002471	0.004150	-0.003051	-0.616943	-0.384277	-0.432129	9.405438	26.941742	132.976618
07318		-4.478012	1.394792	8.669173	-0.002472	0.004150	-0.003051	-0.620605	-0.390625	-0.432861	9.404395	26.940391	132.976004
07319		-4.495569	1.423784	8.661764	0.000289	0.006993	0.000144	-0.623291	-0.391846	-0.431152	9.406310	26.940201	132.978155
07320		-4.489021	1.415432	8.694269	-0.002058	0.005454	-0.002372	-0.625244	-0.390137	-0.427734	9.405759	26.939446	132.977846
07321		-4.464130	1.424825	8.672754	-0.000232	0.005807	-0.004046	-0.616211	-0.389404	-0.433594	9.406115	26.938979	132.977216
07322		-4.494317	1.395525	8.708005	-0.001905	0.006164	-0.003787	-0.620117	-0.390137	-0.439209	9.405269	26.938763	132.976306
07323		-4.472337	1.432366	8.639523	-0.005557	0.005458	-0.000439	-0.621338	-0.384033	-0.441895	9.403593	26.937761	132.977926
07324		-4.491133	1.414240	8.693371	0.001287	0.004739	-0.002888	-0.617676	-0.387695	-0.430664	9.404743	26.936744	132.978155
07325		-4.477493	1.412602	8.653307	-0.000232	0.005807	-0.004045	-0.619873	-0.386719	-0.437744	9.405099	26.936276	132.977525
07326		-4.495264	1.441475	8.645804	-0.004164	0.010079	0.000184	-0.613770	-0.383545	-0.432861	9.404266	26.937962	132.980081
07327		-4.511407	1.410534	8.641187	-0.002319	0.004861	-0.004466	-0.622803	-0.390869	-0.431396	9.403261	26.936999	132.979085
07328		-4.464009	1.442055	8.656792	-0.003425	0.007232	-0.004944	-0.613525	-0.393311	-0.442139	9.401247	26.937548	132.978027
07329		-4.494326	1.412618	8.691985	-0.001493	0.007468	-0.003107	-0.614502	-0.383789	-0.435547	9.401230	26.937932	132.978167
07330		-4.485046	1.391431	8.666076	-0.001493	0.007468	-0.003107	-0.620361	-0.386719	-0.433838	9.400890	26.938567	132.978366
07331		-4.470395	1.421603	8.670055	-0.004272	0.010197	-0.003326	-0.616699	-0.386719	-0.426758	9.399346	26.940514	132.978653
07332		-4.482565	1.410174	8.651077	0.001005	0.009718	-0.002005	-0.617188	-0.381592	-0.430176	9.400830	26.942168	132.979723
07333		-4.504450	1.419745	8.657812	-0.002472	0.004150	-0.003051	-0.620361	-0.383057	-0.437988	9.400109	26.940671	132.979550
07334		-4.482314	1.441980	8.694738	0.001392	0.004622	0.000624	-0.623047	-0.395752	-0.421875	9.402285	26.939228	132.982561
07335		-4.484059	1.409762	8.650370	-0.003733	0.005811	-0.002113	-0.619873	-0.389648	-0.437744	9.401190	26.938582	132.983157
07336		-4.494668	1.430391	8.675686	-0.001234	0.008061	-0.001011	-0.614502	-0.386475	-0.432617	9.401656	26.939166	132.983640
07337		-4.478179	1.401051	8.682608	-0.002214	0.004743	-0.000955	-0.616699	-0.390381	-0.435547	9.401713	26.937807	132.984858
07338		-4.495703	1.429937	8.675224	-0.002060	0.005454	-0.002371	-0.608398	-0.385498	-0.440186	9.401163	26.937172	132.985136
07339		-4.467867	1.411506	8.700796	-0.005819	0.004864	-0.002536	-0.624756	-0.389160	-0.434326	9.398707	26.936030	132.985365
07340		-4.507928	1.417867	8.656310	-0.002060	0.005454	-0.002370	-0.618896	-0.388428	-0.429688	9.398144	26.935406	132.985901
07341		-4.469014	1.410868	8.700310	-0.000823	0.009364	-0.000330	-0.619141	-0.396973	-0.422363	9.399398	26.936602	132.988001
07342		-4.487913	1.407977	8.648662	0.002805	0.003672	-0.001728	-0.633057	-0.386963	-0.435303	9.401772	26.934773	132.987476
07343		-4.470169	1.410765	8.699734	-0.003014	0.008536	-0.004263	-0.615479	-0.387207	-0.432617	9.400601	26.935869	132.986995
07344		-4.492053	1.420096	8.706502	-0.003888	0.005100	-0.000698	-0.615234	-0.387939	-0.439453	9.399434	26.934741	132.988375
07345		-4.503876	1.408736	8.687671	0.000437	0.007704	-0.001267	-0.616211	-0.387939	-0.422119	9.401062	26.935086	132.989706
07346		-4.479019	1.418245	8.666153	-0.002061	0.005454	-0.002370	-0.619385	-0.389404	-0.433350	9.400507	26.934420	132.989961
07347		-4.447015	1.419510	8.677468	-0.000129	0.005689	-0.000532	-0.614014	-0.388672	-0.433838	9.401926	26.933557	132.991546
07348		-4.475645	1.437187	8.651592	-0.005124	0.001189	-0.002739	-0.622314	-0.383789	-0.439209	9.399318	26.930525	132.991016
07349		-4.458936	1.407660	8.658664	-0.000234	0.005808	-0.004042	-0.616699	-0.391357	-0.423584	9.399674	26.930058	132.990388
07350		-4.506232	1.407775	8.686605	0.002214	0.007229	0.001987	-0.614258	-0.392822	-0.425049	9.402895	26.929933	132.993607
07351		-4.448876	1.418772	8.676635	-0.003581	0.006521	-0.003528	-0.625488	-0.387451	-0.432617	9.401515	26.929820	132.993380
07352		-4.471949	1.396231	8.639223	0.001697	0.006043	-0.002204	-0.616943	-0.391846	-0.428467	9.403205	26.929392	132.993324
07353		-4.493708	1.405935	8.645984	-0.001957	0.005335	0.001140	-0.614258	-0.383545	-0.431885	9.404040	26.928172	132.995932
07354		-4.467393	1.447528	8.668756	-0.000954	0.003082	-0.001893	-0.612549	-0.390381	-0.431152	9.404144	26.926119	132.996280
07355		-4.471968	1.427856	8.682816	-0.003889	0.005099	-0.000698	-0.623535	-0.385254	-0.432861	9.403333	26.924938	132.997698
07356		-4.472418	1.427787	8.682595	0.003217	0.004976	-0.001045	-0.623779	-0.385010	-0.436279	9.406160	26.923855	132.998774
07357		-4.462817	1.406949	8.656780	-0.000542	0.004386	-0.001212	-0.618896	-0.397705	-0.439209	9.407084	26.922318	132.999792
07358		-4.483267	1.448530	8.707784	-0.002473	0.004150	-0.003051	-0.623779	-0.391846	-0.436523	9.406066	26.920962	132.999080
07359		-4.476551	1.455120	8.634985	0.001697	0.006043	-0.002203	-0.621826	-0.385010	-0.434326	9.408067	26.920455	132.999643
07360		-4.492520	1.424430	8.630359	-0.002062	0.005453	-0.002370	-0.622314	-0.383301	-0.431152	9.407514	26.919727	132.999877
07361		-4.464784	1.406079	8.655908	-0.003581	0.006521	-0.003528	-0.625977	-0.385010	-0.430420	9.406133	26.919614	132.999650
07362		-4.454112	1.416869	8.674260	-0.002062	0.005453	-0.002370	-0.613525	-0.391602	-0.436768	9.405535	26.918823	133.000389
07363		-4.464736	1.437435	8.699597	-0.001754	0.006875	-0.005199	-0.618408	-0.388184	-0.427979	9.404738	26.919067	132.999140
07364		-4.487787	1.414642	8.662205	-0.003993	0.005217	-0.004209	-0.617432	-0.383545	-0.431885	9.402573	26.918457	132.997954
07365		-4.499520	1.403017	8.643435	-0.005306	0.006048	0.001654	-0.625488	-0.390381	-0.436768	9.401669	26.917592	133.000963
07366		-4.477679	1.425004	8.680341	0.000073	0.007230	-0.006870	-0.622559	-0.378906	-0.430908	9.401124	26.918303	132.998737
07367		-4.482514	1.405235	8.694275	-0.003736	0.005810	-0.002113	-0.615723	-0.390625	-0.430176	9.400027	26.917656	132.999332
07368		-4.507130	1.442199	8.654082	-0.003737	0.005810	-0.002113	-0.617920	-0.387695	-0.436279	9.398582	26.917118	133.000229
07369		-4.483570	1.404462	8.693856	-0.002063	0.005453	-0.002369	-0.614502	-0.397461	-0.438477	9.398353	26.916293	133.000625
07370		-4.475768	1.443064	8.665180	-0.001241	0.008060	-0.001007	-0.614258	-0.391846	-0.437012	9.398849	26.917039	133.001476
07371		-4.501881	1.433153	8.686083	-0.003480	0.006402	-0.000017	-0.612793	-0.382324	-0.432373	9.398529	26.916531	133.003462
07372		-4.455739	1.432891	8.657617	0.000176	0.007112	-0.003359	-0.611328	-0.385742	-0.428955	9.399070	26.916969	133.003554
07373		-4.470644	1.434069	8.697118	-0.003583	0.006521	-0.003527	-0.615479	-0.383301	-0.438477	9.397689	26.916857	133.003328
07374		-4.486660	1.403032	8.692492	-0.002166	0.005572	-0.005879	-0.617432	-0.394043	-0.426025	9.396069	26.916648	133.002023
07375		-4.483092	1.422142	8.678016	-0.001242	0.008060	-0.001007	-0.624512	-0.385742	-0.429443	9.396825	26.917170	133.003557
07376		-4.483705	1.421798	8.677755	-0.003994	0.005217	-0.004208	-0.617920	-0.392578	-0.436279	9.394657	26.916439	133.002109
07377		-4.474094	1.400593	8.651989	-0.000544	0.004386	-0.001210	-0.615967	-0.395508	-0.438477	9.395581	26.914903	133.003128
07378		-4.473418	1.432383	8.695969	-0.003738	0.005809	-0.002113	-0.615479	-0.383057	-0.435059	9.394241	26.914465	133.002793
07379		-4.470802	1.419430	8.637416	-0.000801	0.003794	-0.003306	-0.625244	-0.391846	-0.431885	9.394388	26.912790	133.002421
07380		-4.499802	1.422245	8.716760	-0.000134	0.005689	-0.000529	-0.615967	-0.397461	-0.435059	9.395488	26.912042	133.003963
07381		-4.476136	1.399571	8.651098	-0.006111	0.009840	-0.001652	-0.618408	-0.387207	-0.427734	9.393354	26.913631	133.005273
07382		-4.482638	1.439392	8.662239	-0.002475	0.004150	-0.003050	-0.624023	-0.388916	-0.434326	9.392373	26.912283	133.004265
07383		-4.450608	1.440642	8.673654	-0.000134	0.005689	-0.000528	-0.618164	-0.388428	-0.435303	9.393789	26.911420	133.005852
07384		-4.477686	1.398766	8.650426	-0.002219	0.004742	-0.000954	-0.613037	-0.390137	-0.434570	9.393542	26.910179	133.006873
07385		-4.462816	1.429160	8.654588	0.000174	0.007112	-0.003357	-0.616455	-0.384766	-0.429688	9.394391	26.910385	133.006816
07386		-4.481881	1.411081	8.708280	-0.001963	0.005334	0.001142	-0.615479	-0.380859	-0.436279	9.394921	26.909354	133.009444
07387		-4.463857	1.428889	8.654096	-0.001809	0.006045	-0.000272	-0.614502	-0.387451	-0.431396	9.395468	26.908668	133.011231
07388		-4.468746	1.409396	8.667948	0.002413	0.008771	-0.004345	-0.613770	-0.390869	-0.433105	9.397063	26.910101	133.011304
07389		-4.497617	1.427324	8.641825	-0.000545	0.004386	-0.001210	-0.622314	-0.393799	-0.431641	9.397986	26.908565	133.012322
07390		-4.491243	1.419101	8.674298	0.001095	0.009600	0.001517	-0.614502	-0.393555	-0.439453	9.400625	26.909864	133.014787
07391		-4.496171	1.399656	8.688121	-0.001655	0.006757	-0.001687	-0.619141	-0.395020	-0.430420	9.400888	26.909713	133.015752
07392		-4.471211	1.409295	8.666693	0.001539	0.005333	-0.000783	-0.622803	-0.390625	-0.432617	9.402940	26.908862	133.016114
07393		-4.460508	1.420490	8.685044	-0.000135	0.005689	-0.000528	-0.619141	-0.396973	-0.436279	9.404355	26.907999	133.017701
07394		-4.489226	1.438325	8.659004	-0.002220	0.004742	-0.000954	-0.617432	-0.387939	-0.431885	9.404161	26.906759	133.017907
07395		-4.457139	1.439436	8.670500	-0.004304	0.003794	-0.001381	-0.612793	-0.379639	-0.434570	9.402853	26.904904	133.018754
07396		-4.478905	1.449001	8.677245	0.003522	0.006400	-0.003866	-0.615723	-0.390625	-0.432373	9.405105	26.904945	133.018986
07397		-4.469547	1.427887	8.651324	-0.006114	0.009839	-0.001653	-0.621094	-0.384033	-0.437500	9.402969	26.906533	133.020295
07398		-4.463194	1.419413	8.683841	0.002803	0.003674	-0.001720	-0.616943	-0.390869	-0.438721	9.405329	26.904799	133.021003
07399		-4.484976	1.428909	8.690586	-0.005260	0.006876	-0.003272	-0.626465	-0.385498	-0.435791	9.403077	26.904864	133.020976
07400		-4.464356	1.418759	8.683350	-0.001501	0.007468	-0.003100	-0.620117	-0.378418	-0.434570	9.402759	26.905374	133.021080
07401		-4.460774	1.437877	8.668889	-0.001911	0.006164	-0.003782	-0.621582	-0.390625	-0.434082	9.402246	26.905084	133.020654
07402		-4.482664	1.447312	8.675586	-0.001656	0.006756	-0.001686	-0.619141	-0.387939	-0.431641	9.402175	26.905041	133.022096
07403		-4.487381	1.427673	8.689547	-0.000801	0.003794	-0.003305	-0.616943	-0.390869	-0.438477	9.402322	26.903367	133.021725
07404		-4.466714	1.417852	8.682286	0.000991	0.009719	-0.001991	-0.624023	-0.390869	-0.430176	9.403883	26.905084	133.022544
07405		-4.478760	1.406386	8.663267	-0.006117	0.009838	-0.001653	-0.616699	-0.385498	-0.434082	9.401746	26.906671	133.023853
07406		-4.485483	1.446217	8.674312	-0.001348	0.008179	-0.004513	-0.619385	-0.391113	-0.431885	9.401151	26.907687	133.022983
07407		-4.480182	1.405647	8.662652	-0.002221	0.004741	-0.000954	-0.619873	-0.397217	-0.433105	9.401204	26.906329	133.024200
07408		-4.486508	1.445704	8.673867	-0.002221	0.004741	-0.000954	-0.621338	-0.385986	-0.437256	9.401033	26.905090	133.024257
07409		-4.491266	1.425987	8.687817	-0.003332	0.007112	-0.001431	-0.625000	-0.391357	-0.435547	9.400425	26.905116	133.025421
07410		-4.466264	1.435351	8.666481	-0.002476	0.004150	-0.003050	-0.621582	-0.390137	-0.425781	9.399416	26.903716	133.025077
07411		-4.492335	1.425323	8.687373	-0.001503	0.007468	-0.003099	-0.614746	-0.391357	-0.436035	9.399394	26.904099	133.025221
07412		-4.446088	1.425068	8.659050	-0.000646	0.004506	-0.004718	-0.620361	-0.384521	-0.432373	9.399006	26.903087	133.023423
07413		-4.489243	1.444226	8.672699	-0.003079	0.007704	0.000666	-0.622070	-0.382813	-0.435303	9.399173	26.903251	133.025978
07414		-4.472782	1.414878	8.679646	-0.000237	0.005809	-0.004036	-0.616211	-0.388184	-0.441650	9.399196	26.902885	133.025989
07415		-4.480307	1.422989	8.646564	-0.001405	0.007348	0.000411	-0.615479	-0.384766	-0.437012	9.400232	26.902871	133.028345
07416		-4.452752	1.404894	8.672095	-0.001250	0.008060	-0.001002	-0.625488	-0.387451	-0.427734	9.400698	26.903638	133.030297
07417		-4.502884	1.432470	8.652881	-0.000139	0.005689	-0.000525	-0.614258	-0.385498	-0.426758	9.402111	26.902775	133.031886
07418		-4.453900	1.404739	8.671531	0.000016	0.006401	-0.001939	-0.615234	-0.383545	-0.432373	9.402945	26.902506	133.032596
07419		-4.481661	1.454671	8.689599	-0.000139	0.005689	-0.000525	-0.609131	-0.383057	-0.440186	9.404359	26.901642	133.034184
07420		-4.472017	1.433522	8.663816	-0.003996	0.005217	-0.004209	-0.615234	-0.388184	-0.431641	9.402172	26.901130	133.034299
07421		-4.498114	1.423420	8.684694	-0.001659	0.006756	-0.001685	-0.623535	-0.386719	-0.439453	9.402433	26.900979	133.035265
07422		-4.484230	1.421824	8.644722	-0.000548	0.004386	-0.001208	-0.615479	-0.387451	-0.431152	9.403075	26.899592	133.036322
07423		-4.488914	1.402204	8.658688	-0.002068	0.005453	-0.002367	-0.618164	-0.383789	-0.436279	9.402844	26.898767	133.036719
07424		-4.467125	1.424365	8.695723	-0.000140	0.005689	-0.000525	-0.617920	-0.389648	-0.435791	9.403964	26.898078	133.038634
07425		-4.478707	1.413203	8.676864	0.001127	0.004030	-0.001462	-0.618652	-0.390381	-0.425781	9.405755	26.896365	133.039455
07426		-4.500355	1.422893	8.683620	-0.000703	0.003674	0.000206	-0.614990	-0.393311	-0.426270	9.406712	26.894418	133.040721
07427		-4.475277	1.432484	8.662305	-0.001660	0.006756	-0.001684	-0.622559	-0.386475	-0.434326	9.406973	26.894266	133.041687
07428		-4.486003	1.452967	8.687644	-0.003996	0.005216	-0.004209	-0.623047	-0.380371	-0.428955	9.404849	26.893593	133.040324
07429		-4.454958	1.422225	8.654958	0.002802	0.003675	-0.001715	-0.615479	-0.388428	-0.430420	9.407511	26.891703	133.040947
07430		-4.476847	1.431838	8.661600	-0.002772	0.009126	-0.002161	-0.616211	-0.389893	-0.430420	9.406800	26.893028	133.042245
07431		-4.477364	1.431610	8.661370	-0.001112	0.002370	-0.000477	-0.622314	-0.386475	-0.435303	9.407512	26.890284	133.043516
07432		-4.481961	1.411981	8.675382	-0.002069	0.005453	-0.002367	-0.628174	-0.391357	-0.426025	9.407018	26.889591	133.043728
07433		-4.467067	1.442419	8.679636	0.001282	0.004742	-0.002874	-0.619629	-0.385986	-0.436279	9.408527	26.888412	133.043728
07434		-4.500002	1.440860	8.667681	-0.001816	0.006044	-0.000271	-0.620850	-0.386230	-0.431396	9.408802	26.887760	133.045117
07435		-4.472156	1.422695	8.693411	-0.001365	0.001779	-0.002573	-0.622803	-0.385254	-0.441162	9.408740	26.884878	133.044998
07436		-4.487871	1.392095	8.688756	0.001787	0.005925	0.001319	-0.622559	-0.396240	-0.432129	9.411503	26.884100	133.048126
07437		-4.492471	1.373023	8.702676	0.002996	0.003435	0.005305	-0.614990	-0.395752	-0.437988	9.416275	26.881416	133.053173
07438		-4.498733	1.414125	8.713777	0.007667	0.006514	0.010357	-0.617188	-0.391602	-0.435547	9.425148	26.880175	133.060226
07439		-4.480391	1.433365	8.659515	0.009030	0.004735	0.012931	-0.619141	-0.396240	-0.427246	9.435624	26.877509	133.070241
07440		-4.495025	1.436236	8.698893	0.010705	0.004380	0.012678	-0.624512	-0.385742	-0.424561	9.446775	26.874812	133.078822
07441		-4.514795	1.387765	8.708269	0.011971	0.002721	0.011742	-0.620605	-0.389160	-0.437500	9.458498	26.871116	133.087869
07442		-4.523280	1.457500	8.672414	0.016431	-0.000361	0.011714	-0.621826	-0.391602	-0.430420	9.472336	26.865741	133.096458
07443		-4.499143	1.422324	8.712231	0.020284	0.000111	0.015401	-0.626221	-0.389648	-0.431641	9.489742	26.860220	133.107544
07444		-4.501248	1.452551	8.665082	0.021940	-0.006645	0.017089	-0.621582	-0.390381	-0.430176	9.508005	26.850766	133.118281
07445		-4.445824	1.479240	8.713944	0.026511	-0.003447	0.018632	-0.614258	-0.387939	-0.430420	9.529726	26.842921	133.131029
07446		-4.533971	1.410044	8.714267	0.025692	-0.006054	0.017269	-0.623535	-0.392578	-0.432373	9.550210	26.833881	133.142343
07447		-4.486079	1.413384	8.686245	0.031605	-0.011034	0.023330	-0.623047	-0.385010	-0.427490	9.575819	26.821295	133.157247
07448		-4.475223	1.488133	8.702024	0.033274	-0.011391	0.023079	-0.624268	-0.386230	-0.430908	9.602018	26.808582	133.171655
07449		-4.520691	1.492145	8.730086	0.032861	-0.012695	0.022400	-0.619385	-0.393066	-0.427246	9.627988	26.795134	133.185776
07450		-4.389753	1.484488	8.627538	0.033965	-0.015067	0.022883	-0.623291	-0.391113	-0.426758	9.654350	26.780380	133.199549
07451		-4.389829	1.547802	8.624732	0.029157	-0.012460	0.017303	-0.621338	-0.388672	-0.438965	9.676743	26.767544	133.210455
07452		-4.408422	1.500841	8.634635	0.024761	-0.008549	0.012403	-0.615967	-0.388916	-0.424805	9.695158	26.757509	133.218430
07453		-4.403307	1.522422	8.620443	0.016045	-0.007240	0.008060	-0.617676	-0.388916	-0.423828	9.707652	26.748507	133.224043
07454		-4.428127	1.514323	8.641696	0.012192	-0.007713	0.004374	-0.626709	-0.392822	-0.437744	9.716621	26.739726	133.227076
07455		-4.436046	1.476850	8.670282	0.012758	-0.005700	0.003639	-0.616699	-0.385498	-0.439453	9.726046	26.732019	133.230057
07456		-4.471247	1.489527	8.716934	0.013323	-0.003687	0.002905	-0.615967	-0.387695	-0.441406	9.735434	26.725726	133.232985
07457		-4.476149	1.439383	8.687098	0.014682	-0.005463	0.005483	-0.622070	-0.399170	-0.429199	9.746495	26.717974	133.237154
07458		-4.468473	1.433121	8.720016	0.020746	-0.009731	0.010135	-0.613281	-0.391846	-0.431885	9.761951	26.707587	133.243146
07459		-4.506790	1.442197	8.675653	0.022260	-0.010798	0.011299	-0.622314	-0.392578	-0.425537	9.778741	26.696255	133.250404
07460		-4.454950	1.449426	8.738951	0.025229	-0.013753	0.018554	-0.628418	-0.390625	-0.435303	9.798932	26.682728	133.261346
07461		-4.447492	1.518465	8.663621	0.022890	-0.015295	0.016032	-0.620605	-0.387939	-0.427246	9.817199	26.668391	133.271094
07462		-4.377952	1.510787	8.628969	0.017932	-0.013399	0.011864	-0.619873	-0.388184	-0.431641	9.831265	26.655617	133.278402
07463		-4.402285	1.503196	8.650422	0.015153	-0.010669	0.011634	-0.616943	-0.390625	-0.430664	9.844071	26.644318	133.285868
07464		-4.401386	1.504969	8.650572	0.014614	-0.006285	0.010414	-0.630615	-0.390381	-0.430420	9.856188	26.635818	133.293175
07465		-4.410879	1.527587	8.676048	0.013412	-0.003803	0.006418	-0.622314	-0.394775	-0.428223	9.866852	26.628904	133.298094
07466		-4.414789	1.509734	8.690260	0.013821	-0.002499	0.007098	-0.620361	-0.395020	-0.429932	9.877783	26.622698	133.302894
07467		-4.410273	1.530462	8.675849	0.012463	-0.000724	0.004518	-0.621582	-0.394531	-0.423584	9.887515	26.617706	133.306950
07468		-4.451364	1.491461	8.692556	0.008171	0.003073	0.003123	-0.621826	-0.390869	-0.436768	9.894399	26.615117	133.309492
07469		-4.492466	1.452649	8.709236	0.014640	0.000111	0.008458	-0.625488	-0.392822	-0.430176	9.906533	26.610207	133.316124
07470		-4.472269	1.504100	8.699153	0.012684	-0.006522	0.008575	-0.626953	-0.394043	-0.433105	9.917022	26.601690	133.321835
07471		-4.409149	1.535993	8.675443	0.015712	-0.008656	0.010903	-0.617676	-0.392090	-0.428223	9.930024	26.591589	133.329039
07472		-4.460509	1.486436	8.674001	0.013786	-0.008894	0.009061	-0.617676	-0.390137	-0.428955	9.941180	26.581683	133.334516
07473		-4.414151	1.547200	8.643022	0.011039	-0.011741	0.005861	-0.618652	-0.394531	-0.433105	9.949925	26.570337	133.338191
07474		-4.355270	1.559226	8.633694	0.007667	-0.005443	0.009334	-0.622803	-0.390137	-0.432617	9.957821	26.562441	133.344513
07475		-4.400150	1.500814	8.665036	0.006467	-0.002963	0.005336	-0.623047	-0.397461	-0.421875	9.964229	26.556100	133.348825
07476		-4.404121	1.482229	8.679379	0.004796	-0.002603	0.005589	-0.620605	-0.397949	-0.422852	9.969571	26.550043	133.352580
07477		-4.381039	1.519611	8.611017	0.003596	-0.000122	0.001590	-0.614990	-0.399414	-0.427246	9.973418	26.545677	133.354843
07478		-4.392711	1.494486	8.697839	0.004103	0.001074	0.005781	-0.623535	-0.393555	-0.428955	9.978673	26.541759	133.358235
07479		-4.442127	1.522737	8.678717	0.003596	-0.000122	0.001590	-0.625244	-0.390625	-0.432617	9.982520	26.537391	133.360497
07480		-4.470062	1.541026	8.652830	0.003877	-0.005103	0.000719	-0.624512	-0.393555	-0.425781	9.985809	26.530421	133.361381
07481		-4.427097	1.521601	8.639220	0.000378	-0.005090	0.002642	-0.625000	-0.385498	-0.430664	9.987861	26.523146	133.363753
07482		-4.440836	1.523638	8.679219	0.001734	-0.006863	0.005223	-0.623535	-0.391113	-0.429932	9.991070	26.514702	133.367710
07483		-4.408784	1.492971	8.647229	0.000658	-0.010071	0.001771	-0.627441	-0.388428	-0.430420	9.992789	26.504702	133.368980
07484		-4.347046	1.582529	8.620644	-0.008205	-0.009466	-0.001156	-0.627441	-0.397949	-0.432617	9.988383	26.495440	133.368625
07485		-4.350656	1.562332	8.635459	-0.007988	-0.007944	-0.007502	-0.625732	-0.399902	-0.427734	9.982645	26.487562	133.364284
07486		-4.337844	1.512618	8.657457	-0.012400	0.001543	-0.009445	-0.613525	-0.393555	-0.428711	9.974178	26.485329	133.358055
07487		-4.390595	1.551779	8.696892	-0.014483	0.000598	-0.009870	-0.623779	-0.392578	-0.426025	9.964477	26.482506	133.353171
07488		-4.380865	1.528972	8.671602	-0.014170	0.002012	-0.012704	-0.625977	-0.391357	-0.426025	9.954046	26.480975	133.346262
07489		-4.406907	1.517555	8.692898	-0.015372	0.004493	-0.016700	-0.624512	-0.395264	-0.430420	9.942109	26.481024	133.337503
07490		-4.439960	1.514059	8.681343	-0.017358	0.003438	-0.013613	-0.622070	-0.393066	-0.433350	9.929657	26.480263	133.329956
07491		-4.352398	1.551464	8.636540	-0.021086	-0.002726	-0.016753	-0.621826	-0.398926	-0.429443	9.914076	26.476240	133.320368
07492		-4.431837	1.547895	8.653392	-0.016864	-0.000017	-0.020829	-0.620361	-0.397461	-0.426270	9.899760	26.474348	133.307533
07493		-4.448977	1.468138	8.710929	-0.016994	-0.006302	-0.022381	-0.633301	-0.391602	-0.437988	9.884770	26.468855	133.294006
07494		-4.369297	1.573020	8.630593	-0.024817	-0.008891	-0.019891	-0.625732	-0.385986	-0.421387	9.865699	26.461768	133.280967
07495		-4.413268	1.542662	8.706462	-0.023318	-0.002632	-0.029124	-0.623291	-0.392578	-0.432373	9.845375	26.459001	133.263595
07496		-4.387994	1.442498	8.750128	-0.022812	-0.001439	-0.024931	-0.625244	-0.392090	-0.431885	9.826345	26.456585	133.249174
07497		-4.309090	1.546931	8.669600	-0.026103	0.000097	-0.029349	-0.621826	-0.387939	-0.437988	9.804496	26.455370	133.231961
07498		-4.302606	1.549626	8.597271	-0.029372	0.008030	-0.035721	-0.634277	-0.389404	-0.432373	9.779154	26.459461	133.211886
07499		-4.352470	1.498612	8.686720	-0.031382	0.014302	-0.043024	-0.622803	-0.394531	-0.427979	9.751122	26.467582	133.187590
07500		-4.306406	1.540284	8.597047	-0.040243	0.021293	-0.047892	-0.621338	-0.398438	-0.424072	9.716779	26.480156	133.160526
07501		-4.422396	1.484806	8.662797	-0.039737	0.024243	-0.057056	-0.623535	-0.393555	-0.438232	9.680472	26.495221	133.128432
07502		-4.453402	1.390074	8.700633	-0.041170	0.025193	-0.054699	-0.619873	-0.387207	-0.427490	9.643922	26.510762	133.096814
07503		-4.475009	1.472887	8.689959	-0.040483	0.021518	-0.054892	-0.620850	-0.388916	-0.423828	9.607640	26.524043	133.065764
07504		-4.375400	1.398957	8.669126	-0.042016	0.022582	-0.056045	-0.619141	-0.382813	-0.430908	9.569964	26.538159	133.034512
07505		-4.480051	1.247699	8.817158	-0.033038	0.028278	-0.051552	-0.631348	-0.393555	-0.430664	9.539186	26.554908	133.006264
07506		-4.423858	1.407915	8.681714	-0.027526	0.022003	-0.046173	-0.632080	-0.385986	-0.423584	9.512526	26.567684	132.981101
07507		-4.372190	1.533946	8.666062	-0.031240	0.022234	-0.051265	-0.623047	-0.391357	-0.428711	9.482550	26.580964	132.952370
07508		-4.450251	1.546450	8.667642	-0.033838	0.026496	-0.057817	-0.623291	-0.391846	-0.430176	9.449176	26.597237	132.919957
07509		-4.508022	1.501552	8.723723	-0.041472	0.012615	-0.057790	-0.630127	-0.387695	-0.430420	9.411015	26.605663	132.886068
07510		-4.429811	1.511968	8.602358	-0.049001	0.005014	-0.056195	-0.624512	-0.384521	-0.429932	9.368412	26.609674	132.852322
07511		-4.515930	1.436494	8.694464	-0.052725	0.005244	-0.061281	-0.615479	-0.395996	-0.435303	9.322458	26.614212	132.815441
07512		-4.518084	1.243492	8.775873	-0.048770	-0.007200	-0.050215	-0.616943	-0.383301	-0.428223	9.281140	26.610893	132.784320
07513		-4.479119	1.337415	8.757702	-0.048419	-0.013133	-0.042675	-0.624023	-0.393066	-0.428711	9.242075	26.603276	132.757306
07514		-4.448144	1.393234	8.767912	-0.035778	-0.013098	-0.039577	-0.622314	-0.387695	-0.436768	9.210914	26.595545	132.732543
07515		-4.444890	1.361242	8.815687	-0.023186	-0.007496	-0.033494	-0.626221	-0.392578	-0.426758	9.189176	26.590249	132.711925
07516		-4.391603	1.456728	8.757537	-0.027401	-0.010243	-0.029432	-0.619385	-0.386719	-0.429443	9.165846	26.583154	132.693442
07517		-4.325410	1.503765	8.720585	-0.026500	-0.001356	-0.026484	-0.620605	-0.388672	-0.430908	9.144480	26.580678	132.677891
07518		-4.376572	1.495543	8.657731	-0.029571	0.007173	-0.030721	-0.626221	-0.389893	-0.429199	9.120325	26.583605	132.660929
07519		-4.426874	1.411439	8.702408	-0.039355	0.017096	-0.033934	-0.621094	-0.395996	-0.423340	9.090321	26.592231	132.642537
07520		-4.404573	1.369220	8.742090	-0.039107	0.017685	-0.031835	-0.620361	-0.392090	-0.431152	9.060930	26.601065	132.624542
07521		-4.403858	1.336731	8.788571	-0.035818	0.022551	-0.029349	-0.625488	-0.388428	-0.430908	9.034487	26.612348	132.609589
07522		-4.385911	1.291254	8.736505	-0.031167	0.032045	-0.026218	-0.620361	-0.387451	-0.433838	9.011838	26.628855	132.597281
07523		-4.457431	1.296825	8.770303	-0.021060	0.035396	-0.021244	-0.616455	-0.386230	-0.432129	8.996716	26.646670	132.588734
07524		-4.445752	1.325034	8.773577	-0.018369	0.037401	-0.013116	-0.618164	-0.388428	-0.429688	8.985306	26.665134	132.586097
07525		-4.426789	1.360755	8.704222	-0.017374	0.041567	-0.018066	-0.619629	-0.390625	-0.435303	8.973467	26.686154	132.580170
07526		-4.353799	1.420608	8.683893	-0.015768	0.046781	-0.015320	-0.616943	-0.392334	-0.431641	8.963372	26.710094	132.576399
07527		-4.394979	1.397025	8.684169	-0.020536	0.055657	-0.019288	-0.619629	-0.389404	-0.440674	8.949995	26.739196	132.571092
07528		-4.428615	1.411919	8.656082	-0.026414	0.060494	-0.021808	-0.623047	-0.387695	-0.430664	8.932581	26.771514	132.564368
07529		-4.448709	1.409481	8.693504	-0.031868	0.060227	-0.021728	-0.622559	-0.389404	-0.433105	8.912204	26.803417	132.557946
07530		-4.478277	1.443168	8.651439	-0.031154	0.056557	-0.021939	-0.613037	-0.395264	-0.427002	8.891803	26.833333	132.550899
07531		-4.514639	1.330183	8.700872	-0.036931	0.049428	-0.025552	-0.614990	-0.390625	-0.432373	8.866926	26.859456	132.540951
07532		-4.523795	1.445313	8.694467	-0.037394	0.047276	-0.021322	-0.622070	-0.388672	-0.430420	8.842783	26.884213	132.532449
07533		-4.478638	1.382086	8.667584	-0.038905	0.041931	-0.020565	-0.616699	-0.385010	-0.437500	8.817852	26.905645	132.524898
07534		-4.520227	1.308734	8.729195	-0.040514	0.036718	-0.023314	-0.612793	-0.387939	-0.440674	8.790770	26.924506	132.515331
07535		-4.498098	1.314871	8.707174	-0.031519	0.036031	-0.016872	-0.624023	-0.387451	-0.432373	8.770855	26.942269	132.509522
07536		-4.495011	1.271115	8.694275	-0.034890	0.036720	-0.016365	-0.622559	-0.383057	-0.428711	8.748999	26.960564	132.504174
07537		-4.504867	1.307593	8.704770	-0.031533	0.036031	-0.016864	-0.616699	-0.382813	-0.430176	8.729068	26.978322	132.498354
07538		-4.469363	1.265801	8.703811	-0.031443	0.035896	-0.013357	-0.623047	-0.384033	-0.431885	8.709933	26.995744	132.495508
07539		-4.451933	1.392134	8.677321	-0.030901	0.037917	-0.014070	-0.612549	-0.391602	-0.434814	8.691245	27.014325	132.491633
07540		-4.457214	1.340870	8.736609	-0.036144	0.044637	-0.013803	-0.623047	-0.392334	-0.434814	8.669749	27.036822	132.488339
07541		-4.470845	1.373921	8.655464	-0.032729	0.050222	-0.012691	-0.618896	-0.392822	-0.435547	8.650943	27.062251	132.486517
07542		-4.498472	1.300226	8.676679	-0.037392	0.047137	-0.017762	-0.609863	-0.385742	-0.436279	8.627757	27.086443	132.479767
07543		-4.532501	1.266550	8.709674	-0.033696	0.046895	-0.012657	-0.620850	-0.390137	-0.437988	8.608250	27.109984	132.477624
07544		-4.507045	1.292930	8.673320	-0.034993	0.048540	-0.011709	-0.609863	-0.381348	-0.432617	8.588187	27.134582	132.475984
07545		-4.521459	1.202466	8.759835	-0.031886	0.052684	-0.007779	-0.613037	-0.389160	-0.429932	8.571378	27.160984	132.477484
07546		-4.509732	1.278430	8.702132	-0.018616	0.055631	-0.010252	-0.615234	-0.385254	-0.433105	8.561391	27.189462	132.477834
07547		-4.474206	1.317465	8.684150	-0.019429	0.058437	-0.005109	-0.622070	-0.383789	-0.433105	8.552746	27.218897	132.481575
07548		-4.497359	1.376265	8.718905	-0.013441	0.073414	-0.006133	-0.612793	-0.383545	-0.437256	8.547675	27.256933	132.486202
07549		-4.522945	1.292984	8.679980	-0.013062	0.074715	-0.005431	-0.616943	-0.387939	-0.437012	8.543301	27.295619	132.491294
07550		-4.514829	1.322558	8.681672	-0.006382	0.079754	-0.008295	-0.616943	-0.385010	-0.439697	8.541958	27.337550	132.495029
07551		-4.524538	1.381467	8.675955	-0.006274	0.085883	-0.003162	-0.614258	-0.389893	-0.436035	8.542637	27.382371	132.502640
07552		-4.493464	1.342406	8.672438	-0.007788	0.093214	-0.002686	-0.613037	-0.390869	-0.436523	8.542767	27.431414	132.510813
07553		-4.525927	1.410702	8.672793	-0.007231	0.101505	-0.001758	-0.608154	-0.378906	-0.434814	8.544016	27.484966	132.520826
07554		-4.522111	1.361332	8.689083	-0.007823	0.112160	-0.001289	-0.607910	-0.384766	-0.437744	8.545376	27.544670	132.532295
07555		-4.517794	1.422445	8.733662	-0.018463	0.124726	0.004154	-0.610840	-0.388672	-0.436768	8.542996	27.610876	132.548329
07556		-4.497355	1.422488	8.740243	-0.025098	0.145761	0.005128	-0.606689	-0.384766	-0.439453	8.537928	27.689076	132.566711
07557		-4.574798	1.384831	8.664204	-0.042892	0.165665	0.004072	-0.611084	-0.387451	-0.445801	8.523398	27.778489	132.586629
07558		-4.570642	1.324176	8.710668	-0.038158	0.183001	0.002687	-0.603271	-0.386963	-0.441162	8.511838	27.878026	132.607187
07559		-4.481131	1.475739	8.741385	-0.045474	0.203159	-0.007506	-0.604492	-0.387695	-0.441650	8.494089	27.989675	132.623261
07560		-4.299881	1.584992	8.961224	-0.096936	0.248266	0.011650	-0.601318	-0.371826	-0.441406	8.454596	28.125476	132.655355
07561		-4.082681	0.961366	9.360041	-0.082448	0.307986	0.006458	-0.594727	-0.382813	-0.447754	8.424659	28.295377	132.690315
07562		-4.133419	1.475282	9.088120	-0.036974	0.406395	-0.039148	-0.604248	-0.389160	-0.443359	8.411127	28.525114	132.706901
07563		-4.316075	1.022437	9.247197	0.000729	0.487546	-0.052565	-0.593506	-0.390869	-0.447266	8.419065	28.801750	132.720961
07564		-4.180205	1.289502	9.281553	0.009291	0.586871	-0.055028	-0.597412	-0.381836	-0.445557	8.435839	29.134882	132.741399
07565		-4.292936	1.267482	9.293751	0.026192	0.687242	-0.076539	-0.582764	-0.385986	-0.450195	8.460454	29.526705	132.759429
07566		-4.231418	1.375718	9.377521	0.035478	0.808046	-0.098830	-0.581787	-0.379883	-0.460205	8.489099	29.988790	132.774831
07567		-4.203109	1.294452	9.482352	0.042761	0.944453	-0.119205	-0.577148	-0.387207	-0.463135	8.522388	30.529963	132.790731
07568		-4.152445	1.313667	9.567416	0.044677	1.099319	-0.157413	-0.564209	-0.386475	-0.458740	8.551876	31.162102	132.797710
07569		-4.160232	1.341144	9.691268	0.040355	1.270188	-0.202150	-0.551270	-0.384277	-0.458496	8.572744	31.894890	132.791915
07570		-4.011633	1.278846	9.927637	0.027712	1.464692	-0.259772	-0.543213	-0.384521	-0.478271	8.576042	32.742761	132.767561
07571		-4.058469	1.580337	9.789753	0.000822	1.675426	-0.343221	-0.539063	-0.384521	-0.476807	8.544313	33.717178	132.707388
07572		-3.767792	1.844470	9.929361	-0.046584	1.930662	-0.449149	-0.523926	-0.394531	-0.477295	8.456875	34.845074	132.599976
07573		-3.856243	1.938731	9.999991	-0.130607	2.206497	-0.569696	-0.501953	-0.386230	-0.483643	8.284664	36.139250	132.430934
07574		-3.867731	1.891826	9.916592	-0.207064	2.531611	-0.698060	-0.485840	-0.392822	-0.491699	8.024933	37.627423	132.194703
07575		-3.905268	1.800278	10.014220	-0.309493	2.905624	-0.826042	-0.454102	-0.398926	-0.497314	7.657215	39.337137	131.887549
07576		-4.084284	1.962849	10.012503	-0.422953	3.325599	-0.975670	-0.442139	-0.390137	-0.507324	7.155186	41.295157	131.483212
07577		-4.560657	2.178512	9.787684	-0.538272	3.776102	-1.140470	-0.407715	-0.390625	-0.523193	6.490897	43.516960	130.954506
07578		-5.084824	2.505571	9.650736	-0.618787	4.245590	-1.309513	-0.374512	-0.389404	-0.519531	5.653858	46.011780	130.268112
07579		-6.136377	2.281338	9.383417	-0.708163	4.701563	-1.487772	-0.342041	-0.393311	-0.518799	4.588717	48.766954	129.371487
07580		-7.129906	1.835872	9.535172	-0.720580	5.111583	-1.588789	-0.294922	-0.381348	-0.532715	3.331583	51.749379	128.268182
07581		-10.050767	1.031113	10.850083	-0.600795	5.359495	-1.539506	-0.252197	-0.385986	-0.525635	1.999412	54.854036	127.035630
07582		-10.794727	-0.148386	10.924237	-0.252564	5.470850	-1.405604	-0.213623	-0.377441	-0.527344	0.761421	58.009554	125.718126
07583		-10.017567	-0.081954	10.492810	0.168751	5.633094	-1.304348	-0.168701	-0.378174	-0.535645	-0.395731	61.235801	124.264425
07584		-11.223867	0.416159	10.587000	0.630405	5.634902	-1.172324	-0.126465	-0.379883	-0.523682	-1.438856	64.454433	122.683454
07585		-13.120401	0.086132	11.173067	1.153099	5.460023	-1.057581	-0.086426	-0.388916	-0.522217	-2.367287	67.557455	120.943663
07586		-12.615107	1.777477	11.127050	1.600889	5.220825	-1.092367	-0.045654	-0.405762	-0.506104	-3.472574	70.511800	118.776567
07587		-11.183140	3.353210	10.947210	1.867148	4.944662	-1.255812	-0.004883	-0.415283	-0.494385	-5.249499	73.279116	115.781443
07588		-8.418594	3.987943	10.027732	1.968266	4.694701	-1.549912	0.031006	-0.428711	-0.476074	-8.463448	75.842274	111.274725
07589		-5.124056	4.158795	8.549228	1.945800	4.538994	-1.881662	0.073486	-0.434570	-0.457275	-14.134676	78.182053	104.311328
07590		-1.457644	5.486685	7.834023	1.644562	4.541723	-2.322123	0.095947	-0.448486	-0.443115	-24.250148	80.206925	93.055205
07591		-0.444962	4.424776	7.599640	1.132878	4.384375	-2.812321	0.141113	-0.444580	-0.425781	-40.423599	81.479128	76.018775
07592		-19.481886	2.699972	12.397832	0.960050	2.832138	-2.434588	0.159424	-0.429932	-0.416504	-54.194502	81.552219	61.539404
07593		-12.955633	5.755644	16.523016	0.878752	0.799701	-1.967952	0.160400	-0.433594	-0.416260	-60.105201	80.851843	55.048326
07594		-9.636959	4.282458	14.875538	0.944665	-0.576006	-1.601612	0.165039	-0.432373	-0.412598	-60.498035	79.890561	54.099073
07595		-5.036655	5.014337	11.269126	0.843763	-1.605634	-1.204959	0.156982	-0.436523	-0.415039	-57.677909	78.824993	56.475732
07596		-2.105512	4.395827	8.749656	0.613351	-2.144635	-0.928732	0.141113	-0.435547	-0.425293	-53.829012	77.691650	60.045423
07597		-0.621761	3.406322	7.019742	0.452106	-2.335068	-0.629834	0.140625	-0.441162	-0.437256	-49.917171	76.580219	63.791216
07598		0.151537	2.959230	5.799095	0.331656	-2.349992	-0.296198	0.121338	-0.435791	-0.453125	-46.106368	75.549896	67.518873
07599		-0.008027	2.502243	5.412528	0.245842	-2.333437	0.067427	0.114258	-0.436279	-0.448486	-42.344417	74.616789	71.265224
07600		-0.932678	2.250294	5.830977	0.200082	-2.358536	0.464112	0.101318	-0.432373	-0.463623	-38.384956	73.754412	75.258102
07601		-1.878790	2.345782	6.510634	0.133707	-2.462086	0.900990	0.075928	-0.441895	-0.479980	-34.115999	72.919413	79.633108
07602		-2.610471	2.218860	7.171822	0.029655	-2.649436	1.336473	0.060059	-0.446777	-0.490479	-29.470742	72.025603	84.483144
07603		-3.146970	1.620694	7.575641	-0.064068	-2.884571	1.702176	0.039063	-0.460938	-0.500488	-24.649061	70.993848	89.604621
07604		-3.484657	0.538292	7.714867	-0.071921	-3.119298	1.965880	0.019775	-0.450195	-0.521973	-19.839612	69.756611	94.750447
07605		-3.575776	-0.443892	7.622196	0.021153	-3.343654	2.117108	-0.002930	-0.455811	-0.537354	-15.292694	68.291867	99.605482
07606		-3.623438	-1.125750	7.529951	0.186901	-3.513970	2.151122	-0.030273	-0.465088	-0.552979	-11.165135	66.602829	103.954750
07607		-3.989032	-1.217794	7.510921	0.370506	-3.646567	2.089915	-0.065674	-0.479004	-0.562500	-7.580544	64.731959	107.654228
07608		-4.322660	-0.929015	7.615155	0.481390	-3.748459	1.979713	-0.108398	-0.482666	-0.572754	-4.545859	62.704108	110.727189
07609		-4.666576	-0.362337	7.787196	0.492760	-3.835254	1.833865	-0.136230	-0.489014	-0.602783	-2.080310	60.566839	113.206828
07610		-5.224324	0.074867	8.277058	0.440196	-3.892959	1.697515	-0.175537	-0.493652	-0.604248	-0.097218	58.342789	115.212786
07611		-5.990808	0.174349	8.844818	0.384647	-3.953054	1.618937	-0.220703	-0.500977	-0.614990	1.522641	56.062376	116.876325
07612		-6.870486	0.489730	9.294079	0.368612	-4.047184	1.630361	-0.273193	-0.495361	-0.614746	2.941071	53.696018	118.348443
07613		-7.455388	1.086581	9.440934	0.333605	-4.124269	1.701646	-0.323730	-0.494141	-0.616943	4.210740	51.272643	119.706835
07614		-7.768556	1.685327	9.398012	0.248600	-4.134344	1.805898	-0.376953	-0.483398	-0.614502	5.354816	48.812572	121.009658
07615		-8.017707	2.092368	9.292558	0.111615	-4.025057	1.919436	-0.423096	-0.484131	-0.609619	6.361842	46.402004	122.285227
07616		-8.520005	2.268844	9.261206	-0.014306	-3.807280	2.024567	-0.458008	-0.475830	-0.598389	7.259756	44.084942	123.557291
07617		-9.781830	2.534795	9.955962	-0.098296	-3.553271	2.125817	-0.490479	-0.453125	-0.586914	8.077639	41.900537	124.837901
07618		-12.035786	2.875801	11.002384	-0.133875	-3.416242	2.257158	-0.523682	-0.443359	-0.581299	8.861530	39.760472	126.150179
07619		-13.432922	3.245174	11.506359	-0.165714	-3.449637	2.408483	-0.548096	-0.421631	-0.574463	9.604760	37.583923	127.490052
07620		-13.773447	3.293662	11.329025	-0.200767	-3.539140	2.511586	-0.578125	-0.404785	-0.562500	10.281734	35.324666	128.818994
07621		-13.367842	2.875344	10.740740	-0.218290	-3.601312	2.557894	-0.602295	-0.385986	-0.557617	10.879158	33.022984	130.103602
07622		-13.613667	2.765694	10.575649	-0.192979	-3.615966	2.539210	-0.626953	-0.374268	-0.532715	11.409711	30.695927	131.314252
07623		-13.954533	2.748496	10.556567	-0.152403	-3.625556	2.482604	-0.661133	-0.357910	-0.511719	11.875596	28.370065	132.434737
07624		-13.762539	2.615526	10.244300	-0.105696	-3.594191	2.407145	-0.672607	-0.340332	-0.498535	12.289193	26.055042	133.467661
07625		-13.634459	2.396731	9.783892	-0.073610	-3.523209	2.327401	-0.701660	-0.331055	-0.474121	12.650784	23.791830	134.423764
07626		-13.263645	2.068617	9.158238	-0.058758	-3.403633	2.229432	-0.715088	-0.317871	-0.445313	12.959141	21.595085	135.306306
07627		-12.892813	1.428899	8.408952	-0.042633	-3.224088	2.073790	-0.734375	-0.310303	-0.419434	13.213064	19.522534	136.096599
07628		-12.870440	0.764647	7.641691	0.014516	-3.022405	1.879815	-0.757568	-0.300049	-0.397949	13.440647	17.577938	136.781799
07629		-12.640521	0.331858	6.922920	0.092302	-2.817155	1.632336	-0.771240	-0.291260	-0.371582	13.653757	15.785437	137.337167
07630		-12.574063	-0.002252	6.462572	0.180882	-2.608808	1.316238	-0.783203	-0.294678	-0.358887	13.859390	14.143841	137.728151
07631		-12.978776	-0.343775	6.078107	0.294357	-2.447831	0.935742	-0.791016	-0.299316	-0.324707	14.072337	12.649190	137.915908
07632		-12.862130	-0.588272	5.596723	0.432323	-2.328025	0.534623	-0.810303	-0.299561	-0.304932	14.314645	11.271456	137.885779
07633		-12.532062	-0.736046	4.794770	0.576867	-2.214244	0.136604	-0.827881	-0.310791	-0.287842	14.600817	10.019205	137.641437
07634		-12.013235	-0.640955	3.890993	0.687810	-2.058285	-0.196977	-0.831055	-0.324707	-0.260498	14.927472	8.899050	137.226722
07635		-11.405643	-0.622917	2.927676	0.736884	-1.816835	-0.447654	-0.843506	-0.334229	-0.252686	15.273707	7.956612	136.703019
07636		-10.793345	-0.553812	2.045325	0.729019	-1.508944	-0.614563	-0.853271	-0.347900	-0.239014	15.616308	7.209402	136.128923
07637		-10.394595	-0.289295	1.570588	0.669707	-1.151957	-0.730256	-0.864746	-0.361572	-0.216064	15.929975	6.683728	135.543276
07638		-10.451741	-0.154770	1.597984	0.586077	-0.787640	-0.807990	-0.866699	-0.366699	-0.201904	16.201287	6.371365	134.970366
07639		-10.534576	0.044203	1.733917	0.521033	-0.472655	-0.863832	-0.870361	-0.385010	-0.193848	16.439744	6.246306	134.416590
07640		-10.368946	0.187871	1.904706	0.470726	-0.197727	-0.931749	-0.882813	-0.393066	-0.195801	16.650428	6.283722	133.869868
07641		-10.455997	0.332027	2.287194	0.455469	0.017167	-1.018903	-0.883545	-0.400879	-0.188477	16.850149	6.457142	133.310875
07642		-10.684180	4.355054	3.260347	-0.184636	0.992116	-1.064754	-0.880859	-0.412598	-0.190674	16.694860	7.172214	132.888392
07643		-8.743207	0.795192	-7.371248	-0.866856	1.771896	-1.434159	-0.866699	-0.414551	-0.210449	16.130593	8.374006	132.383052
07644		2.381504	-1.838945	-1.434925	-1.092356	2.780389	-1.536688	-0.868896	-0.421387	-0.232422	15.438164	10.141992	131.964415
07645		-1.624931	4.035689	9.444435	-1.209182	3.664972	-1.121360	-0.866211	-0.428467	-0.255615	14.731523	12.332476	131.889894
07646		-7.950969	7.348725	13.218752	-1.397639	3.410045	-1.149745	-0.836426	-0.429199	-0.277100	13.894826	14.383935	131.731156
07647		-8.079310	4.467730	10.935208	-1.366498	3.027922	-1.394288	-0.833984	-0.425781	-0.300537	13.010556	16.252846	131.344996
07648		-6.988300	-0.299872	10.367147	-1.132091	3.251433	-1.118334	-0.828125	-0.424561	-0.316895	12.295872	18.206696	131.118773
07649		-12.558866	0.887770	14.518154	-0.799903	3.232754	-0.724644	-0.802734	-0.425293	-0.343262	11.832077	20.100611	131.099814
07650		-14.768489	-0.998845	16.084553	-0.539486	2.491409	-0.657211	-0.801514	-0.428955	-0.349365	11.493702	21.570936	131.015140
07651		-9.605260	-1.811753	12.809829	-0.285684	1.892575	-0.536130	-0.789063	-0.432129	-0.360596	11.295874	22.690447	130.922460
07652		-5.830946	1.522588	9.910758	-0.166341	1.703875	-0.459842	-0.773926	-0.430420	-0.372314	11.172341	23.695951	130.849312
07653		-5.378137	3.761228	8.735745	-0.152402	1.661149	-0.454726	-0.767822	-0.435791	-0.381836	11.053843	24.675926	130.771319
07654		-6.073062	3.329064	8.717141	-0.180487	1.642774	-0.512882	-0.753174	-0.433838	-0.402100	10.900222	25.652597	130.651751
07655		-19.340758	6.540303	16.602508	-0.504458	1.263697	-1.116213	-0.756836	-0.432861	-0.408691	10.370396	26.478087	130.102003
07656		-4.258914	-6.424164	9.307770	-0.182896	0.051173	-0.300162	-0.751709	-0.440430	-0.403809	10.185173	26.534681	129.920065
07657		-5.777109	1.385788	9.797513	-0.207276	0.368341	-0.288579	-0.748291	-0.437744	-0.407715	10.004625	26.767294	129.780583
07658		-4.548697	1.161996	8.396722	-0.169456	0.144267	-0.179245	-0.756104	-0.433594	-0.398926	9.864667	26.863488	129.684400
07659		-5.012197	0.970492	9.601433	-0.061721	0.191016	-0.080752	-0.741211	-0.434814	-0.409912	9.817015	26.975090	129.655539
07660		-5.174837	0.825995	9.182310	-0.062745	0.144117	-0.067734	-0.740967	-0.440918	-0.413818	9.769765	27.060090	129.629561
07661		-4.409725	1.378973	8.662703	-0.043047	0.087706	-0.049965	-0.744385	-0.440674	-0.413330	9.736394	27.110328	129.608729
07662		-4.184063	1.456828	8.699648	-0.048048	0.103380	-0.054010	-0.751221	-0.437744	-0.410156	9.699377	27.170937	129.586867
07663		-4.478075	1.580550	8.762956	-0.054636	0.147346	-0.057521	-0.745605	-0.438232	-0.411133	9.660041	27.255564	129.567600
07664		-4.808223	1.190215	8.832834	-0.039070	0.123261	-0.042360	-0.741455	-0.439697	-0.413574	9.632459	27.326208	129.555181
07665		-4.623460	1.318555	8.761504	-0.025622	0.105222	-0.031052	-0.740479	-0.438965	-0.413818	9.615298	27.384487	129.548090
07666		-4.690815	1.301175	8.765308	-0.010550	0.114925	-0.023134	-0.743408	-0.444824	-0.415039	9.609219	27.448545	129.546942
07667		-4.710556	1.287418	8.741794	0.001591	0.100040	-0.020711	-0.739990	-0.446045	-0.408203	9.610406	27.502906	129.545852
07668		-4.638813	1.390983	8.688550	0.010056	0.098437	-0.018340	-0.749756	-0.446289	-0.411621	9.616719	27.557161	129.545976
07669		-4.590348	1.581745	8.622925	0.002478	0.083087	-0.022418	-0.741699	-0.438232	-0.415771	9.617064	27.602109	129.541974
07670		-4.542327	1.673697	8.591714	-0.010699	0.079176	-0.018630	-0.739258	-0.446045	-0.419678	9.610449	27.645477	129.539839
07671		-4.619844	1.715603	8.468247	-0.033082	0.074969	-0.023443	-0.741699	-0.443359	-0.415039	9.589696	27.685936	129.534289
07672		-4.673019	1.753744	8.430646	-0.058341	0.052408	-0.028816	-0.746094	-0.439697	-0.409912	9.551431	27.715117	129.522748
07673		-4.651750	1.535391	8.523622	-0.074990	0.049168	-0.028080	-0.735840	-0.450928	-0.413330	9.503970	27.741430	129.511413
07674		-4.669422	1.404652	8.643357	-0.084350	0.038897	-0.020692	-0.741455	-0.439453	-0.417236	9.452537	27.762166	129.503573
07675		-4.630115	1.327249	8.601536	-0.080664	0.039608	-0.020454	-0.744385	-0.441650	-0.417236	9.403588	27.782343	129.496039
07676		-4.551263	1.300040	8.633924	-0.065492	0.043018	-0.013975	-0.749756	-0.433350	-0.421143	9.365145	27.804741	129.492888
07677		-4.555097	1.301137	8.723367	-0.046726	0.061970	-0.015432	-0.741455	-0.439453	-0.417236	9.338217	27.837083	129.490885
07678		-4.605795	1.581731	8.556719	-0.044847	0.076280	-0.013361	-0.742920	-0.440430	-0.422363	9.313404	27.878192	129.491591
07679		-4.834910	1.373567	8.518257	-0.042561	0.065475	-0.020805	-0.738525	-0.436279	-0.411865	9.287407	27.913012	129.486484
07680		-4.794954	1.404534	8.532771	-0.039320	0.050178	-0.020050	-0.740479	-0.447266	-0.422363	9.262474	27.939958	129.480146
07681		-4.769920	1.430061	8.496346	-0.049115	0.032416	-0.021858	-0.739258	-0.437988	-0.426514	9.230769	27.956175	129.470879
07682		-4.686707	1.423895	8.514802	-0.057635	0.025468	-0.014575	-0.739990	-0.438965	-0.420166	9.195773	27.968620	129.465451
07683		-4.648956	1.519498	8.618237	-0.058616	0.028416	-0.013000	-0.739502	-0.436279	-0.414307	9.161076	27.981755	129.461420
07684		-4.597629	1.508807	8.624375	-0.067488	0.028687	-0.016048	-0.736084	-0.439453	-0.415039	9.120151	27.996124	129.455368
07685		-4.656828	1.356150	8.621182	-0.074361	0.036192	-0.013638	-0.734863	-0.433350	-0.418457	9.076603	28.013712	129.451703
07686		-4.692071	1.345757	8.607771	-0.063591	0.037018	-0.013599	-0.740967	-0.435547	-0.416992	9.039044	28.032539	129.448052
07687		-4.712131	1.289100	8.616801	-0.053912	0.040090	-0.010584	-0.737305	-0.434814	-0.422363	9.008305	28.052054	129.446715
07688		-4.696487	1.308614	8.652899	-0.048320	0.048117	-0.008356	-0.729492	-0.440918	-0.422852	8.981598	28.076668	129.447530
07689		-4.695625	1.244958	8.654906	-0.045400	0.058609	0.000554	-0.739258	-0.438477	-0.419189	8.959972	28.105668	129.455193
07690		-4.704258	1.222154	8.666924	-0.036943	0.063221	0.007957	-0.740723	-0.435303	-0.423584	8.945431	28.137354	129.467983
07691		-4.613768	1.276897	8.640582	-0.037106	0.069511	0.009497	-0.744141	-0.440918	-0.421143	8.931787	28.171731	129.482474
07692		-4.596366	1.416217	8.628032	-0.036726	0.092514	0.009188	-0.739990	-0.438721	-0.418213	8.919151	28.219870	129.499001
07693		-4.607480	1.446214	8.667641	-0.036707	0.106414	0.012956	-0.742920	-0.435303	-0.424072	8.908565	28.274835	129.519429
07694		-4.630405	1.412076	8.658366	-0.031479	0.121685	0.004916	-0.729980	-0.431396	-0.423096	8.899065	28.339844	129.536148
07695		-4.640922	1.461508	8.682156	-0.031307	0.137864	-0.002462	-0.731445	-0.435547	-0.417969	8.888406	28.413983	129.549826
07696		-4.658895	1.512238	8.580869	-0.034100	0.155092	-0.000354	-0.731445	-0.436279	-0.432617	8.877437	28.498351	129.566515
07697		-4.629606	1.498107	8.652802	-0.031202	0.183505	-0.015488	-0.731201	-0.436035	-0.428223	8.865051	28.599483	129.576378
07698		-4.526623	1.521875	8.754348	-0.052115	0.213861	-0.016452	-0.737549	-0.433838	-0.434570	8.841671	28.718525	129.588575
07699		-4.472226	1.154957	8.937393	-0.036825	0.264481	-0.032574	-0.728027	-0.440430	-0.423828	8.824673	28.867012	129.595477
07700		-4.543954	1.292841	8.856255	-0.015258	0.326468	-0.046344	-0.722656	-0.426758	-0.435547	8.818560	29.052405	129.599599
07701		-4.648103	1.219124	8.765318	0.022022	0.365910	-0.054700	-0.726563	-0.438477	-0.427979	8.833305	29.260265	129.602369
07702		-4.530897	1.276799	8.948519	0.046285	0.424295	-0.056119	-0.717773	-0.435547	-0.426025	8.864275	29.501869	129.610150
07703		-4.681237	1.262542	8.834163	0.054077	0.480628	-0.052795	-0.719482	-0.440430	-0.430908	8.903922	29.774497	129.626095
07704		-4.667684	1.305223	8.880789	0.056277	0.529634	-0.053120	-0.720215	-0.430176	-0.438477	8.947254	30.075413	129.647050
07705		-4.712904	1.223524	8.780964	0.068142	0.583125	-0.052947	-0.701172	-0.442871	-0.437988	9.000693	30.406041	129.674091
07706		-4.793614	1.191025	8.693557	0.082937	0.635399	-0.055105	-0.705322	-0.434082	-0.442383	9.064871	30.766914	129.705583
07707		-4.852933	1.274480	8.642461	0.088624	0.680323	-0.062648	-0.706543	-0.448242	-0.441406	9.132864	31.153358	129.737536
07708		-4.932790	1.306663	8.597572	0.090837	0.726547	-0.071124	-0.699219	-0.437744	-0.442627	9.202128	31.567155	129.769404
07709		-4.918117	1.264431	8.645751	0.090474	0.778035	-0.078453	-0.695068	-0.444824	-0.453613	9.272334	32.010245	129.802794
07710		-4.934164	1.413918	8.611564	0.082997	0.838565	-0.093183	-0.690186	-0.440674	-0.454346	9.336991	32.489326	129.833658
07711		-4.881679	1.496353	8.676623	0.074990	0.906320	-0.118047	-0.685303	-0.446289	-0.457275	9.392921	33.008565	129.856185
07712		-4.869949	1.546288	8.771633	0.062642	0.996416	-0.146761	-0.685303	-0.448486	-0.460693	9.437029	33.581801	129.869984
07713		-4.887222	1.452247	8.746443	0.047017	1.098854	-0.177531	-0.665283	-0.450439	-0.468994	9.467592	34.215424	129.875087
07714		-5.018767	1.284785	8.710290	0.039106	1.208803	-0.205691	-0.665771	-0.454102	-0.464355	9.489894	34.914183	129.873761
07715		-5.063728	1.219355	8.717226	0.039442	1.329728	-0.234512	-0.651855	-0.450928	-0.468262	9.509299	35.683657	129.866887
07716		-5.132741	1.239184	8.578691	0.023397	1.436737	-0.263725	-0.649658	-0.459229	-0.483643	9.514668	36.516660	129.852149
07717		-5.198710	1.247974	8.555432	0.023276	1.558484	-0.300010	-0.629883	-0.460449	-0.484375	9.513152	37.421603	129.826159
07718		-5.249674	1.343830	8.490342	-0.002732	1.707654	-0.344925	-0.612549	-0.456299	-0.486816	9.487027	38.415322	129.785143
07719		-5.159561	1.419665	8.501219	-0.009880	1.893248	-0.395176	-0.606201	-0.451660	-0.505371	9.446762	39.518409	129.728883
07720		-5.185992	1.168177	8.704789	-0.037057	2.082710	-0.441867	-0.602295	-0.460449	-0.503662	9.381086	40.733093	129.658911
07721		-5.202420	1.497287	8.968766	-0.049219	2.352865	-0.511541	-0.586182	-0.460205	-0.510254	9.292508	42.106748	129.566481
07722		-4.886899	1.644444	9.135876	-0.078356	2.682103	-0.585774	-0.561768	-0.467041	-0.524902	9.170540	43.673366	129.452282
07723		-5.025874	1.970753	9.382627	-0.108449	3.078631	-0.686615	-0.540771	-0.463623	-0.529541	9.002074	45.473163	129.299696
07724		-5.143997	2.414230	9.663522	-0.151805	3.532349	-0.809717	-0.519287	-0.467041	-0.536377	8.763178	47.540227	129.089391
07725		-5.397233	2.434133	9.718649	-0.186714	4.030920	-0.961149	-0.488770	-0.477051	-0.549805	8.431358	49.902039	128.789253
07726		-6.760424	2.090229	10.105315	-0.221391	4.527760	-1.049398	-0.450439	-0.470459	-0.555420	8.028109	52.551261	128.433916
07727		-8.136017	1.358636	10.397388	-0.150882	4.967510	-1.074259	-0.411621	-0.477051	-0.573730	7.638778	55.450682	128.058720
07728		-10.329337	0.988234	11.091296	-0.028556	5.270891	-0.989505	-0.385254	-0.476563	-0.574951	7.366866	58.514350	127.753169
07729		-10.189044	-0.067815	10.823314	0.290400	5.487287	-0.868736	-0.339111	-0.480469	-0.572998	7.379524	61.692131	127.574963
07730		-10.694508	0.185964	10.746066	0.706255	5.677528	-0.774800	-0.297363	-0.495850	-0.580566	7.764716	64.970544	127.552232
07731		-11.297938	0.131288	10.605409	1.212414	5.734882	-0.662623	-0.257813	-0.496094	-0.574707	8.681265	68.272790	127.792807
07732		-12.522691	0.062274	10.136128	1.901869	5.696894	-0.580488	-0.220215	-0.529297	-0.570557	10.353546	71.541972	128.411786
07733		-12.708819	1.723495	10.567217	2.534092	5.496398	-0.636363	-0.172119	-0.544189	-0.559570	12.707338	74.696351	129.352703
07734		-12.051327	3.543270	10.542028	2.903896	5.247912	-0.871593	-0.148926	-0.576904	-0.537598	15.373311	77.729229	130.383048
07735		-11.094866	4.761953	10.568926	3.168236	4.876534	-1.213419	-0.119385	-0.597412	-0.526367	17.891225	80.601065	131.097045
07736		-7.330417	6.610377	9.875357	3.209587	4.527792	-1.620592	-0.085693	-0.627686	-0.498047	19.370866	83.350158	130.733113
07737		-3.908566	9.577112	9.113292	2.579830	4.406467	-2.200616	-0.064453	-0.637451	-0.494141	16.181559	86.137269	126.046288
07738		-0.201476	10.020647	7.350875	1.541837	4.270339	-3.054072	-0.034424	-0.661133	-0.472656	-26.527756	88.586029	82.419608
07739		-15.867781	7.730817	9.531899	0.731926	3.438676	-3.220221	-0.011475	-0.659912	-0.461670	-105.577448	87.433187	2.918551
07740		-18.082970	8.893885	15.876857	0.071511	0.657401	-2.468154	-0.016846	-0.664551	-0.463135	-105.231061	85.974280	3.223492
07741		-11.818654	5.763565	15.215484	-0.050053	-1.070251	-2.103894	-0.046387	-0.666260	-0.467041	-94.992117	84.893357	13.522397
07742		-5.962089	4.311642	10.334401	0.181161	-2.100576	-1.623368	-0.074463	-0.667480	-0.461426	-82.681440	83.936772	25.785468
07743		-2.250201	4.581202	7.111303	0.247782	-2.604215	-1.360148	-0.107422	-0.684082	-0.462402	-71.444267	82.838926	36.953196
07744		-1.737180	3.796006	5.817204	0.211495	-2.816688	-1.132397	-0.146240	-0.687256	-0.463867	-62.257528	81.604494	46.100661
07745		-1.705822	3.419176	5.008604	0.152590	-2.923460	-0.813930	-0.184326	-0.701660	-0.458496	-54.689914	80.327902	53.673263
07746		-1.326103	3.176747	4.393349	0.071733	-2.945413	-0.473352	-0.234863	-0.700439	-0.446533	-48.267159	79.061017	60.157334
07747		-1.371463	2.970205	4.266713	-0.020111	-2.950969	-0.092646	-0.293701	-0.707275	-0.439209	-42.547413	77.833189	66.005786
07748		-1.825566	2.751439	4.458279	-0.131374	-2.939416	0.327568	-0.330322	-0.713379	-0.414307	-37.179800	76.656115	71.584108
07749		-2.677050	2.326720	4.789419	-0.206765	-2.968480	0.758480	-0.386719	-0.722412	-0.394287	-31.944220	75.498540	77.098892
07750		-3.657527	2.004117	5.182422	-0.255132	-3.054912	1.199319	-0.440674	-0.715576	-0.375488	-26.663975	74.302345	82.716860
07751		-4.543518	1.551057	5.641450	-0.280204	-3.196644	1.596391	-0.499756	-0.701904	-0.338135	-21.419209	72.997994	88.348453
07752		-5.039418	1.005948	5.975765	-0.271954	-3.347696	1.928290	-0.553467	-0.702148	-0.292725	-16.341968	71.532847	93.839804
07753		-5.309680	0.280801	6.201336	-0.233506	-3.493672	2.175551	-0.597168	-0.685791	-0.243164	-11.627152	69.886764	98.975105
07754		-5.456678	-0.343497	6.402009	-0.151990	-3.616523	2.307447	-0.638916	-0.667969	-0.190430	-7.414881	68.053177	103.578361
07755		-5.773404	-0.741657	6.636369	-0.032368	-3.715064	2.312085	-0.664795	-0.644287	-0.132568	-3.819662	66.059699	107.500904
07756		-6.423476	-0.527927	7.053448	0.071766	-3.810512	2.213391	-0.679443	-0.623779	-0.077637	-0.860253	63.921194	110.718409
07757		-6.799627	0.066791	7.401811	0.094249	-3.924624	2.042592	-0.702881	-0.610352	-0.019531	1.452337	61.662125	113.256540
07758		-6.755444	0.440006	7.584714	0.027952	-4.008893	1.849134	-0.699463	-0.602539	0.031982	3.182196	59.315420	115.223404
07759		-6.782374	0.440271	7.662473	-0.054082	-4.044652	1.681832	-0.693115	-0.592773	0.082520	4.452827	56.934800	116.754888
07760		-7.216325	0.262763	7.867634	-0.061355	-4.047042	1.589946	-0.694336	-0.588379	0.146240	5.461591	54.537072	118.015643
07761		-7.358138	0.528853	7.974898	-0.041614	-4.031221	1.538982	-0.660645	-0.572266	0.195557	6.301111	52.145012	119.090672
07762		-7.560606	0.945902	8.361188	-0.046191	-3.952908	1.532032	-0.628662	-0.557373	0.237061	7.030335	49.784580	120.061162
07763		-7.877096	1.502253	8.893936	-0.049675	-3.864549	1.566066	-0.578613	-0.553955	0.271729	7.692500	47.469489	120.980251
07764		-8.193432	1.949484	9.280064	-0.092601	-3.785855	1.611911	-0.526855	-0.542725	0.280762	8.285471	45.183955	121.870977
07765		-8.609547	2.300592	9.675951	-0.121452	-3.691341	1.673611	-0.474121	-0.544922	0.267334	8.831080	42.945654	122.754269
07766		-9.518433	2.314951	9.980180	-0.124467	-3.593317	1.748584	-0.441650	-0.555420	0.242920	9.357532	40.745212	123.647737
07767		-10.634064	2.354083	10.302431	-0.035649	-3.528851	1.865296	-0.394775	-0.562988	0.206543	9.931537	38.568662	124.577775
07768		-11.531116	2.184132	10.487875	0.102464	-3.532561	2.024087	-0.387207	-0.577637	0.172119	10.591280	36.361307	125.563139
07769		-11.738740	2.173867	10.354215	0.252315	-3.520463	2.193102	-0.390137	-0.576416	0.129639	11.338170	34.137817	126.605176
07770		-11.929467	2.884427	10.108013	0.279076	-3.485851	2.317668	-0.395508	-0.582275	0.115723	12.082070	31.903620	127.673981
07771		-11.547821	3.336941	9.988104	0.150338	-3.413084	2.392313	-0.410156	-0.590332	0.082520	12.717357	29.695092	128.744701
07772		-12.077100	3.056440	10.295809	-0.034061	-3.337382	2.430531	-0.426270	-0.587646	0.047363	13.205965	27.510487	129.803124
07773		-12.208208	2.501314	10.429976	-0.138843	-3.283513	2.447221	-0.446045	-0.599854	0.043457	13.589018	25.351216	130.840478
07774		-12.474451	2.157846	10.078430	-0.159361	-3.235103	2.423793	-0.469238	-0.595703	0.021973	13.909189	23.212201	131.838020
07775		-12.819337	2.291481	9.560962	-0.180543	-3.186735	2.382063	-0.494873	-0.582764	0.011963	14.165770	21.105549	132.790339
07776		-12.731385	2.271620	8.676671	-0.243300	-3.095276	2.291531	-0.520020	-0.578857	0.002930	14.333381	19.055389	133.681322
07777		-12.717156	1.661789	7.800118	-0.279563	-2.963915	2.137915	-0.534424	-0.567871	0.000000	14.423935	17.101947	134.486716
07778		-12.589070	1.012389	7.032088	-0.244371	-2.811864	1.930870	-0.558350	-0.559814	0.002686	14.479294	15.258165	135.184347
07779		-12.510754	0.296391	6.269541	-0.120669	-2.644165	1.674292	-0.567627	-0.552002	-0.005859	14.552120	13.546851	135.751921
07780		-12.329201	-0.106026	5.673160	0.056973	-2.483610	1.378053	-0.588623	-0.547607	-0.004395	14.677464	11.963635	136.167895
07781		-11.951391	0.239934	5.040064	0.205928	-2.290612	1.074184	-0.607178	-0.540039	0.005127	14.848249	10.533477	136.434513
07782		-11.887586	0.576839	4.323842	0.246008	-2.059436	0.784317	-0.610107	-0.528564	0.003906	15.012818	9.271093	136.567405
07783		-11.872504	0.445288	3.577096	0.241800	-1.804156	0.524476	-0.623535	-0.530273	0.017578	15.155505	8.190574	136.589565
07784		-12.135042	-0.096032	2.867784	0.280413	-1.523422	0.319080	-0.623047	-0.528320	0.020996	15.309796	7.294453	136.536857
07785		-12.344827	-0.274379	2.200683	0.372867	-1.232617	0.163228	-0.631348	-0.530029	0.019775	15.512435	6.584523	136.439367
07786		-12.412363	-0.139575	1.733429	0.448012	-0.945665	0.035756	-0.631592	-0.525879	0.024170	15.755904	6.051933	136.312998
07787		-12.203498	0.247861	1.296828	0.468689	-0.660259	-0.108595	-0.630615	-0.516846	0.026855	16.008480	5.700861	136.149474
07788		-9.287111	-0.079317	1.845551	0.392829	-0.284940	-0.307392	-0.636475	-0.517578	0.032471	16.213084	5.588217	135.934588
07789		-12.903495	0.673428	-3.610586	0.178394	0.893919	-0.643342	-0.630127	-0.523926	0.029297	16.294452	6.178851	135.723635
07790		-16.142978	0.329154	-4.980286	-0.111066	1.700909	-0.996300	-0.625977	-0.522949	0.020264	16.199113	7.270094	135.447018
07791		-12.007928	-0.923720	-6.658838	-0.351275	2.582853	-1.344110	-0.618164	-0.521729	0.007568	15.951794	8.901104	135.114187
07792		2.831285	5.258489	6.729308	-0.835093	3.555752	-1.256741	-0.604004	-0.515625	-0.001709	15.449181	11.053910	134.970877
07793		-11.136535	8.242703	15.753980	-1.274668	3.337804	-1.166826	-0.605713	-0.514160	-0.014893	14.688007	13.070135	134.819947
07794		-7.512014	9.119533	11.897949	-1.339653	2.628170	-1.290108	-0.593750	-0.511963	-0.015381	13.836109	14.708419	134.465048
07795		-4.333345	1.964634	8.424940	-1.169161	2.908135	-1.195136	-0.587646	-0.509033	-0.033936	13.089589	16.484082	134.177330
07796		-10.496197	0.941396	13.094313	-0.857168	3.183481	-0.673119	-0.584229	-0.508789	-0.052490	12.609101	18.345111	134.209475
07797		-14.164446	0.241678	15.702363	-0.695134	2.546462	-0.616367	-0.569580	-0.502197	-0.059326	12.201010	19.841736	134.177182
07798		-9.080309	-2.245637	12.905494	-0.527946	1.904028	-0.688123	-0.566650	-0.509033	-0.062744	11.840862	20.988188	134.009305
07799		-6.039411	0.298163	10.452461	-0.342383	1.737595	-0.551317	-0.560303	-0.492676	-0.076416	11.603691	22.022993	133.895360
07800		-5.404311	3.273415	9.351209	-0.278867	1.641489	-0.477748	-0.557373	-0.495850	-0.070313	11.411681	22.996699	133.809250
07801		-5.520943	2.267906	9.183560	-0.251278	1.606800	-0.487106	-0.548096	-0.498535	-0.088135	11.228570	23.950031	133.709049
07802		-6.843234	0.495816	10.066066	-0.258586	1.490729	-0.507421	-0.535400	-0.499268	-0.079102	11.027064	24.841775	133.578023
07803		-7.046159	0.000783	10.408696	-0.269368	1.258016	-0.516843	-0.540527	-0.494629	-0.092285	10.801328	25.601435	133.408647
07804		-16.355324	4.808937	15.403183	-0.484397	0.790467	-0.762558	-0.542969	-0.497803	-0.095215	10.357095	26.124538	133.024968
07805		-3.330871	-1.912157	8.051386	-0.278408	0.040944	-0.281416	-0.529541	-0.497803	-0.097168	10.123055	26.172138	132.854099
07806		-5.481639	0.730929	10.074380	-0.224485	0.282309	-0.261499	-0.540771	-0.493408	-0.083008	9.936709	26.355396	132.722219
07807		-4.623456	0.670467	8.984519	-0.154491	0.120577	-0.151884	-0.534912	-0.503174	-0.086914	9.812869	26.434240	132.641013
07808		-4.956493	1.388655	8.965165	-0.090419	0.164482	-0.084016	-0.538574	-0.500000	-0.093018	9.746528	26.533186	132.607118
07809		-3.792736	1.786897	8.526358	-0.075623	0.172433	-0.076592	-0.535645	-0.498291	-0.102539	9.691258	26.633834	132.578694
07810		-5.110669	1.493189	9.004821	-0.085137	0.158356	-0.082004	-0.535400	-0.499756	-0.097656	9.627989	26.729051	132.545127
07811		-4.236866	1.859794	8.563361	-0.091594	0.147521	-0.075094	-0.531738	-0.495117	-0.093750	9.562581	26.815427	132.514695
07812		-4.870521	1.360463	8.753282	-0.082886	0.127343	-0.071867	-0.533936	-0.493896	-0.099121	9.501804	26.892092	132.483970
07813		-4.666330	1.215915	8.837918	-0.058753	0.108988	-0.046730	-0.540039	-0.487305	-0.096436	9.461328	26.953961	132.467206
07814		-4.648874	1.405870	8.732562	-0.040150	0.097801	-0.035419	-0.532471	-0.490723	-0.101318	9.433965	27.010466	132.456314
07815		-4.565284	1.356090	8.736345	-0.029501	0.103951	-0.032389	-0.529297	-0.495605	-0.104248	9.414075	27.068128	132.448032
07816		-4.416440	1.283897	8.812415	-0.023846	0.110996	-0.025168	-0.531738	-0.489502	-0.092773	9.399601	27.131122	132.444979
07817		-4.453846	1.373612	8.672559	-0.009553	0.124176	-0.023784	-0.528809	-0.500488	-0.087402	9.394574	27.199407	132.444251
07818		-4.457433	1.336047	8.747157	-0.004227	0.124588	-0.027246	-0.535400	-0.493408	-0.094238	9.391368	27.270266	132.441282
07819		-4.506868	1.451873	8.722890	0.001968	0.134604	-0.029116	-0.534668	-0.496582	-0.099854	9.391883	27.344945	132.438251
07820		-4.587190	1.427042	8.704950	0.005130	0.133215	-0.028136	-0.529297	-0.499512	-0.097900	9.394185	27.420752	132.435617
07821		-4.658726	1.330483	8.631375	0.009248	0.135034	-0.023666	-0.528809	-0.495605	-0.099609	9.400488	27.495165	132.436108
07822		-4.671734	1.362459	8.669372	0.012035	0.125112	-0.016584	-0.533936	-0.489258	-0.099609	9.409752	27.565306	132.439994
07823		-4.656364	1.479497	8.579615	0.003770	0.121227	-0.018464	-0.537354	-0.500732	-0.094727	9.413789	27.631427	132.442364
07824		-4.604827	1.515207	8.644340	0.001307	0.118947	-0.019618	-0.534912	-0.491699	-0.097900	9.415721	27.698366	132.443679
07825		-4.601323	1.434226	8.616259	0.001678	0.133519	-0.017087	-0.530029	-0.500000	-0.090820	9.419583	27.771305	132.448241
07826		-4.595715	1.405130	8.618028	0.008905	0.134194	-0.018637	-0.527588	-0.497314	-0.102539	9.426928	27.846763	132.451813
07827		-4.699184	1.418065	8.557792	0.012581	0.148213	-0.020029	-0.537598	-0.495605	-0.097412	9.436911	27.928283	132.456082
07828		-4.793978	1.580973	8.496754	0.003373	0.133889	-0.018639	-0.533691	-0.502441	-0.096191	9.441093	28.003564	132.459647
07829		-4.686198	1.545212	8.480387	-0.009344	0.126749	-0.022221	-0.530762	-0.487793	-0.099365	9.436798	28.073158	132.460244
07830		-4.736437	1.580605	8.472483	-0.025833	0.125129	-0.020976	-0.528809	-0.496094	-0.101807	9.423116	28.143708	132.461376
07831		-4.802918	1.425692	8.493644	-0.029455	0.098671	-0.026283	-0.530273	-0.490234	-0.106934	9.404645	28.197812	132.456350
07832		-4.815687	1.402267	8.503536	-0.037305	0.088741	-0.017242	-0.536621	-0.498291	-0.100098	9.383683	28.247446	132.455970
07833		-4.813242	1.409569	8.519224	-0.036469	0.078922	-0.022559	-0.532715	-0.488525	-0.106934	9.361304	28.290035	132.451193
07834		-4.730102	1.420219	8.523372	-0.040080	0.071767	-0.017450	-0.532227	-0.496582	-0.104736	9.337816	28.330095	132.448842
07835		-4.711829	1.430705	8.591954	-0.038142	0.079014	-0.015329	-0.535645	-0.496338	-0.105225	9.316663	28.372061	132.448678
07836		-4.723787	1.434770	8.555844	-0.038620	0.070840	-0.019743	-0.529785	-0.497070	-0.105469	9.293246	28.411803	132.444720
07837		-4.752136	1.439306	8.558785	-0.046928	0.073222	-0.020084	-0.523193	-0.492676	-0.103760	9.265294	28.450933	132.440849
07838		-4.773382	1.430992	8.503782	-0.049091	0.065382	-0.024294	-0.522949	-0.497314	-0.103760	9.234187	28.488000	132.433349
07839		-4.806837	1.335869	8.537669	-0.053056	0.056914	-0.019907	-0.525879	-0.495850	-0.098877	9.201937	28.517888	132.427839
07840		-4.810202	1.409696	8.519311	-0.052947	0.050515	-0.018030	-0.524170	-0.492188	-0.106689	9.169778	28.545964	132.422773
07841		-4.780704	1.457843	8.561918	-0.059748	0.044605	-0.010429	-0.532959	-0.493896	-0.105957	9.135976	28.568020	132.422048
07842		-4.774542	1.380366	8.505121	-0.063126	0.045143	-0.006508	-0.526855	-0.496338	-0.102051	9.101252	28.592004	132.423815
07843		-4.765061	1.516329	8.537541	-0.069642	0.040918	-0.008699	-0.521484	-0.494873	-0.104492	9.062118	28.611816	132.423793
07844		-4.671486	1.484351	8.533193	-0.082522	0.046315	-0.009109	-0.530029	-0.487305	-0.113525	9.015527	28.636697	132.423971
07845		-4.747262	1.377118	8.625918	-0.085337	0.055859	-0.005625	-0.528320	-0.489258	-0.108887	8.969065	28.664689	132.427422
07846		-4.722990	1.538682	8.572591	-0.087005	0.063178	-0.005153	-0.526123	-0.488770	-0.107666	8.921938	28.698753	132.431824
07847		-4.704198	1.462147	8.567219	-0.086259	0.080029	-0.010207	-0.525879	-0.494141	-0.108643	8.874680	28.740838	132.434710
07848		-4.669512	1.383439	8.737691	-0.082583	0.101048	-0.011224	-0.522705	-0.489014	-0.101563	8.830023	28.796874	132.438951
07849		-4.482047	1.482632	8.910590	-0.079162	0.141999	-0.019140	-0.527100	-0.491943	-0.102051	8.787011	28.874834	132.442197
07850		-4.305221	1.153823	9.116293	-0.064489	0.218954	-0.019895	-0.517822	-0.486328	-0.104492	8.755679	28.998373	132.452519
07851		-4.546555	1.292470	8.976512	-0.022930	0.297018	-0.025654	-0.520508	-0.485840	-0.106934	8.750325	29.164689	132.466932
07852		-4.421217	1.191967	9.094224	-0.036451	0.376514	-0.020883	-0.520996	-0.487305	-0.107422	8.742467	29.377503	132.492314
07853		-4.443872	1.326917	9.019359	-0.020965	0.465945	-0.025111	-0.512451	-0.481445	-0.112061	8.746851	29.639437	132.524021
07854		-4.457931	1.159197	9.075677	-0.007003	0.557870	-0.033104	-0.516357	-0.485840	-0.115234	8.761237	29.955967	132.559812
07855		-4.444913	1.232788	9.094909	0.008250	0.656595	-0.044251	-0.517334	-0.493408	-0.117188	8.786223	30.327516	132.598608
07856		-4.450215	1.346979	9.121049	0.022167	0.766393	-0.065044	-0.519287	-0.489502	-0.116943	8.818127	30.764837	132.635198
07857		-4.471166	1.251543	9.142874	0.035045	0.881887	-0.085891	-0.509521	-0.490479	-0.114990	8.857155	31.267564	132.670462
07858		-4.436843	1.334105	9.269200	0.050144	1.016826	-0.116923	-0.506836	-0.490479	-0.125000	8.901767	31.851137	132.699652
07859		-4.473055	1.393640	9.157755	0.046330	1.151894	-0.149327	-0.493164	-0.488281	-0.122314	8.941074	32.512287	132.722150
07860		-4.573769	1.421271	9.108333	0.049710	1.299199	-0.193904	-0.492920	-0.496338	-0.123047	8.974872	33.262429	132.730828
07861		-4.583577	1.309018	9.205522	0.037684	1.448040	-0.240869	-0.493164	-0.501465	-0.125732	8.993548	34.099346	132.724168
07862		-4.657709	1.177141	9.206669	0.027626	1.597683	-0.286697	-0.490723	-0.491211	-0.132324	8.997578	35.026626	132.702305
07863		-4.598398	1.142466	9.237819	0.008051	1.776030	-0.344554	-0.476563	-0.489502	-0.140381	8.978100	36.058441	132.659526
07864		-4.515957	1.217292	9.274707	-0.015145	1.990668	-0.407973	-0.465820	-0.495605	-0.135010	8.931134	37.218838	132.594377
07865		-4.422252	1.234172	9.382776	-0.040829	2.276146	-0.490849	-0.459961	-0.497070	-0.145996	8.850097	38.546650	132.499243
07866		-4.348390	1.405492	9.651186	-0.077828	2.613879	-0.578615	-0.454590	-0.496338	-0.154541	8.726054	40.074567	132.372926
07867		-4.310809	1.875941	9.600126	-0.128172	3.010252	-0.690516	-0.438477	-0.504883	-0.156738	8.539658	41.835046	132.199434
07868		-4.440945	2.298927	9.559153	-0.193842	3.468788	-0.815287	-0.426270	-0.503418	-0.161133	8.271009	43.866467	131.966895
07869		-4.824761	2.216365	9.601705	-0.251048	3.935460	-0.963770	-0.403809	-0.495850	-0.172852	7.899441	46.172475	131.643941
07870		-5.243960	2.016568	9.545290	-0.284940	4.432545	-1.101280	-0.388428	-0.492432	-0.176758	7.425430	48.770405	131.221536
07871		-6.272888	1.779865	9.760630	-0.301509	4.947248	-1.215737	-0.367188	-0.498779	-0.175293	6.847783	51.665492	130.693867
07872		-7.961534	1.478871	10.517094	-0.267872	5.379489	-1.203441	-0.343262	-0.485107	-0.183838	6.250183	54.802853	130.138880
07873		-10.657253	1.499277	11.422760	-0.236036	5.695186	-1.112106	-0.314453	-0.495605	-0.191650	5.672998	58.110465	129.607965
07874		-11.480238	0.764313	11.694707	-0.006898	5.817272	-1.007981	-0.285400	-0.499512	-0.190186	5.228157	61.479691	129.097225
07875		-11.840190	1.408240	11.959017	0.315962	5.885535	-0.985557	-0.256592	-0.499268	-0.196777	4.888277	64.884519	128.512859
07876		-12.822559	0.902809	11.630855	0.761224	5.836276	-0.944673	-0.237061	-0.497314	-0.190918	4.730588	68.258152	127.865022
07877		-13.765401	1.222065	11.464232	1.447843	5.670072	-0.932646	-0.211670	-0.508545	-0.185547	4.851530	71.536162	127.109679
07878		-12.506987	2.455899	11.086037	1.948103	5.375544	-1.065021	-0.182861	-0.514404	-0.175293	4.827314	74.652382	125.917148
07879		-10.658865	2.975311	10.915636	2.443197	5.094702	-1.240897	-0.167969	-0.529053	-0.172852	4.304198	77.615108	123.936004
07880		-7.617214	4.376028	10.741510	2.838022	4.807225	-1.485975	-0.135742	-0.540771	-0.148438	2.388976	80.410892	120.328548
07881		-5.729227	7.319347	10.938809	2.724445	4.598973	-1.936049	-0.111328	-0.544189	-0.130371	-3.907130	83.033292	112.389950
07882		-1.053380	10.072883	9.637782	1.737434	4.187181	-2.927686	-0.081299	-0.555664	-0.112549	-24.030081	84.985151	91.160090
07883		-17.487044	8.800989	11.494979	0.653972	3.157037	-3.738842	-0.059326	-0.538330	-0.108643	-56.015386	84.991167	58.681566
07884		-15.682665	6.640422	15.888908	-0.205038	0.366463	-3.377169	-0.057617	-0.531006	-0.100830	-66.967482	83.383662	47.791314
07885		-8.147878	4.037788	16.160630	-0.324378	-1.134116	-3.306218	-0.043945	-0.528809	-0.106689	-68.050100	81.385001	46.885942
07886		-4.335921	0.698833	10.981652	0.226437	-1.925356	-2.971908	-0.037354	-0.516357	-0.102783	-65.818862	79.386303	49.015602
07887		-1.234713	1.786748	7.375377	0.856769	-2.330034	-2.479640	-0.029541	-0.512695	-0.093994	-62.458213	77.524897	51.943358
07888		-0.366227	2.638385	5.887595	1.225522	-2.478048	-1.927061	-0.029297	-0.506104	-0.097656	-58.777323	75.865097	55.001976
07889		-0.113356	4.281269	5.485576	1.341519	-2.526769	-1.221615	-0.024170	-0.503418	-0.088867	-54.860478	74.485845	58.257438
07890		0.076934	6.072315	5.188777	1.071109	-2.513735	-0.445256	-0.025146	-0.499512	-0.099609	-50.762119	73.409913	61.881003
07891		0.216770	6.264497	5.053067	0.543060	-2.481378	0.322696	-0.012451	-0.494385	-0.090088	-46.543009	72.607810	65.966252
07892		-0.131661	4.920677	5.228070	0.048690	-2.448053	1.064336	-0.022705	-0.499512	-0.097412	-42.042288	72.026361	70.658122
07893		-1.047905	2.953899	5.794222	-0.240292	-2.455026	1.779165	-0.020996	-0.491211	-0.100586	-37.048254	71.588417	76.058616
07894		-2.067489	1.276791	6.389091	-0.297461	-2.567646	2.369874	-0.022949	-0.491699	-0.091064	-31.406518	71.130572	82.189331
07895		-3.356572	0.056610	7.099676	-0.194363	-2.807571	2.782667	-0.014160	-0.497070	-0.111816	-25.280961	70.468132	88.791921
07896		-4.464466	-0.710133	7.702919	-0.034502	-3.149655	3.010406	-0.018311	-0.499268	-0.109619	-19.030389	69.438797	95.462918
07897		-4.760223	-1.275774	7.890278	0.139041	-3.524411	3.051344	-0.017334	-0.498291	-0.117676	-13.191302	67.978659	101.642095
07898		-4.800559	-1.676293	7.810538	0.303823	-3.846172	2.899168	-0.015625	-0.504150	-0.135986	-8.179781	66.110671	106.891760
07899		-5.313964	-1.690604	7.878302	0.442799	-4.106454	2.619251	-0.021729	-0.516602	-0.144043	-4.173225	63.927968	111.029937
07900		-5.866807	-1.252694	8.018146	0.503053	-4.320562	2.281386	-0.025879	-0.514893	-0.166748	-1.119777	61.504804	114.137925
07901		-6.099509	-0.629928	7.966020	0.483690	-4.477435	1.945438	-0.027832	-0.512451	-0.181396	1.110134	58.935182	116.386230
07902		-6.027717	-0.401605	7.897083	0.404129	-4.524482	1.673795	-0.029297	-0.531982	-0.206787	2.724562	56.301472	118.020732
07903		-5.954208	-0.702778	7.737422	0.358609	-4.451253	1.515092	-0.039795	-0.531738	-0.224365	3.958725	53.700706	119.275183
07904		-6.429869	-0.533033	8.235868	0.325740	-4.263583	1.442258	-0.052490	-0.543701	-0.257813	4.975656	51.189924	120.319622
07905		-8.031676	-0.124730	9.273948	0.274618	-4.070580	1.469335	-0.069336	-0.557617	-0.284424	5.871429	48.784410	121.282483
07906		-8.756409	1.058535	10.029843	0.160989	-3.955920	1.550792	-0.094727	-0.557861	-0.312012	6.664939	46.423137	122.229179
07907		-9.037941	1.860627	10.664884	-0.005872	-3.832844	1.582680	-0.120850	-0.568359	-0.326172	7.303002	44.128975	123.130671
07908		-10.656621	2.118659	11.638870	-0.099416	-3.693968	1.608803	-0.158691	-0.574707	-0.356445	7.842390	41.898065	124.001909
07909		-13.112995	2.103066	12.373484	-0.029768	-3.703551	1.713052	-0.185547	-0.568359	-0.368408	8.406659	39.654513	124.890631
07910		-14.758872	2.482853	12.156531	0.081719	-3.848484	1.906282	-0.229736	-0.584229	-0.381104	9.049047	37.297864	125.844687
07911		-14.622553	2.832654	11.223124	0.146506	-3.957357	2.092848	-0.267578	-0.584717	-0.379639	9.727285	34.861026	126.852248
07912		-13.911547	2.953459	10.186671	0.109144	-3.960626	2.237456	-0.313721	-0.587158	-0.379150	10.368967	32.391716	127.894674
07913		-13.106849	2.882091	9.815088	0.032905	-3.880385	2.352892	-0.350098	-0.583008	-0.366943	10.942154	29.953247	128.963834
07914		-12.918664	2.376257	9.885706	-0.009127	-3.788301	2.441975	-0.386230	-0.581543	-0.355957	11.461017	27.541468	130.049915
07915		-12.291095	2.168750	9.831570	-0.006837	-3.659547	2.499673	-0.416260	-0.589844	-0.341309	11.942843	25.193545	131.141612
07916		-11.855834	2.018261	9.631310	-0.013757	-3.483080	2.504842	-0.463379	-0.579834	-0.326416	12.375786	22.930037	132.219019
07917		-11.812578	1.925939	9.331054	-0.047907	-3.284926	2.461544	-0.484131	-0.581299	-0.320068	12.737597	20.782055	133.262350
07918		-11.989164	1.491597	8.845222	-0.067257	-3.079669	2.346723	-0.499512	-0.577148	-0.302002	13.030384	18.752356	134.238127
07919		-12.123612	0.987568	8.265014	-0.050069	-2.895244	2.157453	-0.528809	-0.565918	-0.284668	13.268135	16.851552	135.106946
07920		-11.973031	0.154407	7.571466	0.030107	-2.712492	1.893773	-0.547852	-0.563477	-0.270996	13.485874	15.079427	135.831863
07921		-11.740197	-0.452534	6.964313	0.181313	-2.542580	1.563413	-0.554932	-0.569824	-0.256836	13.724995	13.448578	136.377486
07922		-11.390591	-0.704061	6.451103	0.365323	-2.384799	1.159876	-0.570557	-0.565674	-0.247314	14.006975	11.954397	136.704039
07923		-11.459915	-0.420095	6.286009	0.526490	-2.247728	0.728167	-0.584229	-0.559326	-0.227295	14.327401	10.599383	136.795959
07924		-11.663586	0.264731	5.963303	0.594025	-2.171808	0.325965	-0.590576	-0.572510	-0.225586	14.645637	9.340304	136.664281
07925		-11.135912	0.694006	5.254089	0.531803	-2.087376	0.013932	-0.601807	-0.581055	-0.204834	14.905441	8.177610	136.364280
07926		-10.665061	0.602275	4.384631	0.437191	-1.927950	-0.214945	-0.607910	-0.581543	-0.192139	15.102218	7.135760	135.956447
07927		-10.147575	0.321068	3.532542	0.380890	-1.668246	-0.363543	-0.610596	-0.582520	-0.191406	15.268299	6.263624	135.502716
07928		-10.108845	0.085505	2.886590	0.387640	-1.351215	-0.458783	-0.603516	-0.589844	-0.181885	15.443515	5.580707	135.042476
07929		-10.228106	0.219373	2.466754	0.431560	-1.028214	-0.538750	-0.609619	-0.609375	-0.175781	15.649105	5.091630	134.585947
07930		-10.351295	0.429237	2.288206	0.484638	-0.719390	-0.629239	-0.607910	-0.602295	-0.174805	15.887746	4.787747	134.125954
07931		-10.572335	0.783991	2.239651	0.526915	-0.434787	-0.721448	-0.609375	-0.599365	-0.169434	16.151978	4.658138	133.659009
07932		-7.615913	1.549899	3.576525	0.461988	-0.137973	-0.771927	-0.604004	-0.608154	-0.164307	16.380734	4.701772	133.211453
07933		-10.980784	2.420505	-1.828859	0.000182	0.910626	-0.880861	-0.593262	-0.613281	-0.168213	16.352047	5.340348	132.873601
07934		-13.285262	1.156215	-2.096903	-0.409775	1.678056	-0.933767	-0.586182	-0.617676	-0.172363	16.092805	6.409373	132.627882
07935		-15.397560	-1.785119	-5.416676	-0.483178	2.401753	-0.883290	-0.574463	-0.612061	-0.187744	15.803226	7.867325	132.519240
07936		3.875936	2.065716	3.305859	-0.633244	3.224999	-0.656679	-0.554443	-0.612061	-0.195801	15.462251	9.745752	132.657189
07937		-8.726396	6.942788	14.583899	-1.115400	3.506565	-0.650099	-0.535889	-0.610352	-0.201904	14.855557	11.778119	132.826780
07938		-8.703831	6.147035	14.284824	-1.362113	2.772203	-1.116390	-0.529297	-0.610107	-0.213867	14.026150	13.473465	132.598809
07939		-4.376074	0.774823	9.434923	-1.166407	2.634389	-1.237781	-0.510498	-0.599854	-0.240479	13.273997	15.103377	132.256131
07940		-6.348002	0.461667	10.720208	-0.778797	3.108963	-0.750948	-0.492920	-0.594971	-0.241943	12.824090	16.933814	132.239509
07941		-11.640343	2.443872	14.131384	-0.588920	2.911027	-0.516260	-0.470703	-0.597656	-0.251953	12.512471	18.621780	132.321552
07942		-9.441130	-0.427798	12.924924	-0.461686	2.330451	-0.566420	-0.454102	-0.589600	-0.253906	12.238308	19.993973	132.289951
07943		-6.204804	-0.092062	10.448736	-0.322580	2.116207	-0.549988	-0.448975	-0.589844	-0.264404	12.034623	21.241436	132.234202
07944		-6.418422	2.004899	10.053837	-0.242982	2.012961	-0.518131	-0.439941	-0.594971	-0.264404	11.875741	22.429977	132.179725
07945		-7.087440	3.092874	9.756713	-0.218511	1.846270	-0.508888	-0.433105	-0.596436	-0.270508	11.722446	23.520902	132.105761
07946		-7.011591	2.731559	9.480811	-0.240284	1.649030	-0.565644	-0.416016	-0.588867	-0.271240	11.529234	24.510579	131.967755
07947		-6.938932	1.899981	9.616712	-0.264670	1.503446	-0.551772	-0.410156	-0.587891	-0.271484	11.314001	25.413364	131.815245
07948		-16.880295	3.857858	15.581018	-0.532555	0.921239	-1.086011	-0.397217	-0.592041	-0.278564	10.764361	26.049710	131.250624
07949		-4.282423	-4.913385	9.735147	-0.277845	0.175310	-0.348298	-0.401855	-0.596680	-0.279785	10.519426	26.181122	131.054069
07950		-5.588357	1.368544	10.110824	-0.205152	0.338078	-0.276856	-0.394043	-0.582275	-0.279785	10.342979	26.399843	130.920225
07951		-4.410314	0.640632	8.907367	-0.137682	0.204891	-0.166187	-0.401611	-0.585449	-0.277100	10.229224	26.528202	130.840233
07952		-5.379814	0.356304	9.488086	-0.065117	0.216197	-0.081400	-0.396240	-0.588135	-0.276855	10.180696	26.657898	130.814469
07953		-4.078818	1.983253	8.541651	-0.058494	0.172733	-0.072391	-0.399902	-0.581299	-0.279053	10.136767	26.758482	130.789565
07954		-5.157985	1.768003	9.013198	-0.051104	0.144358	-0.052057	-0.395264	-0.593750	-0.281250	10.100728	26.844680	130.773958
07955		-4.476627	1.717007	8.635439	-0.063052	0.134280	-0.067500	-0.391602	-0.591064	-0.280762	10.053474	26.923050	130.747628
07956		-4.746044	1.465508	8.733760	-0.060105	0.096429	-0.057301	-0.390137	-0.591309	-0.283203	10.008244	26.982728	130.723178
07957		-4.715262	1.703556	8.615333	-0.056367	0.075205	-0.045529	-0.396484	-0.590576	-0.274658	9.968022	27.025544	130.704008
07958		-4.640313	1.544170	8.636749	-0.057139	0.058578	-0.047121	-0.387207	-0.579590	-0.284180	9.925429	27.062838	130.681690
07959		-4.673248	1.474624	8.626031	-0.052840	0.060349	-0.035718	-0.392334	-0.583740	-0.286621	9.889251	27.096278	130.667013
07960		-4.619812	1.410439	8.726428	-0.040820	0.044704	-0.031895	-0.386230	-0.583252	-0.280762	9.859657	27.124231	130.652757
07961		-4.657618	1.559705	8.675384	-0.042438	0.037943	-0.028318	-0.385986	-0.588135	-0.275146	9.830421	27.144283	130.640260
07962		-4.543491	1.425358	8.696608	-0.040565	0.024262	-0.026707	-0.392090	-0.586426	-0.282227	9.801422	27.160183	130.627015
07963		-4.542534	1.440005	8.681557	-0.043628	0.032417	-0.020572	-0.388428	-0.588379	-0.285156	9.773454	27.176349	130.618803
07964		-4.586176	1.472045	8.678057	-0.044040	0.037305	-0.016225	-0.387207	-0.581299	-0.280762	9.746133	27.198583	130.613615
07965		-4.563243	1.471744	8.565840	-0.054711	0.030251	-0.017842	-0.389404	-0.582031	-0.282471	9.712484	27.213254	130.606879
07966		-4.646777	1.414367	8.640597	-0.059556	0.017820	-0.015391	-0.392822	-0.583496	-0.282715	9.675533	27.224402	130.600080
07967		-4.649181	1.356380	8.611579	-0.062501	0.005692	-0.011072	-0.387207	-0.580811	-0.291992	9.638162	27.224543	130.594968
07968		-4.627242	1.472769	8.617702	-0.066150	-0.002083	-0.007980	-0.387939	-0.582764	-0.278076	9.598592	27.223739	130.590718
07969		-4.653838	1.403482	8.609821	-0.073600	-0.010465	-0.008631	-0.392334	-0.589844	-0.292969	9.554779	27.214513	130.585425
07970		-4.577761	1.461783	8.594682	-0.074323	-0.020095	-0.010140	-0.390381	-0.579346	-0.286865	9.509023	27.203739	130.577889
07971		-4.585782	1.442937	8.577867	-0.079850	-0.022069	-0.000399	-0.385010	-0.577637	-0.282227	9.463467	27.187170	130.576611
07972		-4.559562	1.400124	8.621550	-0.085573	-0.022975	-0.006000	-0.388184	-0.583740	-0.287842	9.412345	27.174375	130.571431
07973		-4.516862	1.480894	8.546761	-0.097789	-0.022914	-0.000278	-0.386719	-0.578369	-0.285889	9.356521	27.157316	130.570175
07974		-4.528935	1.446173	8.635611	-0.101837	-0.017134	-0.005931	-0.384766	-0.576416	-0.282715	9.296400	27.147809	130.565687
07975		-4.566501	1.520152	8.574155	-0.108740	-0.016598	-0.003650	-0.389160	-0.576660	-0.290771	9.233642	27.134630	130.562984
07976		-4.581506	1.385776	8.694713	-0.108856	-0.016501	-0.007120	-0.385498	-0.578613	-0.290771	9.169209	27.125583	130.557842
07977		-4.556812	1.414546	8.629426	-0.101081	-0.013797	-0.005914	-0.395508	-0.576416	-0.282959	9.110330	27.114189	130.554019
07978		-4.563245	1.366444	8.659695	-0.100619	-0.011774	-0.006611	-0.396484	-0.577637	-0.287109	9.050999	27.107764	130.549712
07979		-4.557672	1.428980	8.677194	-0.100119	-0.003676	0.001238	-0.391602	-0.572021	-0.278809	8.995220	27.101448	130.551483
07980		-4.531572	1.431376	8.658645	-0.098544	-0.003882	-0.002454	-0.389893	-0.579102	-0.287598	8.938657	27.099111	130.550634
07981		-4.553900	1.300324	8.653215	-0.101096	0.007069	-0.001837	-0.387451	-0.578857	-0.278076	8.881922	27.099153	130.551536
07982		-4.531310	1.334756	8.678152	-0.102152	0.009184	0.004660	-0.389404	-0.576172	-0.281494	8.825949	27.103586	130.556520
07983		-4.505290	1.258579	8.675848	-0.090629	0.012581	0.006116	-0.392822	-0.565918	-0.285645	8.777764	27.106054	130.563023
07984		-4.467626	1.293854	8.660994	-0.080242	0.026132	0.002399	-0.396973	-0.574951	-0.291748	8.734442	27.120285	130.568226
07985		-4.433539	1.361770	8.689763	-0.075597	0.037043	0.006330	-0.393555	-0.572510	-0.286133	8.696021	27.136598	130.577249
07986		-4.434970	1.328144	8.735853	-0.067249	0.049593	0.002152	-0.386230	-0.577393	-0.286621	8.661111	27.164136	130.584560
07987		-4.505840	1.343711	8.661099	-0.065087	0.065292	0.001646	-0.385498	-0.574219	-0.282959	8.628597	27.196863	130.593316
07988		-4.524034	1.358573	8.684020	-0.060177	0.070639	0.002598	-0.392090	-0.575928	-0.286133	8.598797	27.236284	130.602917
07989		-4.522806	1.392888	8.653637	-0.057392	0.075100	-0.000406	-0.387695	-0.573486	-0.291016	8.570520	27.274751	130.611276
07990		-4.512331	1.439024	8.642147	-0.055729	0.081780	-0.000402	-0.384033	-0.570557	-0.290527	8.542887	27.320744	130.620004
07991		-4.540487	1.363297	8.661863	-0.056048	0.081304	-0.005965	-0.389893	-0.572998	-0.287354	8.514019	27.363206	130.625374
07992		-4.588303	1.394670	8.656890	-0.059681	0.088315	-0.007389	-0.389893	-0.571045	-0.286621	8.482364	27.413496	130.630229
07993		-4.510592	1.387135	8.673964	-0.056965	0.091940	-0.005501	-0.390869	-0.582031	-0.291016	8.453560	27.461952	130.636862
07994		-4.534517	1.303566	8.725698	-0.044820	0.105069	-0.005864	-0.388916	-0.571777	-0.293213	8.431602	27.521606	130.644239
07995		-4.544416	1.430286	8.735222	-0.041149	0.119741	-0.005130	-0.378662	-0.572754	-0.285156	8.413182	27.585793	130.653703
07996		-4.577665	1.435190	8.735924	-0.034313	0.133202	-0.006910	-0.381592	-0.572754	-0.288330	8.398177	27.661473	130.663042
07997		-4.642581	1.433031	8.631358	-0.046688	0.147181	-0.000742	-0.387939	-0.566406	-0.289307	8.379101	27.740852	130.677876
07998		-4.594325	1.518309	8.726837	-0.041309	0.148536	-0.009015	-0.379395	-0.567627	-0.295898	8.360158	27.825399	130.687282
07999		-4.526119	1.464129	8.801436	-0.046690	0.191519	-0.010409	-0.391357	-0.561768	-0.290527	8.340157	27.930725	130.700054
08000		-4.176309	1.775674	9.224547	-0.090192	0.230816	-0.003881	-0.375732	-0.576904	-0.292480	8.298408	28.061482	130.720429
08001		-4.414618	1.675631	8.939605	-0.163088	0.331504	0.001241	-0.386230	-0.569580	-0.296387	8.221398	28.245240	130.753606
08002		-3.529602	0.832309	10.082827	-0.097942	0.427666	-0.038402	-0.385010	-0.568604	-0.291016	8.173376	28.490428	130.769793
08003		-4.123256	1.069972	9.347286	-0.093640	0.613764	-0.032571	-0.380371	-0.574463	-0.292480	8.138370	28.837075	130.807043
08004		-4.175300	1.092398	9.541364	-0.012793	0.734112	-0.070847	-0.372314	-0.564453	-0.301758	8.142762	29.258582	130.830423
08005		-4.057233	1.068023	9.582023	0.008685	0.896970	-0.078910	-0.369141	-0.568848	-0.297607	8.165163	29.769621	130.864214
08006		-4.138098	0.962592	9.657332	0.045621	1.056006	-0.102875	-0.357910	-0.573975	-0.292480	8.208365	30.376157	130.897556
08007		-4.069990	1.092642	9.727259	0.064032	1.233614	-0.145970	-0.357666	-0.570068	-0.297607	8.257545	31.083551	130.920480
08008		-4.062022	1.286941	9.741032	0.066885	1.420807	-0.190056	-0.341309	-0.577393	-0.302979	8.302619	31.903920	130.932767
08009		-3.997011	1.199439	10.028490	0.082328	1.649649	-0.259882	-0.339111	-0.570557	-0.298096	8.344704	32.856591	130.921817
08010		-3.944944	1.332787	10.114213	0.058481	1.908083	-0.328532	-0.324951	-0.574219	-0.292236	8.361087	33.964501	130.890128
08011		-3.785876	1.512432	10.145451	0.050018	2.204230	-0.442003	-0.308350	-0.582275	-0.305908	8.345095	35.246716	130.810140
08012		-3.538239	1.697806	10.566562	-0.029930	2.547598	-0.581016	-0.299561	-0.573242	-0.302246	8.242623	36.737782	130.664408
08013		-3.350013	2.002772	10.599097	-0.112650	2.956782	-0.747139	-0.275146	-0.582031	-0.314209	8.038189	38.471338	130.433918
08014		-3.367264	2.185504	10.536560	-0.207275	3.424724	-0.929806	-0.255615	-0.576416	-0.301758	7.707242	40.486305	130.099687
08015		-3.933381	2.108800	10.504706	-0.322347	3.986768	-1.121343	-0.228516	-0.576172	-0.308105	7.221690	42.830588	129.646017
08016		-4.361820	2.578303	10.356141	-0.434871	4.568762	-1.329887	-0.207275	-0.575195	-0.309570	6.543610	45.518607	129.030139
08017		-5.178463	2.555608	9.839586	-0.540676	5.127577	-1.551953	-0.173584	-0.569824	-0.302246	5.621007	48.530180	128.191883
08018		-6.748450	2.290297	10.041041	-0.614125	5.608439	-1.701964	-0.136230	-0.561523	-0.295410	4.443994	51.814292	127.117338
08019		-10.169777	1.834933	10.814985	-0.513992	5.962545	-1.699406	-0.104248	-0.561279	-0.290771	3.142639	55.283695	125.865334
08020		-13.174151	0.007995	11.571555	-0.234169	5.927720	-1.482244	-0.069092	-0.558838	-0.286133	1.936208	58.711676	124.586688
08021		-11.795264	0.137714	10.770874	0.344172	5.850574	-1.360733	-0.039795	-0.553467	-0.272705	0.911809	62.078452	123.181332
08022		-12.123923	-0.042867	10.787350	1.055284	5.705794	-1.207612	-0.005859	-0.565674	-0.255371	0.182138	65.351213	121.692906
08023		-11.738772	0.767870	10.311172	1.716790	5.519267	-1.205441	0.026367	-0.556152	-0.239746	-0.469494	68.508222	119.915043
08024		-11.267481	1.735930	10.175594	2.204371	5.305245	-1.292667	0.051025	-0.573730	-0.217285	-1.373208	71.532544	117.609371
08025		-10.711905	2.403311	10.348118	2.664024	4.995547	-1.450484	0.079834	-0.586670	-0.185791	-2.894893	74.359018	114.420986
08026		-8.485745	4.360099	10.288572	2.923844	4.646103	-1.729427	0.098145	-0.599121	-0.173584	-5.868686	76.935530	109.622419
08027		-5.260969	7.422670	10.325727	2.597009	4.404600	-2.230362	0.123047	-0.601318	-0.139160	-12.236248	79.228620	101.594879
08028		0.707959	7.036515	8.987302	1.700878	4.029613	-3.091768	0.148926	-0.599609	-0.117188	-25.039078	80.858069	87.609136
08029		-15.850949	4.278792	10.569244	0.904868	2.788216	-3.453026	0.163574	-0.587402	-0.106201	-40.503961	81.130843	71.428117
08030		-13.413027	4.794338	15.913102	0.557664	0.368190	-2.864119	0.177979	-0.586426	-0.094727	-48.158559	80.130381	63.345616
08031		-7.180822	3.149712	14.587948	0.708283	-0.869058	-2.606699	0.186279	-0.582275	-0.098389	-50.887013	78.669397	60.156400
08032		-3.301610	2.699677	10.208486	0.976815	-1.536785	-2.120837	0.184326	-0.573730	-0.103516	-50.689207	77.169385	59.784649
08033		-1.326210	4.163111	7.867132	1.004389	-1.895306	-1.640306	0.189453	-0.570068	-0.111572	-49.157719	75.749973	60.767089
08034		-1.381722	4.162620	7.099424	0.877624	-2.128666	-1.122840	0.184082	-0.583496	-0.117188	-46.830599	74.453092	62.652502
08035		-0.912669	4.593267	6.596373	0.654159	-2.278773	-0.507569	0.182373	-0.577148	-0.122314	-43.930197	73.327311	65.280339
08036		-0.214320	4.540166	5.986669	0.334899	-2.335596	0.116986	0.175049	-0.586914	-0.132813	-40.626068	72.378400	68.534544
08037		-0.122615	3.559444	5.789392	0.029087	-2.342672	0.726527	0.163330	-0.598877	-0.144043	-37.011439	71.591262	72.316953
08038		-0.750523	2.464105	6.161910	-0.150196	-2.359603	1.317959	0.151123	-0.608643	-0.145020	-32.958873	70.911083	76.684254
08039		-1.705062	1.591946	6.709966	-0.228975	-2.444430	1.807425	0.145020	-0.617676	-0.151123	-28.524213	70.233705	81.524553
08040		-2.658673	0.827326	7.221020	-0.227670	-2.638716	2.172794	0.124023	-0.633057	-0.167480	-23.770167	69.417325	86.724661
08041		-3.233542	0.317846	7.494100	-0.187579	-2.889403	2.397723	0.108398	-0.648682	-0.180420	-18.988708	68.372557	91.963605
08042		-3.649322	-0.324881	7.623246	-0.114996	-3.120892	2.497216	0.085449	-0.647949	-0.188721	-14.431497	67.060966	96.955901
08043		-4.105418	-0.788033	7.679023	0.003959	-3.320803	2.489886	0.059326	-0.674316	-0.183350	-10.321065	65.503739	101.441420
08044		-4.721218	-0.984779	7.906223	0.136399	-3.492700	2.392647	0.024414	-0.685791	-0.208496	-6.743220	63.716200	105.311443
08045		-5.527402	-0.672843	8.105475	0.224039	-3.662951	2.235392	0.012695	-0.708008	-0.207520	-3.762395	61.739135	108.519090
08046		-5.734926	0.070558	8.076632	0.200756	-3.823736	2.047129	-0.025391	-0.709717	-0.216553	-1.375112	59.590359	111.121964
08047		-5.879170	0.367655	8.003978	0.094164	-3.915485	1.853538	-0.048096	-0.725586	-0.225830	0.443737	57.351457	113.191149
08048		-5.870685	0.274358	7.890945	-0.017980	-3.921886	1.706985	-0.077881	-0.725098	-0.223145	1.837224	55.072130	114.876778
08049		-6.271280	0.095892	8.156308	-0.053491	-3.857943	1.619043	-0.102539	-0.743408	-0.229980	2.956033	52.820724	116.297295
08050		-7.167569	0.374516	8.802701	-0.044531	-3.791328	1.607893	-0.133545	-0.747314	-0.214600	3.936874	50.583317	117.576220
08051		-7.614341	0.961312	9.402933	-0.032151	-3.767771	1.619124	-0.156494	-0.761719	-0.219482	4.810472	48.355970	118.748574
08052		-7.735445	1.816276	9.926731	-0.028960	-3.738783	1.614558	-0.186279	-0.762451	-0.213867	5.586079	46.124757	119.824160
08053		-8.526473	2.428726	10.581702	-0.017155	-3.706623	1.606718	-0.213867	-0.776367	-0.211426	6.275235	43.913144	120.811054
08054		-9.982474	2.680707	11.016691	0.036888	-3.715066	1.650803	-0.230713	-0.786133	-0.196045	6.944298	41.675511	121.761205
08055		-11.128512	3.081837	10.961047	0.127114	-3.740854	1.757666	-0.260986	-0.799316	-0.187256	7.640959	39.417513	122.719435
08056		-12.049692	3.496839	10.781866	0.172242	-3.730492	1.897645	-0.275879	-0.808105	-0.168945	8.358769	37.135209	123.715023
08057		-12.263202	3.727488	10.410379	0.155820	-3.691630	2.029632	-0.300537	-0.816895	-0.165283	9.052379	34.864228	124.741614
08058		-12.175555	3.491388	10.024076	0.118794	-3.605487	2.142367	-0.325684	-0.828857	-0.162109	9.708159	32.611891	125.795544
08059		-11.646460	3.047165	9.821426	0.121002	-3.496488	2.247518	-0.343994	-0.841309	-0.149902	10.342665	30.410746	126.875146
08060		-11.896835	2.822249	10.071766	0.154133	-3.401428	2.342994	-0.364014	-0.846191	-0.142822	10.972798	28.233558	127.976919
08061		-11.695513	2.736979	10.257290	0.188935	-3.335056	2.399104	-0.392578	-0.854980	-0.129395	11.582342	26.086549	129.073138
08062		-11.674296	2.355997	10.381448	0.203597	-3.258101	2.416754	-0.418701	-0.852295	-0.117676	12.155102	23.961848	130.146526
08063		-12.171829	1.916975	10.565841	0.217313	-3.227582	2.428262	-0.447266	-0.860596	-0.103271	12.686936	21.852354	131.190744
08064		-12.397311	1.675737	10.399692	0.204873	-3.243356	2.404200	-0.475586	-0.857178	-0.085449	13.158447	19.720766	132.183597
08065		-12.133712	1.286376	9.760138	0.151068	-3.242079	2.311540	-0.493408	-0.847900	-0.083008	13.536527	17.603368	133.092010
08066		-11.702831	0.874732	8.939757	0.088997	-3.183879	2.132271	-0.507813	-0.842041	-0.061035	13.814084	15.530743	133.881560
08067		-11.577686	0.735957	8.051408	0.015953	-3.071107	1.866476	-0.521729	-0.833740	-0.047119	13.983930	13.561529	134.518211
08068		-11.840045	0.672344	7.047540	-0.034633	-2.899981	1.522725	-0.530273	-0.822266	-0.042969	14.064974	11.727925	134.973940
08069		-12.248754	0.287642	5.928515	-0.025813	-2.710151	1.179887	-0.532227	-0.820068	-0.029053	14.104578	10.053070	135.257695
08070		-12.262141	-0.142621	4.778300	0.082786	-2.480759	0.848677	-0.532959	-0.817871	-0.029541	14.173446	8.547156	135.384524
08071		-12.402525	-0.623353	4.130255	0.273235	-2.215904	0.576393	-0.534180	-0.812500	-0.016602	14.331938	7.231090	135.392934
08072		-12.211649	-0.759411	3.653285	0.471466	-1.955996	0.374067	-0.533447	-0.816406	-0.012939	14.594481	6.084973	135.320873
08073		-11.941523	-0.616636	3.192975	0.569656	-1.687515	0.198119	-0.529297	-0.818359	-0.007324	14.908355	5.116838	135.184595
08074		-11.647244	-0.484872	2.747193	0.535813	-1.409328	0.039558	-0.525879	-0.818115	-0.005127	15.200497	4.325182	134.996856
08075		-11.570336	-0.497898	2.301992	0.407264	-1.115271	-0.132213	-0.530518	-0.819092	0.004639	15.417664	3.724620	134.755231
08076		-11.359563	-0.644977	1.891710	0.288090	-0.809615	-0.318960	-0.523438	-0.817871	0.000000	15.564770	3.321756	134.455367
08077		-10.988123	-0.840705	1.458908	0.235782	-0.485121	-0.524954	-0.517578	-0.818848	-0.004150	15.680135	3.130830	134.090997
08078		-11.264899	-0.614123	2.686673	0.115258	0.507192	-0.727460	-0.508545	-0.816895	0.000977	15.727804	3.520022	133.768555
08079		-9.245102	-0.571814	-6.427470	-0.101206	1.305248	-1.029307	-0.497803	-0.821777	0.003418	15.645352	4.395238	133.402823
08080		-13.343327	-2.978156	-7.322598	-0.116977	2.375767	-1.166451	-0.476074	-0.823242	-0.005615	15.553730	5.883821	133.124737
08081		4.683916	0.503850	2.930152	0.002415	3.335882	-0.914668	-0.466064	-0.822754	-0.002441	15.556907	7.861434	133.133212
08082		-8.159439	9.079543	14.920464	-0.605911	3.660558	-0.773144	-0.447021	-0.829102	-0.017090	15.230448	9.999368	133.265120
08083		-7.502794	10.589874	12.326993	-1.305137	2.938857	-1.375900	-0.424561	-0.822021	-0.014404	14.419658	11.824631	132.928586
08084		-4.197368	4.003424	8.285194	-1.285190	2.875200	-1.609269	-0.420166	-0.810547	-0.020996	13.572179	13.644859	132.420755
08085		-7.020267	3.366112	10.160818	-0.987554	3.330579	-0.932112	-0.395020	-0.815430	-0.026855	12.986039	15.620576	132.337497
08086		-12.948330	4.134392	14.691732	-0.828782	3.162092	-0.567058	-0.387451	-0.813232	-0.030518	12.537230	17.458383	132.425494
08087		-11.157715	-1.317127	14.373913	-0.687298	2.506242	-0.599831	-0.376465	-0.803223	-0.034912	12.134995	18.930432	132.396035
08088		-6.970106	-2.882863	11.898123	-0.446172	2.183241	-0.584259	-0.374756	-0.809326	-0.041992	11.856555	20.223365	132.325530
08089		-6.344686	-0.489024	10.956167	-0.267854	2.024902	-0.538797	-0.354980	-0.808838	-0.035889	11.679295	21.417944	132.256425
08090		-5.585210	2.121223	9.736200	-0.208850	1.888753	-0.537549	-0.347412	-0.803223	-0.037842	11.526480	22.539888	132.166749
08091		-5.877150	2.616884	9.102657	-0.160100	1.852815	-0.506811	-0.340820	-0.806641	-0.035400	11.404605	23.633837	132.087899
08092		-7.463883	2.316716	9.807119	-0.176909	1.739116	-0.522153	-0.328613	-0.808105	-0.036621	11.260375	24.669628	131.982004
08093		-8.743493	1.745080	10.682858	-0.250784	1.497636	-0.577743	-0.324951	-0.801270	-0.041748	11.043492	25.571363	131.807770
08094		-14.112869	2.732718	13.930152	-0.584687	0.590614	-0.994956	-0.312744	-0.801025	-0.040771	10.469265	26.010408	131.256938
08095		-4.865031	-0.308988	9.352597	-0.283084	0.340396	-0.410803	-0.310791	-0.797607	-0.039795	10.212000	26.240370	131.039270
08096		-5.487636	0.023656	10.299067	-0.183518	0.301833	-0.271105	-0.320313	-0.798096	-0.048828	10.046980	26.438370	130.903603
08097		-4.879610	0.805304	9.053030	-0.120259	0.282793	-0.164401	-0.313477	-0.801758	-0.040771	9.947161	26.610144	130.832633
08098		-4.494952	1.353627	9.038392	-0.067141	0.242878	-0.107263	-0.311523	-0.796387	-0.046875	9.890952	26.758149	130.792673
08099		-5.263904	1.257449	9.088095	-0.055511	0.217960	-0.092333	-0.307129	-0.799316	-0.039307	9.844973	26.886106	130.759536
08100		-4.526074	1.618197	8.740750	-0.050462	0.180224	-0.073392	-0.309814	-0.792480	-0.035889	9.804590	26.995253	130.733789
08101		-4.876949	1.327537	8.800899	-0.043130	0.151981	-0.060148	-0.313721	-0.795654	-0.051025	9.771467	27.082782	130.713574
08102		-4.697043	1.513751	8.732264	-0.032272	0.130812	-0.048588	-0.305908	-0.797852	-0.041504	9.746083	27.161472	130.698000
08103		-4.756298	1.376141	8.741250	-0.020074	0.115009	-0.037776	-0.304199	-0.792236	-0.037354	9.730719	27.225938	130.687847
08104		-4.794766	1.468066	8.690813	-0.010922	0.094242	-0.029511	-0.307129	-0.794434	-0.047852	9.721246	27.282005	130.680348
08105		-4.684524	1.461985	8.629839	-0.009167	0.086852	-0.026375	-0.306152	-0.791016	-0.041748	9.714016	27.329465	130.674339
08106		-4.640699	1.486967	8.677985	-0.022536	0.061360	-0.025362	-0.309082	-0.798828	-0.036377	9.697453	27.366448	130.665882
08107		-4.598837	1.433591	8.620631	-0.034892	0.061589	-0.026703	-0.301758	-0.798340	-0.042236	9.674104	27.399668	130.656889
08108		-4.569807	1.531313	8.599602	-0.036292	0.055431	-0.021082	-0.298828	-0.804688	-0.035645	9.650612	27.432767	130.650487
08109		-4.587922	1.495369	8.593021	-0.045037	0.048664	-0.020911	-0.311768	-0.795410	-0.047363	9.622479	27.458123	130.643747
08110		-4.574084	1.462208	8.600137	-0.053964	0.048181	-0.019181	-0.310791	-0.799561	-0.041260	9.589063	27.486822	130.637749
08111		-4.613797	1.433716	8.599557	-0.056569	0.044351	-0.014071	-0.299316	-0.796143	-0.039795	9.556099	27.509084	130.634866
08112		-4.676914	1.440763	8.557284	-0.055858	0.039996	-0.012853	-0.305908	-0.799561	-0.047607	9.523054	27.532440	130.631996
08113		-4.684297	1.415839	8.570456	-0.058180	0.037574	-0.010542	-0.304199	-0.800781	-0.046143	9.489856	27.550534	130.630610
08114		-4.653048	1.460157	8.521903	-0.062498	0.020254	-0.012551	-0.305176	-0.797119	-0.041260	9.452128	27.562603	130.625813
08115		-4.700656	1.497792	8.485916	-0.073131	0.013178	-0.014285	-0.301270	-0.797119	-0.053467	9.408051	27.567259	130.619429
08116		-4.705840	1.601535	8.513081	-0.091439	-0.003709	-0.013979	-0.306641	-0.790283	-0.046387	9.352167	27.565816	130.611192
08117		-4.569643	1.436010	8.546099	-0.092482	-0.007661	-0.016046	-0.300537	-0.790527	-0.045410	9.295469	27.558843	130.601493
08118		-4.654142	1.480515	8.556193	-0.096282	-0.008265	-0.019805	-0.310059	-0.794189	-0.044434	9.234907	27.555252	130.589092
08119		-4.620707	1.395714	8.589097	-0.096120	-0.014548	-0.021376	-0.301025	-0.797119	-0.047119	9.174233	27.544854	130.575299
08120		-4.611051	1.346656	8.580219	-0.094645	-0.008575	-0.019982	-0.297607	-0.787109	-0.043701	9.114573	27.540991	130.562779
08121		-4.579155	1.341144	8.595303	-0.093649	-0.004628	-0.017887	-0.299805	-0.793701	-0.049561	9.056826	27.535865	130.552250
08122		-4.509551	1.252664	8.673906	-0.085598	0.006401	-0.015718	-0.297852	-0.789063	-0.046875	9.004329	27.539980	130.543992
08123		-4.597331	1.172425	8.760990	-0.068846	0.031199	-0.013476	-0.298584	-0.787598	-0.051758	8.963770	27.554718	130.539904
08124		-4.570964	1.402504	8.631055	-0.055770	0.041422	-0.015400	-0.308350	-0.792725	-0.046387	8.930077	27.578522	130.535363
08125		-4.636570	1.362574	8.649846	-0.059362	0.048308	-0.013384	-0.308350	-0.789307	-0.056396	8.895759	27.602932	130.533024
08126		-4.699090	1.290880	8.624171	-0.051252	0.052347	-0.011408	-0.296875	-0.791748	-0.049805	8.866343	27.632478	130.532102
08127		-4.637424	1.391674	8.618928	-0.047627	0.038472	-0.013625	-0.300781	-0.788818	-0.052002	8.838208	27.651339	130.528600
08128		-4.591822	1.362565	8.639257	-0.043013	0.057099	-0.010811	-0.298096	-0.789551	-0.047852	8.813907	27.683448	130.528508
08129		-4.669746	1.265321	8.699003	-0.033004	0.047684	-0.014336	-0.307861	-0.791992	-0.048340	8.794352	27.707584	130.525445
08130		-4.623973	1.312239	8.610637	-0.029017	0.063568	-0.009426	-0.302490	-0.793945	-0.052246	8.778779	27.743158	130.526859
08131		-4.667451	1.291092	8.699325	-0.018539	0.069932	-0.006242	-0.304688	-0.794922	-0.050781	8.770937	27.779183	130.531157
08132		-4.681910	1.198632	8.693685	-0.013092	0.077093	0.001039	-0.304688	-0.798584	-0.052734	8.768243	27.821430	130.540601
08133		-4.629858	1.287034	8.576393	-0.014661	0.078111	-0.000142	-0.300049	-0.791504	-0.047119	8.764828	27.861555	130.549609
08134		-4.623249	1.368681	8.608608	-0.018067	0.078717	0.000270	-0.302490	-0.791992	-0.048828	8.759144	27.904722	130.558722
08135		-4.661835	1.414975	8.621501	-0.024505	0.089065	-0.002867	-0.295654	-0.794434	-0.047852	8.749789	27.951289	130.567064
08136		-4.622509	1.443156	8.545652	-0.027297	0.092415	-0.004535	-0.297852	-0.789307	-0.056152	8.738036	28.002567	130.574449
08137		-4.672661	1.350512	8.616576	-0.025339	0.093541	-0.007504	-0.299316	-0.794434	-0.049561	8.727019	28.052076	130.580243
08138		-4.716307	1.324845	8.612517	-0.026727	0.095157	-0.006591	-0.304932	-0.794922	-0.051758	8.715122	28.105025	130.586572
08139		-4.692894	1.325844	8.622379	-0.019603	0.088385	-0.010384	-0.302002	-0.788574	-0.054688	8.706281	28.151865	130.589994
08140		-4.701980	1.351157	8.571354	-0.028580	0.094624	-0.001501	-0.301514	-0.789063	-0.051758	8.694857	28.204014	130.599531
08141		-4.692126	1.320699	8.575519	-0.023638	0.100820	-0.005331	-0.298340	-0.797363	-0.048828	8.685817	28.257461	130.607408
08142		-4.709499	1.330349	8.628840	-0.032720	0.114044	0.003784	-0.297363	-0.793457	-0.056885	8.674560	28.320100	130.622247
08143		-4.707211	1.386625	8.582456	-0.034528	0.114585	-0.002967	-0.299561	-0.786865	-0.046875	8.660652	28.381143	130.632979
08144		-4.678130	1.426085	8.563743	-0.040495	0.126843	-0.003298	-0.304443	-0.788818	-0.056641	8.643404	28.451593	130.644502
08145		-4.663622	1.536487	8.599813	-0.044843	0.139039	-0.010781	-0.293701	-0.793945	-0.045410	8.622334	28.527165	130.652564
08146		-4.661109	1.404607	8.632605	-0.054417	0.151306	-0.012808	-0.302246	-0.789063	-0.047119	8.595352	28.612240	130.660312
08147		-4.617104	1.436577	8.698623	-0.081427	0.172276	-0.013368	-0.296631	-0.791016	-0.050537	8.554057	28.706870	130.669864
08148		-4.446755	1.187780	8.963867	-0.058324	0.211297	-0.033286	-0.298096	-0.797852	-0.050537	8.521262	28.827623	130.670103
08149		-4.429186	0.883245	9.144273	-0.052392	0.281016	-0.023753	-0.288574	-0.789795	-0.047607	8.498433	28.984762	130.683365
08150		-4.600797	1.235353	8.860553	-0.003684	0.345589	-0.029933	-0.287598	-0.792480	-0.049316	8.504263	29.181236	130.698694
08151		-4.435275	1.253526	9.107572	0.004011	0.417281	-0.028036	-0.291016	-0.788574	-0.056641	8.518980	29.415952	130.722481
08152		-4.526745	1.305324	9.016588	0.007913	0.504392	-0.029986	-0.280762	-0.792480	-0.048340	8.539291	29.702316	130.753465
08153		-4.449062	1.417683	9.020906	0.018574	0.591733	-0.035250	-0.290527	-0.792725	-0.057373	8.568915	30.036473	130.790019
08154		-4.485395	1.488692	8.970924	0.024661	0.684416	-0.051565	-0.283447	-0.799561	-0.057373	8.601265	30.426550	130.825208
08155		-4.504332	1.622000	8.928996	0.019856	0.778189	-0.065268	-0.284180	-0.786865	-0.055420	8.631825	30.868875	130.861314
08156		-4.509951	1.560027	8.958192	0.030610	0.888398	-0.092751	-0.286621	-0.799072	-0.053223	8.665037	31.377907	130.890618
08157		-4.522669	1.532371	9.080158	0.021812	1.001925	-0.118185	-0.280762	-0.791260	-0.053223	8.691208	31.951496	130.915182
08158		-4.591925	1.345052	9.127450	0.015926	1.124278	-0.154365	-0.275635	-0.793457	-0.064453	8.707886	32.599323	130.928301
08159		-4.541043	1.200681	9.418530	0.012103	1.276698	-0.207195	-0.267578	-0.794189	-0.060547	8.712134	33.336241	130.921933
08160		-4.525505	1.180620	9.487331	-0.010957	1.446750	-0.255429	-0.262695	-0.790527	-0.057861	8.694265	34.175325	130.900091
08161		-4.546536	1.176188	9.573683	-0.035598	1.635846	-0.308482	-0.254395	-0.786865	-0.061279	8.652424	35.124414	130.861006
08162		-4.294922	1.531394	9.554115	-0.043665	1.862277	-0.396095	-0.245605	-0.788574	-0.059814	8.582400	36.210762	130.782910
08163		-4.276379	1.453427	9.755255	-0.093814	2.128382	-0.485246	-0.229492	-0.787598	-0.061768	8.459752	37.453857	130.666694
08164		-4.216464	1.645998	9.768748	-0.137922	2.449151	-0.597127	-0.223389	-0.791992	-0.065430	8.276556	38.889124	130.497274
08165		-4.315548	1.692956	9.881479	-0.202469	2.822383	-0.721504	-0.215820	-0.786133	-0.069824	8.012734	40.544384	130.264769
08166		-4.515554	2.065025	9.685806	-0.278782	3.233671	-0.856860	-0.191650	-0.789063	-0.076904	7.647577	42.443639	129.953916
08167		-5.014507	2.261642	9.655987	-0.356359	3.642861	-1.021680	-0.178223	-0.787598	-0.062500	7.149399	44.584770	129.525903
08168		-5.543454	2.587500	9.554254	-0.424262	4.062100	-1.197456	-0.150391	-0.779541	-0.066650	6.492105	46.973824	128.947227
08169		-6.439613	2.528344	9.508197	-0.493072	4.460568	-1.357261	-0.137207	-0.786621	-0.072266	5.647522	49.593432	128.193457
08170		-7.575288	1.590726	9.500580	-0.444349	4.806737	-1.448765	-0.115479	-0.776367	-0.064453	4.680381	52.407464	127.276009
08171		-10.409300	1.241293	10.395739	-0.281962	5.027908	-1.398063	-0.089844	-0.775146	-0.053711	3.716017	55.335243	126.281470
08172		-11.360275	-0.190979	10.602151	0.146954	5.087973	-1.270045	-0.061279	-0.771973	-0.052490	2.951823	58.284109	125.267103
08173		-10.820441	0.062819	9.978971	0.704280	5.079886	-1.192485	-0.041504	-0.765869	-0.039063	2.422453	61.219650	124.186538
08174		-11.543871	-0.135646	9.521384	1.417651	4.990086	-1.069219	-0.028076	-0.775146	-0.033447	2.281597	64.097534	123.112879
08175		-12.419782	0.723630	9.855859	2.081018	4.827086	-1.081308	0.008789	-0.780762	-0.005371	2.366695	66.882243	121.895231
08176		-11.780128	1.880777	9.568234	2.554643	4.557348	-1.187503	0.029297	-0.773438	0.006348	2.407523	69.515274	120.362071
08177		-10.873638	2.989201	9.256172	2.919603	4.291342	-1.385126	0.038574	-0.776611	0.027588	2.090494	71.999646	118.253884
08178		-8.607891	3.984175	8.974579	3.110565	3.999787	-1.661833	0.070801	-0.779297	0.054199	0.935411	74.311648	115.184441
08179		-5.960788	5.053822	8.940314	3.018006	3.882767	-2.021964	0.098877	-0.777832	0.071777	-1.850375	76.524831	110.519138
08180		-3.653731	6.318375	7.789011	2.592449	3.692437	-2.526496	0.117920	-0.773193	0.092285	-7.666570	78.512143	103.041236
08181		-5.310307	4.548936	7.337221	2.100061	3.037849	-2.776106	0.135986	-0.761719	0.118896	-16.525450	79.882720	92.798301
08182		-17.730456	7.203609	14.181589	1.458584	1.052126	-2.089842	0.166748	-0.762939	0.125000	-23.185252	80.038968	85.185446
08183		-9.385983	7.051693	14.338871	0.954352	-0.457163	-1.777055	0.181885	-0.749023	0.121338	-27.081799	79.366134	80.668701
08184		-4.294742	5.236563	10.384398	0.591109	-1.180344	-1.421871	0.191895	-0.747314	0.115479	-28.759059	78.382753	78.612820
08185		-1.149247	4.367940	7.066279	0.201517	-1.520709	-1.156299	0.205811	-0.735107	0.105225	-29.350561	77.296831	77.888864
08186		-0.180608	2.005540	5.827345	0.000106	-1.618968	-0.888018	0.211914	-0.730469	0.090820	-29.273409	76.234498	77.966346
08187		-0.301230	0.515452	5.428986	0.074297	-1.576153	-0.520570	0.225586	-0.725098	0.090332	-28.525224	75.297216	78.693482
08188		-0.791949	0.332530	5.255390	0.260409	-1.543503	-0.130007	0.240479	-0.725098	0.075439	-27.063784	74.475147	80.050776
08189		-1.418163	0.749328	5.426572	0.410646	-1.607014	0.231933	0.242676	-0.725342	0.061279	-24.979861	73.703245	81.972188
08190		-2.123540	1.308224	5.877966	0.416145	-1.730024	0.552636	0.250977	-0.726807	0.052979	-22.419319	72.916904	84.394273
08191		-2.780351	1.651622	6.087770	0.313629	-1.904531	0.817956	0.250000	-0.730469	0.041016	-19.601830	72.063063	87.159280
08192		-3.158022	1.477207	6.222458	0.149073	-2.101135	1.015872	0.254639	-0.738281	0.023193	-16.706726	71.093335	90.118365
08193		-3.463229	0.788198	6.252268	0.030209	-2.296750	1.154562	0.259277	-0.740967	0.008545	-13.891083	69.994956	93.085129
08194		-3.696183	-0.019286	6.283032	0.020693	-2.464165	1.268242	0.259277	-0.745605	-0.007568	-11.160906	68.766047	95.986965
08195		-4.136416	-0.537843	6.483983	0.104193	-2.611260	1.361768	0.256348	-0.748291	-0.038574	-8.545510	67.421609	98.740449
08196		-4.950137	-0.388816	7.021344	0.209887	-2.776696	1.442546	0.249268	-0.756836	-0.055908	-6.039662	65.939292	101.335609
08197		-5.600449	0.017467	7.456937	0.241723	-3.013458	1.516149	0.240723	-0.764160	-0.082764	-3.713126	64.288744	103.746424
