// General information: 
//  MT Manager version: 2022.2.0 
//  XDA version: 2022.2.0 build 7381 rev 124627 built on 2023-07-19
// Device information: 
//  DeviceId: 00B4C223
//  ProductCode: MTW2-3A7G6
//  Firmware Version: 4.6.0
//  Hardware Version: 2.0.0
// Device settings: 
//  Filter Profile: human(46.1)
//  Option Flags: Orientation Smoother Disabled, Position/Velocity Smoother Disabled, Continuous Zero Rotation Update Disabled, AHS Disabled, ICC Disabled
// Coordinate system: ENU
PacketCounter	SampleTimeFine	Acc_X	Acc_Y	Acc_Z	Gyr_X	Gyr_Y	Gyr_Z	Mag_X	Mag_Y	Mag_Z	Roll	Pitch	Yaw
18368		-5.468129	1.737847	8.111294	-0.005734	0.001542	-0.001730	-0.901123	-0.049805	-0.623779	12.904084	33.350091	126.104056
18369		-5.400029	1.798312	8.144843	-0.009375	0.002278	-0.003540	-0.888916	-0.045410	-0.624512	12.896137	33.351606	126.097372
18370		-5.419646	1.795284	8.116038	-0.011986	0.008629	-0.005212	-0.897461	-0.037842	-0.618164	12.888605	33.357420	126.091800
18371		-5.450348	1.707663	8.120628	-0.016173	0.010240	-0.005053	-0.887207	-0.039551	-0.618164	12.876827	33.363612	126.085426
18372		-5.470619	1.733490	8.110547	-0.006555	0.011205	-0.000457	-0.892334	-0.040771	-0.620850	12.874369	33.370256	126.083425
18373		-5.441489	1.790154	8.086197	-0.010742	0.012815	-0.000299	-0.895264	-0.036133	-0.630371	12.867656	33.377321	126.080563
18374		-5.488470	1.760858	8.159321	-0.009713	0.018430	-0.000159	-0.894531	-0.047852	-0.617432	12.864105	33.387963	126.079863
18375		-5.435802	1.706065	8.147039	-0.009410	0.014313	-0.003185	-0.895020	-0.041992	-0.617920	12.857229	33.396176	126.075457
18376		-5.458518	1.745494	8.116307	-0.009714	0.018430	-0.000161	-0.886475	-0.037598	-0.626221	12.853675	33.406818	126.074754
18377		-5.537423	1.643501	8.173799	-0.007792	0.013905	0.000296	-0.884766	-0.042725	-0.617432	12.848954	33.414404	126.072567
18378		-5.490714	1.658580	8.119646	0.004535	0.012714	0.004441	-0.897705	-0.042725	-0.620850	12.854780	33.421266	126.074070
18379		-5.485874	1.885043	8.121069	-0.005798	0.008903	0.002345	-0.893311	-0.049316	-0.623779	12.851570	33.425804	126.072261
18380		-5.516174	1.769748	8.106364	-0.002370	0.009596	-0.000618	-0.896973	-0.048340	-0.621826	12.851311	33.431569	126.069902
18381		-5.468942	1.784457	8.052649	-0.006898	0.003765	0.000612	-0.891602	-0.041016	-0.619141	12.846461	33.433437	126.066157
18382		-5.446701	1.787516	8.140877	-0.011915	0.008155	-0.003630	-0.887207	-0.042969	-0.624268	12.839501	33.438781	126.061560
18383		-5.459887	1.686502	8.134815	-0.014868	0.007067	-0.004230	-0.887695	-0.045898	-0.620850	12.828514	33.443162	126.055220
18384		-5.458054	1.614361	8.116774	-0.009511	0.010117	-0.001061	-0.886475	-0.046631	-0.616943	12.824041	33.449274	126.052640
18385		-5.476831	1.684962	8.165013	-0.002918	0.010468	0.001353	-0.896973	-0.041748	-0.617920	12.822285	33.454886	126.050274
18386		-5.453859	1.811315	8.098793	-0.002607	0.013235	0.004000	-0.887451	-0.042236	-0.617188	12.823898	33.462096	126.051557
18387		-5.470449	1.811094	8.128959	-0.007624	0.017626	-0.000244	-0.884766	-0.042236	-0.623779	12.819442	33.471824	126.049329
18388		-5.459038	1.852213	8.095878	-0.012713	0.022495	-0.006080	-0.886475	-0.040039	-0.615479	12.812319	33.485488	126.045271
18389		-5.462493	1.835331	8.055658	-0.016453	0.019036	-0.005769	-0.882080	-0.037109	-0.616943	12.800862	33.496788	126.039651
18390		-5.459969	1.777710	8.076480	-0.021711	0.020185	-0.011071	-0.889648	-0.041992	-0.619385	12.786537	33.509794	126.031890
18391		-5.653401	1.584658	8.173514	-0.014362	0.018231	-0.005848	-0.885010	-0.046631	-0.618652	12.776193	33.520639	126.026080
18392		-5.564123	1.756062	8.101863	-0.004399	0.009924	0.001050	-0.885010	-0.056885	-0.626953	12.775408	33.526373	126.024877
18393		-5.464387	1.832103	8.112767	-0.007660	0.012949	0.003473	-0.887207	-0.036865	-0.619141	12.771983	33.533160	126.024305
18394		-5.478241	1.760319	8.125295	-0.014392	0.013555	-0.002132	-0.888428	-0.040527	-0.624268	12.764597	33.541326	126.021519
18395		-5.505369	1.646045	8.169890	-0.011511	0.015122	-0.003121	-0.891846	-0.049805	-0.618652	12.756612	33.550071	126.017259
18396		-5.508716	1.658853	8.148784	-0.003135	0.018782	0.002250	-0.889648	-0.046387	-0.620850	12.757737	33.560604	126.018202
18397		-5.484302	1.771576	8.102700	-0.006226	0.018650	-0.001538	-0.887695	-0.041260	-0.623047	12.753756	33.571111	126.015142
18398		-5.537355	1.753723	8.095399	-0.010416	0.020260	-0.001389	-0.885254	-0.041260	-0.617188	12.749483	33.582929	126.013868
18399		-5.506671	1.796809	8.091307	-0.009417	0.014318	-0.003201	-0.890625	-0.040527	-0.624268	12.742624	33.591261	126.009268
18400		-5.492838	1.824218	8.078950	-0.016079	0.014447	-0.007218	-0.888184	-0.040039	-0.624512	12.732452	33.600567	126.003198
18401		-5.488124	1.753091	8.120187	-0.022503	0.017819	-0.010180	-0.885498	-0.043701	-0.621826	12.715788	33.611700	125.994675
18402		-5.489283	1.721974	8.100568	-0.021265	0.015121	-0.010936	-0.886475	-0.038818	-0.635986	12.701313	33.621849	125.986204
18403		-5.420187	1.709844	8.116060	-0.020311	0.021215	-0.012384	-0.886719	-0.041504	-0.627441	12.685345	33.635207	125.976838
18404		-5.420931	1.722794	8.154412	-0.020597	0.030009	-0.013078	-0.881348	-0.039551	-0.627686	12.671694	33.653944	125.969169
18405		-5.528886	1.728410	8.138947	-0.017786	0.032057	-0.015658	-0.889160	-0.040771	-0.618652	12.656854	33.673775	125.959159
18406		-5.465610	1.670887	8.035366	-0.010273	0.033823	-0.010957	-0.879150	-0.043701	-0.625488	12.650216	33.694375	125.953477
18407		-5.364000	1.791490	8.163474	-0.012932	0.045339	-0.017948	-0.884521	-0.044189	-0.622070	12.638457	33.721907	125.943600
18408		-5.509761	1.808453	8.128733	-0.021041	0.049606	-0.026004	-0.884521	-0.039307	-0.630371	12.621339	33.753214	125.930165
18409		-5.617522	1.698028	8.035696	-0.024299	0.045754	-0.029272	-0.891113	-0.040039	-0.614258	12.598838	33.782366	125.912911
18410		-5.632591	1.638971	8.085985	-0.020926	0.037092	-0.024791	-0.890869	-0.042725	-0.625977	12.581163	33.806516	125.898377
18411		-5.605498	1.693507	8.061102	-0.021191	0.029167	-0.022136	-0.881348	-0.037354	-0.621094	12.561755	33.825408	125.883165
18412		-5.554827	1.694378	8.086786	-0.020436	0.026859	-0.019330	-0.880615	-0.037598	-0.620117	12.545531	33.843147	125.870748
18413		-5.501604	1.653255	8.113689	-0.020304	0.025898	-0.016148	-0.879395	-0.049072	-0.621094	12.528529	33.859583	125.859150
18414		-5.587878	1.618498	8.128062	-0.011686	0.025930	-0.015369	-0.881104	-0.044678	-0.619385	12.518713	33.876306	125.849247
18415		-5.625265	1.571480	8.070191	-0.004073	0.022051	-0.003746	-0.881836	-0.044189	-0.626221	12.515419	33.889081	125.845064
18416		-5.456697	1.666889	8.116725	0.000647	0.026450	-0.000174	-0.883789	-0.049561	-0.627686	12.518416	33.904207	125.845472
18417		-5.503779	1.789912	8.054128	0.001431	0.028825	-0.001085	-0.888672	-0.042969	-0.618652	12.519793	33.920415	125.844416
18418		-5.517710	1.734269	8.104494	0.001887	0.035310	0.001031	-0.883545	-0.039063	-0.625977	12.524696	33.940347	125.846964
18419		-5.588068	1.745753	8.145759	0.000901	0.034379	-0.002841	-0.884033	-0.038330	-0.623291	12.525573	33.959800	125.845583
18420		-5.610326	1.699875	8.056439	-0.001295	0.030977	-0.000649	-0.882568	-0.044922	-0.627441	12.527660	33.977517	125.846353
18421		-5.592021	1.687895	8.104059	-0.001883	0.025454	-0.005953	-0.877686	-0.038330	-0.626221	12.525010	33.992410	125.841640
18422		-5.593063	1.630059	8.064334	-0.002376	0.025841	-0.002394	-0.879150	-0.045898	-0.627197	12.525390	34.007471	125.840462
18423		-5.578015	1.645150	8.071725	0.000183	0.019967	-0.002301	-0.884521	-0.039795	-0.624512	12.524823	34.018910	125.837402
18424		-5.601307	1.714195	8.059790	0.000872	0.018138	-0.001083	-0.880127	-0.046143	-0.624268	12.526911	34.029500	125.835954
18425		-5.469488	1.777407	8.029935	-0.000507	0.021797	-0.003521	-0.879395	-0.042969	-0.622314	12.525675	34.042063	125.832230
18426		-5.401042	1.839824	8.122832	-0.005202	0.033641	-0.008868	-0.879150	-0.048340	-0.624756	12.522641	34.062291	125.827850
18427		-5.561844	1.813455	8.060036	-0.015752	0.036429	-0.021130	-0.882080	-0.046143	-0.624023	12.507281	34.085252	125.814285
18428		-5.696889	1.661477	8.029330	-0.016380	0.037778	-0.020761	-0.881348	-0.038818	-0.624268	12.493677	34.109268	125.802478
18429		-5.640255	1.564816	8.077195	-0.017952	0.033028	-0.018946	-0.871582	-0.036133	-0.625000	12.477566	34.130009	125.790022
18430		-5.649542	1.660602	8.053353	-0.011624	0.025454	-0.013824	-0.879883	-0.042969	-0.619629	12.468266	34.146268	125.781041
18431		-5.703607	1.670413	8.064461	-0.012280	0.022115	-0.009730	-0.885742	-0.042969	-0.621094	12.457937	34.159833	125.773147
18432		-5.651367	1.644058	8.071692	-0.011844	0.012355	-0.005847	-0.869629	-0.044189	-0.624512	12.450433	34.167775	125.767595
18433		-5.654043	1.656418	8.051055	-0.009840	0.007348	-0.003781	-0.882813	-0.039795	-0.622070	12.442560	34.172338	125.761392
18434		-5.568770	1.674901	8.056061	-0.004888	0.003433	-0.001094	-0.875488	-0.038086	-0.621826	12.440097	34.174700	125.757721
18435		-5.502871	1.720369	8.051254	-0.008928	0.008760	-0.001504	-0.881104	-0.050293	-0.630859	12.433697	34.179740	125.753415
18436		-5.365272	1.742424	8.083018	-0.008582	0.020898	-0.006297	-0.876953	-0.039795	-0.628662	12.428601	34.192516	125.748827
18437		-5.336043	1.857662	8.156671	-0.011283	0.037596	-0.018623	-0.875732	-0.035645	-0.618652	12.416778	34.215817	125.737374
18438		-5.579546	1.711846	8.050345	-0.013731	0.052368	-0.024580	-0.875977	-0.038086	-0.625488	12.404400	34.248452	125.725091
18439		-5.795862	1.500013	8.073676	-0.012983	0.050057	-0.021773	-0.876465	-0.040283	-0.621826	12.391411	34.279082	125.713269
18440		-5.707566	1.657676	8.022419	-0.006654	0.042483	-0.016644	-0.871826	-0.038086	-0.626953	12.385263	34.305206	125.704867
18441		-5.642776	1.688750	8.036201	-0.010479	0.034805	-0.014235	-0.874512	-0.048584	-0.628174	12.375287	34.326419	125.695863
18442		-5.692578	1.614182	8.048767	-0.009883	0.028767	-0.010887	-0.873535	-0.040527	-0.616455	12.368328	34.344158	125.689310
18443		-5.696628	1.626499	8.027138	-0.006404	0.024307	-0.008505	-0.875732	-0.035400	-0.619141	12.362058	34.358809	125.682299
18444		-5.669931	1.696741	7.982927	-0.008125	0.015826	-0.006154	-0.868652	-0.052002	-0.624268	12.356825	34.368723	125.677026
18445		-5.646469	1.628516	8.052846	-0.006619	0.011200	-0.000522	-0.882568	-0.041504	-0.622070	12.352381	34.375088	125.673479
18446		-5.652340	1.712137	8.050330	-0.009063	0.009723	-0.004711	-0.879150	-0.043213	-0.621826	12.346649	34.381409	125.668275
18447		-5.616084	1.670774	8.049485	-0.014201	0.005220	-0.003150	-0.873291	-0.046631	-0.622070	12.336363	34.384625	125.662181
18448		-5.598018	1.671274	8.078427	-0.012791	0.006251	-0.004431	-0.882080	-0.040039	-0.627197	12.328309	34.388967	125.656649
18449		-5.636642	1.694955	8.039384	-0.013544	0.008565	-0.007248	-0.879395	-0.038330	-0.627197	12.317098	34.394609	125.648347
18450		-5.600469	1.653203	8.038550	-0.016994	0.007851	-0.004316	-0.880127	-0.037354	-0.621826	12.306812	34.399831	125.643128
18451		-5.654905	1.676396	8.030260	-0.015863	0.006123	-0.008250	-0.879639	-0.040039	-0.623047	12.293641	34.404179	125.634011
18452		-5.633505	1.605790	8.041055	-0.014986	0.002842	-0.002247	-0.875732	-0.042969	-0.628662	12.284878	34.406343	125.629452
18453		-5.547386	1.638597	8.086031	-0.016617	0.008439	-0.011067	-0.877930	-0.048340	-0.628906	12.270413	34.412380	125.618657
18454		-5.640000	1.686606	8.038785	-0.015207	0.009470	-0.012348	-0.877441	-0.045166	-0.632080	12.258199	34.419482	125.608219
18455		-5.707200	1.638227	8.042845	-0.021037	0.006797	-0.012014	-0.870117	-0.037842	-0.625000	12.240728	34.424736	125.596541
18456		-5.622136	1.655186	8.048481	-0.021253	0.003555	-0.013076	-0.875977	-0.041504	-0.631836	12.224273	34.428609	125.584732
18457		-5.625168	1.694940	8.047679	-0.021254	0.003555	-0.013078	-0.883545	-0.038818	-0.627197	12.205931	34.432213	125.572008
18458		-5.661049	1.675293	8.009992	-0.024768	0.003323	-0.011742	-0.875244	-0.032227	-0.627686	12.187953	34.435790	125.561066
18459		-5.635118	1.591573	8.100866	-0.022667	0.002524	-0.011802	-0.869629	-0.036133	-0.626465	12.169199	34.438552	125.549207
18460		-5.641648	1.614997	8.000936	-0.018968	0.001303	-0.008356	-0.879395	-0.032959	-0.626465	12.155673	34.440583	125.540267
18461		-5.636707	1.572507	8.061707	-0.015116	0.003808	-0.005442	-0.877441	-0.036621	-0.623779	12.143780	34.443364	125.532851
18462		-5.575965	1.658078	7.997008	-0.014425	0.001976	-0.004222	-0.871826	-0.031494	-0.625244	12.134500	34.445270	125.526815
18463		-5.521664	1.690394	8.103386	-0.016287	0.010714	-0.006822	-0.872559	-0.038574	-0.625977	12.121987	34.452077	125.519374
18464		-5.628895	1.680777	8.048044	-0.021938	0.016462	-0.010744	-0.870117	-0.042969	-0.628174	12.107089	34.462881	125.511018
18465		-5.695021	1.575235	8.012909	-0.014726	0.015474	-0.008633	-0.870361	-0.040771	-0.630371	12.095222	34.472636	125.502848
18466		-5.645811	1.619715	8.038934	-0.011303	0.011496	-0.007843	-0.880859	-0.032715	-0.625977	12.087117	34.480307	125.495732
18467		-5.662721	1.618419	8.069063	-0.007265	0.012543	-0.000143	-0.879883	-0.032471	-0.627686	12.082511	34.487331	125.493156
18468		-5.667810	1.629819	7.988817	-0.010008	0.003619	-0.003279	-0.865967	-0.041016	-0.631104	12.076253	34.490040	125.487995
18469		-5.684755	1.657132	8.038823	-0.008748	0.000926	-0.004026	-0.870605	-0.042725	-0.628662	12.068338	34.491068	125.481123
18470		-5.667096	1.642837	8.028601	-0.012413	-0.003036	-0.002163	-0.875977	-0.036621	-0.634521	12.060583	34.489913	125.475753
18471		-5.697774	1.612426	8.070997	-0.013824	-0.004070	-0.000886	-0.880371	-0.038086	-0.620850	12.050587	34.487781	125.470277
18472		-5.662165	1.584929	8.050520	-0.010186	-0.004807	0.000968	-0.879395	-0.036621	-0.623779	12.045168	34.485258	125.466779
18473		-5.631583	1.642130	8.028344	-0.010061	-0.005779	0.004156	-0.874268	-0.040283	-0.618408	12.039184	34.481447	125.464136
18474		-5.645114	1.627693	8.079712	-0.009937	-0.006752	0.007344	-0.874512	-0.042969	-0.632324	12.036203	34.477072	125.464691
18475		-5.645435	1.612352	8.040678	-0.008526	-0.005718	0.006067	-0.877441	-0.042236	-0.623047	12.031856	34.473175	125.463288
18476		-5.664219	1.638636	8.031489	-0.013008	-0.006874	0.003521	-0.873779	-0.049805	-0.627197	12.025635	34.469188	125.461227
18477		-5.673286	1.524607	8.045233	-0.010365	-0.013233	0.005211	-0.880371	-0.033691	-0.622559	12.019345	34.461186	125.457966
18478		-5.677109	1.565015	7.985771	-0.009196	-0.020139	0.006583	-0.876465	-0.047363	-0.629150	12.015402	34.449400	125.456068
18479		-5.695204	1.620083	7.996977	-0.012951	-0.028315	0.010564	-0.875488	-0.040771	-0.625732	12.008393	34.432264	125.454575
18480		-5.640376	1.651934	8.045718	-0.012539	-0.032901	0.009120	-0.870850	-0.037109	-0.628418	12.002469	34.413023	125.452561
18481		-5.479582	1.647721	8.090418	-0.011696	-0.031007	0.009809	-0.876953	-0.038330	-0.618896	11.995644	34.394560	125.450271
18482		-5.398265	1.526333	8.150733	-0.005974	-0.016291	0.009872	-0.876953	-0.039795	-0.627197	11.995127	34.384538	125.451169
18483		-5.527755	1.673752	8.144070	-0.001976	-0.000175	0.003245	-0.876709	-0.042969	-0.628174	11.993902	34.384055	125.448677
18484		-5.665333	1.550290	8.013267	0.004072	0.005740	0.003986	-0.878906	-0.037354	-0.626221	11.998679	34.387081	125.448758
18485		-5.558773	1.573774	8.107055	0.011909	0.009766	0.013011	-0.871094	-0.039551	-0.625244	12.009955	34.391007	125.454518
18486		-5.603325	1.713797	8.085167	0.015009	0.014587	0.013117	-0.872803	-0.036621	-0.629395	12.025224	34.397901	125.462079
18487		-5.672505	1.639242	8.009234	0.007640	0.011853	0.011532	-0.871094	-0.043701	-0.623047	12.033628	34.403243	125.467210
18488		-5.630040	1.530914	8.049002	0.008743	0.005433	0.011308	-0.873291	-0.041260	-0.629883	12.043868	34.405222	125.472222
18489		-5.651229	1.572721	8.018816	0.007115	0.001160	0.011518	-0.878418	-0.037842	-0.630127	12.051143	34.404585	125.475558
18490		-5.651717	1.602766	8.038070	0.010033	-0.002447	0.015865	-0.881836	-0.043213	-0.631104	12.063225	34.401602	125.482521
18491		-5.586528	1.664083	8.013899	0.006806	-0.006293	0.012572	-0.880127	-0.043945	-0.623291	12.070084	34.396555	125.485876
18492		-5.605189	1.735895	8.063096	0.008651	0.001220	0.013426	-0.873291	-0.031006	-0.618652	12.080737	34.395917	125.491714
18493		-5.642726	1.762134	8.024402	0.002197	-0.006473	0.006842	-0.875977	-0.047363	-0.632324	12.082778	34.391472	125.490761
18494		-5.618633	1.679782	8.055419	-0.002636	-0.003524	0.007333	-0.884766	-0.043457	-0.622559	12.084237	34.388906	125.491773
18495		-5.634180	1.636077	8.027572	-0.004830	-0.006937	0.009512	-0.875977	-0.035400	-0.626709	12.083307	34.383876	125.492594
18496		-5.598131	1.653337	8.065834	-0.003077	-0.003637	0.012487	-0.876221	-0.039063	-0.626953	12.086481	34.380629	125.497088
18497		-5.595293	1.611506	8.066847	-0.004395	-0.000456	0.011643	-0.876221	-0.040283	-0.626953	12.087059	34.379014	125.500625
18498		-5.631288	1.623726	8.048306	-0.000477	0.001556	0.016153	-0.876953	-0.049072	-0.625244	12.093553	34.378236	125.508362
18499		-5.630206	1.595967	8.029042	-0.001480	-0.004063	0.015988	-0.874268	-0.037842	-0.624268	12.097260	34.374097	125.513929
18500		-5.578115	1.657704	8.095305	0.002880	-0.001940	0.015343	-0.876221	-0.041504	-0.624512	12.105079	34.371456	125.520606
18501		-5.593311	1.586256	8.047712	0.003540	0.001413	0.011255	-0.878174	-0.042480	-0.623779	12.110252	34.370953	125.523902
18502		-5.665988	1.639241	8.030006	0.004196	-0.005120	0.016186	-0.873535	-0.032959	-0.630371	12.118885	34.366428	125.530687
18503		-5.580387	1.688308	8.055064	0.007020	-0.003057	0.013632	-0.880615	-0.036377	-0.624756	12.126557	34.363131	125.535200
18504		-5.550371	1.819048	8.110526	-0.000849	0.004476	0.006593	-0.869385	-0.039795	-0.621094	12.129413	34.365135	125.536873
18505		-5.652959	1.712282	8.017665	-0.007621	0.005588	-0.000668	-0.877686	-0.043945	-0.627930	12.123980	34.368398	125.532702
18506		-5.574782	1.546865	8.017558	-0.006023	0.005160	0.002834	-0.873779	-0.037109	-0.630859	12.122488	34.371237	125.531923
18507		-5.589896	1.561850	8.087497	0.005736	0.004823	0.009076	-0.876221	-0.041992	-0.618408	12.128371	34.372918	125.534502
18508		-5.644166	1.587844	8.078861	0.003508	0.012967	0.013232	-0.885986	-0.044434	-0.626709	12.136968	34.378878	125.541920
18509		-5.511788	1.609404	7.991515	0.012475	0.015265	0.018314	-0.878906	-0.041748	-0.621094	12.151194	34.385197	125.551819
18510		-5.559742	1.625638	8.121656	0.015896	0.027535	0.017362	-0.871826	-0.040771	-0.629150	12.169680	34.398815	125.564176
18511		-5.622347	1.707296	8.030912	0.017185	0.029539	0.012897	-0.875977	-0.037109	-0.617920	12.185662	34.413860	125.572707
18512		-5.674098	1.678388	8.041941	0.012134	0.029252	0.012319	-0.882080	-0.043213	-0.625000	12.200213	34.429045	125.581906
18513		-5.610814	1.710839	7.996514	0.009003	0.029621	0.006905	-0.875244	-0.028564	-0.628174	12.209254	34.444782	125.586291
18514		-5.647185	1.753343	8.055221	0.005087	0.027611	0.002395	-0.877197	-0.043945	-0.624512	12.215827	34.460247	125.588518
18515		-5.682962	1.722926	8.036008	-0.003189	0.023480	-0.001474	-0.867676	-0.041260	-0.628418	12.214089	34.473603	125.586792
18516		-5.663180	1.653441	8.045391	-0.002562	0.022132	-0.001848	-0.866699	-0.042236	-0.629395	12.214193	34.486514	125.585333
18517		-5.666661	1.666668	8.023995	-0.006646	0.022767	0.001448	-0.880127	-0.043213	-0.627930	12.211576	34.499290	125.585280
18518		-5.717701	1.635510	8.035937	-0.006277	0.013480	0.003727	-0.879395	-0.044678	-0.624023	12.210976	34.506681	125.586336
18519		-5.615375	1.641015	8.030645	-0.006218	0.012994	0.005320	-0.875244	-0.038574	-0.625488	12.209361	34.513309	125.587292
18520		-5.601237	1.669689	8.018641	-0.005432	0.015373	0.004416	-0.878662	-0.037598	-0.626221	12.209669	34.521676	125.589094
18521		-5.652100	1.638624	8.030678	-0.005551	0.016345	0.001230	-0.871094	-0.044434	-0.625244	12.207072	34.530699	125.588041
18522		-5.669383	1.594440	8.001694	-0.006278	0.013480	0.003725	-0.879639	-0.044678	-0.630615	12.206470	34.538090	125.589096
18523		-5.602119	1.626678	8.017387	-0.002922	0.009981	0.002925	-0.874756	-0.032227	-0.625000	12.205563	34.543402	125.588019
18524		-5.602882	1.670344	8.075579	0.002226	0.014480	0.001383	-0.870605	-0.043701	-0.633545	12.209015	34.551637	125.587629
18525		-5.675591	1.665121	8.018002	-0.004137	0.017377	-0.000047	-0.870361	-0.043213	-0.618896	12.206792	34.561470	125.586029
18526		-5.711232	1.663268	8.018651	0.002343	0.013508	0.004569	-0.873535	-0.042725	-0.629395	12.211459	34.568775	125.587662
18527		-5.712767	1.692115	8.037369	-0.002236	0.008147	0.004144	-0.883301	-0.037598	-0.624268	12.211272	34.572947	125.586979
18528		-5.694882	1.650128	8.007305	-0.003927	0.004362	0.002763	-0.874268	-0.041748	-0.629395	12.210886	34.575349	125.586038
18529		-5.678218	1.665330	8.016099	-0.003182	0.002041	0.005576	-0.879395	-0.037842	-0.631348	12.210165	34.575816	125.585838
18530		-5.671759	1.567395	8.038047	-0.001298	-0.002003	0.004460	-0.875488	-0.035889	-0.626221	12.211409	34.574448	125.585114
18531		-5.655223	1.611439	8.066558	-0.001399	-0.006216	0.006583	-0.869873	-0.045898	-0.621094	12.211358	34.570195	125.584639
18532		-5.678802	1.679839	7.996461	0.001940	-0.003346	0.013060	-0.869141	-0.035156	-0.625000	12.217663	34.567032	125.589566
18533		-5.626838	1.697632	8.004203	-0.002698	-0.008219	0.011042	-0.877686	-0.033447	-0.624268	12.218490	34.561253	125.591213
18534		-5.572451	1.716395	8.071662	-0.001299	-0.002003	0.004460	-0.871094	-0.046387	-0.622070	12.219733	34.559885	125.590489
18535		-5.642999	1.726188	8.054473	-0.005969	0.004680	0.004410	-0.864990	-0.043945	-0.632324	12.217219	34.562045	125.589627
18536		-5.668425	1.511871	8.000373	-0.001708	0.002586	0.005894	-0.880127	-0.042969	-0.624512	12.219165	34.563072	125.590555
18537		-5.637941	1.613817	8.036450	0.005206	0.005196	0.012636	-0.871582	-0.041504	-0.628662	12.226274	34.564589	125.595468
18538		-5.677232	1.697507	8.035900	0.005834	0.003847	0.012263	-0.866211	-0.043945	-0.620361	12.235104	34.565550	125.600913
18539		-5.654899	1.600644	8.027052	0.001194	-0.001025	0.010246	-0.869385	-0.046143	-0.626953	12.238485	34.563920	125.603069
18540		-5.693751	1.684023	8.026858	0.004769	-0.001286	0.010510	-0.871582	-0.047852	-0.625977	12.245598	34.562219	125.606564
18541		-5.710328	1.669403	8.018020	-0.001242	-0.002488	0.006052	-0.880371	-0.046387	-0.629150	12.245887	34.560277	125.605558
18542		-5.659909	1.700312	8.005710	-0.003826	-0.012864	0.007696	-0.878174	-0.041992	-0.620850	12.246021	34.552435	125.605430
18543		-5.643511	1.728993	7.995278	-0.008364	-0.013523	0.003556	-0.880859	-0.048584	-0.625244	12.240346	34.544455	125.601261
18544		-5.690373	1.684016	8.029255	-0.010742	-0.015472	0.000954	-0.872070	-0.044189	-0.625000	12.233701	34.535971	125.596168
18545		-5.649971	1.600625	8.030525	-0.012159	-0.016502	0.002227	-0.881592	-0.038574	-0.619873	12.225125	34.526553	125.590530
18546		-5.632420	1.644033	8.059824	-0.006658	-0.014925	0.010240	-0.874023	-0.043457	-0.627930	12.224447	34.517248	125.591832
18547		-5.629344	1.630427	8.081016	-0.005463	-0.017135	0.007902	-0.875977	-0.048584	-0.617676	12.221783	34.506746	125.590210
18548		-5.664348	1.598654	8.004419	-0.005301	-0.013408	0.007373	-0.879150	-0.042480	-0.628906	12.220905	34.498638	125.589787
18549		-5.595564	1.660023	8.040819	0.002871	-0.013499	0.013365	-0.863037	-0.041748	-0.623535	12.225479	34.489537	125.592114
18550		-5.615867	1.729886	8.030946	-0.002922	-0.011459	0.009973	-0.873047	-0.038818	-0.631348	12.227126	34.482205	125.593744
18551		-5.646318	1.657435	8.014652	-0.005082	-0.010167	0.008436	-0.879395	-0.042725	-0.629883	12.225417	34.475737	125.593719
18552		-5.577239	1.689783	8.031483	-0.004293	-0.007789	0.007534	-0.867920	-0.039063	-0.618652	12.225646	34.470756	125.594232
18553		-5.646706	1.743106	8.073850	-0.007359	-0.007901	0.003715	-0.884033	-0.036865	-0.631348	12.221056	34.466020	125.591150
18554		-5.660977	1.641686	8.007438	-0.009460	-0.007096	0.003770	-0.883057	-0.039551	-0.631104	12.216936	34.461883	125.589210
18555		-5.623226	1.644150	8.066217	-0.012409	-0.008181	0.003134	-0.869873	-0.038574	-0.627686	12.209159	34.456907	125.586337
18556		-5.645123	1.697872	8.016660	-0.007138	-0.004661	0.004778	-0.875488	-0.042236	-0.628662	12.206961	34.454011	125.585440
18557		-5.656412	1.641057	8.068915	-0.014733	-0.010615	0.002125	-0.876221	-0.042236	-0.630615	12.197297	34.447991	125.581119
18558		-5.640280	1.669206	8.058397	-0.008717	-0.009418	0.006578	-0.868896	-0.037598	-0.629639	12.194491	34.442214	125.580746
18559		-5.674002	1.666847	8.060582	-0.011562	-0.006289	0.003824	-0.876953	-0.047119	-0.628418	12.187645	34.438421	125.578350
18560		-5.655808	1.652792	8.050709	-0.012919	-0.007806	0.006689	-0.881348	-0.038330	-0.622559	12.182607	34.433533	125.578291
18561		-5.641119	1.737728	8.078914	-0.019563	-0.007653	0.002608	-0.879883	-0.045654	-0.625977	12.170686	34.429004	125.574474
18562		-5.788213	1.587028	8.079506	-0.022454	-0.009225	0.003563	-0.866211	-0.043701	-0.628662	12.158869	34.423698	125.572086
18563		-5.730911	1.742115	7.975114	-0.025665	-0.017076	0.018146	-0.875977	-0.046631	-0.625977	12.148646	34.412150	125.577378
18564		-5.646803	1.858340	8.020628	-0.038895	-0.023616	0.004292	-0.875000	-0.035400	-0.622559	12.126504	34.398695	125.573388
18565		-5.670717	1.669603	7.988089	-0.042745	-0.037654	-0.000621	-0.877686	-0.033936	-0.617920	12.097617	34.377825	125.563001
18566		-5.527393	1.674570	8.044109	-0.040037	-0.034615	-0.006355	-0.873047	-0.043213	-0.630127	12.069851	34.359481	125.550203
18567		-5.347574	1.682191	8.157710	-0.043809	-0.021331	-0.009399	-0.877686	-0.043945	-0.633057	12.038333	34.348804	125.536358
18568		-5.430953	1.645294	8.173557	-0.044079	-0.002629	-0.019062	-0.884033	-0.032227	-0.620850	12.006013	34.349890	125.519585
18569		-5.623781	1.571828	8.054561	-0.042398	0.006348	-0.022969	-0.878418	-0.036377	-0.624268	11.972364	34.356217	125.500748
18570		-5.603816	1.527050	8.084398	-0.030414	0.009215	-0.015651	-0.877441	-0.034668	-0.633301	11.950137	34.363522	125.487992
18571		-5.645156	1.591636	8.044889	-0.027927	0.015375	-0.015157	-0.873535	-0.038330	-0.624023	11.928446	34.374022	125.475938
18572		-5.628958	1.575560	8.033946	-0.024110	0.013151	-0.008535	-0.870361	-0.042480	-0.622803	11.912870	34.382684	125.468570
18573		-5.645889	1.573385	8.064204	-0.011721	0.011431	-0.002658	-0.880615	-0.038086	-0.631836	11.905023	34.389594	125.463738
18574		-5.695282	1.484649	8.037457	-0.010812	0.012830	-0.000372	-0.870361	-0.043945	-0.632568	11.900169	34.397110	125.461867
18575		-5.626432	1.459152	8.014424	-0.008976	0.004079	0.002196	-0.877441	-0.033203	-0.635010	11.895115	34.399300	125.459786
18576		-5.647062	1.542608	8.043878	-0.007097	0.000036	0.001065	-0.876221	-0.043457	-0.616943	11.891906	34.399473	125.457057
18577		-5.669306	1.596604	7.994424	-0.009465	-0.007104	0.003746	-0.875244	-0.029785	-0.624756	11.886261	34.395154	125.454220
18578		-5.585106	1.657237	8.000194	-0.006170	-0.010114	0.001344	-0.877686	-0.039795	-0.633057	11.882870	34.389603	125.450230
18579		-5.463974	1.720505	8.063973	-0.010958	-0.002446	-0.001862	-0.880127	-0.033691	-0.628906	11.874538	34.388571	125.444630
18580		-5.556948	1.559711	8.111023	-0.009662	-0.000431	-0.006314	-0.873291	-0.037354	-0.628174	11.866989	34.389351	125.436822
18581		-5.620436	1.370435	8.017335	-0.004668	0.000338	-0.007322	-0.875488	-0.032471	-0.622559	11.860413	34.390509	125.427836
18582		-5.561344	1.614889	8.090204	0.010615	0.006539	0.004905	-0.881104	-0.042480	-0.628174	11.869350	34.393875	125.428646
18583		-5.562728	1.644596	8.108959	0.012476	0.014046	0.005783	-0.875244	-0.035889	-0.627930	11.878770	34.401140	125.430227
18584		-5.574064	1.728190	7.987173	0.010416	0.019562	0.002141	-0.873047	-0.037842	-0.627686	11.887585	34.412132	125.431022
18585		-5.557461	1.801853	8.093581	0.004496	0.022594	-0.004429	-0.879150	-0.037354	-0.627930	11.889184	34.425470	125.427050
18586		-5.591390	1.685763	8.015757	-0.001424	0.025627	-0.011000	-0.875488	-0.042969	-0.634277	11.886656	34.441414	125.419782
18587		-5.554569	1.559673	7.955001	0.004331	0.018867	-0.003913	-0.874512	-0.036133	-0.627686	11.888104	34.452554	125.415673
18588		-5.716376	1.426277	8.082686	0.012211	0.027562	0.001425	-0.872314	-0.028076	-0.618164	11.898323	34.468117	125.417130
18589		-5.610586	1.644947	8.042716	0.018023	0.020312	0.010105	-0.871582	-0.041016	-0.622314	11.913056	34.478418	125.422720
18590		-5.474651	1.654568	8.034814	0.020729	0.029710	0.011673	-0.877930	-0.029541	-0.624023	11.932282	34.493971	125.431465
18591		-5.550562	1.780849	8.093391	0.022630	0.041927	0.008842	-0.870850	-0.039795	-0.627686	11.950989	34.516509	125.439176
18592		-5.737094	1.616754	8.051596	0.013194	0.044732	0.003586	-0.874023	-0.039795	-0.629395	11.964020	34.541437	125.444600
18593		-5.667669	1.566103	8.066642	0.017569	0.041651	0.008247	-0.873535	-0.043213	-0.631592	11.979624	34.563954	125.451936
18594		-5.677788	1.694495	8.062061	0.016603	0.040742	0.004364	-0.866943	-0.039063	-0.630615	11.994596	34.586552	125.457332
18595		-5.713773	1.637117	8.022222	0.012128	0.034409	0.007101	-0.876221	-0.040527	-0.631104	12.006058	34.605186	125.462924
18596		-5.680443	1.583140	7.979788	0.010946	0.030260	0.002151	-0.874268	-0.035645	-0.624268	12.016081	34.622172	125.465307
18597		-5.685450	1.698495	8.055816	0.013330	0.027006	0.010053	-0.872559	-0.050293	-0.626221	12.028766	34.636182	125.471896
18598		-5.687406	1.656512	7.995213	0.009829	0.020425	0.004089	-0.876465	-0.045166	-0.624023	12.038093	34.647424	125.474180
18599		-5.651445	1.588665	7.973732	0.008466	0.018904	0.006949	-0.875244	-0.033203	-0.627686	12.046277	34.657294	125.476759
18600		-5.635643	1.691615	8.099653	0.008522	0.018414	0.008539	-0.870605	-0.035645	-0.626221	12.056417	34.666877	125.481787
18601		-5.693076	1.673492	7.971466	0.007674	0.016524	0.007843	-0.871338	-0.041504	-0.628174	12.064109	34.675293	125.485563
18602		-5.518373	1.714300	8.101929	0.007204	0.026797	0.002393	-0.876221	-0.037598	-0.616699	12.071810	34.690307	125.487629
18603		-5.670731	1.607851	8.098332	0.000323	0.030076	0.004507	-0.870850	-0.042480	-0.625244	12.075234	34.706686	125.490546
18604		-5.809571	1.500718	8.004222	0.006846	0.030896	0.005421	-0.868164	-0.041260	-0.632568	12.084250	34.723633	125.495279
18605		-5.791574	1.490211	8.051813	0.017852	0.022461	0.019493	-0.873779	-0.032227	-0.634766	12.102884	34.734060	125.507513
18606		-5.730662	1.623277	8.045497	0.020527	0.015600	0.022777	-0.868164	-0.040283	-0.625977	12.125213	34.740350	125.521853
18607		-5.757487	1.736353	7.973372	0.015476	0.015324	0.022179	-0.865723	-0.050537	-0.625732	12.142849	34.746409	125.535345
18608		-5.673206	1.785635	7.998081	0.007095	0.012192	0.015098	-0.869141	-0.035889	-0.624268	12.154221	34.751708	125.543957
18609		-5.691341	1.799585	8.007961	-0.006606	0.006033	0.004767	-0.875732	-0.045410	-0.625244	12.151806	34.754728	125.543444
18610		-5.755449	1.682352	7.992601	-0.014659	0.005163	0.001934	-0.876709	-0.045166	-0.629639	12.145010	34.757678	125.542051
18611		-5.699935	1.613692	8.001754	-0.014358	0.001553	-0.002686	-0.865723	-0.041260	-0.621094	12.134929	34.758941	125.535924
18612		-5.666148	1.642784	8.020108	-0.016462	-0.002835	0.002663	-0.866699	-0.047119	-0.622314	12.126714	34.757322	125.533854
18613		-5.700470	1.639922	8.021789	-0.014770	0.000946	0.004051	-0.872314	-0.040039	-0.621582	12.118970	34.757597	125.531854
18614		-5.735408	1.622268	7.984001	-0.018621	-0.006733	0.006418	-0.872803	-0.051025	-0.627930	12.110653	34.753343	125.531774
18615		-5.701688	1.680139	8.022223	-0.017039	-0.007171	0.009922	-0.865479	-0.041992	-0.624023	12.103229	34.748267	125.532752
18616		-5.749749	1.619887	8.016210	-0.021900	-0.015271	0.006819	-0.872314	-0.041504	-0.632324	12.092479	34.739181	125.531700
18617		-5.735860	1.674704	7.966261	-0.024387	-0.021430	0.006323	-0.869141	-0.039307	-0.632568	12.078187	34.726632	125.528553
18618		-5.697906	1.660833	7.986836	-0.030561	-0.026342	0.002370	-0.866211	-0.034424	-0.629150	12.059832	34.711876	125.522860
18619		-5.731615	1.670058	7.970290	-0.036792	-0.030762	-0.003176	-0.876221	-0.041016	-0.624268	12.033909	34.695266	125.512338
18620		-5.709007	1.611497	7.963122	-0.036390	-0.040547	0.000670	-0.873291	-0.037598	-0.625977	12.010394	34.672748	125.503442
18621		-5.701909	1.552962	7.986763	-0.035271	-0.041110	0.009313	-0.875732	-0.042725	-0.628174	11.989444	34.648708	125.499484
18622		-5.684026	1.636746	8.017870	-0.033340	-0.050846	0.015065	-0.872803	-0.037354	-0.620361	11.972425	34.618701	125.498929
18623		-5.661284	1.636097	8.050455	-0.036980	-0.050085	0.013195	-0.868652	-0.037109	-0.628174	11.951298	34.589199	125.496210
18624		-5.617404	1.566103	8.093039	-0.031765	-0.046083	0.013262	-0.876953	-0.043701	-0.627686	11.934887	34.562076	125.495139
18625		-5.617905	1.649050	8.094922	-0.025811	-0.044413	0.016135	-0.877197	-0.042725	-0.623047	11.921756	34.535468	125.495411
18626		-5.616637	1.646918	8.038088	-0.025872	-0.043920	0.014539	-0.871338	-0.038818	-0.624268	11.909401	34.509405	125.495536
18627		-5.747350	1.539837	8.008349	-0.020483	-0.041396	0.019377	-0.874023	-0.036133	-0.627686	11.900868	34.484071	125.498175
18628		-5.675911	1.557690	7.988055	-0.005774	-0.051124	0.036848	-0.880371	-0.034180	-0.621582	11.908033	34.451333	125.512443
18629		-5.599711	1.563637	8.047688	-0.007825	-0.050805	0.038483	-0.875977	-0.037354	-0.626953	11.913243	34.418421	125.527163
18630		-5.572103	1.482727	8.080690	0.003417	-0.050841	0.048291	-0.880371	-0.042969	-0.624268	11.930063	34.384484	125.549224
18631		-5.570514	1.513779	8.043191	0.010400	-0.048767	0.056617	-0.882080	-0.038818	-0.632813	11.952858	34.350581	125.576238
18632		-5.574726	1.644031	7.984365	0.018515	-0.048407	0.061007	-0.872314	-0.040527	-0.620850	11.983343	34.316482	125.607228
18633		-5.558388	1.662884	7.876116	0.023916	-0.044746	0.078396	-0.870850	-0.037842	-0.622559	12.022450	34.282259	125.649640
18634		-5.662586	1.173285	7.990657	0.049585	-0.050931	0.110235	-0.872803	-0.039063	-0.628418	12.089238	34.240816	125.713550
18635		-5.600317	1.233610	8.138844	0.095821	-0.047474	0.155887	-0.884521	-0.042236	-0.624268	12.198662	34.195772	125.807884
18636		-5.570748	1.449582	8.095740	0.119679	-0.046536	0.174099	-0.874268	-0.038330	-0.626465	12.330025	34.148824	125.915409
18637		-5.647269	1.618554	7.938461	0.126606	-0.056485	0.181886	-0.888672	-0.041504	-0.632080	12.465854	34.095071	126.025617
18638		-5.740090	1.479389	7.867982	0.141852	-0.068044	0.200373	-0.879639	-0.039307	-0.622070	12.617647	34.032395	126.147235
18639		-5.611104	1.507106	7.834715	0.154984	-0.103339	0.219659	-0.876709	-0.034912	-0.621582	12.779455	33.947183	126.275525
18640		-5.448889	1.793074	7.914821	0.162988	-0.115492	0.225023	-0.880371	-0.047119	-0.624756	12.947889	33.854294	126.405781
18641		-5.425582	2.072031	7.941896	0.145487	-0.121225	0.214394	-0.884766	-0.045410	-0.622559	13.099916	33.759340	126.526714
18642		-5.504299	1.965839	8.073972	0.110811	-0.130214	0.180348	-0.887695	-0.033936	-0.624756	13.219704	33.663509	126.623832
18643		-5.793511	1.763649	8.101617	0.100639	-0.137990	0.175051	-0.876953	-0.042969	-0.619141	13.329208	33.563827	126.715349
18644		-5.719651	1.729733	8.215784	0.103251	-0.141860	0.163553	-0.895020	-0.049072	-0.620117	13.436793	33.463417	126.798715
18645		-5.651440	1.778513	8.268005	0.111178	-0.142282	0.153653	-0.890381	-0.039551	-0.625244	13.543560	33.364011	126.873991
18646		-5.521033	1.983052	8.271413	0.126018	-0.134060	0.141949	-0.897949	-0.041016	-0.623291	13.656381	33.270594	126.943573
18647		-5.289785	2.301947	8.283679	0.112730	-0.117187	0.114871	-0.895264	-0.033936	-0.623535	13.751446	33.190071	126.997426
18648		-5.258624	2.174935	8.280061	0.093055	-0.096392	0.083316	-0.889404	-0.044678	-0.624512	13.826992	33.125428	127.033685
18649		-5.279924	1.945106	8.272248	0.082236	-0.077623	0.058867	-0.897217	-0.043457	-0.619629	13.887524	33.074544	127.056686
18650		-5.352949	1.713930	8.297265	0.084704	-0.064927	0.049249	-0.899658	-0.041504	-0.619873	13.948604	33.032027	127.075298
18651		-5.473125	1.748326	8.235812	0.107099	-0.043302	0.064926	-0.892090	-0.051758	-0.616699	14.028600	32.999196	127.107471
18652		-5.299227	1.891502	8.220583	0.116171	-0.034214	0.075450	-0.896240	-0.055908	-0.613770	14.119836	32.970055	127.148392
18653		-5.257603	2.311312	8.132673	0.106040	-0.007709	0.065584	-0.891846	-0.048096	-0.619385	14.202782	32.956959	127.185744
18654		-5.169447	2.195225	8.099657	0.075505	0.004645	0.040870	-0.896973	-0.042236	-0.615723	14.261740	32.954176	127.210192
18655		-5.145038	2.424358	8.007980	0.041318	0.018253	0.012794	-0.893311	-0.053955	-0.615967	14.290793	32.962851	127.217903
18656		-5.245273	2.313059	8.056856	0.005671	0.023486	-0.018022	-0.895020	-0.044434	-0.615723	14.290262	32.978837	127.206552
18657		-5.176495	2.185798	8.055677	-0.013628	0.028380	-0.037163	-0.898193	-0.045898	-0.612793	14.270888	33.000177	127.182564
18658		-5.351506	2.207222	8.084588	-0.037406	0.033956	-0.047874	-0.893555	-0.047363	-0.620605	14.235848	33.026183	127.153187
18659		-5.440325	2.100714	8.082473	-0.042100	0.042127	-0.052645	-0.892090	-0.051758	-0.614258	14.195765	33.057237	127.121489
18660		-5.458588	1.981096	8.096444	-0.054057	0.031050	-0.060634	-0.894043	-0.057373	-0.613037	14.146244	33.083382	127.083103
18661		-5.400170	2.099648	8.027301	-0.051360	0.036229	-0.057063	-0.899414	-0.048828	-0.618164	14.098835	33.111796	127.046538
18662		-5.453630	2.020690	8.042188	-0.061313	0.032632	-0.064271	-0.901123	-0.045410	-0.623047	14.043907	33.139272	127.005923
18663		-5.429069	2.066129	7.958404	-0.069361	0.024009	-0.069441	-0.890381	-0.050537	-0.610840	13.980354	33.162369	126.960114
18664		-5.415772	2.112728	7.966011	-0.088661	0.015451	-0.084242	-0.903076	-0.043945	-0.616699	13.900866	33.182969	126.903301
18665		-5.514468	1.902131	8.019728	-0.100935	0.008974	-0.090870	-0.891602	-0.048340	-0.623291	13.810085	33.200568	126.840117
18666		-5.511279	1.877617	8.101344	-0.099273	0.000238	-0.088330	-0.889404	-0.052734	-0.621826	13.721588	33.213115	126.778009
18667		-5.443021	1.825084	8.099865	-0.085399	0.005828	-0.076708	-0.895508	-0.050537	-0.622559	13.644532	33.227126	126.723831
18668		-5.268345	1.750167	8.131938	-0.068946	0.010178	-0.068687	-0.895996	-0.048584	-0.623535	13.581399	33.242419	126.676343
18669		-4.926174	1.837272	8.167486	-0.052538	0.048348	-0.063777	-0.892090	-0.038574	-0.614502	13.531568	33.278121	126.637629
18670		-5.201829	1.611795	8.187888	-0.032861	0.075616	-0.063746	-0.891602	-0.054199	-0.617676	13.496590	33.329140	126.603850
18671		-5.479914	1.808830	8.103838	-0.001163	0.100035	-0.049684	-0.890137	-0.046875	-0.622559	13.485785	33.391694	126.582386
18672		-5.539932	1.719594	8.073723	0.004578	0.105310	-0.042324	-0.889893	-0.052246	-0.620605	13.482650	33.456381	126.567582
18673		-5.536336	1.802111	8.034474	0.011412	0.108829	-0.038879	-0.891846	-0.047852	-0.616455	13.483758	33.522448	126.554805
18674		-5.418511	2.170348	8.030219	-0.009353	0.112720	-0.056898	-0.895020	-0.046875	-0.619385	13.467863	33.593207	126.531410
18675		-5.296166	2.450764	8.089134	-0.075919	0.116195	-0.101827	-0.889893	-0.047607	-0.617920	13.396180	33.671565	126.477580
18676		-5.488546	2.063026	8.055665	-0.116150	0.113416	-0.141173	-0.883301	-0.051514	-0.623291	13.287622	33.753809	126.397573
18677		-5.365838	1.584939	8.026965	-0.101536	0.119689	-0.141369	-0.890137	-0.052979	-0.624512	13.186527	33.839288	126.317219
18678		-5.021310	1.637839	7.951312	-0.075596	0.143124	-0.136758	-0.888916	-0.048340	-0.624023	13.104975	33.937304	126.244339
18679		-4.535695	1.975730	8.198986	-0.040292	0.213330	-0.130241	-0.885498	-0.049805	-0.622803	13.050843	34.073275	126.185722
18680		-4.535277	2.306906	8.238110	-0.035661	0.301021	-0.154131	-0.881592	-0.042725	-0.625732	12.998860	34.261547	126.125274
18681		-5.317212	1.982546	8.184436	-0.049846	0.368921	-0.184575	-0.872803	-0.038086	-0.624756	12.931498	34.491210	126.053810
18682		-5.872563	1.172376	8.165389	-0.018372	0.389468	-0.173561	-0.877441	-0.041260	-0.626953	12.888917	34.731264	125.993156
18683		-5.793656	1.439639	8.260253	0.029999	0.420251	-0.133237	-0.862305	-0.041504	-0.622314	12.890728	34.982980	125.964335
18684		-5.696419	1.847741	8.150152	0.037175	0.444477	-0.139191	-0.864990	-0.048340	-0.622803	12.897717	35.249348	125.935291
18685		-5.752338	1.798692	8.095006	0.033582	0.469561	-0.146073	-0.868408	-0.048828	-0.630615	12.900772	35.530350	125.904502
18686		-5.785030	1.991049	8.111197	0.021452	0.493461	-0.166525	-0.854736	-0.043701	-0.629395	12.891945	35.827572	125.864184
18687		-5.882949	1.655328	8.070902	0.025344	0.518625	-0.179735	-0.848877	-0.057129	-0.635010	12.880723	36.140119	125.818035
18688		-5.397249	2.117947	8.298995	0.027276	0.574292	-0.187248	-0.840332	-0.047852	-0.632080	12.873686	36.485124	125.775713
18689		-5.669572	2.293059	8.221787	0.000258	0.647356	-0.224300	-0.835449	-0.045654	-0.631836	12.841065	36.875501	125.717956
18690		-5.276767	2.167101	8.385824	-0.022833	0.741333	-0.272350	-0.838379	-0.049072	-0.637939	12.784387	37.324606	125.641711
18691		-5.519039	1.748851	8.522044	-0.019855	0.861851	-0.334197	-0.829590	-0.043945	-0.635742	12.712025	37.848423	125.539511
18692		-5.441823	1.290957	8.523431	0.073381	1.045601	-0.371513	-0.820557	-0.058105	-0.635986	12.694568	38.479970	125.439341
18693		-5.137182	2.223564	9.025461	0.081601	1.229084	-0.394677	-0.808350	-0.052246	-0.629883	12.687072	39.216337	125.350248
18694		-5.322136	2.245025	8.981554	-0.005608	1.440615	-0.427456	-0.799072	-0.052002	-0.646240	12.635804	40.075675	125.271177
18695		-5.597997	1.950842	8.748171	-0.038636	1.658736	-0.455143	-0.776855	-0.049072	-0.633057	12.571984	41.059508	125.204526
18696		-5.666780	1.811418	8.898493	0.014732	1.873992	-0.475360	-0.759766	-0.049072	-0.645020	12.551584	42.167070	125.157492
18697		-5.742524	1.389179	8.555295	-0.012320	2.075411	-0.460102	-0.746826	-0.050049	-0.652100	12.543630	43.384765	125.154041
18698		-5.885973	1.180607	8.307756	0.054242	2.286025	-0.431388	-0.727539	-0.058838	-0.645996	12.616967	44.717262	125.211366
18699		-5.739360	1.604409	8.253111	0.059889	2.501961	-0.418539	-0.706543	-0.057617	-0.648682	12.730994	46.167792	125.321060
18700		-5.654449	1.235092	8.251354	0.032639	2.765855	-0.429668	-0.684326	-0.053955	-0.651855	12.867964	47.767995	125.479561
18701		-6.077987	1.794874	8.152986	0.062879	3.064701	-0.457892	-0.664063	-0.060303	-0.652832	13.058473	49.537064	125.683081
18702		-6.191479	1.694421	8.164824	0.046444	3.368377	-0.538301	-0.625244	-0.056152	-0.650879	13.252634	51.486891	125.897045
18703		-6.182165	1.836504	8.204392	0.113192	3.708911	-0.624039	-0.599609	-0.041748	-0.654297	13.502261	53.635634	126.127172
18704		-6.429237	2.506920	8.695181	0.104995	4.102002	-0.733909	-0.559082	-0.056641	-0.647705	13.767122	56.019166	126.374602
18705		-6.731520	2.303115	8.687047	0.051975	4.522289	-0.872559	-0.529053	-0.050537	-0.642578	14.001928	58.653544	126.620279
18706		-8.147192	2.366174	9.149561	0.047825	4.952823	-0.989666	-0.488037	-0.057617	-0.633057	14.276103	61.544245	126.902086
18707		-9.303476	3.132768	8.867687	-0.006092	5.304980	-1.121777	-0.443848	-0.046387	-0.626709	14.527868	64.644818	127.187545
18708		-11.611942	2.873529	8.996484	-0.037821	5.538806	-1.273970	-0.399658	-0.046387	-0.612061	14.718070	67.900219	127.416276
18709		-12.714410	2.632715	9.143690	0.062300	5.699838	-1.465235	-0.356689	-0.045166	-0.604004	14.791640	71.268001	127.458633
18710		-13.419272	2.663669	10.312518	0.158264	5.746268	-1.675433	-0.311523	-0.032227	-0.580566	14.567299	74.696594	127.126802
18711		-13.546782	3.332680	10.998819	0.252609	5.675391	-1.864051	-0.265137	-0.036377	-0.553223	13.684291	78.103241	126.072251
18712		-13.656433	3.781373	10.592140	0.242867	5.564428	-2.037552	-0.221680	-0.031494	-0.526123	11.312636	81.469649	123.519654
18713		-14.618028	3.608430	9.935808	0.227975	5.362444	-2.179047	-0.183350	-0.022461	-0.507813	4.774150	84.688764	116.800662
18714		-12.737094	3.962060	7.806748	0.289905	5.103411	-2.223195	-0.145752	-0.011963	-0.472412	-19.113312	87.491995	92.697187
18715		-11.088375	4.166363	5.977597	0.254872	4.883682	-2.406861	-0.111328	-0.000732	-0.456543	-100.787146	87.760867	10.825923
18716		-10.252422	2.315303	4.197982	0.171736	4.483062	-2.608149	-0.079102	0.010498	-0.420410	-128.849664	85.248256	-17.381297
18717		-6.878164	1.132859	8.521282	0.337217	3.532486	-2.576357	-0.057373	0.023193	-0.403076	-133.813714	82.802574	-22.568576
18718		-25.733481	1.237102	20.250430	1.254815	1.734094	-2.303182	-0.046631	0.027344	-0.398926	-131.877952	81.157437	-21.342347
18719		-18.493956	6.757437	18.810772	1.251625	-0.677975	-1.955317	-0.038330	0.038086	-0.391846	-124.912688	80.522677	-15.017328
18720		-3.220289	8.994722	11.456953	0.949053	-1.894176	-1.640445	-0.049561	0.041016	-0.409424	-116.008277	80.259671	-6.540629
18721		-2.424147	7.165110	8.134759	0.447043	-2.367423	-1.346698	-0.059570	0.045654	-0.411133	-106.800300	80.038010	2.540532
18722		-1.142589	6.705644	6.319665	0.164983	-2.467813	-0.936281	-0.072021	0.046143	-0.427490	-98.264007	79.817831	11.111492
18723		-0.247853	6.645783	5.089510	-0.083480	-2.474995	-0.481439	-0.079102	0.055420	-0.442627	-90.331957	79.649342	19.216268
18724		-0.999660	6.234006	5.399999	-0.293799	-2.550283	-0.006278	-0.083984	0.056396	-0.461182	-82.544970	79.551879	27.301586
18725		-1.827091	5.233705	6.032324	-0.407459	-2.703675	0.502421	-0.107178	0.056396	-0.474121	-74.187215	79.520013	36.032780
18726		-2.708081	3.918934	6.610691	-0.385354	-2.951245	0.997633	-0.117188	0.045898	-0.495605	-64.781094	79.459748	45.820753
18727		-4.107098	2.904292	7.304358	-0.259093	-3.296730	1.428259	-0.142090	0.038818	-0.515137	-54.022322	79.197180	56.913752
18728		-5.251174	2.254960	7.590723	-0.102090	-3.694652	1.724195	-0.168213	0.035645	-0.540283	-42.699023	78.523190	68.510003
18729		-5.871694	1.477053	7.582682	0.066452	-4.088242	1.874146	-0.197998	0.018799	-0.569824	-31.986541	77.299116	79.419311
18730		-5.882711	0.554103	7.173626	0.260169	-4.436527	1.899925	-0.223389	0.011475	-0.586670	-22.980566	75.539370	88.526363
18731		-5.275520	-0.307758	6.516900	0.512683	-4.681182	1.853299	-0.261475	-0.009766	-0.608887	-15.859620	73.348801	95.605909
18732		-4.703819	-0.602013	5.789751	0.766290	-4.762278	1.791022	-0.300781	-0.020020	-0.631592	-10.400219	70.921217	100.876445
18733		-4.563014	-0.419762	5.549050	0.952900	-4.685718	1.698269	-0.343994	-0.027588	-0.647461	-6.199472	68.392620	104.767721
18734		-5.492804	-0.044920	5.838228	1.042269	-4.560685	1.587964	-0.394775	-0.050293	-0.664307	-2.961368	65.859259	107.630537
18735		-6.190133	0.157268	6.360529	1.050863	-4.446854	1.519450	-0.428223	-0.053467	-0.676270	-0.364068	63.325779	109.833138
18736		-7.064645	-0.023570	6.994024	1.044776	-4.349648	1.540170	-0.481934	-0.066162	-0.691895	1.836280	60.821922	111.642678
18737		-7.834662	0.099486	7.638914	0.998932	-4.272093	1.644035	-0.523438	-0.081055	-0.693359	3.810364	58.318779	113.262092
18738		-8.224916	-0.064617	8.156878	0.878532	-4.175145	1.765684	-0.580566	-0.094971	-0.690674	5.567587	55.851638	114.752382
18739		-8.573850	-0.523941	8.626873	0.743449	-4.051024	1.856638	-0.615479	-0.102783	-0.698486	7.125532	53.415129	116.134235
18740		-9.046209	-0.573626	9.258528	0.644252	-3.904046	1.887187	-0.662109	-0.102539	-0.694336	8.484234	51.052111	117.382656
18741		-10.074105	-0.414652	10.175620	0.548649	-3.758910	1.850116	-0.698730	-0.100342	-0.690430	9.641648	48.746243	118.478650
18742		-12.284922	0.180433	11.211600	0.453429	-3.714637	1.780150	-0.737549	-0.095459	-0.689697	10.591280	46.471971	119.409190
18743		-14.716473	0.498689	11.829300	0.325911	-3.821649	1.722993	-0.779297	-0.094238	-0.677979	11.338601	44.122554	120.191819
18744		-16.504771	-0.441071	11.360583	0.292417	-4.003536	1.752971	-0.820557	-0.099854	-0.672852	11.989070	41.673234	120.897556
18745		-17.664336	-0.596433	9.721177	0.424432	-4.149192	1.847404	-0.863281	-0.092529	-0.662842	12.681674	39.113142	121.584953
18746		-18.075901	0.379674	7.860182	0.533579	-4.147476	1.944858	-0.895508	-0.101563	-0.650146	13.414061	36.546887	122.276451
18747		-17.988847	1.195271	6.027897	0.548677	-3.939363	2.008248	-0.941162	-0.088379	-0.629150	14.140672	34.070115	122.983539
18748		-18.388965	1.749244	4.692350	0.494725	-3.578738	2.052200	-0.976318	-0.088135	-0.612793	14.829951	31.791086	123.725420
18749		-19.166025	1.490640	3.674416	0.421485	-3.210974	2.071790	-1.018799	-0.082764	-0.607666	15.468368	29.695716	124.495541
18750		-20.714735	0.493994	3.072567	0.401780	-2.885140	2.101275	-1.045166	-0.081055	-0.582520	16.088287	27.777998	125.300964
18751		-21.709168	-0.730386	2.405136	0.421148	-2.696124	2.134680	-1.073975	-0.079102	-0.576904	16.704331	25.943066	126.123859
18752		-21.859112	-1.193270	1.308325	0.369816	-2.599219	2.135773	-1.097412	-0.072266	-0.556641	17.261077	24.161834	126.932448
18753		-20.710226	-0.705917	-0.358562	0.123009	-2.539151	2.013148	-1.119141	-0.063232	-0.541992	17.618745	22.422366	127.652311
18754		-18.056447	-0.205421	-2.681546	-0.347776	-2.345033	1.737673	-1.149658	-0.046875	-0.524414	17.635702	20.840896	128.232324
18755		-15.305539	-1.896840	-4.873937	-0.791554	-1.915968	1.277349	-1.164063	-0.036865	-0.516357	17.318941	19.570013	128.621535
18756		-14.695878	-5.249075	-6.511738	-0.712131	-1.340636	0.777722	-1.177734	-0.028076	-0.507324	16.981487	18.705175	128.829495
18757		-14.470507	-6.587241	-7.278340	-0.096026	-0.743123	0.357113	-1.189697	-0.032959	-0.490479	16.951431	18.235793	128.901571
18758		-14.786235	-5.196770	-6.653873	0.551611	-0.193426	0.047332	-1.185303	-0.032227	-0.496826	17.266756	18.122424	128.891572
18759		-14.789157	-2.396355	-5.218930	0.817300	0.259044	-0.163897	-1.189453	-0.027588	-0.492188	17.721003	18.291401	128.840987
18760		-11.671355	8.754858	-3.372203	-0.793156	1.222900	-0.580906	-1.181641	-0.027832	-0.513428	17.231811	19.060229	128.725019
18761		3.271128	-1.795215	0.587116	-1.313529	1.785541	-1.308658	-1.161377	-0.034912	-0.519531	16.329348	20.256632	128.273270
18762		-8.260069	0.378616	14.542290	-0.925446	2.207692	-1.012036	-1.150879	-0.023682	-0.533936	15.720726	21.632941	128.047394
18763		0.552175	5.035698	15.022984	-0.864715	1.939448	-0.730325	-1.143311	-0.025635	-0.549072	15.182103	22.815845	127.928241
18764		-0.242571	2.147024	9.583583	-0.828463	2.336071	-0.742132	-1.128662	-0.022217	-0.568115	14.679849	24.219100	127.853186
18765		-1.319530	-0.874091	5.886553	-0.579319	2.995071	-0.658171	-1.101563	-0.022217	-0.580811	14.379080	25.974707	127.922082
18766		-8.999229	-1.878970	9.633203	-0.211994	3.362414	-0.288526	-1.078857	-0.013428	-0.597900	14.420602	27.882218	128.276657
18767		-14.851628	-1.515029	13.494459	-0.141113	3.063612	-0.343881	-1.058105	-0.012695	-0.609131	14.475296	29.631166	128.554861
18768		-15.130513	0.386639	13.839518	-0.103931	2.659117	-0.631744	-1.047119	-0.008789	-0.628174	14.433967	31.197250	128.586122
18769		-19.915430	11.138448	10.664928	-0.558663	1.719470	-0.643890	-1.026611	-0.013184	-0.630615	14.041853	32.243505	128.446534
18770		-13.565277	7.549625	6.997921	-0.662031	1.033353	-0.252587	-1.020264	-0.005371	-0.641357	13.663911	32.853371	128.444642
18771		-9.734225	-6.307340	11.043078	-0.755872	0.654481	-0.416097	-1.019043	-0.001953	-0.639893	13.136343	33.274761	128.267936
18772		-8.359515	-2.513843	10.346706	-0.224986	0.106387	-0.192896	-1.017334	0.001709	-0.643799	12.946229	33.359413	128.152144
18773		-6.627047	2.973752	7.796304	-0.105077	0.186921	-0.052061	-1.019043	-0.003174	-0.648438	12.881752	33.472025	128.141878
18774		-7.141701	0.019498	8.632021	-0.044194	0.071627	0.027342	-1.014648	0.005615	-0.640381	12.873099	33.508862	128.167744
18775		-6.314790	1.307436	8.360109	0.061299	0.018131	0.036719	-1.012207	0.001953	-0.641113	12.922413	33.515951	128.190993
18776		-6.072561	2.514018	8.057146	0.059749	0.003201	0.059324	-1.003418	-0.000732	-0.641113	12.979366	33.510445	128.227803
18777		-5.375604	2.182152	8.143571	0.017679	-0.006529	0.004953	-1.006104	-0.004883	-0.638184	12.989860	33.507867	128.225995
18778		-5.007934	2.870039	7.926497	-0.061171	0.010821	-0.066997	-1.006104	-0.003418	-0.652588	12.931468	33.522844	128.179380
18779		-5.109642	2.518420	8.052293	-0.140888	0.040947	-0.131465	-1.011963	0.000488	-0.638916	12.804694	33.564149	128.093468
18780		-5.368560	1.693838	8.153390	-0.164653	0.068745	-0.161345	-1.013184	-0.004883	-0.647217	12.656729	33.623254	127.992219
18781		-5.080461	1.547353	8.227115	-0.145057	0.108689	-0.158338	-1.012695	-0.009521	-0.639893	12.522879	33.705413	127.898077
18782		-5.451270	1.371418	8.307381	-0.099077	0.148739	-0.143722	-1.004639	0.004150	-0.643066	12.425170	33.806710	127.820085
18783		-5.935812	1.326558	8.210100	-0.048513	0.158694	-0.105530	-1.000732	-0.001953	-0.650391	12.369985	33.910058	127.768370
18784		-5.672988	1.448825	8.250023	0.002962	0.162716	-0.069121	-1.006592	0.000000	-0.652588	12.359549	34.009900	127.742363
18785		-5.449651	1.630377	8.211814	-0.002113	0.183892	-0.087056	-1.006348	0.000977	-0.648926	12.339703	34.125058	127.706601
18786		-5.463738	2.440189	8.096308	-0.048322	0.198284	-0.146569	-1.003662	-0.005371	-0.646973	12.273186	34.254248	127.633240
18787		-5.455045	2.468190	7.966271	-0.098402	0.216600	-0.201883	-1.004639	0.004639	-0.651123	12.156622	34.401544	127.523993
18788		-5.447880	1.910463	8.082085	-0.136785	0.219672	-0.243678	-1.001465	0.005127	-0.647461	12.003021	34.554120	127.386870
18789		-5.703766	1.333198	8.015175	-0.122132	0.224839	-0.240547	-0.990967	-0.001465	-0.652344	11.857413	34.710135	127.251211
18790		-5.668664	1.087910	7.990002	-0.085472	0.226154	-0.203042	-0.990479	0.009033	-0.650391	11.748163	34.861036	127.141356
18791		-5.346791	1.373291	8.150607	-0.056386	0.254101	-0.181884	-1.000000	-0.004395	-0.654053	11.664225	35.026208	127.048712
18792		-5.419047	1.837582	8.063551	-0.062492	0.278247	-0.188769	-0.992188	-0.004395	-0.660400	11.576892	35.204409	126.954970
18793		-5.789980	1.672942	7.895561	-0.079371	0.284547	-0.202903	-0.988525	0.002197	-0.654541	11.472826	35.388798	126.851089
18794		-5.969959	1.553806	7.752759	-0.069050	0.267867	-0.202217	-0.988525	-0.005859	-0.663086	11.374354	35.562430	126.745457
18795		-5.701778	1.712143	7.945261	-0.062846	0.251836	-0.198290	-0.988281	-0.001709	-0.656982	11.277749	35.727634	126.638999
18796		-5.881399	1.746057	8.004404	-0.069896	0.254219	-0.193357	-0.981445	-0.001465	-0.659668	11.180100	35.892315	126.536459
18797		-6.043366	1.711595	7.892389	-0.070456	0.246805	-0.192619	-0.978516	-0.000488	-0.656494	11.079903	36.053751	126.432124
18798		-6.085141	1.736234	7.849544	-0.073609	0.246342	-0.195143	-0.977051	-0.004150	-0.658447	10.977626	36.213906	126.326138
18799		-5.904967	1.835615	7.916568	-0.107335	0.245029	-0.229859	-0.975098	0.003418	-0.657227	10.839610	36.378060	126.194380
18800		-5.808347	2.236700	7.971061	-0.166654	0.247784	-0.284152	-0.975586	0.000488	-0.663086	10.645762	36.548104	126.024844
18801		-5.961260	1.929899	7.975557	-0.209708	0.254257	-0.328314	-0.971924	-0.004395	-0.667725	10.406837	36.727026	125.823266
18802		-6.038813	1.509399	7.956403	-0.221185	0.255180	-0.340531	-0.968262	-0.001221	-0.663330	10.156193	36.905902	125.612488
18803		-6.098554	1.454725	7.963307	-0.223252	0.267915	-0.344080	-0.958008	-0.001953	-0.666992	9.901107	37.092677	125.398607
18804		-5.977457	1.256820	7.887034	-0.211626	0.273974	-0.335734	-0.960449	0.006348	-0.677002	9.656487	37.280211	125.190536
18805		-5.837662	1.297580	8.015350	-0.190194	0.309492	-0.328413	-0.961914	-0.000488	-0.663330	9.427110	37.487518	124.989685
18806		-5.974313	1.031784	7.980722	-0.179215	0.335963	-0.318487	-0.956543	-0.004150	-0.658691	9.209960	37.707163	124.798140
18807		-5.978785	0.829848	8.046290	-0.148475	0.366497	-0.299120	-0.948486	-0.004883	-0.674316	9.018198	37.942832	124.621659
18808		-5.970587	0.929207	8.119079	-0.114680	0.399769	-0.273012	-0.959961	0.000488	-0.679443	8.859494	38.193532	124.466952
18809		-6.085687	1.101861	7.940166	-0.096498	0.433287	-0.263146	-0.942139	0.000732	-0.672607	8.715157	38.463036	124.320927
18810		-6.266567	1.170028	7.833101	-0.079526	0.460123	-0.261063	-0.945557	0.004395	-0.670410	8.583286	38.746274	124.178767
18811		-6.113050	1.105895	7.798990	-0.076837	0.494463	-0.258550	-0.940674	0.001465	-0.677002	8.453616	39.049492	124.039961
18812		-6.159954	0.673140	7.793062	-0.082968	0.540887	-0.235559	-0.928223	0.008057	-0.678467	8.334104	39.375878	123.922327
18813		-6.235227	0.398540	7.717837	-0.053758	0.591618	-0.202315	-0.923340	0.006104	-0.680420	8.247541	39.729077	123.832393
18814		-5.975877	0.589752	7.772219	-0.042637	0.649005	-0.166091	-0.929688	0.004150	-0.680176	8.188777	40.110803	123.775158
18815		-6.059124	0.598691	7.900137	-0.020688	0.724065	-0.129486	-0.915527	0.005859	-0.692139	8.163120	40.533012	123.751548
18816		-5.963135	0.788695	7.851057	0.004613	0.812507	-0.100588	-0.914795	-0.000732	-0.683350	8.173531	41.002097	123.759776
18817		-6.095985	1.057695	7.885115	0.003527	0.909555	-0.102127	-0.895020	0.010254	-0.690430	8.188099	41.527214	123.776585
18818		-6.241338	1.030675	7.839833	-0.001632	1.007620	-0.106453	-0.892090	0.008545	-0.692627	8.206632	42.107423	123.802190
18819		-6.196535	1.156443	7.940785	-0.019366	1.112073	-0.131311	-0.883789	-0.000732	-0.697021	8.208783	42.749700	123.819632
18820		-6.284424	1.050842	7.735157	-0.020306	1.206816	-0.166269	-0.879883	0.008545	-0.696045	8.200971	43.447761	123.821721
18821		-6.301781	1.243246	7.693176	-0.002201	1.313280	-0.201979	-0.867432	-0.003906	-0.700928	8.190730	44.209838	123.806582
18822		-6.453018	1.108030	7.756661	-0.001666	1.422414	-0.221458	-0.853027	0.002686	-0.714600	8.179909	45.034672	123.789128
18823		-6.315100	1.161199	7.669625	0.007071	1.552565	-0.230213	-0.841309	0.003418	-0.707275	8.177694	45.934663	123.778180
18824		-6.261425	1.132829	7.756119	0.018941	1.707456	-0.241048	-0.819092	0.001953	-0.709961	8.190624	46.922748	123.777742
18825		-6.180967	1.039582	7.820838	0.038661	1.892681	-0.257208	-0.813477	0.007568	-0.711914	8.220046	48.017704	123.785463
18826		-6.237810	1.251142	7.602364	0.046816	2.123425	-0.293706	-0.788818	-0.005371	-0.715088	8.254836	49.245986	123.792884
18827		-6.097469	0.981689	7.836158	0.079126	2.402760	-0.333849	-0.764893	-0.001465	-0.712646	8.308086	50.636303	123.801091
18828		-6.613669	0.844119	7.839347	0.114415	2.702988	-0.361425	-0.747559	-0.007324	-0.721191	8.397638	52.198752	123.828718
18829		-6.605538	0.981329	7.904991	0.113786	3.015579	-0.395865	-0.721924	-0.009033	-0.719238	8.498718	53.941375	123.871499
18830		-6.452280	1.336362	8.262829	0.080473	3.392016	-0.453717	-0.699951	-0.014160	-0.725342	8.588217	55.902017	123.921581
18831		-6.558189	1.591786	8.455198	0.064261	3.829907	-0.540748	-0.651855	-0.015137	-0.728516	8.655780	58.118033	123.956129
18832		-7.027139	1.869160	8.555568	0.033548	4.281216	-0.667157	-0.618896	-0.008545	-0.723145	8.657895	60.600691	123.933465
18833		-7.432768	2.106305	8.654109	-0.015434	4.794082	-0.809474	-0.587402	-0.003906	-0.721436	8.554294	63.385601	123.824038
18834		-8.687700	2.075262	9.075654	-0.050396	5.322082	-0.947838	-0.539551	-0.004883	-0.721924	8.330270	66.481724	123.606042
18835		-10.471819	2.487853	9.354712	0.003362	5.799198	-1.104130	-0.485107	-0.008057	-0.710693	7.934555	69.859682	123.175667
18836		-12.013755	2.584797	9.567192	-0.001493	6.127734	-1.317580	-0.435059	-0.009033	-0.698486	7.050925	73.439246	122.243530
18837		-14.509789	1.516530	9.863887	0.204449	6.333235	-1.510065	-0.378906	0.000488	-0.680664	5.375258	77.139253	120.388579
18838		-16.155226	2.218357	10.995274	0.515267	6.296149	-1.695550	-0.339111	-0.003906	-0.664551	1.847658	80.802657	116.493315
18839		-16.112697	3.639777	12.107777	0.722911	6.181988	-1.935608	-0.283936	-0.000732	-0.642578	-7.604991	84.294907	106.544855
18840		-15.549292	4.338460	12.083311	0.802763	6.033328	-2.158011	-0.240723	0.000000	-0.618408	-41.543239	87.046410	72.060851
18841		-14.879731	4.608869	10.970336	0.806415	5.838764	-2.356709	-0.205078	0.000977	-0.594238	-108.513348	86.512551	4.542771
18842		-13.920491	4.355419	9.904990	0.690760	5.610422	-2.525821	-0.154785	0.001709	-0.570068	-131.916442	83.578643	-19.337718
18843		-9.688148	4.220499	7.722724	0.595270	5.339619	-2.669489	-0.130615	0.004883	-0.536377	-139.008700	80.319834	-26.844889
18844		-8.215032	2.347201	3.742664	0.550553	4.855698	-2.875221	-0.096436	0.021973	-0.514893	-141.279065	77.125977	-29.483091
18845		-5.426275	-6.398287	8.492218	1.230848	4.041226	-2.802740	-0.067871	0.022949	-0.492920	-141.317405	74.317694	-30.253566
18846		-40.894556	2.271072	24.099987	2.777484	1.979516	-2.464143	-0.063965	0.018799	-0.479980	-138.538314	72.539270	-29.017176
18847		-19.025156	11.828166	19.408719	2.415917	-1.223383	-1.930300	-0.084473	0.009277	-0.497314	-133.089469	72.274971	-24.757403
18848		-7.250965	13.801659	13.189104	1.311236	-2.840640	-1.492354	-0.114990	-0.000732	-0.514404	-126.637146	72.660379	-18.781734
18849		-4.314713	10.211664	8.658659	0.267112	-3.595864	-0.894921	-0.157471	-0.000977	-0.535400	-119.892394	73.367926	-11.894850
18850		-0.855319	8.216444	5.370041	-0.254724	-3.722851	-0.161108	-0.197021	0.002686	-0.564941	-113.317411	74.239822	-4.899515
18851		0.970550	7.049502	3.280767	-0.539650	-3.598866	0.574068	-0.240967	-0.012451	-0.585449	-106.898896	75.263592	2.067854
18852		0.191794	6.092178	3.179586	-0.733699	-3.472130	1.235480	-0.295410	-0.013428	-0.607910	-100.303010	76.419000	9.300575
18853		-0.956390	5.003115	3.933918	-0.853056	-3.433089	1.771786	-0.340088	-0.020264	-0.627686	-92.749908	77.656740	17.546511
18854		-2.432109	3.600814	4.571560	-0.909590	-3.559806	2.149516	-0.402100	-0.016357	-0.641357	-83.258379	78.818236	27.769945
18855		-3.897733	2.180120	5.454347	-0.862695	-3.817101	2.351685	-0.479004	-0.013672	-0.656006	-70.871260	79.646401	40.874930
18856		-6.041682	1.022419	6.226902	-0.696025	-4.196265	2.390808	-0.551270	-0.020264	-0.654785	-55.989637	79.794825	56.399225
18857		-6.547280	-0.175049	6.331410	-0.466170	-4.628472	2.298629	-0.625488	-0.012207	-0.654785	-40.881852	79.007443	72.032346
18858		-6.558620	-1.687033	5.950915	-0.089001	-4.981301	2.108644	-0.698486	-0.000732	-0.646729	-28.419509	77.334380	84.811181
18859		-6.709684	-2.728939	5.634234	0.453014	-5.282983	1.908656	-0.787598	0.014404	-0.617920	-19.106992	74.987260	94.126478
18860		-6.367720	-2.728838	5.046702	1.012935	-5.448717	1.713158	-0.863770	0.009033	-0.579834	-12.430237	72.244433	100.475910
18861		-6.546868	-1.699314	4.761854	1.441067	-5.468696	1.526258	-0.923828	0.019531	-0.528320	-7.561442	69.297243	104.750807
18862		-6.899211	-0.640374	4.690531	1.639678	-5.381045	1.354349	-0.977539	0.026367	-0.473877	-3.973980	66.306264	107.606873
18863		-6.834363	-0.321788	4.324852	1.695042	-5.174760	1.242805	-1.015625	0.025879	-0.417969	-1.195682	63.364464	109.596997
18864		-6.575208	-0.263321	4.131842	1.690602	-4.829642	1.259331	-1.047119	0.018555	-0.360352	1.129442	60.597179	111.130171
18865		-7.315853	0.249410	5.049107	1.580664	-4.386344	1.419422	-1.076904	0.019287	-0.310791	3.249118	58.042932	112.535350
18866		-8.925620	0.458543	6.404519	1.362689	-4.011082	1.660977	-1.094971	0.030029	-0.247803	5.221965	55.680483	113.955652
18867		-10.038521	0.511842	7.932534	1.115051	-3.761107	1.904187	-1.099121	0.036865	-0.174316	7.065032	53.409311	115.427440
18868		-10.658842	0.325743	9.434522	0.881879	-3.600255	2.057591	-1.097168	0.047852	-0.100830	8.714076	51.204144	116.869459
18869		-12.548148	-0.194110	10.890661	0.767431	-3.522384	2.083281	-1.056641	0.069336	-0.048828	10.169886	49.005672	118.187354
18870		-15.507417	-0.058604	12.031975	0.744899	-3.646547	2.025693	-1.008057	0.077881	-0.001465	11.423865	46.736050	119.299158
18871		-17.042820	0.832420	12.098024	0.697518	-3.930667	1.900077	-0.949707	0.070801	0.018066	12.436789	44.295933	120.152328
18872		-17.937265	1.996454	11.579311	0.591460	-4.218538	1.786858	-0.897217	0.065674	0.017578	13.206323	41.712246	120.779976
18873		-18.558245	2.774046	10.246591	0.441306	-4.387021	1.784192	-0.850342	0.054932	0.003418	13.807523	39.018349	121.311195
18874		-18.413801	2.135074	8.263318	0.371490	-4.399530	1.973659	-0.836182	0.041748	-0.017334	14.393160	36.298410	121.917210
18875		-18.313167	1.031611	6.687926	0.481572	-4.239269	2.302354	-0.827881	0.016113	-0.045166	15.130564	33.603326	122.715457
18876		-18.251248	1.072658	5.703046	0.582599	-3.985628	2.621509	-0.825928	0.014160	-0.063721	15.992620	31.000869	123.699111
18877		-18.184448	1.055420	4.914100	0.513573	-3.670149	2.832293	-0.829590	-0.002197	-0.082520	16.839394	28.516134	124.804507
18878		-18.164793	0.345367	4.056653	0.300647	-3.339785	2.939289	-0.845459	-0.011475	-0.089111	17.552320	26.190675	125.975659
18879		-18.252797	-0.657716	3.144275	0.054255	-3.007941	2.992395	-0.857178	-0.022217	-0.105713	18.102936	24.017536	127.192217
18880		-19.419679	-1.149248	2.373544	-0.249015	-2.743325	2.959543	-0.870605	-0.028076	-0.118164	18.435984	21.993882	128.403145
18881		-18.750667	-1.277101	0.701261	-0.627425	-2.558625	2.810282	-0.886719	-0.022217	-0.135010	18.487104	20.087579	129.538909
18882		-17.492626	-1.778750	-1.806920	-0.996856	-2.311640	2.469139	-0.900879	-0.024658	-0.138672	18.240259	18.385404	130.516022
18883		-16.876422	-4.768183	-4.151751	-1.128768	-1.989788	1.985085	-0.908936	-0.020752	-0.144287	17.827039	16.945157	131.277439
18884		-17.003915	-8.739413	-6.670358	-0.598217	-1.608855	1.492128	-0.926270	-0.020264	-0.144043	17.642626	15.807286	131.830563
18885		-15.916601	-9.803558	-8.336025	0.362992	-1.093556	1.055325	-0.922363	-0.021973	-0.137939	17.957611	15.023655	132.225875
18886		-15.170137	-6.844430	-8.408209	1.012315	-0.446599	0.665269	-0.931396	-0.017334	-0.147705	18.613917	14.661683	132.514332
18887		-14.820116	-2.534943	-7.134815	0.878156	0.218423	0.251113	-0.929199	-0.020508	-0.145508	19.163938	14.733160	132.693736
18888		-13.906815	2.922454	-5.994593	-0.432344	1.384220	-0.649611	-0.913086	-0.018311	-0.153809	18.892564	15.604892	132.594188
18889		-1.071588	-4.669878	-2.339378	-0.444507	2.190748	-1.623543	-0.914063	-0.015625	-0.164063	18.498089	17.093252	132.092096
18890		-6.882461	4.040011	13.398060	-0.515080	2.394430	-1.768395	-0.895020	-0.020020	-0.176270	18.032494	18.714190	131.529899
18891		-2.975755	9.575601	17.308018	-0.712059	1.940880	-1.640995	-0.888916	-0.023926	-0.186768	17.428780	20.061110	130.936239
18892		-0.585475	7.933750	9.416678	-0.802371	2.211534	-1.348204	-0.878662	-0.020264	-0.190186	16.831850	21.500068	130.542872
18893		-0.416271	5.909477	5.447312	-0.665584	3.023589	-0.732476	-0.875977	-0.022461	-0.195557	16.490012	23.280978	130.641934
18894		-9.571264	3.206945	9.879634	-0.515813	3.620007	-0.059511	-0.856201	-0.019531	-0.210693	16.446078	25.280183	131.247964
18895		-15.070786	-2.709349	13.591917	-0.509257	3.359090	-0.121659	-0.844238	-0.010742	-0.214355	16.389766	27.147073	131.776440
18896		-12.687671	-4.619378	12.760393	-0.284514	2.895381	-0.559591	-0.832275	-0.009277	-0.220459	16.312338	28.829659	131.953716
18897		-21.734591	7.090086	12.651372	-0.509459	2.147013	-0.866304	-0.822754	-0.017334	-0.224854	15.943515	30.151020	131.794695
18898		-14.766650	7.587357	7.672494	-0.682655	1.367181	-0.420214	-0.824463	-0.006836	-0.226074	15.541762	30.970754	131.769113
18899		-11.104585	-2.094245	11.249990	-0.573264	0.901069	-0.314009	-0.813232	-0.000977	-0.239258	15.190922	31.518974	131.722606
18900		-7.787509	-1.802733	9.865111	-0.227717	0.522250	-0.203645	-0.811523	-0.009033	-0.235107	15.039735	31.838701	131.678601
18901		-6.962111	1.725852	8.236638	-0.169457	0.419585	-0.130020	-0.809814	-0.004639	-0.232666	14.935779	32.093203	131.663130
18902		-7.672843	1.243042	8.637961	-0.082922	0.287312	0.004296	-0.805420	0.000977	-0.237061	14.917050	32.252050	131.712685
18903		-7.043552	0.527367	8.915010	0.050035	0.145850	0.061037	-0.802979	0.001709	-0.236328	14.979825	32.326940	131.774164
18904		-6.126316	1.998323	8.345811	0.158952	0.066845	0.140367	-0.807617	0.005859	-0.236816	15.126961	32.343461	131.874502
18905		-5.779331	2.649075	8.302306	0.175912	0.054125	0.151812	-0.812256	-0.003906	-0.238037	15.285087	32.353850	131.979443
18906		-5.492758	2.442649	8.430751	0.178502	0.035807	0.142770	-0.806885	-0.006592	-0.234619	15.441373	32.352400	132.075899
18907		-4.756114	1.952765	8.239099	0.222622	0.056097	0.167791	-0.810791	-0.004395	-0.230469	15.632135	32.360912	132.191723
18908		-3.727991	2.857068	8.335975	0.231022	0.164762	0.146613	-0.813232	-0.005127	-0.234131	15.832645	32.429459	132.314447
18909		-4.862401	2.992379	7.893409	0.162771	0.262771	0.085805	-0.807861	-0.000977	-0.237793	15.981398	32.563978	132.415417
18910		-5.861149	2.594809	7.910988	0.127141	0.274937	0.059718	-0.810791	-0.006592	-0.240479	16.103767	32.706388	132.502804
18911		-5.915392	2.217641	8.127044	0.118908	0.241223	0.060024	-0.805420	-0.002686	-0.239502	16.217068	32.832776	132.583849
18912		-5.879687	1.933077	8.231586	0.134078	0.212724	0.076700	-0.804688	-0.002930	-0.232178	16.343825	32.937935	132.671408
18913		-5.868523	1.863376	8.156810	0.170413	0.197422	0.103432	-0.803223	-0.013184	-0.232910	16.498223	33.032940	132.773289
18914		-5.582857	2.255856	7.987565	0.180581	0.182876	0.118760	-0.802246	-0.015137	-0.244385	16.664189	33.114445	132.883432
18915		-5.397928	2.120502	7.989531	0.163471	0.180314	0.112358	-0.806152	-0.006348	-0.234863	16.816639	33.198132	132.988585
18916		-5.405879	2.209124	7.935152	0.167141	0.177639	0.103361	-0.803467	-0.010254	-0.236328	16.969470	33.278826	133.088327
18917		-5.008675	2.872047	7.808357	0.148821	0.192346	0.083349	-0.796875	-0.006348	-0.230225	17.105040	33.373508	133.177572
18918		-4.817034	3.120946	7.694653	0.090792	0.223795	0.032879	-0.808838	-0.019043	-0.240234	17.194441	33.491006	133.241074
18919		-4.971151	2.899436	7.818278	0.035238	0.268106	-0.006702	-0.796387	-0.003418	-0.231201	17.241485	33.642129	133.287227
18920		-5.241631	2.832847	7.810344	-0.015256	0.301324	-0.054214	-0.798828	-0.014893	-0.236572	17.247623	33.816756	133.309712
18921		-5.496065	2.573186	7.704638	-0.052827	0.312558	-0.086414	-0.798828	-0.021484	-0.239258	17.220381	34.005679	133.312655
18922		-5.735430	2.217665	7.947936	-0.057948	0.314094	-0.091917	-0.800049	-0.015137	-0.234375	17.189647	34.193697	133.312786
18923		-5.911852	2.050826	7.936053	-0.030760	0.299496	-0.077622	-0.800537	-0.009521	-0.239990	17.176733	34.373983	133.318684
18924		-5.876382	2.142235	8.046421	-0.011349	0.284877	-0.055777	-0.789795	-0.015869	-0.237061	17.182824	34.539892	133.336711
18925		-6.207779	1.948786	7.946091	0.019022	0.258579	-0.032494	-0.796875	-0.006348	-0.233154	17.210728	34.690148	133.364245
18926		-5.967781	2.196520	7.785006	0.039401	0.233294	-0.013579	-0.797363	-0.015625	-0.240967	17.256066	34.820652	133.399975
18927		-5.614347	2.312471	7.717669	0.044212	0.231393	-0.006784	-0.785645	-0.012939	-0.240234	17.305257	34.951657	133.439346
18928		-5.576122	2.622699	7.737069	0.041907	0.244970	-0.015091	-0.789551	-0.015869	-0.247070	17.353202	35.088756	133.476881
18929		-5.188808	2.762896	7.690412	0.024753	0.276489	-0.050819	-0.788086	-0.013428	-0.236572	17.380101	35.251887	133.496603
18930		-5.381016	3.099200	7.836480	-0.019483	0.311585	-0.109802	-0.790039	-0.018311	-0.243164	17.364557	35.441592	133.484893
18931		-5.812301	2.791661	7.801922	-0.062785	0.347976	-0.154803	-0.789307	-0.008789	-0.244141	17.309549	35.661522	133.449734
18932		-6.142331	2.697154	7.772224	-0.086037	0.314569	-0.192169	-0.776611	-0.009521	-0.242676	17.223421	35.866850	133.382617
18933		-6.009671	2.972331	7.554570	-0.125583	0.282673	-0.238328	-0.773682	-0.017822	-0.240723	17.090469	36.065050	133.276309
18934		-5.943058	3.303330	7.440041	-0.193825	0.229738	-0.313846	-0.770508	-0.023438	-0.236328	16.882191	36.243992	133.107455
18935		-5.830895	3.508149	7.285790	-0.280356	0.173309	-0.407081	-0.781738	-0.011719	-0.244141	16.577402	36.409363	132.861574
18936		-5.569468	3.681035	7.312662	-0.386581	0.129685	-0.517022	-0.776123	-0.009277	-0.247559	16.161487	36.564633	132.530594
18937		-5.551196	3.234419	7.445532	-0.489587	0.092148	-0.620190	-0.771240	-0.012695	-0.242432	15.636736	36.715810	132.118656
18938		-5.721262	2.446162	7.813623	-0.541037	0.062371	-0.688200	-0.768799	-0.013916	-0.246826	15.049774	36.855048	131.652133
18939		-5.844768	1.846693	7.688350	-0.538073	0.061887	-0.703228	-0.775146	-0.004883	-0.250244	14.454647	36.994876	131.171968
18940		-5.840234	1.411977	7.709813	-0.504765	0.105208	-0.703455	-0.772461	-0.002686	-0.253906	13.881563	37.152359	130.697105
18941		-5.826392	1.470601	7.871679	-0.481494	0.150209	-0.699309	-0.766113	-0.000244	-0.254639	13.324085	37.333093	130.229189
18942		-5.975746	0.919844	7.785161	-0.417269	0.191671	-0.658583	-0.765381	-0.005371	-0.247559	12.822913	37.525749	129.794025
18943		-6.002920	0.947226	7.936770	-0.343079	0.259517	-0.605651	-0.765869	-0.012695	-0.259277	12.389115	37.749356	129.403094
18944		-5.777874	0.912039	8.039803	-0.272796	0.366493	-0.554109	-0.766113	-0.004883	-0.253174	12.026098	38.022011	129.062574
18945		-5.431775	1.627836	8.304344	-0.237149	0.493514	-0.537822	-0.767578	0.003662	-0.266602	11.697386	38.364754	128.748413
18946		-5.295311	1.794643	8.572005	-0.277629	0.661621	-0.541279	-0.760742	-0.005859	-0.261230	11.356442	38.798414	128.452940
18947		-5.572555	1.475912	8.845916	-0.247851	0.852471	-0.536949	-0.746338	0.002441	-0.258789	11.045037	39.339799	128.181928
18948		-5.828162	0.616209	8.874708	-0.218989	1.051420	-0.492022	-0.750732	-0.000488	-0.266602	10.784659	39.984920	127.966818
18949		-5.974379	0.308648	8.723364	-0.128183	1.286111	-0.406055	-0.738281	0.001465	-0.268799	10.631591	40.754524	127.841781
18950		-5.732022	0.580045	8.743398	-0.083506	1.509634	-0.322231	-0.733154	0.004883	-0.272217	10.564031	41.638886	127.808217
18951		-5.748981	0.841870	8.694447	-0.043200	1.746633	-0.269988	-0.730957	0.004883	-0.264160	10.565662	42.653198	127.845598
18952		-6.014154	0.771741	8.440787	0.013667	1.972971	-0.227249	-0.714111	-0.001465	-0.268066	10.648479	43.788483	127.951596
18953		-5.933590	1.037259	8.401557	0.079325	2.211848	-0.198958	-0.708984	-0.003174	-0.270264	10.812986	45.056852	128.119843
18954		-5.655789	1.172993	8.435915	0.099858	2.440667	-0.191932	-0.702637	0.003662	-0.275635	11.030838	46.450980	128.340725
18955		-5.736593	1.193231	8.291836	0.184500	2.751340	-0.210014	-0.690430	0.000244	-0.280518	11.336654	48.022613	128.611462
18956		-5.658582	1.766883	8.407746	0.209163	3.067323	-0.250182	-0.677734	-0.008545	-0.268555	11.696844	49.773551	128.927193
18957		-5.289613	2.002122	8.575527	0.212788	3.467295	-0.349143	-0.666504	-0.001221	-0.279541	12.076754	51.760369	129.258409
18958		-5.736636	2.013379	8.665873	0.234553	3.930501	-0.469546	-0.643799	-0.001953	-0.276367	12.495781	54.018347	129.612241
18959		-5.343331	2.491321	9.093442	0.277976	4.451058	-0.592516	-0.631104	-0.003418	-0.271729	12.984895	56.581963	130.011469
18960		-5.728031	2.235853	9.457655	0.279825	5.093983	-0.742508	-0.597900	-0.017334	-0.269531	13.553419	59.520686	130.489513
18961		-7.279460	2.175342	9.704733	0.334080	5.765571	-0.884228	-0.577881	-0.012939	-0.268311	14.290269	62.849796	131.109790
18962		-8.853908	2.983706	10.007983	0.305335	6.297189	-1.034630	-0.549316	-0.010742	-0.270996	15.190214	66.490400	131.908786
18963		-11.807195	2.699434	9.459593	0.315541	6.746196	-1.227849	-0.521973	-0.015625	-0.261719	16.304465	70.401993	132.909760
18964		-14.426996	2.107927	9.599174	0.431488	6.966374	-1.434188	-0.490967	-0.008545	-0.256348	17.756453	74.459830	134.170055
18965		-16.209490	2.766508	11.591982	0.555510	7.010410	-1.643719	-0.456787	-0.015137	-0.239502	19.721815	78.566547	135.860492
18966		-16.225898	3.433130	12.755134	0.708919	6.886114	-1.870052	-0.437744	-0.011963	-0.227539	22.705306	82.634115	138.468621
18967		-15.939883	3.529727	12.425718	0.914408	6.640249	-2.069928	-0.404053	-0.012939	-0.207764	29.718860	86.577155	144.980717
18968		-15.847232	4.113896	11.569613	1.120641	6.323938	-2.222165	-0.374512	-0.021729	-0.195313	146.787561	89.208563	-98.574122
18969		-15.056689	4.636853	11.087112	1.232728	5.918504	-2.343998	-0.352051	-0.011230	-0.180176	-166.903042	85.845408	-52.953277
18970		-10.760874	5.578326	9.297479	1.273267	5.511629	-2.517656	-0.334717	-0.011230	-0.164307	-161.116475	82.408475	-47.874502
18971		-10.644198	3.676923	5.364807	1.104087	4.745794	-2.870402	-0.309570	-0.003174	-0.149902	-156.959835	79.283046	-44.309330
18972		-4.003406	-3.312106	10.167980	1.519528	3.611168	-2.830249	-0.284424	-0.000732	-0.134277	-153.249957	76.721936	-41.410028
18973		-43.522183	6.738550	27.792684	2.713508	1.191098	-2.506172	-0.279297	-0.001953	-0.125244	-147.976387	75.425910	-37.582227
18974		-16.494718	13.700172	21.140992	1.871236	-2.173440	-2.066576	-0.282471	0.005127	-0.137695	-140.317399	75.740862	-30.784295
18975		-0.036473	12.765657	12.660531	0.768770	-3.474753	-1.711180	-0.273682	0.002441	-0.147461	-131.380004	76.494671	-22.036871
18976		0.449358	8.753375	8.387014	-0.004499	-3.769242	-1.303795	-0.291016	0.018066	-0.156738	-122.045172	77.187140	-12.451454
18977		0.528581	6.706383	6.229443	-0.275097	-3.715824	-0.683772	-0.302246	0.012207	-0.174316	-112.804106	77.827357	-2.830510
18978		1.023694	5.535639	4.889132	-0.237999	-3.667929	0.032586	-0.296143	0.019775	-0.189453	-103.417767	78.498168	6.895521
18979		-0.594731	5.494486	5.324642	-0.180126	-3.740669	0.749548	-0.312012	0.016846	-0.193115	-92.979393	79.234610	17.633087
18980		-2.120371	5.479280	5.857131	-0.242501	-3.920731	1.367045	-0.322021	0.020264	-0.211426	-80.675575	79.893451	30.280836
18981		-3.035211	4.733264	6.331015	-0.380067	-4.174418	1.845390	-0.337402	0.023926	-0.213379	-65.978631	80.221044	45.415317
18982		-4.239781	3.273760	6.589116	-0.482297	-4.474665	2.135682	-0.345215	0.027344	-0.216553	-50.097299	79.896154	61.813532
18983		-4.964368	1.318642	6.223697	-0.415649	-4.768936	2.269203	-0.364746	0.022705	-0.235596	-35.334350	78.752716	77.069953
18984		-5.023871	-0.583854	5.727118	-0.132984	-4.956423	2.301863	-0.376465	0.020752	-0.234131	-23.588874	76.917062	89.157227
18985		-6.070638	-2.075735	5.600193	0.349346	-5.082055	2.213978	-0.385254	0.018311	-0.239502	-14.865023	74.567017	97.943732
18986		-6.535782	-2.279601	5.431570	0.918641	-5.206556	2.063546	-0.404541	0.003662	-0.257568	-8.496991	71.880454	104.040304
18987		-5.951297	-1.487580	5.365530	1.341140	-5.205680	1.922382	-0.405518	-0.002197	-0.256592	-3.735729	69.017278	108.270550
18988		-6.731859	-0.578737	5.939171	1.515728	-5.077144	1.816807	-0.408691	-0.014648	-0.272461	-0.112243	66.143560	111.247000
18989		-8.048575	0.441914	6.851046	1.464851	-4.957935	1.762311	-0.417236	-0.031250	-0.274902	2.732961	63.266528	113.459409
18990		-9.027594	1.023607	7.844879	1.253103	-4.888862	1.758086	-0.427246	-0.038086	-0.281494	4.974056	60.403636	115.183635
18991		-10.041773	0.756176	8.484850	0.998485	-4.855832	1.843376	-0.435303	-0.066650	-0.297852	6.821715	57.513623	116.666272
18992		-10.941818	-0.101100	8.559491	0.820044	-4.838936	1.999276	-0.439209	-0.063477	-0.313721	8.430579	54.613497	118.035669
18993		-12.060570	-0.611459	8.694239	0.757447	-4.819845	2.151913	-0.451904	-0.091797	-0.327881	9.905010	51.676664	119.329762
18994		-12.885957	-0.401152	8.843470	0.725281	-4.806007	2.230725	-0.480957	-0.108154	-0.356689	11.222177	48.735455	120.499555
18995		-13.101273	0.616901	9.273686	0.646104	-4.772822	2.230004	-0.492432	-0.129395	-0.378418	12.344088	45.783699	121.516991
18996		-13.671486	2.004640	10.079668	0.467340	-4.726621	2.185380	-0.509277	-0.144287	-0.396729	13.219140	42.865879	122.382323
18997		-15.223415	2.445055	10.799931	0.275380	-4.683689	2.132687	-0.543457	-0.157471	-0.411865	13.872293	39.957323	123.125124
18998		-17.109948	1.402292	10.408438	0.224595	-4.682685	2.137001	-0.582764	-0.174561	-0.436768	14.424090	37.056779	123.800590
18999		-18.877431	0.500182	9.151588	0.412617	-4.666662	2.180320	-0.638184	-0.182373	-0.444092	15.040457	34.140480	124.446917
19000		-19.954004	0.342201	7.741075	0.688602	-4.578697	2.156151	-0.671143	-0.190674	-0.452393	15.753349	31.283651	125.031231
19001		-20.509547	0.044297	6.265646	0.933393	-4.398193	2.077796	-0.720459	-0.195801	-0.447021	16.544314	28.520729	125.538435
19002		-20.964421	-0.425974	4.993892	1.098202	-4.135544	2.008543	-0.750000	-0.214844	-0.442627	17.385188	25.919073	125.995558
19003		-20.813431	-1.236273	3.682904	1.173252	-3.790693	1.999436	-0.793213	-0.214355	-0.434082	18.254862	23.491494	126.461054
19004		-21.101717	-1.814388	2.320398	1.141677	-3.388990	2.084096	-0.832275	-0.220947	-0.424316	19.119944	21.270112	127.008454
19005		-21.939047	-0.762233	0.986758	0.867076	-2.995935	2.197678	-0.855469	-0.226074	-0.408691	19.844659	19.224861	127.660156
19006		-21.663509	0.876812	-1.240406	0.183438	-2.644516	2.220023	-0.885010	-0.208984	-0.397705	20.175015	17.366523	128.369944
19007		-19.390298	0.788249	-4.407504	-0.748930	-2.212349	1.990284	-0.905273	-0.209961	-0.386475	19.936523	15.780222	129.030820
19008		-17.972896	-4.711273	-7.148658	-1.269920	-1.641852	1.506367	-0.919434	-0.204346	-0.389893	19.345396	14.604785	129.542574
19009		-19.351995	-11.486097	-9.470188	-0.554967	-1.094544	0.958193	-0.935059	-0.196777	-0.384033	19.107712	13.829663	129.861214
19010		-18.911944	-12.292208	-10.238182	0.941349	-0.519023	0.436884	-0.937988	-0.202881	-0.382324	19.682136	13.466671	129.999689
19011		-18.101186	-6.916839	-9.463903	1.844348	0.075983	-0.097159	-0.934814	-0.209473	-0.371826	20.730270	13.527242	129.958262
19012		-14.532833	10.440566	-4.301573	0.691176	0.762166	-0.761837	-0.934326	-0.209961	-0.376465	21.066055	14.091614	129.695889
19013		-5.308654	-0.260923	-1.357752	-1.487556	2.097845	-2.196783	-0.917969	-0.213135	-0.381836	20.013335	15.661369	128.909716
19014		-5.258293	2.312006	13.526292	-1.199610	1.818851	-1.963222	-0.899414	-0.211914	-0.396973	19.119102	17.020676	128.166016
19015		-3.439589	10.317326	17.966907	-1.020937	1.456950	-1.210193	-0.895020	-0.204590	-0.400635	18.411972	18.036993	127.755973
19016		4.629360	8.160007	8.449216	-1.345317	1.839485	-1.000702	-0.874023	-0.210449	-0.419189	17.568489	19.217056	127.521053
19017		3.660950	1.927461	4.077391	-1.165811	2.955861	-0.723606	-0.857178	-0.203857	-0.426025	16.940203	20.959520	127.631224
19018		-3.979537	-0.768468	7.579363	-0.741948	3.735240	-0.218947	-0.846191	-0.196777	-0.439941	16.718174	23.044837	128.166928
19019		-12.154340	-3.180850	13.664353	-0.453057	3.845157	-0.111282	-0.822266	-0.196777	-0.449707	16.715296	25.175074	128.790947
19020		-11.597774	-7.941804	11.785757	-0.118449	3.254522	-0.418637	-0.800049	-0.183594	-0.450684	16.799332	27.030259	129.130722
19021		-19.277749	5.910295	14.654355	-0.233413	2.946686	-1.045075	-0.771729	-0.189453	-0.457031	16.617838	28.822105	129.027026
19022		-21.534449	16.802714	7.423480	-0.776463	1.727125	-0.678037	-0.775879	-0.187256	-0.464600	16.120972	29.881533	128.916117
19023		-13.487722	2.229278	8.630897	-1.029255	1.172279	-0.548290	-0.758789	-0.177734	-0.474365	15.461395	30.617318	128.774187
19024		-7.538084	-6.421595	12.025360	-0.830157	0.750984	-0.504684	-0.762451	-0.184326	-0.469971	14.886973	31.108714	128.576977
19025		-10.030852	-1.921205	10.509536	-0.393393	0.419993	-0.390550	-0.753906	-0.171143	-0.473633	14.566397	31.402769	128.391386
19026		-7.807886	1.795475	8.409134	-0.214763	0.291888	-0.086580	-0.755371	-0.173584	-0.472656	14.440239	31.577496	128.380854
19027		-7.595234	-1.322035	9.962406	-0.026724	0.157374	0.016659	-0.745850	-0.172852	-0.475098	14.443123	31.667199	128.413933
19028		-6.176045	1.216562	8.787258	0.183691	0.062047	0.121046	-0.749268	-0.171387	-0.469482	14.595940	31.684620	128.499964
19029		-5.974986	2.837641	8.404445	0.220417	0.040518	0.163833	-0.751465	-0.172607	-0.474609	14.780238	31.688182	128.609239
19030		-4.636933	2.228323	8.456489	0.241292	0.054419	0.156345	-0.746094	-0.170898	-0.475342	14.977528	31.695727	128.717064
19031		-4.798513	3.268616	8.253030	0.216601	0.108918	0.121332	-0.747314	-0.176514	-0.468994	15.151540	31.742825	128.810733
19032		-4.579545	2.838062	7.927737	0.187297	0.136368	0.101332	-0.751221	-0.183594	-0.475830	15.306902	31.803393	128.897438
19033		-3.885326	3.294365	8.205143	0.133990	0.240940	0.039722	-0.748291	-0.184082	-0.475830	15.418578	31.935323	128.962089
19034		-5.231203	3.201379	7.828079	0.046881	0.313504	-0.021587	-0.750732	-0.180420	-0.468018	15.468522	32.112197	129.001105
19035		-5.938446	1.945208	8.029177	0.023092	0.300708	-0.026345	-0.747803	-0.185303	-0.474365	15.500216	32.287021	129.034072
19036		-5.736993	1.580384	8.199665	0.054481	0.265487	-0.000050	-0.741455	-0.190430	-0.480225	15.557819	32.434033	129.078901
19037		-5.760813	1.460943	8.188207	0.096232	0.235445	0.039226	-0.743164	-0.182861	-0.469482	15.648435	32.562730	129.143338
19038		-5.830028	1.378970	8.229363	0.149462	0.207000	0.076812	-0.739746	-0.187012	-0.471191	15.782318	32.665433	129.228413
19039		-5.558241	2.002992	8.021181	0.178997	0.177330	0.099698	-0.736328	-0.184082	-0.479004	15.936447	32.752429	129.322397
19040		-5.420791	2.493106	7.904664	0.159821	0.154899	0.087368	-0.744385	-0.179199	-0.474365	16.075351	32.824405	129.405381
19041		-5.502941	2.371722	7.921354	0.140233	0.141696	0.077830	-0.743164	-0.182861	-0.482178	16.196398	32.894893	129.478919
19042		-5.642957	2.615361	7.888373	0.125217	0.117919	0.063905	-0.735596	-0.192383	-0.473389	16.303709	32.949991	129.539955
19043		-5.357533	2.752611	7.751464	0.082679	0.102532	0.037717	-0.742920	-0.191162	-0.473633	16.373753	33.005201	129.580073
19044		-5.135703	2.262977	7.853388	0.067816	0.108351	0.027627	-0.739502	-0.194336	-0.469727	16.434440	33.060773	129.615730
19045		-5.334347	2.153332	7.948594	0.067047	0.124553	0.023823	-0.728760	-0.188965	-0.466553	16.493097	33.130243	129.651209
19046		-4.980723	2.217227	7.912302	0.078482	0.148805	0.020284	-0.731201	-0.189941	-0.468018	16.561749	33.209168	129.690123
19047		-5.073346	2.194088	8.116009	0.078668	0.197437	0.017650	-0.739258	-0.188721	-0.463379	16.632880	33.319562	129.736051
19048		-5.541678	2.415660	7.812337	0.077156	0.208086	0.008618	-0.728516	-0.187744	-0.470215	16.703266	33.432862	129.779288
19049		-5.589884	2.533821	7.755232	0.069401	0.211702	0.003635	-0.734619	-0.189453	-0.472412	16.765947	33.553274	129.819235
19050		-5.481534	2.606035	7.784721	0.050742	0.206329	-0.025668	-0.731934	-0.189941	-0.466309	16.808876	33.671209	129.839941
19051		-5.408670	3.249064	7.721013	0.000491	0.215265	-0.081549	-0.725830	-0.187988	-0.471680	16.801608	33.807641	129.824714
19052		-5.517098	3.133256	7.787677	-0.072682	0.214555	-0.158272	-0.732910	-0.193359	-0.479492	16.725969	33.952010	129.759438
19053		-5.351857	3.038144	7.787486	-0.142281	0.210665	-0.225463	-0.727295	-0.197998	-0.477539	16.582835	34.109485	129.647560
19054		-5.413912	2.831906	7.869689	-0.207474	0.209178	-0.295080	-0.725342	-0.188965	-0.467041	16.377392	34.272866	129.489254
19055		-5.349354	2.974507	7.806256	-0.262401	0.200949	-0.357227	-0.725098	-0.192139	-0.464355	16.113362	34.445403	129.285956
19056		-5.358874	2.918504	7.853748	-0.313227	0.208613	-0.421300	-0.722900	-0.182617	-0.477051	15.797229	34.627147	129.040670
19057		-5.348209	3.053542	7.945561	-0.363600	0.195465	-0.478138	-0.718018	-0.180176	-0.475098	15.425618	34.813375	128.752056
19058		-5.140535	2.589525	8.113791	-0.400764	0.215471	-0.513427	-0.709229	-0.177490	-0.474121	15.020934	35.010174	128.441989
19059		-5.452711	1.873772	8.231885	-0.384500	0.257434	-0.510000	-0.708496	-0.180908	-0.477295	14.627157	35.232028	128.138471
19060		-5.485243	1.703211	8.265651	-0.359551	0.306303	-0.517123	-0.707764	-0.177246	-0.482178	14.249005	35.476252	127.836834
19061		-5.727669	1.264300	8.142344	-0.305238	0.342053	-0.509059	-0.706787	-0.175537	-0.485596	13.904160	35.741671	127.543080
19062		-5.404988	1.707901	8.105800	-0.265737	0.392273	-0.499930	-0.698242	-0.174316	-0.479980	13.589583	36.028415	127.262077
19063		-5.383830	2.055048	8.121943	-0.255088	0.454662	-0.523535	-0.691162	-0.167236	-0.481934	13.272559	36.355747	126.971004
19064		-5.428807	1.602873	8.443548	-0.210149	0.522226	-0.522132	-0.684326	-0.171875	-0.485352	12.986935	36.715423	126.689460
19065		-5.490258	1.799357	8.433300	-0.140324	0.604484	-0.521561	-0.677734	-0.168457	-0.484619	12.743779	37.123744	126.416880
19066		-5.740811	1.544527	8.486838	-0.094980	0.720037	-0.526095	-0.672852	-0.169922	-0.487061	12.533951	37.592556	126.156825
19067		-5.666227	1.625115	8.495023	-0.085749	0.879019	-0.511875	-0.671143	-0.170410	-0.484619	12.344477	38.151535	125.926665
19068		-5.590045	1.483166	8.726960	-0.107455	1.063307	-0.514126	-0.666748	-0.172607	-0.483643	12.156972	38.809682	125.720433
19069		-5.882363	1.789177	8.572861	-0.106281	1.261673	-0.509956	-0.645752	-0.170898	-0.497070	11.984142	39.581497	125.541845
19070		-5.638032	0.825809	8.838198	-0.088065	1.480710	-0.482523	-0.642090	-0.170410	-0.493164	11.853649	40.468956	125.413681
19071		-5.590769	0.986534	8.800961	-0.075885	1.761552	-0.431954	-0.631836	-0.171631	-0.487793	11.776717	41.511165	125.361301
19072		-5.392403	1.218053	8.838661	-0.077981	2.078228	-0.404179	-0.614990	-0.164795	-0.485596	11.746317	42.724366	125.379027
19073		-5.477315	1.057678	8.690329	-0.021012	2.388541	-0.384524	-0.597168	-0.159668	-0.485840	11.791356	44.112440	125.460764
19074		-5.362514	1.666865	8.819308	0.000109	2.712810	-0.381040	-0.584473	-0.166016	-0.480957	11.895932	45.678750	125.605434
19075		-5.291445	1.289354	8.717292	0.053696	3.088533	-0.401553	-0.560791	-0.165527	-0.479736	12.073660	47.460633	125.806476
19076		-5.310939	1.777208	8.757259	0.121235	3.498761	-0.431825	-0.539307	-0.168701	-0.476318	12.348001	49.472540	126.076920
19077		-5.010243	1.789641	8.872129	0.159862	3.961674	-0.484884	-0.519287	-0.165039	-0.467529	12.704740	51.751363	126.418556
19078		-5.139998	2.208922	9.262844	0.224598	4.512190	-0.597179	-0.490723	-0.172852	-0.457275	13.157909	54.347993	126.821462
19079		-6.460289	3.055013	9.671401	0.193100	5.076270	-0.823045	-0.456543	-0.160400	-0.456055	13.577984	57.288940	127.193897
19080		-6.436410	3.547202	10.579858	0.171289	5.688146	-1.057482	-0.420654	-0.161133	-0.434082	13.986028	60.598892	127.552676
19081		-8.741768	3.794325	10.225336	0.086074	6.222417	-1.323201	-0.381104	-0.163818	-0.422363	14.288076	64.242821	127.835974
19082		-11.799549	2.987904	10.174382	0.128236	6.674037	-1.588235	-0.342285	-0.161621	-0.401123	14.515688	68.173324	128.001684
19083		-14.721658	2.397765	10.654200	0.296152	6.855524	-1.831418	-0.301758	-0.150391	-0.373047	14.595784	72.239756	127.904585
19084		-16.226214	2.126468	11.743431	0.552337	6.851414	-2.066261	-0.256104	-0.150635	-0.343750	14.312287	76.337024	127.279108
19085		-16.321373	3.303454	13.604041	0.928408	6.666904	-2.268939	-0.229736	-0.146729	-0.315918	13.085719	80.356497	125.482437
19086		-15.792728	4.367999	13.752992	1.149044	6.346663	-2.487113	-0.194580	-0.131836	-0.280518	8.394152	84.199149	120.083987
19087		-15.009454	4.950546	12.052657	1.273712	5.949181	-2.645599	-0.172852	-0.131836	-0.246826	-14.872833	87.588051	96.034887
19088		-11.031575	6.536453	9.737433	1.201768	5.627348	-2.840705	-0.133545	-0.118408	-0.215820	-111.327714	87.594942	-1.161419
19089		-8.541942	6.831535	5.471521	0.811482	5.410609	-3.244783	-0.123535	-0.090332	-0.176514	-133.718268	84.294611	-24.066348
19090		-3.687712	-0.273984	3.640728	0.441819	4.710614	-3.564938	-0.100098	-0.089111	-0.152832	-136.890631	80.936130	-27.521491
19091		-18.561945	0.457053	20.396753	1.612931	3.424529	-3.063137	-0.093262	-0.075684	-0.123047	-136.331765	78.306301	-27.895935
19092		-36.476389	11.452438	27.720629	1.815368	0.184126	-2.524349	-0.093506	-0.069092	-0.121094	-131.030183	77.184832	-23.537930
19093		-7.837486	14.672101	17.256995	1.088875	-2.228252	-1.686445	-0.083496	-0.062500	-0.123047	-123.325795	77.190710	-16.281009
19094		-1.551618	12.157744	11.617464	0.155208	-3.282055	-1.076452	-0.094238	-0.061523	-0.135010	-114.537920	77.559403	-7.369889
19095		1.461989	9.170865	7.735745	-0.507301	-3.526944	-0.368772	-0.111816	-0.065186	-0.162109	-105.649436	78.061231	2.015486
19096		3.451177	6.731933	4.803493	-0.791547	-3.316957	0.267840	-0.113525	-0.061035	-0.168213	-97.219731	78.587310	11.083134
19097		1.339224	5.010984	4.878557	-0.805933	-3.190363	0.851891	-0.132813	-0.063721	-0.181641	-88.446055	79.169228	20.489597
19098		-1.802350	4.232700	6.161263	-0.719559	-3.348865	1.349589	-0.142578	-0.080322	-0.205078	-78.131583	79.712517	31.397503
19099		-3.829489	3.307299	7.039761	-0.606257	-3.717279	1.730737	-0.164795	-0.081787	-0.211670	-65.344633	79.986710	44.733737
19100		-5.165136	2.587780	7.205584	-0.475061	-4.188995	1.982529	-0.174561	-0.091309	-0.233887	-50.869506	79.677876	59.711267
19101		-5.200007	1.862571	6.810588	-0.363772	-4.588548	2.082934	-0.186768	-0.105469	-0.249512	-36.996290	78.596370	74.041392
19102		-4.639770	1.016147	6.173617	-0.247667	-4.837418	2.050178	-0.213867	-0.120117	-0.277832	-25.884148	76.833849	85.553654
19103		-4.756294	-0.181518	5.645687	-0.034133	-4.961841	1.900360	-0.245850	-0.128906	-0.291260	-17.747615	74.581202	93.962340
19104		-5.539850	-1.098282	5.734513	0.320457	-5.036043	1.722818	-0.266113	-0.139648	-0.302490	-11.920182	72.040336	99.849941
19105		-6.827893	-1.138466	6.100449	0.744219	-5.115439	1.587736	-0.297119	-0.156738	-0.331543	-7.510023	69.289337	104.064731
19106		-7.436298	-0.380803	6.176691	1.081271	-5.182299	1.491394	-0.316406	-0.168701	-0.346924	-4.069014	66.419877	107.107133
19107		-7.254621	0.331929	5.813364	1.273275	-5.143146	1.467535	-0.358154	-0.188232	-0.354492	-1.238452	63.500004	109.419303
19108		-6.728062	0.698715	5.419625	1.332474	-4.946863	1.531899	-0.391357	-0.211426	-0.367432	1.181756	60.665435	111.290748
19109		-6.855253	1.102480	5.495004	1.273254	-4.596403	1.697953	-0.418701	-0.218994	-0.367920	3.381002	57.980040	112.992787
19110		-7.746220	1.457743	6.200581	1.098626	-4.212202	1.929835	-0.446289	-0.244141	-0.377197	5.407548	55.488666	114.660236
19111		-8.734141	1.223431	7.152792	0.868003	-3.869127	2.193113	-0.486328	-0.243896	-0.378906	7.307643	53.130946	116.380480
19112		-9.619109	0.756276	8.188278	0.673440	-3.587939	2.404205	-0.517578	-0.256592	-0.379395	9.063810	50.899879	118.115576
19113		-11.288169	0.593642	9.415127	0.551519	-3.394886	2.473790	-0.552246	-0.276855	-0.380615	10.643307	48.725474	119.762764
19114		-13.261724	1.077731	10.413705	0.447677	-3.349155	2.390181	-0.593750	-0.283203	-0.353760	11.959986	46.575471	121.193709
19115		-15.025300	2.045254	10.638668	0.291246	-3.427814	2.173726	-0.622803	-0.289307	-0.366211	12.935946	44.374014	122.322199
19116		-16.829595	1.807150	10.172777	0.078815	-3.525829	1.961022	-0.672363	-0.298096	-0.356689	13.574233	42.150338	123.183983
19117		-18.890061	-0.273461	8.917253	0.088531	-3.606793	1.877437	-0.696777	-0.300049	-0.343994	14.105777	39.871978	123.910391
19118		-20.872918	-1.688361	6.735155	0.412608	-3.652253	1.943442	-0.731201	-0.298828	-0.329102	14.788343	37.568113	124.619628
19119		-20.989426	-1.767751	4.021531	0.809746	-3.560553	2.079295	-0.768555	-0.299561	-0.293457	15.706272	35.273655	125.378168
19120		-22.105237	-0.736260	2.374617	0.991297	-3.307383	2.171791	-0.787842	-0.307129	-0.291016	16.727040	33.106997	126.179394
19121		-23.264475	-0.144417	1.425623	0.840494	-3.075678	2.180512	-0.812256	-0.305420	-0.272949	17.631705	31.043860	126.970377
19122		-23.336869	-1.206757	0.160113	0.541270	-2.901831	2.136503	-0.832764	-0.307861	-0.251221	18.319658	29.085142	127.719600
19123		-22.824063	-2.915212	-1.278346	0.320688	-2.712891	2.079396	-0.858154	-0.317383	-0.245850	18.843739	27.224543	128.435294
19124		-22.148882	-3.895580	-2.649166	0.189399	-2.509780	1.983709	-0.874268	-0.316406	-0.239014	19.253108	25.494936	129.107386
19125		-21.072090	-3.684962	-4.260049	0.036541	-2.286280	1.775239	-0.892090	-0.303711	-0.225098	19.516109	23.917185	129.681540
19126		-19.433901	-3.512787	-5.525308	-0.215406	-2.005567	1.427268	-0.906738	-0.297363	-0.211670	19.559803	22.561392	130.098989
19127		-17.494948	-4.073679	-6.639199	-0.431398	-1.610281	0.981921	-0.903076	-0.302734	-0.202393	19.403234	21.502527	130.335881
19128		-15.984150	-4.989252	-6.982348	-0.443889	-1.101776	0.485947	-0.914307	-0.298340	-0.198730	19.171225	20.815348	130.391097
19129		-14.951753	-4.970830	-6.442159	-0.248523	-0.536345	-0.018959	-0.916016	-0.293213	-0.195801	18.987319	20.529691	130.269433
19130		-15.712058	0.828556	-6.538935	-1.048621	0.655978	-0.941953	-0.909912	-0.296875	-0.202148	18.239150	21.058734	129.847652
19131		-12.102572	-2.851654	-10.597789	-1.513283	1.396449	-1.686514	-0.906250	-0.294189	-0.215820	17.104031	22.117968	129.115386
19132		-1.846021	-4.457744	4.519645	-1.173602	2.146051	-1.905487	-0.888916	-0.296143	-0.218506	16.139936	23.609000	128.358731
19133		-9.648698	1.416361	17.411931	-0.484321	2.001612	-1.014131	-0.883301	-0.290527	-0.220947	15.752222	24.875913	128.087932
19134		-1.398225	5.949137	15.104633	-0.211318	1.945063	-0.221805	-0.879883	-0.287598	-0.221924	15.717729	25.983508	128.283996
19135		2.540203	3.853144	7.187925	-0.491224	2.774486	-0.549883	-0.870361	-0.292480	-0.224365	15.498198	27.603575	128.419364
19136		-9.294650	3.920955	11.069747	-0.786584	3.571918	-1.158693	-0.849609	-0.289063	-0.234619	14.992304	29.753105	128.299454
19137		-30.221443	11.103596	12.782284	-1.472413	2.561036	-1.407606	-0.835449	-0.287109	-0.231445	13.902637	31.379214	127.813614
19138		-16.605015	4.407831	6.636144	-1.328016	1.205549	-0.837816	-0.834961	-0.281982	-0.246826	12.952523	32.162868	127.449738
19139		-12.942773	-12.033076	13.131951	-1.212576	0.599198	-0.798780	-0.827881	-0.275635	-0.244873	12.021173	32.602910	127.004832
19140		-6.944399	-4.492464	10.341947	-0.417081	-0.130586	-0.435866	-0.830078	-0.271240	-0.254639	11.616696	32.581084	126.693131
19141		-7.019807	3.272655	8.859820	-0.247628	0.123163	-0.194225	-0.827148	-0.272461	-0.250000	11.411813	32.678713	126.575703
19142		-6.976700	-2.705537	9.053873	-0.112005	0.025436	-0.070918	-0.834473	-0.264404	-0.261719	11.324478	32.701246	126.528390
19143		-6.682044	1.403540	8.514532	0.072157	0.024136	-0.020528	-0.820801	-0.280518	-0.255127	11.357681	32.723514	126.513097
19144		-6.181978	2.996702	8.044552	0.031349	0.010487	-0.008708	-0.828125	-0.278320	-0.255371	11.373818	32.730624	126.505296
19145		-4.376790	2.142145	8.124873	0.003020	0.019466	-0.053771	-0.827881	-0.274658	-0.243896	11.355156	32.754116	126.467230
19146		-4.558057	2.442626	8.446415	-0.003172	0.129177	-0.072739	-0.822998	-0.269043	-0.252197	11.336945	32.835117	126.432545
19147		-4.809563	1.691363	8.477085	0.024901	0.222150	-0.057366	-0.828857	-0.276367	-0.253906	11.344269	32.972705	126.419241
19148		-4.954258	1.874701	8.482988	0.060259	0.310386	-0.044647	-0.822510	-0.276855	-0.245361	11.385816	33.152333	126.427724
19149		-5.711388	1.690374	8.397165	0.055663	0.360992	-0.050861	-0.821533	-0.277100	-0.250977	11.423500	33.367059	126.437718
19150		-6.539796	0.538486	8.112245	0.105932	0.360161	-0.002450	-0.827148	-0.273438	-0.244141	11.510911	33.569817	126.481826
19151		-6.278625	1.356625	8.118944	0.179378	0.331261	0.049641	-0.815674	-0.278809	-0.251221	11.655211	33.756322	126.556257
19152		-5.751668	2.123112	8.224780	0.180123	0.317097	0.046445	-0.829102	-0.282959	-0.250732	11.801127	33.929057	126.628655
19153		-5.754879	1.659446	8.246653	0.158506	0.311530	0.026224	-0.817383	-0.273438	-0.248047	11.924224	34.106980	126.685818
19154		-5.806445	2.137437	8.023175	0.098613	0.296132	-0.017300	-0.816895	-0.270996	-0.250977	11.998481	34.275288	126.713158
19155		-6.007031	2.140920	7.831420	0.035795	0.252027	-0.067167	-0.814697	-0.282471	-0.257813	12.011395	34.430863	126.699090
19156		-5.666784	1.999603	7.676975	-0.018347	0.207171	-0.098903	-0.817627	-0.272217	-0.251709	11.980179	34.559018	126.658308
19157		-5.404612	2.074265	7.840131	-0.071444	0.187038	-0.151932	-0.814697	-0.281250	-0.251709	11.893395	34.688208	126.576906
19158		-5.712931	1.800865	7.865584	-0.111515	0.188579	-0.185940	-0.812256	-0.281982	-0.247803	11.772945	34.816066	126.473490
19159		-5.843521	1.272345	7.942993	-0.099524	0.181289	-0.174880	-0.808105	-0.281982	-0.245361	11.659894	34.944408	126.374758
19160		-5.895292	1.311562	7.915269	-0.079689	0.170920	-0.160360	-0.819580	-0.278076	-0.253906	11.565411	35.059077	126.285467
19161		-5.964828	1.437372	7.859731	-0.067139	0.150211	-0.150110	-0.802979	-0.279053	-0.253906	11.477337	35.166862	126.198546
19162		-5.998389	1.522304	7.744745	-0.078090	0.120894	-0.159524	-0.812988	-0.279297	-0.255615	11.379436	35.253107	126.102200
19163		-5.897976	2.027541	7.756055	-0.119542	0.088913	-0.194556	-0.810547	-0.272217	-0.247314	11.238153	35.331198	125.975566
19164		-5.874345	2.004840	7.694498	-0.175973	0.055435	-0.244267	-0.802002	-0.280273	-0.255859	11.044605	35.389631	125.811211
19165		-5.845135	1.916373	7.833772	-0.214665	0.032803	-0.277827	-0.807617	-0.277588	-0.249756	10.810555	35.444508	125.618861
19166		-5.798365	1.824431	7.885066	-0.260220	0.006789	-0.315273	-0.804932	-0.278076	-0.260254	10.535881	35.481989	125.398291
19167		-5.911723	1.356242	7.970751	-0.276163	0.007273	-0.331483	-0.808105	-0.279541	-0.253906	10.242483	35.526522	125.164800
19168		-5.991729	0.989289	7.976626	-0.254249	0.000319	-0.303436	-0.805664	-0.277588	-0.254883	9.974907	35.557392	124.950978
19169		-5.905467	0.858052	7.964568	-0.219341	0.014607	-0.269933	-0.798340	-0.278076	-0.251953	9.738725	35.598251	124.760391
19170		-5.717863	1.267621	8.075407	-0.193534	0.030507	-0.252704	-0.806641	-0.272217	-0.256104	9.528007	35.639864	124.584868
19171		-5.530287	1.543934	8.022808	-0.182693	0.050770	-0.256885	-0.799072	-0.264160	-0.264404	9.319901	35.698736	124.406941
19172		-5.502415	1.460206	8.039356	-0.164778	0.083022	-0.261291	-0.793457	-0.262207	-0.259521	9.124987	35.769813	124.230759
19173		-5.367741	1.647599	8.131871	-0.157450	0.114307	-0.276161	-0.793213	-0.260742	-0.261475	8.926765	35.865286	124.045636
19174		-5.380636	1.551721	8.045030	-0.167218	0.152724	-0.292538	-0.796387	-0.279053	-0.271484	8.721009	35.977578	123.854151
19175		-5.632705	1.039686	8.170799	-0.153062	0.210558	-0.288546	-0.793945	-0.268799	-0.267334	8.524847	36.127474	123.669252
19176		-5.786109	0.877738	8.154265	-0.137205	0.269484	-0.275123	-0.786377	-0.273926	-0.260498	8.348932	36.303426	123.500514
19177		-5.769140	0.994532	8.153831	-0.120578	0.325777	-0.273115	-0.791992	-0.265381	-0.263428	8.182661	36.516376	123.336257
19178		-5.767128	0.983952	8.174898	-0.111722	0.385617	-0.265643	-0.790039	-0.266113	-0.265625	8.030024	36.756648	123.183733
19179		-5.757407	1.310933	8.267197	-0.103018	0.442608	-0.275197	-0.784424	-0.270996	-0.268066	7.877232	37.035261	123.027072
19180		-5.544383	1.308592	8.433816	-0.109562	0.506936	-0.289736	-0.773438	-0.273438	-0.269287	7.719782	37.345613	122.866489
19181		-5.050887	1.589633	8.714865	-0.103399	0.611966	-0.327585	-0.775635	-0.270264	-0.268799	7.550457	37.723564	122.685297
19182		-5.180560	1.454039	8.814691	-0.079909	0.761562	-0.372788	-0.768311	-0.271484	-0.270752	7.383872	38.184008	122.484995
19183		-4.622309	1.408581	9.326691	-0.101602	1.005689	-0.390750	-0.763428	-0.270020	-0.277344	7.204235	38.789202	122.289309
19184		-5.286804	0.212476	9.364325	-0.118394	1.313591	-0.368042	-0.759033	-0.270264	-0.270996	7.041997	39.562201	122.136083
19185		-4.972933	0.592110	9.601495	-0.067539	1.599260	-0.339610	-0.748779	-0.270996	-0.275391	6.931367	40.500222	122.023711
19186		-5.190692	0.267995	9.553250	-0.017380	1.952017	-0.314418	-0.736572	-0.274170	-0.269287	6.882667	41.632209	121.961099
19187		-5.057450	0.067902	9.552721	0.040800	2.315238	-0.285120	-0.734131	-0.264893	-0.272217	6.899513	42.973209	121.950901
19188		-4.934354	0.107031	9.568315	0.142862	2.719086	-0.248827	-0.709961	-0.270752	-0.274658	7.026355	44.536943	122.012481
19189		-4.660574	0.796004	9.716276	0.218831	3.189295	-0.252308	-0.709229	-0.281250	-0.279053	7.231942	46.372093	122.124528
19190		-4.411017	1.360133	9.701806	0.280082	3.740853	-0.331546	-0.689453	-0.276367	-0.270752	7.485533	48.522160	122.247637
19191		-4.300640	2.490573	10.117065	0.290843	4.380094	-0.491004	-0.668701	-0.275635	-0.275146	7.709540	51.050338	122.322066
19192		-4.753818	2.277677	10.422662	0.307848	5.125878	-0.740089	-0.649902	-0.293213	-0.265625	7.855327	54.017677	122.280467
19193		-5.929786	3.520797	11.776258	0.280365	5.866350	-0.983559	-0.620605	-0.276855	-0.262207	7.864873	57.426907	122.096652
19194		-7.055203	3.650545	11.247485	0.138914	6.554727	-1.247012	-0.581055	-0.277832	-0.260010	7.600083	61.244551	121.693695
19195		-11.347913	2.406755	11.131477	0.248632	7.040911	-1.471077	-0.552490	-0.277588	-0.248535	7.097768	65.354919	120.970945
19196		-14.366027	2.393177	11.490256	0.478469	7.224451	-1.663832	-0.518799	-0.272949	-0.232422	6.243818	69.577171	119.747717
19197		-17.983187	2.694230	13.196622	0.690907	7.037398	-1.914520	-0.482910	-0.274170	-0.212891	4.469498	73.695342	117.460692
19198		-18.022953	3.772487	14.214372	0.802603	6.533217	-2.183239	-0.453857	-0.279785	-0.191162	0.711852	77.493792	113.106147
19199		-16.208965	4.767363	13.426025	0.864234	6.052825	-2.354015	-0.419922	-0.268311	-0.165527	-6.852119	80.891623	104.903329
19200		-12.672675	4.752993	10.918826	0.834215	5.601988	-2.491196	-0.394043	-0.261475	-0.149658	-22.652677	83.659217	88.479916
19201		-10.570306	4.648808	8.360647	0.712322	5.265555	-2.773275	-0.349854	-0.246094	-0.117920	-54.352691	85.082263	56.224013
19202		-5.066635	-0.917868	7.909129	0.470258	4.269968	-3.071165	-0.325928	-0.237061	-0.096924	-85.520898	84.234004	24.654415
19203		-15.014369	-1.051494	22.266633	1.718003	2.479344	-3.073214	-0.318604	-0.226807	-0.078857	-96.421396	82.436391	12.687763
19204		-25.965370	4.656311	24.154998	1.854410	-0.285578	-2.861302	-0.300537	-0.216064	-0.064941	-93.301235	80.813698	14.764899
19205		-2.634627	11.197644	14.949992	1.639802	-2.062978	-2.498706	-0.282715	-0.208252	-0.053711	-85.622086	79.366023	21.601929
19206		-1.324455	10.516229	10.327434	0.883973	-2.781935	-1.965012	-0.271240	-0.198242	-0.062256	-78.019018	78.019324	28.835635
19207		-0.452207	10.169496	7.424121	0.289623	-3.146131	-1.223122	-0.266602	-0.184814	-0.068115	-70.854868	76.855266	35.999931
19208		2.557058	9.123400	4.646716	-0.146985	-3.284101	-0.355583	-0.268799	-0.176025	-0.071777	-64.074891	75.941488	43.059019
19209		2.486545	7.308436	3.793600	-0.356167	-3.290524	0.592686	-0.263428	-0.167480	-0.076416	-57.172581	75.306840	50.388964
19210		2.524735	5.804279	3.286001	-0.376844	-3.194335	1.457519	-0.267090	-0.174561	-0.077637	-49.988344	74.888848	58.043417
19211		1.636490	4.344762	3.535039	-0.285076	-3.080913	2.082758	-0.274414	-0.167725	-0.085205	-42.428220	74.521162	66.043844
19212		-1.398454	2.793704	4.572749	-0.144587	-3.087922	2.437680	-0.282227	-0.172607	-0.093262	-34.718667	74.005518	74.136140
19213		-4.695555	1.987271	6.123991	0.023799	-3.342779	2.541128	-0.286865	-0.173340	-0.102051	-27.104110	73.098956	82.054387
19214		-6.954101	1.373876	7.414228	0.138322	-3.820562	2.428464	-0.295166	-0.179932	-0.112305	-20.247732	71.648771	89.161426
19215		-7.582049	0.149347	7.471819	0.267652	-4.360071	2.224821	-0.291260	-0.179688	-0.131348	-14.485681	69.630991	95.098929
19216		-6.946624	-1.383594	6.592947	0.530511	-4.749420	2.029512	-0.307129	-0.190186	-0.139648	-9.859126	67.213323	99.743263
19217		-5.907349	-1.919669	5.438325	0.917685	-4.869993	1.872302	-0.310303	-0.196777	-0.149414	-6.079434	64.584699	103.300675
19218		-5.733571	-0.991744	4.959869	1.237457	-4.765663	1.734702	-0.318115	-0.205322	-0.169189	-2.978040	61.939969	105.975828
19219		-6.466585	0.677268	4.797928	1.319095	-4.547790	1.634780	-0.318604	-0.205811	-0.176025	-0.411583	59.349351	108.046394
19220		-7.279508	1.644134	4.945004	1.152514	-4.254608	1.665450	-0.325195	-0.210205	-0.192627	1.736080	56.900231	109.794441
19221		-8.211248	1.556234	5.289096	0.879983	-3.905235	1.846868	-0.320557	-0.229980	-0.203125	3.645499	54.601720	111.487530
19222		-8.897753	0.349862	5.761867	0.683419	-3.540634	2.164848	-0.338135	-0.238525	-0.225830	5.490653	52.480412	113.291428
19223		-10.563348	-0.368144	6.648751	0.614947	-3.219945	2.467771	-0.340332	-0.248779	-0.247803	7.354283	50.475185	115.216147
19224		-12.721603	-0.395668	7.879482	0.546000	-3.040113	2.610677	-0.339844	-0.265625	-0.262451	9.108075	48.536977	117.107416
19225		-14.779500	0.028469	8.961296	0.393313	-3.059617	2.515845	-0.354248	-0.270996	-0.291016	10.562291	46.550124	118.766476
19226		-15.799687	-0.628510	8.898030	0.203994	-3.159264	2.286242	-0.363037	-0.291016	-0.314697	11.633496	44.521816	120.100033
19227		-17.018864	-2.227381	8.327527	0.230110	-3.247472	2.073791	-0.387695	-0.297852	-0.337646	12.500917	42.441344	121.162945
19228		-18.480171	-2.565844	7.219153	0.516526	-3.283205	1.951856	-0.400635	-0.315186	-0.363037	13.386257	40.357773	122.050372
19229		-19.203588	-1.542119	5.902244	0.820748	-3.253816	1.937822	-0.431152	-0.330322	-0.380127	14.374366	38.270530	122.862329
19230		-20.238796	0.194440	4.950887	0.925019	-3.136396	1.970358	-0.461670	-0.341797	-0.396973	15.383632	36.244256	123.649807
19231		-20.761658	0.684124	4.037815	0.811017	-3.027508	2.026827	-0.494629	-0.362549	-0.414307	16.304037	34.249572	124.434444
19232		-20.108553	-0.055767	2.638736	0.642151	-2.856324	2.118802	-0.517822	-0.373291	-0.419189	17.126989	32.333472	125.258870
19233		-20.286981	-0.620115	1.892179	0.503893	-2.651890	2.221900	-0.554199	-0.381104	-0.435547	17.878916	30.495163	126.142619
19234		-20.475794	-0.466956	1.414546	0.279618	-2.507580	2.248661	-0.582031	-0.395752	-0.446289	18.480914	28.728699	127.031713
19235		-19.476850	-0.334015	0.472203	-0.075387	-2.391065	2.164217	-0.616943	-0.403809	-0.445068	18.828057	27.030536	127.861688
19236		-17.877600	-0.848108	-0.874230	-0.464284	-2.214609	1.959477	-0.642090	-0.396240	-0.462891	18.884745	25.467488	128.585892
19237		-16.329677	-1.961339	-2.448923	-0.730561	-1.923821	1.656708	-0.671143	-0.395020	-0.461182	18.717775	24.117369	129.181080
19238		-15.410051	-3.983109	-3.927769	-0.711068	-1.542029	1.296288	-0.684082	-0.397949	-0.467773	18.495716	23.043641	129.638453
19239		-15.145102	-6.290776	-5.364317	-0.285422	-1.126325	0.947148	-0.695313	-0.390625	-0.486328	18.462098	22.261454	129.971247
19240		-14.170419	-2.327784	-6.657535	-0.317090	-0.258076	0.363834	-0.708496	-0.387695	-0.483643	18.343212	22.055922	130.131389
19241		-13.682309	-3.070157	-11.556289	-0.703773	0.645485	-0.369143	-0.695068	-0.384766	-0.493164	17.904914	22.477710	130.035150
19242		-4.957346	-5.381048	-6.878963	-1.214786	1.561512	-1.196272	-0.683594	-0.385010	-0.503418	17.046536	23.537463	129.613716
19243		-3.762732	-1.898745	11.736956	-0.662123	1.997234	-1.293934	-0.659668	-0.376465	-0.501465	16.496282	24.853491	129.194011
19244		-7.623583	4.150803	19.459253	-0.488760	1.551695	-0.952380	-0.640869	-0.372314	-0.511475	16.087263	25.860406	128.887281
19245		-2.045683	2.917470	12.993605	-0.346380	1.533778	-0.647510	-0.637207	-0.372070	-0.518066	15.830724	26.813476	128.754952
19246		1.016715	1.855335	5.248401	-0.324916	2.186627	-0.811946	-0.613281	-0.364502	-0.517578	15.588982	28.145936	128.629348
19247		-10.639775	3.611181	10.287061	-0.393966	2.696574	-1.015857	-0.586670	-0.359131	-0.516113	15.278875	29.795602	128.453877
19248		-27.221935	12.558323	15.387812	-1.068349	1.788379	-0.971294	-0.569336	-0.349854	-0.536133	14.506674	30.929286	128.132502
19249		-7.543446	3.437332	4.117735	-1.041661	0.725530	-0.402947	-0.566650	-0.339111	-0.535889	13.835249	31.395721	127.985927
19250		-9.968525	-3.742187	10.027380	-0.856812	0.877485	-0.608454	-0.562988	-0.340576	-0.528809	13.208322	31.966402	127.722413
19251		-10.124473	-2.429262	11.958445	-0.478866	0.194223	-0.243622	-0.550781	-0.334961	-0.541504	12.863301	32.113707	127.587424
19252		-5.573732	-2.993389	8.708958	-0.327038	0.181635	-0.270375	-0.552002	-0.335205	-0.540771	12.595862	32.249657	127.432616
19253		-7.653884	0.401380	8.912355	-0.072641	0.080105	0.030953	-0.553711	-0.329834	-0.535156	12.569226	32.298192	127.460216
19254		-7.058835	0.382978	8.532596	0.045888	0.033030	0.095067	-0.552734	-0.333496	-0.542480	12.632324	32.305076	127.524617
19255		-6.150446	1.805402	8.481796	0.124740	-0.073366	0.150830	-0.555908	-0.328857	-0.536865	12.748693	32.252925	127.608587
19256		-5.501659	3.136851	8.046196	0.081842	-0.062896	0.110092	-0.550049	-0.340576	-0.536133	12.829931	32.204126	127.668505
19257		-5.491777	2.454586	8.033425	0.011828	-0.078202	0.063214	-0.552734	-0.337646	-0.540283	12.850302	32.160260	127.693723
19258		-5.108097	2.472279	8.245027	-0.062287	-0.086130	-0.021201	-0.552490	-0.336914	-0.539795	12.800893	32.115147	127.663433
19259		-5.186005	2.998648	8.131658	-0.151444	-0.068845	-0.105756	-0.551758	-0.335449	-0.535156	12.669350	32.097844	127.578722
19260		-5.447665	2.303986	8.299680	-0.215209	-0.050529	-0.158105	-0.552490	-0.329346	-0.550293	12.487246	32.089612	127.463552
19261		-5.677393	1.490281	8.442231	-0.220330	-0.053127	-0.166547	-0.559570	-0.325684	-0.545898	12.296376	32.088094	127.341229
19262		-5.781166	1.635371	8.396504	-0.188737	-0.017049	-0.159938	-0.555664	-0.329102	-0.546387	12.131376	32.098213	127.229704
19263		-5.849108	1.485254	8.462589	-0.161152	-0.018495	-0.138671	-0.553711	-0.329834	-0.545898	11.986735	32.112167	127.130718
19264		-5.528191	1.363916	8.373182	-0.122585	-0.015887	-0.121755	-0.545898	-0.333252	-0.547852	11.873077	32.117946	127.044542
19265		-5.216574	1.457328	8.376572	-0.092255	0.007851	-0.105436	-0.554199	-0.320557	-0.550293	11.781412	32.142434	126.971117
19266		-5.011304	1.413949	8.402266	-0.073388	0.044985	-0.096115	-0.553467	-0.327637	-0.541992	11.709358	32.179134	126.910253
19267		-5.180460	1.294715	8.298892	-0.059119	0.063565	-0.088355	-0.545898	-0.324463	-0.549561	11.646579	32.232662	126.855641
19268		-5.246462	1.600373	8.136227	-0.041874	0.075806	-0.068588	-0.549561	-0.327148	-0.555420	11.604406	32.283373	126.817096
19269		-5.164581	1.760261	8.160612	-0.056767	0.085533	-0.078990	-0.549072	-0.324707	-0.543945	11.547677	32.348021	126.771499
19270		-5.190788	1.877894	8.131406	-0.078934	0.079447	-0.092091	-0.546387	-0.327393	-0.548340	11.476011	32.403400	126.717655
19271		-5.464302	1.658115	8.050794	-0.094395	0.072404	-0.099636	-0.549805	-0.324463	-0.548096	11.389237	32.462862	126.656334
19272		-5.314797	1.557818	8.067613	-0.114806	0.053423	-0.113524	-0.541260	-0.321777	-0.545166	11.287257	32.505898	126.584477
19273		-5.306090	1.556907	8.016581	-0.129430	0.040450	-0.123044	-0.535645	-0.324951	-0.550781	11.169501	32.549807	126.503031
19274		-5.304711	1.678766	8.119384	-0.125958	0.042066	-0.113520	-0.538086	-0.320557	-0.552246	11.060100	32.586221	126.429423
19275		-5.303279	1.616645	8.237448	-0.131855	0.045406	-0.120008	-0.539307	-0.318359	-0.545410	10.942162	32.632275	126.350396
19276		-5.345407	1.628596	8.200400	-0.134017	0.038001	-0.121120	-0.541504	-0.321045	-0.551025	10.824904	32.666973	126.270945
19277		-5.403016	1.596696	8.193156	-0.141511	0.041898	-0.131074	-0.544434	-0.318115	-0.543457	10.696961	32.711906	126.183802
19278		-5.269545	1.520212	8.203475	-0.157921	0.040379	-0.150831	-0.542725	-0.318115	-0.556641	10.555179	32.750781	126.084503
19279		-5.550196	1.524782	8.240307	-0.167167	0.046418	-0.168964	-0.532715	-0.311279	-0.553711	10.398808	32.801795	125.972213
19280		-5.386532	1.294257	8.163578	-0.150607	0.042008	-0.161842	-0.536377	-0.316162	-0.560303	10.257004	32.842284	125.865387
19281		-5.229364	1.354494	8.306223	-0.132497	0.052742	-0.161433	-0.531738	-0.304199	-0.560547	10.123265	32.895595	125.758515
19282		-5.348451	1.284825	8.149278	-0.109560	0.069040	-0.146344	-0.538086	-0.314697	-0.547607	10.012053	32.949374	125.664992
19283		-4.938049	1.284943	8.223078	-0.069723	0.099837	-0.132985	-0.534180	-0.301270	-0.555908	9.927315	33.026032	125.582446
19284		-5.189746	1.661213	8.345229	-0.050927	0.146129	-0.128698	-0.528320	-0.306641	-0.552979	9.860725	33.121347	125.509510
19285		-5.690430	1.171457	8.185574	-0.040046	0.165384	-0.126053	-0.522949	-0.311523	-0.555908	9.799305	33.234058	125.438908
19286		-5.464237	1.416054	8.233899	-0.034978	0.165021	-0.123960	-0.530518	-0.306641	-0.547119	9.744357	33.339449	125.370950
19287		-5.399078	1.826720	8.267253	-0.064756	0.185406	-0.167383	-0.524658	-0.310791	-0.556641	9.654141	33.467294	125.274205
19288		-5.625132	1.473062	8.135305	-0.097152	0.192265	-0.200235	-0.525146	-0.301025	-0.554688	9.536176	33.595185	125.157094
19289		-5.866949	1.268906	8.059406	-0.099506	0.173382	-0.203819	-0.525391	-0.303955	-0.559814	9.410789	33.719300	125.033398
19290		-5.532415	1.155518	8.111309	-0.089842	0.158803	-0.190513	-0.516846	-0.308350	-0.555176	9.297651	33.826958	124.918174
19291		-5.484129	1.214915	8.004169	-0.072290	0.155278	-0.179359	-0.516357	-0.302490	-0.554199	9.195090	33.938160	124.808214
19292		-5.277308	1.332111	8.021957	-0.043170	0.181201	-0.163447	-0.513672	-0.307617	-0.553711	9.119604	34.055689	124.713172
19293		-4.974608	1.250671	8.215711	-0.004230	0.218451	-0.152872	-0.513428	-0.303955	-0.553955	9.069303	34.199930	124.627555
19294		-4.791448	1.631205	8.491179	0.009289	0.298185	-0.168904	-0.508545	-0.309326	-0.565430	9.028212	34.383995	124.540933
19295		-5.548226	1.467299	8.332965	0.014076	0.369839	-0.187221	-0.508057	-0.293701	-0.553223	8.983566	34.616704	124.447554
19296		-5.694286	0.664009	8.380022	0.060593	0.427474	-0.154712	-0.504639	-0.305664	-0.554688	8.984488	34.872586	124.384059
19297		-5.874420	0.812198	8.442588	0.141936	0.486521	-0.098192	-0.498047	-0.300537	-0.559082	9.054702	35.163268	124.364419
19298		-5.681541	0.958977	8.410916	0.230892	0.553631	-0.034486	-0.495605	-0.310303	-0.554443	9.209205	35.479718	124.398700
19299		-5.687585	1.248129	8.453372	0.313666	0.629038	0.018819	-0.493896	-0.306885	-0.549316	9.435512	35.840127	124.478389
19300		-5.303996	2.098650	8.684661	0.300866	0.705783	-0.010274	-0.481445	-0.301514	-0.551025	9.652766	36.240037	124.550588
19301		-5.112726	2.640853	8.933876	0.233613	0.802363	-0.105254	-0.486328	-0.312256	-0.541016	9.797143	36.709713	124.567934
19302		-5.184052	2.348062	9.115497	0.166233	0.902121	-0.210572	-0.477783	-0.305664	-0.536865	9.869585	37.239765	124.526046
19303		-4.919840	2.252399	9.414161	0.106713	1.057552	-0.335956	-0.468506	-0.313477	-0.538086	9.861873	37.875810	124.412469
19304		-4.312491	2.597972	9.862894	0.050362	1.346752	-0.462394	-0.454590	-0.317627	-0.534180	9.788765	38.681496	124.244021
19305		-5.064792	0.778863	10.179487	0.047705	1.725942	-0.503538	-0.436768	-0.312744	-0.534180	9.717920	39.710588	124.087865
19306		-4.155299	0.740643	10.609895	0.130478	2.146495	-0.492357	-0.434082	-0.317383	-0.535400	9.732942	40.970576	123.991891
19307		-3.864918	0.461408	11.297274	0.226995	2.742657	-0.428707	-0.405762	-0.312500	-0.525391	9.882420	42.565929	124.020353
19308		-3.104093	0.375498	11.392966	0.329448	3.472186	-0.368998	-0.389160	-0.317871	-0.515137	10.202830	44.561907	124.207856
19309		-3.436591	0.992456	11.765391	0.484940	4.270359	-0.363824	-0.347412	-0.316895	-0.496094	10.722322	47.010031	124.544281
19310		-4.884813	2.505307	11.709568	0.439546	4.871935	-0.472650	-0.320801	-0.314209	-0.491943	11.273902	49.802072	124.941687
19311		-6.125372	3.379020	10.775658	0.242235	5.410820	-0.692240	-0.282959	-0.318848	-0.468262	11.693137	52.922428	125.299771
19312		-9.688349	2.704931	11.977911	0.124110	5.761559	-0.936481	-0.254150	-0.322510	-0.446045	11.976346	56.263700	125.556929
19313		-9.754724	2.580553	12.514873	0.040525	5.922814	-1.155589	-0.206299	-0.319092	-0.420898	12.088384	59.723195	125.660497
19314		-11.987268	2.903875	12.582058	0.040013	6.027432	-1.296614	-0.169922	-0.311768	-0.398193	12.103400	63.255937	125.648771
19315		-14.245332	3.497613	12.219526	0.097376	5.709090	-1.480133	-0.132813	-0.304932	-0.381104	11.825275	66.633282	125.278943
19316		-14.354564	4.917664	10.588632	0.103476	5.243399	-1.657405	-0.109131	-0.302734	-0.349121	11.041415	69.766491	124.368605
19317		-12.307464	5.323076	7.796054	-0.121985	4.678999	-1.801253	-0.081543	-0.293457	-0.328125	9.372094	72.588541	122.677648
19318		-7.138899	4.452316	9.639843	-0.483237	3.878702	-1.967511	-0.067871	-0.284180	-0.317627	6.291422	74.944563	119.755646
19319		-10.544661	2.353496	20.650665	-0.516501	2.109711	-1.831735	-0.042969	-0.275879	-0.304443	2.258002	76.227861	115.895010
19320		-15.593201	2.773667	19.761584	-0.251902	0.382900	-1.726959	-0.041992	-0.259521	-0.313965	-1.965259	76.449599	111.694977
19321		0.925196	3.811496	13.533767	-0.019514	-0.850443	-1.493652	-0.045410	-0.257568	-0.319092	-5.334489	75.904174	108.234604
19322		2.094091	4.374364	9.208158	-0.030606	-1.354724	-1.361749	-0.045654	-0.250977	-0.328857	-8.003515	75.041718	105.493187
19323		1.761106	4.319553	7.730881	-0.058992	-1.611560	-1.217346	-0.055176	-0.251953	-0.340332	-10.009466	74.013865	103.444295
