// General information: 
//  MT Manager version: 2022.2.0 
//  XDA version: 2022.2.0 build 7381 rev 124627 built on 2023-07-19
// Device information: 
//  DeviceId: 00B4C3A0
//  ProductCode: MTW2-3A7G6
//  Firmware Version: 4.6.0
//  Hardware Version: 2.0.0
// Device settings: 
//  Filter Profile: human(46.1)
//  Option Flags: Orientation Smoother Disabled, Position/Velocity Smoother Disabled, Continuous Zero Rotation Update Disabled, AHS Disabled, ICC Disabled
// Coordinate system: ENU
PacketCounter	SampleTimeFine	Acc_X	Acc_Y	Acc_Z	Gyr_X	Gyr_Y	Gyr_Z	Mag_X	Mag_Y	Mag_Z	Roll	Pitch	Yaw
62703		9.543386	-0.061245	-0.691044	0.009422	-0.007251	-0.002088	-0.370361	-0.121338	0.687988	-169.170769	-85.275792	-24.775779
62704		9.567869	-0.014859	-0.777845	0.007011	-0.010019	-0.002259	-0.371094	-0.115967	0.691895	-169.201217	-85.269063	-24.736305
62705		9.599509	-0.044062	-0.819506	0.017853	0.004362	-0.002493	-0.381348	-0.107178	0.698730	-169.201196	-85.270849	-24.721105
62706		9.599359	-0.065291	-0.775000	0.014015	0.008975	-0.005039	-0.372803	-0.105225	0.689453	-169.220917	-85.275121	-24.687812
62707		9.555135	-0.072234	-0.831599	0.017919	0.018012	0.005063	-0.368896	-0.111816	0.690430	-169.151617	-85.283777	-24.742091
62708		9.599331	-0.087110	-0.728753	0.007616	0.004220	-0.001970	-0.365723	-0.109863	0.689209	-169.160329	-85.284997	-24.723346
62709		9.607080	-0.098207	-0.815902	0.003005	-0.008164	-0.001035	-0.367432	-0.118408	0.690918	-169.175249	-85.279578	-24.701692
62710		9.683700	-0.056239	-0.931250	0.001383	0.002222	-0.002672	-0.367432	-0.116455	0.690674	-169.196046	-85.279680	-24.674875
62711		9.635647	-0.052016	-0.955656	0.006828	0.018159	-0.000022	-0.363037	-0.109131	0.682861	-169.167538	-85.288965	-24.694599
62712		9.663472	-0.092105	-0.918570	0.010076	0.024484	0.003738	-0.368408	-0.119141	0.678955	-169.110291	-85.300913	-24.741041
62713		9.607873	-0.066462	-0.876545	0.003650	0.025491	0.003777	-0.366943	-0.119385	0.687744	-169.047576	-85.313908	-24.796913
62714		9.656283	-0.070986	-0.847985	-0.005981	0.039592	0.004582	-0.365723	-0.112549	0.681885	-168.973456	-85.334340	-24.870134
62715		9.677045	-0.046421	-0.831448	-0.006372	0.047531	0.005063	-0.366943	-0.119629	0.692627	-168.876892	-85.359574	-24.965725
62716		9.677717	-0.025208	-0.870913	-0.001986	0.043514	0.000356	-0.367432	-0.110107	0.692383	-168.822924	-85.382579	-25.016088
62717		9.677637	-0.057256	-0.800736	0.003219	0.046894	-0.002779	-0.369629	-0.120361	0.683350	-168.774774	-85.408310	-25.057589
62718		9.681768	-0.078810	-0.806634	0.001638	0.049608	-0.000366	-0.368896	-0.120361	0.688232	-168.713986	-85.434835	-25.112643
62719		9.653776	-0.092585	-0.726995	0.006473	0.055162	0.000007	-0.367676	-0.113525	0.683594	-168.631402	-85.464889	-25.186812
62720		9.657914	-0.114352	-0.732454	0.004071	0.050476	0.000845	-0.380371	-0.113770	0.690674	-168.558045	-85.491760	-25.253239
62721		9.614573	-0.099656	-0.829979	-0.001583	0.041378	-0.003103	-0.372070	-0.106934	0.690186	-168.520463	-85.514416	-25.286893
62722		9.618885	-0.110578	-0.858578	-0.001947	0.039709	0.002419	-0.373047	-0.113281	0.680420	-168.452316	-85.535122	-25.351012
62723		9.595067	-0.113661	-0.857059	0.005619	0.030268	-0.007098	-0.366943	-0.108154	0.684326	-168.454994	-85.551994	-25.340144
62724		9.615914	-0.077906	-0.863497	0.010919	0.033856	0.004397	-0.380371	-0.114502	0.685059	-168.373429	-85.569143	-25.410436
62725		9.616237	-0.078230	-0.859863	0.010910	0.041557	0.000383	-0.373291	-0.103027	0.683838	-168.301499	-85.591485	-25.471357
62726		9.612051	-0.088820	-0.779913	0.015120	0.032846	0.000443	-0.373779	-0.118408	0.683838	-168.245988	-85.608596	-25.512990
62727		9.615774	-0.121383	-0.766198	0.028751	0.014945	-0.000562	-0.380371	-0.115967	0.678711	-168.210281	-85.616113	-25.527327
62728		9.620081	-0.121760	-0.820246	0.036338	-0.007972	-0.003038	-0.366943	-0.109619	0.691406	-168.230980	-85.610775	-25.481086
62729		9.696903	-0.101402	-0.891598	0.035128	-0.005508	-0.005137	-0.374268	-0.120605	0.691406	-168.256171	-85.607354	-25.430681
62730		9.672827	-0.104520	-0.893039	0.035564	0.013701	-0.005076	-0.374756	-0.112305	0.683838	-168.259964	-85.614187	-25.401519
62731		9.668960	-0.093366	-0.858746	0.046638	0.023195	-0.004964	-0.377441	-0.117432	0.693604	-168.233688	-85.626846	-25.396118
62732		9.632671	-0.073883	-0.738832	0.043009	0.026732	-0.009260	-0.373047	-0.108398	0.687744	-168.243561	-85.641599	-25.356686
62733		9.588117	-0.112263	-0.729400	0.036151	0.008531	-0.009291	-0.370361	-0.106445	0.689209	-168.277670	-85.646535	-25.296752
62734		9.592521	-0.112137	-0.782733	0.019088	0.013479	-0.006322	-0.373535	-0.110840	0.685791	-168.299725	-85.653421	-25.258275
62735		9.568768	-0.104327	-0.805412	0.016672	0.010701	-0.006509	-0.372070	-0.111084	0.685059	-168.321354	-85.659248	-25.222051
62736		9.545007	-0.096706	-0.828232	0.018904	0.010724	-0.002554	-0.376221	-0.112793	0.673584	-168.320289	-85.664205	-25.207239
62737		9.573000	-0.114851	-0.836001	0.029732	0.005695	-0.007253	-0.370361	-0.115967	0.687500	-168.347708	-85.667309	-25.157703
62738		9.548941	-0.117690	-0.837334	0.034957	0.005234	-0.008352	-0.367676	-0.115234	0.684814	-168.389096	-85.669914	-25.091465
62739		9.593140	-0.099536	-0.800635	0.027128	0.004010	-0.005685	-0.374756	-0.105957	0.685791	-168.409053	-85.671887	-25.050909
62740		9.613463	-0.074360	-0.788059	0.033377	0.000261	-0.001918	-0.372559	-0.111816	0.684814	-168.411192	-85.670865	-25.024590
62741		9.640824	-0.113783	-0.753134	0.036954	-0.011186	-0.008180	-0.374268	-0.110840	0.686279	-168.467029	-85.664593	-24.942406
62742		9.652384	-0.167918	-0.808193	0.027287	-0.026155	-0.006914	-0.377441	-0.109619	0.691162	-168.549124	-85.649346	-24.839515
62743		9.641249	-0.081155	-0.823431	0.032327	-0.027443	-0.005251	-0.372559	-0.109131	0.684570	-168.609532	-85.633596	-24.755403
62744		9.665171	-0.077436	-0.823845	0.036145	-0.020510	-0.008727	-0.385498	-0.110352	0.681641	-168.690047	-85.621714	-24.648871
62745		9.693438	-0.074276	-0.878030	0.040796	-0.013847	-0.006597	-0.368652	-0.106201	0.687500	-168.734640	-85.613738	-24.575751
62746		9.656876	-0.054415	-0.761416	0.037602	-0.002653	-0.004841	-0.375732	-0.111816	0.683594	-168.758822	-85.611515	-24.524902
62747		9.632557	-0.068402	-0.740837	0.028798	0.011182	0.001501	-0.368652	-0.108398	0.681885	-168.714337	-85.616696	-24.548016
62748		9.580344	-0.064395	-0.711261	0.014530	0.007095	0.006175	-0.376221	-0.112061	0.683838	-168.657431	-85.618657	-24.591935
62749		9.584670	-0.065592	-0.765208	0.007267	0.002587	0.003593	-0.371338	-0.106201	0.679932	-168.622463	-85.618770	-24.617875
62750		9.512851	-0.054923	-0.814365	0.008283	0.006993	0.004423	-0.372070	-0.115723	0.682373	-168.581840	-85.620902	-24.649024
62751		9.516464	-0.087736	-0.802122	0.017336	0.005776	0.003884	-0.373779	-0.114990	0.681152	-168.534217	-85.622770	-24.681871
62752		9.589132	-0.067598	-0.817555	0.017136	0.014555	0.001588	-0.372803	-0.108887	0.689209	-168.498813	-85.629462	-24.703207
62753		9.641039	-0.093482	-0.800742	0.015924	0.015086	0.000485	-0.373047	-0.111572	0.681396	-168.462921	-85.636942	-24.725100
62754		9.641135	-0.093802	-0.799550	0.015933	0.009323	0.003520	-0.373779	-0.105225	0.684570	-168.421231	-85.640425	-24.752987
62755		9.641449	-0.083431	-0.820849	0.011471	0.005412	-0.002369	-0.370361	-0.108643	0.686523	-168.423363	-85.642802	-24.739305
62756		9.642052	-0.062298	-0.863891	0.019943	0.015161	-0.001708	-0.374512	-0.102783	0.682373	-168.408764	-85.650138	-24.737466
62757		9.621630	-0.097792	-0.852603	0.022749	0.015763	-0.005008	-0.365723	-0.109619	0.695068	-168.408280	-85.658629	-24.719926
62758		9.589246	-0.088982	-0.765884	0.023577	0.021266	-0.002430	-0.366699	-0.104248	0.678955	-168.387890	-85.669405	-24.721722
62759		9.565272	-0.092202	-0.766056	0.020141	0.014075	-0.003444	-0.375488	-0.101318	0.689209	-168.379901	-85.676769	-24.713208
62760		9.585893	-0.056298	-0.775102	0.011861	0.001308	-0.004840	-0.372070	-0.108643	0.690430	-168.413928	-85.676677	-24.666988
62761		9.578244	-0.012387	-0.754450	0.013267	-0.002234	-0.004466	-0.375732	-0.104004	0.682861	-168.442336	-85.675003	-24.625922
62762		9.603119	0.022786	-0.819174	0.009637	-0.008335	-0.003738	-0.372314	-0.102295	0.679932	-168.484333	-85.669397	-24.573290
62763		9.602524	0.001952	-0.775841	0.006831	-0.007013	-0.001448	-0.373779	-0.106689	0.682861	-168.501166	-85.664691	-24.547531
62764		9.598104	0.002786	-0.722270	-0.004647	-0.010510	-0.000099	-0.371338	-0.107910	0.687500	-168.527223	-85.657484	-24.519025
62765		9.598022	0.002962	-0.723362	-0.009492	-0.012241	-0.002499	-0.369385	-0.110596	0.679932	-168.568863	-85.649960	-24.477766
62766		9.577361	-0.032227	-0.715054	-0.011526	-0.019134	-0.005164	-0.370850	-0.109131	0.686279	-168.649662	-85.638425	-24.398661
62767		9.601771	-0.007008	-0.759995	-0.012781	-0.038081	-0.010757	-0.372070	-0.097656	0.687256	-168.791206	-85.617298	-24.259094
62768		9.681467	-0.039402	-0.778655	-0.007742	-0.035517	-0.011108	-0.373779	-0.103027	0.688232	-168.934889	-85.597172	-24.114221
62769		9.636300	-0.087672	-0.752401	0.010763	-0.042038	-0.014642	-0.369629	-0.104004	0.690430	-169.094105	-85.574189	-23.943392
62770		9.639783	-0.108242	-0.767151	0.012186	-0.049411	-0.012231	-0.373291	-0.108643	0.686523	-169.250856	-85.546299	-23.773938
62771		9.591415	-0.102821	-0.797439	-0.012823	-0.046006	-0.021268	-0.371338	-0.106934	0.684082	-169.472966	-85.521703	-23.553567
62772		9.619444	-0.098001	-0.853832	-0.027511	-0.032554	-0.021204	-0.374512	-0.106934	0.684082	-169.690551	-85.504224	-23.346330
62773		9.639335	-0.081291	-0.822299	-0.012793	-0.022691	-0.018808	-0.374512	-0.103760	0.686279	-169.860898	-85.492401	-23.177855
62774		9.679548	-0.039355	-0.778404	-0.001753	-0.028785	-0.025213	-0.371094	-0.106201	0.687988	-170.084243	-85.477382	-22.949821
62775		9.682960	-0.069327	-0.769820	0.013764	-0.034802	-0.023714	-0.360107	-0.111328	0.691162	-170.287058	-85.459107	-22.733505
62776		9.706803	-0.063821	-0.771596	0.019012	-0.039085	-0.022775	-0.366455	-0.102539	0.688477	-170.491542	-85.437725	-22.512607
62777		9.630545	-0.039652	-0.791879	0.010762	-0.028546	-0.021691	-0.359131	-0.110840	0.683105	-170.671044	-85.422679	-22.321392
62778		9.598778	0.012904	-0.796831	0.000701	-0.010376	-0.018520	-0.369629	-0.102539	0.685303	-170.819747	-85.417036	-22.166846
62779		9.562811	0.055464	-0.724501	0.005747	-0.011652	-0.016861	-0.366211	-0.103271	0.680664	-170.947269	-85.411027	-22.030655
62780		9.647659	0.135886	-0.687582	-0.010946	-0.014708	-0.014378	-0.361572	-0.106201	0.685547	-171.076636	-85.402628	-21.901963
62781		9.518643	0.071503	-0.830152	-0.000401	-0.034791	-0.006428	-0.367676	-0.105225	0.683594	-171.158853	-85.382554	-21.814754
62782		9.606428	0.066234	-0.673351	-0.032611	-0.031835	-0.005419	-0.369629	-0.104736	0.696533	-171.255840	-85.363577	-21.731194
62783		9.562172	0.080460	-0.779515	-0.025118	-0.055515	-0.004978	-0.364502	-0.103271	0.687500	-171.362510	-85.331616	-21.633655
62784		9.589267	0.020741	-0.705473	-0.026123	-0.057982	-0.006788	-0.369385	-0.106934	0.691650	-171.490366	-85.297901	-21.515141
62785		9.520541	0.021488	-0.793128	-0.047057	-0.067931	-0.010842	-0.365234	-0.111328	0.690674	-171.659245	-85.259358	-21.367785
62786		9.572405	0.060802	-0.916290	-0.053706	-0.060091	-0.012108	-0.367188	-0.112305	0.685791	-171.837588	-85.224874	-21.214898
62787		9.543639	0.017556	-0.780816	-0.048704	-0.051760	-0.015512	-0.372070	-0.106689	0.692139	-172.018560	-85.195807	-21.056338
62788		9.538104	-0.103291	-0.817662	-0.055118	-0.052683	-0.014457	-0.364746	-0.103516	0.690430	-172.201794	-85.165717	-20.899373
62789		9.554135	-0.075882	-0.756204	-0.055279	-0.053495	-0.011674	-0.368408	-0.110840	0.692627	-172.358357	-85.135289	-20.769077
62790		9.593055	-0.125886	-0.868068	-0.048021	-0.064544	-0.015585	-0.364746	-0.111328	0.699951	-172.551141	-85.098404	-20.598113
62791		9.636938	-0.105951	-0.838719	-0.042577	-0.067971	-0.017402	-0.369385	-0.106689	0.688965	-172.746398	-85.060099	-20.421662
62792		9.623652	-0.204453	-0.813115	-0.026614	-0.081882	-0.016394	-0.370361	-0.111328	0.688232	-172.940870	-85.013319	-20.236750
62793		9.619175	-0.170150	-0.832704	-0.027417	-0.085408	-0.019919	-0.365234	-0.112549	0.691162	-173.151355	-84.965168	-20.036268
62794		9.618543	-0.168144	-0.840379	-0.015361	-0.073424	-0.018073	-0.359131	-0.109375	0.686523	-173.336617	-84.923296	-19.854419
62795		9.538135	-0.143663	-0.808965	-0.006352	-0.068855	-0.021699	-0.362549	-0.114746	0.689209	-173.527227	-84.884566	-19.661747
62796		9.557809	-0.105638	-0.825951	-0.004306	-0.079438	-0.024485	-0.359863	-0.115234	0.688721	-173.745139	-84.839489	-19.440708
62797		9.629116	-0.050501	-0.916287	0.000096	-0.067877	-0.022705	-0.365967	-0.108154	0.688721	-173.931570	-84.801259	-19.248498
62798		9.652654	-0.045087	-0.920973	-0.001885	-0.061096	-0.017842	-0.353027	-0.103027	0.689453	-174.087810	-84.766164	-19.087942
62799		9.697176	-0.057205	-0.825255	-0.000697	-0.057781	-0.018767	-0.359619	-0.111572	0.686279	-174.238915	-84.733360	-18.931642
62800		9.680117	-0.102442	-0.853470	0.000370	-0.059133	-0.014902	-0.361328	-0.112305	0.694824	-174.370353	-84.699051	-18.794248
62801		9.679287	-0.079845	-0.902962	0.002590	-0.055270	-0.013001	-0.365234	-0.113525	0.694336	-174.479167	-84.667293	-18.678513
62802		9.703124	-0.085966	-0.884676	0.013672	-0.051522	-0.009987	-0.361816	-0.107910	0.694092	-174.565749	-84.637095	-18.578991
62803		9.650874	-0.080840	-0.860096	0.012644	-0.052063	-0.012802	-0.357178	-0.118164	0.698242	-174.663336	-84.607121	-18.468736
62804		9.570116	-0.025427	-0.892447	0.019280	-0.054100	-0.014576	-0.364746	-0.112061	0.688477	-174.773759	-84.575597	-18.342013
62805		9.521826	-0.052609	-0.856742	0.021789	-0.058969	-0.010333	-0.368652	-0.109619	0.688965	-174.852686	-84.541519	-18.245227
62806		9.500173	-0.045077	-0.940718	0.018632	-0.069092	-0.011951	-0.355225	-0.108887	0.702393	-174.952367	-84.501503	-18.129655
62807		9.547538	-0.026540	-0.966226	0.015796	-0.063954	-0.011666	-0.361816	-0.111328	0.692871	-175.042721	-84.464617	-18.024826
62808		9.566784	0.020564	-1.004120	0.017645	-0.057936	-0.006306	-0.353271	-0.106445	0.694580	-175.101873	-84.430432	-17.950303
62809		9.566178	0.021031	-1.009874	0.016671	-0.062297	-0.007067	-0.352051	-0.114014	0.705078	-175.161857	-84.394245	-17.875473
62810		9.585960	0.046468	-1.003794	0.010908	-0.058613	-0.000699	-0.356201	-0.107178	0.695068	-175.191455	-84.359278	-17.834490
62811		9.606451	0.050370	-0.953102	0.003827	-0.048676	0.001499	-0.353760	-0.110107	0.700684	-175.201499	-84.330448	-17.817230
62812		9.584939	0.046135	-1.013519	-0.000188	-0.046846	0.002727	-0.348877	-0.104980	0.691406	-175.211200	-84.302122	-17.802563
62813		9.608635	0.048958	-1.016310	-0.008961	-0.038887	0.012105	-0.359619	-0.112305	0.699951	-175.163186	-84.278371	-17.851012
62814		9.583455	0.065983	-1.065128	-0.022768	-0.034763	0.005631	-0.355469	-0.114014	0.702637	-175.163585	-84.256831	-17.858745
62815		9.634779	0.061364	-1.097688	-0.030251	-0.020771	0.010264	-0.360107	-0.106201	0.699463	-175.129989	-84.243508	-17.904967
62816		9.614143	0.035659	-1.111342	-0.037950	-0.017365	0.008222	-0.360352	-0.102539	0.704590	-175.116246	-84.231795	-17.935745
62817		9.661872	0.052758	-1.132313	-0.043344	-0.015842	0.011123	-0.351074	-0.105957	0.697998	-175.083216	-84.221240	-17.988940
62818		9.666474	-0.001594	-1.078229	-0.038704	-0.011138	0.014148	-0.350342	-0.102295	0.695068	-175.033238	-84.212742	-18.055957
62819		9.666937	-0.023232	-1.036537	-0.042908	-0.035364	0.002333	-0.348633	-0.111084	0.695313	-175.059204	-84.191474	-18.049603
62820		9.679741	-0.067193	-1.170934	-0.053598	-0.051608	0.003830	-0.354980	-0.112793	0.696533	-175.095896	-84.160336	-18.038334
62821		9.726317	-0.027639	-1.238921	-0.045746	-0.043782	-0.004757	-0.358643	-0.105469	0.692383	-175.166608	-84.134606	-17.988635
62822		9.697749	0.001797	-1.254522	-0.040186	-0.017343	0.004383	-0.355225	-0.111572	0.697998	-175.175635	-84.123166	-17.997724
62823		9.643166	0.006358	-1.170984	-0.030504	-0.003544	0.001106	-0.353027	-0.111084	0.690430	-175.185856	-84.120122	-18.000053
62824		9.591977	-0.000141	-1.119198	-0.034698	-0.000643	0.004078	-0.353271	-0.113037	0.703369	-175.185924	-84.118184	-18.015145
62825		9.533103	0.047342	-1.067769	-0.050207	0.003443	0.003817	-0.355713	-0.104004	0.696533	-175.189143	-84.118999	-18.035863
62826		9.533164	0.047410	-1.067218	-0.063435	0.007549	0.007475	-0.349121	-0.107422	0.693115	-175.182791	-84.121515	-18.073560
62827		9.505096	0.075926	-1.078778	-0.071962	0.012524	0.016201	-0.351807	-0.110596	0.700928	-175.125477	-84.126914	-18.167660
62828		9.481443	0.061264	-1.057243	-0.085218	0.005011	0.011446	-0.362549	-0.114502	0.695068	-175.110890	-84.127733	-18.226172
62829		9.505295	0.074906	-1.077093	-0.096333	0.010222	0.020789	-0.352295	-0.122070	0.697021	-175.043013	-84.131579	-18.344928
62830		9.509454	0.041677	-1.064801	-0.111587	0.011380	0.019884	-0.350098	-0.114502	0.702881	-174.993957	-84.135753	-18.454176
62831		9.585675	0.029316	-1.070285	-0.130301	0.016223	0.029310	-0.360840	-0.123779	0.694580	-174.894936	-84.142566	-18.623801
62832		9.613192	0.020441	-1.100865	-0.135885	-0.001240	0.032423	-0.358887	-0.117676	0.699707	-174.796300	-84.138785	-18.796763
62833		9.644261	-0.010093	-1.143030	-0.134640	0.000201	0.032575	-0.351074	-0.122070	0.689941	-174.689631	-84.136223	-18.976576
62834		9.593785	-0.040473	-1.047123	-0.122054	0.006988	0.030107	-0.353271	-0.113770	0.692383	-174.591811	-84.137223	-19.140721
62835		9.591527	-0.063922	-0.949057	-0.111798	-0.008257	0.023058	-0.350342	-0.116943	0.699951	-174.529553	-84.130296	-19.262735
62836		9.580337	-0.110601	-1.082623	-0.106776	-0.021131	0.016172	-0.352783	-0.114258	0.697998	-174.515119	-84.115900	-19.333603
62837		9.490368	-0.156243	-1.134016	-0.092842	-0.029500	0.005503	-0.348145	-0.123291	0.694092	-174.550825	-84.097810	-19.346219
62838		9.486354	-0.134569	-1.126468	-0.078821	-0.038632	0.012157	-0.355713	-0.115723	0.690186	-174.552293	-84.073635	-19.385216
62839		9.453863	-0.072915	-1.152857	-0.082745	-0.030164	0.007672	-0.356445	-0.114746	0.700195	-174.570668	-84.055048	-19.409442
62840		9.477343	-0.058619	-1.175740	-0.085079	-0.019384	0.015085	-0.353516	-0.112305	0.697266	-174.549052	-84.041821	-19.474874
62841		9.501299	-0.055806	-1.175937	-0.094658	-0.011087	0.019088	-0.355713	-0.122314	0.687988	-174.502146	-84.033490	-19.571598
62842		9.518866	-0.032617	-1.110201	-0.093910	-0.010334	0.026457	-0.355957	-0.118164	0.694580	-174.419369	-84.024784	-19.703764
62843		9.546119	-0.041375	-1.142535	-0.091825	-0.007356	0.031134	-0.354492	-0.127197	0.690918	-174.303745	-84.017872	-19.867954
62844		9.599978	-0.035218	-1.249846	-0.082774	-0.010506	0.031421	-0.354004	-0.131348	0.698486	-174.188762	-84.008745	-20.026539
62845		9.626874	-0.033171	-1.303685	-0.078196	-0.002024	0.032453	-0.356201	-0.124756	0.699219	-174.055865	-84.004723	-20.200249
62846		9.655005	-0.064710	-1.291237	-0.076622	0.012649	0.035585	-0.355225	-0.123047	0.695557	-173.902663	-84.008388	-20.394068
62847		9.631729	-0.092506	-1.247765	-0.066164	0.016406	0.028382	-0.356934	-0.125000	0.702637	-173.774222	-84.015026	-20.556365
62848		9.604166	-0.076095	-1.236773	-0.056607	0.010051	0.023379	-0.357178	-0.125977	0.689941	-173.676428	-84.017885	-20.682447
62849		9.584341	-0.124666	-1.205001	-0.042260	0.007243	0.019631	-0.352783	-0.128174	0.697021	-173.586991	-84.019801	-20.791753
62850		9.549918	-0.076290	-1.150955	-0.034401	0.000764	0.020806	-0.349609	-0.127930	0.696777	-173.496263	-84.017529	-20.898284
62851		9.529301	-0.102341	-1.163348	-0.032710	0.000882	0.014613	-0.353760	-0.122803	0.700195	-173.432550	-84.016118	-20.976224
62852		9.542860	-0.035776	-1.128384	-0.031720	0.005231	0.015433	-0.353516	-0.126221	0.688721	-173.366852	-84.016582	-21.055713
62853		9.542223	-0.014574	-1.171454	-0.031657	0.001395	0.017448	-0.355225	-0.119873	0.696777	-173.286865	-84.015254	-21.149410
62854		9.548974	-0.047282	-1.215249	-0.037730	0.002245	0.013109	-0.349609	-0.120850	0.693604	-173.238616	-84.014272	-21.214681
62855		9.599608	-0.018181	-1.309572	-0.030982	0.016406	0.015011	-0.352783	-0.126709	0.697510	-173.161752	-84.021628	-21.304848
62856		9.575802	-0.022487	-1.308334	-0.020540	0.037450	0.013352	-0.356445	-0.121094	0.694092	-173.079407	-84.040530	-21.394461
62857		9.597273	-0.009947	-1.270201	-0.014429	0.045153	0.010936	-0.354004	-0.127197	0.697266	-172.995414	-84.064492	-21.482255
62858		9.598157	-0.022129	-1.244090	-0.010818	0.047340	0.012151	-0.357910	-0.127197	0.690674	-172.905957	-84.089137	-21.573468
62859		9.650883	-0.049263	-1.226237	-0.004446	0.048224	0.010993	-0.345459	-0.116455	0.697021	-172.812355	-84.114812	-21.665163
62860		9.627338	-0.053571	-1.222773	-0.000861	0.052333	0.011210	-0.363770	-0.127197	0.691650	-172.717352	-84.142254	-21.755958
62861		9.652483	-0.062669	-1.193890	-0.004295	0.068356	0.012862	-0.353271	-0.126221	0.697998	-172.597058	-84.179199	-21.874388
62862		9.622292	-0.035563	-1.144638	-0.010849	0.070478	0.014804	-0.355713	-0.130859	0.699951	-172.472341	-84.216757	-22.001359
62863		9.616678	-0.027631	-1.050425	-0.012078	0.072974	0.012758	-0.356689	-0.123047	0.693115	-172.350499	-84.256281	-22.125810
62864		9.579249	0.042492	-0.978656	-0.023429	0.071554	0.013416	-0.355713	-0.134277	0.700439	-172.237084	-84.294404	-22.248605
62865		9.604066	0.044891	-0.970681	-0.027839	0.063982	0.009634	-0.352051	-0.124023	0.692627	-172.145933	-84.329019	-22.351273
62866		9.605040	0.021567	-0.921289	-0.021591	0.062080	0.012255	-0.357666	-0.114014	0.692383	-172.043327	-84.361745	-22.462308
62867		9.640044	-0.006754	-1.011786	-0.020978	0.072417	0.014638	-0.359131	-0.130859	0.688965	-171.909941	-84.400706	-22.603452
62868		9.644457	-0.029496	-1.014974	-0.025967	0.093081	0.017798	-0.353271	-0.119629	0.680664	-171.747432	-84.450648	-22.776580
62869		9.697485	-0.057128	-0.991571	-0.034367	0.110526	0.018002	-0.368652	-0.125977	0.690918	-171.564386	-84.510855	-22.975300
62870		9.694796	-0.014279	-1.012869	-0.040400	0.113363	0.012708	-0.362549	-0.126465	0.693359	-171.415383	-84.572697	-23.143250
62871		9.668417	-0.030814	-0.927059	-0.041964	0.119947	0.013244	-0.354736	-0.130615	0.690430	-171.248406	-84.638542	-23.330159
62872		9.621139	-0.026604	-0.940916	-0.043570	0.109160	0.008084	-0.360840	-0.130371	0.690186	-171.126932	-84.698167	-23.472657
62873		9.605201	-0.050261	-0.998108	-0.039171	0.101352	0.005295	-0.365479	-0.126221	0.689209	-171.017506	-84.754113	-23.600128
62874		9.582060	-0.064955	-0.968431	-0.031562	0.101696	0.005285	-0.365234	-0.132080	0.690430	-170.907798	-84.809795	-23.723851
62875		9.534663	-0.105333	-0.897389	-0.033578	0.098803	0.000649	-0.366455	-0.126221	0.695801	-170.821832	-84.864679	-23.824526
62876		9.535404	-0.127882	-0.845215	-0.026943	0.088982	0.002733	-0.360840	-0.132324	0.689941	-170.734136	-84.913344	-23.923454
62877		9.563904	-0.157602	-0.824340	-0.024889	0.093873	0.006480	-0.368896	-0.129150	0.687500	-170.607008	-84.964869	-24.060437
62878		9.536742	-0.139834	-0.807268	-0.027463	0.067083	0.006278	-0.365967	-0.127441	0.688721	-170.516500	-85.000793	-24.162653
62879		9.585723	-0.110963	-0.840803	-0.028274	0.061673	0.003661	-0.361816	-0.120361	0.689697	-170.440449	-85.034349	-24.250297
62880		9.586134	-0.122477	-0.813156	-0.018289	0.064732	0.003813	-0.367920	-0.122803	0.684326	-170.360056	-85.069093	-24.336273
62881		9.631249	-0.094908	-0.791791	-0.007114	0.071097	0.003079	-0.362061	-0.127197	0.686768	-170.262729	-85.108004	-24.433094
62882		9.599934	-0.078093	-0.721791	-0.006157	0.058065	-0.001817	-0.369385	-0.122803	0.691406	-170.217802	-85.139559	-24.476660
62883		9.624405	-0.074731	-0.715412	-0.002768	0.036154	-0.000655	-0.367920	-0.135010	0.686768	-170.180875	-85.159090	-24.510356
62884		9.600689	-0.066475	-0.735491	-0.001376	0.034533	-0.001345	-0.362305	-0.129395	0.694336	-170.156764	-85.177336	-24.530657
62885		9.607991	-0.131677	-0.712029	0.012145	0.020404	-0.004759	-0.367676	-0.125000	0.685547	-170.156681	-85.188375	-24.518801
62886		9.607765	-0.153890	-0.667371	0.030651	0.008766	-0.008587	-0.357666	-0.121338	0.688477	-170.192889	-85.192686	-24.459921
62887		9.587572	-0.166434	-0.701577	0.038804	0.000080	-0.010982	-0.369629	-0.123535	0.684570	-170.243004	-85.192854	-24.382362
62888		9.535787	-0.139193	-0.715631	0.037783	0.001522	-0.014798	-0.368652	-0.125488	0.677002	-170.324675	-85.193678	-24.273348
62889		9.452570	-0.061086	-0.730995	0.036415	-0.002655	-0.011154	-0.364990	-0.128174	0.687500	-170.380442	-85.192302	-24.191490
62890		9.472937	-0.035452	-0.718445	0.029400	-0.008081	-0.015436	-0.365234	-0.122559	0.685303	-170.482171	-85.187875	-24.067812
62891		9.524716	-0.060746	-0.704861	0.030051	-0.005451	-0.009055	-0.369873	-0.120605	0.686523	-170.530483	-85.184703	-23.997095
62892		9.517362	-0.005973	-0.704889	0.026458	-0.009569	-0.009329	-0.370361	-0.119629	0.686279	-170.593657	-85.178808	-23.913224
62893		9.545275	-0.012187	-0.737170	0.021679	-0.018931	-0.007731	-0.370605	-0.136719	0.691650	-170.652539	-85.167880	-23.836711
62894		9.541641	0.032447	-0.771871	0.012293	-0.034849	-0.008267	-0.369873	-0.112305	0.692871	-170.744518	-85.147624	-23.732805
62895		9.569205	0.015094	-0.784746	0.008887	-0.040027	-0.010301	-0.362549	-0.124268	0.687988	-170.849557	-85.124980	-23.617319
62896		9.552328	-0.018761	-0.834518	0.010291	-0.043579	-0.010000	-0.365479	-0.117432	0.686035	-170.960741	-85.099802	-23.494185
62897		9.551969	-0.018067	-0.838631	0.006139	-0.042571	-0.005951	-0.362793	-0.125732	0.690186	-171.039281	-85.075294	-23.406868
62898		9.548001	0.015123	-0.853184	0.003555	-0.042315	-0.005342	-0.362061	-0.125000	0.684814	-171.120901	-85.050398	-23.317694
62899		9.564330	0.061572	-0.833195	-0.001610	-0.043743	-0.003147	-0.364258	-0.125488	0.692871	-171.185158	-85.024959	-23.249165
62900		9.595658	0.045232	-0.901534	-0.012226	-0.051354	-0.008660	-0.357178	-0.125488	0.690430	-171.305163	-84.995209	-23.130927
62901		9.619333	0.049057	-0.904564	-0.023115	-0.049095	0.000041	-0.371094	-0.128174	0.693848	-171.364742	-84.966445	-23.079457
62902		9.667208	0.055597	-0.905128	-0.039232	-0.036672	0.005025	-0.366455	-0.116943	0.686279	-171.396192	-84.943817	-23.065760
62903		9.683568	0.090132	-0.862796	-0.055959	-0.034601	0.007592	-0.362305	-0.122314	0.693848	-171.411473	-84.922612	-23.077650
62904		9.690738	0.058305	-0.909825	-0.067882	-0.028969	0.011507	-0.358398	-0.108154	0.689453	-171.409379	-84.903830	-23.113343
62905		9.710830	0.059494	-0.856424	-0.074592	-0.029632	0.017177	-0.370605	-0.118408	0.692139	-171.369944	-84.884618	-23.190885
62906		9.758753	0.030659	-0.790554	-0.080317	-0.022062	0.021753	-0.368652	-0.125732	0.684082	-171.303284	-84.868856	-23.297813
62907		9.686192	0.007676	-0.775570	-0.096948	-0.006435	0.032112	-0.358154	-0.121826	0.699219	-171.161025	-84.861455	-23.491458
62908		9.714106	0.020994	-0.850288	-0.106597	-0.002775	0.040980	-0.358398	-0.124512	0.688477	-170.971985	-84.854849	-23.737413
62909		9.689741	-0.042378	-0.743688	-0.097021	0.012082	0.039766	-0.366699	-0.125000	0.686035	-170.763839	-84.857117	-23.997255
62910		9.645084	-0.096656	-0.713816	-0.108418	0.021421	0.051913	-0.369141	-0.120361	0.683350	-170.482479	-84.863036	-24.337028
62911		9.604399	-0.115471	-0.802728	-0.118528	0.021444	0.052674	-0.368652	-0.130127	0.683838	-170.194747	-84.869136	-24.689145
62912		9.535829	-0.138824	-0.838661	-0.127641	0.029710	0.052374	-0.368408	-0.128174	0.687744	-169.910009	-84.879552	-25.043434
62913		9.512000	-0.134470	-0.858849	-0.134520	0.039843	0.055024	-0.364502	-0.128906	0.684326	-169.593509	-84.895464	-25.433622
62914		9.488231	-0.130803	-0.878515	-0.127954	0.040705	0.068623	-0.363525	-0.126709	0.682617	-169.190714	-84.909899	-25.906729
62915		9.536090	-0.187971	-0.764183	-0.118752	0.030608	0.070051	-0.365234	-0.129395	0.683350	-168.777170	-84.918504	-26.385257
62916		9.611747	-0.240962	-0.703417	-0.112667	0.021984	0.078389	-0.366943	-0.136475	0.690918	-168.323936	-84.920669	-26.900049
62917		9.621753	-0.358153	-0.650745	-0.102279	0.009346	0.081821	-0.363037	-0.127686	0.686523	-167.853221	-84.915298	-27.426496
62918		9.632171	-0.428592	-0.685319	-0.104763	-0.002944	0.071916	-0.365723	-0.125244	0.689941	-167.471625	-84.903541	-27.865032
62919		9.607808	-0.425976	-0.710166	-0.098667	-0.020333	0.067660	-0.369873	-0.126465	0.685303	-167.132674	-84.882725	-28.257133
62920		9.579831	-0.401789	-0.724798	-0.095514	-0.031472	0.065638	-0.361572	-0.131104	0.681885	-166.829539	-84.855446	-28.610930
62921		9.607895	-0.366985	-0.844951	-0.092909	-0.029760	0.064102	-0.371582	-0.126953	0.690918	-166.529442	-84.829466	-28.960737
62922		9.669098	-0.323375	-0.764649	-0.090835	-0.021019	0.065973	-0.366455	-0.128174	0.684326	-166.212960	-84.807630	-29.325554
62923		9.624016	-0.344411	-0.804029	-0.103131	-0.028566	0.066762	-0.366455	-0.132080	0.688477	-165.907001	-84.781608	-29.687155
62924		9.607433	-0.324482	-0.960259	-0.127093	-0.021713	0.065020	-0.364014	-0.135498	0.684814	-165.624019	-84.759179	-30.039270
62925		9.628149	-0.281776	-0.991672	-0.129791	-0.014498	0.064635	-0.364258	-0.134521	0.686035	-165.330145	-84.740933	-30.404099
62926		9.624525	-0.253363	-1.003796	-0.110899	-0.029406	0.055175	-0.361084	-0.135254	0.685059	-165.114956	-84.715353	-30.679228
62927		9.652002	-0.252002	-1.059978	-0.088772	-0.040118	0.050491	-0.369629	-0.135986	0.682129	-164.927896	-84.684756	-30.913212
62928		9.627496	-0.247068	-1.086845	-0.093020	-0.032184	0.053570	-0.359131	-0.128906	0.691650	-164.720977	-84.657751	-31.169784
62929		9.623313	-0.253725	-1.035312	-0.109595	-0.022085	0.052579	-0.358154	-0.143555	0.684814	-164.508914	-84.636646	-31.440882
62930		9.607804	-0.395144	-0.946410	-0.132487	-0.008863	0.050892	-0.361816	-0.129395	0.684570	-164.307137	-84.622565	-31.714831
62931		9.573274	-0.338211	-0.914137	-0.170226	-0.006724	0.052605	-0.358887	-0.140381	0.693604	-164.107411	-84.609746	-32.008445
62932		9.566120	-0.311106	-0.870807	-0.167952	-0.015428	0.043997	-0.364014	-0.133057	0.685547	-163.978919	-84.592988	-32.228923
62933		9.586287	-0.313988	-0.816749	-0.167710	-0.018318	0.043304	-0.357422	-0.139404	0.686035	-163.853605	-84.575122	-32.446358
62934		9.603744	-0.259653	-0.814657	-0.173624	-0.019126	0.040116	-0.354492	-0.142334	0.687500	-163.758887	-84.556913	-32.636210
62935		9.635105	-0.252697	-0.923930	-0.173054	-0.020205	0.033906	-0.364990	-0.128418	0.692871	-163.696022	-84.539450	-32.794002
62936		9.645818	-0.257050	-1.067510	-0.167652	-0.005336	0.039781	-0.359863	-0.126709	0.686035	-163.578169	-84.528748	-33.003274
62937		9.655431	-0.334048	-1.082578	-0.184282	0.011791	0.037970	-0.361816	-0.143311	0.687744	-163.445368	-84.528147	-33.237790
62938		9.606447	-0.377717	-1.021922	-0.185555	0.019381	0.036026	-0.366699	-0.150635	0.687988	-163.317092	-84.531590	-33.467698
62939		9.609816	-0.399764	-1.032838	-0.188567	0.020146	0.026694	-0.376221	-0.148926	0.694092	-163.236785	-84.537340	-33.651944
62940		9.631590	-0.339708	-1.080392	-0.179786	0.031472	0.021981	-0.363525	-0.144043	0.683105	-163.164608	-84.549863	-33.823454
62941		9.697950	-0.289427	-1.047345	-0.181924	0.045402	0.011599	-0.373291	-0.149414	0.686279	-163.122318	-84.571930	-33.965680
62942		9.733521	-0.298444	-1.162122	-0.193607	0.052534	-0.001387	-0.359619	-0.133545	0.687988	-163.154350	-84.599841	-34.040007
62943		9.738371	-0.279527	-1.231820	-0.193976	0.075264	-0.005218	-0.363770	-0.142334	0.684570	-163.162746	-84.641079	-34.138244
62944		9.749637	-0.326308	-1.282105	-0.187559	0.091750	-0.013823	-0.369629	-0.147217	0.678711	-163.193504	-84.692340	-34.209139
62945		9.781420	-0.373730	-1.275317	-0.175900	0.094883	-0.019947	-0.368652	-0.151123	0.685059	-163.242464	-84.746785	-34.256222
62946		9.789733	-0.398123	-1.312278	-0.162565	0.096265	-0.031432	-0.364502	-0.147705	0.683594	-163.356277	-84.803627	-34.230361
62947		9.759598	-0.379103	-1.238477	-0.151250	0.103389	-0.034888	-0.363037	-0.154541	0.679688	-163.467467	-84.865201	-34.200771
62948		9.753921	-0.344757	-1.182987	-0.137235	0.107221	-0.039916	-0.371338	-0.145264	0.688477	-163.603185	-84.929272	-34.138245
62949		9.735650	-0.324284	-1.250444	-0.118500	0.102020	-0.054582	-0.369141	-0.159668	0.672607	-163.825378	-84.993244	-33.978389
62950		9.689922	-0.284792	-1.307683	-0.112994	0.103373	-0.061314	-0.370361	-0.158691	0.678223	-164.095810	-85.058636	-33.766710
62951		9.635976	-0.253949	-1.255123	-0.127262	0.130266	-0.063492	-0.376465	-0.147949	0.677490	-164.340036	-85.139443	-33.589812
62952		9.557138	-0.250808	-1.161212	-0.121855	0.142503	-0.072957	-0.370605	-0.155762	0.673340	-164.634262	-85.228091	-33.359371
62953		9.457091	-0.283196	-1.060764	-0.100857	0.143031	-0.086467	-0.372803	-0.157471	0.677979	-165.010706	-85.319240	-33.034669
62954		9.444588	-0.191459	-0.997501	-0.097053	0.140250	-0.085033	-0.369141	-0.160156	0.670654	-165.400566	-85.408093	-32.694200
62955		9.412610	-0.084733	-1.011787	-0.119827	0.134638	-0.091555	-0.379639	-0.160156	0.672363	-165.867280	-85.494919	-32.289928
62956		9.413016	-0.100707	-0.957987	-0.131142	0.126751	-0.085098	-0.375000	-0.173096	0.682861	-166.331726	-85.575889	-31.894540
62957		9.366491	-0.084464	-0.972162	-0.148377	0.116090	-0.081041	-0.378906	-0.169434	0.671631	-166.803906	-85.650444	-31.501282
62958		9.380288	-0.098349	-1.061771	-0.156375	0.111735	-0.086192	-0.370117	-0.164551	0.682129	-167.350188	-85.722583	-31.038995
62959		9.427644	-0.134205	-0.964011	-0.154576	0.104254	-0.088629	-0.376221	-0.167480	0.678223	-167.934814	-85.790868	-30.536617
62960		9.484426	-0.159425	-0.975663	-0.163621	0.087670	-0.091228	-0.374023	-0.160889	0.667236	-168.597051	-85.849171	-29.961472
62961		9.512756	-0.179707	-0.957319	-0.172163	0.084376	-0.090012	-0.376465	-0.170654	0.677979	-169.268794	-85.905576	-29.381932
62962		9.539956	-0.225769	-0.898284	-0.163912	0.074655	-0.094660	-0.372314	-0.170898	0.675293	-170.011345	-85.955977	-28.726427
62963		9.592838	-0.229778	-0.899759	-0.140990	0.064160	-0.097109	-0.374756	-0.171143	0.671631	-170.784603	-86.000555	-28.027288
62964		9.615409	-0.268449	-0.810283	-0.133858	0.034219	-0.095782	-0.379395	-0.169922	0.668457	-171.603802	-86.026804	-27.277915
62965		9.678279	-0.248087	-0.946220	-0.137199	-0.014778	-0.094775	-0.373047	-0.173584	0.676514	-172.472467	-86.024983	-26.481003
62966		9.727814	-0.205477	-0.981973	-0.097610	0.028620	-0.096936	-0.379150	-0.173340	0.671387	-173.300316	-86.046642	-25.702049
62967		9.686373	-0.169020	-0.848364	-0.089771	0.022825	-0.098980	-0.368652	-0.177734	0.678711	-174.147296	-86.064877	-24.899663
62968		9.607042	-0.113760	-0.849087	-0.085257	0.015975	-0.104996	-0.374756	-0.177246	0.674561	-175.061783	-86.078039	-24.026873
62969		9.569742	-0.084457	-0.750258	-0.067465	0.006030	-0.106245	-0.381592	-0.176758	0.668457	-175.980802	-86.085265	-23.139494
62970		9.495057	-0.023968	-0.806475	-0.052228	-0.000294	-0.093997	-0.375732	-0.181885	0.662598	-176.801076	-86.087009	-22.342269
62971		9.458522	0.029695	-0.749097	-0.043384	0.013476	-0.087477	-0.371826	-0.185547	0.669922	-177.550961	-86.096212	-21.610599
62972		9.369590	-0.042934	-0.511557	-0.021341	0.006251	-0.068313	-0.371094	-0.178711	0.679932	-178.140197	-86.099745	-21.027762
62973		9.302762	-0.027160	-0.594728	-0.030990	-0.025381	-0.057815	-0.374268	-0.175781	0.668457	-178.646255	-86.085155	-20.533370
62974		9.171261	-0.075320	-0.692229	-0.015153	-0.022777	-0.056373	-0.370605	-0.179443	0.670166	-179.133412	-86.071069	-20.048471
62975		9.041395	-0.084957	-0.619305	-0.011618	-0.016739	-0.056859	-0.367920	-0.185547	0.671387	-179.612586	-86.060850	-19.569885
62976		8.952443	-0.007001	-0.808935	-0.007893	-0.030903	-0.064953	-0.371338	-0.177734	0.671387	179.838806	-86.041531	-19.019668
62977		9.008957	0.115928	-0.792378	-0.016475	-0.009178	-0.060756	-0.370850	-0.182861	0.673828	179.330257	-86.035032	-18.514411
62978		9.124206	0.269133	-0.666036	-0.025677	0.005558	-0.046722	-0.373047	-0.178711	0.669678	178.925460	-86.036148	-18.118301
62979		9.273745	0.297751	-0.473573	-0.014559	-0.015118	-0.037914	-0.376709	-0.185547	0.673096	178.609960	-86.026031	-17.805452
62980		9.366531	0.222242	-0.555355	-0.009886	-0.072694	-0.023916	-0.373291	-0.183350	0.673584	178.420858	-85.982503	-17.616645
62981		9.618746	0.072414	-0.889006	-0.033690	-0.097625	-0.022696	-0.369385	-0.179688	0.670654	178.244129	-85.925222	-17.453873
62982		9.828296	-0.065056	-1.071636	-0.016283	-0.083680	-0.030041	-0.371582	-0.177002	0.679199	178.014093	-85.875132	-17.227576
62983		10.033477	-0.043168	-1.181131	0.037081	-0.083612	-0.047321	-0.366211	-0.177002	0.670898	177.690129	-85.825250	-16.876505
62984		9.984570	0.106773	-1.154468	0.070510	-0.069323	-0.068780	-0.367188	-0.178955	0.677246	177.216831	-85.782133	-16.355951
62985		9.871723	0.359420	-1.120063	0.102358	-0.042457	-0.091982	-0.369873	-0.181152	0.672607	176.585787	-85.753999	-15.659421
62986		9.725159	0.584788	-0.957306	0.125802	-0.016742	-0.103160	-0.372070	-0.178223	0.671875	175.872050	-85.738868	-14.866297
62987		9.612409	0.714469	-1.000918	0.114010	-0.036417	-0.113395	-0.361816	-0.178711	0.678223	175.096873	-85.711956	-14.018499
62988		9.598392	0.758540	-0.925371	0.094703	-0.037777	-0.103147	-0.369629	-0.179443	0.671143	174.394409	-85.683287	-13.254456
62989		9.642725	0.912979	-1.098479	0.034238	-0.063583	-0.104908	-0.370117	-0.180908	0.682861	173.680304	-85.639812	-12.513671
62990		9.706495	1.104567	-1.277672	0.000210	-0.058392	-0.099510	-0.362305	-0.184326	0.683838	172.991314	-85.598330	-11.817540
62991		9.741048	1.247380	-1.341636	-0.044878	-0.036305	-0.089412	-0.361572	-0.174805	0.675537	172.346717	-85.570164	-11.191859
62992		9.827788	1.337065	-1.348581	-0.093376	-0.002095	-0.074909	-0.363770	-0.178467	0.671875	171.746619	-85.561150	-10.638413
62993		9.886976	1.212955	-1.257146	-0.151486	0.010081	-0.065947	-0.360596	-0.185547	0.679688	171.172478	-85.560252	-10.144646
62994		9.995417	0.918300	-1.158532	-0.174028	0.002373	-0.071409	-0.360596	-0.182617	0.672607	170.549392	-85.553262	-9.614643
62995		10.104276	0.651667	-1.102481	-0.165088	-0.001466	-0.099539	-0.367188	-0.188965	0.672607	169.740331	-85.541674	-8.893052
62996		10.174388	0.419548	-1.201769	-0.161398	-0.007736	-0.122691	-0.364990	-0.189453	0.674561	168.774034	-85.522456	-8.011685
62997		10.167401	0.403903	-1.336346	-0.143845	0.034322	-0.146654	-0.372314	-0.185059	0.673584	167.595477	-85.523502	-6.907235
62998		9.933662	0.428738	-1.239131	-0.122678	0.055791	-0.145320	-0.368896	-0.197021	0.674072	166.396549	-85.534249	-5.770122
62999		9.614872	0.515314	-1.128681	-0.114556	0.073337	-0.147803	-0.360107	-0.201172	0.678467	165.151362	-85.553176	-4.582039
63000		9.414069	0.541384	-1.113922	-0.121605	0.082484	-0.141699	-0.366455	-0.191895	0.670166	163.910409	-85.575174	-3.402887
63001		9.394942	0.571879	-1.181338	-0.122385	0.104636	-0.130317	-0.368408	-0.187744	0.677246	162.695715	-85.610160	-2.249965
63002		9.341400	0.493138	-1.231425	-0.138676	0.094122	-0.107302	-0.367188	-0.196045	0.671631	161.638443	-85.640891	-1.263961
63003		9.274679	0.472322	-1.242405	-0.136495	0.101223	-0.080670	-0.366699	-0.191406	0.673096	160.744614	-85.679908	-0.441039
63004		9.284346	0.386844	-1.177933	-0.111239	0.088860	-0.067107	-0.370361	-0.197510	0.667236	159.975782	-85.713092	0.271256
63005		9.346924	0.355360	-1.223883	-0.104039	0.094094	-0.067207	-0.366455	-0.201172	0.671143	159.188485	-85.749208	1.005922
63006		9.368195	0.507508	-1.380616	-0.100533	0.122557	-0.053498	-0.358398	-0.199219	0.670166	158.403407	-85.801759	1.740206
63007		9.336897	0.576727	-1.383480	-0.092058	0.164556	-0.047093	-0.369629	-0.200195	0.660400	157.528688	-85.878065	2.569305
63008		9.387483	0.666217	-1.250486	-0.097206	0.207569	-0.039837	-0.371338	-0.197266	0.668457	156.530198	-85.976672	3.519389
63009		9.322404	0.612221	-1.210436	-0.106351	0.225246	-0.029013	-0.367432	-0.201416	0.668945	155.502936	-86.086872	4.492990
63010		9.311195	0.612794	-1.278740	-0.114974	0.230993	-0.017555	-0.372070	-0.200195	0.667969	154.477764	-86.200574	5.459664
63011		9.299894	0.585757	-1.306233	-0.151087	0.229482	-0.010344	-0.371826	-0.205322	0.662354	153.436776	-86.315159	6.421076
63012		9.294662	0.579351	-1.407220	-0.163652	0.243179	0.000232	-0.372070	-0.209717	0.664551	152.349053	-86.437243	7.422029
63013		9.206804	0.532523	-1.388993	-0.156532	0.239492	0.006455	-0.377197	-0.210205	0.665527	151.263737	-86.558994	8.424471
63014		9.152024	0.551867	-1.326451	-0.142929	0.215490	0.017830	-0.381592	-0.203613	0.666992	150.321117	-86.669628	9.291315
63015		9.166795	0.581102	-1.435113	-0.167440	0.181004	0.021927	-0.379395	-0.206299	0.669678	149.519919	-86.764739	10.002685
63016		9.288072	0.613632	-1.600591	-0.195219	0.157708	0.028838	-0.379639	-0.206299	0.662598	148.843507	-86.848726	10.573504
63017		9.302787	0.629091	-1.691977	-0.181747	0.161943	0.040329	-0.378906	-0.202637	0.665283	148.222183	-86.939011	11.096404
63018		9.335980	0.522601	-1.776656	-0.172936	0.162800	0.062104	-0.379395	-0.211182	0.654785	147.770267	-87.034810	11.455286
63019		9.311006	0.432226	-1.822049	-0.143640	0.144357	0.082913	-0.383789	-0.216553	0.657471	147.621455	-87.129193	11.526831
63020		9.323054	0.372735	-1.815937	-0.123835	0.124048	0.100978	-0.384521	-0.207275	0.662842	147.781962	-87.218023	11.299744
63021		9.293204	0.428806	-1.820834	-0.116665	0.113106	0.107553	-0.383301	-0.208496	0.664795	148.101205	-87.304740	10.918163
63022		9.332450	0.556696	-1.862291	-0.113848	0.118118	0.114526	-0.385254	-0.203125	0.658203	148.488669	-87.394507	10.470560
63023		9.318820	0.798926	-1.824883	-0.116268	0.124602	0.113012	-0.387451	-0.204834	0.650391	148.842604	-87.488239	10.054534
63024		9.273838	1.001375	-1.695645	-0.131773	0.142504	0.115516	-0.381104	-0.211182	0.659180	149.123242	-87.590195	9.703772
63025		9.296028	1.233876	-1.540524	-0.148224	0.150023	0.119267	-0.379883	-0.214111	0.657471	149.412568	-87.698078	9.334149
63026		9.279897	1.314970	-1.313269	-0.139083	0.134598	0.131241	-0.393555	-0.208984	0.655762	150.009415	-87.799934	8.662282
63027		9.414074	1.321953	-1.191397	-0.170318	0.108465	0.146424	-0.388672	-0.206787	0.652100	151.056172	-87.894381	7.522076
63028		9.534785	1.172092	-1.331616	-0.217747	0.088844	0.151553	-0.387939	-0.212158	0.651123	152.397319	-87.978078	6.060759
63029		9.533544	0.977394	-1.452125	-0.241677	0.069982	0.154241	-0.388916	-0.208008	0.639404	154.028172	-88.052760	4.295317
63030		9.537973	0.802957	-1.469937	-0.234818	0.069104	0.149689	-0.393311	-0.216309	0.644043	155.723041	-88.122689	2.470129
63031		9.586945	0.683863	-1.507722	-0.204605	0.056570	0.135428	-0.391113	-0.206787	0.648193	157.426742	-88.182318	0.653195
63032		9.626697	0.796451	-1.530471	-0.186822	0.069886	0.127078	-0.394043	-0.214600	0.653320	159.014142	-88.244192	-1.036767
63033		9.624164	0.806256	-1.507411	-0.176857	0.091117	0.132215	-0.398438	-0.208008	0.656250	160.695582	-88.318323	-2.815398
63034		9.652873	0.827740	-1.533209	-0.174817	0.084725	0.138599	-0.389160	-0.216553	0.654297	162.687655	-88.386898	-4.902781
63035		9.635950	0.794533	-1.542513	-0.178713	0.059408	0.136869	-0.395752	-0.214600	0.649414	164.972694	-88.440449	-7.286187
63036		9.713468	0.836448	-1.583101	-0.152945	0.058616	0.136417	-0.394775	-0.209717	0.642822	167.406978	-88.489082	-9.803631
63037		9.760861	0.802541	-1.528860	-0.111673	0.069196	0.136126	-0.395264	-0.218750	0.650635	170.002117	-88.542251	-12.458702
63038		9.814713	0.864378	-1.432749	-0.154173	0.092045	0.120695	-0.390869	-0.215088	0.656250	172.309949	-88.602538	-14.850243
63039		9.952943	0.886451	-1.206157	-0.192529	0.116108	0.112166	-0.403564	-0.216553	0.646240	174.570437	-88.674983	-17.216768
63040		10.119722	0.869697	-1.127980	-0.175900	0.086344	0.100687	-0.393555	-0.217529	0.651855	176.808891	-88.726141	-19.551172
63041		10.225472	0.920456	-1.037399	-0.162552	0.064789	0.083941	-0.412109	-0.210693	0.635986	178.845625	-88.764069	-21.676609
63042		10.180900	0.901144	-1.196674	-0.158989	0.036464	0.068579	-0.398926	-0.215576	0.646484	-179.454886	-88.782980	-23.462217
63043		10.185035	0.741015	-1.400653	-0.134575	0.014801	0.060814	-0.401855	-0.217285	0.644287	-177.881421	-88.789661	-25.108216
63044		10.221984	0.667394	-1.417980	-0.058154	0.005286	0.041546	-0.398438	-0.209717	0.645752	-176.833312	-88.789296	-26.184564
63045		10.255446	0.523782	-1.213541	-0.007976	0.024108	0.024081	-0.400879	-0.210693	0.643555	-176.147645	-88.801258	-26.870011
63046		10.279939	0.524410	-1.205671	0.012770	0.052119	0.018701	-0.405762	-0.212402	0.640381	-175.570711	-88.827981	-27.434138
63047		10.270787	0.582451	-1.031640	0.022880	0.088383	0.020449	-0.401123	-0.211182	0.645996	-174.768516	-88.876479	-28.218439
63048		10.191227	0.709293	-0.932515	0.051558	0.072813	0.027120	-0.403076	-0.211914	0.641602	-173.781396	-88.914280	-29.170862
63049		10.059964	0.763957	-0.924061	0.048346	0.044486	0.038485	-0.400391	-0.214355	0.645508	-172.432998	-88.935972	-30.486850
63050		10.043130	0.751383	-0.956624	0.019501	0.061996	0.054896	-0.399170	-0.212891	0.646729	-170.511746	-88.964275	-32.392066
63051		10.114111	0.548672	-0.786204	0.049798	0.055950	0.078058	-0.399414	-0.211914	0.641846	-167.702326	-88.986363	-35.168456
63052		10.363709	0.254937	-0.732755	0.105630	-0.008101	0.076957	-0.407715	-0.212646	0.641357	-165.389219	-88.969491	-37.416238
63053		10.500963	0.020578	-0.801422	0.184044	-0.035471	0.054027	-0.403320	-0.209229	0.641113	-163.958519	-88.940789	-38.736765
63054		10.460273	-0.108173	-0.777651	0.227961	-0.045766	0.044314	-0.407715	-0.207031	0.645264	-163.016061	-88.906571	-39.543724
63055		10.282484	-0.131889	-0.901401	0.241525	-0.053102	0.034181	-0.406982	-0.199463	0.639404	-162.397411	-88.870795	-40.019138
63056		10.012952	0.023328	-0.748934	0.253286	-0.038581	0.026421	-0.400635	-0.209473	0.649170	-161.949404	-88.843287	-40.316914
63057		9.632468	0.150712	-0.505349	0.242202	-0.031316	0.017076	-0.401855	-0.200439	0.648926	-161.646631	-88.822288	-40.476007
63058		9.307891	0.357486	-0.354728	0.218266	-0.082395	0.010804	-0.401611	-0.207031	0.641602	-162.026333	-88.773546	-39.966086
63059		9.102526	0.454538	-0.400510	0.175075	-0.128577	0.012375	-0.398193	-0.200684	0.642334	-162.648405	-88.700295	-39.238585
63060		9.018525	0.492467	-0.541910	0.121077	-0.148229	0.030362	-0.400391	-0.202881	0.656738	-163.011755	-88.612124	-38.800867
63061		9.092789	0.525141	-0.583564	0.082294	-0.143434	0.050347	-0.395996	-0.199951	0.657471	-162.839073	-88.524188	-38.921494
63062		9.243388	0.482187	-0.582908	0.083804	-0.164071	0.074101	-0.395020	-0.195313	0.658936	-162.390346	-88.419774	-39.317282
63063		9.443810	0.418684	-0.411004	0.019190	-0.141928	0.104879	-0.397217	-0.196289	0.656738	-161.273874	-88.322870	-40.418261
63064		9.479044	0.246741	-0.053549	-0.079483	-0.111772	0.145168	-0.397949	-0.192139	0.655518	-159.487504	-88.232677	-42.245838
63065		9.407873	-0.001784	0.246732	-0.185995	-0.078603	0.179655	-0.397705	-0.197998	0.651611	-157.102395	-88.151878	-44.733809
63066		9.205116	-0.131281	0.506150	-0.305471	-0.070087	0.192586	-0.395508	-0.193848	0.656494	-154.775454	-88.068529	-47.232048
63067		9.032665	-0.212121	0.533700	-0.379252	-0.040922	0.199133	-0.396973	-0.207275	0.650391	-152.334879	-87.995882	-49.886541
63068		8.862386	-0.255409	0.681935	-0.428163	-0.015063	0.191289	-0.391357	-0.200439	0.652832	-150.050178	-87.934025	-52.413172
63069		8.709644	-0.250809	0.684930	-0.465516	-0.024366	0.183222	-0.390625	-0.210938	0.649414	-148.068693	-87.867287	-54.657942
63070		8.639332	-0.268298	0.492171	-0.460431	-0.040609	0.153130	-0.392578	-0.209961	0.652832	-146.765401	-87.799113	-56.221204
63071		8.668566	-0.354244	0.342433	-0.425620	-0.062244	0.116391	-0.405273	-0.199707	0.652588	-146.102787	-87.731777	-57.123423
63072		8.849927	-0.459991	0.184077	-0.367019	-0.077784	0.069473	-0.401611	-0.212158	0.647461	-146.157769	-87.671384	-57.273747
63073		9.129107	-0.654738	-0.071089	-0.258342	-0.092730	0.027577	-0.398193	-0.205078	0.644775	-146.711241	-87.617630	-56.863005
63074		9.535552	-0.935850	-0.295891	-0.167571	-0.113485	-0.006264	-0.384277	-0.210693	0.647217	-147.760161	-87.563714	-55.904226
63075		9.745905	-1.149508	-0.581690	-0.148658	-0.124644	-0.012116	-0.398438	-0.219482	0.650635	-148.863989	-87.505820	-54.879683
63076		9.778914	-1.228166	-0.438503	-0.115881	-0.121224	-0.013212	-0.387451	-0.207764	0.650391	-149.924626	-87.448560	-53.879518
63077		10.178081	-1.101675	-0.384473	-0.062735	-0.108854	0.010754	-0.396973	-0.213867	0.648438	-150.537830	-87.390572	-53.296726
63078		10.476945	-0.969183	-0.328176	-0.019516	-0.079161	0.060281	-0.392578	-0.212158	0.649658	-150.420638	-87.332708	-53.420166
63079		10.942322	-0.718622	-0.471920	-0.054556	-0.095751	0.125327	-0.393066	-0.215332	0.646240	-149.723454	-87.248547	-54.144475
63080		11.398834	-0.743019	-0.389676	-0.091378	-0.057328	0.191783	-0.386230	-0.213867	0.645752	-148.230098	-87.162466	-55.687062
63081		11.146594	-0.828746	-0.340633	-0.086279	-0.057293	0.228504	-0.388672	-0.211426	0.654785	-146.453226	-87.063409	-57.510741
63082		10.873640	-0.937637	-0.307798	-0.049162	-0.027855	0.243559	-0.391602	-0.211426	0.655762	-144.485117	-86.969928	-59.504730
63083		10.637096	-0.985263	-0.221016	-0.032168	-0.008487	0.255677	-0.390625	-0.206055	0.660400	-142.376252	-86.878016	-61.630144
63084		10.230803	-0.947368	-0.204746	-0.030006	0.000340	0.246551	-0.396484	-0.211182	0.660400	-140.429914	-86.788940	-63.591598
63085		9.825281	-0.744052	-0.277823	-0.031395	0.012301	0.236479	-0.385498	-0.208496	0.655273	-138.562871	-86.705625	-65.474720
63086		9.610308	-0.552719	-0.283121	-0.043074	0.024790	0.220177	-0.385498	-0.202393	0.653809	-136.853918	-86.630304	-67.206295
63087		9.477118	-0.279006	-0.372346	-0.030364	0.041130	0.214065	-0.393555	-0.203369	0.643066	-135.121528	-86.561413	-68.954223
63088		9.423099	-0.200127	-0.388282	-0.036351	0.059614	0.214831	-0.398682	-0.210938	0.652344	-133.355008	-86.496269	-70.739850
63089		9.278354	-0.230384	-0.403066	-0.053260	0.082303	0.216763	-0.394287	-0.207520	0.646729	-131.473853	-86.435812	-72.650210
63090		9.138725	-0.313490	-0.427135	-0.055641	0.085377	0.218052	-0.394287	-0.204590	0.644287	-129.652749	-86.372114	-74.501956
63091		9.101825	-0.477212	-0.442240	-0.055277	0.096458	0.216012	-0.391357	-0.199951	0.649658	-127.807963	-86.309627	-76.377293
63092		9.000821	-0.668678	-0.516544	-0.063831	0.096757	0.218945	-0.400635	-0.193115	0.653320	-126.036441	-86.242160	-78.184241
63093		8.995845	-0.985769	-0.525744	-0.033115	0.079823	0.199463	-0.401123	-0.198730	0.656250	-124.504745	-86.174803	-79.733358
63094		9.038638	-1.249641	-0.551528	-0.012935	0.087811	0.191419	-0.404297	-0.198242	0.651611	-123.016984	-86.111204	-81.226895
63095		9.017882	-1.404108	-0.529495	0.013456	0.090299	0.167378	-0.398193	-0.195801	0.651367	-121.629856	-86.057416	-82.604587
63096		8.973053	-1.341663	-0.591072	0.011783	0.075825	0.145154	-0.403320	-0.197998	0.646729	-120.496217	-86.008319	-83.729225
63097		8.971353	-1.273648	-0.770780	0.003458	0.066108	0.130047	-0.398193	-0.193604	0.645508	-119.504401	-85.962357	-84.716540
63098		8.972507	-1.269685	-0.783506	0.000065	0.076145	0.115993	-0.401367	-0.197510	0.647217	-118.539471	-85.925199	-85.678925
63099		8.920137	-1.430003	-0.712992	0.008120	0.087026	0.108856	-0.400879	-0.193848	0.645996	-117.517905	-85.893236	-86.693481
63100		8.936794	-1.568929	-0.775060	0.052702	0.058535	0.078937	-0.400879	-0.191162	0.647705	-116.814063	-85.868144	-87.363949
63101		9.134704	-1.573233	-0.931174	0.117533	0.035042	0.052453	-0.395752	-0.190918	0.645752	-116.321300	-85.849930	-87.785528
63102		9.153968	-1.408820	-1.102484	0.182721	0.037745	0.013088	-0.403564	-0.184082	0.653320	-115.930635	-85.852548	-88.067312
63103		9.186828	-1.232315	-1.202546	0.203611	0.030816	-0.017587	-0.404541	-0.192383	0.647949	-115.663240	-85.869004	-88.213485
63104		9.100637	-1.094003	-1.317785	0.219810	0.031158	-0.048279	-0.403076	-0.190918	0.640869	-115.506954	-85.901476	-88.238977
63105		9.015606	-1.071422	-1.399491	0.252680	0.040772	-0.074397	-0.408447	-0.187988	0.648193	-115.331416	-85.949708	-88.264863
63106		8.955493	-1.075495	-1.313535	0.292841	0.045364	-0.100692	-0.398926	-0.175049	0.652100	-115.207978	-86.012775	-88.215510
63107		8.960935	-1.201185	-1.128088	0.330618	0.048324	-0.113336	-0.402344	-0.186279	0.650391	-115.064005	-86.083034	-88.164991
63108		8.871134	-1.253013	-1.144920	0.395004	0.028165	-0.140142	-0.398926	-0.183838	0.650391	-115.154910	-86.162340	-87.842104
63109		8.837150	-1.181134	-1.400661	0.440766	0.018428	-0.158688	-0.403809	-0.185547	0.649902	-115.352844	-86.248786	-87.385687
63110		8.782001	-1.207423	-1.486312	0.487202	0.024345	-0.167889	-0.400635	-0.170410	0.647949	-115.549424	-86.341343	-86.904075
63111		8.883707	-1.344591	-1.420560	0.508472	0.036264	-0.165834	-0.401367	-0.172607	0.648193	-115.621606	-86.435718	-86.534885
63112		9.032726	-1.599635	-1.130315	0.499209	0.042983	-0.162623	-0.390137	-0.164795	0.648682	-115.664275	-86.530006	-86.200643
63113		9.124286	-1.935889	-0.905570	0.494016	0.010846	-0.154396	-0.400879	-0.168701	0.650391	-115.941596	-86.612053	-85.634316
63114		9.377148	-2.065124	-0.847281	0.491421	-0.009568	-0.146993	-0.398682	-0.162842	0.660889	-116.414379	-86.684766	-84.873763
63115		9.648486	-1.878443	-0.894868	0.519813	-0.028638	-0.143730	-0.404053	-0.154297	0.655029	-117.029544	-86.750630	-83.954317
63116		9.806154	-1.456500	-0.972006	0.537645	-0.040229	-0.130991	-0.403076	-0.156982	0.655029	-117.735346	-86.806105	-82.933946
63117		9.767546	-1.112795	-1.037387	0.542197	-0.033755	-0.118980	-0.402344	-0.151367	0.655518	-118.323994	-86.856855	-82.028315
63118		9.836357	-0.796326	-0.993190	0.470946	-0.020917	-0.097648	-0.396973	-0.159912	0.659668	-118.775454	-86.899613	-81.301050
63119		10.046188	-0.463167	-1.071868	0.400966	0.016062	-0.079341	-0.395996	-0.143066	0.653564	-118.815540	-86.943534	-81.025888
63120		10.061705	-0.384098	-1.044245	0.342680	0.040132	-0.057608	-0.394043	-0.144775	0.660889	-118.577329	-86.982834	-81.062919
63121		9.966045	-0.436845	-1.024840	0.250327	0.077873	-0.053946	-0.398682	-0.149170	0.663086	-117.975644	-87.030849	-81.516855
63122		9.847327	-0.601176	-1.108695	0.204076	0.103103	-0.057462	-0.399170	-0.142578	0.659912	-117.177749	-87.086714	-82.193815
63123		9.707036	-0.800163	-1.186515	0.200509	0.123365	-0.081519	-0.400146	-0.147949	0.659180	-116.238166	-87.159891	-83.014606
63124		9.645297	-0.980943	-1.450583	0.218087	0.097174	-0.107122	-0.395996	-0.142822	0.656982	-115.683593	-87.238825	-83.439836
63125		9.686255	-1.143274	-1.899180	0.274522	0.062345	-0.125907	-0.395264	-0.143066	0.652100	-115.519707	-87.319020	-83.441491
63126		9.724521	-1.257798	-1.730963	0.322787	0.078714	-0.148120	-0.400146	-0.134766	0.661621	-115.288886	-87.414383	-83.482515
63127		10.015558	-1.175492	-1.703599	0.278020	0.032858	-0.141591	-0.395752	-0.134766	0.659424	-115.547186	-87.495442	-83.059562
63128		10.323872	-1.005180	-1.533502	0.122112	0.047066	-0.103868	-0.402588	-0.141357	0.666992	-115.560551	-87.560059	-82.971242
63129		10.519646	-0.810755	-1.769567	-0.099374	0.005793	-0.042884	-0.399414	-0.137939	0.656250	-115.815883	-87.583340	-82.767722
63130		10.626003	-0.837989	-2.104865	-0.326285	-0.032972	-0.010984	-0.396729	-0.137207	0.658936	-116.524010	-87.579897	-82.241183
63131		10.684853	-0.716305	-1.624274	-0.364352	-0.065573	-0.020790	-0.395752	-0.143555	0.660645	-117.668878	-87.573065	-81.299288
63132		10.769938	-0.536423	-0.724945	-0.105372	-0.121998	-0.073761	-0.398926	-0.137451	0.665771	-119.709711	-87.575688	-79.312153
63133		10.991080	-0.154861	-0.798461	0.061781	-0.190667	-0.087771	-0.402588	-0.137695	0.666748	-122.506520	-87.561910	-76.472448
63134		11.373787	0.062003	-0.707379	0.149565	-0.220375	-0.086505	-0.390137	-0.135498	0.657715	-125.561860	-87.531172	-73.323626
63135		11.577317	0.227379	-0.870087	0.130951	-0.159352	-0.051438	-0.392334	-0.135742	0.672119	-127.597104	-87.499947	-71.206421
63136		11.701241	0.298992	-0.444158	0.095336	-0.018233	0.010659	-0.397217	-0.136719	0.666260	-127.694823	-87.487455	-71.049029
63137		11.866400	0.241134	0.617175	0.128646	0.033746	0.080417	-0.391113	-0.132813	0.664307	-126.655643	-87.461940	-72.010492
63138		12.024433	0.196068	0.903593	0.095974	-0.008872	0.149517	-0.392334	-0.130859	0.664551	-125.616255	-87.388566	-72.990983
63139		11.720721	0.013944	0.881694	0.149819	-0.067121	0.171132	-0.386230	-0.128174	0.664063	-125.001085	-87.285866	-73.515937
63140		10.975806	-0.523525	0.877851	0.288733	-0.069307	0.132099	-0.389160	-0.131104	0.665527	-124.659054	-87.199959	-73.687838
63141		10.006288	-0.956680	0.659751	0.296636	-0.013571	0.053585	-0.386719	-0.128174	0.660889	-124.279596	-87.169804	-73.892640
63142		9.187551	-0.662438	0.977617	0.290226	0.051014	-0.031046	-0.389404	-0.124023	0.666748	-123.866184	-87.199851	-74.135164
63143		8.639474	0.062817	1.210015	0.333244	0.044361	-0.110398	-0.387207	-0.120361	0.663818	-123.983206	-87.266088	-73.821899
63144		8.444759	0.589868	1.023449	0.340819	0.014979	-0.143263	-0.384521	-0.114502	0.664307	-124.663241	-87.337665	-72.940710
63145		8.352793	0.781792	1.181851	0.331924	0.030710	-0.150668	-0.393799	-0.110352	0.666016	-125.253015	-87.418049	-72.154992
63146		8.386102	0.760254	1.304656	0.345174	0.021396	-0.154267	-0.385010	-0.114746	0.666748	-126.036117	-87.495963	-71.168235
63147		8.633061	0.761345	1.313245	0.288432	-0.035495	-0.175060	-0.381348	-0.125488	0.660645	-127.658091	-87.563560	-69.374392
63148		8.994113	0.819374	1.018965	0.265654	-0.046866	-0.179491	-0.387695	-0.111328	0.669434	-129.579916	-87.626038	-67.293605
63149		9.257632	0.889649	0.867009	0.228729	-0.026852	-0.183158	-0.386230	-0.100342	0.663086	-131.419674	-87.695319	-65.316205
63150		9.346162	0.913716	0.588536	0.181184	-0.020115	-0.168247	-0.386963	-0.107422	0.672852	-133.212259	-87.757640	-63.413377
63151		9.415417	1.029310	0.537870	0.163059	0.010118	-0.152067	-0.385986	-0.105957	0.666992	-134.593109	-87.823856	-61.933059
63152		9.572682	0.964200	0.531632	0.078306	0.011968	-0.140354	-0.377930	-0.113037	0.666504	-135.993184	-87.884036	-60.482157
63153		9.777684	0.867621	0.397957	-0.028394	0.008187	-0.133478	-0.382568	-0.106689	0.671143	-137.465207	-87.939251	-59.020490
63154		10.014209	0.756028	0.400267	-0.068485	0.001354	-0.142255	-0.385986	-0.103271	0.672119	-139.254691	-87.992665	-57.264187
63155		10.097705	0.717774	0.373510	-0.091551	-0.036350	-0.177123	-0.388672	-0.108398	0.664795	-141.970411	-88.040300	-54.594381
63156		10.077313	0.772324	0.302931	-0.075126	-0.062047	-0.220520	-0.384766	-0.102295	0.669922	-145.698132	-88.084716	-50.902634
63157		9.836557	0.685558	0.154109	-0.048530	-0.092252	-0.252532	-0.381348	-0.114014	0.664063	-150.285711	-88.115842	-46.335411
63158		9.557593	0.705155	0.006331	-0.050009	-0.114487	-0.267530	-0.375977	-0.111816	0.674561	-155.428469	-88.125708	-41.213586
63159		9.323263	0.587980	0.007711	-0.027602	-0.112710	-0.265293	-0.384033	-0.115723	0.672363	-160.497658	-88.122004	-36.152560
63160		9.122693	0.372338	0.039362	0.004001	-0.104918	-0.257272	-0.378174	-0.117920	0.666992	-165.345549	-88.105888	-31.294771
63161		9.067189	0.173374	0.093253	0.013099	-0.086074	-0.239907	-0.377197	-0.112305	0.676270	-169.703132	-88.086471	-26.922329
63162		8.953866	-0.040699	0.051590	0.010639	-0.069520	-0.219486	-0.371338	-0.113770	0.666260	-173.595407	-88.063230	-23.016772
63163		8.920935	-0.078154	-0.018080	-0.016395	-0.050858	-0.191993	-0.374268	-0.115723	0.661133	-176.902509	-88.042309	-19.712214
63164		8.952841	0.087749	-0.214366	-0.046302	-0.019944	-0.164664	-0.373047	-0.113525	0.671143	-179.706485	-88.031511	-16.928146
63165		9.046007	0.255270	-0.145114	-0.065577	0.014300	-0.156095	-0.372803	-0.116211	0.671875	177.647144	-88.037094	-14.312867
63166		9.019211	0.476213	-0.162578	-0.079721	0.008850	-0.138625	-0.375977	-0.119385	0.669189	175.270054	-88.035038	-11.975089
63167		9.078775	0.585778	-0.155451	-0.080906	0.023076	-0.131065	-0.368652	-0.116699	0.668945	173.007926	-88.039512	-9.753070
63168		9.033005	0.722527	-0.136339	-0.101320	0.029327	-0.127756	-0.373779	-0.115723	0.657715	170.755547	-88.043574	-7.552462
63169		9.150531	0.810163	-0.164622	-0.115566	0.056515	-0.129592	-0.362793	-0.115723	0.672119	168.375449	-88.060964	-5.232296
63170		9.201228	0.830332	-0.006205	-0.105684	0.079115	-0.123213	-0.365723	-0.121582	0.670898	165.967350	-88.087239	-2.878417
63171		9.392801	0.810430	0.079533	-0.065422	0.074411	-0.113954	-0.369385	-0.117676	0.663086	163.703841	-88.110309	-0.646221
63172		9.436132	0.789526	0.156124	-0.034946	0.070729	-0.106760	-0.374756	-0.118652	0.663574	161.540651	-88.128464	1.503113
63173		9.396144	0.704079	0.016175	-0.044971	0.068816	-0.105181	-0.384766	-0.117920	0.657715	159.374790	-88.144473	3.649284
63174		9.367030	0.695426	-0.104299	-0.062219	0.065460	-0.083615	-0.370117	-0.119385	0.663574	157.538903	-88.159527	5.455474
63175		9.374490	0.601426	-0.217279	-0.073021	0.055889	-0.062390	-0.377930	-0.109863	0.658691	156.089511	-88.173911	6.868695
63176		9.345359	0.541943	-0.454919	-0.076260	0.037459	-0.039639	-0.373291	-0.112549	0.670410	155.127764	-88.181846	7.792232
63177		9.372182	0.540340	-0.625204	-0.077894	0.031462	-0.023633	-0.372314	-0.115723	0.662109	154.467858	-88.191422	8.412761
63178		9.386696	0.624855	-0.800392	-0.078770	0.024441	-0.013926	-0.369629	-0.110107	0.666748	154.013805	-88.198331	8.826908
63179		9.297842	0.722775	-0.800006	-0.084481	0.029397	0.001913	-0.372803	-0.121338	0.661133	153.774988	-88.212974	9.022358
63180		9.178525	0.776612	-0.885975	-0.109336	0.009238	0.018426	-0.370605	-0.118408	0.663574	153.954292	-88.220125	8.785316
63181		9.128404	0.814366	-0.921474	-0.135142	-0.015302	0.033815	-0.372803	-0.116211	0.653564	154.575544	-88.219674	8.091241
63182		9.062954	0.865726	-1.036186	-0.164507	-0.022413	0.053912	-0.370850	-0.117676	0.658691	155.566844	-88.218771	7.010186
63183		9.109762	0.928410	-1.078520	-0.189862	-0.014248	0.067759	-0.375244	-0.123291	0.662842	156.722147	-88.226030	5.750437
63184		9.119528	0.988333	-1.036423	-0.198908	-0.007283	0.080764	-0.367676	-0.120850	0.663086	158.050941	-88.237665	4.312017
63185		9.068910	1.081247	-1.120167	-0.216926	-0.008930	0.098883	-0.380127	-0.118408	0.660645	159.723985	-88.252313	2.518784
63186		8.987440	1.091177	-1.082777	-0.250493	0.007242	0.118691	-0.374268	-0.125732	0.657715	161.655101	-88.276386	0.448222
63187		8.914329	1.077578	-0.912283	-0.258372	0.016026	0.143946	-0.375244	-0.124512	0.659912	164.070290	-88.308470	-2.111197
63188		9.012651	1.019855	-0.845110	-0.268744	0.005631	0.163756	-0.374756	-0.112793	0.655762	166.981697	-88.332712	-5.172872
63189		9.037703	0.935220	-1.091064	-0.330273	0.002056	0.164717	-0.375488	-0.126709	0.660889	169.986780	-88.351703	-8.363580
63190		9.234143	0.781376	-1.255221	-0.360509	0.010007	0.171541	-0.373779	-0.117188	0.649902	173.132302	-88.369497	-11.712004
63191		9.384643	0.679200	-1.331532	-0.363224	0.000118	0.157858	-0.369385	-0.122559	0.647949	176.098119	-88.377043	-14.882267
63192		9.431534	0.722772	-1.349817	-0.347059	-0.010219	0.151550	-0.373047	-0.120850	0.653320	178.940873	-88.372691	-17.920070
63193		9.425013	0.705919	-1.295213	-0.318280	-0.019855	0.152853	-0.374268	-0.124268	0.649658	-178.173924	-88.359723	-20.983937
63194		9.490692	0.607743	-1.320064	-0.322101	-0.025590	0.158244	-0.369629	-0.129150	0.650879	-175.280718	-88.337718	-24.057948
63195		9.606905	0.541885	-1.378052	-0.320050	-0.011190	0.173441	-0.375244	-0.128174	0.649902	-172.106722	-88.319442	-27.411804
63196		9.657396	0.459797	-1.479044	-0.324809	0.016346	0.181340	-0.377686	-0.129150	0.648926	-168.799232	-88.309374	-30.901888
63197		9.702230	0.350163	-1.359734	-0.312768	0.048443	0.181095	-0.371826	-0.123779	0.641113	-165.345611	-88.312271	-34.531346
63198		9.746975	0.239159	-1.238303	-0.272760	0.074149	0.184123	-0.368652	-0.129395	0.647461	-161.699331	-88.321187	-38.330529
63199		9.703415	0.274006	-1.140708	-0.253932	0.068294	0.172318	-0.370605	-0.125732	0.640625	-158.231470	-88.323235	-41.940486
63200		9.582431	0.404609	-1.253933	-0.228351	0.026546	0.148003	-0.375244	-0.126953	0.645996	-155.569702	-88.302234	-44.729288
63201		9.442505	0.638725	-1.481308	-0.186156	-0.026846	0.128997	-0.373047	-0.129395	0.638672	-153.686832	-88.255817	-46.714770
63202		9.484109	0.958055	-1.818781	-0.171837	-0.067561	0.116242	-0.370361	-0.130127	0.640137	-152.495401	-88.189549	-48.000264
63203		9.570951	1.146233	-2.037547	-0.189375	-0.072129	0.121945	-0.376953	-0.133057	0.638672	-151.308941	-88.119367	-49.290955
63204		9.553272	1.192449	-2.125863	-0.249654	-0.085161	0.128866	-0.371826	-0.119629	0.632813	-150.297944	-88.039212	-50.440632
63205		9.596982	1.063151	-1.854196	-0.313846	-0.092980	0.138755	-0.377686	-0.124023	0.636963	-149.293402	-87.952379	-51.620773
63206		9.866458	0.785407	-1.826485	-0.332200	-0.195848	0.119511	-0.368408	-0.134033	0.637207	-149.490047	-87.819435	-51.609454
63207		10.250596	0.492200	-1.751785	-0.209740	-0.255121	0.089175	-0.369873	-0.129150	0.629639	-150.358146	-87.666541	-50.856000
63208		10.627724	0.224528	-1.336854	-0.047600	-0.302131	0.036651	-0.374023	-0.135986	0.638916	-151.976051	-87.503164	-49.258954
63209		10.865692	-0.021724	-1.173973	0.154648	-0.452483	-0.026200	-0.374512	-0.134766	0.644775	-154.740447	-87.277267	-46.398047
63210		11.238140	-0.280195	-1.777964	0.378925	-0.497472	-0.074844	-0.367432	-0.121582	0.641846	-157.663887	-87.031888	-43.248635
63211		11.674468	-0.835407	-2.279442	0.583487	-0.308419	-0.116588	-0.362305	-0.127930	0.640381	-159.716330	-86.890624	-40.853572
63212		11.757996	-1.143253	-0.866064	0.735090	-0.096623	-0.130324	-0.357910	-0.125488	0.634521	-160.955231	-86.861618	-39.186033
63213		11.869664	-1.178833	1.121263	0.609087	-0.154840	-0.144017	-0.363037	-0.125977	0.638916	-162.527599	-86.802306	-37.256793
63214		12.053041	-0.933076	1.624790	0.225983	-0.177149	-0.148844	-0.360107	-0.126465	0.640869	-164.381927	-86.727188	-35.264828
63215		11.986253	-0.472352	1.194054	-0.000195	-0.148075	-0.133570	-0.352783	-0.119873	0.634033	-166.040722	-86.663753	-33.598432
63216		11.573695	-0.034645	0.558079	0.004194	-0.128242	-0.105634	-0.351563	-0.135254	0.632568	-167.349450	-86.604043	-32.280042
63217		11.171030	0.089110	0.303620	0.140156	-0.124164	-0.117785	-0.356445	-0.118408	0.639160	-168.620850	-86.547554	-30.920970
63218		10.821544	0.402959	0.632251	0.059625	-0.004407	-0.112591	-0.355713	-0.123779	0.625488	-169.665777	-86.555068	-29.834925
63219		10.145836	1.053805	1.073275	-0.236139	0.073216	-0.024315	-0.359131	-0.121338	0.627686	-169.906427	-86.597861	-29.724433
63220		9.588380	1.505048	1.345438	-0.572106	0.095361	0.095308	-0.356689	-0.127441	0.621094	-169.177898	-86.639573	-30.777595
63221		9.151094	1.544874	1.057271	-0.701330	0.087176	0.182791	-0.358154	-0.131104	0.629883	-167.654811	-86.666524	-32.700851
63222		9.009200	1.122603	0.997510	-0.687291	0.089550	0.216692	-0.357666	-0.135498	0.625732	-165.788293	-86.686002	-34.959962
63223		9.010508	0.369410	0.669565	-0.617459	0.050991	0.195569	-0.366455	-0.142822	0.612549	-164.144816	-86.684221	-36.955612
63224		9.171859	-0.366727	0.404445	-0.532136	0.006978	0.134888	-0.360107	-0.133545	0.617432	-163.179534	-86.664529	-38.222925
63225		9.235161	-0.815269	0.265233	-0.416639	-0.044494	0.046479	-0.357910	-0.148438	0.617432	-163.111796	-86.631492	-38.524953
63226		9.702353	-1.144857	0.164860	-0.349106	-0.031345	-0.025739	-0.350586	-0.140869	0.618164	-163.663304	-86.616756	-38.167856
63227		9.951801	-1.583305	0.118216	-0.255507	-0.031629	-0.051245	-0.354980	-0.144531	0.614502	-164.372888	-86.606494	-37.598729
63228		10.023636	-1.950579	0.051764	-0.187499	-0.029822	-0.038094	-0.361572	-0.159424	0.611328	-164.934015	-86.594033	-37.139231
63229		10.105098	-1.783595	0.052476	-0.194118	-0.008553	0.004396	-0.351074	-0.157715	0.611084	-165.027599	-86.587715	-37.151949
63230		10.079266	-1.299167	0.048055	-0.231820	0.013500	0.068965	-0.356934	-0.147705	0.624268	-164.509473	-86.583048	-37.799060
63231		10.058790	-0.889339	0.056928	-0.243771	0.018143	0.134251	-0.363770	-0.163574	0.609375	-163.367400	-86.570830	-39.078143
63232		9.905467	-0.596182	0.221881	-0.243630	0.025014	0.186745	-0.353271	-0.158203	0.613037	-161.759296	-86.550772	-40.823997
63233		9.706824	-0.425282	0.079500	-0.239020	0.004032	0.222116	-0.357910	-0.157471	0.604004	-159.903790	-86.510261	-42.815157
63234		9.349166	-0.358622	-0.090829	-0.207465	0.001158	0.237248	-0.356445	-0.164551	0.600830	-157.976450	-86.460491	-44.860234
63235		9.059595	-0.368623	0.024247	-0.219154	0.032522	0.244701	-0.359375	-0.156738	0.604492	-155.913915	-86.421858	-47.047608
63236		8.843055	-0.395194	-0.022427	-0.232198	0.031508	0.245296	-0.358643	-0.162598	0.611572	-153.926128	-86.377235	-49.167645
63237		8.832895	-0.431445	-0.126555	-0.219435	0.008891	0.243105	-0.356934	-0.162842	0.608643	-152.075654	-86.317704	-51.142914
63238		8.885392	-0.565685	-0.087198	-0.177347	0.011663	0.233175	-0.360352	-0.155762	0.601318	-150.347085	-86.257960	-52.971963
63239		8.891879	-0.559505	-0.159951	-0.132048	-0.001851	0.214672	-0.361084	-0.163330	0.600098	-148.827550	-86.193984	-54.565669
63240		8.881445	-0.618567	-0.070451	-0.081785	-0.028279	0.194430	-0.356445	-0.155273	0.596680	-147.615399	-86.120394	-55.822540
63241		8.847698	-0.586454	-0.225097	-0.077389	-0.040904	0.173448	-0.355469	-0.155762	0.598145	-146.631428	-86.046000	-56.848304
63242		8.847097	-0.623027	-0.400892	-0.072509	-0.013392	0.158191	-0.361328	-0.163818	0.602051	-145.676324	-85.988078	-57.842393
63243		8.886256	-0.794837	-0.428394	-0.033779	0.033177	0.154586	-0.361328	-0.160889	0.598389	-144.515198	-85.952246	-59.020843
63244		9.058954	-1.011497	-0.321923	0.003257	0.065500	0.129279	-0.364014	-0.160400	0.599121	-143.379937	-85.938001	-60.152112
63245		9.105365	-1.182434	-0.218794	0.020715	0.083856	0.122385	-0.359131	-0.157471	0.594482	-142.178541	-85.933136	-61.339683
63246		9.049705	-1.022591	-0.081012	0.040952	0.085869	0.111631	-0.364502	-0.158447	0.603027	-141.043552	-85.931061	-62.449047
63247		9.016505	-0.786274	-0.318751	0.048308	0.070152	0.096691	-0.357666	-0.159424	0.587158	-140.061731	-85.926220	-63.400647
63248		9.153174	-0.587140	-0.509277	0.063165	0.092221	0.092538	-0.368896	-0.160400	0.590332	-139.000138	-85.931156	-64.423676
63249		9.178981	-0.579369	-0.514806	0.069149	0.123041	0.093955	-0.360107	-0.165039	0.589111	-137.740094	-85.947437	-65.642217
63250		9.187456	-0.660935	-0.526895	0.057117	0.150137	0.095088	-0.365723	-0.167480	0.593506	-136.336334	-85.972462	-67.009993
63251		9.152335	-0.896830	-0.506795	0.075471	0.164143	0.079452	-0.366943	-0.163086	0.589111	-134.897304	-86.007223	-68.404252
63252		9.058656	-1.076801	-0.448293	0.107130	0.169471	0.063444	-0.369385	-0.164795	0.582764	-133.492965	-86.048176	-69.745477
63253		9.036240	-1.117557	-0.431664	0.138572	0.145924	0.035362	-0.362793	-0.153809	0.581787	-132.328982	-86.089690	-70.827667
63254		9.088958	-1.125480	-0.602824	0.142965	0.122893	0.013096	-0.372803	-0.158203	0.582275	-131.427632	-86.130497	-71.644030
63255		9.127760	-1.058941	-0.874706	0.168206	0.118970	-0.011790	-0.370605	-0.165771	0.584717	-130.640006	-86.179797	-72.331886
63256		9.040807	-0.955898	-0.977612	0.175539	0.117889	-0.038372	-0.371826	-0.158691	0.583740	-130.002859	-86.239660	-72.863344
63257		8.821024	-0.864587	-1.012993	0.189299	0.103631	-0.069502	-0.363770	-0.158691	0.581543	-129.593756	-86.307733	-73.159670
63258		8.708743	-0.911385	-1.209259	0.226351	0.062219	-0.091756	-0.370850	-0.156006	0.586426	-129.585685	-86.370383	-73.032838
63259		8.797554	-1.066617	-1.377996	0.259507	0.043788	-0.109131	-0.372803	-0.160645	0.587158	-129.773793	-86.433999	-72.690425
63260		8.701494	-1.311008	-1.263906	0.293754	0.040068	-0.123687	-0.372070	-0.165039	0.575195	-130.085673	-86.502417	-72.202941
63261		8.676831	-1.423744	-1.350936	0.343995	0.004798	-0.140712	-0.372070	-0.157959	0.579102	-130.726144	-86.565055	-71.358888
63262		8.971777	-1.317273	-1.364863	0.361170	0.013043	-0.138848	-0.372803	-0.151367	0.588623	-131.332229	-86.629254	-70.539472
63263		8.880955	-1.247927	-1.596661	0.426106	-0.018051	-0.128364	-0.370117	-0.155029	0.578125	-132.066365	-86.676733	-69.554571
63264		8.946729	-1.255284	-1.687730	0.457325	-0.045174	-0.131722	-0.369385	-0.156006	0.579346	-133.048635	-86.713967	-68.301981
63265		9.304806	-1.155149	-1.643221	0.437905	-0.046680	-0.113433	-0.365234	-0.150879	0.577637	-133.929253	-86.742131	-67.163663
63266		9.359228	-1.240747	-1.460761	0.465709	-0.070219	-0.105040	-0.370850	-0.149414	0.578857	-134.940351	-86.755987	-65.878719
63267		9.402122	-1.121558	-1.315687	0.474885	-0.095476	-0.104650	-0.366699	-0.160400	0.578125	-136.109295	-86.758349	-64.430424
63268		9.541267	-0.690676	-1.336546	0.504653	-0.130614	-0.114008	-0.366455	-0.149414	0.577393	-137.591856	-86.747337	-62.650916
63269		9.696852	-0.360983	-1.253947	0.495561	-0.130257	-0.113497	-0.368408	-0.144043	0.574219	-139.041203	-86.734192	-60.909874
63270		9.981330	-0.153619	-1.308409	0.430517	-0.108195	-0.105934	-0.366699	-0.145020	0.573730	-140.334751	-86.724974	-59.362193
63271		10.222126	-0.066017	-1.329712	0.355637	-0.079698	-0.088274	-0.363037	-0.137695	0.578369	-141.327772	-86.720831	-58.158495
63272		10.366949	-0.144310	-1.261107	0.267388	-0.032647	-0.063107	-0.369141	-0.140869	0.577393	-141.900473	-86.727322	-57.426451
63273		10.262112	-0.436357	-1.204511	0.215991	0.005500	-0.052925	-0.364258	-0.146729	0.572998	-142.170156	-86.747761	-57.027424
63274		10.119818	-0.698004	-1.245100	0.192148	0.016235	-0.060063	-0.361084	-0.136230	0.580078	-142.468938	-86.774816	-56.612940
63275		9.930479	-0.855518	-1.544566	0.191452	-0.009705	-0.087919	-0.361084	-0.135742	0.583740	-143.142145	-86.800129	-55.823856
63276		9.885743	-0.890100	-1.900622	0.237887	-0.044297	-0.118938	-0.372314	-0.144043	0.575439	-144.288645	-86.818580	-54.534112
63277		9.861343	-0.839740	-2.111791	0.299036	-0.058401	-0.137281	-0.366455	-0.143066	0.571777	-145.633417	-86.835605	-53.010727
63278		10.067200	-0.799703	-2.196925	0.285398	-0.079092	-0.143518	-0.365479	-0.138184	0.572998	-147.191136	-86.841789	-51.281911
63279		10.494782	-0.677335	-1.981200	0.153211	-0.095899	-0.121567	-0.358887	-0.145996	0.582520	-148.706254	-86.831406	-49.671611
63280		10.933752	-0.553909	-1.857529	0.007506	-0.130301	-0.086050	-0.361084	-0.146240	0.572510	-150.170581	-86.790489	-48.195754
63281		11.232089	-0.448978	-2.349192	-0.107335	-0.222556	-0.041982	-0.361572	-0.145020	0.578125	-151.694968	-86.689904	-46.725544
63282		11.252406	-0.536609	-2.494485	-0.234555	-0.224803	-0.008594	-0.347900	-0.152344	0.574219	-152.943040	-86.576306	-45.604986
63283		11.108505	-0.778948	-2.402791	-0.265709	-0.224423	-0.027613	-0.355225	-0.158691	0.569580	-154.273534	-86.467314	-44.419605
63284		10.891494	-0.700885	-1.601457	-0.089212	-0.200490	-0.063860	-0.350342	-0.156982	0.569824	-155.652046	-86.376776	-43.084667
63285		10.608454	-0.382208	-1.233208	0.101750	-0.303561	-0.115370	-0.357178	-0.161865	0.575684	-157.607737	-86.242451	-41.061541
63286		10.859051	-0.005347	-0.630034	0.139401	-0.378097	-0.104533	-0.351318	-0.160889	0.570557	-159.549015	-86.060575	-39.030878
63287		11.160701	0.339345	-0.196738	0.130221	-0.346041	-0.058491	-0.343750	-0.156250	0.565430	-160.877518	-85.884447	-37.619337
63288		11.611545	0.550172	0.161019	0.131335	-0.273590	0.014169	-0.343994	-0.160889	0.571045	-161.401893	-85.731382	-37.013152
63289		12.165170	0.657303	0.382083	-0.046009	-0.159926	0.120201	-0.346191	-0.160400	0.581543	-160.958276	-85.621526	-37.479513
63290		12.155105	0.758775	0.358430	-0.149546	-0.104951	0.198848	-0.347412	-0.161377	0.568604	-159.929795	-85.524685	-38.592059
63291		11.355681	0.373703	0.778221	0.050111	-0.049984	0.194988	-0.346191	-0.158447	0.572510	-158.705301	-85.457540	-39.786595
63292		10.157719	-0.435490	0.720019	0.222921	-0.100033	0.125304	-0.348877	-0.160889	0.577881	-158.021699	-85.375859	-40.339305
63293		9.185562	-0.846859	0.491799	0.250787	-0.071242	0.050083	-0.336914	-0.158447	0.577881	-157.741569	-85.326362	-40.471235
63294		8.610123	-0.770453	0.952319	0.432401	-0.004598	-0.047115	-0.344238	-0.160400	0.570557	-157.824361	-85.332245	-40.134643
63295		8.246117	-0.767310	1.832001	0.555121	-0.090788	-0.117352	-0.354248	-0.162109	0.564209	-158.506478	-85.308085	-39.126160
63296		8.418234	-0.496463	0.919352	0.468700	-0.169991	-0.161866	-0.347168	-0.161377	0.565918	-159.718538	-85.248280	-37.635558
63297		8.813610	-0.162805	0.606244	0.440843	-0.060033	-0.160882	-0.342285	-0.151855	0.573486	-160.650172	-85.246270	-36.442294
63298		9.135943	0.016892	0.663574	0.388797	0.048317	-0.123954	-0.343994	-0.156006	0.566895	-161.139003	-85.293803	-35.723309
63299		9.427714	0.183205	0.547450	0.287412	0.106155	-0.077933	-0.348877	-0.162598	0.572754	-161.252550	-85.364866	-35.439199
63300		9.600902	0.369667	0.362041	0.169415	0.170254	-0.031182	-0.341064	-0.152588	0.567139	-160.982974	-85.461111	-35.607300
63301		9.656798	0.680747	0.459194	0.066029	0.237854	0.001067	-0.347900	-0.157959	0.564697	-160.362653	-85.588608	-36.186612
63302		9.574370	1.091969	0.589609	-0.049383	0.250336	0.014983	-0.339355	-0.167236	0.572998	-159.651234	-85.718696	-36.923493
63303		9.530569	1.191559	0.673774	-0.132303	0.231383	-0.008809	-0.354248	-0.158203	0.566650	-159.160745	-85.843682	-37.486367
63304		9.683776	1.207115	0.622998	-0.202226	0.148627	-0.065308	-0.355225	-0.162598	0.566895	-159.357191	-85.934878	-37.400611
63305		9.772380	1.151601	0.340617	-0.217635	0.048695	-0.130548	-0.356689	-0.168457	0.570068	-160.342146	-85.985943	-36.533253
63306		9.794253	0.956335	0.127300	-0.233955	-0.028111	-0.190044	-0.347412	-0.165527	0.562744	-162.035956	-86.004125	-34.964695
63307		9.919427	0.724288	-0.086306	-0.231036	-0.068837	-0.236872	-0.349121	-0.171875	0.559570	-164.193084	-86.004883	-32.930053
63308		9.824802	0.420695	-0.246794	-0.186109	-0.089295	-0.273736	-0.345947	-0.169434	0.569580	-166.666072	-85.993081	-30.552934
63309		9.571580	0.269565	-0.465479	-0.185181	-0.100906	-0.276990	-0.349609	-0.173096	0.556152	-169.153574	-85.968828	-28.160709
63310		9.190297	0.367839	-0.470324	-0.180712	-0.065891	-0.265342	-0.350342	-0.179199	0.562256	-171.480012	-85.955366	-25.927292
63311		9.090256	0.452141	-0.322343	-0.189639	-0.023063	-0.231950	-0.345703	-0.178955	0.566162	-173.476386	-85.958681	-24.029908
63312		9.139447	0.517704	-0.378342	-0.203668	0.005321	-0.192955	-0.351807	-0.179443	0.565674	-175.156521	-85.970796	-22.457587
63313		9.290479	0.498322	-0.363947	-0.240004	0.042626	-0.142996	-0.357178	-0.194092	0.566895	-176.431089	-86.000167	-21.312779
63314		9.406421	0.445756	-0.220516	-0.284766	0.075449	-0.093794	-0.344971	-0.196289	0.561035	-177.339629	-86.044360	-20.560599
63315		9.425543	0.463500	-0.174989	-0.306690	0.092316	-0.059261	-0.351318	-0.193359	0.550049	-177.975724	-86.097593	-20.094185
63316		9.383556	0.482444	-0.244445	-0.324887	0.098964	-0.034620	-0.350586	-0.191162	0.556641	-178.435783	-86.152999	-19.814643
63317		9.308210	0.474862	-0.419507	-0.322035	0.107024	-0.038196	-0.349365	-0.197754	0.555176	-178.924799	-86.213800	-19.504509
63318		9.242063	0.579464	-0.578711	-0.318558	0.114151	-0.048121	-0.341797	-0.204590	0.557861	-179.521503	-86.277684	-19.084430
63319		9.069027	0.810244	-0.597841	-0.314304	0.136410	-0.071154	-0.348877	-0.207764	0.559814	179.669283	-86.354884	-18.449042
63320		8.990848	0.891109	-0.626060	-0.318204	0.128302	-0.088552	-0.349854	-0.199219	0.557129	178.658174	-86.425746	-17.613595
63321		8.925475	1.016418	-0.802918	-0.353601	0.107317	-0.105343	-0.353027	-0.211914	0.557373	177.451197	-86.484137	-16.602339
63322		8.939163	1.085918	-0.957828	-0.367263	0.097733	-0.108902	-0.354736	-0.215332	0.558105	176.161020	-86.534641	-15.515568
63323		8.936405	0.953742	-0.777507	-0.339988	0.115938	-0.101649	-0.352295	-0.211670	0.549805	174.916477	-86.595319	-14.458983
63324		8.894929	0.624314	-0.677539	-0.303016	0.083294	-0.103222	-0.354492	-0.214355	0.555664	173.660832	-86.634955	-13.370044
63325		8.986013	0.430266	-0.779739	-0.285499	0.064295	-0.098612	-0.352539	-0.218262	0.558838	172.467695	-86.663680	-12.333771
63326		9.024623	0.339856	-0.962478	-0.300715	0.061288	-0.089487	-0.344727	-0.222656	0.547607	171.330260	-86.689225	-11.361985
63327		9.101748	0.444365	-1.064249	-0.293503	0.090862	-0.070653	-0.347412	-0.226563	0.549561	170.327336	-86.733146	-10.520897
63328		9.001706	0.549712	-1.137831	-0.279392	0.120342	-0.035799	-0.362549	-0.226318	0.541260	169.592277	-86.795442	-9.939976
63329		8.889988	0.634213	-1.101800	-0.286048	0.141923	0.001678	-0.359131	-0.233398	0.540283	169.180192	-86.874521	-9.686454
63330		8.778812	0.662028	-1.375192	-0.321508	0.127118	0.046043	-0.364258	-0.230713	0.554688	169.217962	-86.948963	-9.903730
63331		8.730538	0.722698	-1.591408	-0.368739	0.123235	0.083921	-0.351318	-0.232666	0.549561	169.664631	-87.026165	-10.557631
63332		8.699369	0.740785	-1.533239	-0.376359	0.130436	0.124612	-0.361084	-0.232666	0.548096	170.564970	-87.109990	-11.670041
63333		8.699459	0.691147	-1.460292	-0.373265	0.131600	0.145741	-0.356689	-0.228027	0.540527	171.782804	-87.196293	-13.098560
63334		8.647906	0.667540	-1.400115	-0.381214	0.127752	0.157593	-0.354980	-0.239746	0.535400	173.211839	-87.278602	-14.742901
63335		8.748037	0.529593	-1.265426	-0.368318	0.109462	0.158984	-0.359131	-0.235107	0.542725	174.796231	-87.349477	-16.535349
63336		8.852097	0.379948	-1.325841	-0.340418	0.074063	0.147287	-0.360352	-0.242676	0.541260	176.350231	-87.396266	-18.281206
63337		8.906504	0.367660	-1.503718	-0.298908	0.053443	0.128171	-0.358887	-0.242920	0.536377	177.770095	-87.429597	-19.869006
63338		8.717840	0.515848	-1.514357	-0.262836	0.041330	0.111834	-0.366455	-0.248779	0.536621	179.021717	-87.453047	-21.267593
63339		8.822141	0.837011	-1.621885	-0.195495	0.034459	0.095022	-0.366943	-0.244629	0.540039	-179.863387	-87.472178	-22.490755
63340		8.920540	0.925478	-1.505302	-0.128002	0.080804	0.100399	-0.366943	-0.240967	0.538818	-178.627647	-87.515713	-23.796060
63341		9.010520	0.898185	-1.567495	-0.194440	0.087035	0.135237	-0.352539	-0.252930	0.538330	-176.892004	-87.561514	-25.639866
63342		9.258579	0.763667	-1.606729	-0.272995	0.098297	0.170830	-0.361816	-0.244873	0.535156	-174.658945	-87.608520	-28.026435
63343		9.480832	0.672987	-1.673246	-0.309297	0.085570	0.200180	-0.370605	-0.250244	0.535400	-171.952304	-87.642866	-30.907818
63344		9.680986	0.676301	-1.667879	-0.312441	0.064016	0.190573	-0.371826	-0.250244	0.531006	-169.388496	-87.659494	-33.647920
63345		9.757711	0.768440	-1.570598	-0.251046	0.070508	0.169745	-0.361572	-0.251465	0.530029	-166.994402	-87.678178	-36.183005
63346		9.861393	0.829664	-1.464372	-0.186474	0.079834	0.139921	-0.368652	-0.248047	0.528809	-164.932549	-87.701345	-38.348437
63347		9.987569	0.943970	-1.377555	-0.139006	0.071411	0.113783	-0.367432	-0.244385	0.536377	-163.167924	-87.721842	-40.189231
63348		10.036135	0.990135	-1.385243	-0.117562	0.060374	0.082923	-0.365234	-0.256348	0.523926	-161.868114	-87.738879	-41.552443
63349		9.969363	1.005999	-1.587171	-0.149888	0.029094	0.073669	-0.373535	-0.252930	0.531738	-160.812727	-87.740258	-42.689650
63350		9.867440	1.027167	-1.885776	-0.178096	0.007897	0.070196	-0.369141	-0.254883	0.527344	-159.959685	-87.729385	-43.640451
63351		9.716685	0.979783	-2.152746	-0.171644	-0.024995	0.081636	-0.365723	-0.251221	0.529053	-159.093353	-87.698712	-44.600948
63352		9.697544	1.066258	-2.555525	-0.186025	-0.071599	0.109998	-0.370605	-0.257568	0.527832	-158.168225	-87.635939	-45.628486
63353		9.745680	1.128172	-2.594166	-0.181045	-0.065904	0.144339	-0.368896	-0.258789	0.530762	-156.800525	-87.568506	-47.096258
63354		9.677512	1.043224	-2.127304	-0.201387	-0.058240	0.168225	-0.371094	-0.253418	0.529541	-155.229355	-87.497278	-48.779351
63355		9.806952	0.675534	-1.816900	-0.161613	-0.181158	0.153829	-0.371582	-0.260010	0.533203	-154.533081	-87.365029	-49.564066
63356		10.300499	0.288188	-1.793415	-0.040989	-0.329432	0.099863	-0.358398	-0.259766	0.520020	-155.190614	-87.168314	-48.924274
63357		10.976526	-0.156346	-1.506273	0.102265	-0.454133	0.021723	-0.367188	-0.256104	0.527832	-156.962424	-86.924527	-47.086490
63358		11.764630	-0.974660	-1.758509	0.277471	-0.512094	-0.055661	-0.368652	-0.255371	0.536865	-159.313716	-86.662349	-44.567276
63359		12.439546	-1.763255	-2.624890	0.673147	-0.427057	-0.140283	-0.366943	-0.249756	0.536133	-161.554533	-86.457753	-41.931086
63360		12.806844	-2.051171	-1.385681	1.047568	-0.208047	-0.219826	-0.364014	-0.251709	0.540527	-163.471328	-86.379985	-39.404149
63361		12.688886	-1.888256	1.232626	0.867992	-0.097353	-0.275033	-0.357178	-0.247803	0.543701	-165.607015	-86.367293	-36.760904
63362		12.197595	-0.978067	1.710864	0.415132	-0.209796	-0.302612	-0.355957	-0.252930	0.546875	-168.442617	-86.287007	-33.676119
63363		11.525912	0.152133	0.513730	0.260491	-0.277438	-0.294603	-0.360352	-0.247070	0.543213	-171.235442	-86.159304	-30.722690
63364		10.738304	0.943803	-0.572935	0.349218	-0.246898	-0.273553	-0.363525	-0.250244	0.541748	-173.602980	-86.037580	-28.144092
63365		10.129398	1.102887	-0.027522	0.398494	-0.054885	-0.245135	-0.356445	-0.247314	0.543945	-175.430317	-86.018700	-26.078530
63366		9.791691	1.295953	1.305427	0.300322	0.057435	-0.175762	-0.352539	-0.255371	0.543701	-176.689671	-86.056235	-24.638656
63367		9.720646	1.320553	1.649308	-0.003510	0.044858	-0.067300	-0.352539	-0.249023	0.543701	-177.230397	-86.082941	-24.093716
63368		9.801772	1.173164	1.334602	-0.204526	0.036348	0.053826	-0.356445	-0.245850	0.546143	-176.895006	-86.099990	-24.542320
63369		9.785342	0.893382	1.323607	-0.274054	0.061447	0.133906	-0.357910	-0.245117	0.542480	-175.890264	-86.129298	-25.701804
63370		9.858703	0.422621	1.544253	-0.305077	0.065293	0.157543	-0.359375	-0.259521	0.544678	-174.700597	-86.157124	-27.064338
63371		9.996266	0.107885	1.116291	-0.309719	0.030372	0.140956	-0.354492	-0.249756	0.536621	-173.653243	-86.165249	-28.286947
63372		10.102492	-0.150326	0.690640	-0.269291	0.013740	0.088463	-0.358643	-0.246338	0.543213	-173.059570	-86.165267	-29.031564
63373		10.131226	-0.576519	0.432014	-0.186808	0.008040	0.034184	-0.362549	-0.254150	0.537842	-172.867369	-86.166451	-29.326515
63374		10.119688	-1.070735	0.544973	-0.089141	0.014226	-0.018710	-0.360840	-0.256592	0.532959	-173.079215	-86.173969	-29.160358
63375		10.051328	-1.659822	0.609862	0.041205	0.009392	-0.043971	-0.369629	-0.254639	0.532471	-173.419777	-86.181284	-28.790420
63376		9.996160	-2.038910	0.405675	0.101904	0.002969	-0.032723	-0.364014	-0.256836	0.539795	-173.653485	-86.183223	-28.492653
63377		10.143101	-1.898657	0.306672	0.083980	0.017719	0.015072	-0.364014	-0.252686	0.540771	-173.458611	-86.191351	-28.634780
63378		10.085802	-1.398746	0.326658	0.032677	0.043594	0.081914	-0.365967	-0.256104	0.537354	-172.708227	-86.208669	-29.363036
63379		10.033198	-0.910162	0.312924	0.003296	0.041020	0.153697	-0.363770	-0.252686	0.551025	-171.338781	-86.218741	-30.728629
63380		9.794116	-0.555797	0.128847	-0.037523	0.024561	0.222211	-0.365234	-0.245850	0.540283	-169.443451	-86.209628	-32.644635
63381		9.737211	-0.388710	0.028046	-0.065152	0.018029	0.263763	-0.360596	-0.257813	0.536133	-167.222004	-86.188215	-34.903435
63382		9.313427	-0.349230	-0.004261	-0.065387	0.022967	0.281030	-0.372803	-0.253418	0.542480	-164.892074	-86.160579	-37.271105
63383		8.996486	-0.371838	-0.047477	-0.069946	0.040975	0.290679	-0.373291	-0.252197	0.538330	-162.461685	-86.135364	-39.742207
63384		8.834997	-0.412938	0.058775	-0.068965	0.061656	0.278665	-0.365967	-0.256348	0.539063	-160.119253	-86.116147	-42.124603
63385		8.861559	-0.389953	0.008994	-0.068492	0.055124	0.262884	-0.366699	-0.254639	0.539307	-157.930078	-86.090823	-44.353226
63386		8.706389	-0.288519	-0.025316	-0.022806	0.028847	0.242705	-0.372559	-0.248291	0.544189	-156.005395	-86.050305	-46.290539
63387		8.680311	-0.325093	-0.008247	0.060431	-0.007054	0.207238	-0.364502	-0.252686	0.537354	-154.447541	-85.996019	-47.812488
63388		8.648004	-0.369523	0.062525	0.056250	0.037379	0.182374	-0.371094	-0.253662	0.531250	-152.966435	-85.967727	-49.259935
63389		8.593728	-0.358562	-0.103462	0.055896	0.033558	0.159940	-0.369873	-0.245117	0.532227	-151.664393	-85.941349	-50.528167
63390		8.553055	-0.486936	-0.284645	0.052398	0.035887	0.145136	-0.367676	-0.248291	0.543945	-150.491861	-85.918019	-51.668568
63391		8.484477	-0.710082	-0.386806	0.086807	0.035462	0.138906	-0.369385	-0.241699	0.538574	-149.341618	-85.894905	-52.766931
63392		8.535093	-0.850088	-0.323201	0.128973	0.043996	0.126341	-0.373779	-0.246826	0.534180	-148.245423	-85.877919	-53.786875
63393		8.665133	-0.909559	-0.346212	0.157817	0.028176	0.116027	-0.376953	-0.245850	0.533936	-147.262179	-85.855326	-54.677066
63394		8.920617	-0.939983	-0.584875	0.178972	0.005427	0.111353	-0.372314	-0.249512	0.539063	-146.422213	-85.822048	-55.411445
63395		9.091200	-0.859620	-0.622310	0.168623	0.023054	0.105530	-0.383057	-0.247314	0.531006	-145.545185	-85.798417	-56.188992
63396		9.222483	-0.856133	-0.688825	0.152501	0.041230	0.110528	-0.379395	-0.250244	0.536865	-144.588780	-85.780578	-57.055381
63397		9.240024	-0.901005	-0.799142	0.130647	0.053994	0.111962	-0.381104	-0.242676	0.536133	-143.570108	-85.767266	-57.996813
63398		9.160538	-0.877845	-0.772573	0.128676	0.086664	0.092599	-0.378174	-0.246094	0.536621	-142.539457	-85.774169	-58.951361
63399		9.039657	-0.797252	-0.828629	0.171444	0.096193	0.060742	-0.381104	-0.239258	0.530273	-141.614338	-85.795551	-59.775535
63400		8.990272	-0.820556	-0.805134	0.188155	0.107335	0.022609	-0.380127	-0.242676	0.528076	-140.862850	-85.834544	-60.415951
63401		8.994800	-0.606740	-0.754046	0.171061	0.121221	-0.002733	-0.378906	-0.244873	0.532959	-140.176905	-85.888464	-61.000465
63402		8.894232	-0.559806	-0.746574	0.157896	0.124992	-0.031278	-0.380371	-0.239746	0.534668	-139.653435	-85.953973	-61.429579
63403		8.786881	-0.423063	-0.736107	0.148708	0.121730	-0.049719	-0.386719	-0.233154	0.530029	-139.236348	-86.024817	-61.757320
63404		8.694949	-0.390662	-0.956401	0.161126	0.095699	-0.065197	-0.377441	-0.235840	0.535156	-139.056026	-86.089916	-61.840544
63405		8.589702	-0.509653	-1.352931	0.205647	0.055595	-0.072548	-0.376221	-0.240479	0.538818	-139.100084	-86.140547	-61.673331
63406		8.584973	-0.788285	-1.675247	0.245847	0.054702	-0.072064	-0.385010	-0.237305	0.532715	-139.142303	-86.190438	-61.484851
63407		8.549469	-1.139164	-1.564678	0.261823	0.072935	-0.072182	-0.383789	-0.240967	0.534912	-139.058246	-86.248437	-61.413796
63408		8.493953	-1.510968	-1.469060	0.314620	0.060137	-0.087923	-0.379883	-0.227295	0.534180	-139.140720	-86.306590	-61.145515
63409		8.476717	-1.765911	-1.527373	0.376661	0.016572	-0.109081	-0.387939	-0.230957	0.541016	-139.575151	-86.353835	-60.488983
63410		8.535163	-1.937925	-1.642267	0.431068	-0.043931	-0.136993	-0.384277	-0.233887	0.535645	-140.555688	-86.383958	-59.254009
63411		8.902308	-1.920108	-1.778092	0.476559	-0.068080	-0.146445	-0.381836	-0.237061	0.543213	-141.715207	-86.405545	-57.813647
63412		9.294370	-1.889160	-1.754221	0.524487	-0.083128	-0.140890	-0.381592	-0.237305	0.533203	-142.921247	-86.416093	-56.299158
63413		9.723823	-1.842525	-1.478847	0.578994	-0.072185	-0.139630	-0.382324	-0.232666	0.530762	-144.018498	-86.429758	-54.862424
63414		9.963105	-1.686933	-1.145430	0.562188	-0.045487	-0.135552	-0.387451	-0.235840	0.527100	-144.979308	-86.452408	-53.572050
63415		10.142019	-1.111825	-1.009193	0.567325	-0.035430	-0.142379	-0.386475	-0.217773	0.539307	-145.935502	-86.481196	-52.283409
63416		10.242121	-0.534815	-0.854280	0.553838	-0.010875	-0.135597	-0.389404	-0.225342	0.542236	-146.754100	-86.517736	-51.140387
63417		10.263148	-0.396519	-0.910261	0.532645	0.018017	-0.113860	-0.387207	-0.224609	0.549072	-147.267261	-86.561149	-50.315595
63418		10.078876	-0.445829	-0.779070	0.469902	0.057538	-0.099021	-0.382080	-0.218994	0.537109	-147.524420	-86.618112	-49.783292
63419		9.963880	-0.407612	-0.669900	0.348622	0.094096	-0.081580	-0.381836	-0.222168	0.537842	-147.510490	-86.687919	-49.592205
63420		9.909583	-0.375916	-0.996190	0.261242	0.082653	-0.080319	-0.380371	-0.220947	0.541992	-147.618646	-86.751174	-49.328968
63421		9.965235	-0.318314	-1.240886	0.207571	0.069994	-0.084187	-0.386475	-0.221436	0.544189	-147.851343	-86.810059	-48.971834
63422		9.853158	-0.217652	-1.560285	0.184196	0.041730	-0.105762	-0.387939	-0.220703	0.540283	-148.472968	-86.860906	-48.238583
63423		9.709883	-0.362874	-2.013003	0.286763	-0.011459	-0.132877	-0.382568	-0.219482	0.541260	-149.574271	-86.893672	-46.966143
63424		9.985123	-0.633924	-1.994415	0.364968	-0.009056	-0.144061	-0.386230	-0.218506	0.543213	-150.764077	-86.928707	-45.560211
63425		10.437744	-0.675094	-1.819539	0.249423	-0.024045	-0.123412	-0.386963	-0.213623	0.542969	-151.911905	-86.949718	-44.262678
63426		10.915160	-0.885494	-1.692435	0.113232	-0.023774	-0.074662	-0.382568	-0.219238	0.538086	-152.700953	-86.955911	-43.402562
63427		11.112868	-0.868286	-1.701558	-0.055156	-0.023685	-0.002998	-0.384766	-0.214600	0.535400	-152.884115	-86.943794	-43.245836
63428		11.272899	-0.660710	-2.140055	-0.265860	-0.017684	0.082740	-0.382813	-0.216309	0.540527	-152.361954	-86.911327	-43.916316
63429		11.236024	-0.709415	-2.036094	-0.513622	-0.087993	0.097047	-0.380859	-0.220459	0.540283	-152.190500	-86.840003	-44.377795
63430		11.453625	-0.204563	-1.345007	-0.447643	-0.209121	0.043937	-0.390381	-0.225342	0.540527	-153.051058	-86.720323	-43.767788
63431		11.629743	0.333560	-1.106227	-0.110961	-0.293213	0.007271	-0.388184	-0.225586	0.544922	-154.325918	-86.567031	-42.549472
63432		11.829789	0.627214	-0.852483	0.015267	-0.307905	0.023899	-0.379395	-0.224854	0.541992	-155.354849	-86.399754	-41.504862
63433		11.749227	0.831197	-0.641808	-0.045048	-0.288976	0.087043	-0.378662	-0.228516	0.531250	-155.743551	-86.227527	-41.136264
63434		11.590589	0.777202	-0.558662	-0.121436	-0.183663	0.161835	-0.383545	-0.229492	0.546875	-155.223816	-86.091535	-41.721927
63435		11.616732	0.399533	0.509975	-0.129231	-0.029999	0.221469	-0.373047	-0.226563	0.548584	-153.747687	-86.020508	-43.270823
63436		11.286495	-0.264135	1.092801	-0.126929	-0.071531	0.246903	-0.380615	-0.231445	0.544434	-152.312082	-85.918146	-44.777918
63437		10.606275	-0.583987	0.617584	-0.080687	-0.139245	0.212063	-0.383301	-0.226074	0.536377	-151.403048	-85.789659	-45.730731
63438		9.713215	-0.687610	0.495883	0.032179	-0.099946	0.143398	-0.377197	-0.228271	0.547852	-150.806256	-85.698249	-46.305715
63439		8.846871	-0.774076	0.561143	0.143402	-0.061599	0.064152	-0.384766	-0.228760	0.546631	-150.532545	-85.648664	-46.492852
63440		8.314134	-0.543486	1.110837	0.239499	-0.028182	-0.010117	-0.382080	-0.232178	0.544434	-150.581396	-85.635920	-46.301270
63441		8.110732	-0.321995	1.406700	0.365275	-0.077331	-0.069072	-0.386963	-0.220947	0.542480	-151.109490	-85.615692	-45.556776
63442		8.325047	-0.254475	1.646917	0.423029	-0.178658	-0.099788	-0.387695	-0.221191	0.542969	-152.162688	-85.551255	-44.252371
63443		8.815047	-0.090111	1.142012	0.285732	-0.307183	-0.113577	-0.385010	-0.226563	0.552002	-153.750032	-85.423233	-42.490911
63444		9.453894	0.102819	0.573656	0.226377	-0.211780	-0.085035	-0.380371	-0.227783	0.547363	-154.827005	-85.333504	-41.275323
63445		9.890551	0.150749	0.375174	0.181640	-0.099193	-0.046140	-0.379639	-0.223877	0.544922	-155.309592	-85.292252	-40.681735
63446		10.011559	0.443919	0.354741	0.072414	0.013497	-0.009369	-0.377930	-0.218994	0.548828	-155.299799	-85.299998	-40.644954
63447		10.078517	0.870591	0.483568	-0.008255	0.096558	0.017746	-0.375732	-0.227539	0.543213	-154.909230	-85.345043	-41.036613
63448		10.050324	1.180433	0.687182	-0.058757	0.138877	0.019722	-0.384277	-0.231934	0.545410	-154.407632	-85.410661	-41.568644
63449		9.806027	1.216649	0.856573	-0.154615	0.128802	-0.001843	-0.375977	-0.232666	0.550049	-154.108365	-85.476745	-41.952768
63450		9.862238	1.177923	0.617480	-0.234082	0.072935	-0.030608	-0.378662	-0.230713	0.543213	-154.224889	-85.520616	-41.965433
63451		10.176190	0.861921	0.525570	-0.255291	-0.012415	-0.096539	-0.380127	-0.224121	0.550781	-155.051805	-85.537027	-41.277750
63452		10.280070	0.551322	0.322757	-0.251933	-0.118721	-0.183457	-0.384521	-0.233887	0.549316	-156.790691	-85.516438	-39.673350
63453		9.936681	0.433006	-0.027906	-0.221914	-0.180919	-0.256784	-0.379883	-0.236084	0.539795	-159.144549	-85.474647	-37.434783
63454		9.327698	0.318988	-0.222007	-0.169346	-0.213963	-0.309830	-0.382568	-0.232910	0.539795	-161.867739	-85.416867	-34.795312
63455		8.948947	0.292770	-0.351520	-0.145612	-0.233718	-0.331139	-0.368896	-0.236084	0.541992	-164.677213	-85.342278	-32.055423
63456		8.843994	0.280793	-0.519536	-0.126835	-0.249314	-0.338060	-0.380859	-0.236328	0.549561	-167.461785	-85.248698	-29.329360
63457		8.956220	0.306333	-0.684992	-0.152631	-0.236610	-0.322743	-0.368896	-0.247559	0.549316	-170.023530	-85.150845	-26.841399
63458		8.982672	0.343649	-0.755794	-0.182171	-0.205437	-0.284579	-0.378662	-0.239502	0.549561	-172.228141	-85.058058	-24.728474
63459		9.005878	0.284373	-0.678950	-0.189702	-0.143791	-0.227752	-0.369385	-0.250244	0.549805	-173.937163	-84.990987	-23.117129
63460		9.100843	0.175675	-0.507665	-0.182188	-0.080253	-0.177192	-0.377197	-0.248779	0.540039	-175.245556	-84.953099	-21.903464
63461		9.114716	0.167980	-0.382032	-0.213185	-0.043059	-0.143099	-0.375732	-0.257080	0.549316	-176.310019	-84.933525	-20.952502
63462		9.138057	0.407851	-0.409485	-0.225886	-0.009710	-0.105759	-0.372070	-0.253662	0.544189	-177.130340	-84.929741	-20.253884
63463		9.034582	0.569677	-0.308553	-0.238012	0.042500	-0.083513	-0.372070	-0.261719	0.548828	-177.792032	-84.955175	-19.721545
63464		8.917665	0.891101	-0.272327	-0.304188	0.064177	-0.077797	-0.370605	-0.260498	0.546387	-178.464166	-84.991684	-19.216765
63465		8.899865	1.081103	-0.317227	-0.311672	0.104213	-0.089772	-0.369629	-0.263916	0.543457	-179.216348	-85.051405	-18.636023
63466		8.837995	1.103859	-0.208086	-0.333770	0.114111	-0.104337	-0.369629	-0.267334	0.535889	179.896930	-85.115441	-17.932954
63467		8.853622	1.061977	-0.289865	-0.383471	0.078213	-0.120199	-0.374756	-0.270508	0.536621	178.865304	-85.158486	-17.113145
63468		8.927566	0.899449	-0.308745	-0.373235	0.061345	-0.127418	-0.372314	-0.266357	0.533691	177.769939	-85.189768	-16.223474
63469		9.086907	0.716062	-0.403518	-0.387431	0.044526	-0.149188	-0.378174	-0.270996	0.543213	176.519815	-85.209963	-15.186751
63470		9.151979	0.578161	-0.590704	-0.415154	0.049200	-0.150170	-0.378662	-0.285889	0.542725	175.226903	-85.230165	-14.123002
63471		9.185388	0.439976	-0.481291	-0.409922	0.075239	-0.145292	-0.373291	-0.278564	0.532959	173.950533	-85.264201	-13.072944
63472		9.142754	0.335514	-0.617394	-0.416710	0.073805	-0.131298	-0.373779	-0.285645	0.535400	172.743563	-85.295745	-12.096412
63473		9.095625	0.248234	-0.954045	-0.449356	0.028929	-0.109806	-0.372559	-0.290527	0.535400	171.705442	-85.302623	-11.308157
63474		9.139919	0.356300	-1.453064	-0.435299	0.021190	-0.081066	-0.371582	-0.296631	0.540771	170.871437	-85.305827	-10.716564
63475		9.182391	0.350046	-1.581678	-0.376478	0.033733	-0.032478	-0.373291	-0.294189	0.534668	170.398449	-85.320835	-10.453458
63476		9.177431	0.347838	-1.735379	-0.344742	0.029483	0.011627	-0.378906	-0.293457	0.525879	170.243519	-85.336819	-10.491164
63477		9.180974	0.288655	-1.897332	-0.298303	0.049259	0.056718	-0.379150	-0.295898	0.528076	170.413493	-85.369067	-10.828217
63478		9.076184	0.255511	-1.795325	-0.259740	0.069951	0.080396	-0.376465	-0.300781	0.533936	170.743802	-85.414335	-11.303871
63479		9.006434	0.271174	-1.835575	-0.235653	0.079482	0.107173	-0.377930	-0.299316	0.535400	171.285199	-85.467874	-11.977473
63480		8.937906	0.314048	-1.914102	-0.211924	0.089988	0.123962	-0.378906	-0.308594	0.528076	171.956859	-85.527409	-12.767982
63481		9.077099	0.392815	-1.897150	-0.208755	0.115011	0.134946	-0.379883	-0.301025	0.528809	172.716523	-85.601995	-13.644936
63482		9.045042	0.630815	-1.851989	-0.215544	0.147379	0.146788	-0.377686	-0.302002	0.525635	173.552757	-85.694052	-14.602413
63483		9.056065	0.859626	-1.532355	-0.206854	0.178085	0.149484	-0.377441	-0.298340	0.529297	174.440801	-85.803456	-15.606795
63484		9.050313	1.138223	-1.324985	-0.191728	0.179260	0.158129	-0.386475	-0.295410	0.529785	175.445712	-85.911918	-16.719447
63485		9.241029	1.271793	-1.157469	-0.201914	0.186725	0.163933	-0.383545	-0.303711	0.521973	176.557178	-86.024168	-17.944688
63486		9.444697	1.322951	-1.204260	-0.269601	0.184091	0.154971	-0.395020	-0.310059	0.524170	177.609444	-86.132214	-19.149224
63487		9.548386	1.383233	-1.246639	-0.335349	0.199253	0.147457	-0.391113	-0.304688	0.516357	178.632159	-86.248066	-20.361814
63488		9.496508	1.406645	-1.198877	-0.345029	0.224565	0.132975	-0.398438	-0.302002	0.518799	179.574172	-86.376121	-21.498843
63489		9.349027	1.209011	-1.173064	-0.313594	0.237552	0.120868	-0.407959	-0.310547	0.519775	-179.487215	-86.511160	-22.614335
63490		9.262621	0.843194	-1.280097	-0.266232	0.202835	0.128926	-0.398926	-0.312500	0.514160	-178.386212	-86.624226	-23.865091
63491		9.242212	0.620152	-1.275242	-0.259556	0.176361	0.143430	-0.392578	-0.312988	0.508057	-177.051893	-86.720916	-25.345676
63492		9.220521	0.540283	-1.376480	-0.256720	0.180208	0.153612	-0.401855	-0.303467	0.508789	-175.541947	-86.816552	-27.000307
63493		9.311857	0.433141	-1.210141	-0.222630	0.204584	0.147870	-0.400391	-0.312500	0.520264	-173.929370	-86.924512	-28.738087
63494		9.324897	0.466038	-1.124782	-0.175096	0.164810	0.138436	-0.402832	-0.315430	0.511230	-172.351524	-87.007132	-30.413568
63495		9.418266	0.482817	-1.238345	-0.160621	0.145663	0.130576	-0.408691	-0.315430	0.503174	-170.775154	-87.077731	-32.079241
63496		9.595551	0.501947	-1.251512	-0.167759	0.137155	0.120521	-0.403809	-0.312744	0.505859	-169.278335	-87.141570	-33.669162
63497		9.704692	0.625969	-1.374807	-0.175303	0.121639	0.103343	-0.413086	-0.317627	0.501709	-167.928625	-87.197223	-35.116133
63498		9.737679	0.827684	-1.694817	-0.171686	0.107755	0.094250	-0.410400	-0.317139	0.502686	-166.689227	-87.244045	-36.450429
63499		9.750127	0.993883	-2.016076	-0.180710	0.078058	0.105148	-0.406006	-0.321533	0.499268	-165.349990	-87.271939	-37.889908
63500		9.752550	1.117077	-2.408915	-0.175094	0.017680	0.116778	-0.410156	-0.317627	0.499756	-164.071740	-87.262564	-39.265001
63501		9.940580	1.195923	-2.701170	-0.201859	-0.031180	0.150797	-0.407715	-0.310547	0.504395	-162.580497	-87.219722	-40.868814
63502		10.034670	1.098215	-2.606716	-0.216899	-0.004921	0.168481	-0.408691	-0.317383	0.503174	-160.878258	-87.185323	-42.692458
63503		10.150047	0.673548	-2.146247	-0.204693	-0.043873	0.159298	-0.419189	-0.321289	0.499268	-159.443277	-87.129789	-44.241680
63504		10.534622	0.168930	-1.801612	0.013004	-0.145451	0.123074	-0.410156	-0.311279	0.498291	-158.759719	-87.025372	-44.913621
63505		10.895695	-0.418971	-1.607432	0.158489	-0.286903	0.044219	-0.412598	-0.309326	0.499512	-159.331545	-86.861899	-44.245092
63506		11.419619	-0.621126	-2.087976	0.201835	-0.436876	-0.040819	-0.417969	-0.319336	0.506836	-161.121204	-86.632750	-42.331680
63507		11.772550	-0.851106	-2.269678	0.383302	-0.451586	-0.088446	-0.411865	-0.310791	0.510986	-163.005772	-86.401229	-40.218653
63508		12.152716	-1.119085	-2.788006	0.628322	-0.337015	-0.108378	-0.409668	-0.316406	0.513184	-164.434875	-86.231618	-38.420812
63509		12.426797	-1.402791	-1.944240	0.916772	-0.087992	-0.128302	-0.402832	-0.313477	0.512695	-165.183628	-86.201279	-37.139049
63510		12.238735	-1.480219	0.415670	0.981128	-0.013612	-0.161276	-0.408203	-0.310791	0.523438	-166.021373	-86.214929	-35.731058
63511		11.925132	-1.110103	1.594766	0.511823	-0.117481	-0.191562	-0.404053	-0.303467	0.521973	-167.566635	-86.173507	-33.883525
63512		11.536798	-0.119281	0.445125	0.090275	-0.266915	-0.183955	-0.407715	-0.306885	0.527344	-169.497644	-86.042744	-31.891182
63513		11.012020	0.629002	-0.683662	0.101382	-0.222822	-0.166142	-0.405273	-0.311768	0.527588	-171.083920	-85.931966	-30.237821
63514		10.403720	0.856669	-0.199219	0.264017	-0.070049	-0.152167	-0.395020	-0.304688	0.522949	-172.237753	-85.903019	-28.924366
63515		9.765342	0.829866	0.748479	0.270377	0.021871	-0.120793	-0.404785	-0.309570	0.527100	-173.020144	-85.923332	-27.979714
63516		9.428929	0.934491	1.357463	0.034416	0.023780	-0.065439	-0.403564	-0.307617	0.523438	-173.515909	-85.939370	-27.457892
63517		9.518126	1.094684	1.298726	-0.100439	0.015981	-0.016889	-0.407471	-0.306641	0.525146	-173.693641	-85.948548	-27.332448
63518		9.496710	1.080935	1.476841	-0.137709	0.034858	0.029939	-0.404785	-0.311035	0.519775	-173.514663	-85.964656	-27.585931
63519		9.358079	1.014065	1.646561	-0.271230	0.045676	0.074517	-0.400879	-0.311768	0.530273	-173.023007	-85.984644	-28.229634
63520		9.097925	0.904512	1.258841	-0.363410	0.026414	0.112626	-0.409912	-0.316406	0.524902	-172.307030	-85.989687	-29.151059
63521		9.028318	0.589977	0.904338	-0.330114	0.013298	0.111464	-0.410889	-0.317383	0.520508	-171.578660	-85.987288	-30.065867
63522		9.102658	0.136543	0.690292	-0.273801	0.010512	0.078907	-0.408691	-0.328125	0.512451	-171.102163	-85.984804	-30.695755
63523		9.310377	-0.326758	0.406133	-0.221132	-0.003164	0.034103	-0.408203	-0.326904	0.518311	-170.957750	-85.978981	-30.962578
63524		9.512910	-0.758086	0.326322	-0.171977	-0.003641	-0.015678	-0.418457	-0.313965	0.523438	-171.203547	-85.976730	-30.809912
63525		9.718648	-1.298926	0.312625	-0.090564	0.014719	-0.040465	-0.403076	-0.312744	0.519531	-171.563345	-85.987553	-30.496287
63526		9.879402	-1.696351	0.347169	0.004522	0.008930	-0.038730	-0.414307	-0.322998	0.526367	-171.879331	-85.994241	-30.171889
63527		9.966743	-1.618230	0.193039	0.049080	-0.017170	-0.019883	-0.414551	-0.322021	0.517090	-172.031157	-85.985103	-29.986543
63528		10.161861	-1.134874	0.023491	0.005155	-0.015501	0.039678	-0.416992	-0.328857	0.528320	-171.740777	-85.971550	-30.269642
63529		10.123252	-0.778705	0.028758	-0.003772	0.016910	0.118934	-0.413818	-0.323242	0.518555	-170.765444	-85.969775	-31.244601
63530		10.020966	-0.619349	0.100952	-0.029727	0.016976	0.194202	-0.415527	-0.319824	0.526367	-169.220457	-85.958531	-32.805470
63531		9.520086	-0.498685	0.030195	-0.070626	-0.021326	0.243065	-0.410400	-0.331055	0.520752	-167.375668	-85.917344	-34.690514
63532		9.314729	-0.340319	-0.057980	-0.075968	-0.034986	0.267061	-0.414795	-0.321533	0.525879	-165.431062	-85.860507	-36.678745
63533		9.318189	-0.304783	-0.138015	-0.066456	-0.035475	0.270643	-0.409668	-0.324463	0.521240	-163.495816	-85.798436	-38.652348
63534		9.106634	-0.466597	-0.138253	-0.037718	-0.042998	0.261718	-0.415527	-0.325439	0.520508	-161.701124	-85.728817	-40.468601
63535		8.880974	-0.685619	-0.186979	-0.013531	-0.056679	0.250217	-0.426514	-0.325928	0.517578	-160.054451	-85.650247	-42.122759
63536		8.894382	-0.897087	-0.186394	0.031557	-0.076179	0.233741	-0.421143	-0.315430	0.528809	-158.622042	-85.560990	-43.536235
63537		9.003672	-1.034898	-0.216753	0.080061	-0.086893	0.218044	-0.421875	-0.315674	0.520508	-157.339728	-85.467103	-44.771516
63538		9.003443	-1.088237	-0.220741	0.139657	-0.122958	0.202062	-0.416748	-0.317139	0.523682	-156.294518	-85.355680	-45.734795
63539		9.076880	-1.119131	-0.236360	0.202205	-0.139169	0.177490	-0.415771	-0.312744	0.532959	-155.448542	-85.240467	-46.462419
63540		8.957908	-1.034746	-0.362464	0.251459	-0.151630	0.153537	-0.415283	-0.317383	0.533691	-154.805438	-85.123612	-46.958205
63541		8.845039	-0.993401	-0.306215	0.283385	-0.135194	0.117646	-0.419678	-0.312012	0.530273	-154.324691	-85.023853	-47.272801
63542		8.805693	-0.937286	-0.450986	0.288653	-0.121475	0.098805	-0.420166	-0.309570	0.526855	-153.938551	-84.935516	-47.489396
63543		9.010466	-1.009615	-0.493248	0.311254	-0.099648	0.088815	-0.427002	-0.306641	0.533203	-153.533850	-84.860951	-47.711697
63544		9.136280	-1.224883	-0.401713	0.338664	-0.086639	0.080443	-0.424805	-0.304688	0.544922	-153.143595	-84.794910	-47.903708
63545		9.385450	-1.400299	-0.331480	0.359354	-0.058245	0.064252	-0.424072	-0.304199	0.535400	-152.747067	-84.747607	-48.090173
63546		9.548770	-1.340532	-0.302077	0.370823	-0.044078	0.043943	-0.425537	-0.300293	0.540283	-152.430531	-84.712612	-48.189682
63547		9.610312	-1.230065	-0.485432	0.420651	-0.038464	0.030143	-0.427490	-0.299072	0.542969	-152.136982	-84.684238	-48.237475
63548		9.530198	-1.040458	-0.556342	0.452342	-0.001311	0.014311	-0.416748	-0.293945	0.536621	-151.815635	-84.678745	-48.294916
63549		9.292838	-0.892269	-0.727757	0.491560	0.007790	-0.016307	-0.426025	-0.292969	0.535156	-151.601496	-84.686279	-48.222154
63550		9.136017	-0.874251	-0.868201	0.522809	0.022014	-0.036695	-0.425781	-0.288574	0.535645	-151.447936	-84.706412	-48.070538
63551		8.974844	-0.800649	-0.787600	0.544986	0.041958	-0.064704	-0.426270	-0.290527	0.537354	-151.365592	-84.744441	-47.834684
63552		8.902749	-0.694066	-0.860525	0.555618	0.021242	-0.079249	-0.431641	-0.291016	0.549805	-151.430152	-84.775871	-47.445172
63553		8.969512	-0.649326	-1.030993	0.556427	0.008026	-0.093150	-0.426514	-0.286621	0.543701	-151.603797	-84.804543	-46.945709
63554		9.043213	-0.754587	-1.156294	0.558041	0.016993	-0.104260	-0.424805	-0.286377	0.551514	-151.825462	-84.840404	-46.397092
63555		9.039130	-0.935320	-1.186432	0.577327	0.038630	-0.107946	-0.422852	-0.288330	0.555176	-151.987846	-84.888227	-45.896972
63556		9.060991	-1.092496	-1.019860	0.573563	0.033096	-0.125427	-0.421875	-0.285889	0.545166	-152.285196	-84.937521	-45.263519
63557		9.049183	-1.196701	-1.027303	0.557990	0.003745	-0.129712	-0.432373	-0.270020	0.549561	-152.703086	-84.972914	-44.518092
63558		9.019888	-1.161638	-1.209759	0.573819	-0.039552	-0.139992	-0.436279	-0.275635	0.547363	-153.316795	-84.988014	-43.566983
63559		9.104402	-1.076333	-1.355102	0.575565	-0.046515	-0.148589	-0.426514	-0.278564	0.559326	-153.995094	-85.001065	-42.550085
63560		9.102943	-0.976940	-1.409217	0.581692	-0.043151	-0.151892	-0.432617	-0.273682	0.561523	-154.693701	-85.015283	-41.509267
63561		9.083365	-0.861835	-1.541995	0.591481	-0.053642	-0.151328	-0.428223	-0.269043	0.552734	-155.407364	-85.023130	-40.447757
63562		8.899242	-0.891595	-1.629830	0.602193	-0.060691	-0.146816	-0.428955	-0.277100	0.566650	-156.118002	-85.024708	-39.383096
63563		9.239259	-0.770387	-1.683932	0.553114	-0.038624	-0.130285	-0.419434	-0.261963	0.565918	-156.690955	-85.033434	-38.484908
63564		9.267471	-0.917337	-1.571696	0.540436	-0.025295	-0.104117	-0.418701	-0.262695	0.564941	-157.089128	-85.042208	-37.769429
63565		9.291411	-1.127890	-1.352384	0.521931	-0.013827	-0.083353	-0.418457	-0.260254	0.564697	-157.335003	-85.052519	-37.217503
63566		9.308689	-1.295519	-1.106941	0.469758	-0.028261	-0.071927	-0.423096	-0.265625	0.570068	-157.587257	-85.052003	-36.689150
63567		9.444676	-1.352279	-1.161927	0.443603	-0.054157	-0.072771	-0.422119	-0.263916	0.569336	-157.915049	-85.038183	-36.100047
63568		9.541572	-1.199340	-1.296771	0.447321	-0.081430	-0.087964	-0.430176	-0.252197	0.567139	-158.404993	-85.012226	-35.345990
63569		9.636007	-0.850950	-1.378101	0.467170	-0.078440	-0.109724	-0.426758	-0.255371	0.567871	-158.994902	-84.992293	-34.480175
63570		9.808443	-0.467126	-1.298261	0.435822	-0.054568	-0.123451	-0.420898	-0.254883	0.575684	-159.634631	-84.986577	-33.582333
63571		9.901175	-0.127764	-1.360651	0.372805	-0.012241	-0.125535	-0.425781	-0.251953	0.570313	-160.220820	-85.003768	-32.774517
63572		10.007832	0.141336	-1.238506	0.284788	0.002046	-0.137911	-0.429443	-0.256104	0.570801	-160.916176	-85.029668	-31.907736
63573		10.011217	0.293075	-1.186324	0.149993	0.023288	-0.121149	-0.422119	-0.251953	0.574951	-161.539693	-85.063720	-31.190656
63574		9.805560	0.146072	-1.165742	0.009438	0.055826	-0.101856	-0.432373	-0.252441	0.579346	-162.071466	-85.110805	-30.646496
63575		9.595436	-0.097823	-1.223903	-0.109124	0.092119	-0.092093	-0.427002	-0.258789	0.569580	-162.537401	-85.176199	-30.236668
63576		9.353047	-0.269398	-1.521340	-0.186793	0.115237	-0.100280	-0.431885	-0.255127	0.573242	-163.075533	-85.254710	-29.799052
63577		9.248607	-0.485966	-1.896926	-0.131733	0.091079	-0.103540	-0.426025	-0.253174	0.573975	-163.659939	-85.320755	-29.283436
63578		9.376877	-0.606371	-1.764432	-0.133968	0.063002	-0.110703	-0.427734	-0.261230	0.574707	-164.372147	-85.371327	-28.640881
63579		9.648561	-0.581638	-2.000080	-0.198376	-0.021425	-0.118969	-0.423340	-0.267822	0.568604	-165.338935	-85.376338	-27.780004
63580		10.013191	-0.718643	-1.769220	-0.257860	-0.046726	-0.101372	-0.426514	-0.260742	0.570068	-166.270912	-85.362966	-26.988199
63581		10.325876	-0.585126	-1.839130	-0.354888	-0.082863	-0.063835	-0.427734	-0.263916	0.573486	-167.045645	-85.324249	-26.409947
63582		10.659778	-0.437656	-2.380053	-0.391857	-0.077466	-0.009497	-0.429932	-0.272705	0.563965	-167.461100	-85.280448	-26.213363
63583		10.719310	-0.482098	-2.670392	-0.432866	-0.012853	0.028760	-0.425293	-0.272217	0.573730	-167.533493	-85.268724	-26.384621
63584		10.800857	-0.461056	-2.520553	-0.469330	0.019136	0.027562	-0.427246	-0.273438	0.566895	-167.594480	-85.274273	-26.588247
63585		11.032494	-0.346728	-1.314485	-0.537877	-0.003265	0.000431	-0.430176	-0.286133	0.565918	-167.904204	-85.271423	-26.581736
63586		11.174059	-0.042960	-0.427991	-0.522948	-0.151860	-0.025631	-0.426514	-0.290283	0.562500	-168.595208	-85.187437	-26.183995
63587		11.397355	0.315841	-0.399839	-0.323208	-0.276667	0.000077	-0.420410	-0.285645	0.563721	-169.136899	-85.030917	-25.821223
63588		11.610833	0.295953	-0.576765	-0.122556	-0.256418	0.076015	-0.422852	-0.283447	0.566162	-169.043641	-84.876632	-25.980333
63589		11.711183	0.092146	-0.401406	-0.058892	-0.182347	0.151507	-0.429932	-0.291016	0.574463	-168.363695	-84.756197	-26.691986
63590		11.461927	-0.059802	0.009184	-0.092935	-0.125046	0.200262	-0.428711	-0.294678	0.571777	-167.374257	-84.660295	-27.734134
63591		10.780203	-0.225389	0.320357	-0.097667	-0.106939	0.208457	-0.431641	-0.286377	0.567871	-166.343084	-84.572507	-28.821113
63592		9.901262	-0.657853	0.689052	0.083606	-0.151093	0.175459	-0.427979	-0.293701	0.573975	-165.504672	-84.462417	-29.610257
63593		9.165263	-0.996541	0.483290	0.210904	-0.193708	0.134834	-0.422607	-0.287109	0.583496	-164.910558	-84.334432	-30.080833
63594		8.703448	-0.899836	0.267592	0.163275	-0.098637	0.092228	-0.428955	-0.282715	0.575439	-164.461649	-84.264362	-30.432963
63595		8.437111	-0.299519	0.571068	0.095514	0.001255	0.065857	-0.430176	-0.274414	0.576416	-164.043169	-84.253869	-30.793580
63596		8.374166	0.274929	1.123360	0.100325	0.026657	0.042376	-0.431396	-0.282227	0.577148	-163.717179	-84.260243	-31.058449
63597		8.430944	0.460331	1.637684	0.090723	-0.046237	0.032432	-0.434814	-0.285400	0.573730	-163.561855	-84.228650	-31.157345
63598		8.755699	0.489631	1.286754	0.104115	-0.081028	0.016300	-0.430176	-0.285400	0.584961	-163.548976	-84.179995	-31.105335
63599		9.181355	0.328900	1.133658	0.108612	-0.103394	-0.001559	-0.428467	-0.282959	0.582031	-163.657815	-84.122476	-30.928399
63600		9.507265	0.287603	0.563739	0.083247	-0.096942	-0.013062	-0.432373	-0.282715	0.583008	-163.835229	-84.069823	-30.697092
63601		9.755570	0.369729	0.440102	0.070038	-0.040536	-0.007134	-0.425537	-0.286865	0.580322	-163.894194	-84.047707	-30.592490
63602		9.914853	0.436384	0.224089	0.032152	-0.018529	0.009531	-0.428467	-0.277588	0.580566	-163.858953	-84.034612	-30.604404
63603		9.944646	0.588475	-0.025203	-0.047815	0.009448	0.021325	-0.433350	-0.279785	0.577637	-163.758936	-84.035462	-30.727538
63604		9.991330	0.649187	-0.067254	-0.126412	0.061046	0.039639	-0.434570	-0.286621	0.584229	-163.533232	-84.061293	-31.022288
63605		9.917269	0.696125	-0.115404	-0.256342	0.081888	0.043447	-0.431396	-0.282471	0.576660	-163.320394	-84.098223	-31.378957
63606		9.900553	0.661292	-0.153383	-0.377050	0.077198	0.036607	-0.440918	-0.285156	0.586182	-163.223772	-84.133254	-31.688269
63607		10.385468	0.615278	-0.274353	-0.445937	0.052895	-0.005686	-0.439697	-0.292480	0.587402	-163.424370	-84.162284	-31.738489
63608		10.685499	0.588833	-0.278628	-0.465322	0.036925	-0.064570	-0.427490	-0.292480	0.583008	-163.986966	-84.191707	-31.435967
63609		10.614556	0.644912	-0.362433	-0.464036	0.014595	-0.131751	-0.433350	-0.296143	0.569092	-164.946823	-84.219033	-30.733448
63610		10.352548	0.787120	-0.344730	-0.429707	0.002559	-0.197930	-0.437012	-0.301758	0.572510	-166.283052	-84.247363	-29.632875
63611		9.955306	0.869836	-0.399581	-0.407674	0.005016	-0.237433	-0.434814	-0.298096	0.569336	-167.829028	-84.279673	-28.308904
63612		9.585914	0.836537	-0.354322	-0.414487	0.013157	-0.256168	-0.435059	-0.312256	0.565430	-169.498384	-84.314626	-26.864904
63613		9.442987	0.712183	-0.246215	-0.401827	0.017228	-0.254077	-0.427734	-0.312500	0.568848	-171.156119	-84.347832	-25.425414
63614		9.452004	0.504911	-0.336594	-0.419910	-0.006949	-0.241047	-0.429932	-0.322021	0.570557	-172.791093	-84.361853	-24.019225
63615		9.500652	0.375059	-0.670350	-0.476872	0.002041	-0.230248	-0.438721	-0.320801	0.566406	-174.390637	-84.376738	-22.681509
63616		9.333153	0.263293	-0.819680	-0.469795	0.035820	-0.215924	-0.441650	-0.320068	0.569336	-175.902131	-84.406303	-21.428200
63617		9.174938	0.192524	-0.850346	-0.449215	0.066276	-0.201653	-0.430908	-0.325439	0.558350	-177.316178	-84.450029	-20.261075
63618		9.086375	0.162461	-0.877686	-0.435656	0.117736	-0.186454	-0.441162	-0.339600	0.563477	-178.651185	-84.519817	-19.165618
63619		9.006943	0.199472	-0.824719	-0.432310	0.147328	-0.172464	-0.441162	-0.336914	0.560791	-179.922758	-84.604429	-18.132145
63620		9.007566	0.203791	-0.789740	-0.425139	0.164957	-0.155796	-0.439209	-0.334229	0.561035	178.867175	-84.696699	-17.156420
63621		9.023468	0.206823	-0.664235	-0.388648	0.159570	-0.145355	-0.439697	-0.347656	0.557617	177.713983	-84.784570	-16.217007
63622		9.090907	0.262880	-0.859192	-0.348610	0.150042	-0.147807	-0.436279	-0.342529	0.550781	176.529109	-84.864736	-15.222821
63623		9.098610	0.373261	-1.016819	-0.317921	0.164941	-0.151878	-0.439453	-0.351807	0.553223	175.301128	-84.951767	-14.167887
63624		9.142670	0.549644	-1.124411	-0.316254	0.194864	-0.150763	-0.438477	-0.351318	0.548584	174.014167	-85.053418	-13.052886
63625		9.105813	0.727283	-1.168824	-0.292020	0.220997	-0.141959	-0.437744	-0.351807	0.552246	172.735862	-85.168774	-11.932876
63626		8.997389	0.745414	-1.056390	-0.267461	0.219022	-0.126245	-0.445801	-0.348633	0.560791	171.515902	-85.281665	-10.857421
63627		8.953989	0.704284	-1.016164	-0.282290	0.194986	-0.110462	-0.444336	-0.359131	0.551758	170.378448	-85.380994	-9.873498
63628		8.998401	0.549623	-0.967691	-0.257886	0.170642	-0.086048	-0.448486	-0.365479	0.553711	169.406975	-85.467054	-9.042119
63629		9.081753	0.395610	-1.040381	-0.261911	0.146310	-0.057151	-0.447998	-0.354980	0.544922	168.650442	-85.542078	-8.428818
63630		9.215943	0.318978	-1.207049	-0.290828	0.136155	-0.027217	-0.449951	-0.363770	0.540527	168.080120	-85.613777	-8.018892
63631		9.149847	0.253602	-1.369751	-0.283976	0.137893	0.004642	-0.450684	-0.358154	0.536865	167.739585	-85.690547	-7.835590
63632		8.983649	0.233276	-1.378395	-0.275406	0.127979	0.034990	-0.449951	-0.365723	0.535889	167.631862	-85.764878	-7.880770
63633		8.845495	0.316915	-1.521119	-0.267987	0.126830	0.061223	-0.452881	-0.359375	0.534668	167.739877	-85.842314	-8.138074
63634		8.813604	0.443098	-1.564950	-0.275102	0.145970	0.080629	-0.451904	-0.366455	0.542480	167.962439	-85.932197	-8.514205
63635		8.674375	0.519084	-1.493291	-0.283254	0.167705	0.110269	-0.462891	-0.376221	0.538086	168.406509	-86.038145	-9.117100
63636		8.651751	0.589246	-1.543763	-0.338061	0.151834	0.123036	-0.454102	-0.364502	0.533936	168.969959	-86.135664	-9.870978
63637		8.755499	0.741698	-1.867321	-0.412539	0.120744	0.132906	-0.455078	-0.367188	0.531738	169.666652	-86.216720	-10.801163
63638		8.888004	0.891606	-1.853055	-0.385823	0.091090	0.132187	-0.457275	-0.375000	0.530762	170.440624	-86.279583	-11.793294
63639		8.951395	1.007069	-1.495629	-0.327489	0.066624	0.137891	-0.460938	-0.373779	0.528076	171.372219	-86.328721	-12.909902
63640		8.992239	1.070755	-1.648138	-0.330424	0.025613	0.145233	-0.457275	-0.379150	0.528809	172.432353	-86.353339	-14.156868
63641		9.189378	1.175253	-1.887646	-0.341557	0.022815	0.152344	-0.461426	-0.374756	0.532959	173.579536	-86.375901	-15.497500
63642		9.437859	1.208222	-1.899890	-0.360782	0.030491	0.141642	-0.458740	-0.377441	0.524170	174.615065	-86.399991	-16.737172
63643		9.552433	1.318500	-1.728235	-0.352762	0.048006	0.145054	-0.463623	-0.381836	0.527344	175.701973	-86.433374	-18.023767
