// General information: 
//  MT Manager version: 2022.2.0 
//  XDA version: 2022.2.0 build 7381 rev 124627 built on 2023-07-19
// Device information: 
//  DeviceId: 00B4C3A0
//  ProductCode: MTW2-3A7G6
//  Firmware Version: 4.6.0
//  Hardware Version: 2.0.0
// Device settings: 
//  Filter Profile: human(46.1)
//  Option Flags: Orientation Smoother Disabled, Position/Velocity Smoother Disabled, Continuous Zero Rotation Update Disabled, AHS Disabled, ICC Disabled
// Coordinate system: ENU
PacketCounter	SampleTimeFine	Acc_X	Acc_Y	Acc_Z	Gyr_X	Gyr_Y	Gyr_Z	Mag_X	Mag_Y	Mag_Z	Roll	Pitch	Yaw
20536		9.377891	-0.197730	-0.757013	-0.052968	0.005186	0.013025	-0.354980	-0.154297	0.677734	-164.405662	-84.437594	-43.788257
20537		9.448753	-0.198815	-0.787519	-0.052076	-0.000344	0.011458	-0.355713	-0.163086	0.682129	-164.347463	-84.435858	-43.871608
20538		9.510225	-0.222415	-0.820517	-0.061946	-0.006932	0.014912	-0.348389	-0.160889	0.685303	-164.304095	-84.428783	-43.946201
20539		9.565734	-0.260909	-0.964832	-0.053301	-0.011196	0.018121	-0.352295	-0.155518	0.680908	-164.227374	-84.419978	-44.049919
20540		9.640016	-0.311148	-1.065319	-0.046740	-0.000787	0.020076	-0.358398	-0.158447	0.681396	-164.136722	-84.415465	-44.163269
20541		9.787652	-0.327067	-0.995887	-0.040280	0.005649	0.021003	-0.360840	-0.160156	0.680664	-164.008796	-84.415526	-44.310080
20542		9.888443	-0.342645	-1.014643	-0.035179	0.016520	0.024604	-0.364990	-0.153809	0.683594	-163.858140	-84.419776	-44.477064
20543		9.955997	-0.381334	-0.914509	-0.036728	0.028533	0.023923	-0.346924	-0.159180	0.687744	-163.672934	-84.432034	-44.679175
20544		9.973193	-0.398924	-0.813444	-0.045301	0.036807	0.021736	-0.359619	-0.156738	0.676758	-163.509612	-84.447801	-44.864705
20545		9.889613	-0.345878	-0.731883	-0.051967	0.037971	0.017442	-0.357666	-0.159180	0.680908	-163.353625	-84.465933	-45.046470
20546		9.716417	-0.252006	-0.683094	-0.059288	0.037851	0.011540	-0.351563	-0.153320	0.681152	-163.252391	-84.483862	-45.177663
20547		9.535624	-0.204192	-0.671260	-0.054997	0.032490	0.005583	-0.358643	-0.159424	0.678955	-163.172847	-84.500905	-45.284031
20548		9.323085	-0.146786	-0.616872	-0.062518	0.019907	0.005793	-0.360840	-0.162354	0.679932	-163.135984	-84.509914	-45.352409
20549		9.156894	-0.176524	-0.689637	-0.067579	0.002056	-0.003733	-0.360840	-0.155762	0.680176	-163.168663	-84.511941	-45.353979
20550		9.080255	-0.189478	-0.770448	-0.069191	-0.009182	-0.002518	-0.363037	-0.160889	0.681152	-163.233186	-84.506376	-45.324345
20551		9.177063	-0.212203	-0.956613	-0.069038	-0.016741	0.000807	-0.360107	-0.155029	0.678711	-163.272622	-84.497369	-45.319280
20552		9.380258	-0.263178	-1.032156	-0.061013	-0.014572	0.001789	-0.357666	-0.158691	0.683838	-163.316967	-84.488133	-45.305207
20553		9.622622	-0.334018	-1.075169	-0.054640	-0.016659	0.009884	-0.351807	-0.162354	0.678711	-163.296710	-84.477577	-45.351448
20554		9.904140	-0.453331	-1.065911	-0.046961	-0.011642	0.013017	-0.361084	-0.154297	0.672852	-163.264316	-84.468099	-45.406384
20555		10.131860	-0.504291	-0.985531	-0.040314	0.017460	0.021361	-0.355469	-0.156982	0.674561	-163.113150	-84.474315	-45.576417
20556		10.227317	-0.532911	-0.839429	-0.046657	0.038307	0.019593	-0.358398	-0.153809	0.675781	-162.957142	-84.491087	-45.755365
20557		10.112031	-0.471086	-0.713600	-0.043704	0.045141	0.015700	-0.358887	-0.160400	0.681396	-162.789895	-84.513314	-45.942966
20558		9.858704	-0.342891	-0.674459	-0.040115	0.045499	0.014032	-0.362305	-0.168945	0.672119	-162.646785	-84.534873	-46.105180
20559		9.579025	-0.305411	-0.676853	-0.039682	0.043414	0.005359	-0.366211	-0.157959	0.683105	-162.537367	-84.557919	-46.233751
20560		9.327337	-0.256983	-0.634180	-0.032495	0.036343	0.002647	-0.360107	-0.165771	0.675537	-162.469750	-84.576378	-46.315734
20561		9.120383	-0.242790	-0.703745	-0.011721	0.016850	-0.002227	-0.359619	-0.160889	0.677734	-162.434465	-84.586210	-46.352993
20562		9.015964	-0.266020	-0.829469	-0.012505	-0.003927	-0.003672	-0.362305	-0.160156	0.678711	-162.464756	-84.583754	-46.325122
20563		9.031010	-0.258042	-0.971588	-0.009375	-0.012459	-0.003624	-0.356689	-0.163330	0.673584	-162.489856	-84.577754	-46.300214
20564		9.284849	-0.273091	-1.085848	-0.016884	-0.017278	-0.004071	-0.360107	-0.162109	0.680664	-162.549040	-84.568067	-46.245840
20565		9.605548	-0.382936	-1.062890	-0.021670	-0.005243	0.002375	-0.356445	-0.153076	0.688965	-162.534283	-84.564916	-46.268518
20566		9.982542	-0.415675	-0.986349	-0.031820	0.010548	0.007745	-0.356689	-0.168457	0.681152	-162.483711	-84.568401	-46.332990
20567		10.156053	-0.454331	-0.795012	-0.042800	0.032658	0.008188	-0.361572	-0.165039	0.675049	-162.378882	-84.584809	-46.457495
20568		10.182436	-0.420738	-0.710732	-0.046311	0.044066	0.010286	-0.364014	-0.165283	0.676758	-162.259836	-84.606129	-46.599084
20569		10.010999	-0.379077	-0.676350	-0.044296	0.040922	0.009205	-0.355469	-0.163818	0.679199	-162.132282	-84.627045	-46.748422
20570		9.729452	-0.317331	-0.644640	-0.034586	0.039561	0.003721	-0.361572	-0.167236	0.678711	-162.051101	-84.647012	-46.845222
20571		9.362090	-0.290648	-0.696593	-0.021545	0.029823	0.000996	-0.359619	-0.170654	0.683105	-161.978448	-84.663141	-46.926160
20572		9.205614	-0.297062	-0.766703	-0.018878	0.016977	-0.005437	-0.362305	-0.160156	0.672363	-161.983641	-84.672409	-46.927167
20573		9.099396	-0.324145	-0.838310	-0.010751	-0.003437	-0.009133	-0.357666	-0.164307	0.674805	-162.026525	-84.672260	-46.885826
20574		9.125689	-0.374041	-0.974316	-0.003454	-0.018906	-0.002012	-0.360352	-0.157959	0.665771	-162.070879	-84.661364	-46.838626
20575		9.306616	-0.393660	-1.004047	-0.004571	-0.021293	-0.002531	-0.367676	-0.159668	0.677979	-162.105012	-84.650304	-46.802226
20576		9.616166	-0.445412	-0.987839	-0.005306	-0.015574	0.001771	-0.360352	-0.163574	0.678467	-162.121839	-84.640554	-46.783738
20577		9.901598	-0.413900	-0.909894	-0.011874	-0.007202	0.006092	-0.358643	-0.157471	0.679199	-162.082912	-84.635701	-46.824496
20578		10.097598	-0.370371	-0.843922	-0.019634	0.010352	0.007643	-0.365967	-0.165527	0.676514	-162.025171	-84.639049	-46.889149
20579		10.142390	-0.320689	-0.737889	-0.020090	0.017014	0.008141	-0.357666	-0.169434	0.669922	-161.933669	-84.646971	-46.987470
20580		10.026659	-0.258490	-0.613773	-0.029807	0.030741	0.004847	-0.351074	-0.169678	0.675049	-161.858928	-84.661904	-47.075050
20581		9.797256	-0.241497	-0.618115	-0.021475	0.026038	0.002658	-0.363525	-0.169678	0.681885	-161.784440	-84.675566	-47.158856
20582		9.480185	-0.235813	-0.671414	-0.022140	0.016993	0.001636	-0.353516	-0.168701	0.680420	-161.749759	-84.683574	-47.201787
20583		9.213269	-0.279533	-0.706165	-0.020853	0.008586	-0.002113	-0.352783	-0.167725	0.683838	-161.735624	-84.688604	-47.223933
20584		9.049164	-0.332049	-0.815891	-0.022456	-0.010456	-0.000353	-0.358154	-0.166504	0.676514	-161.765631	-84.682032	-47.202078
20585		9.045623	-0.368215	-0.963604	-0.019696	-0.027104	-0.005145	-0.364990	-0.160645	0.673340	-161.837471	-84.668102	-47.136901
20586		9.198557	-0.397578	-1.040106	-0.020731	-0.033289	-0.004017	-0.356934	-0.165771	0.670410	-161.931073	-84.649744	-47.050181
20587		9.515342	-0.431578	-0.968494	-0.016649	-0.028648	0.000811	-0.356445	-0.164063	0.674561	-161.967137	-84.634090	-47.018883
20588		9.856593	-0.492092	-0.997099	-0.015822	-0.030390	-0.002440	-0.355469	-0.165527	0.671143	-162.042385	-84.617017	-46.947768
20589		10.162378	-0.496227	-0.911852	-0.012459	-0.015459	-0.001464	-0.355957	-0.162598	0.678223	-162.065021	-84.608815	-46.927808
20590		10.276253	-0.422075	-0.802851	-0.012419	0.007847	-0.003227	-0.348389	-0.161621	0.679688	-162.070967	-84.612716	-46.924342
20591		10.209175	-0.328070	-0.663729	-0.011743	0.024662	-0.002785	-0.358154	-0.161865	0.683838	-162.026070	-84.626460	-46.971021
20592		9.925688	-0.241861	-0.597983	-0.014521	0.030354	-0.004974	-0.358398	-0.171631	0.681396	-162.000933	-84.642936	-46.999985
20593		9.634655	-0.201694	-0.569739	-0.019361	0.023669	-0.004911	-0.357666	-0.164063	0.677734	-161.973926	-84.656643	-47.033584
20594		9.315660	-0.171718	-0.588117	-0.015569	0.016400	-0.003264	-0.358887	-0.162354	0.680176	-161.965624	-84.665212	-47.046240
20595		9.060178	-0.188002	-0.674754	-0.019755	0.010987	-0.001585	-0.359619	-0.163818	0.679932	-161.942993	-84.671442	-47.075240
20596		8.965161	-0.216610	-0.780069	-0.017845	-0.019457	-0.001971	-0.357178	-0.163818	0.661133	-161.996543	-84.660246	-47.027085
20597		8.991142	-0.294783	-0.898729	-0.028650	-0.042987	-0.001791	-0.350342	-0.162109	0.669678	-162.082183	-84.637179	-46.953025
20598		9.257747	-0.391112	-1.044610	-0.035823	-0.050629	-0.004431	-0.357910	-0.166016	0.675537	-162.217699	-84.609400	-46.832884
20599		9.578133	-0.472282	-1.045126	-0.032863	-0.048374	-0.000125	-0.357910	-0.161377	0.682861	-162.305170	-84.582949	-46.759331
20600		9.956492	-0.528899	-1.007874	-0.029316	-0.033282	0.003577	-0.350342	-0.173340	0.679688	-162.357149	-84.563212	-46.719350
20601		10.213637	-0.593265	-0.919122	-0.023982	-0.009950	0.001270	-0.359375	-0.175293	0.675049	-162.360957	-84.557415	-46.724742
20602		10.316398	-0.518401	-0.776836	-0.017990	0.014650	0.000585	-0.360352	-0.160156	0.678711	-162.335989	-84.564367	-46.755536
20603		10.199133	-0.403555	-0.636305	-0.011546	0.037192	-0.008772	-0.362793	-0.164063	0.675781	-162.302920	-84.586234	-46.791027
20604		9.854007	-0.323724	-0.517303	0.002656	0.032989	-0.003411	-0.351563	-0.159424	0.675049	-162.255085	-84.603888	-46.832906
20605		9.518460	-0.276401	-0.632143	0.005610	0.024287	-0.006103	-0.359863	-0.169189	0.677002	-162.219887	-84.618170	-46.859735
20606		9.199589	-0.217571	-0.669459	0.012655	0.017029	-0.011535	-0.352051	-0.169434	0.676025	-162.242697	-84.628534	-46.824900
20607		8.996386	-0.249225	-0.810999	0.011416	-0.004860	-0.011974	-0.369629	-0.167236	0.679199	-162.293619	-84.627915	-46.763160
20608		8.942193	-0.320607	-0.919733	0.005069	-0.026615	-0.009130	-0.351318	-0.162354	0.677246	-162.387590	-84.614026	-46.661216
20609		9.156639	-0.400453	-1.009578	0.001997	-0.029640	-0.006931	-0.360352	-0.156494	0.676758	-162.458754	-84.599060	-46.583674
20610		9.518451	-0.467888	-1.049413	-0.007201	-0.030953	-0.000908	-0.364990	-0.165283	0.678223	-162.519247	-84.581359	-46.522414
20611		9.899048	-0.491042	-1.084050	-0.000302	-0.016486	0.004957	-0.359375	-0.174805	0.676025	-162.497957	-84.571565	-46.538452
20612		10.171486	-0.435072	-0.938219	-0.007608	0.002180	0.005460	-0.357666	-0.159912	0.680664	-162.461750	-84.570869	-46.574560
20613		10.263131	-0.330859	-0.781182	-0.009609	0.028643	0.004814	-0.349609	-0.163574	0.673584	-162.365939	-84.585644	-46.671937
20614		10.173664	-0.235464	-0.574652	-0.011362	0.040528	0.001515	-0.359619	-0.167969	0.671143	-162.283980	-84.606560	-46.756159
20615		9.959199	-0.154874	-0.483289	-0.008399	0.039598	-0.001755	-0.358643	-0.162109	0.676758	-162.204460	-84.628389	-46.836569
20616		9.699981	-0.123893	-0.497381	-0.012779	0.034031	-0.002796	-0.358643	-0.166260	0.678955	-162.159294	-84.646497	-46.884647
20617		9.362356	-0.110371	-0.538803	-0.021899	0.025742	-0.002717	-0.355225	-0.166016	0.676758	-162.117656	-84.660968	-46.934140
20618		9.095612	-0.125407	-0.592232	-0.037246	0.015201	0.000113	-0.362793	-0.173340	0.672607	-162.104526	-84.668291	-46.964120
20619		8.849441	-0.119267	-0.677632	-0.054938	-0.011844	0.001388	-0.361084	-0.165283	0.675781	-162.129178	-84.661597	-46.967082
20620		8.820019	-0.131265	-0.946035	-0.060109	-0.050556	0.007520	-0.352051	-0.166260	0.677979	-162.209327	-84.631757	-46.916533
20621		9.058574	-0.237513	-1.138934	-0.048625	-0.063800	0.005329	-0.356201	-0.166992	0.675049	-162.303693	-84.595928	-46.844986
20622		9.481465	-0.356580	-1.195184	-0.050584	-0.053488	0.015061	-0.346924	-0.167725	0.671387	-162.338912	-84.563164	-46.834080
20623		9.951071	-0.450185	-1.180890	-0.034116	-0.040564	0.012763	-0.360352	-0.167480	0.686768	-162.339537	-84.538634	-46.848774
20624		10.346284	-0.497189	-1.064341	-0.023182	-0.013098	0.013718	-0.363281	-0.167725	0.681641	-162.293205	-84.528151	-46.904019
20625		10.510406	-0.503748	-0.916307	-0.021911	0.016546	0.013640	-0.349609	-0.173584	0.677246	-162.176670	-84.534762	-47.028684
20626		10.452630	-0.475736	-0.714983	-0.023628	0.043972	0.009244	-0.358154	-0.166260	0.678711	-162.051235	-84.556167	-47.163647
20627		10.133964	-0.306587	-0.551867	-0.023633	0.048593	0.001091	-0.359619	-0.165771	0.680420	-161.948163	-84.582281	-47.276551
20628		9.731226	-0.194983	-0.507091	-0.024854	0.050032	-0.001082	-0.357910	-0.170898	0.675293	-161.869415	-84.608777	-47.365314
20629		9.322785	-0.152312	-0.536017	-0.021165	0.035635	-0.008123	-0.358154	-0.167725	0.679932	-161.840151	-84.629560	-47.402297
20630		8.966644	-0.124990	-0.621375	-0.015803	0.013144	-0.013525	-0.355713	-0.171387	0.673828	-161.897535	-84.638183	-47.349114
20631		8.733478	-0.170336	-0.755805	-0.013154	-0.022999	-0.018344	-0.360596	-0.169189	0.670410	-162.034601	-84.628807	-47.214644
20632		8.703785	-0.208220	-1.005729	-0.011068	-0.056435	-0.023717	-0.362061	-0.167969	0.669434	-162.278107	-84.601246	-46.971788
20633		8.929102	-0.287174	-1.131723	-0.005338	-0.070826	-0.024268	-0.344971	-0.161865	0.672363	-162.529274	-84.566846	-46.718323
20634		9.421147	-0.379726	-1.184239	0.002290	-0.062067	-0.022700	-0.357178	-0.176270	0.679932	-162.764060	-84.535838	-46.476512
20635		9.952501	-0.492554	-1.203450	0.013032	-0.039372	-0.016285	-0.357910	-0.172119	0.673828	-162.899962	-84.516828	-46.328086
20636		10.366765	-0.492482	-1.081317	0.011716	-0.000730	-0.008200	-0.360596	-0.163818	0.673828	-162.936023	-84.516864	-46.280474
20637		10.527557	-0.421453	-0.880943	0.006551	0.026507	-0.008217	-0.350342	-0.169189	0.679199	-162.912036	-84.532768	-46.296289
20638		10.468186	-0.311318	-0.682178	0.005465	0.042816	-0.002272	-0.354492	-0.172363	0.683350	-162.841019	-84.555651	-46.359843
20639		10.123154	-0.204049	-0.580928	0.004801	0.041557	-0.003898	-0.361572	-0.163086	0.680664	-162.767589	-84.578828	-46.426492
20640		9.722035	-0.144927	-0.552933	0.001433	0.034421	-0.005499	-0.358154	-0.169434	0.679199	-162.731522	-84.597652	-46.457254
20641		9.343203	-0.145256	-0.553056	0.004486	0.021914	-0.006576	-0.349609	-0.167480	0.675049	-162.706824	-84.610706	-46.474410
20642		9.014687	-0.166402	-0.554697	0.005678	0.009564	-0.011441	-0.350586	-0.167480	0.674561	-162.747427	-84.616941	-46.425718
20643		8.781590	-0.183875	-0.707818	-0.009981	-0.012851	-0.011867	-0.350342	-0.164795	0.682861	-162.826095	-84.611693	-46.347952
20644		8.727474	-0.197312	-0.856462	-0.016249	-0.046180	-0.006891	-0.353760	-0.162109	0.677734	-162.952362	-84.586622	-46.225834
20645		8.882079	-0.191527	-1.009505	-0.012394	-0.075943	-0.010119	-0.355713	-0.168213	0.677246	-163.131682	-84.546461	-46.047389
20646		9.286423	-0.267338	-1.130277	-0.014736	-0.073723	-0.005237	-0.358887	-0.161133	0.678467	-163.292074	-84.505944	-45.890102
20647		9.780296	-0.326663	-1.257477	-0.007489	-0.065267	-0.009097	-0.346680	-0.160156	0.680664	-163.439024	-84.471544	-45.741614
20648		10.210865	-0.455289	-1.238642	0.010893	-0.036992	-0.008701	-0.351563	-0.166992	0.678711	-163.538809	-84.451696	-45.630448
20649		10.457235	-0.517826	-1.117453	0.019065	0.003908	-0.010430	-0.357666	-0.173340	0.685303	-163.561513	-84.455266	-45.591332
20650		10.500600	-0.472685	-0.956266	0.016404	0.029088	-0.012620	-0.345459	-0.167480	0.680420	-163.569622	-84.472353	-45.569099
20651		10.333149	-0.365759	-0.793953	0.018007	0.048114	-0.014290	-0.354248	-0.175537	0.673340	-163.541363	-84.500883	-45.582758
20652		9.995722	-0.269283	-0.615551	0.017902	0.051933	-0.015930	-0.349854	-0.166748	0.675049	-163.529030	-84.531060	-45.580202
20653		9.645021	-0.316786	-0.528820	0.014720	0.044955	-0.014819	-0.364502	-0.162842	0.680420	-163.510674	-84.558031	-45.586390
20654		9.385775	-0.313786	-0.522868	0.010695	0.036555	-0.018042	-0.360840	-0.173096	0.675049	-163.540933	-84.580103	-45.545198
20655		9.219918	-0.312386	-0.613953	0.007886	0.018954	-0.018536	-0.354004	-0.165039	0.680176	-163.590945	-84.593591	-45.485863
20656		8.988515	-0.213414	-0.622805	0.000435	0.002588	-0.016835	-0.352051	-0.169678	0.680420	-163.678668	-84.596788	-45.392858
20657		8.869040	-0.157513	-0.666373	-0.010274	-0.016965	-0.015654	-0.357666	-0.160156	0.674316	-163.785273	-84.589787	-45.287004
20658		8.859528	-0.035054	-0.767591	-0.021452	-0.045395	-0.012826	-0.351563	-0.173096	0.677490	-163.942623	-84.565901	-45.136652
20659		9.085070	0.000674	-0.969640	-0.045582	-0.059286	-0.012681	-0.363525	-0.168945	0.672119	-164.120652	-84.535155	-44.979435
20660		9.437420	-0.058422	-1.034408	-0.054416	-0.052531	-0.001797	-0.355225	-0.173340	0.683838	-164.242168	-84.505534	-44.884041
20661		9.771138	-0.163103	-1.103953	-0.061300	-0.045125	0.006364	-0.349121	-0.167725	0.675781	-164.294406	-84.479689	-44.862717
20662		10.074975	-0.225678	-1.202556	-0.061309	-0.029578	0.005256	-0.355713	-0.171631	0.676270	-164.341373	-84.461616	-44.846180
20663		10.212999	-0.264261	-1.137939	-0.058015	-0.007725	0.012276	-0.354004	-0.171631	0.680664	-164.298817	-84.455330	-44.918016
20664		10.194360	-0.367443	-1.105204	-0.052877	0.003058	0.016039	-0.354736	-0.172363	0.681641	-164.227599	-84.453581	-45.015366
20665		10.054502	-0.450494	-1.040277	-0.045879	0.018299	0.015453	-0.352051	-0.168701	0.678955	-164.118414	-84.461114	-45.147149
20666		9.825111	-0.579029	-0.949116	-0.021835	0.020447	0.014778	-0.352051	-0.164307	0.684326	-164.008223	-84.469111	-45.265783
20667		9.687128	-0.627599	-0.956218	-0.004330	0.028634	0.004374	-0.346924	-0.171875	0.687988	-163.920341	-84.483948	-45.351313
20668		9.644468	-0.590053	-0.896137	0.022229	0.028733	0.001524	-0.356201	-0.170166	0.676025	-163.846062	-84.498577	-45.408500
20669		9.590607	-0.464805	-0.860452	0.057799	0.030020	-0.010057	-0.354492	-0.170166	0.678955	-163.802577	-84.516439	-45.414386
20670		9.495693	-0.381901	-0.764360	0.071935	0.034230	-0.014480	-0.354248	-0.169922	0.678223	-163.781921	-84.536644	-45.389090
20671		9.410013	-0.218696	-0.704325	0.080183	0.025588	-0.017785	-0.356934	-0.172119	0.672363	-163.776896	-84.553392	-45.343571
20672		9.335409	-0.142295	-0.620924	0.079759	0.009785	-0.022122	-0.359863	-0.170166	0.677734	-163.837083	-84.561368	-45.232564
20673		9.348569	-0.078931	-0.745660	0.073111	-0.000513	-0.024257	-0.348877	-0.164551	0.675049	-163.917339	-84.564907	-45.105923
20674		9.400884	-0.092872	-0.800528	0.062943	-0.007201	-0.023659	-0.356689	-0.163330	0.678223	-164.024678	-84.563742	-44.957232
20675		9.443846	-0.071997	-0.896251	0.055676	-0.000101	-0.020929	-0.352051	-0.171875	0.680176	-164.095420	-84.566791	-44.849171
20676		9.565291	-0.119869	-0.907636	0.040148	0.000116	-0.013792	-0.346680	-0.167725	0.679443	-164.146633	-84.568074	-44.769979
20677		9.606496	-0.191066	-0.890898	0.041451	0.002658	-0.010552	-0.354248	-0.168945	0.677490	-164.162442	-84.570913	-44.726208
20678		9.677602	-0.276287	-0.863264	0.027612	0.002555	-0.002333	-0.349365	-0.163818	0.680908	-164.150425	-84.571744	-44.717747
20679		9.702023	-0.359490	-0.925327	0.033005	-0.008980	-0.000702	-0.353760	-0.163574	0.680664	-164.132500	-84.566684	-44.712278
20680		9.786030	-0.412662	-1.005428	0.038857	-0.019397	-0.000163	-0.352539	-0.165771	0.677734	-164.137567	-84.555076	-44.680183
20681		9.765382	-0.434276	-0.976427	0.057335	-0.009591	-0.003566	-0.351807	-0.159180	0.675781	-164.122925	-84.550152	-44.657227
20682		9.724204	-0.390859	-0.974146	0.075971	-0.002773	-0.011855	-0.354980	-0.165039	0.676270	-164.146915	-84.549538	-44.584761
20683		9.679371	-0.357158	-0.862431	0.087183	0.006367	-0.011973	-0.352783	-0.156006	0.677246	-164.137230	-84.554755	-44.539539
20684		9.636343	-0.260938	-0.843272	0.085742	0.007661	-0.016871	-0.355469	-0.162842	0.677979	-164.167606	-84.560674	-44.455035
20685		9.604568	-0.193997	-0.837536	0.088474	0.006611	-0.022872	-0.350342	-0.162109	0.673096	-164.219892	-84.567722	-44.346517
20686		9.572780	-0.155596	-0.813082	0.090868	-0.003954	-0.017960	-0.349609	-0.158447	0.675049	-164.272899	-84.567393	-44.236331
20687		9.572784	-0.154650	-0.813209	0.086662	-0.001582	-0.016875	-0.355957	-0.158691	0.677979	-164.305865	-84.568922	-44.148804
20688		9.544867	-0.163847	-0.858664	0.080493	0.004728	-0.021229	-0.350830	-0.154541	0.679932	-164.369735	-84.573871	-44.033679
20689		9.533790	-0.189938	-0.806057	0.076591	0.003451	-0.015775	-0.351563	-0.156250	0.676270	-164.393520	-84.578025	-43.960530
20690		9.505957	-0.227995	-0.832035	0.067586	-0.000897	-0.014604	-0.360596	-0.157959	0.679199	-164.435599	-84.578836	-43.874723
20691		9.549058	-0.265896	-0.888745	0.064519	-0.003919	-0.012395	-0.353027	-0.166748	0.682373	-164.458535	-84.578477	-43.809670
20692		9.549142	-0.293756	-0.869468	0.062372	-0.004718	-0.012381	-0.354248	-0.165039	0.683350	-164.496844	-84.576828	-43.730650
20693		9.558405	-0.270674	-0.867381	0.060319	-0.001554	-0.011312	-0.350586	-0.161133	0.691162	-164.513718	-84.577520	-43.675441
20694		9.577033	-0.253681	-0.843310	0.068356	0.000617	-0.010313	-0.352295	-0.157227	0.677246	-164.527964	-84.578495	-43.617149
20695		9.627557	-0.273915	-0.843027	0.070267	0.001288	-0.013059	-0.356689	-0.157715	0.677002	-164.544464	-84.580943	-43.555616
20696		9.604955	-0.213557	-0.816686	0.073584	0.000721	-0.010918	-0.356689	-0.156006	0.681152	-164.559110	-84.582065	-43.493914
20697		9.646003	-0.199822	-0.857894	0.079777	-0.001539	-0.005526	-0.350342	-0.148682	0.677734	-164.529929	-84.581975	-43.472780
20698		9.634664	-0.170079	-0.845033	0.080310	-0.004198	-0.004973	-0.350098	-0.153076	0.673584	-164.514036	-84.579475	-43.437883
20699		9.634519	-0.141809	-0.865067	0.077506	-0.006276	-0.006570	-0.354248	-0.155273	0.678711	-164.500204	-84.576802	-43.402078
20700		9.612060	-0.138756	-0.800150	0.067049	-0.002426	-0.004358	-0.354492	-0.163086	0.677002	-164.485452	-84.575187	-43.373667
20701		9.632614	-0.146190	-0.811184	0.059451	-0.003475	-0.006461	-0.352783	-0.146240	0.682129	-164.477512	-84.574152	-43.343735
20702		9.621379	-0.144509	-0.778843	0.050583	-0.003894	-0.004210	-0.358398	-0.155762	0.690918	-164.473696	-84.571706	-43.313816
20703		9.671615	-0.108523	-0.818482	0.043647	-0.003670	-0.004698	-0.356689	-0.154785	0.684326	-164.464168	-84.570222	-43.292992
20704		9.632435	-0.117623	-0.831658	0.043080	-0.000980	-0.005271	-0.353027	-0.153076	0.682373	-164.466091	-84.569548	-43.261626
20705		9.643885	-0.175761	-0.824855	0.035694	-0.001872	-0.004652	-0.352051	-0.154053	0.680176	-164.458536	-84.569078	-43.244151
20706		9.634645	-0.198005	-0.826982	0.027101	-0.001370	-0.006211	-0.345947	-0.148926	0.678711	-164.475693	-84.568332	-43.206677
20707		9.636623	-0.221904	-0.861650	0.017238	-0.000234	-0.003417	-0.345947	-0.149414	0.683350	-164.469472	-84.568474	-43.198407
20708		9.616090	-0.214231	-0.850449	0.011969	0.007451	-0.003462	-0.344727	-0.153809	0.672607	-164.465106	-84.572176	-43.191262
20709		9.595596	-0.206428	-0.838831	0.005503	0.008771	-0.005048	-0.349365	-0.148193	0.692139	-164.461144	-84.577468	-43.187649
20710		9.552686	-0.195231	-0.761767	-0.004917	0.012586	-0.002825	-0.353027	-0.154053	0.679932	-164.454446	-84.583907	-43.192566
20711		9.614240	-0.160769	-0.832866	-0.005919	0.006398	-0.001654	-0.351074	-0.150391	0.679932	-164.440546	-84.587424	-43.205043
20712		9.605069	-0.182962	-0.834266	-0.014506	0.006893	-0.003211	-0.357910	-0.150146	0.687256	-164.450805	-84.590779	-43.198445
20713		9.614593	-0.216652	-0.792230	-0.010812	0.003464	-0.003204	-0.353516	-0.147461	0.687500	-164.452981	-84.593013	-43.197532
20714		9.635190	-0.223669	-0.802927	-0.010904	-0.000505	-0.004242	-0.352051	-0.153809	0.674316	-164.479193	-84.592443	-43.172838
20715		9.646447	-0.224852	-0.835288	-0.011373	0.006147	-0.003775	-0.353516	-0.148926	0.689697	-164.480969	-84.596232	-43.172838
20716		9.637158	-0.218465	-0.856532	-0.016827	0.005896	-0.005896	-0.352051	-0.152832	0.682861	-164.509887	-84.599448	-43.148834
20717		9.603397	-0.184741	-0.777996	-0.020679	0.004600	-0.000414	-0.339111	-0.154053	0.685059	-164.500135	-84.601810	-43.165553
20718		9.633372	-0.197708	-0.766518	-0.025029	0.006748	-0.002032	-0.354736	-0.148926	0.677246	-164.509817	-84.604904	-43.165591
20719		9.586924	-0.225000	-0.835510	-0.031201	0.004454	0.000764	-0.354980	-0.147217	0.684814	-164.500238	-84.606918	-43.188543
20720		9.596430	-0.258913	-0.793623	-0.032872	0.004745	-0.000313	-0.353516	-0.154541	0.679443	-164.507607	-84.608643	-43.195418
20721		9.605819	-0.264338	-0.771442	-0.036210	0.005325	-0.002466	-0.353271	-0.150146	0.678955	-164.517332	-84.611794	-43.201608
20722		9.557474	-0.295580	-0.786356	-0.039900	0.001001	-0.001846	-0.355469	-0.146729	0.680420	-164.543769	-84.611686	-43.193375
20723		9.552188	-0.337329	-0.877400	-0.036873	0.004053	-0.004081	-0.357666	-0.145752	0.674805	-164.565032	-84.614397	-43.188006
20724		9.591520	-0.355934	-0.844201	-0.036594	0.008198	-0.000328	-0.356445	-0.157227	0.682373	-164.569042	-84.618033	-43.200397
20725		9.641880	-0.319606	-0.882568	-0.031247	0.012243	0.000125	-0.357422	-0.159912	0.682129	-164.549097	-84.624698	-43.233651
20726		9.649178	-0.272759	-0.844732	-0.030234	0.010674	-0.000412	-0.354736	-0.161377	0.677246	-164.545895	-84.629713	-43.249626
20727		9.617327	-0.235248	-0.819852	-0.039012	0.014216	0.002879	-0.361572	-0.155762	0.681152	-164.512203	-84.637021	-43.302552
20728		9.576235	-0.220519	-0.797169	-0.044636	0.009243	0.006231	-0.351563	-0.155518	0.686523	-164.480429	-84.640228	-43.355513
20729		9.548379	-0.231511	-0.842414	-0.047770	0.002238	0.007408	-0.349121	-0.153076	0.682373	-164.444016	-84.640168	-43.415105
20730		9.557705	-0.237775	-0.820591	-0.048237	0.001135	0.008505	-0.359863	-0.149902	0.675293	-164.414172	-84.638544	-43.468199
20731		9.537209	-0.259419	-0.790085	-0.047402	0.002594	0.012826	-0.347168	-0.149414	0.684814	-164.344801	-84.637819	-43.560159
20732		9.598954	-0.282314	-0.822558	-0.046588	0.000862	0.009572	-0.358154	-0.156982	0.684326	-164.308244	-84.635870	-43.619046
20733		9.626726	-0.243788	-0.796504	-0.043452	0.000115	0.009009	-0.347656	-0.150635	0.679932	-164.263818	-84.634253	-43.683638
20734		9.619396	-0.262475	-0.853157	-0.036324	0.000058	0.012214	-0.360352	-0.149414	0.677246	-164.207285	-84.631441	-43.756683
20735		9.658479	-0.254140	-0.840550	-0.026420	-0.008859	0.010045	-0.351563	-0.150879	0.682617	-164.161312	-84.624784	-43.812713
20736		9.658375	-0.254734	-0.841556	-0.025598	-0.010596	0.006793	-0.352783	-0.157715	0.687012	-164.148267	-84.616939	-43.835907
20737		9.619116	-0.264295	-0.855744	-0.020328	-0.010532	0.006210	-0.356934	-0.156250	0.670166	-164.125193	-84.609858	-43.865833
20738		9.589114	-0.251330	-0.867535	-0.018763	-0.007025	0.005626	-0.357666	-0.159180	0.685303	-164.109230	-84.604162	-43.888023
20739		9.609629	-0.259211	-0.878949	-0.022279	-0.003413	0.008336	-0.351807	-0.160400	0.679199	-164.062686	-84.600868	-43.943489
20740		9.609492	-0.231338	-0.898854	-0.017005	-0.003352	0.007754	-0.354980	-0.155273	0.679443	-164.027307	-84.596857	-43.984171
20741		9.607440	-0.208284	-0.864425	-0.010324	-0.004537	0.012060	-0.347412	-0.155762	0.677246	-163.954918	-84.592233	-44.058660
20742		9.588793	-0.225923	-0.888795	-0.009673	-0.003258	0.013674	-0.352051	-0.156494	0.675537	-163.880927	-84.587327	-44.133909
20743		9.607266	-0.182262	-0.884416	-0.015878	0.002226	0.015847	-0.350586	-0.159180	0.676758	-163.778891	-84.585737	-44.241252
20744		9.594109	-0.186959	-0.797206	-0.025782	0.003392	0.018623	-0.351318	-0.153564	0.680664	-163.674397	-84.583670	-44.356412
20745		9.584840	-0.211104	-0.799115	-0.030412	0.004619	0.020817	-0.351074	-0.162598	0.684814	-163.547951	-84.582556	-44.496555
20746		9.614668	-0.197770	-0.807402	-0.032548	0.003809	0.020835	-0.350586	-0.156494	0.682129	-163.433968	-84.580313	-44.625141
20747		9.616574	-0.195176	-0.861413	-0.028367	0.004660	0.027314	-0.355957	-0.158936	0.675781	-163.269460	-84.578050	-44.802610
20748		9.667079	-0.218473	-0.860328	-0.040887	0.019447	0.030003	-0.349609	-0.150879	0.682373	-163.080078	-84.582795	-45.011733
20749		9.665230	-0.197546	-0.823366	-0.041443	0.025329	0.037018	-0.351563	-0.150879	0.678467	-162.829379	-84.590178	-45.282690
20750		9.704555	-0.192080	-0.807503	-0.041544	0.032327	0.042935	-0.356201	-0.149414	0.678955	-162.541418	-84.599595	-45.591206
20751		9.661611	-0.186306	-0.728320	-0.042474	0.033302	0.052697	-0.352295	-0.159180	0.676025	-162.183742	-84.608346	-45.969390
20752		9.661692	-0.248398	-0.686218	-0.044812	0.035532	0.057571	-0.355713	-0.157471	0.685059	-161.804881	-84.616566	-46.371081
20753		9.673065	-0.255174	-0.715715	-0.046690	0.031108	0.061940	-0.356689	-0.150879	0.674805	-161.399401	-84.621974	-46.800943
20754		9.677223	-0.250995	-0.821396	-0.064998	0.033853	0.059295	-0.348389	-0.166260	0.677002	-161.023349	-84.628449	-47.211421
20755		9.681299	-0.303797	-0.887820	-0.063181	0.041522	0.062478	-0.353760	-0.154297	0.676758	-160.601678	-84.638832	-47.667243
20756		9.711054	-0.379870	-0.834053	-0.051801	0.047657	0.057487	-0.353760	-0.163818	0.676758	-160.197659	-84.652560	-48.098203
20757		9.692626	-0.401399	-0.853718	-0.054811	0.048629	0.060734	-0.353271	-0.149170	0.674561	-159.762573	-84.666484	-48.562623
20758		9.696818	-0.453851	-0.918420	-0.066820	0.065427	0.055791	-0.357178	-0.159424	0.677490	-159.333976	-84.689493	-49.026887
20759		9.648599	-0.489460	-0.928315	-0.059890	0.062006	0.048712	-0.361084	-0.155518	0.679199	-158.935249	-84.712384	-49.456854
20760		9.621190	-0.503250	-0.968577	-0.041237	0.061006	0.041045	-0.354004	-0.154785	0.681885	-158.579763	-84.735496	-49.832939
20761		9.608448	-0.453009	-0.914351	-0.032138	0.066149	0.033388	-0.360596	-0.161133	0.686035	-158.237424	-84.763287	-50.190134
20762		9.558627	-0.434854	-0.907851	-0.033012	0.075712	0.036041	-0.354980	-0.161377	0.673340	-157.864798	-84.794857	-50.578666
20763		9.570663	-0.439039	-0.932979	-0.035359	0.082571	0.032743	-0.363281	-0.164307	0.676514	-157.481316	-84.831068	-50.980011
20764		9.580067	-0.476814	-0.884043	-0.032149	0.085800	0.033247	-0.362793	-0.149170	0.677979	-157.089845	-84.868114	-51.386925
20765		9.598827	-0.492008	-0.832531	-0.036810	0.083913	0.027822	-0.355225	-0.159668	0.677246	-156.720218	-84.905726	-51.774435
20766		9.569697	-0.480704	-0.835833	-0.048398	0.081696	0.031076	-0.364990	-0.151855	0.677734	-156.350107	-84.940628	-52.169204
20767		9.562008	-0.419422	-0.888495	-0.060890	0.081870	0.028347	-0.363037	-0.153809	0.677734	-155.986244	-84.976487	-52.564523
20768		9.633535	-0.450314	-0.890982	-0.065223	0.088120	0.027753	-0.359131	-0.161621	0.676270	-155.617575	-85.015077	-52.967478
20769		9.700306	-0.462889	-0.803352	-0.070596	0.095974	0.027687	-0.364014	-0.148926	0.672363	-155.213209	-85.057970	-53.409231
20770		9.732791	-0.501951	-0.818284	-0.075358	0.097946	0.020597	-0.364258	-0.162109	0.679932	-154.852999	-85.102919	-53.809471
20771		9.730790	-0.508490	-0.754339	-0.098450	0.109966	0.019380	-0.363525	-0.162598	0.671875	-154.459073	-85.154599	-54.256221
20772		9.710820	-0.501907	-0.734124	-0.120196	0.097943	0.015525	-0.362793	-0.156982	0.675293	-154.140750	-85.200364	-54.640149
20773		9.618764	-0.523698	-0.666396	-0.124747	0.096295	0.012759	-0.366211	-0.157227	0.672363	-153.828587	-85.246191	-55.020539
20774		9.565584	-0.537037	-0.585395	-0.135009	0.089707	0.013228	-0.368896	-0.162109	0.675537	-153.545094	-85.287961	-55.377985
20775		9.602093	-0.534236	-0.509743	-0.154898	0.082217	0.004964	-0.369385	-0.165771	0.676025	-153.329747	-85.328304	-55.678168
20776		9.665759	-0.498353	-0.573081	-0.166370	0.069281	0.003779	-0.366211	-0.170654	0.678955	-153.178424	-85.361835	-55.920994
20777		9.664507	-0.560823	-0.695092	-0.160930	0.065703	0.007554	-0.368652	-0.160645	0.676758	-152.997005	-85.392881	-56.191472
20778		9.611229	-0.688468	-0.761556	-0.165359	0.064249	0.007466	-0.366211	-0.164551	0.674072	-152.832239	-85.422766	-56.447183
20779		9.580194	-0.760832	-0.711089	-0.165435	0.068371	0.008493	-0.361084	-0.167725	0.679199	-152.631580	-85.454722	-56.738298
20780		9.576817	-0.795350	-0.632769	-0.156078	0.069909	0.005263	-0.375000	-0.167969	0.670898	-152.450714	-85.487933	-57.004802
20781		9.616209	-0.786210	-0.613068	-0.145960	0.069553	-0.003912	-0.367188	-0.161621	0.668701	-152.308625	-85.523628	-57.226470
20782		9.653327	-0.757268	-0.723228	-0.121281	0.069562	-0.012933	-0.365967	-0.164063	0.667480	-152.221070	-85.561413	-57.379355
20783		9.693263	-0.750293	-0.867965	-0.101272	0.082680	-0.019233	-0.368164	-0.167480	0.666016	-152.101597	-85.607759	-57.551808
20784		9.664063	-0.762064	-0.852179	-0.084797	0.104199	-0.030947	-0.370361	-0.164795	0.656494	-151.985435	-85.667866	-57.712400
20785		9.686050	-0.765143	-0.852646	-0.070443	0.117099	-0.042160	-0.367188	-0.166016	0.670166	-151.871092	-85.737830	-57.862616
20786		9.656501	-0.804114	-0.815599	-0.069500	0.124181	-0.052463	-0.366943	-0.178955	0.666504	-151.812048	-85.813805	-57.957116
20787		9.672365	-0.711148	-0.891663	-0.071158	0.133364	-0.060628	-0.374756	-0.176758	0.666748	-151.760524	-85.896794	-58.045201
20788		9.716451	-0.689401	-0.918354	-0.045095	0.140661	-0.074393	-0.373535	-0.175537	0.668701	-151.775333	-85.987022	-58.051625
20789		9.708142	-0.733048	-0.889875	-0.049669	0.139078	-0.077227	-0.378418	-0.169189	0.668701	-151.805003	-86.077495	-58.046321
20790		9.683415	-0.733660	-0.924031	-0.053069	0.132011	-0.078982	-0.370361	-0.172363	0.665283	-151.894662	-86.164595	-57.982301
20791		9.678846	-0.769974	-0.951618	-0.014365	0.107286	-0.093148	-0.370361	-0.178223	0.660400	-152.159316	-86.243160	-57.720108
20792		9.639404	-0.807328	-1.049746	0.054015	0.088470	-0.106775	-0.371338	-0.173584	0.664795	-152.597528	-86.315496	-57.245326
20793		9.609328	-0.731242	-1.035647	0.099431	0.075070	-0.125096	-0.371826	-0.171875	0.658691	-153.215669	-86.385627	-56.564638
20794		9.605329	-0.645201	-0.975676	0.139565	0.061899	-0.140255	-0.377686	-0.177002	0.662354	-154.031063	-86.452161	-55.662898
20795		9.676256	-0.579749	-0.980270	0.177152	0.047014	-0.151677	-0.379150	-0.170166	0.655518	-154.996687	-86.513162	-54.589468
20796		9.773670	-0.427408	-1.106424	0.195217	0.036153	-0.153663	-0.381348	-0.177246	0.663574	-156.064712	-86.567540	-53.402808
20797		9.953400	-0.336919	-0.848685	0.225524	0.041717	-0.163066	-0.377930	-0.176514	0.656738	-157.195115	-86.625995	-52.136796
20798		10.007970	-0.340655	-0.488670	0.273880	0.056296	-0.171696	-0.378418	-0.171143	0.660889	-158.385161	-86.692100	-50.782906
20799		9.907161	-0.312106	-0.467167	0.327655	0.035274	-0.185124	-0.379150	-0.166992	0.657471	-159.777380	-86.748322	-49.196623
20800		9.770389	-0.119053	-0.575731	0.328553	0.027393	-0.189152	-0.383545	-0.166016	0.670898	-161.303876	-86.798284	-47.474530
20801		9.559255	0.163757	-0.548593	0.302035	0.057982	-0.184572	-0.371826	-0.167725	0.656006	-162.736111	-86.862067	-45.862003
20802		9.402364	0.222708	-0.605338	0.291886	0.068100	-0.171981	-0.375244	-0.170166	0.667969	-164.098238	-86.926648	-44.325762
20803		9.328921	0.120429	-0.495344	0.304712	0.066112	-0.163292	-0.375244	-0.173584	0.663574	-165.411339	-86.987233	-42.832325
20804		9.370042	0.005521	-0.432545	0.294799	0.065000	-0.160388	-0.381348	-0.165283	0.669189	-166.774988	-87.044536	-41.293061
20805		9.404559	0.068688	-0.507328	0.273712	0.067103	-0.166383	-0.374023	-0.165283	0.670898	-168.252365	-87.102258	-39.653421
20806		9.426379	0.132670	-0.550180	0.257265	0.066366	-0.158630	-0.373047	-0.165527	0.672119	-169.731314	-87.156012	-38.020401
20807		9.456854	0.174663	-0.440598	0.230646	0.065617	-0.144447	-0.382324	-0.161865	0.664795	-171.106025	-87.206245	-36.507963
20808		9.490904	0.207234	-0.496407	0.176234	0.065288	-0.135523	-0.378418	-0.154053	0.660156	-172.473992	-87.253439	-35.032678
20809		9.444275	0.242905	-0.546878	0.150523	0.070482	-0.125164	-0.375244	-0.156006	0.663818	-173.755004	-87.301910	-33.659509
20810		9.405742	0.187094	-0.516543	0.147453	0.059442	-0.125083	-0.368896	-0.160400	0.662842	-175.114769	-87.341849	-32.209056
20811		9.362911	0.112955	-0.544083	0.166569	0.043344	-0.128400	-0.376465	-0.154541	0.660645	-176.543348	-87.371495	-30.679360
20812		9.413717	0.033581	-0.609702	0.166831	0.031740	-0.126063	-0.368896	-0.159668	0.667480	-177.995440	-87.392205	-29.125439
20813		9.375575	0.005559	-0.601440	0.176336	0.038159	-0.120151	-0.372070	-0.160889	0.665039	-179.374329	-87.415219	-27.639941
20814		9.448019	0.060099	-0.533792	0.174197	0.040982	-0.107225	-0.375488	-0.153320	0.664795	179.370815	-87.437817	-26.279285
20815		9.537242	0.046516	-0.382558	0.154216	0.025275	-0.093005	-0.374268	-0.165039	0.665283	178.285868	-87.450843	-25.100985
20816		9.626501	0.101475	-0.402712	0.163163	0.024837	-0.073815	-0.369141	-0.166748	0.663818	177.428950	-87.462613	-24.145019
20817		9.639333	0.105972	-0.432442	0.170821	0.026508	-0.066169	-0.371582	-0.156006	0.666992	176.675440	-87.475427	-23.290855
20818		9.622228	0.109557	-0.343704	0.177986	0.027717	-0.066722	-0.373291	-0.153809	0.664063	175.900346	-87.487941	-22.408311
20819		9.651997	0.103515	-0.329115	0.205007	0.019008	-0.074420	-0.371094	-0.154785	0.668457	175.054843	-87.495084	-21.440741
20820		9.681740	0.098432	-0.315212	0.224268	0.012999	-0.086140	-0.383057	-0.156494	0.661377	174.057985	-87.496970	-20.309689
20821		9.715273	0.169509	-0.286263	0.235886	0.000116	-0.087929	-0.373535	-0.152588	0.654785	173.075216	-87.491256	-19.187483
20822		9.740203	0.245470	-0.280353	0.230821	0.004711	-0.078404	-0.379150	-0.148926	0.667236	172.198467	-87.487344	-18.172891
20823		9.696589	0.366346	-0.211441	0.209415	0.007144	-0.071721	-0.375000	-0.153076	0.666260	171.405201	-87.485501	-17.255235
20824		9.678538	0.482522	-0.206187	0.169930	0.019104	-0.056761	-0.380859	-0.151855	0.659668	170.746988	-87.490451	-16.494310
20825		9.694192	0.605558	-0.131351	0.155609	0.025597	-0.045700	-0.374023	-0.144531	0.667236	170.215114	-87.500597	-15.869685
20826		9.706197	0.652210	-0.072155	0.136580	0.015832	-0.035219	-0.370605	-0.145020	0.671631	169.817470	-87.505223	-15.388711
20827		9.693144	0.657173	-0.040045	0.109758	0.003570	-0.025801	-0.372803	-0.140137	0.667969	169.565113	-87.504338	-15.068970
20828		9.672686	0.565793	-0.080484	0.090633	-0.014716	-0.022636	-0.373779	-0.140137	0.666260	169.376453	-87.492873	-14.823529
20829		9.593210	0.414555	-0.086343	0.086105	-0.034780	-0.021433	-0.373779	-0.139160	0.666992	169.262471	-87.470880	-14.655378
20830		9.594971	0.243053	-0.208632	0.087190	-0.048631	-0.027510	-0.371094	-0.140625	0.675781	169.097689	-87.439751	-14.435804
20831		9.591892	0.124960	-0.318371	0.100630	-0.052215	-0.039323	-0.366211	-0.140137	0.662354	168.817496	-87.405884	-14.092975
20832		9.671976	0.181258	-0.368524	0.103656	-0.030867	-0.045588	-0.372803	-0.137695	0.670654	168.406811	-87.382591	-13.617790
20833		9.721019	0.340755	-0.250778	0.113232	-0.023556	-0.046356	-0.370850	-0.139648	0.663818	167.990280	-87.363799	-13.131436
20834		9.698886	0.406923	-0.285359	0.109390	-0.024939	-0.040888	-0.369873	-0.140137	0.664063	167.638619	-87.344096	-12.712034
20835		9.638580	0.460809	-0.335360	0.091001	-0.042513	-0.026690	-0.367432	-0.142090	0.666260	167.506300	-87.316973	-12.523320
20836		9.591465	0.474196	-0.266031	0.067581	-0.038236	-0.014997	-0.374023	-0.141113	0.673828	167.483364	-87.292937	-12.456972
20837		9.468682	0.418187	-0.315409	0.051943	-0.052830	-0.005787	-0.375732	-0.134033	0.667725	167.604464	-87.262558	-12.544572
20838		9.435200	0.354191	-0.348459	0.054769	-0.067487	-0.001371	-0.365234	-0.142578	0.674561	167.806374	-87.223821	-12.710676
20839		9.473489	0.319641	-0.429940	0.038163	-0.061877	-0.004997	-0.371582	-0.132324	0.669434	167.945667	-87.188466	-12.823986
20840		9.502742	0.335882	-0.444134	0.026809	-0.064854	-0.004410	-0.367920	-0.138916	0.674316	168.082236	-87.150800	-12.940718
20841		9.574186	0.365923	-0.498524	0.015453	-0.063039	-0.009484	-0.361572	-0.143799	0.667725	168.155541	-87.114251	-13.000680
20842		9.616623	0.371349	-0.413517	-0.004420	-0.061787	-0.009646	-0.364990	-0.143799	0.665283	168.204122	-87.077674	-13.047234
20843		9.615475	0.427359	-0.461217	-0.015770	-0.064769	-0.009045	-0.375488	-0.135986	0.670898	168.262219	-87.040090	-13.111192
20844		9.615143	0.428022	-0.467480	-0.031939	-0.067623	-0.002445	-0.364502	-0.135742	0.673096	168.382730	-87.001067	-13.245568
20845		9.572716	0.414667	-0.433525	-0.038014	-0.066108	0.001293	-0.366943	-0.140625	0.678467	168.539098	-86.964088	-13.419366
20846		9.513399	0.382645	-0.423966	-0.034797	-0.079593	0.004550	-0.365967	-0.137939	0.669434	168.749218	-86.919093	-13.645126
20847		9.522657	0.276581	-0.457533	-0.037001	-0.089485	0.006545	-0.368164	-0.137695	0.672363	168.997323	-86.869376	-13.910607
20848		9.568556	0.264170	-0.540065	-0.043262	-0.092934	0.013207	-0.357666	-0.138428	0.675781	169.302793	-86.817702	-14.236742
20849		9.628625	0.212020	-0.502913	-0.041940	-0.090044	0.019108	-0.367188	-0.143311	0.677246	169.657918	-86.768778	-14.612070
20850		9.624193	0.161882	-0.546422	-0.047897	-0.084293	0.026528	-0.365967	-0.136230	0.674805	170.056517	-86.723104	-15.034174
20851		9.654336	0.120258	-0.521159	-0.045284	-0.082019	0.028075	-0.360840	-0.139404	0.667480	170.461728	-86.679420	-15.461724
20852		9.612053	0.104012	-0.488612	-0.047200	-0.082698	0.030815	-0.370605	-0.139648	0.681641	170.877324	-86.634711	-15.900492
20853		9.612165	0.000690	-0.544864	-0.027916	-0.084498	0.022678	-0.368652	-0.144043	0.675781	171.223150	-86.588840	-16.258578
20854		9.612269	-0.028727	-0.532281	-0.016320	-0.084576	0.017204	-0.360352	-0.141846	0.673828	171.509841	-86.541589	-16.550526
20855		9.654403	0.029509	-0.490908	-0.003718	-0.077414	0.006546	-0.357422	-0.139648	0.673096	171.691978	-86.498172	-16.731154
20856		9.654004	0.029088	-0.498722	0.010212	-0.084449	0.001858	-0.354004	-0.136475	0.677002	171.839561	-86.449613	-16.868529
20857		9.691923	0.039924	-0.493314	0.025114	-0.089776	0.004220	-0.359863	-0.139160	0.680176	172.025129	-86.398736	-17.035508
20858		9.749743	0.098540	-0.539725	0.048452	-0.091294	0.009172	-0.357666	-0.135010	0.678955	172.259697	-86.346810	-17.238104
20859		9.795926	0.131295	-0.533566	0.050887	-0.093986	0.013622	-0.359863	-0.131104	0.674072	172.537175	-86.294251	-17.482253
20860		9.867718	0.204596	-0.502074	0.045994	-0.085784	0.021535	-0.355957	-0.135742	0.679199	172.858658	-86.246234	-17.773382
20861		9.871133	0.277644	-0.495988	0.038035	-0.080950	0.029030	-0.358887	-0.141602	0.675537	173.232963	-86.202055	-18.121729
20862		9.808807	0.239977	-0.432811	0.027033	-0.088252	0.040793	-0.353760	-0.133301	0.674561	173.693406	-86.153641	-18.563047
20863		9.773818	0.199291	-0.489371	0.020630	-0.099878	0.042839	-0.352783	-0.139893	0.679932	174.170663	-86.099176	-19.025236
20864		9.689522	0.095028	-0.486373	0.014835	-0.104665	0.034243	-0.354004	-0.134521	0.677002	174.559920	-86.040578	-19.402262
20865		9.642222	0.058157	-0.511220	0.012731	-0.100021	0.022025	-0.351807	-0.135010	0.678955	174.838546	-85.984443	-19.669925
20866		9.623593	0.066034	-0.564673	0.020128	-0.088397	0.006242	-0.354492	-0.144287	0.678955	174.974712	-85.933464	-19.790241
20867		9.614381	0.171581	-0.547107	0.023817	-0.082204	-0.004954	-0.355713	-0.138428	0.682617	175.020543	-85.886088	-19.818496
20868		9.627037	0.243419	-0.518257	0.004345	-0.075031	-0.011674	-0.349854	-0.135010	0.687256	174.993036	-85.841830	-19.783792
20869		9.604016	0.306287	-0.556935	-0.002301	-0.075575	-0.002868	-0.349609	-0.132080	0.676758	175.035432	-85.798305	-19.823186
20870		9.646450	0.264757	-0.564016	-0.004589	-0.081389	0.000070	-0.345215	-0.127441	0.683350	175.097895	-85.750998	-19.883825
20871		9.620093	0.223401	-0.597292	0.004290	-0.093189	0.004228	-0.347900	-0.127930	0.683350	175.208223	-85.697726	-19.986899
20872		9.581807	0.184105	-0.598914	-0.008973	-0.096803	0.007713	-0.353760	-0.132813	0.681641	175.331742	-85.641963	-20.111296
20873		9.545257	0.174403	-0.675926	-0.022862	-0.097734	0.010569	-0.348389	-0.131836	0.681885	175.470755	-85.586460	-20.258807
20874		9.527018	0.155359	-0.708715	-0.036966	-0.098852	0.010700	-0.343262	-0.140869	0.681396	175.594948	-85.529618	-20.399987
20875		9.530596	0.101784	-0.730951	-0.039703	-0.097030	0.010094	-0.344482	-0.135498	0.680420	175.712403	-85.474360	-20.536278
20876		9.539192	0.096594	-0.717657	-0.038096	-0.088490	0.006497	-0.342285	-0.134277	0.679199	175.794117	-85.423218	-20.635514
20877		9.627503	0.116488	-0.732107	-0.054284	-0.085762	0.001068	-0.339600	-0.134033	0.678223	175.828527	-85.373996	-20.696733
20878		9.636179	0.112115	-0.718240	-0.040881	-0.085894	-0.000719	-0.348633	-0.135986	0.684814	175.853537	-85.324025	-20.740693
20879		9.725449	0.105019	-0.711902	-0.041342	-0.082251	-0.005225	-0.351807	-0.133789	0.680176	175.848265	-85.276584	-20.754587
20880		9.803485	0.158117	-0.768581	-0.049846	-0.074020	-0.004861	-0.347168	-0.129395	0.682617	175.832812	-85.233227	-20.763105
20881		9.841877	0.227783	-0.857829	-0.062055	-0.058481	-0.003580	-0.347656	-0.133545	0.679932	175.815849	-85.199619	-20.776743
20882		9.818302	0.232818	-0.797969	-0.063674	-0.047018	0.004836	-0.342285	-0.135742	0.689209	175.844882	-85.172097	-20.837857
20883		9.730105	0.184857	-0.774539	-0.066934	-0.031344	0.013151	-0.347168	-0.142334	0.683838	175.923788	-85.154543	-20.950733
20884		9.701646	0.140521	-0.747111	-0.066084	-0.017122	0.013809	-0.349365	-0.141113	0.685547	175.996457	-85.144458	-21.057028
20885		9.670011	-0.007431	-0.713315	-0.057394	-0.021140	0.017106	-0.340088	-0.146240	0.684814	176.100565	-85.132950	-21.190402
20886		9.631025	-0.147929	-0.757017	-0.044630	-0.034573	0.010777	-0.342285	-0.133545	0.687256	176.172166	-85.112744	-21.283292
20887		9.650542	-0.255902	-0.819579	-0.015266	-0.036158	-0.001545	-0.345459	-0.144287	0.684082	176.181623	-85.091726	-21.297160
20888		9.655527	-0.277533	-0.910916	-0.000782	-0.024433	-0.014079	-0.342041	-0.144043	0.691162	176.107831	-85.076358	-21.218910
20889		9.688974	-0.183863	-0.906657	0.001267	-0.005340	-0.029966	-0.340820	-0.140625	0.690674	175.924311	-85.071882	-21.029981
20890		9.663992	-0.121081	-0.882419	0.012713	0.014246	-0.033386	-0.342773	-0.135986	0.678955	175.712635	-85.077772	-20.805575
20891		9.690308	-0.076807	-0.856086	0.014970	0.016086	-0.037298	-0.346680	-0.139404	0.685791	175.478351	-85.085088	-20.557226
20892		9.692533	0.056786	-0.880843	0.015500	0.018914	-0.017680	-0.350830	-0.133789	0.690430	175.369051	-85.094229	-20.433975
20893		9.734577	0.044000	-0.899522	0.002511	0.027427	-0.008474	-0.342529	-0.136963	0.682129	175.312640	-85.109400	-20.371071
20894		9.714984	0.023613	-0.865292	-0.012952	0.037904	0.002890	-0.345215	-0.133301	0.690430	175.313230	-85.130328	-20.374477
20895		9.680801	0.087770	-0.859543	-0.025145	0.044695	0.008844	-0.344482	-0.135986	0.691406	175.347329	-85.156049	-20.418218
20896		9.656174	0.018342	-0.858957	-0.042326	0.056188	0.012520	-0.350098	-0.133789	0.681152	175.386455	-85.187865	-20.477187
20897		9.616835	-0.023852	-0.790899	-0.069291	0.069304	0.012405	-0.353516	-0.135498	0.688721	175.407101	-85.227861	-20.532758
20898		9.578754	-0.035451	-0.796994	-0.093603	0.076682	0.011859	-0.340332	-0.146240	0.684570	175.402200	-85.271347	-20.577022
20899		9.580352	-0.063492	-0.768819	-0.097609	0.083883	0.010021	-0.344482	-0.139160	0.687012	175.382116	-85.319503	-20.608555
20900		9.623861	-0.104859	-0.761224	-0.100628	0.082345	-0.000891	-0.352295	-0.141357	0.679932	175.280778	-85.365633	-20.560095
20901		9.627798	-0.128612	-0.787595	-0.095945	0.078296	-0.007965	-0.341309	-0.144531	0.675049	175.136715	-85.409782	-20.466141
20902		9.636066	-0.204561	-0.827571	-0.106201	0.082851	-0.009688	-0.348633	-0.145996	0.687012	174.965224	-85.455747	-20.350514
20903		9.710565	-0.197549	-0.903863	-0.105867	0.080065	-0.011842	-0.347412	-0.144531	0.690186	174.780571	-85.500558	-20.222002
20904		9.723973	-0.225588	-0.908111	-0.090329	0.084000	-0.006050	-0.345459	-0.147461	0.679199	174.638058	-85.547314	-20.126333
20905		9.733997	-0.229403	-0.877697	-0.090186	0.092212	-0.001369	-0.346436	-0.144043	0.686279	174.525732	-85.599521	-20.061193
20906		9.739682	-0.181019	-0.832943	-0.092132	0.095553	0.002352	-0.354004	-0.149902	0.677002	174.431806	-85.653298	-20.015304
20907		9.707578	-0.171934	-0.781197	-0.094492	0.093770	0.006203	-0.348633	-0.148926	0.677490	174.369444	-85.706885	-20.002775
20908		9.664602	-0.102524	-0.792080	-0.111869	0.096638	0.014361	-0.350098	-0.147461	0.678223	174.352551	-85.761950	-20.045479
20909		9.643512	-0.068250	-0.792823	-0.135943	0.096547	0.017116	-0.355469	-0.138428	0.678955	174.347866	-85.817710	-20.114663
20910		9.558086	-0.085551	-0.833338	-0.146266	0.088412	0.018918	-0.349121	-0.149902	0.682129	174.354386	-85.868343	-20.200597
20911		9.563131	-0.138817	-0.839434	-0.147626	0.081118	0.021224	-0.352295	-0.143311	0.682129	174.390917	-85.915533	-20.317104
20912		9.547017	-0.185014	-0.836420	-0.138496	0.067049	0.013830	-0.355469	-0.143311	0.680664	174.380284	-85.953695	-20.381368
20913		9.564608	-0.267160	-0.857069	-0.136681	0.059870	0.009022	-0.358154	-0.154541	0.679199	174.344098	-85.988071	-20.418372
20914		9.632994	-0.239942	-0.846418	-0.135707	0.054403	0.007458	-0.355225	-0.150391	0.676025	174.293798	-86.018667	-20.441264
20915		9.761922	-0.137346	-0.761033	-0.151972	0.064755	0.013188	-0.345947	-0.149170	0.673096	174.277915	-86.056128	-20.508298
20916		9.804181	-0.023510	-0.744596	-0.157965	0.062542	0.018638	-0.358154	-0.146973	0.679443	174.301165	-86.092002	-20.617695
20917		9.792151	0.104375	-0.675412	-0.178021	0.054666	0.032361	-0.353516	-0.155762	0.689209	174.442470	-86.124655	-20.856571
20918		9.715015	0.108864	-0.717714	-0.200661	0.053650	0.042626	-0.360352	-0.151611	0.675293	174.655549	-86.156730	-21.180738
20919		9.635973	0.052219	-0.666223	-0.215159	0.052026	0.049072	-0.353027	-0.161621	0.678467	174.927360	-86.188634	-21.571938
20920		9.501558	-0.060635	-0.634200	-0.214668	0.042384	0.040938	-0.349609	-0.149658	0.672363	175.135555	-86.214009	-21.899231
20921		9.406047	-0.143346	-0.774842	-0.201076	0.027092	0.028589	-0.356201	-0.163818	0.675049	175.264707	-86.230418	-22.139460
20922		9.420022	-0.229978	-0.745969	-0.186627	0.026921	0.010550	-0.352051	-0.157227	0.676514	175.240912	-86.245439	-22.218146
20923		9.384997	-0.234759	-0.812255	-0.176790	0.027854	-0.005329	-0.353516	-0.156982	0.672852	175.089381	-86.260688	-22.163378
20924		9.433499	-0.157288	-0.701463	-0.178819	0.037011	-0.013735	-0.359619	-0.161865	0.673340	174.849195	-86.280273	-22.020728
20925		9.441623	-0.103782	-0.715428	-0.180467	0.032681	-0.006648	-0.363525	-0.162842	0.676514	174.678768	-86.298255	-21.948814
20926		9.459413	0.013410	-0.635397	-0.180434	0.028056	0.001544	-0.352051	-0.164063	0.673584	174.576920	-86.313495	-21.945722
20927		9.541547	0.052327	-0.547409	-0.191232	0.026097	0.015627	-0.351563	-0.167969	0.677490	174.601827	-86.328889	-22.075841
20928		9.541939	0.149771	-0.492023	-0.220641	0.017602	0.028500	-0.364014	-0.166016	0.679932	174.725781	-86.339602	-22.322099
20929		9.604930	0.156824	-0.540475	-0.243757	0.012651	0.034788	-0.356445	-0.173828	0.677979	174.904178	-86.348221	-22.636170
20930		9.573716	0.126439	-0.643102	-0.250986	0.000174	0.037429	-0.354736	-0.169189	0.668213	175.106221	-86.349338	-22.978094
20931		9.564971	0.004025	-0.699728	-0.253749	-0.004628	0.030747	-0.357422	-0.167969	0.672852	175.256409	-86.347762	-23.269948
20932		9.515211	-0.064121	-0.644295	-0.239524	-0.006640	0.023134	-0.352783	-0.169189	0.676270	175.342032	-86.344204	-23.488634
20933		9.447140	-0.090716	-0.652430	-0.226276	-0.015093	0.013917	-0.360352	-0.171143	0.675781	175.365804	-86.335781	-23.637327
20934		9.397710	-0.060660	-0.544032	-0.212676	-0.020328	0.017819	-0.350342	-0.176270	0.673096	175.428247	-86.324138	-23.817376
20935		9.355351	-0.048248	-0.525634	-0.206238	-0.029477	0.017279	-0.349854	-0.177490	0.670898	175.501846	-86.307632	-24.004745
20936		9.247760	-0.026940	-0.588091	-0.193566	-0.040209	0.012988	-0.351563	-0.178467	0.673340	175.544296	-86.284391	-24.153794
20937		9.203349	-0.024181	-0.682830	-0.177853	-0.051797	0.005455	-0.352539	-0.179199	0.665283	175.542516	-86.254510	-24.249586
20938		9.255874	0.051245	-0.797169	-0.169584	-0.055402	-0.005990	-0.353027	-0.171875	0.672852	175.442148	-86.221742	-24.241749
20939		9.360950	0.147400	-0.817851	-0.154760	-0.053425	-0.006954	-0.351318	-0.175293	0.676758	175.348465	-86.190480	-24.231762
20940		9.507040	0.108133	-0.730589	-0.150820	-0.047764	-0.008580	-0.351807	-0.181396	0.666992	175.233195	-86.161950	-24.198213
20941		9.679984	-0.021708	-0.817854	-0.107900	-0.046889	-0.009723	-0.357178	-0.174316	0.663574	175.139858	-86.134230	-24.161666
20942		9.904214	-0.225860	-0.701624	-0.049290	-0.034060	-0.014425	-0.351807	-0.179688	0.671875	175.025567	-86.113228	-24.070791
20943		10.011267	-0.397429	-0.499495	0.038188	-0.030016	-0.040666	-0.349121	-0.176270	0.677734	174.747270	-86.093683	-23.764816
20944		9.968050	-0.447291	-0.555411	0.131645	-0.031522	-0.074555	-0.348877	-0.181885	0.676270	174.237998	-86.070759	-23.174119
20945		9.899207	-0.255748	-0.748568	0.191704	-0.019933	-0.101760	-0.351563	-0.169678	0.677002	173.541093	-86.052656	-22.360363
20946		9.753308	0.139487	-0.877452	0.210249	-0.004437	-0.104888	-0.357422	-0.186279	0.675537	172.813399	-86.042156	-21.505554
20947		9.557785	0.562532	-0.896406	0.202478	-0.003159	-0.090306	-0.359131	-0.178223	0.671387	172.210067	-86.033265	-20.779540
20948		9.426595	1.003562	-0.855464	0.152029	0.003145	-0.056435	-0.357422	-0.169189	0.677979	171.843282	-86.029737	-20.319929
20949		9.399519	1.219634	-0.812681	0.072593	-0.014106	-0.017880	-0.346924	-0.179932	0.672852	171.773405	-86.020051	-20.203105
20950		9.522938	1.297417	-0.954791	0.001040	-0.053244	0.009860	-0.350098	-0.173828	0.677002	171.927286	-85.989828	-20.352135
20951		9.633885	1.276688	-1.121500	-0.066933	-0.073110	0.020686	-0.349854	-0.179199	0.680420	172.153695	-85.949504	-20.612914
20952		9.750303	1.146894	-1.267618	-0.126042	-0.073546	0.014086	-0.347900	-0.181641	0.673828	172.285061	-85.908018	-20.812382
20953		9.842306	1.019976	-1.348985	-0.178795	-0.076374	-0.014360	-0.349365	-0.176270	0.677002	172.166159	-85.863045	-20.791469
20954		10.055022	0.821432	-1.202373	-0.188077	-0.083821	-0.051196	-0.352783	-0.177734	0.677734	171.762597	-85.810563	-20.490254
20955		10.360782	0.494763	-1.299681	-0.202765	-0.094259	-0.095236	-0.344482	-0.172852	0.673340	171.039744	-85.748573	-19.876928
20956		10.588442	0.308162	-1.408159	-0.192384	-0.075913	-0.132385	-0.343018	-0.181396	0.672119	170.036314	-85.692384	-18.976598
20957		10.540273	0.199485	-1.321939	-0.133662	-0.048570	-0.169023	-0.336426	-0.193115	0.675049	168.785163	-85.646723	-17.793529
20958		10.245381	0.178961	-1.213729	-0.096004	-0.041473	-0.179130	-0.347412	-0.184326	0.680664	167.492755	-85.601576	-16.547878
20959		10.001660	0.390343	-1.579488	-0.120299	-0.025864	-0.184809	-0.347412	-0.181396	0.673584	166.147138	-85.562422	-15.262954
20960		9.750674	0.489049	-1.503858	-0.118828	0.030449	-0.171851	-0.343994	-0.187256	0.670898	164.807432	-85.553850	-13.982869
20961		9.432561	0.560343	-1.265535	-0.127030	0.051178	-0.157047	-0.342041	-0.187988	0.675049	163.533013	-85.557126	-12.772665
20962		9.277116	0.498257	-1.244786	-0.124978	0.046130	-0.145091	-0.343506	-0.185059	0.673584	162.350927	-85.557265	-11.654208
20963		9.243255	0.385463	-1.180984	-0.109005	0.045587	-0.140064	-0.339111	-0.192139	0.676270	161.217697	-85.556514	-10.575157
20964		9.245898	0.406459	-1.230696	-0.098751	0.039777	-0.134586	-0.342285	-0.199707	0.675537	160.140748	-85.551788	-9.547077
20965		9.252623	0.472496	-1.241043	-0.102883	0.048371	-0.140096	-0.345703	-0.194824	0.669434	159.005544	-85.549185	-8.463128
20966		9.173703	0.589403	-1.390633	-0.124692	0.070613	-0.124816	-0.339600	-0.191650	0.669434	157.900295	-85.559856	-7.421570
20967		9.146537	0.621900	-1.446915	-0.140051	0.101563	-0.118702	-0.350342	-0.197021	0.672119	156.734900	-85.586887	-6.328449
20968		9.049190	0.619465	-1.288227	-0.150414	0.126452	-0.106562	-0.347412	-0.201904	0.666016	155.553708	-85.627789	-5.225580
20969		9.038863	0.629099	-1.409148	-0.152261	0.124779	-0.094622	-0.347412	-0.200684	0.672607	154.438684	-85.669326	-4.190408
20970		9.008081	0.710242	-1.608945	-0.158904	0.138296	-0.087509	-0.347656	-0.200195	0.676025	153.300315	-85.717744	-3.135488
20971		9.020780	0.751054	-1.644096	-0.182773	0.171140	-0.081538	-0.352051	-0.201904	0.654785	152.047599	-85.782949	-1.979557
20972		8.994019	0.743912	-1.619762	-0.179005	0.184981	-0.078129	-0.353516	-0.205566	0.667236	150.727842	-85.853949	-0.754484
20973		9.064189	0.648639	-1.579833	-0.160759	0.186519	-0.076810	-0.346924	-0.200684	0.673828	149.378796	-85.924288	0.510070
20974		9.145544	0.583167	-1.589771	-0.153563	0.193379	-0.061853	-0.350342	-0.202148	0.663330	148.062059	-86.000008	1.746509
20975		9.192215	0.550212	-1.574471	-0.151620	0.192174	-0.048762	-0.351318	-0.206299	0.665039	146.798014	-86.077264	2.931600
20976		9.255619	0.531811	-1.533634	-0.161977	0.189905	-0.026606	-0.352051	-0.212158	0.659912	145.643026	-86.158688	4.000854
20977		9.216279	0.510268	-1.588582	-0.150768	0.182946	-0.003470	-0.354004	-0.211914	0.663574	144.648568	-86.243090	4.915387
20978		9.194022	0.509074	-1.507234	-0.137911	0.171596	0.016912	-0.354248	-0.209473	0.652100	143.822424	-86.328016	5.668714
20979		9.115976	0.605895	-1.594171	-0.136749	0.126194	0.040855	-0.362305	-0.213379	0.660400	143.384955	-86.399642	6.032973
20980		9.169859	0.810795	-1.812026	-0.173452	0.117693	0.057786	-0.358887	-0.205078	0.660156	143.080885	-86.472977	6.242687
20981		9.200406	0.982327	-1.947039	-0.193345	0.127870	0.078751	-0.360840	-0.211914	0.664063	142.857978	-86.558219	6.359836
20982		9.165397	1.106266	-1.848811	-0.205428	0.135078	0.100949	-0.359375	-0.212402	0.665527	142.746423	-86.654339	6.358305
20983		9.218384	1.147235	-1.756367	-0.211412	0.131700	0.118150	-0.364258	-0.215820	0.660156	142.791494	-86.754769	6.196735
20984		9.211726	1.048389	-1.658978	-0.208021	0.103802	0.127448	-0.362061	-0.214600	0.657227	143.092651	-86.845738	5.780360
20985		9.245490	0.997717	-1.619784	-0.221606	0.075653	0.129583	-0.356934	-0.215820	0.651611	143.607864	-86.924209	5.141876
20986		9.331685	0.894451	-1.676447	-0.223770	0.054037	0.127253	-0.354248	-0.204590	0.655029	144.265377	-86.991648	4.359669
20987		9.391554	0.787935	-1.671467	-0.207317	0.034605	0.117350	-0.368408	-0.212646	0.657715	145.004890	-87.045903	3.505328
20988		9.462416	0.743771	-1.734121	-0.206846	0.033289	0.111177	-0.362061	-0.213867	0.656738	145.718965	-87.097273	2.676275
20989		9.494478	0.694047	-1.701195	-0.197179	0.031216	0.109707	-0.369385	-0.219727	0.645020	146.470876	-87.146417	1.815449
20990		9.504408	0.705694	-1.804592	-0.202024	0.019440	0.114620	-0.365723	-0.214600	0.655762	147.365062	-87.191045	0.808902
20991		9.552716	0.863613	-1.789947	-0.207142	0.023586	0.127056	-0.358398	-0.216797	0.661865	148.390910	-87.240434	-0.332245
20992		9.470205	0.952573	-1.607729	-0.219480	0.032112	0.142624	-0.363770	-0.212402	0.656738	149.554784	-87.297745	-1.618713
20993		9.438605	0.942490	-1.672158	-0.238409	0.030358	0.152694	-0.375000	-0.226318	0.653809	150.887251	-87.355156	-3.083941
20994		9.438318	1.025001	-1.605554	-0.239731	0.027077	0.161159	-0.364990	-0.223633	0.652100	152.387219	-87.412064	-4.718350
20995		9.545739	1.049128	-1.574569	-0.227531	0.012625	0.165411	-0.374756	-0.225098	0.654297	154.097581	-87.460161	-6.556440
20996		9.682401	1.119755	-1.565905	-0.231363	0.017769	0.166908	-0.363037	-0.223877	0.651611	155.859968	-87.509185	-8.448592
20997		9.866511	1.130397	-1.484918	-0.254319	0.034199	0.172938	-0.369873	-0.221924	0.651367	157.674782	-87.565083	-10.406219
20998		10.040003	0.953397	-1.385145	-0.221221	0.017176	0.172423	-0.369873	-0.224609	0.649658	159.667128	-87.609493	-12.522572
20999		10.161418	0.686640	-1.633164	-0.215697	0.009488	0.172227	-0.364990	-0.224365	0.651855	161.770874	-87.645940	-14.746901
21000		10.181353	0.503434	-1.616363	-0.209473	0.043708	0.166990	-0.370850	-0.225342	0.654297	163.734909	-87.697491	-16.828054
21001		10.162057	0.221595	-1.453755	-0.199117	0.053158	0.156684	-0.367676	-0.218750	0.649170	165.616739	-87.749096	-18.820539
21002		10.170295	0.110181	-1.266403	-0.115516	0.046749	0.136367	-0.376221	-0.224609	0.648193	167.360064	-87.792621	-20.626796
21003		10.200648	0.146340	-1.283944	-0.012638	0.026005	0.098376	-0.369873	-0.215332	0.646729	168.731578	-87.817441	-22.001356
21004		10.265808	0.347838	-1.030406	0.054164	0.049922	0.074796	-0.366943	-0.216309	0.647705	169.753057	-87.852737	-22.987887
21005		10.315800	0.505777	-0.896321	0.061520	0.087567	0.055721	-0.370605	-0.218262	0.650635	170.425427	-87.906086	-23.619892
21006		10.477745	0.450229	-1.161504	0.101892	0.103777	0.053126	-0.370361	-0.227295	0.640137	171.070582	-87.968849	-24.202425
21007		10.829638	0.267100	-0.964695	0.226765	0.085503	0.053495	-0.375000	-0.215332	0.657471	171.875371	-88.020262	-24.872940
21008		11.083867	0.117903	-0.524235	0.221208	0.088336	0.040656	-0.376953	-0.218994	0.655762	172.495114	-88.072743	-25.361605
21009		11.324107	0.198865	-0.351560	0.160942	0.102305	0.031276	-0.373535	-0.211670	0.649414	172.917903	-88.131522	-25.687079
21010		11.335006	0.245933	-0.463158	0.140395	0.107573	0.028286	-0.378174	-0.208008	0.645752	173.287780	-88.193820	-25.972043
21011		11.291163	0.209491	-0.584438	0.183437	0.113974	0.021033	-0.377686	-0.207764	0.648438	173.557894	-88.258538	-26.131882
21012		11.046438	0.125261	-0.397993	0.242648	0.135075	0.029670	-0.377197	-0.213379	0.644531	174.002775	-88.336474	-26.433250
21013		10.750943	0.121331	-0.244882	0.216473	0.144544	0.030816	-0.384521	-0.208740	0.642578	174.471745	-88.419110	-26.773438
21014		10.379188	0.329726	-0.317200	0.155112	0.144313	0.037764	-0.379395	-0.214355	0.647949	175.103375	-88.502570	-27.311770
21015		10.008247	0.567689	-0.408045	0.101387	0.139478	0.047133	-0.372803	-0.208740	0.646973	175.992361	-88.582865	-28.138377
21016		9.755801	0.565766	-0.464366	0.067095	0.148471	0.069225	-0.381348	-0.212646	0.646729	177.501634	-88.669189	-29.605009
21017		9.491895	0.512504	-0.396858	0.052663	0.156469	0.090000	-0.377197	-0.198730	0.642578	179.742732	-88.758395	-31.811916
21018		9.254150	0.447360	-0.206290	-0.022565	0.147871	0.107463	-0.380371	-0.208984	0.640381	-177.222993	-88.840881	-34.855166
21019		9.157180	0.395267	-0.200366	-0.074686	0.128187	0.124611	-0.386230	-0.201172	0.648193	-173.332728	-88.906610	-38.784184
21020		9.103148	0.176127	-0.245011	-0.045953	0.093415	0.143118	-0.384277	-0.209717	0.644043	-168.573087	-88.945679	-43.566373
21021		9.077147	-0.087518	-0.264061	-0.034175	0.069188	0.138136	-0.388672	-0.206055	0.642578	-163.869687	-88.963762	-48.285350
21022		8.976957	-0.230805	-0.215887	-0.039177	0.050338	0.120456	-0.394775	-0.211426	0.648193	-159.751273	-88.968673	-52.422264
21023		8.820312	-0.253646	-0.243961	-0.042276	0.022938	0.098854	-0.385742	-0.199219	0.638672	-156.618242	-88.958382	-55.575497
21024		8.724663	-0.211099	-0.300491	-0.011733	0.001354	0.066556	-0.384521	-0.202393	0.641113	-154.709096	-88.942424	-57.487066
21025		8.713281	-0.204920	-0.211173	0.019871	-0.017868	0.034931	-0.388184	-0.208984	0.644043	-153.990752	-88.923031	-58.189309
21026		8.731221	-0.131981	-0.219688	0.013025	-0.027182	0.006528	-0.383301	-0.208252	0.643311	-154.164567	-88.906442	-58.003379
21027		8.919438	-0.042664	-0.229682	0.030885	-0.041233	-0.003838	-0.388916	-0.198730	0.636963	-154.804782	-88.884582	-57.340889
21028		9.106856	-0.060704	-0.115251	0.072527	-0.042759	-0.014353	-0.385010	-0.202148	0.644775	-155.664214	-88.864832	-56.435108
21029		9.297860	-0.159309	-0.005086	0.123418	-0.063605	-0.006362	-0.381592	-0.201416	0.645996	-156.511690	-88.831518	-55.511947
21030		9.539543	-0.200577	-0.003414	0.142045	-0.081457	0.001172	-0.387207	-0.200928	0.645752	-157.278715	-88.787376	-54.658733
21031		9.767052	-0.228450	0.199370	0.142027	-0.073206	0.011678	-0.386230	-0.209229	0.650635	-157.673417	-88.744535	-54.177807
21032		9.763269	-0.256670	0.320810	0.138912	-0.081391	0.024385	-0.385498	-0.196533	0.648926	-157.801922	-88.695134	-53.965038
21033		9.831442	-0.234485	0.324624	0.127314	-0.087467	0.034018	-0.385254	-0.205566	0.648438	-157.782731	-88.639876	-53.906682
21034		9.779842	-0.046942	0.266456	0.084932	-0.079063	0.045287	-0.385742	-0.201660	0.638184	-157.451630	-88.587159	-54.184582
21035		9.776256	0.139245	0.493695	0.048274	-0.049357	0.066582	-0.376465	-0.195557	0.645508	-156.477135	-88.544829	-55.127407
21036		9.799894	0.219757	0.786229	0.023670	-0.025531	0.080133	-0.385254	-0.195313	0.648682	-155.064888	-88.511697	-56.521934
21037		9.786648	0.209390	0.816255	-0.038980	-0.009156	0.098886	-0.379395	-0.198486	0.654541	-153.246803	-88.480844	-58.358239
21038		9.724852	0.105651	0.860943	-0.117814	0.016843	0.122540	-0.385010	-0.188721	0.647217	-150.825485	-88.455495	-60.843327
21039		9.647279	-0.061874	0.972612	-0.164741	0.023851	0.130835	-0.386230	-0.184082	0.644531	-148.306877	-88.427936	-63.452401
21040		9.414227	-0.198381	0.849404	-0.219673	0.012978	0.132855	-0.390869	-0.193848	0.645752	-145.985889	-88.391949	-65.895572
21041		9.156730	-0.246987	0.737669	-0.271298	0.006592	0.129061	-0.387695	-0.192627	0.647217	-143.948885	-88.351387	-68.083852
21042		9.023938	-0.202562	0.475831	-0.277370	-0.018323	0.117632	-0.392578	-0.196777	0.637451	-142.479464	-88.301699	-69.708268
21043		8.993183	-0.323051	0.415944	-0.256651	-0.032974	0.106635	-0.385010	-0.204346	0.648682	-141.430135	-88.248067	-70.900384
21044		9.118533	-0.524475	0.321978	-0.238706	-0.054811	0.101848	-0.383545	-0.194092	0.646240	-140.746522	-88.186070	-71.716541
21045		9.384117	-0.790660	0.149082	-0.190632	-0.088797	0.089450	-0.389893	-0.196533	0.652832	-140.643801	-88.113084	-71.923791
21046		9.545738	-1.153835	0.110712	-0.135342	-0.102207	0.077468	-0.385742	-0.207520	0.639648	-140.806188	-88.038750	-71.834280
21047		9.748147	-1.355071	0.116023	-0.083743	-0.133255	0.068571	-0.386475	-0.201904	0.645752	-141.364542	-87.953557	-71.318903
21048		9.814667	-1.351501	-0.057533	-0.025019	-0.156887	0.062925	-0.383301	-0.201416	0.638184	-142.129869	-87.859735	-70.562786
21049		9.971665	-1.238070	-0.168534	0.058982	-0.179161	0.066053	-0.384277	-0.198242	0.649902	-142.951524	-87.754109	-69.702088
21050		10.157558	-0.998952	-0.298284	0.077869	-0.183799	0.081368	-0.381104	-0.201660	0.654785	-143.546696	-87.640918	-69.057160
21051		10.270886	-0.844715	-0.295242	0.091811	-0.174952	0.107736	-0.384766	-0.196777	0.649414	-143.732451	-87.522377	-68.813803
21052		10.241672	-0.718029	-0.165146	0.108008	-0.161292	0.138129	-0.373291	-0.198486	0.649658	-143.471592	-87.400113	-69.008348
21053		9.987564	-0.485996	-0.102647	0.078309	-0.154903	0.182067	-0.379395	-0.188721	0.654785	-142.785271	-87.265313	-69.645800
21054		9.710380	-0.200022	-0.007735	0.007500	-0.130895	0.221049	-0.383057	-0.196777	0.653809	-141.675464	-87.127539	-70.748009
21055		9.502429	-0.178690	0.047053	-0.053194	-0.113435	0.260252	-0.374512	-0.197266	0.650391	-140.255665	-86.981955	-72.195362
21056		9.382033	-0.314698	0.149759	-0.097098	-0.098246	0.276166	-0.375244	-0.196289	0.649414	-138.761033	-86.835489	-73.743258
21057		9.372578	-0.554519	0.143208	-0.102040	-0.107314	0.270616	-0.376465	-0.194580	0.651123	-137.511364	-86.685102	-75.048969
21058		9.390057	-0.760617	-0.056873	-0.104478	-0.117622	0.242904	-0.378418	-0.190430	0.652832	-136.626474	-86.540077	-75.990745
21059		9.481534	-0.978631	-0.097606	-0.083269	-0.121402	0.209333	-0.376953	-0.186035	0.654053	-136.050827	-86.405857	-76.610593
21060		9.580644	-1.124101	-0.336647	-0.050664	-0.116712	0.168410	-0.376709	-0.200195	0.656982	-135.724876	-86.289804	-76.961664
21061		9.601013	-1.115278	-0.374077	-0.000881	-0.096665	0.142254	-0.378418	-0.187744	0.656006	-135.434244	-86.192097	-77.248757
21062		9.600608	-1.016356	-0.394094	0.054342	-0.073048	0.111566	-0.378662	-0.192383	0.664307	-135.166138	-86.116512	-77.481632
21063		9.542602	-0.804504	-0.428960	0.074398	-0.045612	0.106743	-0.373779	-0.195313	0.661133	-134.766128	-86.053645	-77.835055
21064		9.475503	-0.532041	-0.350064	0.045990	-0.009607	0.115014	-0.373779	-0.184570	0.662109	-134.132808	-86.001881	-78.438855
21065		9.444369	-0.397524	-0.336245	0.005617	0.007769	0.141133	-0.375977	-0.196533	0.656006	-133.295139	-85.945369	-79.270640
21066		9.379190	-0.502668	-0.290182	-0.030914	0.037441	0.169413	-0.372314	-0.185791	0.655762	-132.170690	-85.887771	-80.411076
21067		9.354955	-0.701161	-0.043037	-0.072321	0.069617	0.187824	-0.373047	-0.182129	0.656982	-130.819337	-85.832536	-81.802987
21068		9.363054	-0.779743	-0.147606	-0.087858	0.081072	0.197273	-0.371582	-0.181152	0.662598	-129.394521	-85.775172	-83.277473
21069		9.393768	-0.835592	-0.279089	-0.070038	0.071079	0.204004	-0.386475	-0.183594	0.659912	-128.031561	-85.708315	-84.679465
21070		9.273329	-1.197652	-0.449855	-0.044775	0.077235	0.201873	-0.377930	-0.184082	0.657227	-126.666031	-85.642397	-86.069987
21071		9.305592	-1.482620	-0.535693	-0.033863	0.078409	0.163927	-0.380615	-0.180420	0.651367	-125.494256	-85.591924	-87.259881
21072		9.392653	-1.513751	-0.623772	0.016947	0.079692	0.116280	-0.383057	-0.186768	0.653809	-124.509068	-85.562749	-88.233638
21073		9.454012	-1.494456	-0.738509	0.071507	0.072889	0.059375	-0.382324	-0.188965	0.663086	-123.781466	-85.557032	-88.917704
21074		9.568231	-1.331957	-0.843749	0.122399	0.070023	0.010574	-0.380615	-0.175781	0.655762	-123.239342	-85.573354	-89.386482
21075		9.644828	-1.221494	-0.873320	0.182118	0.073305	-0.016623	-0.387451	-0.173584	0.656982	-122.751201	-85.603161	-89.766724
21076		9.550989	-1.245410	-0.922164	0.222139	0.083543	-0.047672	-0.385010	-0.180176	0.656250	-122.290874	-85.651159	-90.096114
21077		9.339616	-1.185177	-0.977901	0.267116	0.083923	-0.055126	-0.381104	-0.173584	0.657471	-121.825400	-85.702390	-90.404708
21078		9.114036	-1.159443	-1.096629	0.312605	0.093828	-0.055848	-0.377197	-0.176025	0.660400	-121.259955	-85.757027	-90.787487
21079		8.908648	-1.139158	-1.112958	0.360980	0.102772	-0.065195	-0.388672	-0.172852	0.655762	-120.635377	-85.818248	-91.201699
21080		8.802674	-1.164607	-1.126435	0.405404	0.103860	-0.070133	-0.388184	-0.166504	0.656006	-119.978019	-85.882224	-91.623262
21081		8.690434	-1.279916	-1.088537	0.435597	0.103439	-0.084388	-0.387451	-0.166260	0.655762	-119.348361	-85.952493	-91.999700
21082		8.920690	-1.348167	-0.962038	0.466641	0.089312	-0.105442	-0.388672	-0.161621	0.654053	-118.866422	-86.029437	-92.210168
21083		9.233847	-1.299793	-1.040812	0.506113	0.093907	-0.104244	-0.385498	-0.164795	0.652832	-118.312091	-86.106526	-92.470559
21084		9.304782	-1.354087	-1.017640	0.525410	0.063276	-0.125560	-0.379639	-0.161133	0.659668	-118.045527	-86.186338	-92.431376
21085		9.399520	-1.258249	-1.115729	0.555741	0.036904	-0.135568	-0.386963	-0.150391	0.659912	-118.006736	-86.263716	-92.146717
21086		9.369233	-1.170144	-1.175478	0.581128	0.016443	-0.137061	-0.386475	-0.150635	0.664795	-118.121524	-86.336724	-91.693403
21087		9.373060	-1.134159	-1.185269	0.580418	0.011969	-0.147492	-0.387207	-0.145020	0.658203	-118.333764	-86.413218	-91.142882
21088		9.329165	-1.052101	-1.028655	0.569800	0.013927	-0.160935	-0.385498	-0.140869	0.655518	-118.608978	-86.497355	-90.535414
21089		9.340769	-0.901234	-0.924904	0.552096	0.020185	-0.176761	-0.389648	-0.147461	0.661621	-118.941204	-86.590464	-89.881104
21090		9.440130	-0.680700	-0.805190	0.507549	0.022474	-0.194539	-0.391846	-0.139160	0.664063	-119.390232	-86.693339	-89.135372
21091		9.561531	-0.431880	-0.904303	0.476669	0.005443	-0.204681	-0.379639	-0.131104	0.665527	-120.102322	-86.795487	-88.144171
21092		9.548514	-0.331047	-1.059806	0.470526	-0.000346	-0.230788	-0.387939	-0.138184	0.670166	-121.065210	-86.908482	-86.905202
21093		9.480524	-0.336028	-1.067102	0.487635	0.018961	-0.252050	-0.382080	-0.131104	0.662598	-122.051956	-87.035905	-85.632744
21094		9.438373	-0.221415	-1.046825	0.473318	0.031553	-0.251536	-0.377930	-0.128418	0.668945	-123.016920	-87.166370	-84.390379
21095		9.607366	-0.141801	-1.216820	0.422394	0.049176	-0.228293	-0.383789	-0.130859	0.667480	-123.789951	-87.289716	-83.369626
21096		9.724958	-0.111659	-1.087432	0.323536	0.052401	-0.191480	-0.381592	-0.138184	0.667236	-124.401168	-87.396618	-82.567554
21097		9.799570	-0.248634	-1.364586	0.222837	0.037127	-0.172140	-0.382568	-0.125000	0.661377	-125.156947	-87.488432	-81.678940
21098		9.779280	-0.517463	-1.564791	0.198050	0.033875	-0.174030	-0.382813	-0.122559	0.674072	-126.032182	-87.580017	-80.684690
21099		9.787733	-0.756797	-1.471719	0.211284	0.037234	-0.179822	-0.380615	-0.121826	0.664551	-126.991922	-87.674086	-79.598422
21100		9.830757	-0.855009	-1.538124	0.208373	0.035904	-0.193609	-0.372803	-0.124512	0.671631	-128.172362	-87.773734	-78.292943
21101		9.921811	-0.924336	-1.773471	0.220359	0.023349	-0.184462	-0.384766	-0.129150	0.676270	-129.530570	-87.862906	-76.802906
21102		10.045914	-0.959400	-1.771567	0.229910	0.013245	-0.167814	-0.384521	-0.133057	0.670166	-130.943669	-87.940379	-75.252419
21103		10.192961	-0.805537	-1.675886	0.195637	-0.001775	-0.138101	-0.377930	-0.124512	0.670898	-132.352753	-87.997280	-73.726024
21104		10.436790	-0.575148	-1.676507	0.112785	-0.021018	-0.098659	-0.378662	-0.118652	0.675293	-133.660920	-88.029548	-72.347787
21105		10.689728	-0.536008	-1.891462	-0.015060	-0.022479	-0.064603	-0.382080	-0.121338	0.675293	-134.708559	-88.045416	-71.303689
21106		10.811219	-0.466919	-1.917400	-0.168332	0.038895	-0.052375	-0.381592	-0.115723	0.665771	-134.970256	-88.081538	-71.133721
21107		10.902563	-0.306127	-1.504974	-0.218336	0.066964	-0.045810	-0.384033	-0.123291	0.674072	-134.850303	-88.125486	-71.374370
21108		11.002128	-0.228081	-0.689605	-0.197404	0.045631	-0.036652	-0.380615	-0.128906	0.676514	-134.855922	-88.157943	-71.477290
21109		11.177491	-0.102287	-0.317470	-0.194012	-0.015117	-0.019510	-0.381592	-0.123779	0.668457	-135.421729	-88.157940	-71.017974
21110		11.443918	0.100196	-0.441667	-0.187102	-0.071935	0.009025	-0.374756	-0.127197	0.669922	-136.305624	-88.123882	-70.236249
21111		11.627386	0.415236	-0.402134	-0.230927	-0.081151	0.055713	-0.387451	-0.122070	0.671143	-136.720034	-88.066420	-69.949522
21112		11.766398	0.750121	-0.228515	-0.334325	-0.029481	0.127159	-0.378662	-0.128174	0.674805	-135.725128	-88.002935	-71.132058
21113		11.691150	0.783697	-0.185372	-0.416714	0.019501	0.186650	-0.377441	-0.124756	0.669189	-133.636841	-87.933040	-73.456027
21114		11.252330	0.282982	-0.055264	-0.328638	-0.000827	0.206727	-0.384521	-0.130615	0.677490	-131.664201	-87.844731	-75.613807
21115		10.491719	-0.564517	0.240751	-0.227711	-0.049996	0.182600	-0.381104	-0.121338	0.682129	-130.586382	-87.745457	-76.818460
21116		9.681800	-1.077940	-0.137258	-0.179879	-0.099332	0.147612	-0.378662	-0.127441	0.676025	-130.406808	-87.643343	-77.096702
21117		9.062831	-1.262047	-0.704765	-0.149084	-0.066268	0.110636	-0.383545	-0.132324	0.675293	-130.220511	-87.568836	-77.364142
21118		8.510124	-1.341692	-0.510697	-0.142045	-0.014410	0.092345	-0.385254	-0.124512	0.682861	-129.663204	-87.522135	-77.998798
21119		8.156993	-1.312981	-0.326607	-0.129766	-0.031180	0.083066	-0.383301	-0.120850	0.684570	-129.375791	-87.472444	-78.356475
21120		8.028203	-1.165540	-0.295272	-0.123273	-0.057396	0.070425	-0.375488	-0.130615	0.676758	-129.447541	-87.419560	-78.350730
21121		8.136940	-0.972390	-0.146567	-0.033583	-0.068408	0.053222	-0.380859	-0.124023	0.678467	-129.718194	-87.369445	-78.094638
21122		8.497499	-0.773552	-0.004242	0.049789	-0.068985	0.029759	-0.382080	-0.125732	0.685791	-130.113541	-87.330171	-77.665685
21123		8.932058	-0.283525	0.143849	0.081189	-0.069513	-0.006195	-0.375000	-0.119629	0.678467	-130.776187	-87.305376	-76.951329
21124		9.395500	0.234799	0.395872	0.087992	-0.065435	-0.021783	-0.375732	-0.121582	0.683350	-131.502585	-87.289266	-76.169025
21125		9.735630	0.557218	0.524448	0.083486	-0.067288	-0.027352	-0.375977	-0.118652	0.686035	-132.291158	-87.273533	-75.327254
21126		9.945742	0.717722	0.489057	0.090155	-0.068431	-0.020115	-0.374268	-0.116455	0.678711	-133.010509	-87.254589	-74.550743
21127		9.871868	0.550120	0.754060	0.131377	-0.068148	-0.004309	-0.374023	-0.122559	0.690674	-133.570755	-87.227994	-73.910048
21128		9.638764	0.342854	0.823874	0.125502	-0.052674	0.006738	-0.373779	-0.116699	0.685059	-133.896035	-87.203477	-73.507765
21129		9.361731	0.230593	0.912484	0.142434	-0.037795	0.011904	-0.370605	-0.123535	0.683350	-134.045329	-87.181962	-73.272133
21130		9.166386	0.181928	1.072525	0.162615	-0.023145	0.004652	-0.378662	-0.112305	0.681641	-134.111137	-87.169956	-73.108335
21131		9.097813	0.159370	1.062231	0.125614	0.003060	0.003318	-0.380127	-0.116943	0.686279	-133.995908	-87.168289	-73.147180
21132		9.158020	0.409121	1.005075	0.055221	0.008579	0.010046	-0.371826	-0.120117	0.679199	-133.815489	-87.166687	-73.291516
21133		9.230485	0.586972	0.842545	-0.021962	-0.006480	0.022836	-0.373047	-0.108887	0.688965	-133.708305	-87.153208	-73.406953
21134		9.249458	0.547934	0.662815	-0.070668	-0.033795	0.034355	-0.375488	-0.113770	0.680420	-133.759903	-87.124736	-73.391205
21135		9.407509	0.365003	0.524791	-0.121747	-0.045242	0.035286	-0.366455	-0.114014	0.684570	-133.930693	-87.090793	-73.285547
21136		9.482136	0.171269	0.519813	-0.169342	-0.047757	0.022069	-0.368164	-0.101074	0.689941	-134.243462	-87.061807	-73.064897
21137		9.807635	0.052435	0.392021	-0.232288	-0.039902	0.007212	-0.372314	-0.109375	0.685791	-134.644829	-87.041480	-72.791760
21138		10.045624	-0.022953	0.227186	-0.321885	-0.030960	-0.012239	-0.368896	-0.107178	0.684326	-135.170480	-87.033052	-72.445452
21139		10.249198	0.101439	0.268221	-0.352318	-0.028606	-0.036632	-0.374512	-0.114258	0.686523	-135.889855	-87.034711	-71.922733
21140		10.315101	0.330203	0.363179	-0.323614	-0.038175	-0.063133	-0.375244	-0.112061	0.688721	-136.875614	-87.042949	-71.116696
21141		10.484062	0.467242	0.446883	-0.291794	-0.036593	-0.089568	-0.364990	-0.123535	0.680420	-138.058366	-87.060863	-70.095259
21142		10.333956	0.568913	0.418632	-0.269845	-0.045736	-0.114058	-0.362305	-0.109375	0.692627	-139.513485	-87.083314	-68.788425
21143		10.209736	0.672483	0.326435	-0.272763	-0.050001	-0.138196	-0.363770	-0.114258	0.682129	-141.237714	-87.110442	-67.213925
21144		10.039526	0.703988	0.310261	-0.293629	-0.038147	-0.143330	-0.363037	-0.119873	0.693604	-142.965385	-87.142730	-65.647902
21145		9.933655	0.603827	0.284635	-0.282586	-0.028190	-0.135030	-0.360840	-0.122559	0.689697	-144.580971	-87.174141	-64.187883
21146		9.848406	0.326883	0.303643	-0.271686	-0.035491	-0.127303	-0.368408	-0.129639	0.694336	-146.192824	-87.197912	-62.725312
21147		9.740498	0.062716	0.143888	-0.289860	-0.025584	-0.131786	-0.361084	-0.128662	0.687500	-147.826029	-87.225468	-61.251881
21148		9.699436	-0.021492	0.180674	-0.288701	-0.008505	-0.135635	-0.359863	-0.131348	0.679443	-149.420887	-87.260834	-59.816154
21149		9.653028	-0.009788	0.142732	-0.284373	0.003636	-0.143749	-0.368164	-0.125244	0.684326	-151.069496	-87.302264	-58.324235
21150		9.588617	0.127684	0.044356	-0.289123	0.007455	-0.152218	-0.368164	-0.132813	0.687744	-152.836991	-87.346099	-56.716022
21151		9.492154	0.191330	-0.011904	-0.313219	0.000299	-0.159819	-0.370361	-0.135010	0.681396	-154.800980	-87.385409	-54.925030
21152		9.355195	0.357315	-0.101226	-0.323210	-0.008580	-0.156689	-0.359131	-0.136475	0.685547	-156.831330	-87.416755	-53.073341
21153		9.338941	0.416720	-0.161622	-0.294491	0.000541	-0.156372	-0.355713	-0.133789	0.695801	-158.846916	-87.449601	-51.220047
21154		9.332905	0.522936	-0.346535	-0.281081	-0.005044	-0.155120	-0.362061	-0.140137	0.686035	-160.908948	-87.476514	-49.312574
21155		9.379860	0.663632	-0.265466	-0.281811	-0.001649	-0.147655	-0.357666	-0.136719	0.687500	-162.907671	-87.500658	-47.468958
21156		9.421464	0.664516	-0.284632	-0.291670	-0.012669	-0.123333	-0.355713	-0.137207	0.686523	-164.673065	-87.512465	-45.864540
21157		9.512434	0.489346	-0.328698	-0.286806	-0.010395	-0.104223	-0.354736	-0.135986	0.685059	-166.200451	-87.520496	-44.495600
21158		9.526997	0.330367	-0.310496	-0.293101	0.000992	-0.094026	-0.361084	-0.140625	0.684082	-167.572237	-87.532329	-43.286001
21159		9.476082	0.231708	-0.465174	-0.287430	0.018629	-0.082682	-0.351074	-0.134033	0.687744	-168.761042	-87.551280	-42.256332
21160		9.412166	0.258811	-0.430677	-0.265193	0.045143	-0.076458	-0.364502	-0.149414	0.677002	-169.804326	-87.583904	-41.359564
21161		9.293687	0.291966	-0.453331	-0.230534	0.065837	-0.069836	-0.364746	-0.143555	0.677002	-170.721154	-87.626643	-40.569527
21162		9.221667	0.324867	-0.436698	-0.211431	0.079887	-0.060104	-0.363037	-0.150635	0.674072	-171.489711	-87.676259	-39.916943
21163		9.124632	0.443107	-0.405846	-0.215750	0.081485	-0.041783	-0.351563	-0.146729	0.682129	-172.030529	-87.724692	-39.494792
21164		9.100287	0.470120	-0.462136	-0.234349	0.082938	-0.010404	-0.360596	-0.148682	0.670410	-172.138324	-87.771652	-39.516665
21165		9.105666	0.481201	-0.507050	-0.257760	0.078862	0.011303	-0.364258	-0.147217	0.668701	-171.951427	-87.814304	-39.846878
21166		9.170683	0.492746	-0.545855	-0.274929	0.079941	0.041028	-0.361572	-0.148926	0.675049	-171.307212	-87.855269	-40.644566
21167		9.169251	0.568788	-0.645246	-0.288638	0.073386	0.058616	-0.364990	-0.140869	0.671875	-170.395254	-87.890239	-41.718023
21168		9.146245	0.619419	-0.718254	-0.300130	0.063623	0.075066	-0.355957	-0.143555	0.671875	-169.224788	-87.917575	-43.056726
21169		9.135506	0.702883	-0.728243	-0.314142	0.047943	0.093883	-0.361084	-0.151855	0.676270	-167.796175	-87.932573	-44.661760
21170		9.154961	0.709065	-0.807921	-0.335642	0.019688	0.111843	-0.367676	-0.158936	0.673096	-166.181989	-87.928193	-46.464811
21171		9.289713	0.615452	-0.999848	-0.356269	-0.010082	0.126417	-0.359863	-0.153564	0.659668	-164.500995	-87.903065	-48.346549
21172		9.274474	0.470808	-1.186393	-0.363469	-0.030114	0.139186	-0.366943	-0.156738	0.662354	-162.763884	-87.863082	-50.288618
21173		9.269110	0.348912	-1.481428	-0.351011	-0.035511	0.152904	-0.364258	-0.155273	0.665039	-160.929378	-87.815236	-52.321054
21174		9.341459	0.252741	-1.572965	-0.340573	-0.019266	0.162555	-0.361816	-0.149902	0.668213	-158.946832	-87.771956	-54.495727
21175		9.223362	0.330386	-1.521220	-0.312639	-0.014439	0.163880	-0.360352	-0.154785	0.666260	-156.994913	-87.727841	-56.623791
21176		9.103919	0.466549	-1.276090	-0.249770	-0.011320	0.148396	-0.366699	-0.161865	0.669189	-155.258085	-87.686541	-58.500609
21177		9.245914	0.550988	-0.925937	-0.174517	-0.006501	0.127726	-0.360596	-0.155518	0.665771	-153.782412	-87.650475	-60.072952
21178		9.187662	0.397440	-0.909328	-0.125340	-0.039723	0.113718	-0.361328	-0.163574	0.658447	-152.696118	-87.599864	-61.227432
21179		9.097525	0.250845	-1.076407	-0.137231	-0.044288	0.127149	-0.361816	-0.150635	0.658936	-151.545403	-87.542165	-62.453253
21180		9.068270	0.368777	-1.211119	-0.157578	-0.045154	0.144323	-0.361572	-0.156738	0.660889	-150.261612	-87.478398	-63.824003
21181		9.211178	0.499956	-1.460573	-0.139994	-0.055184	0.171800	-0.357666	-0.151367	0.658447	-148.813260	-87.400047	-65.349467
21182		9.411837	0.513656	-1.473226	-0.135735	-0.072093	0.182600	-0.360352	-0.151855	0.663574	-147.439431	-87.308779	-66.797990
21183		9.705189	0.520568	-1.410458	-0.154980	-0.055912	0.204540	-0.369873	-0.157227	0.655273	-145.860438	-87.216414	-68.463060
21184		9.744395	0.680050	-1.323340	-0.201259	-0.030700	0.215467	-0.365234	-0.153320	0.656006	-144.131953	-87.130252	-70.304477
21185		9.515280	0.733340	-1.431496	-0.239272	-0.019609	0.233167	-0.362305	-0.144531	0.663086	-142.312149	-87.040128	-72.259284
21186		9.278912	0.516604	-1.344435	-0.257214	-0.019413	0.248120	-0.365967	-0.145020	0.655762	-140.478789	-86.941810	-74.238125
21187		9.229193	0.295909	-1.331441	-0.281015	-0.030668	0.235398	-0.367920	-0.152344	0.654297	-138.968106	-86.840128	-75.907656
21188		9.205284	0.280485	-1.494758	-0.289377	-0.055592	0.210186	-0.368896	-0.157715	0.650146	-137.906143	-86.735499	-77.132724
21189		9.107627	0.430284	-1.728972	-0.264312	-0.070397	0.184226	-0.363525	-0.153076	0.655029	-137.196949	-86.633450	-77.990179
21190		8.975472	0.585684	-1.922021	-0.253543	-0.103667	0.171384	-0.363281	-0.144775	0.649170	-136.819710	-86.522159	-78.508993
21191		8.984157	0.682008	-2.027433	-0.241110	-0.126897	0.172896	-0.365723	-0.149414	0.648682	-136.611753	-86.400274	-78.851140
21192		9.170611	0.626826	-1.700817	-0.276390	-0.105489	0.182075	-0.362061	-0.151611	0.648682	-136.240626	-86.283695	-79.377077
21193		9.485749	0.222065	-1.701800	-0.304256	-0.152406	0.182520	-0.345215	-0.143555	0.640869	-136.200640	-86.147258	-79.587244
21194		10.071751	-0.336824	-1.974278	-0.269092	-0.215400	0.162699	-0.357666	-0.150391	0.642822	-136.611475	-85.992714	-79.325352
21195		10.724588	-0.694258	-2.016242	-0.142044	-0.254477	0.124044	-0.356934	-0.159668	0.639160	-137.370498	-85.836541	-78.641384
21196		11.136309	-0.919154	-2.053124	0.052888	-0.301005	0.073208	-0.354492	-0.146240	0.649658	-138.478544	-85.679521	-77.495277
21197		11.521675	-0.946719	-1.873625	0.231774	-0.288432	0.024149	-0.349609	-0.144531	0.642822	-139.632306	-85.544454	-76.200348
21198		11.628061	-0.907239	-1.662380	0.401638	-0.200303	-0.013307	-0.354492	-0.139404	0.645020	-140.413167	-85.460502	-75.181609
21199		11.688443	-1.051372	-1.477942	0.483834	-0.063105	-0.055352	-0.353027	-0.133789	0.639893	-140.743674	-85.451471	-74.567391
21200		11.862805	-1.307912	-0.950817	0.619793	-0.030110	-0.085534	-0.348877	-0.138428	0.646240	-141.003498	-85.468106	-73.945881
21201		11.889075	-1.320314	-0.027254	0.604711	-0.068089	-0.119550	-0.355225	-0.130371	0.641846	-141.650716	-85.479158	-72.944510
21202		11.783159	-1.000285	0.345074	0.476136	-0.140326	-0.148113	-0.344482	-0.125244	0.639893	-142.845906	-85.466628	-71.467286
21203		11.513258	-0.424392	0.147189	0.357711	-0.135587	-0.161597	-0.343262	-0.130859	0.643066	-144.170009	-85.457907	-69.928849
21204		10.994469	0.046212	0.027347	0.316079	-0.119116	-0.163100	-0.350586	-0.127686	0.631836	-145.443234	-85.455066	-68.465305
21205		10.358659	0.573930	-0.022518	0.280961	-0.142754	-0.153459	-0.344727	-0.129639	0.634521	-146.778888	-85.434846	-66.959347
21206		9.752638	1.048095	0.174966	0.191162	-0.141589	-0.132948	-0.351074	-0.127686	0.636719	-148.014074	-85.406612	-65.605692
21207		9.275421	1.378511	-0.163253	0.070987	-0.137221	-0.105557	-0.343018	-0.119873	0.632813	-149.128753	-85.369717	-64.441988
21208		8.926312	1.582751	-0.348626	0.016635	-0.133161	-0.073091	-0.343994	-0.124268	0.634033	-150.034824	-85.324184	-63.518723
21209		8.774354	1.415054	-0.059668	-0.023807	-0.088443	-0.042844	-0.346680	-0.127686	0.626953	-150.621165	-85.290983	-62.939477
21210		8.722948	0.977759	0.249634	-0.116298	-0.044766	-0.006186	-0.345459	-0.130371	0.627686	-150.874068	-85.269392	-62.747938
21211		8.835028	0.585485	0.517760	-0.257491	-0.001703	0.029907	-0.347900	-0.135742	0.631348	-150.854049	-85.258920	-62.911426
21212		9.096581	0.075972	0.649425	-0.364204	0.027788	0.052730	-0.348633	-0.134766	0.625000	-150.648165	-85.257104	-63.322773
21213		9.435188	-0.616359	0.811636	-0.426904	0.051479	0.060314	-0.343262	-0.135254	0.630127	-150.362219	-85.264552	-63.850487
21214		9.798372	-1.273318	0.890363	-0.442018	0.060284	0.049644	-0.337891	-0.138916	0.616211	-150.106717	-85.279471	-64.356348
21215		10.103868	-1.674315	0.931358	-0.404488	0.064301	0.011872	-0.342773	-0.137695	0.622559	-150.050715	-85.306853	-64.640422
21216		10.258042	-1.809101	0.865150	-0.355609	0.060945	-0.043726	-0.351318	-0.144043	0.611816	-150.305077	-85.348663	-64.585005
21217		10.143240	-1.792238	0.803825	-0.280403	0.055167	-0.082748	-0.349365	-0.143799	0.617920	-150.790046	-85.398368	-64.254979
21218		9.854986	-1.727680	0.662625	-0.199069	0.048817	-0.092995	-0.353027	-0.152832	0.614990	-151.314417	-85.447688	-63.838719
21219		9.598141	-1.616048	0.502426	-0.149426	0.048928	-0.076000	-0.346680	-0.145752	0.608643	-151.719638	-85.491975	-63.513456
21220		9.403885	-1.561621	0.435757	-0.130181	0.055097	-0.023016	-0.344238	-0.147949	0.611816	-151.748656	-85.525077	-63.554532
21221		9.308771	-1.362376	0.368687	-0.093095	0.031038	0.018797	-0.347900	-0.155518	0.612305	-151.577344	-85.534512	-63.775216
21222		9.335985	-1.116213	0.130143	0.007691	0.001505	0.050905	-0.347168	-0.144531	0.615723	-151.237225	-85.520364	-64.107319
21223		9.579797	-0.897971	-0.066671	0.111712	-0.032898	0.075852	-0.352539	-0.155762	0.607666	-150.810135	-85.481736	-64.466873
21224		9.977152	-0.610242	-0.179155	0.101366	-0.037792	0.108779	-0.342285	-0.148438	0.604980	-150.200673	-85.431258	-65.015361
21225		10.197958	-0.604972	-0.205308	0.106723	-0.019631	0.158284	-0.347168	-0.150635	0.595215	-149.239884	-85.374756	-65.913253
21226		10.395957	-0.822987	-0.207788	0.097559	-0.022111	0.210431	-0.352295	-0.151123	0.607666	-148.000208	-85.300216	-67.096327
21227		10.264041	-1.060093	-0.227449	0.091157	-0.033179	0.248579	-0.352051	-0.146729	0.599121	-146.631817	-85.206279	-68.412365
21228		9.977999	-1.098596	-0.322501	0.057219	-0.042663	0.262743	-0.347412	-0.144531	0.597412	-145.287045	-85.100817	-69.724423
21229		9.713377	-1.017510	-0.284298	0.056951	-0.018645	0.265250	-0.348389	-0.152100	0.605225	-143.898819	-85.003063	-71.080437
21230		9.531586	-0.945751	-0.139241	0.076783	-0.003334	0.243618	-0.347412	-0.142578	0.602783	-142.597911	-84.917090	-72.337592
21231		9.480519	-0.900686	-0.001475	0.100139	0.006917	0.222894	-0.345703	-0.150879	0.605225	-141.394057	-84.840625	-73.484015
21232		9.432039	-0.800596	-0.154357	0.121232	0.008564	0.202083	-0.350098	-0.137207	0.605225	-140.301476	-84.770415	-74.506715
21233		9.355357	-0.753131	-0.063157	0.123056	0.018579	0.182151	-0.348877	-0.136719	0.596680	-139.293965	-84.710263	-75.443032
21234		9.182720	-0.761398	0.097601	0.103292	0.031208	0.176149	-0.356934	-0.148438	0.596924	-138.291187	-84.656328	-76.386065
21235		9.077024	-0.754907	-0.104966	0.078990	0.018833	0.172753	-0.350830	-0.138916	0.588379	-137.392264	-84.597015	-77.238844
21236		9.116761	-0.928604	-0.305845	0.089052	0.019870	0.172601	-0.353027	-0.141846	0.590088	-136.498867	-84.536934	-78.080377
21237		9.140990	-1.121784	-0.309049	0.108019	0.027381	0.166165	-0.350586	-0.129150	0.588623	-135.613940	-84.481312	-78.902553
21238		9.112937	-1.356523	-0.167932	0.116289	0.030043	0.147688	-0.353271	-0.137695	0.591309	-134.802856	-84.433036	-79.645863
21239		9.168964	-1.451382	-0.167345	0.135045	0.018835	0.122864	-0.353516	-0.141846	0.591309	-134.145912	-84.389529	-80.223547
21240		9.324522	-1.423299	-0.377399	0.189990	0.020538	0.107749	-0.346924	-0.129150	0.594727	-133.516636	-84.352278	-80.741846
21241		9.374183	-1.509649	-0.283807	0.234926	0.037301	0.097937	-0.350098	-0.138672	0.588379	-132.840394	-84.325151	-81.281491
21242		9.415459	-1.485845	-0.164832	0.247748	0.029459	0.086543	-0.359619	-0.132568	0.583496	-132.236623	-84.299171	-81.740955
21243		9.428830	-1.360931	-0.160913	0.239704	0.030572	0.074863	-0.354980	-0.126221	0.580811	-131.684990	-84.278158	-82.152668
21244		9.377171	-1.292347	-0.243707	0.246800	0.019118	0.062545	-0.350098	-0.132813	0.589111	-131.225210	-84.257705	-82.467998
21245		9.362612	-1.298419	-0.318296	0.269658	0.019991	0.045539	-0.358398	-0.130127	0.583008	-130.817274	-84.244711	-82.718068
21246		9.259980	-1.235326	-0.385075	0.320143	0.017964	0.033138	-0.350342	-0.126953	0.586182	-130.433690	-84.236161	-82.914596
21247		9.126650	-1.135970	-0.424256	0.374379	0.020222	0.020474	-0.353760	-0.125000	0.585205	-130.058908	-84.233867	-83.071047
21248		8.955485	-0.909763	-0.563081	0.414589	0.029667	0.014558	-0.355957	-0.130127	0.583252	-129.639114	-84.237520	-83.249582
21249		8.926603	-0.715082	-0.742185	0.430364	0.029303	0.007790	-0.352295	-0.133057	0.581299	-129.238258	-84.243912	-83.400001
21250		8.956447	-0.604566	-0.811352	0.429731	0.034260	0.014125	-0.364014	-0.121582	0.583740	-128.790202	-84.249153	-83.598217
21251		9.086162	-0.591682	-0.790634	0.410092	0.047339	0.015838	-0.353027	-0.120117	0.573486	-128.290828	-84.258135	-83.859322
21252		9.141483	-0.759822	-0.787993	0.387090	0.053324	0.015554	-0.355713	-0.108398	0.576904	-127.775080	-84.269119	-84.150121
21253		9.134957	-0.955969	-0.771734	0.379680	0.063759	0.010588	-0.355957	-0.117920	0.578125	-127.234325	-84.285735	-84.470316
21254		9.094222	-1.045495	-0.781404	0.383604	0.070423	-0.005459	-0.360107	-0.117676	0.579346	-126.710925	-84.311691	-84.770794
21255		9.062969	-1.013207	-0.856926	0.394651	0.064500	-0.019019	-0.367676	-0.103271	0.569824	-126.253956	-84.341612	-84.998147
21256		9.068374	-0.903211	-0.860475	0.390782	0.066861	-0.033341	-0.364014	-0.118164	0.572266	-125.830831	-84.378796	-85.193697
21257		9.022563	-0.950823	-0.908114	0.370208	0.061887	-0.051629	-0.362305	-0.108398	0.579834	-125.504101	-84.422685	-85.304235
21258		9.119104	-0.978357	-0.973520	0.341639	0.059343	-0.064677	-0.364502	-0.106201	0.572998	-125.244657	-84.471789	-85.363593
21259		9.128547	-1.033851	-0.962924	0.336530	0.054763	-0.088855	-0.355225	-0.099854	0.575684	-125.093584	-84.530648	-85.317033
21260		9.134978	-1.018973	-1.008042	0.341756	0.056234	-0.118497	-0.366699	-0.104736	0.572510	-125.031547	-84.603937	-85.178014
21261		9.044901	-0.873929	-1.053167	0.358660	0.047331	-0.157194	-0.358643	-0.106445	0.575195	-125.145713	-84.692374	-84.852335
21262		9.084323	-0.702935	-0.973567	0.362378	0.041959	-0.174162	-0.361572	-0.109619	0.569824	-125.351479	-84.786946	-84.432554
21263		9.038024	-0.586492	-0.967912	0.340800	0.021974	-0.173815	-0.355957	-0.106689	0.569092	-125.686729	-84.874448	-83.895262
21264		9.051670	-0.757566	-1.035476	0.309637	-0.003174	-0.168904	-0.355225	-0.110596	0.564697	-126.164906	-84.950947	-83.232446
21265		9.241984	-0.904449	-0.940258	0.266877	-0.010338	-0.158037	-0.355469	-0.105469	0.560059	-126.683508	-85.019394	-82.553747
21266		9.645774	-1.112065	-0.890492	0.234232	-0.019804	-0.160322	-0.367676	-0.108643	0.568115	-127.293621	-85.085129	-81.802008
21267		9.957869	-1.234639	-0.914521	0.232373	-0.018432	-0.173448	-0.362305	-0.093750	0.562744	-127.973865	-85.156450	-80.981065
21268		10.233873	-1.332142	-0.969936	0.248816	0.006887	-0.191767	-0.356934	-0.109619	0.567627	-128.606441	-85.244313	-80.198565
21269		10.215824	-1.306589	-0.954876	0.299821	0.016301	-0.211557	-0.365234	-0.102295	0.558594	-129.276454	-85.343486	-79.349326
21270		10.113469	-1.197467	-0.879986	0.332048	0.021480	-0.234145	-0.361328	-0.114502	0.565186	-130.033415	-85.453797	-78.394419
21271		10.022011	-1.043932	-0.931632	0.302633	0.019138	-0.234664	-0.359131	-0.106934	0.563965	-130.868806	-85.562203	-77.377940
21272		9.839887	-0.824555	-0.984384	0.278899	0.012771	-0.231229	-0.362793	-0.100098	0.562988	-131.779082	-85.665687	-76.300090
21273		9.736929	-0.785005	-1.153193	0.250725	0.015985	-0.218087	-0.359375	-0.103271	0.566162	-132.670189	-85.763309	-75.257847
21274		9.645211	-0.777792	-1.334864	0.225598	0.037380	-0.196125	-0.357666	-0.095947	0.552002	-133.375079	-85.859218	-74.416833
21275		9.586186	-0.792168	-1.315652	0.212373	0.052840	-0.176567	-0.359863	-0.107666	0.562012	-133.927780	-85.952205	-73.736153
21276		9.602974	-0.830815	-1.357856	0.214484	0.054378	-0.168539	-0.359375	-0.112549	0.559326	-134.448597	-86.042298	-73.086241
21277		9.593310	-1.008098	-1.650906	0.228369	0.029941	-0.168320	-0.362549	-0.111328	0.564941	-135.137198	-86.121673	-72.260310
21278		9.534605	-1.246310	-1.945564	0.257722	0.000095	-0.172042	-0.365967	-0.105957	0.559082	-136.037859	-86.189821	-71.204991
21279		9.516145	-1.448916	-2.244822	0.280249	-0.028395	-0.182977	-0.362061	-0.115723	0.558105	-137.204613	-86.248779	-69.870219
21280		9.559830	-1.594516	-2.577375	0.329613	-0.056583	-0.190617	-0.367188	-0.113770	0.550293	-138.594081	-86.297060	-68.283922
21281		9.739912	-1.692499	-2.540066	0.422574	-0.069862	-0.195324	-0.359375	-0.110596	0.561035	-140.080988	-86.338289	-66.546788
21282		10.092463	-1.493084	-2.479780	0.508276	-0.089999	-0.197640	-0.364990	-0.111084	0.549072	-141.678967	-86.368827	-64.649128
21283		10.444199	-1.034127	-2.376053	0.554732	-0.101626	-0.181481	-0.357178	-0.092773	0.546387	-143.227165	-86.384583	-62.774842
21284		10.771548	-0.600067	-2.007773	0.534822	-0.107747	-0.144937	-0.359863	-0.106689	0.562256	-144.557271	-86.382722	-61.130411
21285		10.963726	-0.386797	-1.762614	0.394187	-0.097314	-0.103924	-0.363281	-0.104736	0.549561	-145.609113	-86.369557	-59.845652
21286		10.896195	-0.473430	-1.661416	0.186992	-0.047769	-0.074515	-0.363037	-0.111572	0.551514	-146.299832	-86.369850	-59.041561
21287		10.616339	-0.719774	-1.465952	0.029186	-0.022293	-0.083338	-0.354004	-0.110107	0.553711	-147.026412	-86.383849	-58.292271
21288		10.349824	-0.827698	-1.103777	-0.016269	-0.024558	-0.113310	-0.354736	-0.112549	0.549072	-148.023332	-86.405902	-57.298086
21289		10.194182	-0.937424	-0.866480	0.065270	-0.057598	-0.145239	-0.366699	-0.115723	0.546143	-149.395227	-86.419309	-55.881533
21290		10.130431	-0.791378	-0.866989	0.161026	-0.078087	-0.162060	-0.350830	-0.118164	0.551758	-150.945099	-86.425741	-54.231564
21291		10.217543	-0.389788	-0.617165	0.188452	-0.082717	-0.160633	-0.352539	-0.113037	0.546631	-152.494287	-86.425962	-52.566682
21292		10.524766	0.181685	-0.325030	0.074807	-0.027644	-0.106713	-0.353271	-0.122070	0.548096	-153.437377	-86.438694	-51.574187
21293		10.845231	0.635943	-0.275666	-0.061274	0.049845	-0.012657	-0.354004	-0.122314	0.541748	-153.370154	-86.465832	-51.672219
21294		10.940557	0.667895	0.029009	-0.175777	0.100205	0.083248	-0.360107	-0.120850	0.546631	-152.352074	-86.494218	-52.788498
21295		10.967179	0.485794	0.283045	-0.230283	0.109440	0.144187	-0.356689	-0.124512	0.537598	-150.808066	-86.508447	-54.463072
21296		10.689842	0.077249	0.294206	-0.149254	0.064966	0.165629	-0.354736	-0.132324	0.541260	-149.243030	-86.492333	-56.112079
21297		10.136455	-0.439574	-0.083819	-0.043200	0.023215	0.144002	-0.365723	-0.127686	0.533936	-148.013443	-86.459193	-57.364281
21298		9.597097	-0.868058	-0.314047	0.036834	0.012338	0.085636	-0.368408	-0.129395	0.539795	-147.261975	-86.437963	-58.091421
21299		9.237082	-1.106221	-0.238632	0.119539	0.032888	0.014817	-0.361084	-0.127441	0.544678	-146.916401	-86.447644	-58.364528
21300		9.038613	-1.061292	-0.147093	0.195466	0.044940	-0.032096	-0.363281	-0.120117	0.539551	-146.824489	-86.478323	-58.339779
21301		9.008962	-0.755535	0.112071	0.205392	0.070044	-0.056424	-0.357666	-0.138428	0.542725	-146.791984	-86.528077	-58.249939
21302		9.102123	-0.289272	0.393406	0.190869	0.068522	-0.035510	-0.361572	-0.133057	0.535400	-146.605888	-86.571127	-58.322186
21303		9.178620	-0.116398	0.495040	0.193159	0.044196	-0.002964	-0.359131	-0.134521	0.536133	-146.286508	-86.591662	-58.526759
21304		9.132527	-0.092105	0.441946	0.164041	0.036330	0.029860	-0.363770	-0.137451	0.539795	-145.757510	-86.598430	-58.957909
21305		9.107573	-0.092967	0.268618	0.144599	0.055873	0.052418	-0.364014	-0.141113	0.534180	-144.954106	-86.606228	-59.675220
21306		9.077770	0.067898	0.328555	0.137021	0.096160	0.053435	-0.363770	-0.138428	0.537109	-143.910940	-86.632311	-60.636932
21307		9.075132	0.448888	0.463308	0.118749	0.123743	0.046967	-0.371826	-0.140137	0.538574	-142.753140	-86.671690	-61.724037
21308		9.115222	0.858294	0.671626	0.067681	0.155711	0.051254	-0.367432	-0.137695	0.538574	-141.362566	-86.723081	-63.073455
21309		9.160062	1.177515	0.963865	0.027405	0.159635	0.050442	-0.368164	-0.131836	0.537109	-139.936971	-86.774139	-64.481088
21310		9.261444	1.202614	1.054079	0.022349	0.131044	0.058696	-0.370117	-0.146240	0.531982	-138.596798	-86.808191	-65.805913
21311		9.362883	1.032059	0.986257	0.019572	0.104137	0.045783	-0.368164	-0.141357	0.536865	-137.522085	-86.833793	-66.866498
21312		9.480110	0.764351	0.779275	-0.003658	0.073895	0.032617	-0.370361	-0.133301	0.531494	-136.755595	-86.851228	-67.631626
21313		9.602999	0.587743	0.698259	-0.032767	0.066844	0.026839	-0.369629	-0.141846	0.537842	-136.096823	-86.867209	-68.305620
21314		9.663412	0.375904	0.443321	-0.068230	0.052984	0.017321	-0.369385	-0.140137	0.529541	-135.620594	-86.881203	-68.817082
21315		9.853613	0.305608	0.363059	-0.108676	0.048151	0.006346	-0.378662	-0.140381	0.529297	-135.286092	-86.897205	-69.209853
21316		9.779870	0.125444	0.349108	-0.146431	0.054242	-0.010341	-0.370850	-0.145020	0.527100	-135.044443	-86.922546	-69.531247
21317		9.816103	0.325297	0.337536	-0.273125	0.018819	-0.023977	-0.375244	-0.148682	0.533936	-135.247931	-86.938808	-69.479587
21318		9.914642	0.473895	0.316410	-0.379029	0.008912	-0.010917	-0.372070	-0.141846	0.534180	-135.483806	-86.945960	-69.456228
21319		10.270815	0.616564	0.121961	-0.504450	-0.007834	-0.013041	-0.367432	-0.160889	0.528320	-135.938960	-86.946927	-69.285260
21320		10.603762	0.561723	-0.091318	-0.517219	-0.021423	-0.033617	-0.370361	-0.163086	0.523193	-136.657912	-86.950478	-68.857427
21321		10.665742	0.517600	-0.101227	-0.498702	-0.039098	-0.083305	-0.368164	-0.162842	0.538330	-137.896365	-86.965387	-67.898748
21322		10.479197	0.463298	-0.028243	-0.452050	-0.048411	-0.146569	-0.377197	-0.162842	0.531006	-139.702113	-86.998938	-66.345231
21323		10.107145	0.444216	-0.015490	-0.414605	-0.059058	-0.204038	-0.374512	-0.167236	0.525146	-142.100282	-87.045392	-64.177066
21324		9.879125	0.481247	0.147996	-0.379262	-0.059260	-0.231794	-0.373535	-0.186035	0.529053	-144.798399	-87.096299	-61.688380
21325		9.596758	0.481541	0.159401	-0.379026	-0.064061	-0.233754	-0.365967	-0.177002	0.531982	-147.637083	-87.139237	-59.058905
21326		9.362709	0.501048	0.078171	-0.368693	-0.066687	-0.225138	-0.365723	-0.186279	0.526855	-150.469325	-87.171868	-56.430051
21327		9.205348	0.407672	0.178944	-0.362882	-0.068692	-0.199755	-0.360352	-0.188721	0.530762	-153.106850	-87.190247	-53.992852
21328		9.097691	0.284590	-0.017823	-0.388393	-0.072060	-0.189890	-0.367432	-0.189941	0.529297	-155.692885	-87.199072	-51.621889
21329		9.114356	0.278959	-0.090245	-0.390191	-0.061350	-0.182147	-0.373047	-0.190186	0.525879	-158.165334	-87.206577	-49.365665
21330		9.118003	0.273297	-0.129987	-0.375318	-0.053510	-0.177721	-0.368408	-0.202637	0.524658	-160.552621	-87.212826	-47.186216
21331		9.150950	0.291825	-0.064333	-0.363954	-0.054164	-0.173918	-0.363525	-0.203857	0.522705	-162.905111	-87.213542	-45.035056
21332		9.215483	0.375974	-0.152762	-0.380352	-0.053132	-0.162170	-0.365234	-0.208008	0.530273	-165.122613	-87.208913	-43.028485
21333		9.256948	0.348877	-0.156421	-0.362568	-0.009141	-0.157305	-0.361084	-0.208496	0.526611	-167.154758	-87.224368	-41.197254
21334		9.250720	0.267167	-0.048079	-0.339888	-0.001698	-0.143765	-0.363281	-0.208984	0.525879	-169.012896	-87.239481	-39.527290
21335		9.202602	0.160132	-0.013372	-0.318576	0.003017	-0.138957	-0.361816	-0.216797	0.527344	-170.816663	-87.254081	-37.899506
21336		9.194613	0.078444	-0.205143	-0.300935	-0.008878	-0.142602	-0.368408	-0.213135	0.530273	-172.683019	-87.259839	-36.199006
21337		9.271980	0.068466	-0.379871	-0.258591	-0.005676	-0.146337	-0.370605	-0.212158	0.532471	-174.577582	-87.264873	-34.445933
21338		9.404472	0.208597	-0.470549	-0.212936	0.012684	-0.143121	-0.365479	-0.214844	0.532715	-176.392486	-87.277658	-32.746486
21339		9.510661	0.316855	-0.477286	-0.170508	0.035752	-0.138215	-0.360596	-0.220215	0.523682	-178.135169	-87.300869	-31.094976
21340		9.514396	0.373525	-0.432161	-0.125179	0.050584	-0.117985	-0.362793	-0.225098	0.525146	-179.624788	-87.330270	-29.670897
21341		9.599553	0.359795	-0.467958	-0.077696	0.047859	-0.091914	-0.362793	-0.225098	0.519775	179.199515	-87.356467	-28.533818
21342		9.638455	0.341547	-0.541126	-0.072454	0.056676	-0.061006	-0.359863	-0.229248	0.522705	178.394319	-87.387314	-27.764706
21343		9.613501	0.308869	-0.565183	-0.083533	0.070595	-0.034376	-0.365234	-0.224854	0.527832	177.889312	-87.426074	-27.302407
21344		9.468886	0.302135	-0.505481	-0.101783	0.075771	-0.004331	-0.359619	-0.223389	0.527344	177.751421	-87.468483	-27.218130
21345		9.268471	0.303550	-0.393275	-0.123310	0.078860	0.015704	-0.360840	-0.226074	0.527344	177.852831	-87.512947	-27.385670
21346		9.038925	0.162438	-0.319479	-0.123191	0.047516	0.027093	-0.372559	-0.227295	0.524170	178.132579	-87.539818	-27.731704
21347		8.795671	0.175379	-0.602703	-0.137284	0.008951	0.034529	-0.372314	-0.235596	0.521973	178.517232	-87.544494	-28.190753
21348		8.777310	0.259674	-0.866689	-0.142703	0.009083	0.037572	-0.358643	-0.231689	0.526611	178.948242	-87.549288	-28.699373
21349		8.808178	0.453492	-0.974004	-0.121802	0.014745	0.043344	-0.358154	-0.230469	0.520020	179.462423	-87.557039	-29.279184
21350		9.026027	0.648320	-1.039890	-0.117998	0.044455	0.054477	-0.359863	-0.229492	0.524658	-179.859150	-87.581726	-30.021267
21351		9.319433	0.894296	-0.975657	-0.113825	0.071339	0.060654	-0.364014	-0.238525	0.531738	-179.081098	-87.621217	-30.860585
21352		9.610974	1.022885	-0.728796	-0.111933	0.079107	0.072332	-0.366455	-0.238525	0.521729	-178.099179	-87.664609	-31.902898
21353		9.786330	1.106248	-0.699820	-0.128645	0.070146	0.074704	-0.369629	-0.237549	0.519531	-177.071070	-87.701889	-33.000920
21354		9.869642	1.216751	-0.763740	-0.162868	0.062981	0.081316	-0.364990	-0.232422	0.530518	-175.930241	-87.734153	-34.231421
21355		9.826611	1.205305	-0.904994	-0.212427	0.063637	0.086898	-0.368652	-0.230957	0.525391	-174.712653	-87.765357	-35.567048
21356		9.718180	1.091284	-0.948363	-0.255652	0.052439	0.102196	-0.365967	-0.233887	0.521240	-173.267072	-87.788185	-37.155682
21357		9.638063	0.854264	-1.212945	-0.295334	0.046912	0.107869	-0.372559	-0.240479	0.526367	-171.754099	-87.805702	-38.834399
21358		9.462745	0.682878	-1.364682	-0.299752	0.049877	0.119574	-0.370605	-0.241455	0.515137	-170.025319	-87.822138	-40.731685
21359		9.344009	0.579874	-1.319980	-0.295836	0.065103	0.119432	-0.369629	-0.246582	0.520996	-168.236909	-87.844786	-42.686279
21360		9.301137	0.493236	-1.242538	-0.273822	0.061172	0.122277	-0.366211	-0.246094	0.517578	-166.356100	-87.862627	-44.720784
21361		9.269141	0.456965	-1.289311	-0.262401	0.054545	0.120773	-0.371094	-0.242676	0.515625	-164.502884	-87.874385	-46.721014
21362		9.343668	0.576498	-1.261857	-0.248450	0.057832	0.120815	-0.371094	-0.244629	0.520264	-162.591549	-87.885607	-48.771484
21363		9.376547	0.645453	-1.292192	-0.255647	0.063969	0.122711	-0.363770	-0.242920	0.521240	-160.621846	-87.897132	-50.884377
21364		9.362236	0.653440	-1.327796	-0.263256	0.059719	0.132397	-0.375977	-0.252197	0.510254	-158.503882	-87.901751	-53.150078
21365		9.436956	0.630054	-1.158736	-0.268192	0.066669	0.137139	-0.368408	-0.250244	0.512939	-156.287664	-87.905768	-55.516826
21366		9.430385	0.536531	-1.237110	-0.265416	0.043731	0.140606	-0.374512	-0.248535	0.523193	-154.155773	-87.893797	-57.797702
21367		9.463965	0.450147	-1.412262	-0.274412	0.039953	0.159995	-0.365967	-0.244629	0.519043	-151.838531	-87.871561	-60.269140
21368		9.495741	0.474594	-1.597673	-0.303228	0.052147	0.176787	-0.380859	-0.259033	0.522949	-149.258655	-87.846821	-63.020052
21369		9.488160	0.582057	-1.621551	-0.311903	0.076246	0.192331	-0.375977	-0.251953	0.520264	-146.372694	-87.824139	-66.082188
21370		9.487172	0.618311	-1.589526	-0.339286	0.101545	0.207469	-0.381592	-0.260742	0.515869	-143.146567	-87.802131	-69.500580
21371		9.374459	0.753723	-1.556950	-0.351749	0.109575	0.219345	-0.377686	-0.249512	0.512207	-139.813242	-87.772108	-73.033361
21372		9.294223	0.876299	-1.624373	-0.360373	0.097944	0.212557	-0.371094	-0.255859	0.514648	-136.756064	-87.732046	-76.294906
21373		9.289096	0.975601	-1.813408	-0.378330	0.079650	0.211531	-0.368652	-0.262695	0.514404	-134.043905	-87.678676	-79.221463
21374		9.327077	1.064802	-2.023647	-0.401413	0.060214	0.212416	-0.376221	-0.255371	0.513184	-131.651356	-87.612032	-81.841596
21375		9.335014	1.028006	-2.223583	-0.413164	0.030958	0.222150	-0.379395	-0.262695	0.511475	-129.643779	-87.526353	-84.083199
21376		9.421541	0.901621	-2.325687	-0.434849	0.001892	0.251928	-0.379883	-0.262695	0.511230	-127.835708	-87.413599	-86.137801
21377		9.539233	0.718811	-2.098986	-0.493453	0.030412	0.272180	-0.371338	-0.265625	0.508789	-125.818015	-87.298636	-88.435955
21378		9.736807	0.284660	-1.618158	-0.556597	0.046063	0.280187	-0.385254	-0.262695	0.508789	-123.793147	-87.181071	-90.777825
21379		10.302066	-0.295573	-1.568325	-0.514840	-0.046318	0.255626	-0.384277	-0.268555	0.507324	-122.955328	-87.043689	-91.907352
21380		10.947464	-0.686182	-1.644699	-0.293622	-0.150130	0.213509	-0.383301	-0.262451	0.519531	-123.229129	-86.893461	-91.797010
21381		11.397512	-0.705494	-1.936345	-0.069008	-0.110331	0.165329	-0.378906	-0.267822	0.510742	-123.307921	-86.779097	-91.752998
21382		11.412645	-0.544528	-1.383206	0.018858	-0.000464	0.139251	-0.381592	-0.260498	0.506104	-122.543744	-86.711208	-92.502960
21383		11.382136	-0.244166	-0.482835	-0.050827	0.067624	0.124544	-0.381592	-0.268066	0.514893	-121.373675	-86.670694	-93.699466
21384		11.420180	-0.218802	0.492183	-0.120077	0.038097	0.121161	-0.372559	-0.262695	0.507813	-120.519304	-86.621627	-94.619592
21385		11.617465	-0.432428	0.667623	-0.263335	-0.035362	0.111082	-0.384521	-0.265137	0.510498	-120.443359	-86.556080	-94.842128
21386		11.828504	-0.429400	0.053282	-0.389008	-0.061586	0.090575	-0.372314	-0.272705	0.503174	-120.736727	-86.492701	-94.766887
21387		11.811547	-0.555165	-0.258983	-0.323886	-0.004844	0.069097	-0.376709	-0.274902	0.507324	-120.653572	-86.456839	-95.031428
21388		11.685239	-0.949427	0.168275	-0.171735	0.065163	0.014397	-0.382080	-0.263916	0.502197	-120.168640	-86.467877	-95.611242
21389		11.357934	-1.041356	0.816724	-0.165129	0.077269	-0.031779	-0.382813	-0.272461	0.507324	-119.807388	-86.505397	-96.063266
21390		10.943672	-0.652102	0.730386	-0.219867	0.059199	-0.082880	-0.384766	-0.270020	0.500732	-119.842840	-86.562722	-96.149327
21391		10.500706	-0.241773	0.292232	-0.182462	0.066357	-0.079334	-0.376953	-0.277100	0.507324	-119.793549	-86.620702	-96.298728
21392		9.934019	0.102245	0.383683	-0.154450	0.112123	-0.055884	-0.388184	-0.270508	0.510254	-119.201933	-86.679466	-96.975374
21393		9.401043	0.276853	0.756860	-0.190434	0.156217	-0.018572	-0.385010	-0.272949	0.497559	-118.056031	-86.731390	-98.227749
21394		8.912463	0.307765	0.903434	-0.218190	0.165638	0.020869	-0.383545	-0.276611	0.498535	-116.607396	-86.763630	-99.799308
21395		8.605857	0.019934	0.912513	-0.215792	0.157540	0.061216	-0.383301	-0.278809	0.497070	-115.043338	-86.771190	-101.484964
21396		8.543724	-0.364863	0.956836	-0.252079	0.140782	0.075692	-0.386719	-0.275635	0.499512	-113.577248	-86.764194	-103.093423
21397		8.689364	-0.712812	0.944958	-0.281298	0.139645	0.075150	-0.391357	-0.277588	0.491455	-112.161392	-86.755525	-104.668233
21398		8.832602	-1.038726	1.029058	-0.302177	0.129334	0.070543	-0.392334	-0.282715	0.489258	-110.867210	-86.744452	-106.133286
21399		8.920880	-1.139897	1.101730	-0.325107	0.119925	0.059221	-0.388184	-0.281494	0.484375	-109.735047	-86.736444	-107.449107
21400		8.992571	-1.251046	1.143818	-0.321003	0.092481	0.047919	-0.393311	-0.284180	0.502197	-108.892357	-86.727441	-108.472764
21401		9.206721	-1.390973	1.089924	-0.282367	0.065919	0.036760	-0.389893	-0.285645	0.484619	-108.330235	-86.719543	-109.193101
21402		9.454557	-1.482075	1.018263	-0.249038	0.039599	0.026015	-0.393066	-0.289063	0.492676	-108.024574	-86.711856	-109.637560
21403		9.690874	-1.519385	1.121716	-0.202115	0.032726	0.022224	-0.388916	-0.281494	0.491211	-107.779727	-86.705510	-109.994052
21404		9.737785	-1.550217	1.061410	-0.123277	0.006106	0.013444	-0.389160	-0.290771	0.486816	-107.760104	-86.698644	-110.079830
21405		9.699658	-1.557009	1.041269	-0.043864	-0.019989	0.019790	-0.391113	-0.279785	0.497314	-107.930322	-86.684328	-109.929748
21406		9.586035	-1.438433	0.852522	0.001812	-0.044913	0.037268	-0.388916	-0.286133	0.487061	-108.243924	-86.655439	-109.609947
21407		9.391654	-1.289450	0.823634	0.047951	-0.054537	0.074407	-0.395264	-0.287598	0.490967	-108.507215	-86.605084	-109.313926
21408		9.258207	-1.245568	0.689770	0.063553	-0.067707	0.115285	-0.391113	-0.282227	0.495361	-108.739702	-86.529491	-109.039914
21409		9.302560	-1.103407	0.519256	0.098908	-0.082143	0.163930	-0.384521	-0.281250	0.481445	-108.927959	-86.425328	-108.789771
21410		9.475630	-1.155979	0.317947	0.125322	-0.085379	0.209719	-0.397949	-0.280273	0.494385	-108.976916	-86.295181	-108.664136
21411		9.705174	-1.221400	0.294942	0.118663	-0.081296	0.243166	-0.384033	-0.280273	0.495361	-108.903509	-86.148191	-108.664816
21412		9.702292	-1.218999	0.215135	0.107408	-0.100908	0.268846	-0.385742	-0.274902	0.499268	-108.917455	-85.983117	-108.584521
21413		9.692161	-1.233792	0.184984	0.096738	-0.121208	0.266718	-0.386230	-0.277832	0.490234	-109.094309	-85.815904	-108.346896
21414		9.642461	-1.304806	0.049738	0.092989	-0.135434	0.253252	-0.391846	-0.282471	0.488281	-109.387389	-85.652718	-107.994942
21415		9.568864	-1.298452	0.048901	0.092054	-0.134232	0.228606	-0.391846	-0.278076	0.491943	-109.714259	-85.503412	-107.609452
21416		9.408330	-1.296004	0.102940	0.082647	-0.143588	0.198071	-0.394043	-0.275146	0.495605	-110.155479	-85.368048	-107.114691
21417		9.285763	-1.237808	0.200289	0.072611	-0.145879	0.157868	-0.392334	-0.269287	0.497314	-110.692198	-85.253942	-106.529686
21418		9.185410	-1.150456	0.043578	0.092561	-0.153020	0.123987	-0.393311	-0.276123	0.501221	-111.315198	-85.155557	-105.846642
21419		9.190532	-1.123548	0.076942	0.107796	-0.156153	0.100501	-0.386963	-0.273682	0.495850	-111.984824	-85.068818	-105.107846
21420		8.910266	-1.107437	0.056564	0.109529	-0.181625	0.075743	-0.393066	-0.274170	0.500488	-112.841207	-84.988363	-104.180600
21421		9.190307	-0.983378	0.013837	0.107389	-0.159035	0.061382	-0.387451	-0.266602	0.502197	-113.577934	-84.919882	-103.374501
21422		9.238452	-0.942231	0.123759	0.115529	-0.150763	0.053531	-0.390381	-0.269775	0.500000	-114.258399	-84.856148	-102.620223
21423		9.302222	-1.040132	0.125576	0.132370	-0.157368	0.039100	-0.394531	-0.267334	0.502197	-114.991063	-84.797937	-101.803673
21424		9.455855	-1.099138	0.058324	0.159335	-0.145884	0.023550	-0.395264	-0.264648	0.502441	-115.665246	-84.749291	-101.030363
21425		9.509524	-1.215057	0.054356	0.184106	-0.140326	0.005131	-0.395020	-0.268799	0.500977	-116.335013	-84.711099	-100.247084
21426		9.547792	-1.162648	0.086332	0.198557	-0.128672	-0.011945	-0.396484	-0.267578	0.502197	-116.966594	-84.683441	-99.493896
21427		9.557421	-0.994927	0.160029	0.200929	-0.111826	-0.016809	-0.394531	-0.271973	0.502441	-117.515031	-84.662344	-98.822720
21428		9.514522	-0.905960	0.125372	0.216064	-0.109962	-0.016159	-0.380127	-0.262695	0.505859	-118.034877	-84.640458	-98.171623
21429		9.464119	-0.806760	0.070289	0.215100	-0.101472	-0.011272	-0.388672	-0.264893	0.505615	-118.493870	-84.618267	-97.582081
21430		9.369641	-0.872651	-0.023484	0.216362	-0.088422	0.000436	-0.384521	-0.261719	0.508301	-118.841345	-84.593016	-97.103903
21431		9.338969	-0.903124	-0.235248	0.226362	-0.084866	0.005747	-0.392090	-0.256836	0.513428	-119.147776	-84.566210	-96.661076
21432		9.270423	-0.947345	-0.180511	0.229972	-0.075179	0.008247	-0.383545	-0.264160	0.508789	-119.387681	-84.540294	-96.283080
21433		9.195881	-0.924691	-0.233171	0.217099	-0.081470	0.005255	-0.391113	-0.262207	0.500488	-119.676230	-84.514298	-95.863512
21434		9.185001	-0.866448	-0.406166	0.219793	-0.088852	0.008421	-0.384277	-0.258057	0.504639	-119.985640	-84.484048	-95.421514
21435		9.206725	-0.867919	-0.534980	0.208837	-0.089122	0.008036	-0.386230	-0.260010	0.512207	-120.302445	-84.454041	-94.978274
21436		9.326369	-0.868611	-0.640853	0.196221	-0.076869	0.007892	-0.378418	-0.254150	0.509277	-120.558173	-84.427088	-94.603738
21437		9.455119	-0.854768	-0.627739	0.191339	-0.069819	0.002101	-0.380859	-0.257813	0.511963	-120.798399	-84.405244	-94.247478
21438		9.557469	-0.846755	-0.551480	0.191444	-0.076422	-0.012422	-0.390137	-0.255127	0.512207	-121.110182	-84.388074	-93.819339
21439		9.503373	-0.830000	-0.615849	0.192797	-0.084742	-0.019445	-0.379883	-0.250732	0.511230	-121.484301	-84.371958	-93.327680
21440		9.483267	-0.914557	-0.770996	0.214783	-0.087678	-0.027702	-0.385010	-0.259766	0.510742	-121.880294	-84.358321	-92.801463
21441		9.400073	-1.082448	-0.828083	0.246530	-0.071035	-0.036359	-0.383545	-0.252686	0.516357	-122.204091	-84.353952	-92.329418
21442		9.339943	-1.230921	-0.795883	0.280414	-0.053695	-0.047621	-0.388428	-0.248535	0.515625	-122.455378	-84.359789	-91.910817
21443		9.316719	-1.252662	-0.771289	0.314721	-0.043057	-0.057206	-0.383789	-0.255859	0.519531	-122.668808	-84.373676	-91.510430
21444		9.312036	-1.159774	-0.783670	0.334852	-0.045009	-0.050569	-0.388184	-0.253418	0.516113	-122.857726	-84.383314	-91.123174
21445		9.314855	-1.077422	-0.775261	0.337832	-0.037524	-0.045864	-0.393311	-0.252686	0.518799	-122.997321	-84.393197	-90.783693
21446		9.278412	-1.053325	-0.694539	0.337367	-0.036930	-0.040665	-0.389160	-0.250977	0.515381	-123.115466	-84.400411	-90.466113
21447		9.296822	-0.937926	-0.733282	0.338625	-0.032877	-0.035727	-0.381348	-0.246338	0.515137	-123.200791	-84.406737	-90.180720
21448		9.250794	-0.879603	-0.859789	0.349984	-0.035979	-0.033409	-0.381592	-0.245850	0.512451	-123.284688	-84.410672	-89.890295
21449		9.183484	-0.817772	-0.863877	0.359501	-0.030599	-0.037747	-0.385742	-0.239014	0.514893	-123.354211	-84.418591	-89.608770
21450		9.134467	-0.843237	-0.886166	0.346835	-0.038383	-0.044332	-0.378174	-0.243408	0.511719	-123.487840	-84.426902	-89.270196
21451		9.067417	-0.880484	-0.935842	0.335497	-0.043834	-0.044781	-0.381592	-0.243408	0.519775	-123.660015	-84.433851	-88.899363
21452		8.982165	-0.879434	-0.990824	0.339007	-0.054221	-0.062026	-0.375977	-0.241943	0.521729	-123.935097	-84.445323	-88.423184
21453		8.987480	-0.865202	-1.045959	0.348126	-0.057011	-0.079751	-0.383545	-0.243896	0.528076	-124.282549	-84.464275	-87.869000
21454		9.088695	-0.877067	-1.063985	0.374930	-0.058674	-0.105864	-0.378418	-0.238525	0.519531	-124.710840	-84.494439	-87.218252
21455		9.244493	-0.899444	-1.023517	0.421529	-0.066316	-0.137424	-0.374023	-0.232666	0.516602	-125.268323	-84.536562	-86.410884
21456		9.390373	-0.940601	-0.988599	0.442422	-0.071082	-0.156538	-0.383057	-0.242188	0.526123	-125.911800	-84.585000	-85.505220
21457		9.453791	-1.001981	-1.044595	0.449422	-0.084640	-0.165813	-0.374512	-0.231445	0.529297	-126.668972	-84.632239	-84.481353
21458		9.489735	-1.146685	-1.042018	0.430318	-0.101011	-0.170780	-0.375488	-0.235107	0.530518	-127.547227	-84.674548	-83.346990
21459		9.594882	-1.221666	-1.121205	0.410854	-0.118557	-0.171952	-0.374023	-0.224854	0.530518	-128.545837	-84.709587	-82.102985
21460		9.647172	-1.203064	-1.143992	0.403527	-0.119375	-0.161818	-0.369873	-0.224121	0.520996	-129.522804	-84.737704	-80.885034
21461		9.719530	-1.066225	-1.378389	0.418269	-0.133222	-0.154027	-0.375488	-0.225830	0.527100	-130.540696	-84.755436	-79.617517
21462		9.664059	-0.918285	-1.535193	0.426242	-0.153061	-0.147730	-0.373779	-0.235840	0.533447	-131.623601	-84.760764	-78.280181
21463		9.682059	-0.870896	-1.649192	0.426531	-0.161360	-0.140258	-0.366943	-0.229492	0.531250	-132.718807	-84.757448	-76.930308
21464		9.700311	-0.875794	-1.783269	0.418471	-0.155617	-0.137503	-0.372803	-0.227295	0.530029	-133.774542	-84.752885	-75.624720
21465		9.690664	-0.993855	-1.836378	0.426794	-0.130919	-0.140834	-0.369141	-0.224609	0.532715	-134.733012	-84.757464	-74.412007
21466		9.722694	-1.051091	-2.016954	0.431984	-0.101198	-0.139878	-0.367432	-0.217773	0.538086	-135.551529	-84.772019	-73.336876
21467		9.715886	-1.140447	-2.081022	0.438857	-0.090969	-0.150142	-0.373535	-0.217773	0.534424	-136.378394	-84.793405	-72.249440
21468		9.687780	-1.171363	-2.113991	0.461804	-0.082012	-0.152537	-0.371338	-0.217285	0.534180	-137.167764	-84.818140	-71.186491
21469		9.612712	-1.201805	-2.182600	0.478733	-0.081101	-0.165006	-0.375977	-0.216797	0.532715	-138.016068	-84.846576	-70.054686
21470		9.628992	-1.269462	-2.271450	0.497139	-0.092353	-0.177140	-0.367676	-0.218506	0.540527	-138.965190	-84.873322	-68.811104
21471		9.627498	-1.373886	-2.256199	0.513949	-0.102843	-0.185020	-0.363037	-0.217285	0.544434	-140.002768	-84.896297	-67.469119
21472		9.654819	-1.380945	-2.082489	0.553722	-0.114087	-0.196323	-0.362305	-0.205566	0.544434	-141.124834	-84.916359	-66.019449
21473		9.823947	-1.152382	-2.079963	0.565059	-0.119833	-0.197364	-0.363037	-0.208252	0.537598	-142.282939	-84.931365	-64.527158
21474		10.021077	-0.987266	-1.920910	0.535553	-0.121476	-0.172508	-0.368896	-0.202148	0.542969	-143.337084	-84.934745	-63.156186
21475		10.229321	-0.708091	-1.651463	0.477216	-0.112273	-0.150049	-0.359863	-0.205811	0.542969	-144.278002	-84.932330	-61.932495
