// General information: 
//  MT Manager version: 2022.2.0 
//  XDA version: 2022.2.0 build 7381 rev 124627 built on 2023-07-19
// Device information: 
//  DeviceId: 00B4BCF6
//  ProductCode: MTW2-3A7G6
//  Firmware Version: 4.6.0
//  Hardware Version: 2.0.0
// Device settings: 
//  Filter Profile: human(46.1)
//  Option Flags: Orientation Smoother Disabled, Position/Velocity Smoother Disabled, Continuous Zero Rotation Update Disabled, AHS Disabled, ICC Disabled
// Coordinate system: ENU
PacketCounter	SampleTimeFine	Acc_X	Acc_Y	Acc_Z	Gyr_X	Gyr_Y	Gyr_Z	Mag_X	Mag_Y	Mag_Z	Roll	Pitch	Yaw
57791		-4.643696	-0.944344	8.634387	-0.005048	-0.001189	-0.006467	-0.498779	-0.135742	-0.534668	-6.147114	28.265372	-52.047526
57792		-4.634161	-0.895826	8.612865	-0.006236	-0.000770	-0.005592	-0.503174	-0.141113	-0.534424	-6.147979	28.262462	-52.047456
57793		-4.643524	-0.945956	8.634304	-0.006434	0.001451	-0.007217	-0.509277	-0.135986	-0.529541	-6.149800	28.260994	-52.048830
57794		-4.667329	-0.994900	8.624280	-0.003890	0.002323	-0.006940	-0.503174	-0.133789	-0.531250	-6.149836	28.259764	-52.049848
57795		-4.643751	-0.947602	8.634001	-0.008399	0.002334	-0.007730	-0.496582	-0.144287	-0.535156	-6.152978	28.258684	-52.049715
57796		-4.644010	-0.948480	8.633765	-0.006094	0.004872	-0.003165	-0.503174	-0.137207	-0.536865	-6.153205	28.259138	-52.048469
57797		-4.668101	-0.927444	8.645419	-0.005218	-0.002902	-0.008492	-0.505127	-0.131836	-0.531006	-6.154572	28.255124	-52.051720
57798		-4.619898	-0.971715	8.621880	-0.004708	0.002232	-0.002414	-0.505371	-0.137207	-0.532715	-6.153688	28.254120	-52.049804
57799		-4.644195	-0.950455	8.633449	-0.003720	0.004034	-0.004914	-0.500244	-0.139404	-0.536377	-6.153345	28.254195	-52.047795
57800		-4.658850	-0.949976	8.601798	-0.005686	0.004917	-0.005427	-0.510742	-0.137451	-0.534180	-6.154032	28.254535	-52.048014
57801		-4.635573	-0.922571	8.648619	-0.005107	0.006673	-0.005663	-0.510010	-0.144531	-0.537109	-6.154791	28.256090	-52.048608
57802		-4.640708	-0.962804	8.610901	-0.004937	0.008384	-0.003637	-0.507568	-0.137207	-0.529785	-6.154615	28.258515	-52.047912
57803		-4.632083	-0.954240	8.663374	-0.006733	0.010978	-0.002123	-0.508789	-0.132324	-0.535400	-6.155353	28.262680	-52.047571
57804		-4.656981	-0.913289	8.637372	-0.009037	0.008438	-0.006689	-0.504150	-0.139648	-0.534180	-6.158463	28.264949	-52.048853
57805		-4.652803	-0.924589	8.615311	-0.006493	0.009311	-0.006411	-0.505615	-0.139893	-0.528564	-6.160337	28.267941	-52.048776
57806		-4.691423	-0.992572	8.610739	-0.007072	0.007554	-0.006175	-0.499756	-0.138428	-0.526367	-6.162134	28.269738	-52.049664
57807		-4.658530	-0.985931	8.614339	-0.006294	0.007089	-0.004787	-0.506348	-0.145508	-0.531982	-6.163304	28.271517	-52.050724
57808		-4.649739	-0.937447	8.592472	-0.007072	0.007553	-0.006174	-0.503174	-0.138672	-0.524414	-6.165102	28.273313	-52.051612
57809		-4.669489	-0.946890	8.619461	-0.006294	0.007089	-0.004786	-0.500244	-0.130859	-0.529785	-6.166264	28.275071	-52.053977
57810		-4.689269	-0.936019	8.609247	-0.002973	0.007498	-0.003121	-0.508057	-0.131836	-0.536621	-6.164775	28.277024	-52.052886
57811		-4.651412	-0.959632	8.628547	-0.007240	0.005842	-0.008200	-0.495361	-0.139404	-0.529541	-6.167527	28.277942	-52.051261
57812		-4.632682	-0.951735	8.600839	-0.003551	0.005741	-0.002885	-0.505371	-0.134766	-0.533203	-6.166240	28.278909	-52.049894
57813		-4.652530	-0.940743	8.590600	-0.004770	0.010090	-0.001606	-0.505371	-0.133301	-0.538086	-6.165675	28.282655	-52.048151
57814		-4.614984	-0.964103	8.609768	-0.003582	0.009672	-0.002481	-0.500244	-0.134033	-0.533936	-6.164411	28.285885	-52.046797
57815		-4.644740	-0.932502	8.642634	-0.005349	0.008333	-0.001371	-0.513184	-0.134033	-0.532715	-6.164066	28.288672	-52.042389
57816		-4.640754	-0.943314	8.620504	-0.003203	0.013648	-0.004338	-0.502197	-0.132080	-0.533936	-6.163286	28.294053	-52.042514
57817		-4.656128	-0.962845	8.625645	-0.005747	0.012772	-0.004616	-0.507324	-0.137939	-0.527100	-6.164305	28.299085	-52.039787
57818		-4.662042	-0.953121	8.646619	-0.002593	0.011472	-0.004976	-0.501465	-0.128662	-0.528564	-6.163299	28.303187	-52.040172
57819		-4.672244	-0.962904	8.593092	-0.006904	0.009258	-0.004146	-0.502930	-0.135498	-0.528320	-6.164711	28.306214	-52.038136
57820		-4.692336	-0.972324	8.619885	-0.005336	0.012817	-0.006876	-0.512451	-0.133301	-0.532959	-6.165905	28.310965	-52.039845
57821		-4.645309	-0.946442	8.617707	-0.001175	0.004904	-0.004632	-0.503418	-0.131836	-0.530029	-6.164040	28.311475	-52.037586
57822		-4.683983	-0.943901	8.635041	-0.000976	0.002684	-0.003010	-0.507080	-0.135742	-0.529541	-6.161213	28.310692	-52.036086
57823		-4.703332	-0.932793	8.625070	-0.003520	0.001809	-0.003289	-0.499756	-0.145020	-0.531494	-6.160177	28.309538	-52.033083
57824		-4.679421	-0.954983	8.613179	-0.002941	0.003565	-0.003523	-0.508057	-0.135986	-0.530273	-6.158663	28.309225	-52.031976
57825		-4.641226	-0.958261	8.595506	-0.003108	0.001855	-0.005551	-0.507080	-0.132568	-0.533203	-6.158062	28.307971	-52.034420
57826		-4.651294	-0.938163	8.638495	-0.004130	0.003982	-0.002649	-0.503662	-0.145020	-0.531982	-6.156975	28.307949	-52.032777
57827		-4.680206	-0.956455	8.612589	-0.003140	0.005784	-0.005145	-0.500488	-0.129150	-0.527100	-6.156407	28.308963	-52.033658
57828		-4.671390	-0.927702	8.628050	-0.002563	0.007540	-0.005379	-0.509521	-0.135498	-0.525879	-6.155377	28.310801	-52.034029
57829		-4.666928	-0.958607	8.643377	-0.003719	0.004027	-0.004910	-0.510010	-0.141113	-0.533203	-6.155025	28.310775	-52.031624
57830		-4.686594	-0.947669	8.633212	-0.004163	0.007910	-0.002243	-0.502197	-0.138184	-0.530273	-6.153962	28.313015	-52.029992
57831		-4.668000	-0.939630	8.605457	-0.006295	0.007081	-0.004784	-0.498779	-0.139160	-0.533447	-6.155127	28.314769	-52.031201
57832		-4.668542	-0.940365	8.605082	-0.005106	0.006663	-0.005657	-0.505127	-0.139404	-0.529785	-6.155611	28.316090	-52.031691
57833		-4.649865	-0.952447	8.614588	-0.004329	0.006199	-0.004270	-0.509033	-0.135986	-0.531250	-6.155465	28.317418	-52.033221
57834		-4.669570	-0.961680	8.641608	-0.004329	0.006199	-0.004270	-0.510742	-0.134766	-0.541260	-6.155063	28.318560	-52.032781
57835		-4.670135	-0.941945	8.604045	-0.000431	0.008368	-0.002835	-0.515625	-0.144043	-0.536621	-6.152337	28.321183	-52.029069
57836		-4.684751	-0.961296	8.609579	-0.004874	0.000514	-0.004443	-0.504395	-0.133301	-0.526611	-6.152112	28.319075	-52.028344
57837		-4.651445	-0.954197	8.613541	0.001203	0.004069	-0.006377	-0.505127	-0.134033	-0.527832	-6.149370	28.318965	-52.028975
57838		-4.670933	-0.943090	8.603486	-0.004130	0.003979	-0.002648	-0.497559	-0.135498	-0.528564	-6.148283	28.318941	-52.027330
57839		-4.662090	-0.934581	8.656195	-0.006295	0.007078	-0.004783	-0.510986	-0.131104	-0.531494	-6.149464	28.320711	-52.027150
57840		-4.676793	-0.934181	8.624424	-0.005684	0.004905	-0.005423	-0.505371	-0.138672	-0.531006	-6.150149	28.321044	-52.027365
57841		-4.643752	-0.927505	8.628207	-0.007650	0.005784	-0.005936	-0.507080	-0.141846	-0.535645	-6.152417	28.321961	-52.026013
57842		-4.672666	-0.966231	8.639427	-0.004495	0.004488	-0.006296	-0.500488	-0.142090	-0.526855	-6.152675	28.322004	-52.026765
57843		-4.678015	-0.936312	8.623530	-0.000598	0.006657	-0.004861	-0.507568	-0.143311	-0.536133	-6.150571	28.323516	-52.030173
57844		-4.659123	-0.948336	8.633164	-0.006426	0.001439	-0.007218	-0.498047	-0.136230	-0.530762	-6.152117	28.321764	-52.031309
57845		-4.664225	-0.918656	8.617379	-0.003718	0.004024	-0.004909	-0.505127	-0.139648	-0.537598	-6.151744	28.321817	-52.033025
57846		-4.659408	-0.929557	8.595652	-0.004461	0.000559	-0.006704	-0.505615	-0.135498	-0.531250	-6.151978	28.319596	-52.033767
57847		-4.673714	-0.949132	8.601312	-0.003107	0.001852	-0.005549	-0.509033	-0.136230	-0.531982	-6.151387	28.318358	-52.033729
57848		-4.678590	-0.939360	8.622886	-0.001883	-0.002492	-0.006831	-0.504150	-0.137451	-0.536377	-6.150081	28.314391	-52.034340
57849		-4.659220	-0.951288	8.632787	-0.002495	-0.000320	-0.006190	-0.497559	-0.141113	-0.537109	-6.149266	28.311858	-52.033891
57850		-4.678322	-0.940358	8.622923	-0.002495	-0.000321	-0.006190	-0.499512	-0.142090	-0.534180	-6.148186	28.309168	-52.034239
57851		-4.639781	-0.943751	8.605445	-0.004625	-0.001151	-0.008731	-0.501465	-0.145020	-0.535889	-6.149331	28.306112	-52.039807
57852		-4.702170	-0.920084	8.634665	-0.005038	-0.001199	-0.006470	-0.508057	-0.141357	-0.527100	-6.149765	28.302904	-52.040275
57853		-4.663490	-0.923475	8.617262	-0.003649	-0.003833	-0.005724	-0.508789	-0.133789	-0.529541	-6.149316	28.298367	-52.043864
57854		-4.653129	-0.964848	8.611445	-0.004590	-0.005080	-0.009139	-0.502686	-0.140137	-0.533447	-6.150184	28.292784	-52.045788
57855		-4.652739	-0.965564	8.611576	-0.002660	-0.002031	-0.008217	-0.498779	-0.143799	-0.537354	-6.150022	28.289125	-52.046766
57856		-4.676505	-0.944485	8.623458	-0.004225	-0.005591	-0.005491	-0.506104	-0.139160	-0.529053	-6.149545	28.283475	-52.046295
57857		-4.686062	-0.924603	8.666763	-0.003849	-0.001616	-0.007343	-0.499023	-0.137939	-0.539551	-6.149794	28.280161	-52.050062
57858		-4.628238	-0.939353	8.659177	-0.003072	-0.002078	-0.005956	-0.505371	-0.141113	-0.536133	-6.148915	28.276483	-52.050136
57859		-4.670698	-0.956797	8.602101	-0.007169	-0.002032	-0.009010	-0.498535	-0.135498	-0.528809	-6.151581	28.272898	-52.053346
57860		-4.670441	-0.957622	8.602148	-0.002660	-0.002032	-0.008216	-0.505127	-0.143311	-0.534912	-6.151160	28.269109	-52.054886
57861		-4.646530	-0.930194	8.649572	-0.003813	-0.005545	-0.007751	-0.498047	-0.129150	-0.532227	-6.151390	28.263522	-52.057130
57862		-4.655457	-0.940068	8.596649	-0.005816	-0.000739	-0.007855	-0.503662	-0.141846	-0.538330	-6.152709	28.260491	-52.058526
57863		-4.660090	-0.950802	8.655505	-0.004590	-0.005083	-0.009137	-0.504639	-0.134766	-0.534668	-6.153850	28.255151	-52.058829
57864		-4.673934	-0.950570	8.624183	-0.007170	-0.002035	-0.009008	-0.502441	-0.138184	-0.532959	-6.156254	28.251312	-52.060880
57865		-4.645092	-0.933709	8.649966	-0.005779	-0.004669	-0.008263	-0.515625	-0.135010	-0.536133	-6.157813	28.246201	-52.061261
57866		-4.663968	-0.923137	8.640215	-0.004627	-0.001156	-0.008728	-0.507813	-0.140869	-0.537598	-6.158703	28.242879	-52.063192
57867		-4.653580	-0.964562	8.634356	-0.004388	-0.007304	-0.007518	-0.498291	-0.135742	-0.536377	-6.159141	28.236242	-52.062974
57868		-4.672122	-0.953973	8.624789	-0.006355	-0.006427	-0.008030	-0.501953	-0.135010	-0.536865	-6.160633	28.229960	-52.064085
57869		-4.638091	-0.926909	8.591968	-0.002258	-0.006472	-0.004977	-0.502930	-0.142578	-0.538330	-6.159122	28.224114	-52.061750
57870		-4.637442	-0.947777	8.629398	-0.005944	-0.006381	-0.010289	-0.505371	-0.138672	-0.534180	-6.161071	28.217720	-52.064325
57871		-4.655853	-0.957375	8.657060	-0.003775	-0.009478	-0.008159	-0.509766	-0.142578	-0.535889	-6.161271	28.209890	-52.067102
57872		-4.635871	-0.949339	8.630070	-0.004389	-0.007306	-0.007516	-0.503906	-0.142334	-0.530273	-6.161450	28.203140	-52.067820
57873		-4.625255	-0.990567	8.624328	-0.002257	-0.006473	-0.004977	-0.510742	-0.142578	-0.534424	-6.159888	28.197129	-52.069901
57874		-4.596271	-0.973171	8.650231	-0.002871	-0.004301	-0.004335	-0.505371	-0.144531	-0.537109	-6.158326	28.192286	-52.068772
57875		-4.663582	-0.898541	8.626932	0.001025	-0.002125	-0.002902	-0.503906	-0.138428	-0.533203	-6.154396	28.188898	-52.070441
57876		-4.639152	-0.940819	8.652383	-0.004219	-0.001112	-0.010985	-0.505859	-0.132080	-0.526855	-6.155741	28.185463	-52.073833
57877		-4.619836	-0.932745	8.625041	-0.002498	-0.000325	-0.006185	-0.502197	-0.136719	-0.529785	-6.154924	28.182881	-52.071906
57878		-4.634013	-0.952199	8.630753	-0.000734	0.001018	-0.007292	-0.508301	-0.136963	-0.532715	-6.153215	28.180886	-52.073059
57879		-4.639074	-0.942522	8.652240	-0.005080	0.002722	-0.006055	-0.505859	-0.137451	-0.528076	-6.153929	28.180056	-52.072482
57880		-4.658490	-0.931904	8.642229	-0.005858	0.003184	-0.007440	-0.510986	-0.140137	-0.531006	-6.155273	28.179286	-52.073882
57881		-4.596363	-0.956963	8.612598	-0.005733	0.008823	-0.005003	-0.509033	-0.134521	-0.528076	-6.156222	28.181918	-52.074301
57882		-4.596882	-0.977690	8.649397	-0.002373	0.005314	-0.003747	-0.503174	-0.139404	-0.531250	-6.154512	28.182588	-52.073463
57883		-4.660152	-0.933718	8.641137	-0.004380	0.010118	-0.003849	-0.503662	-0.131348	-0.531006	-6.154391	28.186065	-52.072073
57884		-4.651477	-0.905279	8.656618	-0.007825	0.004058	-0.007952	-0.507324	-0.134766	-0.533936	-6.157046	28.185761	-52.073864
57885		-4.636677	-0.957119	8.628778	-0.006432	0.001425	-0.007208	-0.505371	-0.139648	-0.528809	-6.158866	28.184140	-52.071039
57886		-4.617890	-0.969277	8.638285	-0.003970	0.010164	-0.006107	-0.503662	-0.134277	-0.529785	-6.158950	28.187428	-52.072065
57887		-4.623567	-0.939462	8.622312	-0.004341	0.006188	-0.004258	-0.506592	-0.140625	-0.523926	-6.158799	28.188652	-52.071171
57888		-4.653258	-0.908249	8.655349	-0.005119	0.006649	-0.005643	-0.504883	-0.135498	-0.527832	-6.159285	28.189966	-52.071651
57889		-4.638795	-0.959817	8.627340	-0.005119	0.006648	-0.005643	-0.504150	-0.138428	-0.533691	-6.159997	28.191290	-52.072627
57890		-4.644198	-0.950499	8.648617	-0.009014	0.004469	-0.007077	-0.505371	-0.139160	-0.531738	-6.163081	28.191274	-52.073882
57891		-4.639597	-0.961530	8.626718	-0.003152	0.005773	-0.005131	-0.509033	-0.140625	-0.536621	-6.162497	28.192250	-52.074576
57892		-4.645145	-0.931605	8.610833	-0.002577	0.007530	-0.005362	-0.507568	-0.136230	-0.533447	-6.161470	28.194083	-52.074936
57893		-4.669733	-0.930813	8.659470	-0.006268	0.003132	-0.005180	-0.507568	-0.133789	-0.531738	-6.162604	28.193533	-52.074372
57894		-4.612222	-0.945573	8.651658	-0.005653	0.000961	-0.005822	-0.510254	-0.136963	-0.529541	-6.163263	28.191596	-52.074571
57895		-4.640684	-0.964274	8.625827	-0.006019	0.001470	-0.009467	-0.511963	-0.134277	-0.526611	-6.165512	28.189762	-52.074542
57896		-4.665030	-0.943537	8.637437	-0.006269	0.003131	-0.005179	-0.509033	-0.141846	-0.532715	-6.166399	28.189100	-52.074477
57897		-4.626667	-0.946907	8.619835	-0.006228	-0.000797	-0.005591	-0.508301	-0.134521	-0.532959	-6.167487	28.186165	-52.073613
57898		-4.626708	-0.947730	8.619722	-0.005857	0.003179	-0.007438	-0.506836	-0.132813	-0.532471	-6.168829	28.185391	-52.075011
57899		-4.631758	-0.938409	8.641203	-0.007005	-0.000337	-0.006976	-0.506348	-0.142822	-0.539307	-6.170841	28.182742	-52.071926
57900		-4.645818	-0.958269	8.646890	-0.005038	-0.001211	-0.006465	-0.508545	-0.137207	-0.530273	-6.171271	28.179528	-52.072387
57901		-4.640544	-0.969134	8.625357	-0.003644	-0.003842	-0.005722	-0.504150	-0.136963	-0.533447	-6.170825	28.174975	-52.072932
57902		-4.612138	-0.931701	8.613890	-0.004506	0.004474	-0.006283	-0.502686	-0.140381	-0.533936	-6.171083	28.175011	-52.073674
57903		-4.645612	-0.960299	8.646775	-0.006228	-0.000799	-0.005590	-0.507080	-0.136475	-0.526123	-6.172187	28.172249	-52.074570
57904		-4.626325	-0.972500	8.656540	-0.005242	0.001007	-0.008080	-0.503906	-0.133789	-0.538574	-6.173301	28.170199	-52.076231
57905		-4.650595	-0.931352	8.631119	-0.004098	0.000037	-0.003050	-0.504395	-0.137939	-0.530029	-6.172455	28.168022	-52.072308
57906		-4.631193	-0.943374	8.640965	-0.005612	-0.002970	-0.006233	-0.504639	-0.133789	-0.531982	-6.173085	28.163820	-52.072497
57907		-4.631106	-0.943876	8.640957	0.000619	0.002314	-0.006134	-0.505127	-0.143555	-0.541504	-6.170543	28.162742	-52.071868
57908		-4.645204	-0.963203	8.646671	-0.001102	-0.002959	-0.005442	-0.511230	-0.139404	-0.528076	-6.168349	28.158595	-52.071547
57909		-4.616248	-0.945792	8.672644	-0.002411	-0.008185	-0.007009	-0.512451	-0.145752	-0.535645	-6.167433	28.151468	-52.073584
57910		-4.639033	-0.974235	8.625595	-0.000897	-0.005178	-0.003826	-0.510010	-0.127930	-0.541016	-6.164557	28.146157	-52.072065
57911		-4.643548	-0.944152	8.610328	-0.002249	-0.006475	-0.004980	-0.510742	-0.137207	-0.539063	-6.163028	28.140156	-52.067770
57912		-4.662082	-0.953326	8.637954	-0.000281	-0.007348	-0.004470	-0.510742	-0.136963	-0.532715	-6.159924	28.133569	-52.066515
57913		-4.661347	-0.953745	8.638304	-0.002000	-0.008138	-0.009268	-0.506836	-0.135986	-0.532959	-6.159494	28.126325	-52.065363
57914		-4.613009	-0.927604	8.637050	-0.004012	-0.007822	-0.003875	-0.506836	-0.139404	-0.525391	-6.158331	28.119504	-52.063692
57915		-4.650711	-0.925702	8.654869	-0.004380	-0.007314	-0.007518	-0.507568	-0.145264	-0.520264	-6.158735	28.112785	-52.064516
57916		-4.611786	-0.929012	8.637552	-0.005201	-0.002925	-0.008490	-0.511963	-0.136230	-0.532227	-6.159820	28.108470	-52.066167
57917		-4.625252	-0.948784	8.643554	-0.003558	-0.011704	-0.006546	-0.508057	-0.135498	-0.531494	-6.159273	28.099199	-52.068051
57918		-4.638453	-0.968520	8.649701	-0.004953	-0.009074	-0.007286	-0.510010	-0.137451	-0.532959	-6.159646	28.091455	-52.068496
57919		-4.618519	-0.960405	8.622711	-0.004380	-0.007316	-0.007517	-0.508057	-0.132568	-0.531738	-6.160067	28.084766	-52.066944
57920		-4.622854	-0.951106	8.644582	-0.007127	-0.005984	-0.009411	-0.511719	-0.134033	-0.537354	-6.162433	28.078652	-52.068975
57921		-4.636433	-0.971028	8.650503	-0.003807	-0.005558	-0.007748	-0.518799	-0.142090	-0.526611	-6.162685	28.072992	-52.064322
57922		-4.602476	-0.943780	8.617742	-0.003190	-0.007729	-0.008391	-0.508057	-0.138916	-0.533203	-6.162428	28.065946	-52.065572
57923		-4.587392	-0.945515	8.649537	-0.003805	-0.010045	-0.002258	-0.504150	-0.141846	-0.534668	-6.160785	28.057898	-52.062350
57924		-4.619953	-0.953751	8.645841	-0.001591	-0.008094	-0.011524	-0.511719	-0.138916	-0.536621	-6.160551	28.050451	-52.065598
57925		-4.619121	-0.954468	8.646206	-0.004953	-0.009078	-0.007284	-0.504639	-0.134766	-0.531982	-6.161161	28.042851	-52.066657
57926		-4.585006	-0.947502	8.650584	-0.003808	-0.005560	-0.007746	-0.507080	-0.139160	-0.530762	-6.161133	28.037081	-52.067642
57927		-4.622957	-0.945781	8.668280	-0.005204	-0.002930	-0.008486	-0.511475	-0.138184	-0.531494	-6.162465	28.032878	-52.068932
57928		-4.622741	-0.926308	8.631259	-0.004425	-0.003390	-0.007102	-0.504639	-0.138428	-0.533203	-6.162666	28.028384	-52.069653
57929		-4.578979	-0.959998	8.629256	-0.005822	-0.000759	-0.007841	-0.510010	-0.132813	-0.533203	-6.164215	28.025432	-52.070650
57930		-4.617131	-0.958589	8.646813	-0.009715	-0.002947	-0.009272	-0.514893	-0.138672	-0.533691	-6.168119	28.021056	-52.072801
57931		-4.602542	-0.960754	8.678282	-0.002253	-0.001995	-0.010466	-0.508789	-0.141357	-0.533691	-6.168394	28.017191	-52.071208
57932		-4.597335	-0.971629	8.656693	-0.005042	-0.001220	-0.006457	-0.518555	-0.135986	-0.535889	-6.168824	28.013971	-52.071663
57933		-4.616519	-0.960949	8.646878	-0.004880	0.000491	-0.004429	-0.500732	-0.129883	-0.529785	-6.168838	28.011886	-52.067627
57934		-4.597038	-0.973059	8.656690	-0.007376	-0.004328	-0.005120	-0.509033	-0.138672	-0.535156	-6.170098	28.006979	-52.067003
57935		-4.596910	-0.953628	8.619629	-0.006232	-0.000810	-0.005581	-0.508301	-0.137451	-0.527100	-6.171237	28.004210	-52.064992
57936		-4.611863	-0.903568	8.647415	-0.004263	-0.001681	-0.005073	-0.511230	-0.144775	-0.530273	-6.170786	28.000814	-52.064521
57937		-4.591474	-0.985306	8.635130	-0.002501	-0.000332	-0.006179	-0.512207	-0.135498	-0.529541	-6.169900	27.998095	-52.067099
57938		-4.601494	-0.945361	8.641266	-0.006232	-0.000810	-0.005581	-0.517090	-0.139160	-0.530762	-6.170759	27.995164	-52.067017
57939		-4.587333	-0.926914	8.635514	-0.001930	0.001427	-0.006409	-0.505615	-0.135742	-0.529297	-6.169701	27.993387	-52.063935
57940		-4.596546	-0.956576	8.619496	-0.002339	0.001378	-0.004150	-0.504639	-0.134521	-0.528809	-6.167968	27.991790	-52.063083
57941		-4.625837	-0.945648	8.689938	-0.003737	0.004008	-0.004889	-0.503906	-0.136230	-0.534668	-6.167603	27.991740	-52.062669
57942		-4.573353	-0.929517	8.666612	-0.003483	-0.002141	-0.003689	-0.508789	-0.138428	-0.524658	-6.166270	27.988166	-52.061273
57943		-4.582390	-0.979603	8.687693	-0.004517	0.004467	-0.006272	-0.518799	-0.141602	-0.525879	-6.166767	27.988270	-52.062748
57944		-4.593055	-0.919479	8.656467	-0.006897	0.005289	-0.004521	-0.502686	-0.135254	-0.535889	-6.167885	27.988878	-52.062407
57945		-4.602559	-0.949455	8.640250	-0.004517	0.004467	-0.006272	-0.500244	-0.134521	-0.528564	-6.168367	27.988917	-52.062124
57946		-4.583725	-0.961350	8.649735	-0.001405	0.007116	-0.006224	-0.508545	-0.136475	-0.530273	-6.166914	27.990461	-52.063009
57947		-4.521734	-0.986000	8.619897	-0.008503	0.010136	-0.006873	-0.505859	-0.145020	-0.534912	-6.170079	27.993789	-52.064805
57948		-4.508440	-0.987928	8.650716	-0.003671	0.013577	-0.002030	-0.514160	-0.135254	-0.531250	-6.168867	27.999272	-52.063435
57949		-4.606206	-0.951916	8.638035	-0.006145	0.022256	0.000552	-0.507813	-0.135010	-0.531982	-6.168797	28.009901	-52.061211
57950		-4.675855	-0.898130	8.650906	-0.004705	0.020182	-0.004609	-0.511475	-0.143799	-0.527344	-6.169175	28.018987	-52.061965
57951		-4.638870	-0.921494	8.669580	-0.005848	0.016662	-0.004149	-0.510254	-0.137451	-0.531982	-6.170163	28.026076	-52.062915
57952		-4.639063	-0.992079	8.646703	-0.006580	0.013191	-0.005948	-0.504639	-0.137939	-0.525879	-6.171792	28.031097	-52.064047
57953		-4.597647	-0.955956	8.666116	-0.006580	0.013190	-0.005947	-0.506104	-0.139893	-0.533203	-6.173646	28.036127	-52.065718
57954		-4.637021	-0.934127	8.645982	-0.007104	0.007502	-0.006134	-0.515137	-0.142334	-0.528564	-6.175445	28.037896	-52.066573
57955		-4.657073	-0.923699	8.635663	-0.008342	0.011839	-0.004842	-0.506348	-0.130615	-0.528564	-6.177901	28.042186	-52.068322
57956		-4.628408	-0.976583	8.638767	-0.006692	0.007550	-0.008392	-0.504883	-0.137939	-0.529541	-6.180151	28.043843	-52.070638
57957		-4.614982	-0.958465	8.632625	-0.008914	0.010079	-0.004613	-0.505371	-0.135254	-0.535400	-6.182866	28.047228	-52.068938
57958		-4.638684	-1.007671	8.621941	-0.004674	0.002753	-0.008300	-0.508301	-0.138428	-0.531982	-6.183775	28.046158	-52.070859
57959		-4.659114	-0.947554	8.671213	-0.005497	0.002654	-0.003784	-0.509033	-0.135742	-0.525391	-6.184037	28.045424	-52.068693
57960		-4.606804	-0.931474	8.647875	-0.003324	0.004053	-0.007145	-0.509521	-0.137207	-0.535400	-6.183864	28.045166	-52.069959
57961		-4.630284	-0.980315	8.637339	-0.002957	0.003545	-0.003503	-0.510254	-0.136475	-0.529053	-6.182594	28.044841	-52.067037
57962		-4.616326	-0.961557	8.631563	-0.001558	0.000917	-0.002766	-0.508789	-0.134277	-0.524170	-6.179977	28.043067	-52.065258
57963		-4.607305	-0.932692	8.647477	-0.001925	0.001425	-0.006407	-0.510498	-0.136230	-0.523438	-6.178918	28.041277	-52.064018
57964		-4.602251	-0.943300	8.625796	-0.002496	-0.000334	-0.006179	-0.510498	-0.130127	-0.526611	-6.177834	28.038580	-52.064354
57965		-4.621434	-0.952852	8.653005	-0.003895	0.002293	-0.006916	-0.508057	-0.133789	-0.522461	-6.178093	28.037211	-52.061532
57966		-4.602551	-0.944393	8.625516	-0.002387	0.005303	-0.003731	-0.513428	-0.134766	-0.524902	-6.176388	28.037875	-52.060682
57967		-4.593623	-0.935872	8.678412	-0.002337	0.001375	-0.004149	-0.517090	-0.135254	-0.523438	-6.174867	28.036118	-52.057377
57968		-4.602979	-0.965581	8.662218	-0.004356	0.006170	-0.004240	-0.510742	-0.131104	-0.532227	-6.174474	28.037245	-52.056916
57969		-4.627769	-0.944660	8.673740	-0.003166	0.005761	-0.005114	-0.513428	-0.138428	-0.534668	-6.173887	28.037955	-52.050433
57970		-4.623281	-0.955369	8.651741	-0.004565	0.008387	-0.005850	-0.505127	-0.135010	-0.532227	-6.174174	28.040245	-52.051165
57971		-4.609604	-0.937021	8.645783	-0.005864	0.003159	-0.007424	-0.510498	-0.149902	-0.535400	-6.175760	28.039530	-52.049985
57972		-4.623888	-0.957060	8.651230	-0.008817	0.002217	-0.005447	-0.509521	-0.136719	-0.532715	-6.178159	28.038330	-52.050026
57973		-4.629229	-0.947741	8.672626	-0.002754	0.005809	-0.007370	-0.509766	-0.136230	-0.532959	-6.177974	28.039098	-52.053898
57974		-4.610486	-0.939439	8.645050	-0.006897	0.005276	-0.004519	-0.503662	-0.141113	-0.526855	-6.179092	28.039698	-52.053554
57975		-4.596701	-0.941534	8.676170	-0.007676	0.005734	-0.005902	-0.505371	-0.135010	-0.531738	-6.181308	28.040507	-52.056252
57976		-4.587246	-0.962634	8.632445	-0.005966	0.011011	-0.006584	-0.510010	-0.133301	-0.526367	-6.182707	28.044247	-52.057642
57977		-4.607219	-0.952057	8.622181	-0.005136	0.006626	-0.005620	-0.508789	-0.135986	-0.525146	-6.183443	28.045556	-52.055820
57978		-4.607790	-0.952709	8.621804	-0.003375	0.007976	-0.006722	-0.507080	-0.138672	-0.524414	-6.183300	28.047558	-52.057087
57979		-4.569963	-0.976203	8.640947	-0.008506	0.010117	-0.006864	-0.508789	-0.134033	-0.532227	-6.186405	28.050666	-52.060518
57980		-4.532446	-0.999665	8.659935	-0.006064	0.014377	-0.000265	-0.508301	-0.132568	-0.524414	-6.186054	28.056713	-52.058065
57981		-4.601835	-0.945834	8.672980	-0.002385	0.018787	-0.000437	-0.509033	-0.137207	-0.528809	-6.184043	28.065230	-52.052647
57982		-4.666270	-0.902072	8.664308	-0.003320	0.017534	-0.003850	-0.515869	-0.145996	-0.530518	-6.183311	28.072853	-52.052728
57983		-4.657508	-0.922976	8.620204	-0.008400	0.015748	-0.004413	-0.515869	-0.138184	-0.526367	-6.185769	28.079303	-52.054150
57984		-4.606165	-0.927424	8.633440	-0.007209	0.015339	-0.005287	-0.508789	-0.133057	-0.527100	-6.187630	28.085587	-52.055006
57985		-4.644575	-0.995739	8.627897	-0.006587	0.013171	-0.005934	-0.516602	-0.139648	-0.523438	-6.189461	28.090435	-52.053022
57986		-4.622340	-0.948218	8.637759	-0.005343	0.008838	-0.007228	-0.509521	-0.136963	-0.529785	-6.190630	28.092895	-52.054676
57987		-4.637237	-0.968149	8.642846	-0.005965	0.011003	-0.006580	-0.507813	-0.137939	-0.531006	-6.192203	28.096438	-52.054917
57988		-4.614769	-0.940932	8.689887	-0.005135	0.006621	-0.005619	-0.508057	-0.143311	-0.533447	-6.192689	28.097735	-52.055377
57989		-4.638523	-0.969631	8.641990	-0.004151	0.008429	-0.008101	-0.510498	-0.133545	-0.532227	-6.193628	28.099938	-52.059859
57990		-4.596921	-0.933295	8.661783	-0.005602	0.010494	-0.002940	-0.510254	-0.133789	-0.531494	-6.193695	28.103607	-52.058860
57991		-4.664452	-0.949564	8.652809	-0.005757	0.008785	-0.004970	-0.512207	-0.142090	-0.535889	-6.194668	28.106171	-52.053612
57992		-4.626628	-0.952667	8.634973	-0.007105	0.007484	-0.006127	-0.525635	-0.137451	-0.533447	-6.196466	28.107929	-52.054460
57993		-4.613175	-0.934349	8.628950	-0.005757	0.008784	-0.004970	-0.507813	-0.136230	-0.536621	-6.197369	28.110347	-52.047750
57994		-4.652171	-0.932769	8.645987	-0.004512	0.004453	-0.006266	-0.499512	-0.127930	-0.527832	-6.197624	28.110369	-52.048476
57995		-4.642009	-0.974118	8.639613	-0.006998	-0.000365	-0.006972	-0.505859	-0.140869	-0.530762	-6.199651	28.107753	-52.047508
57996		-4.608595	-0.967090	8.643802	-0.004873	0.000478	-0.004432	-0.507324	-0.135742	-0.527344	-6.199424	28.105625	-52.046771
57997		-4.614080	-0.957751	8.665163	-0.006536	0.009240	-0.006351	-0.511230	-0.135986	-0.530518	-6.201226	28.108357	-52.050683
57998		-4.647802	-0.966338	8.660631	-0.004458	0.000528	-0.006688	-0.500244	-0.136719	-0.527100	-6.201449	28.106117	-52.051406
57999		-4.595496	-0.950199	8.637442	-0.006328	0.007024	-0.004742	-0.509277	-0.134033	-0.531982	-6.202589	28.107705	-52.052930
58000		-4.557742	-0.973491	8.656626	-0.003843	0.011841	-0.004035	-0.497070	-0.143066	-0.533691	-6.202027	28.112074	-52.052733
58001		-4.615240	-1.009846	8.604212	-0.006228	0.012654	-0.002287	-0.508301	-0.136230	-0.537842	-6.202560	28.117150	-52.055105
58002		-4.652442	-0.878732	8.643849	-0.003897	0.015763	-0.003610	-0.507813	-0.141113	-0.532471	-6.202029	28.123779	-52.054909
58003		-4.652006	-0.949167	8.620988	-0.008089	0.005670	-0.003644	-0.504639	-0.135498	-0.529785	-6.203804	28.124734	-52.053599
58004		-4.619406	-0.962635	8.661783	-0.007783	0.013566	-0.005051	-0.505371	-0.131836	-0.530762	-6.205866	28.130022	-52.054181
58005		-4.601185	-0.974741	8.670983	-0.003013	0.011940	-0.008545	-0.508789	-0.140869	-0.527832	-6.206460	28.134214	-52.055593
58006		-4.630231	-0.972787	8.607527	-0.004204	0.007864	-0.002201	-0.510986	-0.147705	-0.530762	-6.205414	28.136432	-52.053932
58007		-4.597638	-0.965329	8.611365	-0.000680	0.010568	-0.004396	-0.508545	-0.129883	-0.531738	-6.203239	28.139924	-52.059384
58008		-4.622824	-0.964588	8.659742	-0.001665	0.008758	-0.001915	-0.510742	-0.140869	-0.531006	-6.200681	28.142668	-52.057602
58009		-4.637847	-0.963556	8.627744	-0.001720	0.012680	-0.001490	-0.512695	-0.144287	-0.523438	-6.198386	28.147629	-52.052720
58010		-4.663188	-0.942526	8.638991	-0.003219	0.009672	-0.004680	-0.502686	-0.141357	-0.529053	-6.197591	28.150722	-52.052788
58011		-4.625374	-0.965440	8.658285	0.001914	0.007539	-0.004534	-0.499512	-0.130127	-0.534912	-6.193876	28.152463	-52.059071
58012		-4.626189	-0.965653	8.657826	-0.004676	0.011733	0.000481	-0.512451	-0.132568	-0.534424	-6.192410	28.157049	-52.055949
58013		-4.670489	-0.933282	8.659381	-0.002178	0.003077	-0.002116	-0.514893	-0.140625	-0.536865	-6.190320	28.156667	-52.047956
58014		-4.632501	-0.935910	8.641730	-0.003219	0.009670	-0.004680	-0.506104	-0.138428	-0.539307	-6.189524	28.159759	-52.048023
58015		-4.652500	-0.945643	8.668442	-0.005342	0.008826	-0.007221	-0.516113	-0.140137	-0.534668	-6.190917	28.162279	-52.047863
58016		-4.633950	-0.957727	8.677837	-0.005758	0.008774	-0.004965	-0.520264	-0.136719	-0.537842	-6.191634	28.164843	-52.048052
58017		-4.601373	-0.930441	8.644605	-0.009283	0.010549	-0.008240	-0.501953	-0.132813	-0.527344	-6.195626	28.168074	-52.043798
58018		-4.635608	-0.939406	8.639685	-0.007521	0.011900	-0.009336	-0.497559	-0.138916	-0.537598	-6.198789	28.172148	-52.047030
58019		-4.650726	-0.959769	8.644533	-0.012295	0.013522	-0.005843	-0.511719	-0.136230	-0.537842	-6.203936	28.177537	-52.051617
58020		-4.613240	-0.963156	8.626542	-0.007938	0.011848	-0.007079	-0.503906	-0.139648	-0.540039	-6.206649	28.181721	-52.053388
58021		-4.652618	-0.941587	8.606231	-0.008089	0.010140	-0.009111	-0.509521	-0.138672	-0.534424	-6.210260	28.184931	-52.054386
58022		-4.639403	-0.964435	8.674180	-0.010894	0.010899	-0.005109	-0.509277	-0.141113	-0.528076	-6.214034	28.188697	-52.054818
58023		-4.649204	-0.974339	8.620417	-0.007521	0.011896	-0.009332	-0.507324	-0.141357	-0.526855	-6.217375	28.192676	-52.059326
58024		-4.597382	-0.958458	8.597064	-0.009075	0.008329	-0.006632	-0.503906	-0.135498	-0.530273	-6.220487	28.194884	-52.060562
58025		-4.674977	-0.955120	8.631233	-0.007255	0.005761	-0.008154	-0.508545	-0.138428	-0.530029	-6.223124	28.195467	-52.065550
58026		-4.689422	-0.954754	8.599416	-0.005285	0.004900	-0.007644	-0.508545	-0.133301	-0.525879	-6.224259	28.195658	-52.067199
58027		-4.694741	-0.945589	8.620892	-0.006989	-0.000373	-0.006978	-0.507813	-0.136963	-0.528076	-6.226192	28.192760	-52.067169
58028		-4.737957	-0.914028	8.622951	-0.008993	-0.009058	-0.010377	-0.509033	-0.137695	-0.532959	-6.229821	28.184830	-52.069599
58029		-4.677554	-1.019328	8.630572	-0.017745	-0.015266	-0.010794	-0.500244	-0.144531	-0.523193	-6.238584	28.173275	-52.071646
58030		-4.672244	-0.961724	8.631979	-0.017269	-0.019136	-0.013477	-0.507324	-0.136475	-0.523193	-6.247562	28.159412	-52.075364
58031		-4.635455	-1.005159	8.577712	-0.016434	-0.023516	-0.012522	-0.508057	-0.137939	-0.532959	-6.255770	28.142988	-52.085059
58032		-4.603001	-0.880433	8.664845	-0.014617	-0.021605	-0.019508	-0.505859	-0.137207	-0.533936	-6.264978	28.127341	-52.092492
58033		-4.623981	-0.910974	8.617992	-0.022236	-0.019824	-0.025826	-0.501465	-0.137695	-0.522949	-6.280753	28.112360	-52.104076
58034		-4.663976	-0.992389	8.672279	-0.026271	-0.023738	-0.029301	-0.507324	-0.138672	-0.524170	-6.299536	28.094880	-52.117668
58035		-4.650794	-0.837683	8.712530	-0.029232	-0.020216	-0.032788	-0.517090	-0.130127	-0.531982	-6.321359	28.079081	-52.137390
58036		-4.607522	-0.983652	8.650571	-0.036976	-0.010601	-0.038238	-0.505859	-0.134766	-0.537109	-6.349417	28.068508	-52.157672
58037		-4.733845	-1.030177	8.612040	-0.036432	-0.022885	-0.035889	-0.506836	-0.144531	-0.530762	-6.376285	28.051093	-52.169202
58038		-4.689106	-0.998061	8.633350	-0.038494	-0.027668	-0.038852	-0.507324	-0.140625	-0.528076	-6.404802	28.030745	-52.188629
58039		-4.655947	-0.876779	8.720807	-0.042530	-0.031597	-0.042320	-0.509766	-0.134033	-0.528320	-6.436688	28.007900	-52.215247
58040		-4.668838	-0.990202	8.629946	-0.048952	-0.034728	-0.044035	-0.512451	-0.126709	-0.527832	-6.472494	27.983179	-52.237467
58041		-4.619770	-1.098419	8.606343	-0.045574	-0.038220	-0.042795	-0.513672	-0.135742	-0.534668	-6.506094	27.956458	-52.251990
58042		-4.491628	-1.100981	8.608538	-0.034843	-0.037338	-0.036423	-0.513916	-0.141113	-0.528320	-6.531389	27.930725	-52.269070
58043		-4.554502	-1.141525	8.638267	-0.023330	-0.036903	-0.028678	-0.517090	-0.143066	-0.528076	-6.547944	27.905659	-52.279803
58044		-4.574164	-0.973438	8.638449	-0.018517	-0.033443	-0.023823	-0.515381	-0.143311	-0.528076	-6.560199	27.882958	-52.289031
58045		-4.619382	-0.974949	8.737708	-0.018083	-0.037885	-0.020621	-0.509766	-0.136719	-0.522217	-6.571210	27.857733	-52.298204
58046		-4.634176	-0.995003	8.632847	-0.026763	-0.034022	-0.023999	-0.513428	-0.137695	-0.524902	-6.588208	27.834686	-52.307487
58047		-4.578098	-1.001518	8.648226	-0.023942	-0.039265	-0.022551	-0.514404	-0.131104	-0.525146	-6.603140	27.808589	-52.315811
58048		-4.591324	-0.905812	8.737869	-0.032271	-0.045478	-0.025193	-0.512207	-0.141113	-0.528320	-6.623237	27.778938	-52.324988
58049		-4.629643	-0.926816	8.682221	-0.041108	-0.043333	-0.030593	-0.509521	-0.138184	-0.528076	-6.650273	27.750042	-52.336009
58050		-4.632424	-1.030851	8.644797	-0.048094	-0.048249	-0.032072	-0.513184	-0.137939	-0.526611	-6.681372	27.718350	-52.349364
58051		-4.526031	-1.081526	8.636318	-0.038593	-0.052020	-0.033201	-0.514160	-0.134277	-0.528320	-6.707401	27.684393	-52.363911
58052		-4.440833	-1.071526	8.677692	-0.037863	-0.038995	-0.028474	-0.513672	-0.134033	-0.527100	-6.731858	27.658196	-52.375614
58053		-4.512736	-1.120499	8.654438	-0.022040	-0.036252	-0.021589	-0.511230	-0.130859	-0.528076	-6.745503	27.633966	-52.379674
58054		-4.496196	-1.083048	8.613377	-0.015281	-0.029130	-0.021698	-0.518066	-0.139404	-0.534424	-6.755334	27.613833	-52.387755
58055		-4.416085	-1.129585	8.652906	-0.003661	-0.023020	-0.011528	-0.516113	-0.134521	-0.521240	-6.755928	27.597875	-52.386203
58056		-4.356540	-1.142659	8.645758	0.008521	-0.015139	-0.001583	-0.517090	-0.138428	-0.529053	-6.746627	27.587057	-52.382429
58057		-4.361404	-1.110729	8.631184	0.020411	-0.001106	0.007202	-0.517090	-0.137695	-0.526367	-6.728589	27.584657	-52.372119
58058		-4.295456	-1.091872	8.639450	0.029918	0.013719	0.017745	-0.514893	-0.140869	-0.529297	-6.702295	27.591553	-52.358125
58059		-4.393611	-1.094108	8.701215	0.032235	0.035422	0.028118	-0.510986	-0.134033	-0.533447	-6.672531	27.611380	-52.338961
58060		-4.432816	-1.007587	8.681757	0.038994	0.042536	0.028010	-0.513184	-0.135254	-0.531494	-6.638968	27.635345	-52.320522
58061		-4.390307	-0.975410	8.678574	0.040440	0.059037	0.034544	-0.515625	-0.135254	-0.524658	-6.603456	27.669193	-52.295797
58062		-4.499124	-1.074546	8.699467	0.046160	0.068239	0.037357	-0.514648	-0.134033	-0.527588	-6.563841	27.708382	-52.273211
58063		-4.577648	-1.053956	8.673315	0.054552	0.070488	0.039584	-0.511230	-0.133789	-0.525635	-6.519021	27.748827	-52.245990
58064		-4.647257	-1.003505	8.663373	0.058716	0.066528	0.042202	-0.516846	-0.138916	-0.537354	-6.470635	27.787324	-52.220076
58065		-4.761360	-0.892480	8.752358	0.049450	0.059046	0.036160	-0.515381	-0.137451	-0.531250	-6.429325	27.821113	-52.194285
58066		-4.668894	-0.930252	8.628471	0.044503	0.049357	0.034747	-0.508545	-0.135498	-0.527100	-6.390679	27.849322	-52.171849
58067		-4.593898	-1.039803	8.643185	0.039816	0.038022	0.029043	-0.517822	-0.131836	-0.535645	-6.356257	27.870642	-52.150790
58068		-4.634471	-1.061151	8.562906	0.046318	0.032716	0.035796	-0.512207	-0.140869	-0.538818	-6.315660	27.889416	-52.126437
58069		-4.746779	-0.723838	8.795560	0.034304	0.026576	0.027851	-0.515137	-0.132813	-0.528809	-6.284389	27.904223	-52.100654
58070		-4.906605	-0.711786	8.752543	-0.005792	0.013274	0.009300	-0.506348	-0.137695	-0.526855	-6.280973	27.910242	-52.091971
58071		-5.036331	-0.768561	8.883640	-0.050812	-0.000126	-0.007788	-0.513672	-0.136963	-0.531982	-6.308272	27.907496	-52.092094
58072		-4.883951	-0.673308	8.762362	-0.098038	-0.005993	-0.032425	-0.509277	-0.138672	-0.518799	-6.369650	27.899911	-52.108926
58073		-4.700395	-0.894184	8.709029	-0.120510	-0.019207	-0.045550	-0.511719	-0.142822	-0.530029	-6.447544	27.883821	-52.134819
58074		-4.601587	-1.141391	8.674047	-0.117653	-0.023933	-0.049958	-0.513428	-0.147217	-0.524902	-6.524805	27.864851	-52.161601
58075		-4.582567	-1.047069	8.766302	-0.124428	-0.031102	-0.049827	-0.513184	-0.135742	-0.532471	-6.605711	27.841647	-52.194273
58076		-4.835056	-0.966958	8.772703	-0.144328	-0.038408	-0.054287	-0.520996	-0.135498	-0.525635	-6.698995	27.814083	-52.222681
58077		-4.630020	-0.921640	8.628722	-0.162473	-0.048865	-0.074067	-0.512939	-0.128662	-0.523926	-6.808349	27.779045	-52.259752
58078		-4.565053	-1.063369	8.671830	-0.161956	-0.042718	-0.079651	-0.517578	-0.132568	-0.533203	-6.919083	27.747200	-52.304001
58079		-4.455314	-1.109357	8.736205	-0.174265	-0.028230	-0.097037	-0.518311	-0.135010	-0.528320	-7.042735	27.722214	-52.355247
58080		-4.598677	-0.875452	8.833440	-0.194908	-0.010452	-0.114103	-0.514160	-0.123047	-0.527100	-7.183726	27.706099	-52.424029
58081		-4.684969	-0.836219	8.837241	-0.239865	-0.003492	-0.142681	-0.513916	-0.126221	-0.522217	-7.359406	27.691565	-52.505636
58082		-4.263645	-1.004144	8.749563	-0.265984	0.032458	-0.163729	-0.517578	-0.126465	-0.519287	-7.557515	27.695770	-52.609740
58083		-4.043715	-0.871800	8.917736	-0.272400	0.093002	-0.156640	-0.513428	-0.125000	-0.533691	-7.759794	27.734273	-52.710085
58084		-3.891047	-0.985693	8.794689	-0.278806	0.139412	-0.147027	-0.509521	-0.122070	-0.519287	-7.964836	27.799840	-52.813050
58085		-3.814733	-1.191572	8.827147	-0.281613	0.245261	-0.137483	-0.511475	-0.121338	-0.519287	-8.173607	27.925719	-52.915088
58086		-4.075108	-1.034050	8.893263	-0.270447	0.307483	-0.122593	-0.512207	-0.127441	-0.520508	-8.374600	28.087940	-53.018816
58087		-4.032154	-1.119811	8.972945	-0.258684	0.383106	-0.108476	-0.504883	-0.121582	-0.523682	-8.568704	28.293383	-53.120383
58088		-4.148933	-1.204961	8.983936	-0.253076	0.464814	-0.095044	-0.508057	-0.122803	-0.527100	-8.760096	28.546470	-53.223465
58089		-3.952335	-1.509262	9.137981	-0.236467	0.547276	-0.077176	-0.502686	-0.119873	-0.531494	-8.941478	28.847054	-53.323585
58090		-3.856561	-1.664777	9.394786	-0.236611	0.652903	-0.056444	-0.500732	-0.112305	-0.532959	-9.122856	29.209456	-53.423493
58091		-3.466518	-1.469881	9.751621	-0.255460	0.767187	-0.038916	-0.486816	-0.115234	-0.530762	-9.316924	29.637338	-53.521828
58092		-1.941731	-0.211093	10.710554	-0.326384	0.985315	0.044677	-0.480469	-0.102539	-0.535645	-9.538028	30.196504	-53.595549
58093		-1.256651	1.801678	13.364606	-0.788234	1.330311	0.194907	-0.471924	-0.102295	-0.531982	-9.996450	30.964172	-53.615338
58094		-0.561536	-3.678550	12.124661	-0.992616	1.817961	0.404223	-0.464844	-0.099854	-0.536865	-10.534570	32.028486	-53.561837
58095		-2.262348	-4.484973	10.232242	-0.801429	2.284453	0.401832	-0.434326	-0.090088	-0.537598	-11.000636	33.354613	-53.579970
58096		-4.205720	-3.008123	10.965396	-0.712623	2.466587	0.545254	-0.412598	-0.078857	-0.540527	-11.382239	34.799777	-53.537047
58097		-3.818197	-1.484117	10.929079	-0.845201	2.483265	0.699026	-0.401123	-0.074463	-0.538330	-11.785313	36.271135	-53.401995
58098		-4.057845	-2.374242	11.281259	-1.057047	2.322473	0.896826	-0.371094	-0.062744	-0.541504	-12.215646	37.677774	-53.114928
58099		-1.766659	-6.267875	12.854326	-0.906640	1.857760	0.929484	-0.356445	-0.049072	-0.539551	-12.499244	38.828427	-52.738403
58100		-0.564180	-6.735203	13.943660	-0.592942	1.220735	0.638315	-0.342285	-0.052979	-0.543945	-12.666618	39.588973	-52.469972
58101		-0.995594	-8.612367	13.594650	-0.225251	0.681907	0.478122	-0.330078	-0.044678	-0.538574	-12.639079	40.026581	-52.229478
58102		1.974578	-6.367301	13.105073	0.278460	0.015008	0.439646	-0.323975	-0.051758	-0.531250	-12.268734	40.087533	-51.906069
58103		3.017229	-2.571311	12.472996	0.456902	-0.465272	0.508616	-0.332520	-0.050537	-0.550781	-11.716689	39.883009	-51.458201
58104		3.175108	-0.248596	11.734124	0.226915	-0.789333	0.634967	-0.339844	-0.053223	-0.543945	-11.210594	39.510251	-50.873585
58105		2.642007	-0.396283	10.954210	-0.086288	-1.059422	0.740120	-0.343506	-0.056641	-0.535645	-10.820496	38.990411	-50.182889
58106		2.152266	-1.646499	10.109025	-0.201964	-1.279465	0.791924	-0.342285	-0.044434	-0.538330	-10.465595	38.351858	-49.434006
58107		1.579597	-2.379332	9.384941	-0.109808	-1.409804	0.785517	-0.340332	-0.051514	-0.544678	-10.065637	37.631596	-48.686167
58108		0.980342	-2.452193	8.928802	0.043175	-1.458631	0.712047	-0.362793	-0.044189	-0.541016	-9.621317	36.875978	-47.997472
58109		0.422957	-2.406525	8.641206	0.172396	-1.412853	0.601599	-0.371826	-0.044189	-0.538574	-9.168882	36.127489	-47.407045
58110		-0.381944	-2.232616	8.717602	0.242764	-1.308446	0.481966	-0.370361	-0.041504	-0.546875	-8.744048	35.427958	-46.922881
58111		-1.695323	-2.011774	9.216740	0.226478	-1.200916	0.354410	-0.380127	-0.051025	-0.542725	-8.397169	34.771359	-46.549360
58112		-3.583083	-1.934277	9.927806	0.108846	-1.139270	0.214009	-0.383301	-0.047607	-0.544922	-8.182048	34.141089	-46.284089
58113		-5.170864	-2.013846	10.248490	-0.063650	-1.168950	0.040656	-0.387207	-0.050293	-0.547363	-8.135688	33.474731	-46.139309
58114		-6.147872	-2.527367	10.090685	-0.228331	-1.239827	-0.133414	-0.397461	-0.052002	-0.540039	-8.245044	32.758699	-46.104900
58115		-6.663878	-3.246470	9.687254	-0.318772	-1.300522	-0.285502	-0.410645	-0.041016	-0.542725	-8.458103	31.990991	-46.165817
58116		-7.270626	-3.847123	9.411036	-0.310698	-1.339866	-0.423081	-0.420410	-0.037354	-0.547363	-8.708379	31.193727	-46.308837
58117		-7.886556	-4.287564	9.114776	-0.226872	-1.392145	-0.542304	-0.427734	-0.040771	-0.539551	-8.944971	30.351246	-46.521257
58118		-8.527550	-4.223687	9.021049	-0.121371	-1.441820	-0.656872	-0.449707	-0.037109	-0.537842	-9.149041	29.474269	-46.796372
58119		-8.822744	-3.690017	8.931294	-0.077718	-1.516582	-0.786189	-0.466309	-0.035156	-0.538330	-9.359514	28.537787	-47.142551
58120		-8.812482	-2.957327	8.814830	-0.123075	-1.562817	-0.947864	-0.473633	-0.039307	-0.544922	-9.632295	27.563082	-47.578330
58121		-8.752426	-2.323818	8.583180	-0.249919	-1.570798	-1.140696	-0.492676	-0.032959	-0.536621	-10.023091	26.558583	-48.126583
58122		-8.650233	-2.369570	8.171394	-0.367699	-1.535620	-1.333835	-0.513184	-0.040039	-0.535400	-10.520449	25.554652	-48.785263
58123		-8.481844	-2.542088	7.673069	-0.378696	-1.462379	-1.499946	-0.528564	-0.049805	-0.529541	-11.055992	24.564883	-49.541605
58124		-8.495848	-2.528663	7.205890	-0.316046	-1.359156	-1.641732	-0.541748	-0.036377	-0.516602	-11.576980	23.614847	-50.380849
58125		-8.471045	-1.356474	6.723127	-0.206558	-1.219396	-1.773739	-0.559570	-0.041016	-0.518555	-12.056968	22.717388	-51.304654
58126		-9.724757	-0.369057	6.750156	-0.158436	-1.119869	-1.891372	-0.582275	-0.040039	-0.512207	-12.521714	21.857990	-52.297692
58127		-11.063059	-2.029339	6.267906	0.057756	-1.195955	-1.830012	-0.596436	-0.054199	-0.517822	-12.827838	20.954340	-53.232267
58128		-11.188847	-2.687155	5.483442	0.546351	-1.369426	-1.587706	-0.605225	-0.070313	-0.508545	-12.777083	19.985880	-53.989874
58129		-10.602352	-0.597736	4.608884	0.945038	-1.491870	-1.279371	-0.625977	-0.061523	-0.501465	-12.419996	18.987301	-54.548179
58130		-9.872351	2.142721	3.663315	0.913381	-1.480247	-0.996372	-0.636963	-0.086182	-0.502197	-12.019549	18.035778	-54.943651
58131		-9.297803	3.450606	2.281145	0.494706	-1.291551	-0.718875	-0.657959	-0.084473	-0.490234	-11.812802	17.222717	-55.203316
58132		-9.528052	3.456328	0.967406	-0.036480	-0.960692	-0.425124	-0.659668	-0.098389	-0.482910	-11.868180	16.632205	-55.330894
58133		-9.935985	1.716834	-0.029575	-0.427239	-0.588481	-0.159929	-0.670898	-0.097168	-0.485840	-12.115742	16.279998	-55.348239
58134		-10.865777	-2.727704	-5.140587	0.395901	0.305946	0.182263	-0.655273	-0.083496	-0.485596	-11.865920	16.471364	-55.276177
58135		-6.341410	3.009710	-7.899772	1.162325	1.218091	0.565227	-0.657959	-0.094727	-0.492676	-11.143056	17.217193	-55.086915
58136		-0.779735	4.909306	2.185368	1.072726	2.116699	0.779420	-0.641113	-0.099609	-0.515137	-10.456548	18.490295	-54.861268
58137		-8.528901	0.916469	16.505353	0.800613	2.095041	0.759850	-0.624268	-0.096680	-0.520264	-9.919562	19.746325	-54.629233
58138		-8.926441	2.084855	20.108907	0.342280	1.237001	0.504105	-0.610596	-0.104004	-0.525635	-9.659434	20.491935	-54.450900
58139		-1.193334	-0.537455	11.151148	-0.062920	0.837709	0.320894	-0.605713	-0.095459	-0.531250	-9.653591	20.993655	-54.339754
58140		1.719389	-0.007000	5.043021	-0.094004	1.439736	0.395535	-0.591309	-0.091553	-0.540039	-9.670147	21.842961	-54.244911
58141		-5.161158	-1.069318	8.166379	-0.081024	2.028152	0.365291	-0.583496	-0.094971	-0.545410	-9.708208	23.021160	-54.229830
58142		-10.457361	-3.654923	12.511557	0.029338	1.843569	0.269441	-0.556152	-0.090576	-0.547607	-9.698551	24.086422	-54.254410
58143		-8.076867	-3.333015	10.826873	0.099712	1.466898	0.184282	-0.558105	-0.086426	-0.563232	-9.654342	24.930392	-54.291752
58144		-9.457663	-5.338053	10.565189	0.372342	1.503547	0.259169	-0.535400	-0.094238	-0.559570	-9.435052	25.802614	-54.284096
58145		-13.957269	-5.178013	10.848668	0.662535	0.953162	0.272505	-0.530762	-0.098145	-0.570068	-9.018921	26.364601	-54.206521
58146		-5.845909	-0.029273	8.524846	0.658917	0.544845	0.170208	-0.530518	-0.101563	-0.567871	-8.612849	26.686047	-54.148595
58147		-7.303055	1.924729	11.590960	0.506605	0.466067	0.197628	-0.528076	-0.101563	-0.576904	-8.281876	26.964973	-54.063569
58148		-4.982009	0.521290	9.113236	0.320771	0.159777	0.167220	-0.525635	-0.107910	-0.575439	-8.052020	27.067178	-53.968031
58149		-5.750348	-0.358023	9.201534	0.243958	0.142417	0.117997	-0.517822	-0.106934	-0.575195	-7.879629	27.155545	-53.901930
58150		-5.126374	-0.134360	9.049214	0.183832	0.029393	0.102827	-0.516357	-0.113525	-0.579102	-7.741175	27.178193	-53.835224
58151		-4.797612	-1.421770	8.825656	0.170629	-0.024074	0.119004	-0.516113	-0.116943	-0.573730	-7.603575	27.171843	-53.753571
58152		-4.791083	-1.395538	8.637764	0.181973	-0.047868	0.114790	-0.519775	-0.103271	-0.572510	-7.459673	27.151215	-53.672586
58153		-4.808263	-0.791095	8.845952	0.169693	-0.064072	0.106328	-0.522461	-0.107910	-0.586182	-7.324885	27.120861	-53.595785
58154		-4.636883	-1.025130	8.783662	0.150155	-0.072406	0.086016	-0.517578	-0.118408	-0.568359	-7.206816	27.083868	-53.531326
58155		-4.503646	-0.904535	8.827208	0.127871	-0.040480	0.067349	-0.525635	-0.116211	-0.576660	-7.108318	27.063873	-53.481475
58156		-4.557847	-0.900436	8.875001	0.107172	-0.037540	0.058658	-0.520996	-0.114746	-0.582031	-7.024204	27.044577	-53.437415
58157		-4.596841	-0.928081	8.856925	0.083500	-0.023860	0.031392	-0.528809	-0.114746	-0.572510	-6.962205	27.031396	-53.411896
58158		-4.564092	-0.885608	8.958686	0.034421	0.001673	-0.016243	-0.525879	-0.121338	-0.578125	-6.942935	27.029130	-53.418765
58159		-4.641961	-0.478432	9.140866	-0.017101	0.020761	-0.047020	-0.523193	-0.122803	-0.565430	-6.962904	27.035870	-53.446791
58160		-4.522952	-0.518172	9.101215	-0.073162	0.038649	-0.066836	-0.519775	-0.118408	-0.573730	-7.021280	27.051099	-53.488858
58161		-4.335853	-0.999335	8.861094	-0.108518	0.059131	-0.075433	-0.516113	-0.110352	-0.569580	-7.103240	27.077603	-53.538059
58162		-4.266186	-1.073914	8.820305	-0.119739	0.078810	-0.071609	-0.520264	-0.113770	-0.575684	-7.191220	27.115221	-53.586456
58163		-4.310576	-1.484639	8.817811	-0.108813	0.098554	-0.055862	-0.512695	-0.114502	-0.575195	-7.269213	27.165399	-53.626470
58164		-4.253003	-1.941732	8.669701	-0.074031	0.119262	-0.023434	-0.523193	-0.111816	-0.569336	-7.318592	27.229401	-53.647546
58165		-4.176009	-1.777691	8.611115	-0.017797	0.125803	0.008330	-0.522949	-0.107422	-0.575684	-7.326844	27.299676	-53.648921
58166		-4.394334	-1.670022	8.589789	0.029114	0.133743	0.042863	-0.518555	-0.117920	-0.572998	-7.298263	27.376737	-53.628823
58167		-4.408347	-1.432706	8.537358	0.071496	0.130742	0.065874	-0.518555	-0.113281	-0.582031	-7.238590	27.453975	-53.593713
58168		-4.670684	-0.840688	8.705704	0.089692	0.110979	0.074892	-0.519775	-0.112305	-0.570068	-7.164841	27.520362	-53.551053
58169		-4.691407	-0.622806	8.770658	0.061593	0.102002	0.056512	-0.516846	-0.118652	-0.573730	-7.112369	27.580524	-53.519400
58170		-4.322793	-0.797599	8.722209	0.019171	0.115017	0.030539	-0.515381	-0.115479	-0.578125	-7.092199	27.645998	-53.505342
58171		-3.936539	-1.008247	8.719751	-0.011224	0.163109	0.019002	-0.507568	-0.114258	-0.582275	-7.094767	27.738222	-53.502548
58172		-4.251916	-1.148389	8.670337	-0.027162	0.196550	0.019558	-0.499756	-0.117188	-0.589600	-7.107428	27.849275	-53.502051
58173		-4.539228	-0.900208	8.562924	-0.035841	0.211905	0.015367	-0.506348	-0.114990	-0.577148	-7.127038	27.968953	-53.505558
58174		-4.638129	-0.853582	8.646892	-0.056846	0.209592	0.000478	-0.515625	-0.122314	-0.583252	-7.163019	28.086062	-53.518498
58175		-4.872942	-1.111194	8.609343	-0.072369	0.193009	-0.009800	-0.504395	-0.111572	-0.578125	-7.210564	28.193189	-53.536857
58176		-4.919958	-1.235073	8.533262	-0.073223	0.175918	-0.012712	-0.506104	-0.120605	-0.584717	-7.258803	28.290187	-53.555783
58177		-4.908658	-1.408212	8.412954	-0.052408	0.148824	0.001619	-0.502686	-0.121826	-0.578125	-7.289847	28.373019	-53.563346
58178		-4.910572	-1.342977	8.460591	-0.026008	0.125424	0.016336	-0.498291	-0.110352	-0.580566	-7.300236	28.443416	-53.559472
58179		-4.858787	-1.068057	8.514134	-0.018772	0.108067	0.025305	-0.503174	-0.112305	-0.584473	-7.303162	28.504823	-53.548411
58180		-4.448814	-0.896872	8.655331	-0.030570	0.107845	0.013924	-0.503174	-0.108887	-0.585205	-7.316213	28.565056	-53.544656
58181		-4.273901	-0.702493	8.859629	-0.058662	0.147061	0.001986	-0.497314	-0.118652	-0.582520	-7.350756	28.646918	-53.551956
58182		-4.209035	-1.028252	8.766951	-0.083058	0.197959	-0.005455	-0.496094	-0.114502	-0.586182	-7.403566	28.756933	-53.568387
58183		-4.366573	-1.082752	8.794255	-0.095905	0.246674	0.002406	-0.494873	-0.114014	-0.581787	-7.463469	28.895374	-53.584016
58184		-4.904916	-1.041069	8.644295	-0.102743	0.270481	0.001811	-0.502441	-0.113037	-0.583252	-7.528488	29.047098	-53.602228
58185		-5.035906	-0.934674	8.549135	-0.111092	0.262226	-0.002892	-0.493164	-0.111084	-0.592041	-7.599683	29.193928	-53.623048
58186		-4.850042	-0.971449	8.522499	-0.129656	0.258519	-0.013803	-0.491943	-0.111816	-0.583496	-7.684905	29.337629	-53.650876
58187		-4.840792	-1.244150	8.521125	-0.138512	0.256926	-0.005873	-0.482178	-0.104492	-0.584717	-7.772879	29.481173	-53.673704
58188		-4.905561	-1.374151	8.518776	-0.124339	0.257751	0.006111	-0.490967	-0.104736	-0.590088	-7.849011	29.625917	-53.689033
58189		-4.990516	-1.337450	8.383696	-0.107380	0.243426	0.004949	-0.479736	-0.101074	-0.581299	-7.915400	29.762595	-53.704081
58190		-4.795134	-1.342558	8.377108	-0.099761	0.233307	0.016297	-0.478760	-0.107422	-0.579590	-7.973304	29.894243	-53.710948
58191		-4.644742	-1.298319	8.447637	-0.092339	0.246997	0.022568	-0.487549	-0.110596	-0.594238	-8.025731	30.034326	-53.715156
58192		-4.530775	-1.266970	8.623795	-0.099800	0.277210	0.034817	-0.476074	-0.103027	-0.589600	-8.079792	30.192355	-53.714258
58193		-4.404974	-1.191021	8.646167	-0.115021	0.328244	0.041058	-0.475342	-0.106445	-0.590088	-8.143118	30.379988	-53.714265
58194		-4.503062	-1.409586	8.699104	-0.124049	0.383377	0.057237	-0.467285	-0.102295	-0.591309	-8.208873	30.600056	-53.709041
58195		-4.766166	-1.342491	8.714448	-0.142247	0.431911	0.075044	-0.472900	-0.095703	-0.590332	-8.281671	30.849225	-53.697057
58196		-4.694246	-1.267564	8.745434	-0.143546	0.477288	0.079531	-0.462891	-0.096924	-0.590332	-8.355957	31.124392	-53.686784
58197		-4.700496	-1.052509	8.773730	-0.185903	0.534851	0.076070	-0.461914	-0.098145	-0.589355	-8.458948	31.431991	-53.684972
58198		-4.376717	-1.461128	9.006341	-0.211371	0.616584	0.087597	-0.457520	-0.089355	-0.595459	-8.577017	31.786802	-53.684268
58199		-4.561552	-1.121366	9.114118	-0.250308	0.718719	0.093420	-0.449219	-0.092773	-0.590576	-8.721445	32.199997	-53.691070
58200		-4.611812	-1.243771	9.097887	-0.300369	0.827651	0.101999	-0.441406	-0.091064	-0.586182	-8.898231	32.675576	-53.704785
58201		-4.247073	-1.387698	9.147607	-0.311806	0.964876	0.128086	-0.431641	-0.084961	-0.596191	-9.081174	33.231073	-53.717471
58202		-4.484148	-1.549141	9.133142	-0.362926	1.140223	0.166205	-0.433594	-0.089600	-0.595703	-9.291074	33.889233	-53.725839
58203		-4.743623	-1.271609	9.394186	-0.389922	1.332548	0.179388	-0.415283	-0.086670	-0.591553	-9.525600	34.657178	-53.750229
58204		-4.689145	-1.703819	9.339853	-0.304029	1.506991	0.187975	-0.397217	-0.076660	-0.602783	-9.721601	35.524536	-53.792796
58205		-5.157949	-0.562361	9.409915	-0.313146	1.697205	0.178102	-0.385986	-0.072021	-0.602295	-9.943639	36.497954	-53.869761
58206		-5.281092	-0.728247	9.164335	-0.416279	1.882497	0.143490	-0.369141	-0.074463	-0.597168	-10.258627	37.572335	-54.001150
58207		-5.042954	-1.128842	9.079808	-0.428307	2.084894	0.108125	-0.356445	-0.064697	-0.600830	-10.620977	38.756145	-54.194751
58208		-5.018070	-1.448772	8.956536	-0.386367	2.307674	0.097794	-0.329590	-0.068115	-0.604980	-10.995436	40.063530	-54.440059
58209		-4.952961	-1.868588	8.839380	-0.353389	2.538712	0.112132	-0.313232	-0.061279	-0.597900	-11.381419	41.500664	-54.725143
58210		-4.966822	-2.364929	8.455104	-0.288112	2.765843	0.168640	-0.292480	-0.057373	-0.611572	-11.743549	43.070762	-55.021942
58211		-5.115629	-2.175676	8.362405	-0.239457	3.009344	0.240765	-0.265869	-0.049316	-0.609619	-12.087721	44.783966	-55.324182
58212		-5.105743	-2.795864	8.533912	-0.214769	3.276449	0.346241	-0.236084	-0.055664	-0.607666	-12.414331	46.658798	-55.612173
58213		-4.790683	-3.182763	8.645731	-0.131080	3.612785	0.517519	-0.209229	-0.062744	-0.599365	-12.658764	48.741304	-55.844770
58214		-5.213809	-3.605462	9.587024	-0.120202	4.026983	0.727161	-0.176025	-0.052734	-0.602783	-12.843156	51.081899	-55.999213
58215		-5.110883	-4.517196	9.393303	-0.051454	4.491580	1.000122	-0.130371	-0.052979	-0.598145	-12.884253	53.715661	-56.017330
58216		-6.836414	-4.312043	9.635999	0.073602	4.952514	1.281356	-0.092285	-0.057617	-0.587402	-12.708732	56.643625	-55.858211
58217		-9.473971	-3.808540	9.847955	0.139061	5.232122	1.542212	-0.041260	-0.060303	-0.576904	-12.275650	59.758563	-55.445796
58218		-10.103095	-5.006910	9.676393	0.325625	5.365168	1.788870	0.009033	-0.063721	-0.572754	-11.397459	62.975711	-54.661222
58219		-11.400476	-2.742453	9.873147	0.440757	5.334670	1.967190	0.043213	-0.082031	-0.554443	-9.999311	66.185163	-53.396447
58220		-12.338224	-1.589657	9.868348	0.291971	5.229117	2.077741	0.087402	-0.085693	-0.539307	-8.098188	69.329594	-51.526883
58221		-12.114890	-1.590477	9.787256	0.177874	5.047120	2.161813	0.139404	-0.096191	-0.526123	-5.425494	72.344079	-48.809297
58222		-11.913955	-3.107363	9.679027	0.108144	4.855606	2.205610	0.177002	-0.101807	-0.501465	-1.600944	75.197687	-44.894683
58223		-9.783687	-4.589914	8.606727	0.175821	4.733054	2.315462	0.210693	-0.117676	-0.482178	4.323683	77.876305	-38.911128
58224		-7.829439	-5.334167	7.054236	0.308500	4.704334	2.528709	0.258301	-0.127686	-0.461426	14.202247	80.309335	-29.036686
58225		-6.668109	-5.043382	5.450036	0.549770	4.539492	2.761212	0.281006	-0.133301	-0.438477	30.441612	82.127138	-12.930871
58226		-7.081232	-1.504937	14.511603	0.372815	3.640998	2.606785	0.311279	-0.153809	-0.412842	49.496292	82.771500	6.068985
58227		-19.334389	-2.401981	22.637340	-0.395736	1.819490	2.200064	0.321045	-0.168213	-0.402832	61.296212	82.319141	18.194422
58228		-15.706539	-6.689408	20.810352	-0.603253	-0.393952	1.582037	0.323975	-0.165039	-0.407715	62.539546	81.409299	19.796808
58229		-3.834578	-7.919724	14.149438	-0.565921	-1.799265	1.099447	0.309082	-0.175293	-0.418945	58.523743	80.348940	16.055338
58230		-3.131780	-7.035789	11.589554	-0.282765	-2.567504	0.703303	0.290039	-0.170166	-0.440918	52.886277	79.181956	10.489078
58231		0.095083	-6.395809	8.911144	-0.051458	-2.908259	0.310549	0.268311	-0.167969	-0.454590	47.081139	77.967432	4.594487
58232		1.868575	-5.223548	7.248218	0.135358	-2.952573	-0.133601	0.246826	-0.160889	-0.461182	41.630641	76.806132	-1.072507
58233		1.301111	-3.461671	7.199617	0.126789	-2.904263	-0.537708	0.227539	-0.165771	-0.479736	36.422100	75.699852	-6.511533
58234		-0.303176	-2.264614	7.609350	-0.059352	-2.905313	-0.883717	0.202637	-0.153076	-0.493164	31.309546	74.594960	-11.767902
58235		-2.520680	-1.317717	8.474913	-0.329265	-3.098126	-1.188696	0.175293	-0.151367	-0.508057	26.060082	73.355907	-17.035218
58236		-4.064023	-1.211767	8.942576	-0.570183	-3.469022	-1.394643	0.144531	-0.137939	-0.523926	20.874571	71.846025	-22.129028
58237		-3.934505	-1.271931	8.738548	-0.683079	-3.849659	-1.496082	0.108887	-0.121582	-0.535645	16.100060	70.016118	-26.768244
58238		-3.638825	-0.984307	8.084580	-0.695126	-4.157915	-1.515223	0.084229	-0.101318	-0.546875	12.014682	67.911712	-30.720542
58239		-2.551644	-0.443019	7.395241	-0.675182	-4.335844	-1.473030	0.037109	-0.091553	-0.563721	8.653275	65.609201	-33.959414
58240		-2.299080	0.263392	7.250796	-0.690559	-4.357835	-1.399900	0.001709	-0.081787	-0.573242	5.940613	63.231058	-36.530446
58241		-2.773187	0.375986	7.490449	-0.746137	-4.313306	-1.325672	-0.048828	-0.071533	-0.571777	3.696655	60.822371	-38.589155
58242		-3.348926	0.141883	7.991361	-0.801007	-4.240116	-1.265874	-0.080322	-0.047607	-0.578857	1.809736	58.427773	-40.246945
58243		-4.433729	-0.423170	8.661513	-0.843395	-4.169731	-1.262956	-0.121826	-0.035889	-0.586182	0.140049	56.041340	-41.660075
58244		-5.903894	-1.386099	9.211452	-0.804871	-4.130509	-1.324254	-0.169922	-0.024414	-0.587158	-1.356398	53.664249	-42.929099
58245		-6.757806	-1.772683	9.238729	-0.681130	-4.110473	-1.475919	-0.214844	-0.017334	-0.590332	-2.735738	51.270212	-44.178646
58246		-7.130862	-1.768704	9.322650	-0.548109	-3.984207	-1.669226	-0.255859	-0.010742	-0.589111	-4.024542	48.932595	-45.452349
58247		-7.860103	-1.472069	9.639726	-0.442150	-3.781062	-1.886294	-0.293701	0.009521	-0.573730	-5.270493	46.675382	-46.794619
58248		-9.096936	-0.779093	10.710104	-0.401512	-3.560761	-2.108392	-0.329590	0.014160	-0.565918	-6.508027	44.519741	-48.208192
58249		-11.194344	0.059906	12.415460	-0.430980	-3.467634	-2.266045	-0.364502	0.026367	-0.563232	-7.739543	42.376813	-49.642640
58250		-12.414357	-0.119449	13.669917	-0.440729	-3.567088	-2.266335	-0.413330	0.036865	-0.549316	-8.855507	40.164886	-50.955358
58251		-12.926367	-0.461517	14.128716	-0.332135	-3.751969	-2.075369	-0.456299	0.035156	-0.538818	-9.712443	37.841169	-52.017919
58252		-12.950591	-0.360703	13.912486	-0.185147	-3.907743	-1.788911	-0.503906	0.041992	-0.531006	-10.275367	35.456328	-52.787539
58253		-13.169021	-0.320130	13.358439	-0.080332	-3.979943	-1.482154	-0.541016	0.045898	-0.509521	-10.605559	33.049754	-53.296459
58254		-13.281290	-0.683786	12.743676	-0.034152	-3.985165	-1.232618	-0.583252	0.062012	-0.493896	-10.788292	30.673123	-53.610547
58255		-13.857384	-1.404996	12.184165	-0.011411	-3.918910	-1.050064	-0.633545	0.066650	-0.464111	-10.887179	28.344889	-53.802737
58256		-14.163526	-1.598742	11.543946	0.010686	-3.800463	-0.978553	-0.665039	0.064941	-0.436279	-10.947707	26.098734	-53.954252
58257		-14.358782	-1.036569	10.693425	-0.048561	-3.634123	-1.038741	-0.699707	0.057373	-0.413818	-11.059715	23.931889	-54.158582
58258		-14.884144	-0.479058	9.774154	-0.188840	-3.443314	-1.182409	-0.731934	0.056152	-0.375732	-11.283116	21.863280	-54.461451
58259		-14.922260	-0.773008	8.152282	-0.318036	-3.278809	-1.346215	-0.762695	0.048584	-0.353271	-11.608500	19.860260	-54.869558
58260		-14.507273	-1.779553	6.331831	-0.276047	-3.094051	-1.410369	-0.786865	0.053223	-0.304932	-11.910100	17.958185	-55.320297
58261		-15.206165	-0.811073	5.141357	-0.125404	-2.899822	-1.371827	-0.802979	0.045410	-0.279785	-12.109008	16.161604	-55.760711
58262		-16.024378	1.499262	3.741594	-0.156270	-2.764398	-1.284567	-0.827148	0.034180	-0.250977	-12.300214	14.456121	-56.155833
58263		-17.017892	3.763606	1.832612	-0.421953	-2.635539	-1.130177	-0.834717	0.028564	-0.232666	-12.613672	12.834953	-56.468952
58264		-17.925995	5.972803	-1.076046	-0.874946	-2.512516	-0.900044	-0.845947	0.023682	-0.205322	-13.150490	11.314898	-56.651310
58265		-17.728497	7.232795	-4.595004	-1.404501	-2.307711	-0.627918	-0.856934	0.020264	-0.177979	-13.959806	9.939413	-56.689175
58266		-15.749000	6.177905	-7.611429	-1.707069	-1.808947	-0.394376	-0.865479	0.028809	-0.145508	-14.928086	8.877711	-56.645400
58267		-12.471883	2.713238	-8.505751	-1.472378	-0.967778	-0.135054	-0.863525	0.035156	-0.136963	-15.757677	8.318011	-56.569483
58268		-10.383075	-0.690179	-7.024734	-0.688334	0.001648	0.238601	-0.864746	0.042236	-0.132080	-16.129654	8.354901	-56.433330
58269		-11.242127	-2.327601	-3.502251	0.282808	0.763380	0.684364	-0.866943	0.046387	-0.126709	-15.925764	8.879918	-56.171145
58270		-12.177504	-3.778135	-1.151674	1.417063	1.780111	1.465697	-0.848389	0.057617	-0.146973	-15.020817	10.085323	-55.622919
58271		-12.127857	1.834322	-5.010628	1.433719	2.125552	1.991973	-0.836426	0.073730	-0.151611	-14.043695	11.547672	-54.806076
58272		-5.291984	1.409058	1.217721	1.443794	2.871254	2.151803	-0.816162	0.084229	-0.179932	-13.032703	13.433981	-53.969334
58273		-9.516629	-3.119065	13.672967	1.040041	3.119583	1.362726	-0.798828	0.103027	-0.186035	-12.338851	15.346757	-53.584894
58274		-7.279587	-9.158761	16.291841	0.587998	2.886538	0.256780	-0.791992	0.102539	-0.200928	-12.057904	16.992569	-53.795458
58275		-0.362994	-6.091260	10.225031	0.832848	3.354642	0.094771	-0.775391	0.119385	-0.224854	-11.688318	18.882450	-54.151969
58276		-5.142707	4.102079	10.573463	0.901896	4.139912	0.320562	-0.758789	0.128662	-0.243408	-11.274294	21.241698	-54.459357
58277		-17.909482	5.984839	15.593896	0.764665	3.901461	0.586082	-0.743408	0.128174	-0.258301	-10.873662	23.497600	-54.563951
58278		-18.595356	1.674195	14.544733	0.747804	2.809984	0.958420	-0.728760	0.137939	-0.278320	-10.330815	25.179259	-54.292981
58279		-18.174242	-7.834591	11.558441	1.151507	1.785620	1.052934	-0.712891	0.145508	-0.291504	-9.465101	26.289154	-53.824744
58280		-6.510804	-6.076262	7.832808	1.361626	1.484602	0.687944	-0.698486	0.150879	-0.291748	-8.551560	27.189005	-53.534265
58281		-9.835999	4.929274	14.910297	1.226116	1.217344	0.638994	-0.688721	0.143311	-0.306885	-7.707420	27.929912	-53.233109
58282		-5.136443	3.738067	9.668872	0.849564	0.668474	0.685431	-0.677490	0.145264	-0.313232	-7.034182	28.358059	-52.843447
58283		-7.753839	-2.797636	9.318625	0.664367	0.500616	0.528660	-0.677246	0.146240	-0.326172	-6.504017	28.677260	-52.535780
58284		-5.478943	-0.745492	9.328904	0.561037	0.424775	0.458550	-0.676025	0.155518	-0.321289	-6.049126	28.945764	-52.264433
58285		-5.434006	0.130059	9.101595	0.398497	0.385849	0.365396	-0.669678	0.150879	-0.323242	-5.713224	29.185826	-52.048295
58286		-5.219215	-1.124152	9.282832	0.299515	0.397995	0.315538	-0.677002	0.153564	-0.332031	-5.448604	29.428183	-51.863734
58287		-5.060068	-0.900669	8.985060	0.255932	0.433012	0.284933	-0.663818	0.155518	-0.330811	-5.218375	29.689059	-51.699566
58288		-5.989111	-0.451359	8.738246	0.203927	0.417231	0.254581	-0.656738	0.153809	-0.332275	-5.026031	29.937979	-51.553073
58289		-5.585544	-0.379994	8.822433	0.155560	0.378369	0.211429	-0.658691	0.156494	-0.336426	-4.873374	30.163093	-51.431427
58290		-5.827494	0.512006	8.911419	0.092834	0.381384	0.141242	-0.656738	0.160645	-0.332520	-4.779333	30.385424	-51.355691
58291		-5.935372	0.070991	8.607953	0.015760	0.347516	0.074552	-0.649658	0.153076	-0.333496	-4.750358	30.586098	-51.321611
58292		-5.704332	-1.326744	8.387532	0.018588	0.311155	0.074892	-0.649902	0.156982	-0.337891	-4.718532	30.765084	-51.285335
58293		-5.450151	-1.326958	8.432564	0.063025	0.253988	0.113364	-0.648193	0.157715	-0.349121	-4.646208	30.914166	-51.219875
58294		-5.308284	-1.494081	8.445654	0.098313	0.222104	0.148901	-0.651855	0.155273	-0.344971	-4.540383	31.045613	-51.128903
58295		-5.116589	-1.558951	8.373163	0.145692	0.199964	0.191165	-0.634766	0.160156	-0.345459	-4.391787	31.167106	-51.007917
58296		-5.175573	-0.952778	8.435112	0.179141	0.196239	0.221377	-0.641113	0.163330	-0.343018	-4.213010	31.286493	-50.866205
58297		-5.269942	-0.610775	8.445506	0.180960	0.198824	0.222654	-0.635742	0.160645	-0.343262	-4.032227	31.408008	-50.722966
58298		-5.208830	-0.449967	8.337525	0.175548	0.201058	0.218922	-0.640137	0.160645	-0.350586	-3.855327	31.529292	-50.581883
58299		-5.406176	-0.171490	8.399945	0.154523	0.204083	0.196389	-0.633545	0.158203	-0.351074	-3.697877	31.652086	-50.455275
58300		-5.353972	-0.165237	8.418725	0.130625	0.203494	0.165620	-0.633301	0.155518	-0.342773	-3.564490	31.772170	-50.348979
58301		-5.360660	-0.507146	8.394514	0.119606	0.201835	0.149553	-0.633545	0.156006	-0.355957	-3.442605	31.891533	-50.252771
58302		-5.422645	-0.445760	8.291484	0.122996	0.195335	0.141061	-0.632813	0.158691	-0.347656	-3.321335	32.005726	-50.161817
58303		-5.294978	-0.570284	8.172314	0.125334	0.183954	0.146179	-0.635986	0.157471	-0.350342	-3.196239	32.114410	-50.066360
58304		-5.296715	-0.413125	8.125555	0.132205	0.174200	0.154363	-0.622559	0.164063	-0.358154	-3.063769	32.216587	-49.964827
58305		-5.426287	-0.314615	8.067700	0.134309	0.166472	0.144635	-0.631592	0.160400	-0.352051	-2.933044	32.314861	-49.869001
58306		-5.272085	-0.340526	8.164650	0.130580	0.155913	0.130590	-0.628174	0.165771	-0.350342	-2.809092	32.405502	-49.782188
58307		-5.238008	-0.236918	8.270089	0.118035	0.161937	0.121992	-0.628906	0.158203	-0.353027	-2.695205	32.500218	-49.700869
58308		-5.095101	-0.225073	8.371402	0.103546	0.185088	0.104954	-0.632813	0.157227	-0.356689	-2.596028	32.606590	-49.631771
58309		-5.065928	-0.284863	8.472085	0.087964	0.208845	0.104036	-0.616943	0.165039	-0.354004	-2.506141	32.727447	-49.563490
58310		-5.339791	-0.019927	8.388067	0.070612	0.243717	0.095860	-0.623535	0.156982	-0.351807	-2.429558	32.866974	-49.501724
58311		-5.357415	0.079772	8.357588	0.053689	0.245986	0.085740	-0.621338	0.162598	-0.353760	-2.366060	33.008484	-49.446385
58312		-5.365896	0.466993	8.492755	0.013615	0.265581	0.042108	-0.614258	0.153809	-0.357178	-2.341966	33.159160	-49.421427
58313		-5.310753	0.220390	8.519389	-0.022760	0.296915	-0.000592	-0.614502	0.156738	-0.356934	-2.354966	33.327750	-49.426244
58314		-5.321640	0.045213	8.512106	-0.048698	0.334396	-0.018391	-0.615723	0.162842	-0.359131	-2.390364	33.516392	-49.444699
58315		-5.413363	-0.305430	8.452023	-0.054721	0.360859	-0.030548	-0.604980	0.155518	-0.356201	-2.434226	33.720841	-49.472185
58316		-5.315300	-0.333182	8.516949	-0.059262	0.380605	-0.023306	-0.610840	0.157959	-0.362305	-2.478666	33.935791	-49.495813
58317		-5.329817	-0.421180	8.487695	-0.059569	0.415312	-0.013083	-0.609619	0.161621	-0.369873	-2.519929	34.171791	-49.513389
58318		-5.367628	-0.507606	8.390465	-0.069458	0.452131	-0.004304	-0.604248	0.165771	-0.359863	-2.564485	34.428135	-49.526573
58319		-5.264376	-0.596892	8.373554	-0.074106	0.489432	0.012851	-0.605957	0.167236	-0.370605	-2.605614	34.707181	-49.528993
58320		-5.230804	-0.549677	8.288487	-0.083850	0.531999	0.033807	-0.588379	0.157715	-0.369629	-2.645098	35.010223	-49.518690
58321		-5.337073	-0.279765	8.265281	-0.111167	0.577746	0.039251	-0.597412	0.159912	-0.371826	-2.698823	35.340482	-49.506062
58322		-5.326325	-0.014438	8.402187	-0.154949	0.625554	0.018910	-0.586914	0.168457	-0.380859	-2.787259	35.696673	-49.510066
58323		-5.536956	0.622970	8.429050	-0.257839	0.684145	-0.048058	-0.583496	0.167236	-0.381104	-2.964023	36.085307	-49.564208
58324		-5.498074	0.542758	8.397877	-0.368422	0.759575	-0.108089	-0.583008	0.166748	-0.375244	-3.232883	36.514214	-49.666298
58325		-5.387648	-0.551033	8.450756	-0.325455	0.847552	-0.110953	-0.568604	0.171875	-0.376221	-3.482722	36.993782	-49.776809
58326		-5.591419	-0.618899	8.307509	-0.282917	0.929928	-0.087357	-0.572510	0.177246	-0.375244	-3.703183	37.520121	-49.877618
58327		-5.680787	-1.140317	8.092131	-0.217723	1.004280	-0.047292	-0.566895	0.167725	-0.375000	-3.873031	38.090971	-49.955689
58328		-5.596344	-1.240970	7.970740	-0.160073	1.063181	0.001161	-0.558594	0.173584	-0.386230	-3.992185	38.696472	-50.004166
58329		-5.581798	-1.309072	7.864956	-0.124109	1.116741	0.052251	-0.553955	0.176758	-0.375244	-4.070115	39.335299	-50.019320
58330		-5.598703	-1.125845	8.003210	-0.116552	1.183565	0.097273	-0.553467	0.177246	-0.391846	-4.125719	40.013421	-50.005995
58331		-5.717541	-0.999435	8.065781	-0.092510	1.266020	0.124883	-0.542236	0.173828	-0.383789	-4.157081	40.740480	-49.976736
58332		-5.901588	-0.566096	8.145379	-0.100300	1.375524	0.146740	-0.525635	0.178955	-0.396240	-4.185980	41.530370	-49.937366
58333		-6.141565	-0.303473	8.040235	-0.123689	1.477028	0.156270	-0.514648	0.178467	-0.400146	-4.226735	42.379278	-49.896333
58334		-6.156080	-0.387471	8.046559	-0.122279	1.590803	0.159224	-0.510498	0.174805	-0.406250	-4.269471	43.292744	-49.860069
58335		-6.020626	-0.348951	8.100761	-0.119981	1.718780	0.154178	-0.499023	0.178223	-0.416016	-4.318595	44.279668	-49.835612
58336		-6.106494	-0.754066	7.963589	-0.113961	1.866196	0.168238	-0.481689	0.180908	-0.418701	-4.363018	45.350902	-49.809785
58337		-6.023451	-0.789761	7.974518	-0.087692	2.003684	0.195965	-0.464844	0.184326	-0.416748	-4.381920	46.502345	-49.769925
58338		-5.971221	-0.875766	7.875611	-0.067119	2.211919	0.253040	-0.449707	0.177979	-0.421631	-4.362665	47.774802	-49.694837
58339		-5.984421	-1.109978	7.919895	-0.049793	2.434559	0.318737	-0.428955	0.182373	-0.425049	-4.298083	49.177584	-49.574091
58340		-5.810932	-1.369846	8.118144	-0.044287	2.717997	0.416518	-0.414063	0.180664	-0.427246	-4.170654	50.746002	-49.378011
58341		-5.741135	-1.648918	7.948523	-0.038725	3.040755	0.541965	-0.386719	0.180908	-0.429688	-3.950723	52.503742	-49.072645
58342		-5.766762	-1.585675	7.993728	-0.023910	3.410155	0.676346	-0.364502	0.186279	-0.436523	-3.609151	54.476650	-48.634015
58343		-5.857726	-1.585793	8.224679	-0.030156	3.852980	0.828856	-0.340820	0.191406	-0.443115	-3.116055	56.705975	-48.018765
58344		-6.044746	-2.061529	8.505953	-0.017063	4.352242	1.007793	-0.303711	0.177246	-0.461182	-2.387739	59.222207	-47.151442
58345		-6.843834	-2.422546	9.129357	-0.000284	4.887397	1.228632	-0.263916	0.189697	-0.442383	-1.289143	62.041072	-45.894116
58346		-8.408929	-2.655696	9.472073	0.033545	5.380630	1.465342	-0.226318	0.190186	-0.449463	0.380133	65.128427	-44.055384
58347		-11.270056	-1.196474	9.582817	0.037762	5.718758	1.637889	-0.180420	0.196533	-0.460938	2.807017	68.375264	-41.441614
58348		-13.452940	-2.760066	10.059034	-0.079389	5.770202	1.837486	-0.142822	0.183594	-0.438232	6.380322	71.585442	-37.594602
58349		-14.007447	-1.446108	9.777328	-0.047237	5.669823	2.004643	-0.096191	0.173096	-0.443604	11.786357	74.611737	-31.921398
58350		-14.931937	0.067840	9.581751	-0.242490	5.543363	2.090456	-0.061035	0.170654	-0.427979	19.739191	77.346943	-23.587098
58351		-14.637435	-0.137633	9.975792	-0.535205	5.371642	2.085269	-0.026855	0.156250	-0.410156	31.255880	79.618488	-11.527612
58352		-14.022990	-0.583026	10.734863	-0.837980	5.146827	2.036649	0.016113	0.144043	-0.399902	47.210388	81.177111	5.133192
58353		-11.741009	-1.783628	10.743775	-1.069013	4.834300	2.070142	0.037354	0.141357	-0.373535	66.401649	81.704680	25.152662
58354		-9.442141	-5.461560	8.746458	-0.930260	4.655281	2.341624	0.062988	0.130859	-0.362549	85.174407	81.045999	44.672110
58355		-8.291221	-5.351695	5.170110	-0.426449	4.375895	2.676267	0.080078	0.112549	-0.354492	99.149656	79.404657	59.094766
58356		-5.329288	1.472424	8.856664	-0.324155	3.656223	2.630789	0.099854	0.091064	-0.336670	107.240378	77.451393	67.538408
58357		-29.020076	1.424245	22.018671	-1.461356	1.820116	2.470002	0.087891	0.082275	-0.315430	108.714914	75.783343	69.911789
58358		-20.552698	-8.827537	19.138165	-1.442712	-0.835508	1.740239	0.062012	0.059570	-0.314941	105.014170	74.965647	66.938795
58359		-5.355317	-10.393553	11.180857	-0.659123	-2.235022	1.055394	0.041992	0.054932	-0.300781	99.529441	74.647389	61.644441
58360		-5.128094	-6.983676	8.655023	-0.030394	-2.861950	0.545529	-0.001953	0.030273	-0.290771	93.464783	74.519533	55.369168
58361		-3.334029	-5.200989	7.001817	0.182697	-3.164780	-0.090062	-0.048096	0.004639	-0.283691	86.979211	74.578201	48.529979
58362		-0.539047	-4.297427	5.270900	0.240764	-3.186516	-0.684777	-0.079102	-0.014893	-0.265137	80.329624	74.763486	41.489904
58363		-0.668448	-3.677396	5.196368	0.259151	-3.128155	-1.211289	-0.111328	-0.039063	-0.241943	73.392384	75.030745	34.149135
58364		-1.507148	-2.910978	5.671584	0.279027	-3.163375	-1.636573	-0.131836	-0.062744	-0.222168	65.902593	75.276461	26.233344
58365		-1.877245	-1.974121	6.115807	0.279289	-3.289879	-1.925429	-0.155029	-0.092285	-0.193359	57.697156	75.354328	17.584267
58366		-2.835321	-0.772662	6.715941	0.208794	-3.516438	-2.093498	-0.156982	-0.118164	-0.169434	48.961293	75.108539	8.424732
58367		-4.165857	0.239507	7.364030	0.054492	-3.803590	-2.160055	-0.171387	-0.142578	-0.160400	40.109689	74.414564	-0.782447
58368		-5.088566	0.928493	7.570175	-0.158587	-4.162431	-2.122238	-0.168945	-0.151123	-0.150391	31.806666	73.191059	-9.335084
58369		-4.933773	1.694262	7.208032	-0.396426	-4.508676	-2.016995	-0.171631	-0.174805	-0.144287	24.537868	71.447438	-16.726235
58370		-4.991868	2.247503	6.785048	-0.656583	-4.738420	-1.874761	-0.174561	-0.184814	-0.150879	18.566000	69.310770	-22.667966
58371		-4.468174	2.219712	6.059937	-0.880871	-4.813674	-1.688954	-0.166992	-0.191406	-0.153320	13.824619	66.920583	-27.234487
58372		-4.019796	2.010050	5.526926	-1.025436	-4.732566	-1.468976	-0.166748	-0.199463	-0.162598	10.174868	64.439223	-30.596760
58373		-4.352851	1.649932	5.687721	-1.099645	-4.507822	-1.240533	-0.167480	-0.202637	-0.177979	7.370657	61.984277	-33.033877
58374		-5.654804	1.193778	6.376639	-1.117641	-4.258119	-1.080010	-0.176025	-0.200195	-0.184082	5.160078	59.623613	-34.835136
58375		-7.805572	0.517736	7.339965	-1.080439	-4.100071	-1.024286	-0.179443	-0.196045	-0.197510	3.304179	57.313451	-36.288180
58376		-9.410408	-0.621462	7.875363	-0.970550	-4.069373	-1.115193	-0.181641	-0.198730	-0.208252	1.652197	55.008945	-37.610401
58377		-10.341158	-1.716726	7.880392	-0.736622	-4.101316	-1.333514	-0.193115	-0.189209	-0.217285	0.135410	52.660444	-38.968394
58378		-10.429871	-2.196833	7.552007	-0.434149	-4.119087	-1.630890	-0.210449	-0.186035	-0.231934	-1.251909	50.288770	-40.426764
58379		-10.308895	-2.018521	7.309381	-0.154928	-4.080761	-1.939309	-0.219727	-0.189209	-0.239990	-2.532377	47.904366	-42.005432
58380		-10.269164	-1.295697	7.773694	0.009738	-3.974714	-2.185281	-0.244873	-0.186035	-0.250977	-3.717369	45.559636	-43.643753
58381		-10.325403	-0.725850	8.564980	0.005783	-3.874071	-2.306280	-0.253418	-0.185059	-0.253662	-4.840614	43.236725	-45.256078
58382		-10.356528	-0.188232	9.553000	-0.103574	-3.777953	-2.283102	-0.281250	-0.179932	-0.268066	-5.888436	40.956949	-46.734200
58383		-10.589449	0.072081	10.509497	-0.290426	-3.710559	-2.145409	-0.301270	-0.189697	-0.270020	-6.874439	38.696850	-48.016447
58384		-11.405986	-0.187159	11.173137	-0.484345	-3.690529	-1.954382	-0.315430	-0.189453	-0.274658	-7.793766	36.454527	-49.073027
58385		-11.999284	-0.754394	11.388861	-0.590903	-3.704992	-1.788462	-0.344727	-0.179932	-0.270996	-8.633690	34.196688	-49.943208
58386		-12.375041	-1.224776	11.352587	-0.604086	-3.717028	-1.667165	-0.361572	-0.181641	-0.278809	-9.372388	31.941724	-50.667339
58387		-13.114841	-1.464921	11.353909	-0.558496	-3.701844	-1.624349	-0.375488	-0.182617	-0.269531	-10.023829	29.684195	-51.318016
58388		-13.814241	-1.063890	11.280989	-0.494645	-3.679841	-1.672708	-0.399658	-0.181885	-0.267822	-10.610523	27.436307	-51.957763
58389		-14.092989	-0.381888	11.142296	-0.476759	-3.638261	-1.790566	-0.408936	-0.187256	-0.270020	-11.184324	25.185828	-52.640252
58390		-14.881754	-0.267226	11.030331	-0.457525	-3.607954	-1.909407	-0.436768	-0.189941	-0.266846	-11.737727	22.940583	-53.360884
58391		-15.145975	-1.078810	10.406647	-0.342270	-3.604142	-2.009172	-0.455811	-0.195557	-0.264160	-12.210245	20.672809	-54.110332
58392		-14.487068	-2.210176	8.880334	-0.013031	-3.566086	-2.060327	-0.470459	-0.206543	-0.262207	-12.468290	18.422692	-54.867059
58393		-13.420829	-2.493844	6.940993	0.443943	-3.411775	-2.023397	-0.488525	-0.209717	-0.252197	-12.433032	16.255890	-55.609245
58394		-12.515444	-1.648089	5.126856	0.808207	-3.158149	-1.845905	-0.497314	-0.226807	-0.253662	-12.143175	14.260949	-56.277644
58395		-12.001364	0.999422	3.997063	0.847829	-2.825820	-1.532256	-0.519531	-0.235107	-0.255615	-11.779211	12.487874	-56.813157
58396		-13.018501	4.389062	3.414482	0.395488	-2.492542	-1.154358	-0.531250	-0.245361	-0.241455	-11.623506	10.953454	-57.175315
58397		-13.884438	6.095052	2.127373	-0.417200	-2.196185	-0.708055	-0.543213	-0.245605	-0.245361	-11.885401	9.632580	-57.315869
58398		-14.508360	5.815012	0.091618	-1.186126	-1.910560	-0.265294	-0.548584	-0.246094	-0.247559	-12.548527	8.528735	-57.228271
58399		-14.821165	4.273209	-2.266124	-1.570374	-1.591852	0.077642	-0.551514	-0.241455	-0.238525	-13.409958	7.644877	-56.974705
58400		-14.442117	2.324344	-4.150826	-1.464801	-1.169748	0.276615	-0.557373	-0.233398	-0.242676	-14.205706	7.030148	-56.654760
58401		-13.791883	0.595423	-4.940586	-0.948365	-0.624294	0.335403	-0.557373	-0.225342	-0.238770	-14.712676	6.727971	-56.374218
58402		-12.841735	-0.949075	-4.479290	-0.203006	-0.017173	0.344102	-0.557617	-0.227295	-0.249023	-14.803055	6.767026	-56.176198
58403		-11.771317	-1.324103	-2.552824	0.477305	0.547533	0.422910	-0.552490	-0.234619	-0.239258	-14.507622	7.129166	-56.016661
58404		-14.994635	0.479160	-3.173332	0.981654	2.019203	1.083684	-0.534424	-0.229492	-0.250488	-13.898634	8.401377	-55.692155
58405		5.860981	0.159942	-3.816571	0.886588	2.299202	1.421400	-0.540771	-0.231201	-0.262207	-13.310059	9.871697	-55.200791
58406		-11.292143	-2.782935	12.796086	1.028369	3.006407	1.513739	-0.513916	-0.228027	-0.281738	-12.629919	11.743197	-54.730461
58407		-7.871911	-6.115533	17.330423	0.616803	2.293099	0.960503	-0.496338	-0.227539	-0.278320	-12.217011	13.143119	-54.466043
58408		-1.581543	-7.740627	11.352734	0.709425	2.201128	0.594929	-0.482422	-0.225098	-0.292725	-11.789552	14.445767	-54.389286
58409		0.638421	-1.202029	6.350427	0.752907	3.040815	0.485320	-0.458008	-0.229492	-0.298584	-11.376229	16.206858	-54.466099
58410		-7.905799	1.660342	11.271826	0.468079	3.727110	0.168166	-0.445557	-0.230957	-0.302979	-11.204859	18.318015	-54.801406
58411		-13.768036	2.139685	15.531049	0.406843	3.294409	0.147446	-0.420410	-0.227539	-0.316162	-11.066580	20.184893	-55.096189
58412		-10.426565	4.806633	13.038388	0.332896	2.669592	0.457354	-0.408447	-0.228271	-0.316650	-10.884884	21.734490	-55.128949
58413		-9.703202	1.256116	12.073937	0.205870	2.431058	0.625199	-0.389404	-0.232422	-0.318848	-10.725143	23.168927	-55.026876
58414		-14.979312	-8.935670	12.907165	0.620163	1.972438	0.665250	-0.384521	-0.236084	-0.329102	-10.291413	24.347705	-54.838935
58415		-9.731170	-9.416691	7.252406	1.011839	1.324066	0.506869	-0.362793	-0.249512	-0.326904	-9.636018	25.144695	-54.664543
58416		-7.755990	-1.802171	9.455603	1.173980	1.323574	0.442278	-0.356201	-0.239258	-0.328857	-8.897965	25.931974	-54.519034
58417		-9.154816	3.742095	11.817755	0.991902	0.812481	0.420237	-0.352051	-0.256836	-0.332275	-8.242688	26.427979	-54.327171
58418		-6.496366	0.785306	9.734398	0.715926	0.445501	0.327416	-0.351318	-0.252197	-0.330078	-7.753054	26.704799	-54.155520
58419		-6.896670	-0.206500	9.840894	0.518032	0.282331	0.168374	-0.358398	-0.261963	-0.336426	-7.414335	26.877833	-54.068275
58420		-5.244288	0.592346	10.055986	0.346561	0.182613	0.138600	-0.341309	-0.255615	-0.330322	-7.178183	26.989609	-53.991186
58421		-5.018080	-0.541594	9.380851	0.228053	0.184555	0.110245	-0.337402	-0.266357	-0.331543	-7.017630	27.102353	-53.931379
58422		-5.197643	-0.814973	9.075542	0.172793	0.153372	0.101007	-0.344727	-0.263184	-0.337891	-6.890298	27.194478	-53.875142
58423		-4.181205	-0.979556	8.930126	0.132768	0.154629	0.101647	-0.346436	-0.259277	-0.332764	-6.785271	27.289397	-53.817845
58424		-4.304184	-1.430542	8.934822	0.120579	0.199834	0.124069	-0.344971	-0.260986	-0.334961	-6.682277	27.409316	-53.749848
58425		-4.769298	-1.302045	8.785808	0.121422	0.212642	0.126752	-0.339355	-0.270752	-0.330811	-6.577891	27.538695	-53.680285
58426		-4.641420	-0.823257	8.860497	0.098080	0.216968	0.110254	-0.335693	-0.264648	-0.342529	-6.491927	27.667256	-53.621797
58427		-4.833203	-1.113009	8.745396	0.085146	0.218555	0.101894	-0.342285	-0.264893	-0.333008	-6.415407	27.798215	-53.568045
58428		-5.061751	-0.600090	8.841817	0.080590	0.205254	0.094177	-0.333496	-0.268066	-0.342529	-6.343429	27.918941	-53.518536
58429		-4.902826	-0.297247	8.916057	0.043377	0.209211	0.077306	-0.334961	-0.264893	-0.331299	-6.297529	28.042938	-53.479501
58430		-4.689967	-0.623888	8.815310	0.014333	0.225110	0.065660	-0.337891	-0.264893	-0.336670	-6.272502	28.173112	-53.449476
58431		-4.408012	-1.252280	8.675447	0.012764	0.239877	0.077925	-0.336426	-0.266846	-0.333252	-6.244656	28.314579	-53.411945
58432		-4.373769	-1.790565	8.455431	0.049029	0.239482	0.117430	-0.335205	-0.258789	-0.335938	-6.184046	28.456118	-53.349155
58433		-4.634340	-1.660569	8.380896	0.099517	0.221710	0.159283	-0.337891	-0.261475	-0.339844	-6.080378	28.592118	-53.257187
58434		-4.748145	-1.262879	8.423571	0.121938	0.201600	0.175339	-0.328857	-0.277588	-0.331787	-5.958121	28.715362	-53.153493
58435		-4.685698	-0.938554	8.523046	0.142216	0.190541	0.185984	-0.317871	-0.269775	-0.346680	-5.819903	28.834827	-53.041227
58436		-4.891865	-0.672718	8.599312	0.159880	0.194051	0.195945	-0.330566	-0.265381	-0.338379	-5.668361	28.954511	-52.922707
58437		-4.969581	-0.506367	8.507861	0.157656	0.186746	0.196924	-0.322754	-0.270752	-0.335693	-5.516834	29.071914	-52.802108
58438		-4.819409	-0.886907	8.568902	0.202310	0.198038	0.216768	-0.324219	-0.269531	-0.332031	-5.333548	29.194421	-52.669203
58439		-5.190770	-1.071506	8.417800	0.227256	0.176431	0.235060	-0.318604	-0.273682	-0.337891	-5.128653	29.307273	-52.521924
58440		-5.224909	-0.690196	8.409881	0.231777	0.143865	0.229177	-0.320313	-0.272949	-0.337402	-4.921906	29.398669	-52.376510
58441		-5.052395	-0.906560	8.436803	0.231871	0.112962	0.224446	-0.324219	-0.275879	-0.334473	-4.715070	29.473880	-52.231498
58442		-4.924790	-1.279833	8.444104	0.254003	0.086995	0.238466	-0.326172	-0.276367	-0.341553	-4.490290	29.532287	-52.075999
58443		-4.936804	-0.728196	8.529913	0.249681	0.073223	0.234454	-0.324951	-0.267334	-0.334717	-4.268380	29.584277	-51.921612
58444		-4.880207	-0.161610	8.624628	0.220347	0.083000	0.210514	-0.318848	-0.275879	-0.344727	-4.071280	29.638213	-51.783624
58445		-4.801821	-0.218877	8.659172	0.180388	0.098747	0.190202	-0.321777	-0.267578	-0.338135	-3.903489	29.702109	-51.658942
58446		-4.788671	-0.217510	8.755676	0.143378	0.130226	0.155844	-0.314697	-0.272949	-0.352051	-3.768842	29.780248	-51.558497
58447		-5.008727	-0.317479	8.661158	0.117964	0.145371	0.143178	-0.312256	-0.280518	-0.343262	-3.652619	29.868519	-51.466245
58448		-4.824107	-0.402838	8.594265	0.095749	0.153735	0.127736	-0.323730	-0.271729	-0.343994	-3.554465	29.958735	-51.384781
58449		-4.853547	-0.737068	8.642049	0.090833	0.175465	0.121546	-0.318848	-0.278564	-0.341797	-3.460994	30.063168	-51.307498
58450		-4.947549	-0.608955	8.610146	0.089116	0.181232	0.127194	-0.315674	-0.281982	-0.350830	-3.366858	30.168858	-51.226965
58451		-4.790163	-0.635781	8.589812	0.081529	0.195089	0.133592	-0.313965	-0.283691	-0.344238	-3.274562	30.284686	-51.141913
58452		-4.762880	-0.704269	8.635741	0.085905	0.215372	0.142489	-0.319580	-0.282471	-0.338379	-3.177209	30.410169	-51.051926
58453		-4.965080	-0.458769	8.623308	0.083029	0.240729	0.148905	-0.311035	-0.278320	-0.346924	-3.079086	30.552316	-50.957710
58454		-4.965808	-0.285851	8.679489	0.067939	0.254538	0.146702	-0.312256	-0.280518	-0.347900	-2.990546	30.700077	-50.865558
58455		-5.025991	-0.161701	8.626737	0.050425	0.270111	0.136600	-0.308105	-0.280029	-0.341553	-2.914975	30.858409	-50.779751
58456		-5.007989	-0.135247	8.560716	0.026354	0.288685	0.123311	-0.303711	-0.285400	-0.342285	-2.858055	31.024828	-50.703606
58457		-4.655715	-0.163239	8.683265	-0.001970	0.317081	0.106036	-0.301514	-0.286377	-0.339111	-2.823057	31.209014	-50.639109
58458		-4.684768	-0.209674	8.721234	-0.037751	0.366607	0.099537	-0.297852	-0.281982	-0.345947	-2.811777	31.419278	-50.580923
58459		-4.621094	-0.415420	8.810900	-0.064591	0.421448	0.097574	-0.295654	-0.273926	-0.340088	-2.816794	31.662874	-50.525157
58460		-4.938448	0.070226	8.876832	-0.131251	0.483127	0.073738	-0.293457	-0.283691	-0.344971	-2.869770	31.939106	-50.488046
58461		-5.263930	0.713490	8.851386	-0.281985	0.544295	-0.004214	-0.289795	-0.277832	-0.345947	-3.037853	32.250048	-50.505663
58462		-5.256650	0.754392	8.805072	-0.436254	0.617045	-0.110937	-0.291016	-0.290283	-0.344971	-3.335976	32.597191	-50.600473
58463		-5.047755	0.198678	8.834780	-0.466143	0.703682	-0.165409	-0.283203	-0.270508	-0.339600	-3.674624	32.993451	-50.738009
58464		-5.025992	-0.830583	8.629206	-0.399761	0.803447	-0.125187	-0.283203	-0.267822	-0.341309	-3.965917	33.445709	-50.856497
58465		-5.221286	-1.296116	8.607577	-0.280442	0.879222	-0.062802	-0.278564	-0.275635	-0.349365	-4.168982	33.945253	-50.938188
58466		-5.308085	-1.445201	8.356747	-0.217408	0.924194	-0.003248	-0.274902	-0.271729	-0.341064	-4.316646	34.470930	-50.984018
58467		-5.199908	-1.145851	8.422729	-0.185601	0.964531	0.052278	-0.267578	-0.275879	-0.347168	-4.426103	35.023824	-50.994520
58468		-5.224659	-1.032900	8.446831	-0.160511	1.018938	0.072373	-0.255371	-0.270508	-0.352783	-4.516132	35.606842	-50.995784
58469		-5.419971	-0.657996	8.505646	-0.162332	1.096791	0.089289	-0.251953	-0.273438	-0.342529	-4.602942	36.236868	-50.990045
58470		-5.478854	-0.501958	8.493173	-0.187541	1.181073	0.091273	-0.249512	-0.273438	-0.342773	-4.707468	36.913350	-50.989610
58471		-5.508535	-0.410812	8.464166	-0.222117	1.272861	0.085277	-0.237793	-0.271729	-0.341309	-4.838274	37.643663	-51.000137
58472		-5.469525	-0.485981	8.369370	-0.254850	1.378209	0.090040	-0.224854	-0.259033	-0.350586	-4.991875	38.432613	-51.016770
58473		-5.388555	-0.997367	8.361171	-0.226897	1.503905	0.107079	-0.217773	-0.269287	-0.346191	-5.128097	39.295759	-51.031221
58474		-5.511501	-0.987703	8.237837	-0.198848	1.626668	0.134233	-0.209961	-0.263184	-0.350342	-5.243085	40.228702	-51.037042
58475		-5.479198	-1.219677	8.220787	-0.166494	1.757917	0.181961	-0.205078	-0.258057	-0.344727	-5.323000	41.240561	-51.017651
58476		-5.626009	-1.155517	8.207804	-0.146017	1.899510	0.226298	-0.196289	-0.270020	-0.344238	-5.376471	42.334051	-50.976348
58477		-5.635478	-1.025659	8.113770	-0.146581	2.051671	0.273979	-0.173340	-0.271729	-0.343018	-5.411744	43.518330	-50.908930
58478		-5.611078	-1.216007	7.988897	-0.147027	2.225220	0.319581	-0.166260	-0.260254	-0.343750	-5.430179	44.802691	-50.818304
58479		-5.657561	-1.348030	8.232328	-0.106772	2.411977	0.374847	-0.146973	-0.261475	-0.343506	-5.400094	46.197813	-50.694248
58480		-5.601652	-1.049558	8.169369	-0.113309	2.688383	0.456718	-0.136963	-0.268555	-0.337402	-5.334165	47.753672	-50.518923
58481		-5.671486	-0.823255	8.133490	-0.142663	2.988237	0.523432	-0.114746	-0.262451	-0.336426	-5.249433	49.485021	-50.300748
58482		-5.574315	-0.835081	8.254701	-0.169373	3.332474	0.591285	-0.099854	-0.263916	-0.336182	-5.140760	51.415019	-50.037440
58483		-5.606015	-0.814252	8.421149	-0.197769	3.740513	0.669573	-0.083008	-0.267822	-0.324951	-4.995486	53.582278	-49.715019
58484		-5.620547	-0.601336	8.588274	-0.230067	4.226739	0.766491	-0.051758	-0.271973	-0.320557	-4.792649	56.030449	-49.308841
58485		-5.843135	-0.831593	9.351958	-0.329143	4.805549	0.853074	-0.027832	-0.272705	-0.309326	-4.561990	58.812753	-48.814729
58486		-7.030787	-0.930641	9.738113	-0.417801	5.365391	0.960854	0.010498	-0.273926	-0.300781	-4.243038	61.917879	-48.175609
58487		-10.134782	-0.264767	10.274412	-0.574684	5.859723	1.053623	0.035156	-0.270996	-0.274658	-3.824789	65.307187	-47.344555
58488		-12.992943	-2.092018	9.693642	-0.816750	5.935862	1.147305	0.065674	-0.271973	-0.265625	-3.228517	68.740040	-46.191883
58489		-13.443850	-3.410510	9.236727	-0.765833	5.784635	1.282206	0.101563	-0.275635	-0.251953	-2.018976	72.082115	-44.445913
58490		-14.496835	-1.817688	9.225275	-0.712158	5.548599	1.449981	0.123047	-0.270996	-0.217529	0.256254	75.272109	-41.653741
58491		-14.772299	-0.911454	9.659625	-0.860482	5.255241	1.547808	0.145752	-0.285156	-0.203613	4.023956	78.246557	-37.280997
58492		-13.736756	-1.007655	9.943818	-1.082574	4.893964	1.593221	0.174072	-0.288818	-0.194092	10.246937	80.917504	-30.327782
58493		-11.631426	-3.537320	8.850263	-1.160152	4.613292	1.748689	0.195557	-0.294434	-0.171631	21.739139	83.190660	-18.059036
58494		-8.937883	-5.279123	7.460597	-0.930901	4.459997	1.999100	0.218750	-0.296143	-0.150146	43.546305	84.750666	4.398012
58495		-8.308513	-5.246917	4.594636	-0.564493	4.351015	2.373043	0.232178	-0.314697	-0.135254	74.810265	84.860150	36.106342
58496		-4.782211	-1.289465	7.830695	-0.371433	3.853329	2.540593	0.250000	-0.325684	-0.121094	97.371516	83.528910	58.990580
58497		-21.142432	-1.139927	17.874592	-0.943499	2.408596	2.590925	0.266357	-0.340332	-0.115234	105.069149	81.798944	67.292844
58498		-21.463669	-4.918184	19.266066	-0.684799	0.021868	2.171426	0.261475	-0.358643	-0.117188	102.803720	80.585981	65.394852
58499		-6.999815	-7.243394	12.088096	-0.433200	-1.451033	1.844547	0.259766	-0.360107	-0.122559	96.769119	79.684628	59.519241
58500		-5.667010	-5.715370	9.553576	0.000959	-2.239465	1.491378	0.260010	-0.370850	-0.150635	89.722807	78.899826	52.345278
58501		-4.035445	-4.312338	7.809226	0.130173	-2.691095	1.116357	0.250244	-0.384033	-0.156738	82.391887	78.152992	44.786891
58502		-1.754200	-4.003548	5.889982	0.151854	-2.847487	0.701058	0.247803	-0.388184	-0.178711	75.422482	77.440151	37.565171
58503		-1.021583	-3.965191	5.236615	0.168675	-2.884427	0.227009	0.238525	-0.400146	-0.196289	68.775951	76.804403	30.646346
58504		-1.805847	-4.102328	5.211156	0.204027	-2.911977	-0.247370	0.231445	-0.400879	-0.219727	62.306071	76.237922	23.870761
58505		-2.805276	-4.124540	5.561512	0.280726	-3.028027	-0.677459	0.220947	-0.403320	-0.238770	55.688067	75.671290	16.881615
58506		-3.846414	-3.423633	6.203320	0.319507	-3.235024	-1.050809	0.208740	-0.402344	-0.257080	48.855972	75.008123	9.628345
58507		-5.122638	-2.285345	6.850766	0.244899	-3.538842	-1.352810	0.198486	-0.395020	-0.281494	41.769289	74.124811	2.130138
58508		-5.206990	-1.446257	7.120684	0.081971	-3.903335	-1.576688	0.177490	-0.390137	-0.301270	34.736043	72.921651	-5.254839
58509		-5.344114	-0.909904	7.040513	-0.121241	-4.180356	-1.696576	0.164795	-0.385498	-0.321289	28.188325	71.374664	-12.061108
58510		-5.044988	-0.488314	6.581595	-0.293079	-4.397240	-1.734390	0.134277	-0.376953	-0.344971	22.461319	69.516542	-17.961881
58511		-4.339064	-0.185250	6.023558	-0.429858	-4.482943	-1.674401	0.113281	-0.354980	-0.380615	17.684414	67.421330	-22.832759
58512		-4.218316	0.017639	5.854259	-0.558609	-4.435066	-1.570158	0.083496	-0.349365	-0.394531	13.823455	65.215552	-26.701145
58513		-4.423991	0.066180	6.083659	-0.657729	-4.314139	-1.459661	0.059326	-0.335449	-0.415771	10.678221	62.965674	-29.779698
58514		-5.128890	0.071821	6.583063	-0.751293	-4.174900	-1.371509	0.029053	-0.329590	-0.437012	8.077334	60.730236	-32.243736
58515		-6.078917	0.094685	7.281057	-0.840551	-4.077465	-1.325116	-0.002197	-0.315918	-0.451904	5.825296	58.491137	-34.297228
58516		-6.895632	0.011940	7.895051	-0.921643	-4.046993	-1.332586	-0.032471	-0.303955	-0.469971	3.811546	56.241749	-36.064110
58517		-7.444980	-0.160996	8.476394	-0.976431	-4.033519	-1.374581	-0.067871	-0.297607	-0.472412	1.956336	53.961057	-37.645131
58518		-7.880315	-0.375099	8.870926	-0.985449	-4.037752	-1.447758	-0.101318	-0.286865	-0.482422	0.246261	51.661272	-39.085898
58519		-8.100995	-0.516845	9.185244	-0.956122	-4.032466	-1.526373	-0.131348	-0.276123	-0.487305	-1.335991	49.330189	-40.427787
58520		-8.153961	-0.855839	9.341011	-0.890686	-3.993046	-1.598682	-0.166992	-0.263672	-0.494141	-2.771581	47.008495	-41.672752
58521		-8.226059	-1.081326	9.649547	-0.784741	-3.909674	-1.650892	-0.209229	-0.255371	-0.496338	-4.056240	44.703481	-42.837764
58522		-8.776284	-1.109264	10.080325	-0.699849	-3.804690	-1.668700	-0.242188	-0.260498	-0.495605	-5.191313	42.451256	-43.906255
58523		-9.204213	-1.165641	10.700371	-0.659825	-3.707439	-1.648556	-0.275146	-0.256592	-0.492676	-6.209741	40.231095	-44.877261
58524		-10.292206	-1.141189	11.430824	-0.662544	-3.643388	-1.616778	-0.308350	-0.263672	-0.487793	-7.135556	38.047914	-45.746571
58525		-11.142571	-1.531351	11.835460	-0.686168	-3.648584	-1.560079	-0.332520	-0.257080	-0.474365	-7.986991	35.845426	-46.510778
58526		-11.574237	-2.101115	11.848246	-0.666823	-3.681833	-1.502649	-0.364258	-0.262695	-0.476563	-8.742066	33.631029	-47.169850
58527		-11.814632	-2.731157	11.686887	-0.599459	-3.690109	-1.467649	-0.392334	-0.277344	-0.457764	-9.400954	31.398330	-47.758574
58528		-12.030527	-3.290673	11.330787	-0.477954	-3.675631	-1.470594	-0.416260	-0.266113	-0.447754	-9.948681	29.178723	-48.306719
58529		-12.175250	-3.455496	11.240323	-0.340355	-3.615470	-1.529680	-0.443604	-0.274658	-0.437012	-10.407237	26.973093	-48.868577
58530		-12.513966	-3.114152	11.285388	-0.248900	-3.524244	-1.650732	-0.465088	-0.281982	-0.424072	-10.816350	24.812284	-49.484818
58531		-12.621764	-2.762217	11.135318	-0.231025	-3.415708	-1.831253	-0.485840	-0.294678	-0.416260	-11.235864	22.679428	-50.199746
58532		-12.448540	-2.439626	10.808081	-0.240999	-3.259668	-2.038045	-0.509277	-0.295166	-0.413330	-11.676972	20.615159	-51.028237
58533		-11.813428	-1.800070	10.217773	-0.237787	-3.060966	-2.258593	-0.535156	-0.302979	-0.402344	-12.134309	18.621588	-51.986786
58534		-10.563726	1.066191	9.674874	-0.270716	-2.749738	-2.532053	-0.546631	-0.303223	-0.392334	-12.630038	16.769800	-53.115928
58535		-10.666054	0.732320	8.632568	-0.440897	-2.460722	-2.721209	-0.561279	-0.313477	-0.377441	-13.224151	15.037076	-54.366062
58536		-11.911229	-2.321746	7.565629	-0.267850	-2.270153	-2.572633	-0.575684	-0.323486	-0.372803	-13.661047	13.427551	-55.529536
58537		-13.235328	-1.600055	6.713656	0.072387	-2.200246	-2.241178	-0.592041	-0.337402	-0.365479	-13.830537	11.889078	-56.498615
58538		-13.086598	1.194174	5.614198	0.115131	-2.189488	-1.904761	-0.607178	-0.337402	-0.348633	-13.910761	10.407811	-57.268442
58539		-12.631174	3.839271	4.161987	-0.231640	-2.138428	-1.571365	-0.612549	-0.350098	-0.346191	-14.140001	8.993354	-57.850782
58540		-12.971064	5.525336	2.060135	-0.819731	-2.027752	-1.179310	-0.625244	-0.341309	-0.342773	-14.660142	7.698318	-58.216701
58541		-13.362999	6.056412	-0.827113	-1.417511	-1.833851	-0.791575	-0.636230	-0.346680	-0.327148	-15.490401	6.559643	-58.379778
58542		-12.861996	4.691063	-3.586277	-1.709452	-1.475179	-0.464392	-0.638184	-0.343994	-0.323486	-16.469296	5.672263	-58.399473
58543		-11.124695	1.716370	-4.869946	-1.452561	-0.888425	-0.187590	-0.645996	-0.335205	-0.322021	-17.294369	5.149354	-58.351172
58544		-10.057808	-1.106372	-3.926498	-0.678058	-0.187357	0.091286	-0.653809	-0.328857	-0.316895	-17.672544	5.061188	-58.265127
58545		-9.999449	-2.080404	-1.674331	0.242922	0.362092	0.368923	-0.647705	-0.323486	-0.316162	-17.517955	5.319462	-58.122470
58546		-10.450305	-1.246305	1.159394	0.868025	0.688549	0.569369	-0.647461	-0.333984	-0.327148	-16.998678	5.791487	-57.923483
58547		-10.750604	0.090700	3.394483	1.002368	0.853680	0.657515	-0.647217	-0.337158	-0.335205	-16.398238	6.365894	-57.698500
58548		-10.869945	0.593369	4.862097	0.736225	0.925907	0.656857	-0.636963	-0.331543	-0.315918	-15.948329	6.978661	-57.479802
58549		-12.153307	-5.086152	2.810455	1.115944	1.744574	0.982620	-0.637207	-0.343506	-0.331055	-15.269862	8.091571	-57.200568
58550		4.708679	-0.126304	-4.322437	1.349157	1.928246	1.391083	-0.622070	-0.349365	-0.330566	-14.418795	9.362041	-56.703952
58551		-9.010535	2.053107	8.418416	1.292653	2.978261	1.546739	-0.604980	-0.347168	-0.354248	-13.594116	11.231252	-56.246226
58552		-5.584201	-1.290503	15.383552	0.671376	2.745918	1.001965	-0.595703	-0.335693	-0.357178	-13.164459	12.892943	-56.043867
58553		-1.191243	-5.525841	13.525278	0.470721	2.756891	0.602666	-0.570801	-0.340820	-0.369629	-12.896197	14.509221	-56.060481
58554		-0.983460	-1.150910	9.462691	0.374390	3.422832	0.395597	-0.551758	-0.352295	-0.371826	-12.737368	16.470003	-56.279010
58555		-7.578425	1.552974	10.918249	0.109856	3.929622	0.129490	-0.534180	-0.347656	-0.386963	-12.805660	18.681504	-56.721489
58556		-15.032482	1.249139	14.465752	0.145846	3.561017	0.258698	-0.517334	-0.352295	-0.407227	-12.828465	20.702090	-57.045054
58557		-14.036733	0.431441	13.480227	0.203213	2.775878	0.590502	-0.501465	-0.342041	-0.409180	-12.716313	22.328031	-57.064321
58558		-16.551912	-9.913843	13.869052	0.749671	2.238494	0.818687	-0.482666	-0.348145	-0.410889	-12.205677	23.679795	-56.863669
58559		-12.486943	-11.276680	7.832177	1.222750	1.465503	0.605522	-0.480469	-0.351807	-0.413574	-11.425753	24.573650	-56.675843
58560		-9.683619	-0.287622	10.459581	1.355752	1.380185	0.501348	-0.469482	-0.369629	-0.410156	-10.583648	25.402839	-56.527576
58561		-8.180645	5.722310	11.836239	1.040183	0.843291	0.513503	-0.467285	-0.377930	-0.420166	-9.885911	25.932092	-56.297550
58562		-6.632754	0.120804	9.808966	0.779998	0.706055	0.437838	-0.462891	-0.374023	-0.413330	-9.346436	26.370889	-56.093583
58563		-7.057654	-1.542631	9.617088	0.671277	0.494840	0.239810	-0.467773	-0.381348	-0.419434	-8.912042	26.674296	-55.987948
58564		-6.166154	0.701593	9.870998	0.519835	0.280647	0.215747	-0.466064	-0.378662	-0.418457	-8.560569	26.849989	-55.874772
58565		-5.477845	-0.814705	9.218878	0.384738	0.175441	0.180045	-0.466553	-0.382080	-0.417236	-8.291121	26.966344	-55.772494
58566		-4.903687	-0.477695	9.288825	0.310104	0.143924	0.149607	-0.455322	-0.380127	-0.419922	-8.071835	27.058119	-55.686751
58567		-4.047660	-0.813737	9.138924	0.248919	0.173574	0.163503	-0.453125	-0.392334	-0.418457	-7.883974	27.171428	-55.593633
58568		-4.295066	-1.381810	8.985430	0.212131	0.207040	0.168646	-0.460205	-0.384033	-0.417969	-7.717095	27.300001	-55.500400
58569		-4.575816	-1.088676	8.928320	0.183226	0.234063	0.171645	-0.452637	-0.388428	-0.416016	-7.566029	27.447736	-55.406322
58570		-4.938004	-1.029571	8.914188	0.154382	0.227835	0.158121	-0.450439	-0.389160	-0.417969	-7.435296	27.586899	-55.320588
58571		-4.910275	-0.729183	8.855066	0.112879	0.218101	0.127741	-0.451904	-0.389404	-0.413574	-7.336110	27.721960	-55.252371
58572		-4.710018	-0.461395	9.022141	0.053159	0.231399	0.086590	-0.447754	-0.388184	-0.422852	-7.284230	27.857680	-55.212146
58573		-4.752969	-0.271030	9.118217	-0.018381	0.258844	0.043063	-0.449219	-0.387207	-0.416260	-7.286765	28.009642	-55.201285
58574		-4.679086	-0.416518	8.892294	-0.088886	0.281968	0.000363	-0.450928	-0.383789	-0.429199	-7.344162	28.167813	-55.220689
58575		-4.142492	-0.719860	8.787865	-0.151530	0.327440	-0.045578	-0.447021	-0.379150	-0.418945	-7.452770	28.352214	-55.273013
58576		-4.344049	-1.286070	8.729809	-0.192749	0.371585	-0.078988	-0.443115	-0.383057	-0.421631	-7.598200	28.555272	-55.352058
58577		-4.931401	-1.621913	8.475893	-0.192989	0.365852	-0.084791	-0.443115	-0.385986	-0.420654	-7.745218	28.758201	-55.434288
58578		-5.134290	-1.690081	8.393243	-0.166190	0.323611	-0.067962	-0.436523	-0.383057	-0.429199	-7.871096	28.934540	-55.503363
58579		-5.456463	-1.663099	8.234416	-0.136109	0.262314	-0.041828	-0.442627	-0.377686	-0.421387	-7.968607	29.081812	-55.549662
58580		-5.429797	-1.180508	8.332718	-0.106014	0.194908	-0.029799	-0.432129	-0.382324	-0.424805	-8.042951	29.187964	-55.583079
58581		-5.488263	-0.877649	8.425896	-0.118899	0.146878	-0.041124	-0.426270	-0.383301	-0.434082	-8.125652	29.269761	-55.618842
58582		-5.345661	-0.815174	8.546786	-0.134500	0.113830	-0.058806	-0.431396	-0.383301	-0.427979	-8.222126	29.327482	-55.663959
58583		-5.071264	-1.037109	8.552080	-0.148441	0.098871	-0.072019	-0.429443	-0.379395	-0.423096	-8.329575	29.379461	-55.715597
58584		-4.876581	-1.324086	8.419479	-0.150260	0.093956	-0.075056	-0.431885	-0.386963	-0.429932	-8.439547	29.424414	-55.769671
58585		-4.755932	-1.463801	8.340394	-0.134298	0.089590	-0.068758	-0.424805	-0.381592	-0.425537	-8.537608	29.471247	-55.818540
58586		-4.519532	-1.400975	8.466144	-0.127710	0.109557	-0.063423	-0.427979	-0.383057	-0.428467	-8.631879	29.525869	-55.866806
58587		-4.782683	-1.286236	8.597984	-0.133702	0.136760	-0.049085	-0.426025	-0.379395	-0.429688	-8.725817	29.600949	-55.907791
58588		-4.749744	-1.188243	8.559131	-0.139681	0.154299	-0.052852	-0.427734	-0.377197	-0.428955	-8.826008	29.681689	-55.953948
58589		-4.900604	-1.175289	8.547349	-0.146121	0.173428	-0.052321	-0.428711	-0.375732	-0.424316	-8.930237	29.777089	-56.001133
58590		-4.885972	-1.224682	8.450334	-0.145819	0.183879	-0.045647	-0.427490	-0.375488	-0.430420	-9.033462	29.875070	-56.046058
58591		-5.114286	-1.067033	8.491025	-0.159055	0.180710	-0.046739	-0.422607	-0.374512	-0.425049	-9.144035	29.974930	-56.090839
58592		-5.049801	-1.325678	8.382593	-0.169782	0.180216	-0.045393	-0.425537	-0.366943	-0.432129	-9.261109	30.070712	-56.135736
58593		-5.008969	-1.439019	8.346084	-0.160119	0.169120	-0.045147	-0.421631	-0.373779	-0.425293	-9.371529	30.164016	-56.178755
58594		-5.009947	-1.618920	8.266885	-0.141695	0.158099	-0.037319	-0.427490	-0.376221	-0.425781	-9.469024	30.247906	-56.216476
58595		-4.873245	-1.659950	8.292728	-0.110767	0.158897	-0.019292	-0.420410	-0.366699	-0.427979	-9.542423	30.337755	-56.241887
58596		-4.903076	-1.695526	8.232943	-0.084324	0.153406	0.000966	-0.424316	-0.375000	-0.429199	-9.594363	30.422555	-56.254334
58597		-4.825416	-1.618282	8.361530	-0.060888	0.158898	0.016768	-0.415771	-0.369385	-0.428223	-9.627427	30.515797	-56.256360
58598		-4.995125	-1.561214	8.302056	-0.039703	0.168920	0.032635	-0.425537	-0.366943	-0.428955	-9.644222	30.612385	-56.249899
58599		-5.010172	-1.561404	8.292948	-0.016287	0.177722	0.052631	-0.415039	-0.364502	-0.429932	-9.640854	30.719680	-56.230551
58600		-5.138755	-1.616231	8.210832	0.002370	0.171317	0.070261	-0.412354	-0.375488	-0.428955	-9.620992	30.821228	-56.199597
58601		-5.170259	-1.638194	8.151790	0.021255	0.159440	0.085255	-0.413818	-0.373779	-0.422607	-9.583953	30.921299	-56.156626
58602		-5.087486	-1.415978	8.232919	0.026695	0.149401	0.090169	-0.416016	-0.374023	-0.426270	-9.541957	31.012329	-56.109918
58603		-4.831276	-1.428832	8.441223	0.021711	0.154958	0.088357	-0.412598	-0.371094	-0.429932	-9.503113	31.110112	-56.064168
58604		-4.806527	-1.459489	8.545355	0.012246	0.179515	0.099093	-0.409912	-0.377930	-0.431885	-9.467803	31.218949	-56.014648
58605		-4.940026	-1.472923	8.501858	0.007714	0.205002	0.120029	-0.409180	-0.375244	-0.430664	-9.428679	31.347893	-55.953216
58606		-4.929946	-1.093285	8.576420	-0.021600	0.226820	0.112924	-0.409668	-0.366943	-0.433350	-9.410363	31.484716	-55.899453
58607		-4.916869	-1.177908	8.527934	-0.051616	0.272583	0.112764	-0.405273	-0.375732	-0.428955	-9.411215	31.651101	-55.849984
58608		-5.101403	-1.346083	8.465157	-0.073082	0.295270	0.123463	-0.405273	-0.364502	-0.429199	-9.422320	31.827600	-55.796568
58609		-5.149658	-1.216733	8.444970	-0.089733	0.324697	0.126264	-0.403320	-0.361816	-0.432129	-9.442957	32.024681	-55.743748
58610		-5.093619	-1.491384	8.344080	-0.100186	0.346414	0.128076	-0.406494	-0.366699	-0.435303	-9.470628	32.230551	-55.692858
58611		-5.043826	-1.609613	8.290037	-0.098283	0.368667	0.137295	-0.405762	-0.359619	-0.433838	-9.494489	32.453528	-55.637528
58612		-4.877016	-1.923340	8.219743	-0.073915	0.398228	0.178540	-0.395508	-0.360840	-0.439209	-9.491629	32.693475	-55.558511
58613		-4.735353	-2.117918	8.236202	-0.006856	0.449305	0.231624	-0.395264	-0.372314	-0.431641	-9.433044	32.970840	-55.448405
58614		-4.669729	-2.065185	8.381812	0.046523	0.496538	0.289265	-0.388672	-0.362549	-0.435303	-9.325110	33.276567	-55.304550
58615		-5.126708	-1.584697	8.460258	0.054700	0.550059	0.325216	-0.389160	-0.363770	-0.436523	-9.200474	33.619117	-55.140285
58616		-5.434867	-1.164390	8.589754	0.053944	0.592418	0.322350	-0.388428	-0.364990	-0.439941	-9.078701	33.981587	-54.981743
58617		-5.449754	-0.320426	8.745667	-0.020565	0.649465	0.282229	-0.380615	-0.361572	-0.443604	-9.016376	34.375934	-54.854753
58618		-5.519253	-0.303347	8.728954	-0.099218	0.723874	0.218861	-0.377441	-0.360596	-0.440430	-9.027721	34.803222	-54.779300
58619		-5.450282	-0.223875	8.654061	-0.176827	0.813116	0.151400	-0.364746	-0.363525	-0.442871	-9.114823	35.278327	-54.759569
58620		-5.361197	-0.740388	8.542403	-0.223557	0.914420	0.106600	-0.365723	-0.359863	-0.440674	-9.254546	35.803297	-54.784172
58621		-5.265233	-1.061270	8.436463	-0.214206	1.026381	0.084576	-0.362793	-0.360352	-0.446045	-9.406043	36.392759	-54.838033
58622		-5.230934	-1.421626	8.461162	-0.201137	1.131150	0.086108	-0.344971	-0.353760	-0.441650	-9.559481	37.038164	-54.906381
58623		-5.448138	-1.660028	8.261860	-0.160523	1.247983	0.113047	-0.342529	-0.362549	-0.444580	-9.687981	37.755187	-54.971414
58624		-5.749586	-1.636667	7.966650	-0.160098	1.341802	0.142048	-0.332520	-0.347900	-0.442871	-9.813684	38.524709	-55.030742
58625		-5.744647	-1.686799	7.962197	-0.135703	1.421210	0.170803	-0.322510	-0.353516	-0.453613	-9.920120	39.344867	-55.081041
58626		-5.790801	-1.677300	7.880015	-0.117251	1.498810	0.194134	-0.316406	-0.355225	-0.459229	-10.014390	40.207974	-55.127551
58627		-5.772396	-1.621456	7.872959	-0.085061	1.595987	0.231996	-0.296387	-0.351318	-0.454834	-10.081455	41.132629	-55.160095
58628		-5.812568	-1.406985	7.918949	-0.080530	1.713564	0.257934	-0.293213	-0.343750	-0.446045	-10.145877	42.123195	-55.191629
58629		-5.735150	-1.554502	7.978178	-0.074160	1.862003	0.279947	-0.285400	-0.348633	-0.442871	-10.210104	43.202537	-55.227917
58630		-5.769941	-1.721443	7.955952	-0.026367	2.025725	0.301096	-0.265137	-0.349854	-0.450684	-10.254229	44.373454	-55.273704
58631		-5.975811	-1.263004	8.048311	-0.015516	2.217324	0.329533	-0.258789	-0.343994	-0.449463	-10.297228	45.657954	-55.325920
58632		-5.839584	-1.513560	7.963196	-0.018195	2.441262	0.374098	-0.241943	-0.352295	-0.458252	-10.343116	47.070546	-55.378602
58633		-5.998809	-1.688331	7.999330	-0.002889	2.669549	0.431366	-0.221191	-0.349609	-0.446533	-10.372832	48.620145	-55.420255
58634		-6.082870	-1.530004	7.907111	-0.000739	2.919452	0.496304	-0.197266	-0.347168	-0.446045	-10.392102	50.314813	-55.448559
58635		-6.211978	-1.629318	8.139599	-0.027778	3.219528	0.569235	-0.185791	-0.345215	-0.448975	-10.415734	52.188316	-55.462039
58636		-6.180410	-1.818966	8.335373	-0.030690	3.547627	0.653952	-0.157715	-0.343018	-0.442139	-10.425003	54.253290	-55.454989
58637		-6.407984	-2.048999	8.393936	-0.078000	3.931163	0.774441	-0.125244	-0.353271	-0.435547	-10.419361	56.548702	-55.397226
58638		-7.171027	-2.713323	8.929237	-0.064577	4.336477	0.936559	-0.097168	-0.354736	-0.428223	-10.320250	59.087416	-55.239591
58639		-8.206712	-2.765500	9.284907	-0.037355	4.699562	1.110572	-0.073242	-0.346191	-0.424316	-10.067964	61.849607	-54.928271
58640		-10.663733	-2.891601	9.346725	-0.055110	4.938043	1.305452	-0.047119	-0.359131	-0.418701	-9.584684	64.763128	-54.355163
58641		-11.861056	-2.477826	9.005119	-0.111796	4.993551	1.474487	-0.010742	-0.355957	-0.402100	-8.780268	67.721303	-53.409530
58642		-12.046124	-2.014040	9.033048	-0.266928	4.939257	1.604396	0.018066	-0.359619	-0.396484	-7.587797	70.651504	-51.973489
58643		-12.608828	-1.630548	8.681740	-0.422318	4.852461	1.714560	0.048584	-0.354248	-0.372314	-5.800047	73.525968	-49.843859
58644		-13.272675	-0.150867	8.997137	-0.675915	4.680612	1.718785	0.078125	-0.365967	-0.360840	-3.324314	76.276244	-46.882062
58645		-12.164108	0.117619	8.654612	-1.057432	4.459939	1.690087	0.085205	-0.356201	-0.341797	0.158563	78.856317	-42.698971
58646		-10.259697	-2.503558	7.937546	-1.335101	4.313664	1.727425	0.115723	-0.362061	-0.325195	5.792287	81.274344	-36.207101
58647		-7.394217	-4.382978	5.886916	-1.301240	4.292474	1.928778	0.140381	-0.358154	-0.309814	16.780120	83.477480	-24.374652
58648		-6.814409	-5.631283	3.170514	-0.971272	4.272463	2.263290	0.162109	-0.359131	-0.290527	39.259337	85.057726	-1.230993
58649		-4.812419	-4.472876	2.977076	-0.501568	4.131415	2.508581	0.189453	-0.370117	-0.280762	71.895014	85.212485	31.801923
58650		-13.307503	-0.840504	13.911730	-0.567826	3.267548	2.464711	0.186768	-0.373779	-0.273926	93.327679	84.028146	53.650106
58651		-26.680681	-5.326150	18.875338	-0.783155	1.446382	2.103114	0.195313	-0.380371	-0.260498	98.842423	82.739122	59.650401
58652		-13.615278	-6.977891	15.225924	-0.563284	-0.589332	1.450382	0.194336	-0.380127	-0.263428	95.248680	81.952855	56.347399
58653		-7.024975	-6.921889	11.389348	-0.241432	-1.800346	1.083511	0.179932	-0.388428	-0.270264	87.911089	81.359092	49.068838
58654		-5.214466	-4.889403	9.469726	0.043866	-2.502425	0.770475	0.161377	-0.395996	-0.282227	79.178538	80.754235	40.201219
58655		-1.418342	-3.137799	7.398576	0.105398	-2.733162	0.448126	0.140381	-0.389404	-0.291748	70.617452	80.094388	31.456228
58656		-0.598731	-1.661771	6.510956	-0.019945	-2.723873	0.148579	0.121582	-0.388428	-0.300537	62.857386	79.394470	23.579611
58657		-1.712216	-1.732904	6.844719	-0.210910	-2.718381	-0.095268	0.105225	-0.396729	-0.307129	55.649316	78.639207	16.358606
58658		-3.833312	-2.258798	7.395708	-0.302257	-2.876224	-0.320398	0.084961	-0.390381	-0.315918	48.701658	77.768185	9.435806
58659		-5.163577	-2.580827	7.586648	-0.277529	-3.218109	-0.490079	0.059082	-0.378662	-0.328857	41.860895	76.661696	2.583097
58660		-5.254850	-2.559186	7.448917	-0.202780	-3.621661	-0.602977	0.042236	-0.389404	-0.336670	35.484393	75.251536	-3.871939
58661		-4.555895	-2.059077	6.976356	-0.103725	-3.939309	-0.668017	0.012695	-0.373291	-0.337646	29.879723	73.547665	-9.629809
58662		-3.876936	-1.110178	6.467381	-0.104489	-4.109842	-0.674571	-0.021973	-0.368408	-0.349365	25.257040	71.633945	-14.413543
58663		-3.669379	-0.173583	6.198191	-0.238928	-4.181643	-0.672160	-0.045166	-0.359619	-0.344482	21.403708	69.574981	-18.353979
58664		-3.712760	0.182945	6.129638	-0.465098	-4.192237	-0.697483	-0.080811	-0.359619	-0.345703	18.125640	67.445493	-21.592713
58665		-4.014673	0.073196	6.297563	-0.689542	-4.137154	-0.757827	-0.108887	-0.360352	-0.341797	15.215199	65.287236	-24.338713
58666		-4.607191	-0.356267	6.643711	-0.826668	-4.059607	-0.862803	-0.144043	-0.353027	-0.335693	12.597859	63.144686	-26.721837
58667		-5.445662	-0.592091	7.226979	-0.882686	-4.011183	-0.973589	-0.163086	-0.342529	-0.330322	10.196956	60.989371	-28.867175
58668		-6.378001	-0.270988	7.775314	-0.921676	-4.008002	-1.091426	-0.189453	-0.346924	-0.320557	7.984169	58.817393	-30.817003
58669		-6.996910	0.194073	8.198478	-0.994366	-4.023635	-1.212575	-0.201904	-0.344482	-0.295410	5.877960	56.599509	-32.634707
58670		-7.454303	0.323661	8.412967	-1.080160	-4.051985	-1.315742	-0.219971	-0.340576	-0.289063	3.886361	54.347540	-34.303660
58671		-7.355225	0.078377	8.147233	-1.116687	-4.045313	-1.379743	-0.220947	-0.341064	-0.281250	2.028098	52.059997	-35.825329
58672		-7.129547	0.136595	8.102257	-1.118220	-3.938585	-1.403240	-0.228027	-0.341553	-0.283447	0.345325	49.817814	-37.170429
58673		-7.678141	0.298833	8.306061	-1.141646	-3.782257	-1.360982	-0.229980	-0.339355	-0.279297	-1.180923	47.631278	-38.331041
58674		-8.101094	-0.145470	8.554253	-1.154522	-3.616506	-1.305957	-0.242920	-0.340332	-0.280029	-2.555671	45.533432	-39.316381
58675		-8.143694	-0.637996	8.672111	-1.101453	-3.422123	-1.275009	-0.229492	-0.339355	-0.283447	-3.798199	43.521339	-40.188598
58676		-8.844734	-1.207027	9.062703	-1.017144	-3.181916	-1.279209	-0.240234	-0.329102	-0.280762	-4.919823	41.645512	-40.988667
58677		-10.465791	-1.872516	9.907993	-0.890375	-2.986654	-1.373972	-0.243408	-0.333740	-0.294434	-5.965699	39.853489	-41.809702
58678		-12.216631	-2.487074	10.614000	-0.699693	-2.959364	-1.583380	-0.245361	-0.325439	-0.300293	-6.936301	38.064519	-42.719839
58679		-12.609419	-3.114065	10.594373	-0.429719	-3.027759	-1.837040	-0.254395	-0.331299	-0.312500	-7.804371	36.195467	-43.750248
58680		-12.310792	-2.896749	10.323884	-0.129680	-3.060591	-2.051346	-0.255615	-0.334473	-0.321533	-8.519886	34.290654	-44.865880
58681		-12.049382	-2.145672	10.092065	0.068815	-3.055632	-2.193203	-0.263428	-0.324951	-0.320801	-9.120142	32.354787	-46.030423
58682		-12.658883	-1.498003	10.381303	0.118882	-3.034948	-2.295636	-0.280273	-0.328125	-0.339600	-9.665995	30.422483	-47.214163
58683		-13.223107	-0.882231	10.282896	0.072461	-3.099046	-2.408675	-0.274170	-0.339844	-0.352539	-10.217636	28.422711	-48.421989
58684		-12.566217	-0.987406	9.435792	0.018990	-3.156985	-2.479989	-0.299561	-0.339844	-0.361084	-10.756079	26.383485	-49.621103
58685		-11.443904	-1.556501	8.300304	0.055985	-3.099656	-2.467488	-0.307129	-0.344971	-0.374268	-11.220554	24.358914	-50.781015
58686		-10.583130	-1.737448	7.581572	0.177703	-2.936613	-2.401801	-0.327637	-0.347656	-0.394775	-11.554611	22.435845	-51.885205
58687		-10.638526	-1.558303	7.602660	0.287173	-2.732447	-2.330017	-0.343018	-0.359131	-0.408691	-11.779639	20.621845	-52.948519
58688		-10.798539	-1.476011	7.764444	0.349896	-2.587114	-2.280322	-0.350830	-0.363037	-0.421143	-11.925288	18.900907	-53.980048
58689		-10.108504	-1.542036	7.668477	0.414934	-2.465130	-2.241997	-0.374023	-0.373535	-0.428711	-12.000599	17.243055	-54.991836
58690		-9.075499	-1.158021	7.495514	0.469836	-2.309195	-2.218866	-0.382324	-0.378906	-0.441895	-12.013857	15.682586	-55.997901
58691		-7.972021	1.713051	7.447114	0.457974	-2.102974	-2.226704	-0.404297	-0.398438	-0.453857	-12.016161	14.229525	-57.027498
58692		-8.768688	3.103910	7.773335	0.147811	-1.925122	-2.204632	-0.406250	-0.402588	-0.460205	-12.170101	12.884497	-58.056792
58693		-10.340447	0.821649	7.570071	-0.055076	-1.834150	-1.973598	-0.432373	-0.403564	-0.464844	-12.390724	11.609049	-58.956040
58694		-10.574988	-0.943546	6.839736	0.094730	-1.847953	-1.626897	-0.447754	-0.415039	-0.474854	-12.465658	10.372633	-59.647723
58695		-9.749166	-0.139120	5.958196	0.298445	-1.839288	-1.287190	-0.462891	-0.416504	-0.473633	-12.377232	9.177961	-60.145691
58696		-8.859362	1.712859	5.374968	0.221712	-1.707717	-0.979311	-0.477051	-0.430420	-0.476807	-12.298529	8.100404	-60.485194
58697		-8.434444	2.767217	4.842012	-0.133520	-1.489451	-0.690530	-0.493652	-0.425049	-0.484619	-12.399733	7.176414	-60.687988
58698		-8.991615	2.615141	4.611606	-0.576927	-1.265129	-0.389321	-0.508789	-0.426025	-0.495850	-12.734370	6.418587	-60.744966
58699		-10.094274	1.742165	4.483530	-0.893752	-1.151283	-0.087470	-0.510254	-0.426270	-0.497803	-13.232788	5.759989	-60.641882
58700		-9.884679	0.780836	3.730514	-1.000077	-1.111961	0.178417	-0.529785	-0.414795	-0.493896	-13.779069	5.162639	-60.389091
58701		-8.971283	0.326239	2.617559	-0.913600	-0.978601	0.420049	-0.539795	-0.410889	-0.504150	-14.267466	4.673776	-60.015049
58702		-8.456684	0.094888	1.882976	-0.731375	-0.706537	0.620618	-0.550049	-0.400146	-0.500977	-14.648353	4.368878	-59.564770
58703		-8.882905	-0.042540	1.696087	-0.558613	-0.376437	0.769139	-0.555664	-0.394531	-0.506836	-14.928736	4.270839	-59.078804
58704		-9.699770	-0.196533	1.741233	-0.413954	-0.090674	0.862056	-0.559082	-0.390381	-0.510010	-15.126027	4.347083	-58.583405
58705		-10.031788	-0.302743	2.004750	-0.302831	0.139994	0.908629	-0.562500	-0.375000	-0.510742	-15.258647	4.560204	-58.096948
58706		-8.498209	-2.270636	2.296968	-0.182508	0.334638	0.939185	-0.550537	-0.374023	-0.519043	-15.321555	4.885428	-57.623330
58707		-11.483423	-4.414948	-2.073476	1.304022	1.542255	1.319376	-0.538818	-0.384766	-0.523682	-14.523363	5.934435	-57.114435
58708		9.454250	1.710080	0.999352	1.275703	2.013967	1.773440	-0.523682	-0.388916	-0.530029	-13.707652	7.299625	-56.402229
58709		-9.664586	1.426616	14.635700	0.825443	2.229266	1.489808	-0.516846	-0.384766	-0.536377	-13.156096	8.740786	-55.859667
58710		-2.382429	-7.440732	14.140350	0.448625	1.950226	1.031565	-0.491211	-0.383301	-0.544189	-12.842365	9.960731	-55.527267
58711		1.370221	-5.799431	9.736174	0.597439	2.254018	0.808771	-0.472168	-0.385742	-0.553467	-12.464596	11.323318	-55.351233
58712		-2.652772	-1.941489	8.430760	0.478073	2.886526	0.527304	-0.452148	-0.384766	-0.573486	-12.199774	13.001733	-55.407147
58713		-7.846796	-0.680402	10.458756	0.268789	3.103712	0.189132	-0.437012	-0.388428	-0.576172	-12.108534	14.763757	-55.679864
58714		-8.323606	0.195000	12.974545	0.284821	2.938448	0.204363	-0.407471	-0.391357	-0.587891	-12.007939	16.432856	-55.922594
58715		-7.204028	2.204069	13.612493	0.277577	2.714422	0.476521	-0.381592	-0.394531	-0.580322	-11.861690	18.012373	-55.975639
58716		-6.869732	1.359313	11.758077	0.117687	2.577138	0.588078	-0.364258	-0.395264	-0.588135	-11.781156	19.524836	-55.943214
58717		-7.255141	-2.634418	10.205197	0.057272	2.535749	0.441626	-0.334473	-0.394287	-0.602295	-11.761371	21.000599	-55.990806
58718		-8.317578	-6.292395	10.282149	0.288447	2.448723	0.300981	-0.317383	-0.397217	-0.605469	-11.638106	22.407589	-56.111612
58719		-11.653856	-9.848976	10.185227	0.996597	2.114149	0.476364	-0.303955	-0.403809	-0.598145	-11.049818	23.651171	-56.075383
58720		-9.385996	-5.816195	7.856762	1.281125	1.671334	0.545270	-0.278809	-0.409424	-0.605957	-10.253290	24.648107	-55.929194
58721		-9.965082	0.040745	10.194608	1.294958	1.332801	0.565251	-0.278320	-0.427246	-0.600098	-9.419117	25.458754	-55.716792
58722		-8.422909	2.104345	10.682567	1.128734	0.837844	0.546306	-0.265625	-0.428711	-0.604736	-8.655555	25.980009	-55.453703
58723		-6.704741	0.191791	10.273990	0.954541	0.564219	0.439558	-0.261719	-0.441162	-0.604980	-8.004693	26.339717	-55.223887
58724		-6.992673	1.211980	10.218210	0.763612	0.322747	0.340303	-0.261963	-0.439209	-0.592773	-7.479186	26.547143	-55.032288
58725		-6.021596	1.450923	9.975268	0.536419	0.166558	0.282531	-0.261475	-0.455078	-0.601074	-7.092530	26.665845	-54.861731
58726		-5.586882	-0.014614	9.545706	0.374248	0.102129	0.212665	-0.266113	-0.455811	-0.593018	-6.816537	26.736564	-54.730653
58727		-5.258198	-0.182092	9.313759	0.272471	0.067329	0.161642	-0.256104	-0.458740	-0.600342	-6.611038	26.789281	-54.628071
58728		-4.925674	-0.661103	9.074530	0.200361	0.053472	0.128704	-0.259521	-0.469238	-0.600586	-6.456688	26.825968	-54.546287
58729		-4.267270	-0.988812	8.890039	0.161971	0.059278	0.109129	-0.257813	-0.464355	-0.594727	-6.328958	26.870273	-54.476224
58730		-4.052427	-0.951735	8.943599	0.139063	0.094954	0.104727	-0.253662	-0.459717	-0.602295	-6.217743	26.928752	-54.412412
58731		-4.709532	-0.788265	8.939123	0.120899	0.119610	0.096111	-0.257568	-0.457031	-0.599365	-6.118956	27.006306	-54.354596
58732		-4.772972	-0.677448	8.959011	0.067835	0.121530	0.051280	-0.254395	-0.464600	-0.602295	-6.064648	27.076495	-54.326498
58733		-4.510180	-0.474039	9.029384	0.018386	0.138350	0.020696	-0.260498	-0.459961	-0.598389	-6.046903	27.160064	-54.317979
58734		-4.701020	-0.758098	8.846683	-0.017520	0.150967	0.003714	-0.251221	-0.459473	-0.596924	-6.056229	27.244135	-54.322256
58735		-4.812472	-0.769281	8.787038	-0.038707	0.143844	-0.003732	-0.253418	-0.466797	-0.597168	-6.078481	27.329333	-54.329762
58736		-4.577745	-0.592508	8.718731	-0.060573	0.137598	-0.018377	-0.245850	-0.465576	-0.604004	-6.118617	27.404440	-54.347378
58737		-4.439665	-0.746038	8.626782	-0.074329	0.132958	-0.019081	-0.248779	-0.461426	-0.605469	-6.165521	27.482481	-54.364100
58738		-3.955431	-1.109794	8.590108	-0.068154	0.156943	-0.011450	-0.242676	-0.465576	-0.600098	-6.208682	27.569011	-54.378770
58739		-4.334265	-1.452223	8.537433	-0.029567	0.168452	0.025268	-0.251953	-0.461426	-0.595215	-6.217989	27.669927	-54.369607
58740		-4.864166	-1.301723	8.504652	0.016631	0.147069	0.053943	-0.249023	-0.453369	-0.600098	-6.192753	27.754879	-54.341568
