// General information: 
//  MT Manager version: 2022.2.0 
//  XDA version: 2022.2.0 build 7381 rev 124627 built on 2023-07-19
// Device information: 
//  DeviceId: 00B4C223
//  ProductCode: MTW2-3A7G6
//  Firmware Version: 4.6.0
//  Hardware Version: 2.0.0
// Device settings: 
//  Filter Profile: human(46.1)
//  Option Flags: Orientation Smoother Disabled, Position/Velocity Smoother Disabled, Continuous Zero Rotation Update Disabled, AHS Disabled, ICC Disabled
// Coordinate system: ENU
PacketCounter	SampleTimeFine	Acc_X	Acc_Y	Acc_Z	Gyr_X	Gyr_Y	Gyr_Z	Mag_X	Mag_Y	Mag_Z	Roll	Pitch	Yaw
42659		-5.348173	2.362314	8.063504	-0.004132	-0.003896	0.004353	-0.902588	-0.022461	-0.618408	16.541161	32.387454	-23.560807
42660		-5.352417	2.381947	8.077409	-0.004132	-0.003896	0.004353	-0.902100	-0.029785	-0.625000	16.540671	32.384404	-23.559690
42661		-5.380214	2.353435	8.021503	-0.006103	-0.005807	0.002935	-0.900146	-0.028320	-0.619141	16.539281	32.380440	-23.559586
42662		-5.356922	2.328730	8.065174	-0.004337	-0.006741	0.002069	-0.909912	-0.024658	-0.614258	16.537581	32.376211	-23.561369
42663		-5.350741	2.381254	8.078724	-0.005229	-0.006675	0.005396	-0.898926	-0.023926	-0.618408	16.537460	32.371369	-23.559832
42664		-5.365005	2.367662	8.093351	-0.007525	-0.006329	0.000997	-0.897705	-0.018799	-0.623047	16.533596	32.367507	-23.562193
42665		-5.359625	2.347571	8.080332	-0.006325	-0.009454	0.006439	-0.899658	-0.027344	-0.622070	16.532923	32.360969	-23.560515
42666		-5.363465	2.367304	8.094476	0.000618	-0.008088	0.002276	-0.901611	-0.021973	-0.617676	16.534016	32.355970	-23.561380
42667		-5.362687	2.367363	8.094974	-0.004010	-0.008998	0.005051	-0.902344	-0.025391	-0.620361	16.534233	32.349909	-23.560516
42668		-5.361133	2.366423	8.053280	-0.004009	-0.008998	0.005052	-0.900635	-0.019775	-0.617188	16.533537	32.343938	-23.560315
42669		-5.356421	2.347566	8.082457	-0.003632	-0.006880	0.005933	-0.909912	-0.026367	-0.619873	16.534495	32.338895	-23.558470
42670		-5.374456	2.353150	8.068444	-0.004009	-0.008997	0.005052	-0.900635	-0.024414	-0.621338	16.533798	32.332917	-23.558416
42671		-5.373538	2.352949	8.069114	-0.005809	-0.011636	0.002232	-0.903564	-0.017334	-0.612793	16.531731	32.325866	-23.559894
42672		-5.353085	2.346322	8.042045	-0.004899	-0.008931	0.008379	-0.906982	-0.021973	-0.622314	16.531696	32.319386	-23.557228
42673		-5.337982	2.360324	8.070836	-0.003324	-0.011908	-0.000559	-0.905762	-0.024414	-0.610596	16.530056	32.312641	-23.560572
42674		-5.337022	2.360250	8.071494	-0.003132	-0.009865	0.007513	-0.897949	-0.023438	-0.611328	16.530628	32.305782	-23.559331
42675		-5.287727	2.381013	8.058284	-0.005929	-0.006532	0.001536	-0.904297	-0.025635	-0.616699	16.528778	32.301647	-23.560275
42676		-5.316387	2.353384	8.044610	-0.002861	-0.001844	0.001910	-0.895508	-0.022705	-0.622803	16.528393	32.300116	-23.561116
42677		-5.374039	2.371937	8.085696	-0.000890	0.000066	0.003327	-0.901611	-0.026123	-0.627197	16.530733	32.299314	-23.559624
42678		-5.354417	2.365557	8.058002	-0.001438	-0.001323	0.003849	-0.904297	-0.015869	-0.617432	16.531928	32.297812	-23.557956
42679		-5.350135	2.346849	8.086828	0.001716	-0.005309	0.001232	-0.893066	-0.026367	-0.618896	16.534479	32.294399	-23.558863
42680		-5.334998	2.360329	8.072808	0.000705	-0.000141	0.003863	-0.901855	-0.024902	-0.613770	16.537018	32.293507	-23.557033
42681		-5.377113	2.391372	8.057460	-0.003032	-0.001116	0.003313	-0.898193	-0.025879	-0.620361	16.538003	32.292058	-23.555779
42682		-5.368210	2.352865	8.072684	-0.000939	-0.004308	0.005427	-0.903809	-0.021729	-0.616699	16.539706	32.288623	-23.554687
42683		-5.352665	2.366239	8.058965	-0.002242	-0.009931	0.004186	-0.907471	-0.017334	-0.623291	16.540538	32.282191	-23.554567
42684		-5.341534	2.399035	8.059095	-0.005089	-0.010972	0.000309	-0.905518	-0.010498	-0.623047	16.537413	32.275919	-23.557204
42685		-5.340685	2.398515	8.059813	-0.008449	-0.009830	0.000642	-0.898926	-0.017334	-0.620117	16.533469	32.270119	-23.559366
42686		-5.354593	2.384574	8.074785	-0.009373	-0.013335	0.000283	-0.901367	-0.023193	-0.622559	16.527668	32.262565	-23.561085
42687		-5.325534	2.338700	8.062937	-0.010419	-0.011738	-0.000773	-0.899658	-0.023438	-0.613281	16.521909	32.255948	-23.564532
42688		-5.333116	2.376478	8.048826	-0.009372	-0.013334	0.000283	-0.911377	-0.016602	-0.619385	16.516091	32.248403	-23.568256
42689		-5.309938	2.352106	8.135126	-0.008824	-0.011945	-0.000238	-0.897949	-0.018311	-0.619629	16.511413	32.241584	-23.571393
42690		-5.327291	2.355949	8.079174	-0.010577	-0.010207	-0.005156	-0.909180	-0.019287	-0.617432	16.503354	32.236626	-23.577029
42691		-5.316508	2.387760	8.079373	-0.011246	-0.006494	-0.005330	-0.904053	-0.022461	-0.613037	16.496085	32.233629	-23.582422
42692		-5.359995	2.346148	8.080094	-0.008227	-0.006181	-0.002858	-0.908936	-0.021729	-0.617432	16.490568	32.230488	-23.586959
42693		-5.340747	2.339738	8.095090	-0.008397	-0.005454	-0.001455	-0.903076	-0.025635	-0.619629	16.486382	32.227432	-23.589635
42694		-5.334176	2.390767	8.066423	-0.009444	-0.003857	-0.002510	-0.898682	-0.020264	-0.614258	16.480535	32.225539	-23.593559
42695		-5.339404	2.337140	8.053805	-0.010368	-0.007362	-0.002870	-0.900146	-0.024414	-0.621094	16.474534	32.221664	-23.597520
42696		-5.310774	2.364532	8.110425	-0.006548	0.001556	-0.000733	-0.910645	-0.024170	-0.618408	16.471535	32.222476	-23.598742
42697		-5.324984	2.349911	8.082453	-0.005877	-0.002156	-0.000559	-0.901123	-0.031250	-0.623291	16.469441	32.221085	-23.600201
42698		-5.329559	2.369131	8.096271	-0.004783	0.000622	-0.001602	-0.909912	-0.024414	-0.619873	16.467046	32.221527	-23.603114
42699		-5.334159	2.388410	8.110056	-0.006217	-0.000703	0.002247	-0.909912	-0.025391	-0.620117	16.465878	32.220479	-23.602472
42700		-5.335103	2.315726	8.083361	-0.004076	0.000479	0.002260	-0.914551	-0.020996	-0.620117	16.465213	32.220189	-23.602756
42701		-5.310021	2.361757	8.068811	-0.004076	0.000479	0.002260	-0.907715	-0.022461	-0.620117	16.465397	32.219789	-23.601878
42702		-5.329519	2.367995	8.096629	-0.003528	0.001868	0.001739	-0.904053	-0.020264	-0.620361	16.465013	32.220339	-23.601776
42703		-5.354051	2.320803	8.068958	-0.001764	0.000934	0.000870	-0.899170	-0.015869	-0.619873	16.466087	32.220414	-23.601714
42704		-5.343788	2.353865	8.068474	-0.001944	0.000854	0.008060	-0.898682	-0.024902	-0.620850	16.468724	32.219411	-23.596316
42705		-5.362383	2.359642	8.054105	-0.001811	-0.003441	0.002967	-0.901367	-0.021484	-0.617188	16.470049	32.216741	-23.595732
42706		-5.357946	2.341019	8.082941	-0.000396	-0.003729	0.010691	-0.899658	-0.021240	-0.618164	16.474007	32.212805	-23.590553
42707		-5.313057	2.381157	8.040674	-0.001604	-0.000599	0.005253	-0.902344	-0.020264	-0.620361	16.476533	32.211326	-23.587939
42708		-5.323680	2.349025	8.083570	-0.003575	-0.002506	0.003837	-0.911377	-0.028076	-0.619385	16.476430	32.209170	-23.586573
42709		-5.346193	2.373343	8.040739	-0.004830	-0.003751	0.000496	-0.906738	-0.025391	-0.616699	16.475138	32.206732	-23.587654
42710		-5.337854	2.335194	8.098309	-0.005547	-0.004414	0.002420	-0.901123	-0.023926	-0.617432	16.473193	32.203735	-23.589333
42711		-5.307802	2.361600	8.070317	-0.001981	-0.002714	0.004371	-0.905762	-0.025146	-0.620117	16.474981	32.201238	-23.587699
42712		-5.345776	2.373671	8.083835	-0.000925	-0.003505	-0.000361	-0.900879	-0.022705	-0.618164	16.474836	32.199215	-23.590119
42713		-5.326723	2.367947	8.098483	-0.003028	-0.001117	0.003316	-0.900635	-0.025146	-0.615234	16.475822	32.197766	-23.588863
42714		-5.379025	2.366278	8.083707	0.003010	-0.000497	0.008258	-0.902344	-0.018799	-0.620361	16.481228	32.195994	-23.584961
42715		-5.340426	2.354595	8.070487	-0.002697	-0.003377	0.006296	-0.906494	-0.030518	-0.623291	16.483202	32.192819	-23.582205
42716		-5.329756	2.387681	8.070257	-0.002697	-0.003377	0.006296	-0.902344	-0.023926	-0.623047	16.484374	32.189804	-23.580042
42717		-5.325421	2.368928	8.099052	-0.002319	-0.001261	0.007178	-0.898926	-0.032959	-0.623535	16.487087	32.187648	-23.576306
42718		-5.310127	2.382354	8.085163	-0.001311	-0.006426	0.004543	-0.899902	-0.030518	-0.617920	16.488145	32.183274	-23.576161
42719		-5.320400	2.350081	8.128323	-0.006094	-0.005801	0.002942	-0.904053	-0.025879	-0.622070	16.486765	32.179312	-23.576048
42720		-5.305199	2.363247	8.114447	-0.001602	-0.000599	0.005254	-0.905029	-0.020020	-0.610352	16.488488	32.177997	-23.574719
42721		-5.299751	2.342832	8.058654	-0.001811	-0.003440	0.002967	-0.901367	-0.018799	-0.615723	16.489812	32.175328	-23.574137
42722		-5.361171	2.380478	8.071296	-0.000176	-0.000081	0.007191	-0.904785	-0.021484	-0.616699	16.493071	32.173916	-23.570377
42723		-5.303871	2.362709	8.072576	-0.006763	-0.002088	0.002771	-0.906494	-0.016113	-0.627686	16.491628	32.172022	-23.569663
42724		-5.294098	2.396076	8.114567	-0.005668	0.000689	0.001729	-0.903809	-0.019287	-0.616943	16.489963	32.171969	-23.568505
42725		-5.341318	2.373152	8.044034	-0.008188	-0.002606	0.000833	-0.898438	-0.018311	-0.618164	16.486982	32.170105	-23.569147
42726		-5.322840	2.367627	8.101129	-0.008019	-0.003332	-0.000570	-0.895264	-0.018066	-0.614502	16.482764	32.168208	-23.570371
42727		-5.322706	2.367073	8.101379	-0.005499	-0.000037	0.000325	-0.908447	-0.021484	-0.621826	16.481410	32.167838	-23.570849
42728		-5.308394	2.380815	8.129648	-0.004790	-0.000182	0.004187	-0.910645	-0.016113	-0.624023	16.481010	32.166901	-23.568645
42729		-5.298710	2.340284	8.060079	-0.005998	0.002950	-0.001250	-0.900146	-0.021973	-0.614502	16.479132	32.168429	-23.569573
42730		-5.341629	2.371832	8.087116	-0.003364	0.000335	0.006125	-0.903320	-0.020508	-0.617920	16.480271	32.167450	-23.566001
42731		-5.346219	2.391492	8.100797	-0.003695	0.002596	0.003146	-0.896973	-0.020508	-0.630371	16.481195	32.168069	-23.564143
42732		-5.347244	2.319027	8.073981	-0.003574	-0.002506	0.003837	-0.911865	-0.028320	-0.615479	16.481162	32.165961	-23.561993
42733		-5.341200	2.371704	8.087436	-0.002696	-0.003377	0.006296	-0.903809	-0.023193	-0.615723	16.483136	32.162786	-23.559237
42734		-5.325930	2.385085	8.073550	-0.002696	-0.003377	0.006296	-0.907227	-0.027344	-0.618652	16.484310	32.159722	-23.558459
42735		-5.335753	2.352181	8.074281	-0.002358	-0.004829	0.003488	-0.901367	-0.022949	-0.620117	16.485358	32.156206	-23.557805
42736		-5.339937	2.371840	8.088231	-0.006221	-0.001507	0.008038	-0.906982	-0.017822	-0.623779	16.485333	32.153930	-23.554635
42737		-5.316351	2.346516	8.089120	-0.001053	0.000789	0.004733	-0.902832	-0.026611	-0.618408	16.488133	32.153298	-23.552094
42738		-5.335537	2.353202	8.117013	-0.001270	-0.002860	0.008234	-0.902832	-0.019531	-0.627197	16.490888	32.150249	-23.548234
42739		-5.362466	2.397898	8.087823	0.000493	-0.003795	0.007363	-0.901367	-0.012939	-0.616699	16.495013	32.146671	-23.544868
42740		-5.352810	2.358990	8.060661	-0.000391	-0.003732	0.010692	-0.903564	-0.025635	-0.624512	16.499057	32.142750	-23.537963
42741		-5.319132	2.367917	8.103480	0.001372	-0.004667	0.009821	-0.901855	-0.020020	-0.620605	16.504444	32.138292	-23.533170
42742		-5.307739	2.400595	8.060953	-0.001269	-0.002859	0.008234	-0.904541	-0.027832	-0.618896	16.507211	32.135267	-23.529216
42743		-5.298744	2.362340	8.076050	0.000494	-0.003795	0.007363	-0.900635	-0.020508	-0.623047	16.511335	32.131688	-23.525851
42744		-5.284146	2.376644	8.104322	-0.001599	-0.000599	0.005255	-0.900146	-0.020996	-0.620117	16.513112	32.130383	-23.523927
42745		-5.317845	2.369250	8.103935	0.000043	0.003567	0.003692	-0.902344	-0.024902	-0.612793	16.516464	32.131445	-23.521528
42746		-5.332408	2.355397	8.075553	-0.001171	0.005891	0.004042	-0.906738	-0.016846	-0.623779	16.518726	32.133873	-23.519399
42747		-5.318522	2.369853	8.103314	0.005753	0.006442	0.005654	-0.901611	-0.020996	-0.616455	16.526321	32.136194	-23.515174
42748		-5.322908	2.389401	8.074267	0.002565	0.006861	0.004588	-0.904541	-0.024902	-0.609619	16.531031	32.139068	-23.511267
42749		-5.324007	2.390624	8.116072	0.003113	0.008250	0.004067	-0.907959	-0.018799	-0.613770	16.536752	32.142640	-23.507723
42750		-5.323705	2.390452	8.073430	0.004110	0.002276	0.007217	-0.906250	-0.031982	-0.620850	16.542748	32.142506	-23.504948
42751		-5.315350	2.352498	8.088040	0.003444	0.005989	0.007047	-0.900146	-0.021240	-0.613037	16.549456	32.144351	-23.499905
42752		-5.300778	2.366336	8.073546	0.003780	0.004537	0.004238	-0.903076	-0.023682	-0.612305	16.554484	32.146006	-23.498757
42753		-5.306324	2.387466	8.129049	0.006303	0.007830	0.005134	-0.911133	-0.025146	-0.619385	16.562359	32.149173	-23.494599
42754		-5.335421	2.360124	8.072183	0.002779	0.009703	0.006876	-0.906494	-0.019775	-0.615967	16.568251	32.153202	-23.490640
42755		-5.320964	2.374083	8.057571	0.006969	0.004117	0.005306	-0.897705	-0.025879	-0.617676	16.576187	32.154301	-23.487087
42756		-5.359446	2.386929	8.070537	0.003781	0.004537	0.004239	-0.905762	-0.032471	-0.616211	16.581235	32.155951	-23.484819
42757		-5.355566	2.368477	8.098957	0.002304	-0.000355	0.004397	-0.902100	-0.018555	-0.623047	16.585725	32.154742	-23.482719
42758		-5.369619	2.354953	8.070805	0.003350	-0.001953	0.005452	-0.910889	-0.022461	-0.613525	16.590280	32.152650	-23.481441
42759		-5.295442	2.422320	8.042593	0.000995	-0.005973	0.003152	-0.901367	-0.022217	-0.619629	16.593011	32.148559	-23.481235
42760		-5.320881	2.376900	8.099701	-0.004453	-0.001630	0.001379	-0.910645	-0.024658	-0.616455	16.591720	32.147274	-23.482314
42761		-5.339412	2.382181	8.085538	-0.006976	-0.004923	0.000483	-0.908203	-0.023926	-0.616699	16.589072	32.144196	-23.483635
42762		-5.305227	2.389438	8.086290	-0.000264	-0.007217	-0.000191	-0.904541	-0.019531	-0.613770	16.589055	32.140091	-23.487672
42763		-5.342908	2.401419	8.100045	-0.006098	-0.005795	0.002942	-0.903809	-0.022949	-0.617432	16.587669	32.136133	-23.487567
42764		-5.322479	2.393749	8.030363	-0.006427	-0.003535	-0.000037	-0.902832	-0.016846	-0.621826	16.584577	32.134039	-23.489373
42765		-5.303844	2.388395	8.087505	-0.006097	-0.005795	0.002943	-0.903564	-0.023193	-0.614014	16.583191	32.130080	-23.489267
42766		-5.307322	2.406896	8.059348	-0.006975	-0.004923	0.000484	-0.902100	-0.022705	-0.621582	16.579844	32.127160	-23.490340
42767		-5.322224	2.393805	8.116304	-0.007736	-0.009152	-0.001283	-0.906250	-0.022461	-0.620361	16.575718	32.122049	-23.493622
42768		-5.354858	2.384736	8.074230	-0.009615	-0.003114	-0.001103	-0.904297	-0.018555	-0.616943	16.570505	32.120407	-23.495856
42769		-5.301935	2.385929	8.089485	-0.005761	-0.007247	0.000134	-0.911621	-0.024170	-0.616943	16.568196	32.116110	-23.497850
42770		-5.316330	2.372029	8.104116	-0.010163	-0.004502	-0.000582	-0.904541	-0.018311	-0.618408	16.562688	32.113569	-23.500595
42771		-5.286359	2.397761	8.076238	-0.007472	-0.001935	-0.001090	-0.905762	-0.022461	-0.610840	16.559521	32.112389	-23.502358
42772		-5.311512	2.350972	8.091005	-0.004615	-0.000095	-0.003004	-0.915527	-0.025635	-0.618896	16.556815	32.112659	-23.505422
42773		-5.301270	2.383306	8.090693	-0.006209	0.000115	-0.003537	-0.903320	-0.025635	-0.609863	16.553739	32.113004	-23.508376
42774		-5.316133	2.369626	8.104948	-0.002142	-0.001178	-0.000012	-0.904297	-0.020996	-0.622070	16.553344	32.112179	-23.511692
42775		-5.335017	2.375125	8.090513	-0.002808	0.002535	-0.000182	-0.908691	-0.028320	-0.615723	16.553621	32.113306	-23.512004
42776		-5.334457	2.374123	8.048299	-0.004451	-0.001630	0.001380	-0.903564	-0.022949	-0.611816	16.552370	32.112057	-23.513351
42777		-5.334330	2.373786	8.048483	-0.003568	-0.001694	-0.001950	-0.899170	-0.016846	-0.613037	16.551169	32.111149	-23.515625
42778		-5.324308	2.406948	8.090668	-0.009283	-0.005374	0.001877	-0.916748	-0.025879	-0.614746	16.546944	32.107731	-23.515774
42779		-5.300466	2.380890	8.091931	-0.006638	-0.006374	-0.002325	-0.904297	-0.026123	-0.616211	16.543376	32.104314	-23.519193
42780		-5.319017	2.385750	8.077910	-0.010492	-0.002240	-0.003560	-0.902832	-0.020020	-0.625732	16.536878	32.103494	-23.525193
42781		-5.285867	2.392992	8.120841	-0.009944	-0.000851	-0.004080	-0.897705	-0.013672	-0.620850	16.531376	32.103396	-23.528686
42782		-5.300351	2.378203	8.092796	-0.005280	0.003619	-0.003172	-0.900635	-0.025391	-0.609863	16.528699	32.105833	-23.528200
42783		-5.334380	2.370217	8.092372	-0.002092	0.003198	-0.002106	-0.914307	-0.028320	-0.616211	16.528790	32.107637	-23.529633
42784		-5.330184	2.350121	8.078558	-0.005447	0.004345	-0.001767	-0.901611	-0.028076	-0.627197	16.526476	32.110138	-23.533251
42785		-5.309822	2.415574	8.077678	-0.005116	0.002083	0.001212	-0.904053	-0.024414	-0.618164	16.525864	32.110788	-23.532747
42786		-5.339810	2.388721	8.105841	-0.004021	0.004860	0.000171	-0.908447	-0.025146	-0.624268	16.525153	32.113366	-23.533036
42787		-5.320675	2.382102	8.077895	-0.003858	0.003323	0.004554	-0.901123	-0.022705	-0.617432	16.526541	32.114154	-23.530126
42788		-5.301995	2.376287	8.092282	-0.003690	0.002598	0.003149	-0.903320	-0.015625	-0.625000	16.526811	32.114968	-23.528768
42789		-5.317105	2.362990	8.106248	-0.001001	0.005164	0.002642	-0.910400	-0.028320	-0.618896	16.529365	32.117078	-23.526744
42790		-5.317472	2.363190	8.105949	0.000258	0.006405	0.005984	-0.902344	-0.026123	-0.613037	16.533270	32.119510	-23.522514
42791		-5.302518	2.375986	8.049156	-0.000072	0.008667	0.003006	-0.909668	-0.014404	-0.621338	16.536841	32.123485	-23.519578
42792		-5.370995	2.361860	8.090336	0.000258	0.006405	0.005985	-0.903809	-0.018555	-0.617920	16.540735	32.125875	-23.515213
42793		-5.336772	2.368990	8.048277	-0.002482	-0.000537	0.008585	-0.905518	-0.017334	-0.617188	16.543907	32.123884	-23.510431
42794		-5.345119	2.407868	8.033445	-0.001051	0.000788	0.004735	-0.902588	-0.030029	-0.619385	16.546060	32.123402	-23.507116
42795		-5.355846	2.375760	8.076220	-0.004624	-0.001715	0.008573	-0.906006	-0.022217	-0.616699	16.547880	32.120766	-23.502570
42796		-5.320992	2.382555	8.034676	-0.005766	-0.008057	0.005918	-0.903076	-0.022217	-0.613525	16.546815	32.115265	-23.502463
42797		-5.325248	2.402761	8.091293	-0.008790	-0.009172	0.009236	-0.900146	-0.028564	-0.613770	16.545711	32.108425	-23.498924
42798		-5.286215	2.390347	8.078529	-0.006810	-0.006457	0.004866	-0.906006	-0.026611	-0.618652	16.543847	32.103955	-23.499008
42799		-5.272059	2.404838	8.149314	-0.003739	-0.001777	0.005243	-0.905273	-0.011475	-0.624512	16.545017	32.101827	-23.496634
42800		-5.297515	2.358713	8.163645	0.000479	0.010055	0.002488	-0.906982	-0.026367	-0.619629	16.548248	32.106841	-23.493054
42801		-5.307992	2.325733	8.121106	0.007946	0.011176	0.009367	-0.906250	-0.020264	-0.608887	16.558862	32.111154	-23.485510
42802		-5.299310	2.360567	8.161944	0.011237	0.019506	0.006248	-0.904053	-0.026855	-0.622070	16.570471	32.120681	-23.479824
42803		-5.319109	2.367138	8.103722	0.014854	0.024764	0.011896	-0.903809	-0.030029	-0.616699	16.587313	32.132040	-23.468014
42804		-5.320100	2.368348	8.059829	0.017829	0.021503	0.010673	-0.914307	-0.022705	-0.621094	16.604450	32.142003	-23.459590
42805		-5.363805	2.401550	8.042946	0.018213	0.023619	0.011560	-0.903564	-0.033203	-0.613525	16.622993	32.152782	-23.448208
42806		-5.352830	2.345969	8.084894	0.016018	0.018067	0.013641	-0.895264	-0.020020	-0.626465	16.639750	32.160316	-23.439384
42807		-5.347493	2.399860	8.054564	0.016187	0.017341	0.012237	-0.907959	-0.030762	-0.622559	16.656726	32.167531	-23.428771
42808		-5.343657	2.382113	8.039831	0.014652	0.008075	0.014488	-0.905273	-0.021729	-0.615234	16.672030	32.169533	-23.418713
42809		-5.318814	2.429908	8.024527	0.011474	0.009306	0.007630	-0.903076	-0.021240	-0.628418	16.683888	32.173092	-23.412642
42810		-5.334096	2.418098	8.037958	0.011251	0.005657	0.011131	-0.904297	-0.025146	-0.619629	16.695831	32.174265	-23.404850
42811		-5.353009	2.425000	8.023032	0.003777	0.003727	0.010033	-0.904541	-0.026855	-0.618652	16.703532	32.174364	-23.398305
42812		-5.367798	2.412380	8.037039	-0.000725	-0.001468	0.007715	-0.890381	-0.018799	-0.615479	16.706674	32.172176	-23.395656
42813		-5.310341	2.394861	8.038398	-0.000399	-0.003728	0.010695	-0.901367	-0.026855	-0.619873	16.711437	32.168075	-23.390133
42814		-5.337579	2.440221	8.051603	-0.005228	-0.006662	0.005397	-0.906982	-0.022705	-0.609863	16.710696	32.163451	-23.387675
42815		-5.357531	2.373948	8.053129	-0.011492	-0.010917	0.003950	-0.904053	-0.020020	-0.616211	16.706031	32.156515	-23.387924
42816		-5.331189	2.419585	8.039439	-0.009188	-0.011275	0.008349	-0.910889	-0.021484	-0.620361	16.703520	32.148779	-23.386231
42817		-5.312059	2.413979	8.097027	-0.012368	-0.010044	0.001491	-0.901367	-0.023682	-0.614502	16.697596	32.142727	-23.387903
42818		-5.315609	2.432525	8.111696	-0.016321	-0.013848	-0.001347	-0.904785	-0.022217	-0.618164	16.687410	32.135218	-23.393013
42819		-5.287760	2.387016	8.141818	-0.009784	-0.002377	0.000296	-0.902832	-0.031494	-0.614746	16.683348	32.133571	-23.393968
42820		-5.291420	2.405256	8.113598	-0.008024	-0.003315	-0.000575	-0.902832	-0.029053	-0.617188	16.679265	32.131731	-23.397363
42821		-5.320706	2.377428	8.099661	-0.007201	0.005289	-0.000899	-0.905029	-0.016602	-0.613037	16.677062	32.134488	-23.397604
42822		-5.321141	2.376876	8.099537	-0.005608	0.005077	-0.000365	-0.900879	-0.025391	-0.618896	16.675312	32.137197	-23.398177
42823		-5.292350	2.403511	8.113509	-0.005274	0.003625	-0.003176	-0.909912	-0.023926	-0.609863	16.673257	32.139414	-23.400217
42824		-5.340350	2.380905	8.042386	-0.003575	0.011356	-0.001039	-0.894287	-0.016846	-0.617920	16.673076	32.145669	-23.400810
42825		-5.371055	2.353881	8.070163	-0.006977	0.008940	-0.004398	-0.902588	-0.024902	-0.622070	16.670172	32.151004	-23.402611
42826		-5.321706	2.446344	8.083212	-0.004014	0.004865	0.000169	-0.896729	-0.021729	-0.625977	16.669545	32.153579	-23.400965
42827		-5.346580	2.398951	8.055440	-0.008683	0.000399	-0.000745	-0.901611	-0.022949	-0.612549	16.666041	32.153626	-23.402056
42828		-5.365222	2.404021	8.041263	-0.008739	-0.003977	0.001348	-0.897461	-0.023193	-0.623779	16.662192	32.151145	-23.402135
42829		-5.383480	2.409015	8.027368	-0.011815	-0.008655	0.000968	-0.905762	-0.026855	-0.623291	16.656550	32.145941	-23.403871
42830		-5.349511	2.416156	8.070943	-0.014890	-0.013333	0.000588	-0.909180	-0.018799	-0.623291	16.647957	32.138483	-23.407034
42831		-5.343912	2.395327	8.058289	-0.015056	-0.012606	0.001994	-0.902588	-0.029541	-0.616943	16.640406	32.130941	-23.408869
42832		-5.361362	2.399860	8.045079	-0.016753	-0.020336	-0.000144	-0.909912	-0.022949	-0.615234	16.629754	32.119705	-23.414533
42833		-5.345335	2.412363	8.074843	-0.022252	-0.021171	0.005972	-0.893799	-0.021973	-0.611572	16.618572	32.106808	-23.415444
42834		-5.323989	2.404479	8.048737	-0.018398	-0.024497	0.001416	-0.901611	-0.023926	-0.622803	16.607089	32.093000	-23.420443
42835		-5.356250	2.396318	8.092410	-0.019277	-0.024433	0.004749	-0.908691	-0.019287	-0.611084	16.596859	32.078512	-23.422771
42836		-5.350179	2.375978	8.122768	-0.019824	-0.025820	0.005270	-0.906494	-0.025146	-0.616943	16.585771	32.063365	-23.425403
42837		-5.332972	2.388047	8.110540	-0.017184	-0.027633	0.006856	-0.909912	-0.018799	-0.627197	16.577142	32.046775	-23.426976
42838		-5.311165	2.380461	8.084634	-0.021082	-0.027868	0.007719	-0.910400	-0.027344	-0.613037	16.565985	32.030138	-23.428436
42839		-5.327493	2.385163	8.072163	-0.016134	-0.029231	0.007910	-0.897705	-0.023682	-0.617676	16.558161	32.012497	-23.429627
42840		-5.287429	2.372739	8.102847	-0.015200	-0.025729	0.008279	-0.900879	-0.030273	-0.616943	16.550766	31.996926	-23.431333
42841		-5.274182	2.404085	8.062010	-0.018932	-0.026688	0.007738	-0.905762	-0.012207	-0.616943	16.541542	31.980710	-23.432140
42842		-5.249759	2.378847	8.148921	-0.015857	-0.022013	0.008117	-0.910400	-0.022461	-0.613037	16.534127	31.967220	-23.431702
42843		-5.266247	2.383231	8.093659	-0.012288	-0.019511	0.004277	-0.909668	-0.019043	-0.623047	16.528257	31.955510	-23.433365
42844		-5.312776	2.361178	8.066428	-0.011191	-0.016735	0.003238	-0.902344	-0.022705	-0.620117	16.522371	31.945685	-23.435804
42845		-5.326173	2.347212	8.081717	-0.011902	-0.017398	0.005165	-0.906006	-0.022949	-0.615479	16.517243	31.934991	-23.436483
42846		-5.284961	2.406624	8.096631	-0.010308	-0.017611	0.005696	-0.900635	-0.018311	-0.614746	16.512630	31.924330	-23.437242
42847		-5.298363	2.393005	8.111808	-0.006025	-0.015264	0.005718	-0.907227	-0.024414	-0.621582	16.511277	31.914718	-23.437152
42848		-5.307450	2.359667	8.113136	-0.010804	-0.014621	0.004128	-0.906494	-0.020508	-0.610840	16.506159	31.905960	-23.437852
42849		-5.301785	2.339576	8.100277	-0.004764	-0.013212	0.003272	-0.906738	-0.016357	-0.624512	16.504900	31.897873	-23.438951
42850		-5.301273	2.340297	8.143153	-0.001465	-0.006522	0.011732	-0.907471	-0.025635	-0.615967	16.508555	31.892302	-23.432759
42851		-5.327911	2.385575	8.114261	0.003202	-0.002064	0.012639	-0.900146	-0.023438	-0.622314	16.516191	31.888814	-23.425660
42852		-5.293735	2.394077	8.114513	0.004468	-0.000830	0.015983	-0.905762	-0.021729	-0.618164	16.525266	31.885724	-23.416891
42853		-5.311554	2.400301	8.057936	0.000514	-0.004624	0.013150	-0.910645	-0.026123	-0.617432	16.531276	31.880746	-23.409955
42854		-5.306812	2.382030	8.086698	0.001560	-0.006225	0.014200	-0.911865	-0.023926	-0.618164	16.537513	31.874942	-23.403911
42855		-5.310237	2.402460	8.100911	0.000955	-0.011172	0.011020	-0.912354	-0.022217	-0.623779	16.542382	31.866713	-23.399611
42856		-5.285790	2.377736	8.102047	0.002386	-0.010662	0.012957	-0.903564	-0.022217	-0.620605	16.548224	31.858681	-23.395205
42857		-5.288882	2.398094	8.116491	-0.002444	-0.014394	0.013459	-0.906494	-0.018555	-0.612793	16.551648	31.848284	-23.389951
42858		-5.287451	2.398725	8.117237	-0.000465	-0.012497	0.014876	-0.904053	-0.022949	-0.620361	16.556339	31.838931	-23.383312
42859		-5.267240	2.393517	8.132304	0.000734	-0.014006	0.008728	-0.906250	-0.019287	-0.621338	16.560008	31.829519	-23.381044
42860		-5.288759	2.418807	8.090187	-0.002452	-0.013576	0.007670	-0.900879	-0.022217	-0.622314	16.561011	31.820792	-23.379114
42861		-5.312390	2.372296	8.063161	-0.002452	-0.013575	0.007670	-0.905762	-0.019043	-0.622559	16.562536	31.811789	-23.377448
42862		-5.229334	2.401009	8.092491	-0.002788	-0.011310	0.004693	-0.912109	-0.022217	-0.617432	16.562580	31.804823	-23.376443
42863		-5.281425	2.400082	8.120758	-0.001692	-0.008536	0.003652	-0.913086	-0.024170	-0.619385	16.563682	31.799244	-23.376406
42864		-5.242672	2.387831	8.107596	-0.002352	-0.004823	0.003489	-0.907227	-0.025635	-0.612061	16.564169	31.795946	-23.377213
42865		-5.276297	2.381279	8.149906	0.002267	-0.004745	0.006483	-0.911133	-0.021240	-0.615967	16.568887	31.791986	-23.374618
42866		-5.271147	2.361483	8.093935	0.002478	-0.001094	0.002985	-0.899658	-0.028809	-0.620361	16.572341	31.790799	-23.375199
42867		-5.284466	2.420882	8.135090	-0.000038	0.007843	0.008808	-0.908936	-0.024170	-0.617432	16.577804	31.793372	-23.368682
42868		-5.251003	2.428181	8.092449	0.002154	0.013390	0.006726	-0.908936	-0.019043	-0.616211	16.583842	31.799614	-23.363763
42869		-5.286418	2.422044	8.133475	0.004408	0.022497	0.008345	-0.900391	-0.023193	-0.613770	16.593184	31.810308	-23.354724
42870		-5.282673	2.401892	8.033952	0.001881	0.019216	0.007450	-0.913574	-0.020020	-0.613770	16.599912	31.819568	-23.347035
42871		-5.251352	2.410966	8.117585	0.003689	0.022652	0.004483	-0.909668	-0.012939	-0.618164	16.607547	31.830978	-23.340456
42872		-5.301993	2.391388	8.129843	0.009531	0.032625	0.013841	-0.906250	-0.011230	-0.619141	16.622208	31.846499	-23.325675
42873		-5.316633	2.450894	8.084582	0.013270	0.033582	0.014383	-0.918457	-0.022705	-0.617188	16.639830	31.862283	-23.310579
42874		-5.296504	2.428110	8.125100	0.018009	0.041599	0.018993	-0.901855	-0.018799	-0.622070	16.662045	31.881891	-23.290831
42875		-5.363160	2.397630	8.150030	0.029521	0.050052	0.032408	-0.920410	-0.014648	-0.617676	16.696841	31.903739	-23.260870
42876		-5.397992	2.466747	8.130996	0.043218	0.051830	0.037031	-0.904785	-0.020752	-0.616211	16.740756	31.925986	-23.227157
42877		-5.475940	2.496760	8.069480	0.057691	0.043169	0.054097	-0.924072	-0.022217	-0.619385	16.798445	31.940432	-23.184463
42878		-5.582879	2.503374	8.078613	0.075621	0.028255	0.071519	-0.901367	-0.021973	-0.615479	16.870289	31.943939	-23.135259
42879		-5.427404	2.535502	8.007000	0.073197	0.005230	0.081999	-0.902588	-0.025391	-0.617920	16.942482	31.932852	-23.081947
42880		-5.301570	2.543162	8.091777	0.066853	-0.016406	0.081759	-0.905273	-0.028809	-0.621338	17.008163	31.910155	-23.034200
42881		-5.250248	2.573545	8.119343	0.058970	-0.010935	0.077010	-0.906738	-0.022461	-0.625244	17.068756	31.890946	-22.987357
42882		-5.282305	2.412852	8.177637	0.055017	-0.014716	0.074188	-0.903076	-0.024414	-0.616455	17.125206	31.870405	-22.944768
42883		-5.310105	2.484522	8.119084	0.054465	-0.014495	0.063126	-0.904785	-0.024414	-0.620605	17.178058	31.851514	-22.907647
42884		-5.285297	2.556953	8.075335	0.052097	-0.018497	0.060836	-0.911865	-0.031250	-0.616211	17.227828	31.831060	-22.874233
42885		-5.270894	2.507135	8.161030	0.045811	-0.021924	0.053609	-0.905273	-0.026855	-0.616699	17.271656	31.809668	-22.844781
42886		-5.220649	2.460672	8.078065	0.049887	-0.022431	0.051349	-0.897217	-0.026123	-0.613037	17.316443	31.788597	-22.820397
42887		-5.156496	2.427894	8.022897	0.044459	-0.009377	0.052571	-0.909668	-0.033691	-0.619141	17.360428	31.774205	-22.789145
42888		-5.266672	2.291197	8.151018	0.040865	-0.010262	0.044826	-0.902100	-0.022217	-0.624756	17.399107	31.760901	-22.765532
42889		-5.435630	2.442526	8.060810	0.045821	-0.011644	0.045029	-0.905518	-0.025146	-0.613525	17.441050	31.746525	-22.739619
42890		-5.378155	2.611880	8.015564	0.039199	-0.029793	0.062948	-0.906982	-0.030029	-0.612549	17.482817	31.719414	-22.706412
42891		-5.340536	2.626439	8.058784	0.041210	-0.036567	0.061387	-0.916992	-0.024658	-0.620361	17.524947	31.688569	-22.675079
42892		-5.312812	2.608359	8.103161	0.038709	-0.050076	0.069137	-0.911865	-0.032471	-0.614746	17.566257	31.649217	-22.644468
42893		-5.238241	2.627413	8.020676	0.038930	-0.052356	0.079356	-0.910400	-0.033203	-0.614014	17.611364	31.606598	-22.604900
42894		-5.148858	2.570741	8.052859	0.029130	-0.045194	0.076864	-0.909912	-0.027344	-0.615967	17.650212	31.568544	-22.568954
42895		-5.153494	2.452444	8.057255	0.023510	-0.038521	0.064883	-0.913086	-0.028076	-0.617188	17.683012	31.535949	-22.535935
42896		-5.145716	2.527716	8.000443	0.018467	-0.031247	0.058177	-0.911865	-0.033447	-0.616211	17.710936	31.508733	-22.507549
42897		-5.177546	2.618684	8.083576	0.018955	-0.024767	0.056942	-0.917969	-0.031494	-0.618408	17.739883	31.485000	-22.476859
42898		-5.316515	2.543879	8.113501	0.014956	-0.028549	0.054128	-0.917969	-0.035889	-0.614746	17.764683	31.459935	-22.451128
42899		-5.274605	2.535437	8.101210	0.024639	-0.034966	0.058047	-0.911133	-0.024658	-0.614990	17.796118	31.430420	-22.421865
42900		-5.180542	2.619726	8.101097	0.025394	-0.035087	0.061930	-0.913086	-0.023438	-0.610107	17.828760	31.400390	-22.391175
42901		-5.039714	2.558452	8.020167	0.020047	-0.026342	0.058030	-0.920166	-0.033936	-0.622559	17.858428	31.375554	-22.360206
42902		-5.059038	2.496975	8.022174	0.014398	-0.010231	0.043193	-0.916748	-0.030518	-0.614746	17.881166	31.362342	-22.336003
42903		-5.149420	2.605702	8.103389	0.009007	-0.000721	0.033474	-0.915527	-0.027100	-0.615234	17.899066	31.355776	-22.315467
42904		-5.219931	2.612985	8.074488	0.003205	-0.002777	0.025720	-0.909668	-0.027588	-0.614746	17.910374	31.349686	-22.300685
42905		-5.162025	2.592889	7.990866	-0.003824	0.001831	0.023402	-0.917969	-0.026855	-0.607422	17.917845	31.346279	-22.286057
42906		-5.188934	2.641600	8.088208	-0.006726	0.000804	0.019525	-0.917236	-0.026367	-0.606689	17.921792	31.343229	-22.274381
42907		-5.150459	2.627630	8.032560	-0.011113	0.003589	0.018803	-0.916992	-0.025635	-0.617188	17.923747	31.341590	-22.262327
42908		-5.089045	2.496113	7.979909	-0.012225	0.010284	0.017023	-0.916016	-0.032227	-0.609375	17.924736	31.344147	-22.250328
42909		-4.905245	2.450834	7.967676	-0.018423	0.028575	0.013617	-0.914551	-0.032227	-0.615723	17.923466	31.357043	-22.236425
42910		-4.897456	2.483207	8.007789	-0.024281	0.050519	-0.000535	-0.905518	-0.022949	-0.618896	17.916038	31.384627	-22.227411
42911		-4.842258	2.531805	7.948209	-0.031461	0.075546	-0.012929	-0.910889	-0.023926	-0.612061	17.903528	31.427811	-22.220763
42912		-5.166921	2.529731	8.068880	-0.033279	0.095390	-0.010494	-0.911865	-0.027588	-0.615967	17.892466	31.481602	-22.208631
42913		-5.463955	2.478712	8.049277	-0.030188	0.081911	-0.010272	-0.910156	-0.025879	-0.615234	17.882264	31.527792	-22.198983
42914		-5.231817	2.520121	7.920485	-0.033177	0.070633	0.001715	-0.913330	-0.024170	-0.619629	17.872679	31.565944	-22.184315
42915		-5.000813	2.564340	7.919077	-0.043585	0.081541	-0.000971	-0.910400	-0.027588	-0.616455	17.857885	31.610300	-22.168801
42916		-5.137310	2.587492	8.012505	-0.059358	0.092525	-0.010544	-0.909180	-0.025635	-0.621094	17.831564	31.662550	-22.157468
42917		-5.272349	2.514961	7.980995	-0.068755	0.093156	-0.015149	-0.906738	-0.028564	-0.617676	17.798840	31.715738	-22.148680
42918		-5.247276	2.516807	8.062984	-0.076747	0.085616	-0.020807	-0.907715	-0.024902	-0.623779	17.758334	31.766028	-22.145432
42919		-5.296526	2.451897	8.131696	-0.076047	0.077594	-0.025718	-0.902832	-0.026123	-0.611572	17.716146	31.812579	-22.146701
42920		-5.173061	2.416904	8.033820	-0.079297	0.060693	-0.032783	-0.908691	-0.021729	-0.615234	17.667380	31.851351	-22.156330
42921		-5.211259	2.474989	8.100862	-0.076840	0.075754	-0.044871	-0.904297	-0.028809	-0.619385	17.617986	31.900221	-22.170382
42922		-5.309514	2.479533	8.139434	-0.076748	0.070669	-0.044158	-0.898682	-0.022217	-0.614502	17.567819	31.946390	-22.185420
42923		-5.675644	2.502109	8.201025	-0.075892	0.073332	-0.030748	-0.905762	-0.021240	-0.617676	17.523444	31.991478	-22.190981
42924		-5.516642	2.564857	8.017834	-0.067666	0.051004	-0.019482	-0.904785	-0.020020	-0.615723	17.484716	32.022638	-22.194105
42925		-5.427765	2.527949	8.089707	-0.065687	0.043424	-0.015260	-0.907715	-0.020996	-0.618164	17.448220	32.048710	-22.195826
42926		-5.535980	2.520798	8.059074	-0.060627	0.031012	-0.007873	-0.903564	-0.023682	-0.616211	17.415327	32.066953	-22.195595
42927		-5.454241	2.632256	7.960495	-0.061161	0.015050	-0.003891	-0.902344	-0.014160	-0.623291	17.382252	32.075562	-22.195754
42928		-5.446397	2.497325	7.977835	-0.057079	-0.000867	0.003110	-0.904053	-0.026855	-0.618164	17.351738	32.074514	-22.194797
42929		-5.396298	2.421875	8.010121	-0.060272	-0.023674	0.002452	-0.904785	-0.019531	-0.613037	17.317198	32.060861	-22.198675
42930		-5.415570	2.442912	7.970202	-0.052539	-0.042237	0.006287	-0.903076	-0.015381	-0.614746	17.285956	32.036646	-22.204273
42931		-5.372769	2.425782	7.961508	-0.059502	-0.074640	0.002028	-0.899658	-0.017578	-0.615234	17.246307	31.995175	-22.218625
42932		-5.399078	2.413850	7.924679	-0.055902	-0.095426	-0.001395	-0.906738	-0.019775	-0.619629	17.204917	31.943161	-22.239439
42933		-5.391981	2.501012	7.973149	-0.060738	-0.122357	-0.000496	-0.910156	-0.023682	-0.619873	17.158740	31.875980	-22.264844
42934		-5.412430	2.561196	8.008959	-0.066017	-0.146280	-0.001157	-0.915039	-0.012939	-0.618652	17.106416	31.796072	-22.295730
42935		-5.370660	2.672989	7.990032	-0.074574	-0.160338	0.001585	-0.909912	-0.026855	-0.617188	17.049220	31.707700	-22.327124
42936		-5.393933	2.678292	7.930394	-0.097037	-0.179689	0.003212	-0.909668	-0.013428	-0.617676	16.977378	31.608708	-22.361468
42937		-5.412852	2.663596	7.942887	-0.107126	-0.193488	0.005461	-0.912354	-0.010254	-0.622559	16.899696	31.501454	-22.396544
42938		-5.400504	2.583698	8.013466	-0.120716	-0.201085	0.014630	-0.909912	-0.025635	-0.613525	16.816291	31.388782	-22.426767
42939		-5.251878	2.530310	8.085156	-0.129870	-0.206272	0.016620	-0.912598	-0.007324	-0.614746	16.728367	31.272584	-22.456702
42940		-5.122353	2.392663	8.311132	-0.120945	-0.185025	0.021419	-0.915039	-0.009521	-0.622559	16.649040	31.167541	-22.479432
42941		-4.984292	2.470277	8.364773	-0.105051	-0.153768	0.017803	-0.915527	-0.017578	-0.612793	16.581242	31.079906	-22.498121
42942		-4.859740	2.425021	8.416123	-0.084131	-0.106562	0.013210	-0.919189	-0.010498	-0.610107	16.528236	31.019249	-22.510636
42943		-4.971249	2.222415	8.408384	-0.063492	-0.066464	0.001144	-0.917725	-0.010498	-0.616211	16.487436	30.982256	-22.523204
42944		-4.996856	2.191742	8.313422	-0.041031	-0.034221	0.007654	-0.916748	-0.012207	-0.611572	16.464403	30.962192	-22.525481
42945		-4.883339	2.333803	8.272529	-0.021394	-0.002839	0.003073	-0.913086	-0.005371	-0.615967	16.454585	30.959838	-22.524727
42946		-4.929498	2.292648	8.314591	-0.014559	0.031250	-0.011456	-0.911133	-0.007324	-0.617920	16.446790	30.978841	-22.526758
42947		-5.024151	2.303621	8.270160	-0.000941	0.061292	-0.015130	-0.915771	-0.017090	-0.614258	16.448933	31.014681	-22.525535
42948		-4.948034	2.330039	8.294561	0.011037	0.087197	-0.017236	-0.918945	-0.016113	-0.619385	16.459342	31.065357	-22.520888
42949		-4.990470	2.323349	8.246984	0.018140	0.110273	-0.024614	-0.916504	-0.014893	-0.624512	16.474082	31.129649	-22.516446
42950		-5.050765	2.395107	8.254252	0.024566	0.132697	-0.030045	-0.918701	-0.008545	-0.616943	16.492479	31.207387	-22.511467
42951		-5.055779	2.447240	8.133698	0.023389	0.150599	-0.046041	-0.917480	-0.016846	-0.617676	16.507102	31.297317	-22.513068
42952		-4.957973	2.499689	8.125409	0.021090	0.179492	-0.058576	-0.914063	-0.012695	-0.622314	16.518641	31.405367	-22.517466
42953		-5.020557	2.549442	8.115236	0.011969	0.194202	-0.075090	-0.907715	-0.006592	-0.615967	16.521315	31.523982	-22.529412
42954		-4.941383	2.495345	8.162076	0.011415	0.217797	-0.086406	-0.909424	-0.016357	-0.623535	16.521755	31.657596	-22.544198
42955		-4.970856	2.530750	8.178394	0.012478	0.242026	-0.102967	-0.913818	-0.010010	-0.622314	16.520006	31.807023	-22.565018
42956		-5.152536	2.524255	8.163053	0.012024	0.265673	-0.114226	-0.902100	-0.019287	-0.623779	16.516048	31.971442	-22.588851
42957		-5.331032	2.406138	8.174420	0.012482	0.278954	-0.120287	-0.907959	-0.015137	-0.620605	16.511959	32.143973	-22.613896
42958		-5.367046	2.368089	8.116442	0.019628	0.289054	-0.121230	-0.897705	-0.011719	-0.614990	16.512155	32.322360	-22.638080
42959		-5.398908	2.382960	8.156512	0.025036	0.291456	-0.124361	-0.898682	-0.016113	-0.623291	16.514946	32.502423	-22.663464
42960		-5.463492	2.481822	8.068164	0.029433	0.295484	-0.128522	-0.888428	-0.020508	-0.622314	16.518697	32.685508	-22.691025
42961		-5.353730	2.486881	8.125467	0.040618	0.301574	-0.135391	-0.896484	-0.022705	-0.618896	16.527401	32.872929	-22.721723
42962		-5.496987	2.429084	8.188702	0.058089	0.317872	-0.147130	-0.890381	-0.018311	-0.623291	16.543134	33.071347	-22.757523
42963		-5.500643	2.328508	8.015316	0.088970	0.329540	-0.160102	-0.894531	-0.014893	-0.631592	16.573478	33.278178	-22.798979
42964		-5.557505	2.425484	8.105372	0.115276	0.355017	-0.173586	-0.875244	-0.026855	-0.618408	16.616240	33.501339	-22.844258
42965		-5.635412	2.222659	8.095649	0.131164	0.372719	-0.164597	-0.880127	-0.022217	-0.631836	16.673654	33.732662	-22.880005
42966		-5.650205	2.237601	7.973208	0.145631	0.383996	-0.151103	-0.880859	-0.024658	-0.627197	16.745140	33.968118	-22.904709
42967		-5.691785	2.261536	8.003506	0.162174	0.398058	-0.141881	-0.869873	-0.028809	-0.635986	16.831628	34.209655	-22.919843
42968		-5.617737	2.160232	8.040380	0.172535	0.406336	-0.129836	-0.869873	-0.023438	-0.628906	16.929256	34.453902	-22.925167
42969		-5.553556	2.352992	8.002497	0.171993	0.431290	-0.112575	-0.864502	-0.028564	-0.633789	17.036682	34.708786	-22.913135
42970		-5.640975	2.267183	7.957470	0.171841	0.469069	-0.113908	-0.872803	-0.024658	-0.625488	17.147901	34.984720	-22.893916
42971		-5.625545	2.329632	7.957249	0.187390	0.498378	-0.115522	-0.853516	-0.024170	-0.623779	17.271867	35.276780	-22.868636
42972		-5.538133	2.370051	7.975040	0.203208	0.533749	-0.123460	-0.848145	-0.024902	-0.636230	17.406278	35.589640	-22.840700
42973		-5.639212	2.215991	7.980455	0.233337	0.575624	-0.135439	-0.854492	-0.038330	-0.643311	17.559651	35.927241	-22.810534
42974		-5.708761	2.306196	7.951894	0.269777	0.616030	-0.139117	-0.838135	-0.035645	-0.636963	17.738020	36.287595	-22.773173
42975		-5.672256	2.347317	7.817222	0.297645	0.660796	-0.150974	-0.830566	-0.037598	-0.635986	17.935039	36.674219	-22.732086
42976		-5.727862	2.343939	7.799710	0.318806	0.717570	-0.157743	-0.835938	-0.039551	-0.635498	18.149885	37.092958	-22.681431
42977		-5.810378	2.402504	7.674503	0.334259	0.779633	-0.157721	-0.819092	-0.044678	-0.634033	18.384324	37.545192	-22.614017
42978		-5.884314	2.403975	7.732134	0.353500	0.837210	-0.161382	-0.825928	-0.048096	-0.640381	18.638046	38.029227	-22.533395
42979		-5.925842	2.521284	7.671848	0.369746	0.900028	-0.171976	-0.812500	-0.044922	-0.637695	18.908847	38.548909	-22.441569
42980		-5.933827	2.662806	7.682151	0.363064	0.958554	-0.188074	-0.807129	-0.050293	-0.636230	19.180166	39.103014	-22.343456
42981		-5.974401	2.649099	7.634626	0.360119	1.025121	-0.201121	-0.791992	-0.054443	-0.630859	19.458349	39.695148	-22.233493
42982		-5.981350	2.748220	7.612510	0.341223	1.093220	-0.218544	-0.788574	-0.058105	-0.640137	19.732193	40.327000	-22.114444
42983		-6.122846	2.720563	7.571748	0.332620	1.170300	-0.234636	-0.777832	-0.056152	-0.641602	20.011503	41.003043	-21.981429
42984		-6.126903	2.596211	7.569470	0.323514	1.250261	-0.250208	-0.763428	-0.068115	-0.648926	20.296677	41.724651	-21.833128
42985		-6.175258	2.571454	7.522272	0.327566	1.343642	-0.257714	-0.759033	-0.062256	-0.640869	20.603950	42.497319	-21.657853
42986		-6.243702	2.657554	7.474102	0.338296	1.450102	-0.274031	-0.740234	-0.074951	-0.648438	20.936150	43.329537	-21.457305
42987		-6.244424	2.632206	7.456390	0.339330	1.567795	-0.291457	-0.734863	-0.069092	-0.646484	21.292855	44.227419	-21.225727
42988		-6.247771	2.675640	7.473587	0.338016	1.708319	-0.308891	-0.714355	-0.072021	-0.641602	21.679297	45.202657	-20.954343
42989		-6.325155	2.609810	7.474916	0.347385	1.874760	-0.331512	-0.694580	-0.082520	-0.641846	22.109929	46.269930	-20.633835
42990		-6.314997	2.854537	7.573982	0.360519	2.073351	-0.376062	-0.679932	-0.074463	-0.640869	22.586621	47.450147	-20.266171
42991		-6.153662	2.945291	7.652216	0.381793	2.319388	-0.441763	-0.666260	-0.084961	-0.646240	23.122188	48.772816	-19.843397
42992		-5.946726	3.283933	7.596008	0.394412	2.614172	-0.549342	-0.643799	-0.086182	-0.643799	23.707837	50.271833	-19.373044
42993		-5.956374	3.415798	7.588055	0.412353	2.972720	-0.687128	-0.616699	-0.091064	-0.638184	24.359967	51.987555	-18.841618
42994		-6.142552	3.520804	7.585194	0.427806	3.346076	-0.864656	-0.593750	-0.087158	-0.632813	25.071510	53.935557	-18.259761
42995		-6.284620	3.294333	7.510229	0.429670	3.781014	-1.041013	-0.554443	-0.093506	-0.624756	25.881644	56.147658	-17.574325
42996		-6.775400	3.336748	7.466878	0.471593	4.260226	-1.217415	-0.525391	-0.094727	-0.625244	26.870566	58.643552	-16.723689
42997		-7.609246	3.486757	7.590824	0.520084	4.761371	-1.390013	-0.484863	-0.086670	-0.614990	28.129482	61.431057	-15.617295
42998		-9.014624	4.267278	7.596062	0.572931	5.146800	-1.568258	-0.440430	-0.093994	-0.599365	29.709616	64.445902	-14.214305
42999		-10.295445	5.346606	8.098121	0.633015	5.424142	-1.749155	-0.396729	-0.093994	-0.591797	31.705597	67.629937	-12.430039
43000		-12.241411	5.909377	8.126544	0.630277	5.554330	-1.930985	-0.351318	-0.091064	-0.571289	34.185567	70.901609	-10.167675
43001		-14.784547	5.565592	8.526588	0.669907	5.462229	-2.081456	-0.315674	-0.082520	-0.554688	37.302362	74.139277	-7.305864
43002		-14.412666	4.701683	7.930021	0.883385	5.265594	-2.196387	-0.266357	-0.082031	-0.531250	41.506682	77.269504	-3.493284
43003		-15.034202	5.078580	8.497856	1.131877	5.047431	-2.258439	-0.229736	-0.092285	-0.506348	47.743332	80.240371	2.199879
43004		-15.730138	5.476093	8.455963	1.266915	4.722026	-2.322994	-0.190430	-0.086182	-0.483887	57.560702	82.946878	11.384838
43005		-15.908307	5.912637	8.317322	1.318436	4.378624	-2.409647	-0.162109	-0.086670	-0.458252	75.263113	85.241500	28.415360
43006		-16.536661	5.842129	9.249751	1.413356	3.930291	-2.451928	-0.131836	-0.081787	-0.431152	108.826309	86.620920	61.242529
43007		-16.172175	5.866031	9.566993	1.620084	3.334590	-2.399198	-0.105713	-0.083740	-0.403076	149.485726	86.472237	101.038100
43008		-12.902118	5.512371	9.123740	1.806829	2.730082	-2.318792	-0.089355	-0.079590	-0.377441	175.090213	85.363956	125.664480
43009		-6.314671	4.994675	7.046373	1.912051	2.129471	-2.292299	-0.065186	-0.086426	-0.371582	-170.140424	84.079549	139.392987
43010		6.447338	2.643848	6.139824	1.774507	1.710955	-2.321672	-0.057373	-0.079102	-0.349121	-160.127302	82.790973	148.445544
43011		-26.709794	9.322230	17.254306	1.862062	0.476881	-1.774060	-0.037842	-0.083252	-0.346924	-152.830958	82.134041	154.726990
43012		-15.237835	12.819022	17.080206	1.296894	-1.974160	-0.943808	-0.048584	-0.076904	-0.354980	-144.101440	82.822042	162.779807
43013		0.343634	10.680318	9.305633	0.381781	-2.782010	-0.500544	-0.058594	-0.082275	-0.374023	-133.002473	83.831586	173.731292
43014		1.459285	7.172838	7.062329	-0.262329	-2.911050	-0.335664	-0.065186	-0.073730	-0.385498	-118.530683	84.662751	-171.576578
43015		-1.401408	3.716256	6.288274	-0.324244	-2.998846	-0.054148	-0.083740	-0.073730	-0.404541	-100.216329	85.210314	-153.007481
43016		-0.849663	2.672006	5.143996	-0.095694	-3.165464	0.262309	-0.093262	-0.083252	-0.425781	-78.087689	85.339122	-130.753312
43017		-0.736288	2.859919	4.978851	0.177107	-3.332321	0.632243	-0.117432	-0.096680	-0.451172	-55.582165	84.912309	-108.272233
43018		-1.236099	3.636886	5.367455	0.303069	-3.447551	0.968866	-0.138428	-0.095947	-0.467529	-36.730514	83.929141	-89.510894
43019		-2.318631	3.642919	5.556695	0.272310	-3.576137	1.154149	-0.155273	-0.108398	-0.488281	-23.157177	82.473067	-76.002599
43020		-3.578918	2.941957	5.889264	0.252343	-3.795006	1.280538	-0.183350	-0.121582	-0.515625	-13.652753	80.629987	-66.545297
43021		-4.150382	2.423614	6.091529	0.268472	-4.062170	1.360194	-0.210205	-0.127441	-0.540039	-7.066620	78.476630	-60.008064
43022		-4.061503	1.958962	5.924469	0.298127	-4.265952	1.369415	-0.245605	-0.138184	-0.563965	-2.502921	76.097794	-55.509692
43023		-4.029011	1.625781	5.892090	0.346455	-4.376728	1.358329	-0.284180	-0.145264	-0.578125	0.715253	73.601197	-52.384244
43024		-4.276386	1.373255	6.202971	0.411048	-4.407836	1.387549	-0.315186	-0.157715	-0.592041	3.188185	71.042038	-50.040712
43025		-5.340525	1.493709	6.935795	0.482862	-4.411674	1.488944	-0.359619	-0.163818	-0.615234	5.267006	68.457564	-48.122571
43026		-6.243805	1.515398	7.540408	0.544899	-4.457601	1.661710	-0.409424	-0.172852	-0.628418	7.177463	65.807072	-46.393003
43027		-6.904759	1.260633	7.703768	0.614092	-4.496102	1.863734	-0.457764	-0.187988	-0.642822	8.985101	63.105837	-44.782326
43028		-6.948477	1.282902	7.375696	0.660800	-4.457669	2.052638	-0.492432	-0.190186	-0.647949	10.714732	60.379552	-43.253860
43029		-7.235090	1.885478	7.170770	0.609036	-4.289761	2.251369	-0.551758	-0.193115	-0.652344	12.353081	57.712861	-41.753236
43030		-8.331488	2.996387	7.621774	0.400742	-4.065674	2.461354	-0.593018	-0.209717	-0.651855	13.861953	55.115310	-40.223152
43031		-8.784250	3.496547	8.173641	0.063302	-3.862175	2.697722	-0.641357	-0.198486	-0.651611	15.188230	52.584978	-38.628549
43032		-8.622856	3.115753	8.643801	-0.221765	-3.662345	2.924250	-0.686523	-0.198242	-0.654541	16.368746	50.100873	-36.959787
43033		-8.747659	2.433439	8.863308	-0.359150	-3.441276	3.083322	-0.738037	-0.182861	-0.646973	17.444867	47.700109	-35.261786
43034		-9.572929	2.434502	8.919727	-0.345307	-3.224971	3.126043	-0.765625	-0.179443	-0.646729	18.448544	45.381004	-33.612176
43035		-11.189481	3.155665	9.275929	-0.291807	-3.040292	3.085075	-0.803467	-0.166748	-0.649170	19.362966	43.159848	-32.065927
43036		-13.259308	4.162575	9.985948	-0.272774	-2.963831	3.058276	-0.839355	-0.166260	-0.644043	20.179617	40.959793	-30.619167
43037		-14.123692	4.907971	10.155437	-0.335357	-2.996355	3.069005	-0.874756	-0.151611	-0.642334	20.861289	38.735165	-29.258868
43038		-13.519537	4.726766	9.780898	-0.424916	-2.994795	3.063620	-0.916992	-0.145996	-0.639160	21.405511	36.492782	-27.973871
43039		-13.091769	4.282515	9.545951	-0.454897	-2.898083	3.046913	-0.952881	-0.132080	-0.623047	21.864708	34.305290	-26.734945
43040		-13.103819	4.139626	9.842448	-0.463011	-2.783908	3.031397	-0.990479	-0.107422	-0.609863	22.263991	32.165903	-25.527992
43041		-13.624974	3.695215	10.362345	-0.421451	-2.716500	3.028000	-1.026123	-0.094482	-0.602783	22.633357	30.064600	-24.350073
43042		-14.514919	2.756318	10.918658	-0.336504	-2.734129	3.043921	-1.059082	-0.083252	-0.579834	22.997007	27.936083	-23.207876
43043		-14.924281	1.742803	11.161068	-0.224098	-2.830715	3.012349	-1.095215	-0.068115	-0.572754	23.350554	25.765569	-22.145562
43044		-15.137654	1.302386	10.976124	-0.148755	-2.945236	2.850243	-1.125000	-0.051758	-0.549072	23.645650	23.559216	-21.239468
43045		-15.889888	1.839959	10.546471	-0.215984	-3.076595	2.513812	-1.158447	-0.039795	-0.528564	23.775873	21.365831	-20.580214
43046		-16.333726	2.318970	9.220556	-0.441063	-3.266872	2.028800	-1.186768	-0.029785	-0.505371	23.639535	19.177767	-20.249447
43047		-15.306602	1.359431	6.960304	-0.614740	-3.396831	1.485355	-1.217529	-0.009277	-0.487061	23.290987	17.053374	-20.244110
43048		-14.375729	-0.085052	4.404431	-0.497235	-3.371447	0.997706	-1.240479	0.001953	-0.455566	22.940332	15.046354	-20.487597
43049		-13.572677	-1.172922	1.944897	-0.107977	-3.169198	0.620827	-1.269287	0.006348	-0.425293	22.785188	13.234750	-20.877741
43050		-13.355503	-1.558472	-0.115866	0.373907	-2.814256	0.386663	-1.288574	0.005371	-0.401855	22.907494	11.657695	-21.311134
43051		-13.579675	-0.689259	-1.836621	0.661844	-2.338345	0.284064	-1.304932	0.004639	-0.385010	23.215682	10.361002	-21.693847
43052		-14.212306	0.521066	-3.690508	0.549727	-1.767976	0.246688	-1.322754	0.012451	-0.362549	23.484626	9.370852	-21.970899
43053		-15.276454	0.647996	-5.550223	0.143811	-1.112603	0.241733	-1.337402	0.013672	-0.353516	23.548691	8.730832	-22.100488
43054		-16.308261	-0.602390	-6.866242	-0.250700	-0.449776	0.216917	-1.338623	0.026611	-0.344971	23.408187	8.441922	-22.090104
43055		-15.953384	-1.569617	-7.017480	-0.425965	0.200335	0.122747	-1.346924	0.028320	-0.340576	23.182488	8.519307	-21.979518
43056		-15.570396	-1.332643	-5.360084	-0.418229	0.774086	-0.041537	-1.331299	0.027588	-0.341309	22.967728	8.934854	-21.826716
43057		-11.923689	-2.584895	-4.154503	-0.250476	1.541352	-0.526178	-1.334473	0.032715	-0.350342	22.837085	9.865456	-21.760469
43058		-0.977676	1.454412	-1.774784	-0.262704	2.414780	-1.362851	-1.325928	0.033691	-0.374023	22.653240	11.442547	-21.949747
43059		-3.842204	6.219590	10.370021	-0.619622	3.187794	-1.809146	-1.323486	0.031738	-0.388184	22.242396	13.526189	-22.217265
43060		-2.081523	8.229263	16.501370	-0.398511	2.673835	-1.670313	-1.310791	0.017334	-0.414551	21.935808	15.304912	-22.538817
43061		-1.281720	10.272632	10.432024	-0.229160	2.781757	-1.323636	-1.307617	0.012695	-0.435791	21.774282	17.066264	-22.654570
43062		-4.760053	6.424314	6.362707	-0.340271	3.463531	-1.111393	-1.284424	0.014404	-0.456543	21.627622	19.144635	-22.505749
43063		-9.910165	1.686375	9.145552	-0.306736	3.921982	-0.908405	-1.268555	0.004883	-0.474365	21.580645	21.425300	-22.140248
43064		-17.032488	0.764905	14.261567	-0.241866	3.546907	-0.832770	-1.248291	0.015869	-0.502930	21.569408	23.489996	-21.812430
43065		-16.096975	0.214063	14.285229	-0.251893	2.756375	-0.979083	-1.238525	0.005615	-0.524658	21.452712	25.164730	-21.750329
43066		-13.762167	4.370071	12.476834	-0.361288	2.200317	-1.005524	-1.222168	0.009521	-0.532959	21.209293	26.548723	-21.837931
43067		-13.189640	6.502837	10.339066	-0.513317	1.685642	-0.869771	-1.219971	0.005859	-0.540039	20.856301	27.628781	-21.971720
43068		-10.626876	3.029180	9.417628	-0.525690	1.249407	-0.667756	-1.208496	0.003662	-0.553467	20.500581	28.434182	-22.091635
43069		-8.763547	1.683310	9.442870	-0.431680	0.917312	-0.584333	-1.206543	0.013428	-0.559814	20.183013	29.043108	-22.241968
43070		-6.441392	4.625202	7.861961	-0.425604	0.680092	-0.525127	-1.197754	0.007813	-0.565186	19.856811	29.513063	-22.413953
43071		-5.665980	4.756422	7.575795	-0.523193	0.651973	-0.494077	-1.186279	0.006104	-0.568604	19.478297	29.959832	-22.576846
43072		-6.971926	1.969370	8.587440	-0.536772	0.484746	-0.458157	-1.180664	0.009521	-0.573975	19.081636	30.309557	-22.758043
43073		-7.036626	1.773339	8.885778	-0.460906	0.292752	-0.385725	-1.191406	0.008301	-0.570801	18.728387	30.539573	-22.938177
43074		-6.448350	2.817337	8.422782	-0.409460	0.162141	-0.284414	-1.180908	0.011963	-0.571533	18.421286	30.680532	-23.084059
43075		-6.031464	2.623372	8.414923	-0.372989	0.103354	-0.232506	-1.183594	0.019531	-0.575928	18.145131	30.778271	-23.210286
43076		-5.978042	2.018606	8.563463	-0.324878	0.063158	-0.197869	-1.181885	0.014160	-0.580811	17.902736	30.848802	-23.323564
43077		-5.714754	1.786758	8.585571	-0.249321	0.038678	-0.147713	-1.177490	0.022461	-0.574707	17.717467	30.895500	-23.410230
43078		-5.474054	1.683405	8.645139	-0.167237	0.046479	-0.093812	-1.184570	0.016602	-0.577881	17.597104	30.938252	-23.461351
43079		-5.387863	2.139230	8.378811	-0.105979	0.061382	-0.056129	-1.186035	0.018555	-0.573730	17.526056	30.981196	-23.485415
43080		-5.219757	2.627405	8.097828	-0.094730	0.059907	-0.052423	-1.180176	0.015381	-0.578125	17.461992	31.024042	-23.507678
43081		-5.219744	2.505326	8.085914	-0.105624	0.055604	-0.056769	-1.181152	0.013428	-0.579590	17.390237	31.063889	-23.533448
43082		-5.236466	2.462294	8.171022	-0.112256	0.054428	-0.066923	-1.177246	0.012939	-0.581787	17.310688	31.106170	-23.566202
43083		-5.074713	2.324901	8.229668	-0.098556	0.073564	-0.056391	-1.184082	0.018799	-0.580078	17.244846	31.155722	-23.588303
43084		-5.021969	2.277560	8.256531	-0.079209	0.097136	-0.055515	-1.173096	0.026611	-0.580566	17.192257	31.219373	-23.605448
43085		-5.046416	2.254360	8.182508	-0.063227	0.116711	-0.046361	-1.181152	0.020508	-0.582520	17.154308	31.290812	-23.612723
43086		-5.053695	2.390826	8.188994	-0.056299	0.131895	-0.055456	-1.177490	0.025635	-0.578613	17.118310	31.373450	-23.623107
43087		-5.270066	2.591244	8.079968	-0.061376	0.127764	-0.074569	-1.177246	0.017578	-0.579102	17.073042	31.455686	-23.646428
43088		-5.445643	2.686605	8.002140	-0.073217	0.097120	-0.104262	-1.178467	0.015137	-0.585205	17.007276	31.527448	-23.695194
43089		-5.374394	2.629433	7.959206	-0.094609	0.061780	-0.123460	-1.173584	0.015869	-0.588379	16.919555	31.581649	-23.763159
43090		-5.226250	2.709727	7.959187	-0.109826	0.036600	-0.147726	-1.174561	0.019043	-0.591309	16.811731	31.627337	-23.852018
43091		-5.145602	2.773765	8.002475	-0.126286	0.034644	-0.161922	-1.170166	0.022949	-0.583252	16.689833	31.672785	-23.950341
43092		-5.223533	2.596409	8.033927	-0.135071	0.032264	-0.164865	-1.178955	0.028076	-0.592773	16.561039	31.718579	-24.051382
43093		-5.314037	2.242230	8.095241	-0.134788	0.029952	-0.154636	-1.173096	0.015381	-0.581787	16.435971	31.759896	-24.146225
43094		-5.348171	2.269135	8.109539	-0.116348	0.039009	-0.139593	-1.176270	0.024658	-0.595947	16.326888	31.804946	-24.229958
43095		-5.290024	2.359624	8.067170	-0.103264	0.046459	-0.119843	-1.167480	0.019775	-0.587891	16.233136	31.849446	-24.299434
43096		-5.195298	2.440530	8.095374	-0.098154	0.057463	-0.120076	-1.175537	0.022217	-0.587891	16.142731	31.901294	-24.367311
43097		-5.218395	2.646764	7.993840	-0.099711	0.075976	-0.127447	-1.173096	0.025391	-0.596191	16.051089	31.963061	-24.436441
43098		-5.324391	2.588078	7.977478	-0.113205	0.080277	-0.145620	-1.168457	0.023438	-0.585938	15.945262	32.031309	-24.516936
43099		-5.311757	2.545845	8.018846	-0.120671	0.084339	-0.153080	-1.169678	0.020508	-0.592041	15.833253	32.101493	-24.601551
43100		-5.383654	2.258089	8.073778	-0.120186	0.090046	-0.148409	-1.173096	0.012939	-0.595215	15.723041	32.175299	-24.682478
43101		-5.333820	2.133016	8.114812	-0.107002	0.097618	-0.135801	-1.170898	0.012939	-0.589844	15.625743	32.249864	-24.753844
43102		-5.240192	2.194778	8.169297	-0.091684	0.114302	-0.121516	-1.164551	0.019775	-0.595947	15.543181	32.332685	-24.813227
43103		-5.307041	2.107465	8.205853	-0.075249	0.139049	-0.116053	-1.171875	0.030029	-0.588867	15.474632	32.426924	-24.864554
43104		-5.277772	2.208738	8.186124	-0.064294	0.160212	-0.113954	-1.161377	0.024902	-0.593994	15.414510	32.533813	-24.911054
43105		-5.298773	2.289543	8.178166	-0.045379	0.184764	-0.111223	-1.168945	0.016357	-0.589111	15.368876	32.652482	-24.951313
43106		-5.305464	2.456624	8.098907	-0.044748	0.201037	-0.122142	-1.164307	0.018311	-0.598877	15.320674	32.783088	-24.996178
43107		-5.365040	2.385318	8.115770	-0.041137	0.224509	-0.142719	-1.156250	0.024414	-0.604248	15.269760	32.928426	-25.050364
43108		-5.421202	2.294032	8.117287	-0.038531	0.238331	-0.150102	-1.149414	0.018066	-0.598877	15.218329	33.083782	-25.107369
43109		-5.425298	2.133867	8.104917	-0.025136	0.253052	-0.156652	-1.154297	0.019287	-0.603027	15.173835	33.246915	-25.166127
43110		-5.519928	2.035116	8.187161	-0.008434	0.273745	-0.156049	-1.151611	0.017822	-0.601074	15.140429	33.422665	-25.221215
43111		-5.496391	2.049149	8.116927	0.012136	0.290351	-0.154194	-1.152832	0.018555	-0.599121	15.121333	33.606005	-25.272111
43112		-5.531386	2.062051	8.155739	0.034747	0.323206	-0.143095	-1.148438	0.017822	-0.602539	15.121860	33.807141	-25.310080
43113		-5.494705	2.146502	8.125180	0.051448	0.345622	-0.146684	-1.152344	0.011475	-0.607422	15.133203	34.019926	-25.346262
43114		-5.536462	2.181910	8.089490	0.073262	0.375638	-0.154022	-1.141602	0.016846	-0.606934	15.156724	34.251696	-25.382154
43115		-5.577184	2.199010	8.079834	0.090436	0.406321	-0.162921	-1.149658	0.014160	-0.611816	15.190253	34.500506	-25.418177
43116		-5.587712	2.225884	8.069291	0.114497	0.447284	-0.172644	-1.145752	0.006104	-0.613770	15.237538	34.774709	-25.453373
43117		-5.328196	2.337548	8.184691	0.124105	0.499162	-0.195143	-1.140137	0.011230	-0.614502	15.287546	35.079741	-25.493809
43118		-5.385587	2.356688	8.208753	0.138807	0.575441	-0.216455	-1.133301	0.012939	-0.612549	15.345243	35.431416	-25.534572
43119		-5.042496	2.406150	8.411254	0.147834	0.680415	-0.238118	-1.124023	-0.000244	-0.615479	15.411396	35.843177	-25.569932
43120		-5.045834	1.741578	8.688659	0.182866	0.830948	-0.270607	-1.116211	-0.003174	-0.619629	15.500872	36.344236	-25.598799
43121		-5.165176	1.861974	8.676754	0.255066	1.002858	-0.289784	-1.121094	0.003174	-0.626221	15.644411	36.942004	-25.606600
43122		-5.081658	1.748733	8.930563	0.349799	1.196296	-0.305123	-1.104492	-0.008057	-0.627441	15.859470	37.649921	-25.585231
43123		-5.146551	2.018838	8.831035	0.391532	1.436314	-0.310789	-1.094482	-0.009521	-0.639648	16.128937	38.489772	-25.515369
43124		-5.116162	1.937582	9.035108	0.429778	1.690023	-0.293352	-1.087158	-0.010498	-0.640381	16.465490	39.467001	-25.374477
43125		-5.090893	2.180380	9.041201	0.489950	1.928338	-0.308328	-1.074707	-0.024658	-0.654541	16.871797	40.575806	-25.182401
43126		-5.144832	2.314838	8.985945	0.488945	2.242104	-0.324915	-1.053223	-0.026855	-0.659912	17.327829	41.858906	-24.918043
43127		-5.164157	2.573437	9.052028	0.514979	2.581908	-0.360924	-1.027832	-0.025635	-0.673584	17.854241	43.331267	-24.579304
43128		-4.964183	3.092702	8.961705	0.535010	2.967037	-0.447819	-1.005615	-0.033203	-0.676514	18.439128	45.026965	-24.182406
43129		-5.130082	3.008504	9.067772	0.555005	3.391416	-0.564780	-0.991211	-0.037109	-0.685791	19.088583	46.970655	-23.724577
43130		-5.109763	3.117933	9.064979	0.596852	3.835734	-0.708927	-0.956543	-0.053711	-0.695801	19.819827	49.178313	-23.203881
43131		-4.761316	2.808727	9.065754	0.653629	4.370605	-0.896576	-0.921143	-0.054443	-0.708496	20.661106	51.705335	-22.601337
43132		-5.004270	2.865662	8.951159	0.783198	5.006510	-1.126738	-0.879150	-0.062744	-0.716309	21.689968	54.613243	-21.879078
43133		-5.836370	3.330868	8.890457	0.916660	5.670500	-1.438172	-0.829834	-0.074463	-0.726074	22.921863	57.931669	-21.032384
43134		-7.708701	4.552503	9.644297	0.975918	6.340092	-1.706118	-0.769531	-0.071045	-0.724854	24.450349	61.650633	-19.913742
43135		-9.907260	5.965479	10.506918	0.887157	6.862891	-1.881623	-0.720215	-0.086182	-0.746094	26.403613	65.664927	-18.304890
43136		-13.720084	4.665816	10.828409	0.906620	6.979119	-2.038031	-0.654053	-0.093506	-0.731934	28.929495	69.748484	-16.140191
43137		-17.843681	4.080108	10.809654	1.297295	6.616695	-2.018321	-0.606934	-0.107910	-0.734131	32.521261	73.599340	-13.143769
43138		-19.094659	8.202493	10.432674	1.463007	6.018604	-2.099841	-0.547607	-0.113770	-0.713379	37.113971	77.118138	-9.267647
43139		-19.456402	8.930666	10.615057	1.330597	5.300851	-2.301322	-0.513428	-0.122314	-0.706787	42.549753	80.297688	-4.506232
43140		-16.458305	7.689939	9.884042	1.158881	4.667125	-2.556290	-0.476563	-0.133057	-0.689209	49.464619	83.211538	1.805430
43141		-14.313898	6.712807	10.295519	1.127448	4.151271	-2.678489	-0.440430	-0.136719	-0.676270	61.498780	85.836983	13.240295
43142		-10.488156	5.302133	9.688020	1.316594	3.664548	-2.626914	-0.419434	-0.143066	-0.653564	93.890693	87.829466	44.916892
43143		-5.107619	4.038829	7.158160	1.658363	3.168102	-2.528957	-0.402100	-0.148193	-0.641113	160.608929	87.895360	110.719139
43144		7.903133	3.042559	6.882409	1.879965	2.751108	-2.371894	-0.383301	-0.151367	-0.625977	-168.706812	86.371837	140.356735
43145		-17.899231	6.799941	13.185079	2.170393	2.052344	-1.798218	-0.380859	-0.172852	-0.600586	-158.751430	84.950569	149.090711
43146		-20.578964	14.671462	17.870678	1.753584	-0.379318	-0.917313	-0.408447	-0.173096	-0.599609	-151.317982	84.930238	155.542001
43147		-3.779864	14.281143	11.572398	0.595490	-1.848923	-0.187999	-0.441162	-0.173096	-0.587158	-142.769298	85.762793	163.774260
43148		0.471235	11.806427	8.265950	-0.643179	-2.393540	0.213412	-0.479004	-0.165771	-0.593018	-129.754596	86.851432	177.181813
43149		0.185437	6.495871	6.668140	-1.273576	-2.575475	0.516815	-0.522461	-0.149658	-0.591797	-105.049574	87.816953	-157.359688
43150		0.869645	2.816720	5.470611	-1.296092	-2.647591	0.860112	-0.571777	-0.142334	-0.586182	-60.011529	88.135958	-111.556346
43151		0.159053	1.241623	5.272316	-0.915187	-2.767285	1.273755	-0.617920	-0.125732	-0.580811	-19.784629	87.336991	-70.778803
43152		-1.886131	1.738129	6.216204	-0.466461	-3.022427	1.683119	-0.666748	-0.111816	-0.566650	0.665824	85.757663	-50.029081
43153		-3.286890	3.277462	6.733694	-0.291714	-3.421488	1.964135	-0.720459	-0.098389	-0.542236	10.559283	83.688217	-39.929559
43154		-3.545512	3.715904	6.707312	-0.427220	-3.861627	2.075875	-0.783691	-0.085205	-0.517822	15.350004	81.255207	-34.854491
43155		-3.176863	2.511870	6.147974	-0.624683	-4.219748	2.042959	-0.824219	-0.063232	-0.480225	17.468235	78.604352	-32.342302
43156		-2.029527	0.247674	5.408363	-0.617498	-4.409681	1.907652	-0.872070	-0.046631	-0.452148	18.288838	75.855685	-31.141601
43157		-2.147044	-1.315950	5.347981	-0.326848	-4.439572	1.724882	-0.912109	-0.038818	-0.423584	18.581518	73.129704	-30.645754
43158		-3.760407	-0.709170	6.121183	0.060205	-4.478043	1.526912	-0.951660	-0.017822	-0.373779	18.650900	70.410170	-30.612436
43159		-5.323263	0.678881	6.719760	0.295838	-4.633364	1.325132	-0.973389	-0.016113	-0.328369	18.492628	67.651587	-30.965589
43160		-5.558804	0.997507	6.393273	0.394061	-4.763671	1.143971	-1.015381	-0.013184	-0.260010	18.184455	64.845477	-31.552484
43161		-5.601830	0.506416	5.986969	0.521776	-4.686423	1.006744	-1.026123	-0.002441	-0.207764	17.916018	62.113452	-32.188778
43162		-6.544442	0.645843	6.259274	0.717575	-4.466285	1.027549	-1.028076	0.010986	-0.144043	17.924303	59.488131	-32.654242
43163		-7.529031	2.180691	7.113527	0.811269	-4.209890	1.238056	-1.006348	0.029053	-0.089355	18.269195	56.974739	-32.797774
43164		-8.114198	3.933703	7.995263	0.677672	-3.988566	1.510378	-0.977783	0.047607	-0.031494	18.799201	54.523441	-32.630736
43165		-9.114448	4.580105	8.771990	0.431240	-3.774340	1.753691	-0.929199	0.045898	-0.005127	19.373298	52.150940	-32.225761
43166		-11.275366	4.286437	9.293517	0.285597	-3.651473	1.955250	-0.879395	0.048096	0.012939	19.972843	49.794081	-31.669413
43167		-13.460742	3.957766	9.523332	0.297665	-3.670078	2.131988	-0.846680	0.033936	0.010254	20.617044	47.397838	-31.040843
43168		-14.461053	4.865201	9.685853	0.338979	-3.768519	2.240544	-0.810791	0.020508	-0.013428	21.259367	44.912774	-30.424594
43169		-14.744754	5.893708	10.058540	0.275497	-3.846469	2.277885	-0.797119	0.006104	-0.029785	21.805271	42.383425	-29.865531
43170		-15.255537	6.088662	10.095065	0.167818	-3.911458	2.413754	-0.785400	-0.016357	-0.041016	22.288550	39.777604	-29.281815
43171		-14.978445	6.598811	9.923632	0.025054	-3.954079	2.682117	-0.786377	-0.031982	-0.062012	22.742692	37.096021	-28.577871
43172		-13.957173	6.905286	9.505904	-0.218772	-3.882963	3.004473	-0.802734	-0.037109	-0.085449	23.136928	34.367072	-27.694110
43173		-14.054490	6.075512	9.441802	-0.479916	-3.713471	3.318005	-0.815186	-0.051514	-0.107422	23.451523	31.660737	-26.616010
43174		-14.317913	4.537393	9.521328	-0.624673	-3.583418	3.540116	-0.834473	-0.054932	-0.117432	23.703047	28.958881	-25.414952
43175		-14.315620	2.853076	9.528153	-0.644458	-3.480019	3.580501	-0.850586	-0.060059	-0.135254	23.896979	26.306346	-24.205301
43176		-14.982166	1.518777	9.736927	-0.549797	-3.390864	3.427297	-0.880859	-0.062500	-0.136963	24.053219	23.725066	-23.097666
43177		-15.860795	1.125077	9.595213	-0.475931	-3.396650	3.083542	-0.897705	-0.054443	-0.145264	24.121029	21.227062	-22.212472
43178		-15.637195	0.613319	8.613998	-0.459175	-3.430235	2.613576	-0.909180	-0.059570	-0.154297	24.065583	18.814384	-21.612767
43179		-15.298469	0.072196	7.293037	-0.429523	-3.380310	2.059772	-0.927002	-0.058350	-0.148438	23.914061	16.564860	-21.308228
43180		-14.867086	-0.138192	5.448256	-0.344597	-3.258908	1.503392	-0.951660	-0.043701	-0.147461	23.727624	14.502661	-21.274365
43181		-13.965571	-0.723563	3.291286	-0.169951	-3.021272	1.003551	-0.963379	-0.055664	-0.142578	23.591512	12.686128	-21.447849
43182		-13.369197	-1.432563	1.332835	0.127032	-2.644146	0.620696	-0.971680	-0.052246	-0.145996	23.606562	11.150416	-21.735860
43183		-13.131068	-1.468089	-0.275239	0.440958	-2.164596	0.354815	-0.997559	-0.055664	-0.129150	23.803013	9.932874	-22.054301
43184		-13.701603	-0.638620	-1.296209	0.608633	-1.630558	0.203116	-0.996094	-0.058105	-0.129150	24.107587	9.027916	-22.332192
43185		-14.496842	0.342383	-2.490541	0.535376	-1.097761	0.136765	-0.994629	-0.058350	-0.131348	24.387619	8.422030	-22.521862
43186		-15.574469	0.873597	-3.582281	0.266678	-0.583530	0.098037	-1.000000	-0.054688	-0.126465	24.529266	8.091724	-22.611070
43187		-15.792457	0.683817	-4.248672	-0.029528	-0.107320	0.043167	-1.002441	-0.048828	-0.125488	24.513885	8.025296	-22.614742
43188		-15.051514	0.326000	-4.091928	-0.234894	0.381053	-0.032684	-0.994141	-0.054199	-0.135254	24.391497	8.230456	-22.541474
43189		-14.467916	0.701258	-2.813479	-0.357229	0.831817	-0.088563	-1.006836	-0.049072	-0.141602	24.211068	8.685485	-22.390561
43190		-13.773699	1.518501	-1.310263	-0.491014	1.186833	-0.084031	-0.989990	-0.044678	-0.151123	23.968637	9.325881	-22.154674
43191		-6.435261	2.113981	2.699905	-0.717848	2.086535	-0.594705	-0.982910	-0.043945	-0.161133	23.589105	10.557050	-21.982489
43192		5.516294	5.690908	6.724189	-0.925432	2.337471	-0.783605	-0.979492	-0.044434	-0.166992	23.084381	11.965410	-21.862395
43193		-5.067315	7.717645	14.803575	-1.005314	2.416666	-0.992448	-0.969238	-0.036621	-0.176270	22.513045	13.461975	-21.850373
43194		0.637305	5.758483	11.401488	-0.799252	2.182122	-0.971976	-0.964111	-0.036621	-0.184326	22.046804	14.830568	-21.893436
43195		-0.622750	3.352063	7.632402	-0.533868	2.631800	-0.709181	-0.941406	-0.029785	-0.197998	21.794735	16.380904	-21.700968
43196		-4.208967	2.235286	8.349303	-0.433098	3.205729	-0.568342	-0.939941	-0.024658	-0.207031	21.666289	18.207986	-21.306013
43197		-9.058538	-1.060912	11.604643	-0.259235	3.334601	-0.635022	-0.930176	-0.030029	-0.216553	21.647112	20.117738	-20.918215
43198		-10.064657	-2.224764	12.261821	0.064263	3.115241	-0.660415	-0.911133	-0.034912	-0.232178	21.804576	21.916503	-20.587565
43199		-11.091090	0.405928	12.055792	0.268449	2.867918	-0.653097	-0.908203	-0.031494	-0.236084	22.072078	23.580269	-20.298916
43200		-12.191058	4.940792	12.119753	0.162502	2.527518	-0.667566	-0.895508	-0.034668	-0.239746	22.253297	25.066819	-20.088975
43201		-13.685764	8.623360	10.799922	-0.185901	2.042489	-0.677718	-0.885010	-0.025391	-0.240723	22.188502	26.296771	-19.997442
43202		-12.734667	6.924682	8.746931	-0.439435	1.509459	-0.677457	-0.872070	-0.029785	-0.247070	21.920498	27.245730	-20.037360
43203		-10.464658	4.495927	8.714801	-0.493796	1.048825	-0.540821	-0.865967	-0.025146	-0.252930	21.605362	27.918471	-20.111352
43204		-7.687400	3.976784	8.810380	-0.506015	0.776239	-0.450226	-0.860840	-0.029785	-0.257813	21.275526	28.428874	-20.199864
43205		-5.841538	2.746622	8.374551	-0.497842	0.630564	-0.425102	-0.868164	-0.022705	-0.256348	20.938963	28.853377	-20.311212
43206		-5.714024	1.953361	8.570823	-0.470755	0.525395	-0.419096	-0.864014	-0.018311	-0.259033	20.605465	29.222265	-20.446449
43207		-5.905601	2.766358	8.302441	-0.434785	0.416519	-0.404029	-0.859131	-0.021484	-0.258545	20.282890	29.526478	-20.600394
43208		-6.097409	3.823306	7.993296	-0.432827	0.327413	-0.360777	-0.855713	-0.016113	-0.256348	19.962646	29.776064	-20.750075
43209		-5.846299	3.203093	8.153248	-0.463720	0.255980	-0.338952	-0.857422	-0.020020	-0.265381	19.622213	29.979557	-20.904232
43210		-5.803647	2.123791	8.638046	-0.426511	0.209676	-0.303690	-0.859863	-0.016846	-0.270996	19.307577	30.153200	-21.048112
43211		-6.392146	1.611254	8.915907	-0.331646	0.157381	-0.232778	-0.851074	-0.018311	-0.263428	19.063158	30.281919	-21.160280
43212		-5.978457	1.433690	8.790269	-0.216749	0.083595	-0.140862	-0.850830	-0.017334	-0.268555	18.904850	30.355920	-21.231292
43213		-5.253998	2.129908	8.491511	-0.137069	0.058537	-0.086074	-0.847900	-0.012695	-0.268555	18.807015	30.403320	-21.273514
43214		-5.334646	2.632380	8.196729	-0.103336	0.067263	-0.065362	-0.852539	-0.014648	-0.260986	18.735541	30.454347	-21.300982
43215		-5.239764	2.837342	8.036620	-0.104994	0.063178	-0.063738	-0.847412	-0.020264	-0.269775	18.663560	30.500062	-21.328340
43216		-5.056109	2.738400	8.124104	-0.123418	0.053010	-0.088796	-0.856934	-0.018555	-0.262695	18.571405	30.547588	-21.373785
43217		-5.068809	2.853119	8.108355	-0.138859	0.053275	-0.105544	-0.842041	-0.014160	-0.267334	18.465402	30.595457	-21.429811
43218		-5.140146	2.603972	8.211938	-0.134301	0.055656	-0.119965	-0.844482	-0.014404	-0.262939	18.357080	30.649916	-21.494623
43219		-5.072664	2.559159	8.185346	-0.133866	0.054275	-0.129973	-0.840576	-0.012451	-0.267090	18.245935	30.702540	-21.566162
43220		-5.120329	2.663737	8.085172	-0.138583	0.056666	-0.150386	-0.843994	-0.010986	-0.267578	18.125134	30.762764	-21.650353
43221		-5.097812	2.758978	8.014480	-0.171364	0.059689	-0.180155	-0.845215	-0.012939	-0.265869	17.976475	30.826978	-21.752952
43222		-5.022075	2.648674	8.032371	-0.209820	0.064290	-0.206703	-0.842041	-0.013672	-0.279297	17.796902	30.900890	-21.871819
43223		-5.068140	2.522643	8.077534	-0.235053	0.078517	-0.223611	-0.844238	-0.010010	-0.267090	17.598955	30.982406	-21.998866
43224		-5.167716	2.486420	8.148921	-0.236847	0.086185	-0.220393	-0.852051	-0.014648	-0.274902	17.400973	31.069944	-22.122829
43225		-5.371918	2.359078	8.148496	-0.222337	0.086723	-0.191481	-0.844727	-0.008301	-0.270508	17.220996	31.149733	-22.228579
43226		-5.225469	2.241013	8.193139	-0.204220	0.089773	-0.173674	-0.849121	-0.006348	-0.276855	17.056796	31.230681	-22.322785
43227		-5.199486	2.385020	8.179297	-0.204738	0.089217	-0.171621	-0.844727	-0.008545	-0.273193	16.893138	31.307983	-22.416039
43228		-5.281889	2.548730	8.065991	-0.199211	0.089146	-0.164627	-0.848877	-0.008057	-0.281006	16.734164	31.386628	-22.505251
43229		-5.521221	2.346343	8.076895	-0.196546	0.073496	-0.158195	-0.852539	-0.006592	-0.266602	16.577575	31.452650	-22.593546
43230		-5.470547	2.466830	8.065467	-0.181862	0.050154	-0.145013	-0.852783	-0.005371	-0.270264	16.430755	31.506283	-22.678174
43231		-5.450876	2.490054	8.054681	-0.186961	0.021185	-0.145184	-0.837402	-0.005371	-0.280518	16.278469	31.541050	-22.768483
43232		-5.447908	2.427850	8.072367	-0.184334	0.007234	-0.150416	-0.841064	-0.005371	-0.268799	16.123896	31.571568	-22.865033
43233		-5.342166	2.478754	8.008844	-0.183117	-0.008062	-0.151814	-0.837646	0.003174	-0.279053	15.968499	31.590865	-22.965338
43234		-5.153366	2.464574	8.017031	-0.195011	-0.008935	-0.161601	-0.840576	0.002686	-0.273193	15.802275	31.613785	-23.072324
43235		-5.153890	2.420605	8.092153	-0.182217	-0.001224	-0.159952	-0.847168	-0.005127	-0.278564	15.645126	31.637636	-23.176828
43236		-5.133560	2.280871	8.094549	-0.178068	0.015605	-0.155849	-0.843506	-0.003662	-0.272461	15.492717	31.672703	-23.275835
43237		-4.960185	2.234398	8.226063	-0.159825	0.044948	-0.150252	-0.838135	-0.003174	-0.275391	15.355823	31.720113	-23.365998
43238		-5.147860	2.145697	8.222118	-0.142974	0.077325	-0.142819	-0.844482	-0.001221	-0.284912	15.233447	31.786895	-23.445860
43239		-5.210237	2.034177	8.287719	-0.114403	0.107836	-0.127845	-0.837158	-0.001465	-0.277832	15.135763	31.865395	-23.510691
43240		-5.248188	2.136127	8.285590	-0.090665	0.135556	-0.118184	-0.828857	0.000488	-0.276611	15.056832	31.960464	-23.564679
43241		-5.294885	2.281152	8.183975	-0.075820	0.157471	-0.115311	-0.836670	-0.008545	-0.270508	14.989813	32.064414	-23.613028
43242		-5.345865	2.190750	8.146093	-0.065351	0.169160	-0.114245	-0.833496	0.006348	-0.271973	14.929499	32.177382	-23.658962
43243		-5.283563	2.298220	8.171139	-0.063690	0.178534	-0.116225	-0.843262	-0.001221	-0.283203	14.870704	32.293040	-23.704623
43244		-5.314330	2.275407	8.091571	-0.054757	0.191411	-0.121415	-0.831787	-0.002686	-0.280762	14.815651	32.419297	-23.751776
43245		-5.316668	2.186221	8.108712	-0.049264	0.209659	-0.121017	-0.836182	-0.006348	-0.269531	14.765953	32.552824	-23.795575
43246		-5.388245	2.152557	8.194648	-0.040062	0.228860	-0.120023	-0.833496	0.001709	-0.279541	14.722914	32.699551	-23.835722
43247		-5.322347	2.130607	8.269583	-0.030788	0.249024	-0.124762	-0.828613	-0.005127	-0.278809	14.685757	32.855384	-23.875563
43248		-5.365624	2.128129	8.241306	-0.017047	0.283919	-0.129551	-0.835449	0.000000	-0.283447	14.657269	33.033952	-23.912852
43249		-5.378102	2.205417	8.242108	0.004033	0.322394	-0.137440	-0.829590	-0.009277	-0.282959	14.642023	33.232261	-23.948727
43250		-5.369065	2.259528	8.198445	0.017162	0.362780	-0.146494	-0.833984	-0.003906	-0.285889	14.634087	33.456961	-23.983891
43251		-5.266491	2.406138	8.272294	0.029565	0.397190	-0.165459	-0.822510	0.002441	-0.286621	14.629969	33.700781	-24.025675
43252		-5.487897	2.204876	8.192552	0.054597	0.450691	-0.189372	-0.822021	-0.006104	-0.283447	14.635711	33.980385	-24.074360
43253		-5.425304	2.089810	8.308546	0.083546	0.510649	-0.200591	-0.824951	0.002197	-0.282471	14.660019	34.292199	-24.120004
43254		-5.594901	2.161162	8.215321	0.123375	0.567861	-0.226903	-0.817139	-0.008545	-0.286377	14.702075	34.642197	-24.173375
43255		-5.258521	2.109341	8.357513	0.164016	0.647048	-0.232123	-0.820557	-0.010742	-0.282715	14.773826	35.034246	-24.215871
43256		-5.129086	2.629291	8.327840	0.164262	0.768822	-0.250057	-0.814453	-0.008301	-0.287842	14.850695	35.499004	-24.248462
43257		-4.920765	1.848444	8.653805	0.189821	0.927982	-0.276775	-0.813232	-0.011963	-0.288574	14.949181	36.053280	-24.269546
43258		-4.954566	1.704093	8.743327	0.265865	1.101308	-0.327774	-0.807129	-0.005371	-0.288574	15.089387	36.713556	-24.292648
43259		-5.016369	1.688616	8.951371	0.373996	1.308589	-0.368246	-0.800781	-0.012939	-0.288086	15.299921	37.492097	-24.302271
43260		-4.972696	1.761997	9.360828	0.463075	1.575918	-0.364041	-0.786377	-0.017090	-0.291504	15.596956	38.419990	-24.253235
43261		-4.718715	2.456602	9.768102	0.471735	1.871039	-0.362186	-0.776367	-0.017578	-0.298828	15.942952	39.507755	-24.136116
43262		-4.611418	2.263110	9.520357	0.465810	2.235215	-0.394040	-0.771729	-0.015137	-0.294678	16.327966	40.802530	-23.955353
43263		-4.716062	2.515839	9.504556	0.489112	2.637683	-0.449462	-0.758545	-0.018311	-0.301514	16.772607	42.324256	-23.710696
43264		-4.705370	2.774550	9.558005	0.479233	3.082244	-0.527784	-0.746338	-0.025391	-0.290771	17.261803	44.102952	-23.399612
43265		-4.767628	3.033822	9.578033	0.447319	3.563981	-0.655200	-0.730469	-0.029785	-0.303223	17.777535	46.162966	-23.036555
43266		-4.826595	3.128539	9.584841	0.443645	4.061474	-0.826539	-0.710205	-0.029297	-0.305908	18.326298	48.523407	-22.638348
43267		-4.742477	3.145917	9.407205	0.481961	4.643882	-1.059544	-0.683594	-0.028320	-0.303467	18.929823	51.238412	-22.213107
43268		-4.991452	2.979609	8.834026	0.578810	5.278917	-1.386936	-0.652344	-0.033691	-0.304199	19.587897	54.356622	-21.805658
43269		-5.795188	3.803454	9.393057	0.724425	5.927103	-1.773276	-0.626465	-0.026123	-0.299072	20.307523	57.895226	-21.441639
43270		-7.456454	5.605203	9.636686	0.741556	6.443426	-2.083799	-0.600586	-0.029541	-0.287354	21.054007	61.771097	-21.072144
43271		-10.000847	5.549885	9.633668	0.583314	7.016252	-2.351907	-0.556152	-0.043945	-0.297119	21.828483	66.005270	-20.584630
43272		-14.469371	3.813183	10.154072	0.724917	7.109949	-2.441355	-0.526367	-0.033447	-0.277588	22.881840	70.304645	-19.900073
43273		-17.964372	2.878270	10.613600	1.289810	6.643986	-2.364002	-0.494873	-0.038818	-0.265381	24.532587	74.334592	-18.946201
43274		-18.711375	6.412943	10.201597	1.695846	6.010684	-2.305421	-0.468262	-0.041260	-0.250488	26.714548	78.010489	-17.702854
43275		-19.801746	7.966687	10.826102	1.673342	5.273273	-2.374444	-0.441406	-0.046875	-0.237061	28.784296	81.317746	-16.576363
43276		-18.333698	7.372072	10.367153	1.518323	4.504937	-2.507222	-0.417725	-0.045898	-0.223389	29.709457	84.270192	-16.523073
43277		-17.171068	5.801661	10.728011	1.569305	3.686489	-2.469054	-0.400146	-0.047852	-0.202637	27.703516	86.802904	-19.438487
43278		-11.605311	4.461094	9.094933	1.753634	2.907079	-2.395947	-0.383301	-0.041748	-0.192139	7.377796	88.837299	-40.783147
43279		-1.511859	4.125161	5.862499	1.926937	2.260531	-2.320963	-0.368652	-0.052246	-0.176758	-96.419747	88.821514	-145.698448
43280		7.847342	3.160270	8.511524	1.893132	1.880861	-2.045032	-0.354248	-0.046143	-0.162598	-116.474860	87.369945	-166.850456
43281		-26.243762	10.990035	17.093264	1.944829	0.491889	-1.274911	-0.350342	-0.054199	-0.168457	-114.244214	86.588900	-165.734661
43282		-9.231098	13.929422	13.772965	1.186437	-1.456113	-0.440445	-0.338867	-0.049805	-0.156006	-98.836735	86.587673	-150.983738
43283		3.328974	12.293177	8.034300	0.030081	-1.952389	0.070090	-0.338623	-0.053223	-0.168701	-79.880042	86.615201	-132.013576
43284		0.936133	8.199143	6.874610	-0.819999	-2.042759	0.451637	-0.341797	-0.050537	-0.157227	-60.489312	86.460760	-112.120285
43285		-0.278260	4.219342	6.335071	-1.014261	-2.169466	0.980706	-0.344238	-0.051025	-0.167236	-40.700697	86.099510	-91.710567
43286		0.474269	2.161062	5.462281	-0.816767	-2.328463	1.559535	-0.343506	-0.057617	-0.180908	-21.409162	85.403648	-71.901035
43287		-0.367316	2.030837	5.758215	-0.501612	-2.527334	2.107440	-0.351074	-0.060303	-0.177734	-4.989962	84.256790	-55.130024
43288		-0.608816	2.622038	5.815245	-0.372530	-2.702581	2.454430	-0.358643	-0.067139	-0.177979	6.901300	82.669006	-42.950903
43289		-1.445530	2.443625	6.029750	-0.438536	-2.889870	2.596624	-0.352051	-0.060303	-0.191650	14.574584	80.760050	-34.946189
43290		-2.956296	1.368581	6.661012	-0.509085	-3.152551	2.621290	-0.363770	-0.078369	-0.183838	19.293824	78.583910	-29.856794
43291		-4.218581	-0.013525	7.206286	-0.474946	-3.515922	2.543745	-0.369141	-0.079834	-0.193848	21.946672	76.184152	-26.862202
43292		-4.329108	-0.852046	7.128719	-0.357392	-3.902021	2.384189	-0.376953	-0.080322	-0.204590	23.236022	73.585675	-25.317992
43293		-4.044087	-1.303996	6.786424	-0.211967	-4.180267	2.124054	-0.380615	-0.093018	-0.215576	23.627574	70.903870	-24.781613
43294		-3.533188	-1.576088	6.203114	-0.077649	-4.311289	1.787752	-0.388184	-0.105469	-0.229248	23.457257	68.220351	-24.918983
43295		-3.454254	-1.948529	5.858157	0.091169	-4.251648	1.462181	-0.406006	-0.106201	-0.240479	23.058595	65.651231	-25.411171
43296		-5.853656	-1.642197	6.729419	0.296259	-4.117211	1.244802	-0.402832	-0.122314	-0.257324	22.686997	63.190355	-26.014450
43297		-7.844629	-0.612386	7.608064	0.400828	-4.125945	1.164829	-0.403564	-0.135254	-0.260254	22.373972	60.750792	-26.631469
43298		-7.989670	0.601349	8.299559	0.360731	-4.161017	1.161743	-0.413818	-0.136475	-0.283447	22.095903	58.281715	-27.197194
43299		-7.922899	1.100175	8.571138	0.243255	-4.112301	1.154175	-0.415771	-0.160400	-0.305176	21.822980	55.848927	-27.690799
43300		-8.440521	1.254654	8.545422	0.175617	-4.013483	1.094029	-0.421387	-0.163574	-0.315674	21.547894	53.469834	-28.154755
43301		-9.837608	1.561105	8.328922	0.220730	-3.891655	1.021664	-0.439697	-0.174561	-0.338623	21.325885	51.180128	-28.597561
43302		-12.122546	2.611850	8.459869	0.361756	-3.804097	1.040708	-0.458984	-0.199951	-0.353760	21.252939	48.922004	-28.966670
43303		-13.840907	4.538038	8.740640	0.453364	-3.828055	1.162395	-0.482910	-0.214600	-0.372070	21.320481	46.636289	-29.228991
43304		-14.148165	6.177392	8.743290	0.404261	-3.866383	1.361534	-0.509033	-0.228271	-0.397705	21.470566	44.278514	-29.347324
43305		-14.032406	6.757637	8.380178	0.286867	-3.823829	1.657551	-0.545898	-0.234619	-0.413574	21.708402	41.891627	-29.242825
43306		-13.617307	7.068592	8.196241	0.152487	-3.684193	2.055889	-0.580811	-0.254150	-0.423096	22.061107	39.483530	-28.840368
43307		-13.743390	7.824650	8.500036	-0.062642	-3.497480	2.524213	-0.620361	-0.253418	-0.426025	22.483718	37.080695	-28.103764
43308		-13.712930	7.953476	8.832084	-0.389162	-3.316293	2.987532	-0.662842	-0.253906	-0.427490	22.875299	34.657620	-27.060106
43309		-14.400236	6.828186	9.167125	-0.689962	-3.168043	3.376288	-0.705078	-0.247803	-0.440186	23.188462	32.229961	-25.778491
43310		-14.989788	5.127827	9.326004	-0.871669	-3.125302	3.617114	-0.743408	-0.242432	-0.442627	23.409261	29.756216	-24.385458
43311		-15.773749	3.573374	9.621021	-0.923683	-3.151327	3.637793	-0.783936	-0.231934	-0.434082	23.529748	27.269562	-23.028837
43312		-16.136380	2.251501	9.462672	-0.910899	-3.261235	3.441945	-0.822266	-0.226074	-0.425537	23.528121	24.760634	-21.848235
43313		-16.009164	1.340634	8.939528	-0.841853	-3.370842	3.047838	-0.863770	-0.223145	-0.414307	23.410053	22.293311	-20.940831
43314		-15.756512	0.701403	7.837571	-0.733958	-3.437552	2.535795	-0.881348	-0.195557	-0.411133	23.205093	19.902415	-20.347287
43315		-15.132202	0.369397	6.039617	-0.603272	-3.420892	1.972545	-0.926514	-0.197510	-0.398193	22.953533	17.655987	-20.061305
43316		-14.207868	-0.131719	3.878827	-0.405861	-3.250625	1.417342	-0.943115	-0.188477	-0.388184	22.729750	15.618523	-20.036094
43317		-13.765562	-0.782601	1.769155	-0.101975	-2.933225	0.951509	-0.963867	-0.181396	-0.369385	22.635045	13.857421	-20.186730
43318		-13.488203	-0.958300	-0.237600	0.243067	-2.499331	0.606952	-0.975830	-0.185059	-0.357910	22.721474	12.397647	-20.425387
43319		-13.304952	-0.895731	-1.943621	0.505145	-1.946465	0.382548	-0.990234	-0.172607	-0.339844	22.964412	11.284544	-20.661980
43320		-14.241557	-0.188681	-3.064435	0.569004	-1.357053	0.252248	-0.998779	-0.184814	-0.324463	23.258363	10.509771	-20.838486
43321		-15.142831	0.568724	-3.943447	0.397958	-0.783420	0.177634	-0.997314	-0.188721	-0.319336	23.472971	10.057118	-20.925081
43322		-16.262614	0.650670	-4.553505	0.108239	-0.263796	0.115139	-1.001221	-0.184082	-0.323486	23.536316	9.890969	-20.925749
43323		-15.918078	0.083449	-5.025247	-0.137431	0.212340	0.062917	-0.993408	-0.184082	-0.324219	23.473814	9.987927	-20.843550
43324		-14.025923	0.619824	-5.555544	-0.398870	1.017529	-0.275785	-0.995117	-0.182129	-0.324219	23.262463	10.586399	-20.756636
43325		-9.641452	-2.110690	-6.141457	-0.487650	1.972470	-1.216076	-0.977295	-0.186768	-0.338623	22.945736	11.899071	-20.958523
43326		-0.852833	3.310567	5.841755	-0.646509	2.664185	-1.336404	-0.963379	-0.190430	-0.346680	22.550750	13.604910	-21.077873
43327		-5.286532	8.050131	16.563712	-0.634714	2.327672	-1.184002	-0.949707	-0.180420	-0.350830	22.158218	15.096109	-21.202533
43328		-1.570438	9.130516	13.069875	-0.415211	1.995140	-0.925811	-0.940918	-0.184814	-0.361084	21.904354	16.356759	-21.268409
43329		-0.298432	5.948642	7.256313	-0.330341	2.337924	-0.803894	-0.929443	-0.177246	-0.368408	21.738529	17.771271	-21.195477
43330		-4.001106	2.789613	6.800993	-0.338960	2.960680	-0.694870	-0.902588	-0.179688	-0.383301	21.633041	19.496395	-20.924789
43331		-9.406830	0.235134	10.894070	-0.214320	3.104169	-0.657872	-0.894043	-0.177490	-0.387939	21.625522	21.288413	-20.599861
43332		-11.901840	-0.754490	12.929992	-0.037128	2.742570	-0.696905	-0.881592	-0.180176	-0.389404	21.690899	22.898318	-20.374940
43333		-10.612486	0.930422	11.809757	0.020306	2.349473	-0.794958	-0.867432	-0.186035	-0.397949	21.737049	24.317212	-20.293884
43334		-10.734724	4.812419	10.892192	-0.050099	2.078096	-0.787498	-0.846924	-0.182617	-0.399658	21.719701	25.593078	-20.270729
43335		-11.653123	7.993769	9.945867	-0.334745	1.715818	-0.712734	-0.846191	-0.184326	-0.406982	21.521117	26.657218	-20.290796
43336		-9.485112	5.406759	8.586335	-0.516338	1.367433	-0.664926	-0.826172	-0.171387	-0.410889	21.191232	27.528951	-20.369424
43337		-8.908045	2.298628	9.346322	-0.518552	1.095307	-0.643230	-0.827637	-0.179199	-0.407227	20.832869	28.246675	-20.504759
43338		-7.973554	3.515968	8.583411	-0.494842	0.769768	-0.626510	-0.811523	-0.173828	-0.408691	20.452823	28.789670	-20.710635
43339		-5.937548	4.933162	7.479917	-0.554274	0.585132	-0.553591	-0.802246	-0.172363	-0.416504	20.036305	29.213704	-20.918937
43340		-5.819087	3.152658	8.167899	-0.605650	0.524353	-0.532171	-0.808594	-0.169678	-0.414795	19.586615	29.603600	-21.131799
43341		-6.776322	1.539104	8.941729	-0.537630	0.390691	-0.471854	-0.802979	-0.170654	-0.428223	19.176966	29.904209	-21.340676
43342		-6.882195	2.364702	8.511148	-0.456957	0.239978	-0.364414	-0.796387	-0.169434	-0.420898	18.828498	30.106212	-21.517458
43343		-6.413544	2.497881	8.659452	-0.409409	0.145201	-0.266789	-0.796143	-0.167236	-0.421143	18.526940	30.233695	-21.654824
43344		-6.252117	1.475159	8.903502	-0.310043	0.066321	-0.184173	-0.789551	-0.163574	-0.427734	18.299274	30.307225	-21.757409
43345		-6.030478	1.926473	8.616000	-0.203423	0.031783	-0.098278	-0.793945	-0.153809	-0.423584	18.156476	30.341849	-21.813456
43346		-5.639932	1.677436	8.664065	-0.113322	0.001766	-0.020799	-0.794678	-0.164307	-0.432373	18.086344	30.350746	-21.826862
43347		-5.362829	1.882880	8.564532	-0.023626	0.004748	0.020540	-0.790039	-0.160400	-0.425049	18.081559	30.349392	-21.813604
43348		-5.272723	2.545558	8.246290	0.019475	0.021292	0.048771	-0.802002	-0.160156	-0.434326	18.111602	30.356564	-21.779156
43349		-4.950312	2.797825	8.059249	0.011327	0.029194	0.033813	-0.804199	-0.158447	-0.427979	18.133632	30.366148	-21.752472
43350		-4.870863	2.735663	8.170681	0.015642	0.051105	0.029656	-0.799072	-0.164063	-0.427734	18.158525	30.392935	-21.723907
43351		-5.204994	2.529118	8.295674	0.037388	0.052287	0.023812	-0.790771	-0.158936	-0.424316	18.194743	30.416856	-21.698727
43352		-5.222773	2.613163	8.262264	0.070411	0.055278	0.032630	-0.799072	-0.156250	-0.426270	18.252451	30.445334	-21.667372
43353		-5.126864	2.749278	8.185575	0.082739	0.057185	0.022227	-0.796875	-0.167480	-0.423340	18.314717	30.472164	-21.642105
43354		-5.131248	2.755724	8.138034	0.075861	0.062788	-0.000342	-0.793701	-0.159424	-0.426758	18.365854	30.510613	-21.629914
43355		-5.138336	2.870236	8.018467	0.063590	0.062588	-0.016048	-0.789063	-0.157715	-0.422119	18.405516	30.547259	-21.627599
43356		-5.304983	2.694002	8.099946	0.045428	0.064670	-0.027167	-0.802979	-0.160400	-0.420898	18.430870	30.591571	-21.631876
43357		-5.357844	2.766304	7.981488	0.037357	0.052116	-0.032141	-0.794189	-0.161621	-0.421387	18.449228	30.625440	-21.641888
43358		-5.245678	2.798547	8.006704	0.019167	0.043944	-0.034651	-0.795166	-0.160645	-0.426270	18.454913	30.659866	-21.655233
43359		-5.271327	2.622984	8.077312	0.004759	0.040973	-0.031498	-0.792480	-0.162598	-0.422363	18.453594	30.687564	-21.667185
43360		-5.358061	2.596736	8.046523	0.010274	0.039281	-0.012951	-0.789551	-0.167969	-0.426270	18.460673	30.715531	-21.667802
43361		-5.076518	2.675199	7.876533	-0.011362	0.037362	-0.008584	-0.795654	-0.158447	-0.427979	18.457119	30.737111	-21.666033
43362		-4.989736	2.751070	7.959297	-0.036978	0.042778	-0.028749	-0.796631	-0.164063	-0.428955	18.432386	30.769854	-21.675911
43363		-5.035687	2.686073	7.902631	-0.058382	0.041792	-0.051919	-0.789795	-0.159912	-0.425049	18.388325	30.801684	-21.700652
43364		-4.705864	3.050625	7.843803	-0.103913	0.056143	-0.088858	-0.782715	-0.159912	-0.432373	18.307136	30.852510	-21.745851
43365		-4.919921	2.907794	7.971338	-0.158253	0.063996	-0.141158	-0.791016	-0.154053	-0.425537	18.179088	30.912368	-21.822667
43366		-5.034068	2.792441	7.861144	-0.221295	0.049234	-0.193696	-0.795898	-0.154053	-0.435059	17.995474	30.977865	-21.936157
43367		-4.998011	2.983489	7.906755	-0.291215	0.043467	-0.236068	-0.791016	-0.169922	-0.432129	17.757535	31.042798	-22.078118
43368		-5.212990	2.725060	7.955053	-0.336625	0.039771	-0.258523	-0.784668	-0.163086	-0.429443	17.484930	31.113559	-22.235581
43369		-5.347808	2.416056	8.003816	-0.359525	0.036330	-0.269763	-0.782715	-0.159912	-0.435547	17.195221	31.179201	-22.401406
43370		-5.260566	2.230567	8.152226	-0.347245	0.042431	-0.245770	-0.776367	-0.159424	-0.435303	16.920189	31.247954	-22.551169
43371		-5.290848	2.197193	8.311623	-0.313028	0.060438	-0.216358	-0.783447	-0.154541	-0.430664	16.676510	31.316631	-22.679003
43372		-5.407774	2.091049	8.213727	-0.263750	0.069340	-0.173370	-0.792480	-0.153320	-0.435547	16.475408	31.387241	-22.777945
43373		-5.294317	2.239674	8.218487	-0.222052	0.073836	-0.148296	-0.787598	-0.151367	-0.437500	16.307377	31.451501	-22.860156
43374		-5.346159	2.338710	8.205887	-0.196218	0.076443	-0.133687	-0.781250	-0.144531	-0.439209	16.158472	31.519158	-22.932799
43375		-5.251108	2.339495	8.039080	-0.176946	0.072946	-0.128714	-0.784424	-0.150146	-0.445801	16.022392	31.579448	-23.003036
43376		-5.057745	2.521541	8.158659	-0.172552	0.077098	-0.140161	-0.782715	-0.152100	-0.440430	15.884520	31.648178	-23.080216
43377		-5.117436	2.479787	8.171375	-0.166942	0.097084	-0.151452	-0.775635	-0.153320	-0.439209	15.748386	31.725039	-23.161195
43378		-5.260414	2.157139	8.161617	-0.144682	0.112881	-0.149240	-0.780518	-0.148926	-0.434082	15.626394	31.814574	-23.238221
43379		-5.090680	2.187251	8.190638	-0.116227	0.140567	-0.136542	-0.771240	-0.146973	-0.437012	15.528096	31.912852	-23.302166
43380		-5.135998	2.215203	8.283730	-0.086921	0.177785	-0.129745	-0.785400	-0.147949	-0.443604	15.451585	32.034990	-23.355331
43381		-5.235871	2.083562	8.284684	-0.054079	0.216653	-0.120908	-0.774658	-0.143799	-0.435303	15.401110	32.172765	-23.395866
43382		-5.195590	2.200200	8.249453	-0.022898	0.251377	-0.110528	-0.780762	-0.146729	-0.443115	15.374575	32.332522	-23.423681
43383		-5.326625	2.282581	8.206758	-0.006713	0.277989	-0.120034	-0.768311	-0.153809	-0.441162	15.357103	32.504014	-23.452925
43384		-5.383534	2.248614	8.217923	0.002403	0.303044	-0.118150	-0.770996	-0.145508	-0.441650	15.347116	32.693429	-23.476667
43385		-5.435250	2.268050	8.200645	0.016658	0.320871	-0.136561	-0.770996	-0.146973	-0.443115	15.341071	32.891112	-23.509240
43386		-5.416248	2.354873	8.199830	0.032868	0.351826	-0.140679	-0.766357	-0.151123	-0.443848	15.345036	33.110870	-23.539158
43387		-5.502339	2.441068	8.122612	0.046104	0.372086	-0.158559	-0.761719	-0.146484	-0.439941	15.352705	33.340189	-23.577116
43388		-5.516053	2.246958	8.152981	0.069499	0.409005	-0.168588	-0.759521	-0.141357	-0.441895	15.372975	33.595757	-23.615180
43389		-5.562180	2.262454	8.183756	0.100902	0.450942	-0.182101	-0.753174	-0.149170	-0.439697	15.411076	33.872240	-23.654371
43390		-5.444531	2.318379	8.220918	0.139301	0.497015	-0.189955	-0.754639	-0.146973	-0.446533	15.472218	34.179691	-23.690317
43391		-5.586079	2.350194	8.155017	0.174289	0.563112	-0.207660	-0.749023	-0.152100	-0.445068	15.554358	34.522087	-23.725357
43392		-5.339587	2.310632	8.291529	0.215491	0.622909	-0.227604	-0.741943	-0.153076	-0.446045	15.658286	34.904853	-23.762214
43393		-4.687821	2.524872	8.502316	0.210464	0.755848	-0.233020	-0.746826	-0.155029	-0.442871	15.772625	35.357586	-23.776638
43394		-5.223435	1.545228	8.647475	0.272415	0.930561	-0.272916	-0.727783	-0.154541	-0.436035	15.926201	35.917009	-23.783451
43395		-4.840896	1.716601	8.831887	0.390936	1.092972	-0.299727	-0.724609	-0.161621	-0.439941	16.157691	36.566000	-23.774240
43396		-5.186977	1.787114	8.855006	0.477308	1.305818	-0.307513	-0.723633	-0.159424	-0.442383	16.462808	37.337212	-23.723941
43397		-4.776505	2.276482	9.118792	0.516377	1.561339	-0.301243	-0.710449	-0.161133	-0.434326	16.830767	38.243445	-23.609647
43398		-4.662302	2.686888	9.330016	0.527130	1.848329	-0.326061	-0.690674	-0.167725	-0.440430	17.239202	39.314180	-23.441962
43399		-4.729471	2.806717	9.296650	0.530581	2.155841	-0.369886	-0.674561	-0.164795	-0.440918	17.685844	40.555764	-23.222979
43400		-4.938433	2.653425	9.131130	0.527407	2.533349	-0.427210	-0.668213	-0.173584	-0.431396	18.176546	42.015260	-22.939453
43401		-4.943990	2.837102	9.129388	0.541796	2.927690	-0.509474	-0.650635	-0.177734	-0.431885	18.724171	43.698585	-22.593807
43402		-4.925418	3.007221	9.375944	0.528159	3.347310	-0.614843	-0.626953	-0.179199	-0.420898	19.315899	45.629360	-22.184697
43403		-4.826089	3.096586	9.345724	0.533141	3.824065	-0.756734	-0.596924	-0.174316	-0.421875	19.971574	47.838373	-21.706723
43404		-4.706105	2.872084	9.122291	0.563794	4.360719	-0.950941	-0.573975	-0.188232	-0.418213	20.707918	50.372848	-21.162186
43405		-5.151434	2.449857	8.875259	0.685745	4.954858	-1.163412	-0.545166	-0.187988	-0.404541	21.614996	53.260752	-20.510980
43406		-5.910053	3.043478	8.666083	0.803970	5.531759	-1.436611	-0.508545	-0.190186	-0.407227	22.691334	56.508540	-19.760698
43407		-8.195676	4.208358	9.246941	0.864045	6.040849	-1.657450	-0.471680	-0.187256	-0.380127	23.996283	60.062540	-18.811715
43408		-9.612409	5.376514	9.433608	0.779540	6.406725	-1.828542	-0.428711	-0.195801	-0.357178	25.544039	63.836114	-17.566859
43409		-12.682610	4.801642	9.271190	0.798284	6.473947	-1.954541	-0.404053	-0.192139	-0.350830	27.451558	67.655541	-15.979672
43410		-16.003901	3.881923	9.414745	1.147131	6.210628	-1.931841	-0.353760	-0.190918	-0.322998	30.092867	71.308829	-13.864581
43411		-16.034489	5.669993	9.064890	1.472945	5.768307	-1.976712	-0.325195	-0.188721	-0.302002	33.485925	74.715406	-11.202793
43412		-15.121378	6.372991	8.486660	1.508134	5.347726	-2.121232	-0.299316	-0.187744	-0.272705	37.602790	77.916708	-7.858623
43413		-13.587189	5.718751	7.617193	1.461116	5.042300	-2.308572	-0.272949	-0.187256	-0.244629	43.066289	80.977555	-3.156757
43414		-13.774733	5.010823	7.535728	1.504245	4.723342	-2.422971	-0.239502	-0.179932	-0.211426	51.844783	83.836840	4.824922
43415		-12.640794	5.210346	8.272658	1.687719	4.320867	-2.427957	-0.223877	-0.191650	-0.190430	70.112489	86.282429	22.183017
43416		-11.238469	4.591827	8.297289	1.854742	3.828368	-2.431743	-0.200439	-0.176270	-0.163330	114.903917	87.679172	65.961561
43417		-8.416541	4.202911	6.988262	2.076792	3.306410	-2.422385	-0.184082	-0.172119	-0.134277	166.851968	87.022417	116.764215
43418		-2.970522	4.554737	5.784401	2.165767	2.595951	-2.349301	-0.165771	-0.166748	-0.115234	-170.347742	85.553773	138.363820
43419		-7.085968	5.353791	10.406811	2.086815	1.750456	-1.811040	-0.156250	-0.168213	-0.091309	-160.633426	84.319771	146.913109
43420		-27.109535	14.112382	18.110400	1.705503	-0.611235	-0.833025	-0.157959	-0.166016	-0.092529	-153.786264	84.462100	152.808961
43421		-8.781768	13.704909	12.522464	0.593910	-2.585265	0.063965	-0.157227	-0.176514	-0.097900	-144.977844	85.759205	161.305288
43422		2.309053	11.003577	7.121923	-0.564160	-3.094221	0.449343	-0.178223	-0.181152	-0.114746	-128.358544	87.248353	178.275065
43423		1.087420	5.987034	5.284108	-1.214590	-3.029687	0.548071	-0.177002	-0.174561	-0.129395	-89.877326	88.166458	-142.521977
43424		-0.208218	2.375798	4.589031	-1.255532	-2.962825	0.794061	-0.189453	-0.176514	-0.143066	-39.377173	87.816475	-91.277876
43425		-0.633899	1.261424	4.338668	-0.954000	-2.996198	1.186498	-0.202393	-0.183594	-0.161377	-12.152716	86.527622	-63.477966
43426		-2.157136	1.743920	5.144523	-0.631255	-3.169364	1.611849	-0.216797	-0.187744	-0.175781	1.842248	84.781097	-49.084885
43427		-2.729789	2.798220	5.805267	-0.540886	-3.426598	1.940638	-0.229492	-0.199707	-0.186523	9.811694	82.709213	-40.759507
43428		-2.819360	2.878767	5.760522	-0.671916	-3.670948	2.094338	-0.247314	-0.226318	-0.212646	14.379507	80.389894	-35.756428
43429		-2.613326	1.675076	5.687772	-0.800614	-3.874803	2.099282	-0.270020	-0.224365	-0.224609	16.849052	77.926855	-32.777674
43430		-3.495215	0.172727	5.947179	-0.732328	-4.034608	2.022486	-0.293701	-0.234375	-0.247070	18.164633	75.363361	-30.997831
43431		-4.023092	-0.310388	5.989103	-0.522653	-4.226925	1.897729	-0.311279	-0.244385	-0.257813	18.787706	72.721393	-30.040661
43432		-4.415934	0.203410	6.349578	-0.313672	-4.372181	1.706178	-0.337402	-0.247314	-0.274170	18.953758	70.024143	-29.679147
43433		-5.026770	0.709535	6.417481	-0.163944	-4.502605	1.518354	-0.368652	-0.262695	-0.293213	18.829134	67.301358	-29.714272
43434		-5.091643	0.459468	5.994948	-0.032783	-4.560536	1.371456	-0.392578	-0.263916	-0.291260	18.603327	64.563242	-29.944450
43435		-5.262280	0.206847	5.612945	0.169383	-4.452792	1.301342	-0.421143	-0.270752	-0.309814	18.493662	61.907034	-30.178223
43436		-6.600995	1.049932	6.084969	0.341613	-4.248468	1.346967	-0.452393	-0.278564	-0.311768	18.616532	59.342311	-30.265587
43437		-7.639962	2.882066	6.823723	0.330589	-4.052990	1.533299	-0.483643	-0.289795	-0.321533	18.942334	56.860643	-30.107429
43438		-7.773500	4.330287	7.842418	0.098474	-3.876647	1.773309	-0.515137	-0.301514	-0.329102	19.340597	54.417392	-29.697395
43439		-8.130941	4.471207	8.803137	-0.158725	-3.713333	2.012666	-0.530518	-0.308350	-0.334473	19.752487	52.026299	-29.072291
43440		-9.665231	4.156100	9.759054	-0.272029	-3.622643	2.269540	-0.580811	-0.308838	-0.325439	20.228453	49.619046	-28.261608
43441		-11.923738	4.579174	10.479209	-0.291202	-3.671364	2.535362	-0.623779	-0.322021	-0.325439	20.765526	47.139692	-27.322921
43442		-13.346032	5.470392	10.649887	-0.369909	-3.828571	2.724604	-0.655029	-0.319580	-0.325928	21.246867	44.519938	-26.360873
43443		-13.607558	5.824073	10.430512	-0.548335	-3.982925	2.781957	-0.692627	-0.324463	-0.310547	21.545388	41.813358	-25.468452
43444		-13.628077	5.475150	10.279461	-0.702109	-4.077568	2.765510	-0.722656	-0.311035	-0.313721	21.667555	39.045673	-24.664386
43445		-13.284022	5.057732	10.134900	-0.767090	-4.120712	2.804724	-0.756592	-0.318604	-0.301270	21.708545	36.257653	-23.881238
43446		-12.618833	5.053370	9.960190	-0.791004	-4.082008	2.887002	-0.804932	-0.312012	-0.289795	21.725043	33.461137	-23.064319
43447		-12.353276	5.264914	9.971810	-0.838606	-3.961792	2.938423	-0.831543	-0.307617	-0.273926	21.700532	30.729098	-22.210070
43448		-12.564128	5.281547	10.275292	-0.883961	-3.825353	2.943367	-0.862061	-0.304199	-0.255859	21.623155	28.058573	-21.341005
43449		-12.622177	4.922737	10.432466	-0.889997	-3.716769	2.889979	-0.896240	-0.292480	-0.252441	21.496949	25.469244	-20.493457
43450		-12.922366	3.967609	10.398882	-0.770615	-3.615706	2.776601	-0.925537	-0.289795	-0.237061	21.382534	22.949220	-19.701386
43451		-13.849915	2.727472	10.202287	-0.505879	-3.584430	2.640965	-0.945801	-0.280762	-0.218750	21.357673	20.485027	-18.990844
43452		-14.167618	1.853495	9.753904	-0.173083	-3.588411	2.437653	-0.964355	-0.274902	-0.206787	21.452326	18.052025	-18.409496
43453		-14.091163	1.043920	8.759873	0.103566	-3.589206	2.130499	-0.984131	-0.272461	-0.188477	21.628918	15.690740	-18.012673
43454		-13.427975	-0.047028	7.066233	0.318576	-3.497384	1.685063	-0.992676	-0.259521	-0.174805	21.852882	13.464218	-17.854227
43455		-13.200171	-0.658068	5.161669	0.496891	-3.282460	1.130054	-1.011475	-0.270264	-0.149658	22.116595	11.477632	-17.961021
43456		-13.085000	-0.898005	2.987506	0.624785	-2.966743	0.531310	-1.007080	-0.272705	-0.134521	22.407533	9.783207	-18.330760
43457		-13.046374	-1.427466	0.723183	0.766554	-2.545164	0.022968	-1.025391	-0.277100	-0.115234	22.760880	8.431459	-18.886245
43458		-13.634977	-1.508683	-1.474797	0.958356	-2.028200	-0.302621	-1.013428	-0.265869	-0.109863	23.225355	7.425184	-19.506791
43459		-15.175833	-0.618262	-3.597042	1.037090	-1.446537	-0.458102	-1.016357	-0.279053	-0.089355	23.750449	6.769426	-20.082865
43460		-16.647099	0.434756	-5.434662	0.868050	-0.877161	-0.513738	-1.010742	-0.296143	-0.083496	24.193958	6.427545	-20.560124
43461		-16.646340	1.094017	-6.366541	0.533542	-0.270852	-0.560607	-1.014404	-0.288086	-0.069336	24.461493	6.418238	-20.919610
43462		-15.761579	1.364435	-5.749391	0.220908	0.331988	-0.642843	-1.006104	-0.300049	-0.072754	24.559824	6.744217	-21.178265
43463		-14.470296	1.813911	-4.209384	0.064385	0.863216	-0.701169	-0.999023	-0.292969	-0.062500	24.578929	7.360845	-21.339826
43464		-11.030903	3.993919	-1.150588	-0.009171	1.307800	-0.639946	-0.991943	-0.295898	-0.071777	24.572481	8.197001	-21.362370
43465		-5.808045	8.309864	1.050688	-1.009998	2.455030	-0.906875	-0.978271	-0.290039	-0.077148	24.012257	9.692615	-21.256623
43466		4.543390	7.471485	7.748026	-1.196578	2.846642	-0.702592	-0.974365	-0.281738	-0.087646	23.382471	11.351185	-20.965099
43467		-2.544978	10.260351	13.853790	-1.038732	2.747960	-0.383567	-0.961670	-0.282471	-0.094971	22.878613	12.885178	-20.539860
43468		0.210686	7.429849	10.681970	-0.918102	2.781548	-0.352787	-0.958008	-0.279785	-0.103271	22.459633	14.436432	-20.099790
43469		-2.309346	0.713474	8.381664	-0.715536	3.164787	-0.274454	-0.957520	-0.269531	-0.107910	22.200254	16.173257	-19.536980
43470		-6.197467	-2.302414	9.862292	-0.537578	3.574900	-0.381354	-0.945068	-0.274170	-0.106201	22.071273	18.155404	-18.941075
43471		-10.371311	-5.612677	12.677413	-0.236511	3.552565	-0.706661	-0.930176	-0.274170	-0.114502	22.073104	20.193605	-18.529190
43472		-11.207770	-3.442743	13.094031	0.109820	3.258930	-0.927687	-0.924805	-0.264648	-0.118652	22.219960	22.126637	-18.302707
43473		-12.212468	2.956399	12.294017	0.153061	2.921109	-1.044118	-0.907715	-0.277100	-0.114014	22.343880	23.901921	-18.215335
43474		-13.797285	9.892879	11.553702	-0.152235	2.503523	-0.980626	-0.893066	-0.269775	-0.120117	22.269191	25.446329	-18.188956
43475		-13.998479	9.819317	8.979701	-0.564374	1.912847	-0.913602	-0.883301	-0.272949	-0.131836	21.911950	26.658463	-18.270735
43476		-12.084767	4.536578	8.973399	-0.678436	1.389279	-0.819639	-0.879883	-0.270752	-0.130859	21.452341	27.576669	-18.430904
43477		-9.834820	2.941296	9.313641	-0.656090	0.931137	-0.740433	-0.877197	-0.267090	-0.133545	20.970946	28.227266	-18.660686
43478		-6.607330	4.222297	8.072939	-0.635338	0.665920	-0.605832	-0.864502	-0.269287	-0.133057	20.506101	28.712723	-18.876543
43479		-5.434192	3.499411	8.120887	-0.691112	0.603476	-0.578307	-0.875244	-0.268799	-0.139404	20.006184	29.151558	-19.095629
43480		-6.235366	1.545112	8.902661	-0.637248	0.495530	-0.556561	-0.863525	-0.263184	-0.139893	19.528363	29.532421	-19.329952
43481		-6.458849	1.735985	8.755019	-0.541618	0.351398	-0.476505	-0.864258	-0.265381	-0.147705	19.110908	29.812469	-19.550502
43482		-6.439489	2.867437	8.415988	-0.496938	0.258909	-0.388207	-0.860840	-0.259521	-0.149658	18.734502	30.030888	-19.738126
43483		-6.045035	1.819472	8.784635	-0.458847	0.176703	-0.319883	-0.857666	-0.259033	-0.154541	18.391251	30.184927	-19.902396
43484		-5.902142	1.276540	8.909242	-0.346087	0.106457	-0.253666	-0.858643	-0.253906	-0.153076	18.125231	30.294451	-20.040469
43485		-5.875382	1.688711	8.714233	-0.239425	0.079697	-0.172284	-0.854736	-0.257324	-0.145508	17.943111	30.368142	-20.133522
43486		-5.820814	1.714394	8.658379	-0.147388	0.056062	-0.101673	-0.854004	-0.261719	-0.151611	17.833279	30.422727	-20.186923
43487		-5.405490	2.394272	8.261970	-0.096828	0.047042	-0.062979	-0.861572	-0.261963	-0.144531	17.764158	30.459129	-20.217901
43488		-5.177164	3.036659	8.005923	-0.115321	0.026283	-0.073943	-0.854736	-0.255615	-0.151367	17.678265	30.492528	-20.260040
43489		-4.899334	3.116440	7.943375	-0.163723	0.027992	-0.122938	-0.863037	-0.258057	-0.155518	17.549461	30.528837	-20.333015
43490		-5.138379	2.905745	7.984023	-0.204795	0.021784	-0.160867	-0.849365	-0.259277	-0.152832	17.383738	30.574538	-20.431353
43491		-5.251170	2.435930	8.233662	-0.205875	0.003794	-0.157927	-0.852295	-0.265869	-0.161377	17.216798	30.603226	-20.531641
43492		-5.187376	2.423535	8.238954	-0.176786	0.015384	-0.136188	-0.855469	-0.253418	-0.150879	17.074208	30.640770	-20.615862
43493		-5.260405	1.945060	8.428020	-0.135215	0.035713	-0.110052	-0.851318	-0.253174	-0.156494	16.966249	30.678494	-20.679670
43494		-5.216298	2.061056	8.346994	-0.095407	0.052946	-0.095506	-0.844238	-0.258301	-0.156494	16.886962	30.729551	-20.730923
43495		-5.142011	2.204743	8.238268	-0.099350	0.055514	-0.112044	-0.855713	-0.258545	-0.156250	16.800667	30.778296	-20.792375
43496		-5.233012	2.278564	8.182031	-0.104235	0.058852	-0.123773	-0.851074	-0.254395	-0.166016	16.707393	30.837112	-20.860806
43497		-4.998576	2.285358	8.129127	-0.103042	0.067656	-0.131119	-0.854736	-0.257813	-0.153809	16.613683	30.895485	-20.932385
43498		-4.793398	2.447766	8.150072	-0.100718	0.085244	-0.145840	-0.843994	-0.264893	-0.162109	16.517422	30.972185	-21.010236
43499		-4.931806	2.461873	8.118326	-0.099481	0.104306	-0.154306	-0.852783	-0.257813	-0.166260	16.421341	31.054257	-21.090071
43500		-4.802369	2.430218	8.131336	-0.095890	0.127091	-0.153104	-0.845703	-0.265625	-0.158936	16.329093	31.154853	-21.165114
43501		-4.791627	2.368762	8.112135	-0.100240	0.148845	-0.171348	-0.850586	-0.261719	-0.157471	16.230749	31.263931	-21.248026
43502		-5.231557	2.561059	8.132155	-0.082633	0.165764	-0.169176	-0.850098	-0.263184	-0.159424	16.143930	31.388094	-21.326743
43503		-5.465536	2.386093	8.115685	-0.068062	0.151798	-0.166100	-0.843506	-0.258057	-0.161377	16.065476	31.497747	-21.406315
43504		-5.493857	2.542408	8.086134	-0.057653	0.140935	-0.170900	-0.839355	-0.270264	-0.160156	15.989408	31.608312	-21.491333
43505		-5.499734	2.695632	7.945187	-0.064099	0.118771	-0.173081	-0.843262	-0.257080	-0.160889	15.907119	31.700684	-21.582063
43506		-5.428097	2.684355	7.999807	-0.075398	0.103213	-0.175980	-0.842773	-0.259766	-0.163574	15.815004	31.791052	-21.677835
43507		-5.505738	2.454120	7.973223	-0.084275	0.096686	-0.177020	-0.838623	-0.253906	-0.156738	15.717160	31.871613	-21.775687
43508		-5.433944	2.348702	8.068348	-0.093732	0.087826	-0.171788	-0.836182	-0.254395	-0.164063	15.614021	31.952569	-21.872034
43509		-5.446549	2.239156	8.104616	-0.092512	0.089722	-0.166890	-0.839355	-0.254395	-0.158936	15.513785	32.027435	-21.965059
43510		-5.535380	2.064603	8.163630	-0.079117	0.100240	-0.150199	-0.834961	-0.254395	-0.156738	15.427190	32.111661	-22.045574
43511		-5.471458	2.117283	8.135428	-0.065162	0.130066	-0.125994	-0.835449	-0.257813	-0.168945	15.360225	32.202359	-22.105100
43512		-5.667007	2.153874	8.054822	-0.064223	0.135868	-0.108638	-0.842041	-0.270996	-0.166016	15.299596	32.299807	-22.152492
43513		-5.688107	2.295930	7.970222	-0.068694	0.113552	-0.097913	-0.838135	-0.249756	-0.163574	15.238509	32.377030	-22.196948
43514		-5.617792	2.332059	7.928692	-0.074143	0.081039	-0.102551	-0.827881	-0.256348	-0.154785	15.168815	32.443181	-22.250437
43515		-5.324298	2.376430	8.024168	-0.078972	0.063658	-0.104918	-0.826904	-0.249512	-0.169189	15.094387	32.493765	-22.308614
43516		-5.317468	2.284914	8.048112	-0.075778	0.061625	-0.119207	-0.829590	-0.270996	-0.169189	15.015834	32.551527	-22.376700
43517		-5.299001	2.203793	8.142754	-0.064470	0.082487	-0.116584	-0.828369	-0.253174	-0.167725	14.947148	32.614132	-22.439462
43518		-5.397676	2.022773	8.128643	-0.051659	0.094492	-0.116723	-0.829346	-0.258789	-0.164307	14.886139	32.689548	-22.500407
43519		-5.463500	2.010082	8.192313	-0.030351	0.107457	-0.100726	-0.829102	-0.256348	-0.169922	14.844736	32.763542	-22.548618
43520		-5.492976	2.125273	8.064574	-0.021653	0.105249	-0.095597	-0.827393	-0.259277	-0.172852	14.809179	32.841711	-22.594022
43521		-5.394270	2.192650	8.038473	-0.012524	0.111247	-0.095792	-0.836182	-0.256104	-0.168457	14.779904	32.917033	-22.638511
43522		-5.369513	2.172686	8.061327	-0.006841	0.130398	-0.100972	-0.825928	-0.254883	-0.171143	14.753079	33.009856	-22.683266
43523		-5.423099	2.108499	8.035324	-0.004964	0.155327	-0.091873	-0.821045	-0.252930	-0.166260	14.733521	33.108998	-22.717666
43524		-5.417611	2.075799	8.068206	0.004463	0.184016	-0.093094	-0.825439	-0.256836	-0.160645	14.720896	33.230326	-22.748058
43525		-5.380342	2.144278	8.062897	0.016571	0.217772	-0.085083	-0.826172	-0.261230	-0.170410	14.721923	33.363072	-22.767218
43526		-5.431311	2.184012	8.106505	0.028398	0.258251	-0.094369	-0.825439	-0.254639	-0.166992	14.729505	33.525681	-22.785607
43527		-5.479598	2.114340	8.128737	0.039310	0.301256	-0.090664	-0.813232	-0.259277	-0.168945	14.749496	33.705505	-22.793887
43528		-5.419152	2.192508	8.118336	0.048425	0.348609	-0.094666	-0.824219	-0.256104	-0.168457	14.777207	33.918185	-22.796556
43529		-5.453388	2.305059	8.031058	0.056392	0.396580	-0.106320	-0.822754	-0.252197	-0.178223	14.810589	34.153112	-22.798307
43530		-5.500679	2.248627	8.074177	0.069698	0.446975	-0.121021	-0.823975	-0.268066	-0.165039	14.850530	34.424084	-22.800902
43531		-5.482101	2.278478	8.108640	0.068224	0.491044	-0.140570	-0.817871	-0.261963	-0.174072	14.887384	34.716360	-22.808457
43532		-5.505655	2.434465	8.044267	0.067313	0.545966	-0.155706	-0.803467	-0.263428	-0.171631	14.922968	35.047192	-22.816273
43533		-5.407393	2.358480	8.118875	0.066622	0.594044	-0.178382	-0.813721	-0.262695	-0.173096	14.955013	35.402080	-22.830452
43534		-5.261954	2.353852	8.199131	0.040731	0.686278	-0.200879	-0.809326	-0.251465	-0.165771	14.972481	35.817180	-22.843140
43535		-5.277443	2.210655	8.314271	0.041191	0.783335	-0.238972	-0.804688	-0.261963	-0.173584	14.985877	36.285820	-22.863966
43536		-5.399171	1.513294	8.491770	0.085997	0.874324	-0.267783	-0.805908	-0.259277	-0.172363	15.022472	36.814778	-22.887825
43537		-5.355196	1.751130	8.547434	0.158966	1.006131	-0.290743	-0.797607	-0.258057	-0.173096	15.106825	37.414418	-22.902376
43538		-5.470281	1.757566	8.469306	0.214087	1.170713	-0.294748	-0.784668	-0.261230	-0.168701	15.240126	38.111209	-22.887405
43539		-5.475826	1.897229	8.557053	0.221929	1.354952	-0.274400	-0.793457	-0.263428	-0.169434	15.411491	38.901173	-22.819697
43540		-5.565182	1.759179	8.558672	0.273590	1.538480	-0.263363	-0.774170	-0.256836	-0.173828	15.643299	39.795900	-22.703604
43541		-5.500740	2.146947	8.393278	0.315909	1.725625	-0.275274	-0.768555	-0.263672	-0.172852	15.925214	40.789923	-22.550746
43542		-5.647813	2.048269	8.268567	0.340697	1.944672	-0.294404	-0.763428	-0.261963	-0.163086	16.250201	41.912049	-22.356498
43543		-5.625760	2.109500	8.185220	0.368659	2.159128	-0.319199	-0.754883	-0.270752	-0.175537	16.623151	43.150031	-22.120321
43544		-5.668465	2.303864	8.373971	0.396575	2.418474	-0.353618	-0.741211	-0.266113	-0.178955	17.050213	44.539569	-21.833970
43545		-5.585030	2.472708	8.369969	0.433723	2.716008	-0.404966	-0.737061	-0.270264	-0.174805	17.544041	46.094051	-21.491872
43546		-5.482626	2.556336	8.383809	0.494271	3.064908	-0.482948	-0.728027	-0.270264	-0.170898	18.121757	47.854730	-21.091149
43547		-5.368653	2.152267	8.368319	0.611717	3.467709	-0.573906	-0.703125	-0.272705	-0.172852	18.837449	49.843090	-20.608981
43548		-5.567723	1.583125	8.457724	0.786207	3.931692	-0.655970	-0.691406	-0.266846	-0.164551	19.769453	52.097223	-19.991314
43549		-5.708525	1.748908	8.506836	0.964889	4.482772	-0.769415	-0.680420	-0.273193	-0.166504	20.970551	54.658277	-19.186484
43550		-5.446802	2.047872	8.568574	1.111534	5.106414	-0.963018	-0.656982	-0.282715	-0.151367	22.456305	57.584011	-18.166416
43551		-6.985741	3.053232	9.174864	1.210726	5.839500	-1.146705	-0.632080	-0.279053	-0.151123	24.372967	60.915353	-16.746619
43552		-9.072361	3.836093	9.803759	1.225638	6.491129	-1.276041	-0.605957	-0.280029	-0.135010	26.921514	64.587789	-14.673152
43553		-13.374735	5.609851	10.971141	1.367189	6.717809	-1.383457	-0.587158	-0.283936	-0.122559	30.344782	68.346861	-11.797971
43554		-16.572338	5.915752	11.356665	1.455610	6.488558	-1.477292	-0.558838	-0.292725	-0.112061	34.741569	71.939996	-8.014291
43555		-17.053057	5.942800	10.234076	1.627115	6.041338	-1.586127	-0.534180	-0.292236	-0.090820	40.397321	75.240537	-3.094967
43556		-17.587496	6.909028	10.266403	1.758966	5.514036	-1.742232	-0.495850	-0.276855	-0.068115	47.674330	78.211485	3.341496
43557		-16.747803	7.870374	9.835454	1.767730	4.925325	-1.964410	-0.475098	-0.291260	-0.061279	57.064103	80.833107	11.855415
43558		-14.704709	7.766063	9.158885	1.606758	4.453998	-2.263524	-0.454346	-0.287842	-0.026367	70.146870	83.142835	24.131850
43559		-14.097886	5.973875	9.211776	1.655403	3.971653	-2.359059	-0.419434	-0.270508	-0.015869	90.397918	84.884727	43.533818
43560		-10.545612	3.627259	8.126829	2.054051	3.441438	-2.272873	-0.394043	-0.270020	0.005127	118.886752	85.669231	70.932510
43561		-6.475044	2.211516	6.250546	2.695678	2.826032	-2.127199	-0.369385	-0.271484	0.027588	146.655835	85.459533	97.230870
43562		5.141492	2.765652	6.537513	3.027523	2.148851	-2.041636	-0.346680	-0.260986	0.051514	166.749234	84.785712	115.652680
43563		-21.022159	7.733912	13.835746	3.055234	1.171673	-1.763124	-0.332764	-0.257080	0.072510	179.782515	84.235329	126.984830
43564		-23.403954	17.021232	19.047597	2.130049	-1.605036	-1.261232	-0.313477	-0.256592	0.078125	-170.480924	85.100773	135.535352
43565		-3.832714	15.122808	11.250101	0.484904	-3.184621	-0.691506	-0.302490	-0.257080	0.066162	-157.807221	86.757770	147.958962
43566		2.544327	10.453448	6.968344	-0.961526	-3.557403	-0.511404	-0.281006	-0.251953	0.060059	-122.988582	88.218693	-176.644663
43567		0.487348	4.553875	5.751093	-1.525135	-3.552176	-0.319620	-0.274170	-0.248535	0.045166	-58.184306	88.024964	-110.940523
43568		0.649331	1.441325	4.678899	-1.410980	-3.580897	0.018771	-0.261230	-0.249756	0.028809	-28.811786	86.488154	-80.731894
43569		0.332695	0.353173	4.296028	-0.954357	-3.645898	0.426668	-0.255615	-0.242188	0.016113	-16.128091	84.638281	-67.465689
43570		-0.517888	1.294881	4.739791	-0.510404	-3.743395	0.811748	-0.258057	-0.248779	0.003418	-8.223937	82.626619	-59.222874
43571		-0.431002	2.782345	4.871321	-0.352547	-3.817118	1.044331	-0.249756	-0.239258	-0.012939	-2.969255	80.505417	-53.709624
43572		-0.980868	2.961674	4.917544	-0.396583	-3.882692	1.110985	-0.246094	-0.240234	-0.025879	0.490275	78.284080	-49.963106
43573		-1.782757	2.104284	5.415113	-0.382264	-3.963447	1.072337	-0.247070	-0.246094	-0.046143	2.686206	75.996071	-47.488607
43574		-3.647177	1.528212	6.323801	-0.210848	-4.117789	0.975321	-0.244141	-0.249512	-0.069580	4.122125	73.596541	-45.879744
43575		-4.277252	1.677014	6.694441	0.013611	-4.345520	0.888896	-0.242188	-0.249512	-0.080566	5.096341	71.073356	-44.867905
43576		-4.134451	2.070341	6.588136	0.206556	-4.508778	0.818416	-0.242432	-0.254883	-0.099609	5.828211	68.445201	-44.218673
43577		-4.008681	1.775134	5.927992	0.391243	-4.512018	0.834251	-0.247803	-0.261475	-0.125732	6.520844	65.823166	-43.712656
43578		-4.561591	1.890557	5.635499	0.620157	-4.309431	0.987199	-0.239990	-0.273682	-0.157227	7.437623	63.291002	-43.096184
43579		-5.993958	2.450459	6.182374	0.783995	-4.023263	1.304237	-0.240723	-0.282471	-0.169189	8.675223	60.903419	-42.206660
43580		-7.185553	3.100935	7.249448	0.809360	-3.761105	1.711113	-0.247070	-0.287598	-0.198242	10.201715	58.603633	-40.982322
43581		-8.395530	3.460063	8.497952	0.731414	-3.580838	2.033567	-0.257324	-0.308594	-0.215576	11.802241	56.366810	-39.584041
43582		-9.675482	3.448529	9.278488	0.631042	-3.503568	2.170873	-0.265137	-0.326904	-0.245361	13.293738	54.123299	-38.215038
43583		-10.993106	3.356928	9.559937	0.561554	-3.473001	2.156553	-0.286377	-0.346191	-0.273193	14.572887	51.894007	-37.019244
43584		-12.550509	3.717188	9.606930	0.543194	-3.484436	2.083150	-0.302490	-0.366211	-0.302979	15.664902	49.641226	-36.017765
43585		-13.386572	4.347250	9.632883	0.509801	-3.532709	2.041479	-0.334717	-0.377686	-0.328125	16.593150	47.371508	-35.171427
43586		-13.585600	4.912470	9.672450	0.473685	-3.576607	2.099168	-0.355957	-0.393555	-0.351318	17.445107	45.045922	-34.374144
43587		-13.358941	5.487496	9.725555	0.398456	-3.603411	2.282021	-0.390869	-0.421387	-0.375244	18.262754	42.679539	-33.526832
43588		-12.949011	6.007358	9.787663	0.265470	-3.597935	2.575775	-0.425781	-0.426514	-0.394775	19.073288	40.240337	-32.540068
43589		-12.151655	6.074122	9.840710	0.051072	-3.554314	2.900148	-0.474609	-0.437988	-0.419434	19.824060	37.766424	-31.397218
43590		-11.843288	5.027323	10.102823	-0.144682	-3.483730	3.192048	-0.526855	-0.451172	-0.436768	20.508272	35.248704	-30.116377
43591		-11.629458	3.328373	10.241647	-0.213290	-3.433991	3.388899	-0.571777	-0.455566	-0.445801	21.139731	32.719035	-28.772040
43592		-11.299379	2.045414	10.340096	-0.176790	-3.400135	3.416437	-0.623779	-0.461914	-0.457031	21.722365	30.177277	-27.470185
43593		-11.041503	1.244776	10.378925	-0.129776	-3.364574	3.243533	-0.683350	-0.471191	-0.460938	22.204053	27.694023	-26.325433
43594		-10.840667	0.625314	10.355858	-0.072135	-3.339988	2.911867	-0.740723	-0.462158	-0.461426	22.572002	25.276810	-25.416549
43595		-10.674434	0.179737	10.174136	0.008930	-3.310977	2.502278	-0.786865	-0.465332	-0.447998	22.843276	22.973092	-24.770521
43596		-10.654351	0.052858	10.008702	0.112529	-3.277913	2.092023	-0.822998	-0.449219	-0.448242	23.059691	20.764879	-24.371067
43597		-10.564119	0.272320	9.846996	0.249336	-3.231216	1.704215	-0.856689	-0.460693	-0.439453	23.265177	18.678451	-24.191639
43598		-11.113981	0.512019	9.817978	0.394505	-3.200777	1.380363	-0.886963	-0.453857	-0.425049	23.492857	16.671006	-24.194452
43599		-10.962987	1.090186	9.477853	0.494455	-3.199054	1.133686	-0.911621	-0.448486	-0.406494	23.738953	14.731145	-24.339596
43600		-10.211154	0.923696	8.690347	0.548527	-3.132812	0.918519	-0.929688	-0.445068	-0.395996	23.994844	12.867765	-24.592930
43601		-10.248103	0.241282	7.837447	0.640760	-2.997146	0.730250	-0.957520	-0.447510	-0.385498	24.295770	11.129392	-24.921354
43602		-9.968985	0.541088	6.899932	0.719505	-2.849240	0.532588	-0.968750	-0.456787	-0.363037	24.636945	9.509479	-25.327337
43603		-9.553902	1.360934	6.141964	0.663150	-2.629165	0.319858	-0.987061	-0.453857	-0.336670	24.946952	8.064843	-25.798774
43604		-9.869122	2.300168	5.600630	0.494775	-2.404317	0.130984	-0.993164	-0.452637	-0.336914	25.164594	6.778872	-26.319571
43605		-9.593942	2.782294	4.875306	0.293108	-2.192477	0.021199	-1.012451	-0.457275	-0.320801	25.277492	5.637032	-26.847572
43606		-8.540993	3.088076	4.096691	0.137210	-1.928217	0.019671	-1.025879	-0.449463	-0.318115	25.316039	4.628558	-27.312250
43607		-8.561613	3.756255	3.955272	0.043256	-1.618418	0.150578	-1.011719	-0.455566	-0.303711	25.319487	3.753230	-27.632279
43608		-8.558171	4.575928	3.837803	-0.055182	-1.379302	0.408883	-1.020020	-0.449463	-0.300537	25.282212	2.935126	-27.759255
43609		-7.410473	5.254634	3.284968	-0.246602	-1.141498	0.737038	-1.032959	-0.444580	-0.310059	25.147546	2.163300	-27.656348
43610		-5.842058	4.807092	2.727255	-0.466379	-0.817195	1.075571	-1.042480	-0.439697	-0.307861	24.893952	1.476102	-27.296479
43611		-4.879495	3.393419	2.579810	-0.584037	-0.417128	1.380500	-1.051270	-0.432617	-0.304932	24.574332	0.927861	-26.678561
43612		-4.864045	2.699656	3.223697	-0.575026	-0.042591	1.627144	-1.054199	-0.420410	-0.307861	24.258021	0.518813	-25.840308
43613		-5.105404	2.442352	3.946328	-0.578995	0.224698	1.779977	-1.060059	-0.411377	-0.318115	23.934659	0.219729	-24.857364
43614		-4.788894	2.180122	4.412159	-0.625063	0.413729	1.837450	-1.068848	-0.386963	-0.321533	23.581346	0.011859	-23.798890
