// General information: 
//  MT Manager version: 2022.2.0 
//  XDA version: 2022.2.0 build 7381 rev 124627 built on 2023-07-19
// Device information: 
//  DeviceId: 00B4C3A0
//  ProductCode: MTW2-3A7G6
//  Firmware Version: 4.6.0
//  Hardware Version: 2.0.0
// Device settings: 
//  Filter Profile: human(46.1)
//  Option Flags: Orientation Smoother Disabled, Position/Velocity Smoother Disabled, Continuous Zero Rotation Update Disabled, AHS Disabled, ICC Disabled
// Coordinate system: ENU
PacketCounter	SampleTimeFine	Acc_X	Acc_Y	Acc_Z	Gyr_X	Gyr_Y	Gyr_Z	Mag_X	Mag_Y	Mag_Z	Roll	Pitch	Yaw
30212		9.549417	0.857678	-0.171108	0.082122	-0.031452	-0.004828	-0.405029	-0.188232	0.646240	107.345387	-84.131365	58.275680
30213		9.605301	0.869432	-0.136266	0.088374	-0.035302	-0.003322	-0.409424	-0.190430	0.650635	107.554987	-84.126752	58.120572
30214		9.593879	0.838352	-0.176281	0.084317	-0.035696	-0.000371	-0.409668	-0.192383	0.644775	107.800755	-84.120764	57.926554
30215		9.607614	0.869722	-0.179028	0.080263	-0.036085	0.002581	-0.399414	-0.190674	0.654297	108.018874	-84.119080	57.757829
30216		9.616983	0.842568	-0.096400	0.094422	-0.036233	0.004239	-0.400146	-0.199463	0.654297	108.280554	-84.115343	57.553632
30217		9.641659	0.832871	-0.134913	0.077581	-0.063235	0.000212	-0.402832	-0.184814	0.650391	108.638274	-84.107081	57.242478
30218		9.627373	0.858127	-0.159633	0.069305	-0.063347	0.008777	-0.409180	-0.180420	0.651611	109.035151	-84.100538	56.887893
30219		9.608369	0.882653	-0.115533	0.088314	-0.063286	0.000301	-0.398682	-0.189209	0.653320	109.396001	-84.092104	56.581229
30220		9.587205	0.877698	-0.244887	0.077940	-0.062227	-0.001680	-0.403809	-0.188965	0.652100	109.770670	-84.079657	56.253933
30221		9.572805	0.903104	-0.269244	0.077303	-0.055303	0.004812	-0.397461	-0.181641	0.649658	110.090974	-84.074663	55.980638
30222		9.562394	0.885977	-0.224078	0.076893	-0.054079	0.010091	-0.408447	-0.185303	0.647217	110.443159	-84.069759	55.675336
30223		9.589257	0.875266	-0.296754	0.059480	-0.041558	0.015758	-0.396973	-0.183838	0.654053	110.701690	-84.073171	55.454336
30224		9.584775	0.873060	-0.232157	0.066199	-0.036824	0.017383	-0.406006	-0.181885	0.657715	110.972669	-84.075375	55.224518
30225		9.593335	0.829803	-0.236161	0.065230	-0.041497	0.017682	-0.401611	-0.188965	0.658203	111.239826	-84.079547	54.998342
30226		9.574652	0.853169	-0.189761	0.062875	-0.039395	0.020699	-0.390381	-0.182617	0.659912	111.529272	-84.082756	54.748047
30227		9.580566	0.866687	-0.176630	0.057637	-0.046158	0.023199	-0.399414	-0.176758	0.652832	111.829358	-84.088505	54.483883
30228		9.578499	0.864142	-0.146848	0.055985	-0.041163	0.025129	-0.405273	-0.180908	0.647705	112.133839	-84.093420	54.214507
30229		9.572816	0.846006	-0.168816	0.041097	-0.038820	0.023162	-0.405273	-0.178711	0.648682	112.385222	-84.100662	53.990340
30230		9.560814	0.869565	-0.225443	0.037707	-0.038668	0.021630	-0.401123	-0.174561	0.655762	112.659972	-84.104010	53.740331
30231		9.574789	0.898950	-0.228278	0.033666	-0.033922	0.023164	-0.402344	-0.169189	0.655518	112.883157	-84.112142	53.540485
30232		9.600553	0.959457	-0.195201	0.010839	-0.029804	0.030591	-0.396240	-0.177002	0.656250	113.117502	-84.121987	53.315626
30233		9.642878	0.993840	-0.177381	0.006393	-0.013611	0.034523	-0.403564	-0.172607	0.648193	113.248716	-84.140480	53.192982
30234		9.641078	0.990216	-0.144620	0.006941	-0.020260	0.038963	-0.398438	-0.183350	0.656250	113.452186	-84.156756	52.996927
30235		9.684229	0.909810	-0.092463	0.003413	-0.024894	0.030599	-0.407227	-0.177490	0.656738	113.631451	-84.170488	52.823427
30236		9.661183	0.787151	-0.149581	-0.035179	-0.051544	0.018360	-0.393066	-0.178223	0.655762	113.926700	-84.168583	52.510865
30237		9.673777	0.744504	-0.223217	-0.049474	-0.061256	0.011371	-0.395752	-0.174561	0.660889	114.219894	-84.163553	52.192490
30238		9.686233	0.702466	-0.297066	-0.057691	-0.056547	0.007612	-0.394287	-0.180420	0.661377	114.502175	-84.154534	51.879993
30239		9.655331	0.795144	-0.441453	-0.067715	-0.046178	0.008438	-0.403564	-0.177002	0.654785	114.702039	-84.151190	51.645124
30240		9.602475	0.813615	-0.309632	-0.050401	-0.035741	0.011301	-0.399658	-0.176758	0.660156	114.890364	-84.148848	51.431269
30241		9.537474	0.857755	-0.229467	-0.034134	-0.027252	0.009616	-0.402100	-0.177979	0.655273	115.014058	-84.150681	51.292412
30242		9.515215	0.866531	-0.233486	-0.034298	-0.036815	0.015129	-0.398438	-0.184326	0.658203	115.226015	-84.149940	51.064074
30243		9.551513	0.871804	-0.356281	-0.037031	-0.051438	0.013400	-0.392090	-0.173584	0.657959	115.479362	-84.147628	50.792634
30244		9.557476	0.885890	-0.342887	-0.037061	-0.046035	0.022887	-0.404785	-0.174316	0.654297	115.754800	-84.148410	50.498891
30245		9.573907	0.873146	-0.242299	-0.032443	-0.044893	0.026309	-0.394287	-0.180420	0.662354	116.009943	-84.154190	50.229233
30246		9.517817	0.801667	-0.267375	-0.041983	-0.048669	0.029597	-0.397461	-0.172607	0.659424	116.312810	-84.157473	49.905087
30247		9.514034	0.798435	-0.203380	-0.042513	-0.062418	0.030890	-0.392090	-0.174072	0.665527	116.663494	-84.160727	49.533393
30248		9.510004	0.780377	-0.261640	-0.050098	-0.072496	0.026935	-0.400146	-0.176758	0.655518	117.074522	-84.156072	49.095849
30249		9.503979	0.762283	-0.285653	-0.058950	-0.068292	0.027713	-0.396973	-0.183594	0.656250	117.436885	-84.155688	48.703095
30250		9.562553	0.771432	-0.288505	-0.032583	-0.067811	0.028553	-0.393555	-0.171875	0.661621	117.837955	-84.152503	48.285646
30251		9.587248	0.773845	-0.207148	-0.028767	-0.071979	0.029621	-0.395996	-0.181885	0.657227	118.240165	-84.151524	47.869859
30252		9.617208	0.834271	-0.246160	-0.028692	-0.069616	0.033041	-0.400146	-0.174805	0.663086	118.663556	-84.149503	47.432210
30253		9.623465	0.846350	-0.234964	-0.021566	-0.070949	0.041688	-0.397217	-0.175049	0.662354	119.096598	-84.154281	46.989564
30254		9.591723	0.835893	-0.191359	-0.020507	-0.069027	0.046232	-0.392578	-0.182129	0.663818	119.558056	-84.158334	46.518369
30255		9.612227	0.878227	-0.179521	-0.027130	-0.079270	0.054322	-0.396729	-0.177979	0.649902	120.065910	-84.166210	45.997331
30256		9.584133	0.867270	-0.205656	-0.026348	-0.079128	0.058080	-0.397705	-0.173584	0.651611	120.608186	-84.172352	45.441544
30257		9.568424	0.887295	-0.196541	-0.035045	-0.085779	0.059075	-0.393799	-0.173828	0.657227	121.156758	-84.179833	44.874924
30258		9.613501	0.804262	-0.185558	-0.046306	-0.081835	0.059503	-0.384521	-0.177734	0.661865	121.707061	-84.184782	44.299587
30259		9.583501	0.850000	-0.193859	-0.052485	-0.080725	0.062897	-0.392334	-0.177002	0.658936	122.238197	-84.194344	43.740670
30260		9.602698	0.890807	-0.148405	-0.060608	-0.091991	0.060799	-0.387207	-0.176025	0.658691	122.834578	-84.195664	43.110793
30261		9.657202	0.823697	-0.188810	-0.065215	-0.077546	0.064066	-0.396240	-0.181641	0.655762	123.349192	-84.205694	42.561040
30262		9.663928	0.833010	-0.177560	-0.064840	-0.068321	0.066862	-0.391602	-0.179932	0.666016	123.852566	-84.216230	42.022228
30263		9.647069	0.794414	-0.115748	-0.066143	-0.069695	0.064944	-0.390625	-0.176025	0.659424	124.335211	-84.228251	41.503661
30264		9.664844	0.763085	-0.173378	-0.061353	-0.069229	0.065686	-0.393799	-0.178711	0.664551	124.844786	-84.236997	40.960645
30265		9.666732	0.700182	-0.197789	-0.066175	-0.072792	0.058839	-0.386963	-0.177734	0.666016	125.326057	-84.244243	40.443961
30266		9.687711	0.684331	-0.169552	-0.055229	-0.081607	0.051477	-0.387451	-0.178955	0.664063	125.851737	-84.241288	39.888295
30267		9.687875	0.680069	-0.177158	-0.041924	-0.082251	0.038255	-0.388184	-0.180176	0.670898	126.323556	-84.234782	39.395019
30268		9.692140	0.735773	-0.304581	-0.055720	-0.080919	0.034926	-0.390625	-0.186523	0.663086	126.788049	-84.223505	38.900555
30269		9.685679	0.774451	-0.345862	-0.057466	-0.075308	0.039556	-0.389160	-0.177979	0.666016	127.220680	-84.219191	38.437136
30270		9.637320	0.846917	-0.266689	-0.054054	-0.070393	0.039643	-0.384521	-0.183105	0.661621	127.652181	-84.212963	37.976781
30271		9.630980	0.827669	-0.290237	-0.061730	-0.059086	0.043675	-0.383545	-0.179932	0.664551	128.023024	-84.215559	37.573271
30272		9.640300	0.782629	-0.329968	-0.072403	-0.051576	0.045759	-0.383057	-0.180176	0.664063	128.380956	-84.218134	37.176295
30273		9.640551	0.835912	-0.350315	-0.071559	-0.046310	0.048124	-0.388672	-0.177490	0.665527	128.706761	-84.226718	36.812489
30274		9.649846	0.790493	-0.389098	-0.073872	-0.044237	0.051183	-0.376465	-0.185791	0.665527	129.051963	-84.233877	36.427471
30275		9.678855	0.790869	-0.373691	-0.077234	-0.030796	0.053013	-0.379639	-0.177734	0.666748	129.325996	-84.249794	36.112326
30276		9.680314	0.728994	-0.394163	-0.076089	-0.023763	0.056178	-0.384521	-0.184814	0.663086	129.600518	-84.266224	35.797088
30277		9.679394	0.723033	-0.361361	-0.077259	-0.022748	0.057704	-0.383789	-0.190918	0.668945	129.859730	-84.286856	35.496923
30278		9.699206	0.648560	-0.277622	-0.074847	-0.025488	0.051975	-0.389648	-0.177734	0.668701	130.130541	-84.300513	35.186148
30279		9.648320	0.591761	-0.282891	-0.082422	-0.031024	0.043965	-0.380859	-0.187500	0.664063	130.374933	-84.311834	34.897766
30280		9.643286	0.631239	-0.353108	-0.069608	-0.018858	0.038570	-0.386719	-0.183105	0.662842	130.572018	-84.321856	34.664111
30281		9.644432	0.571464	-0.372427	-0.070129	-0.004114	0.028049	-0.391113	-0.178223	0.663086	130.647468	-84.336099	34.552285
30282		9.733406	0.585400	-0.385301	-0.098418	0.011923	0.031985	-0.381836	-0.185059	0.659668	130.669599	-84.354674	34.477862
30283		9.710328	0.591861	-0.348821	-0.108899	0.026930	0.036188	-0.382813	-0.177734	0.666504	130.617373	-84.384162	34.472563
30284		9.725192	0.620037	-0.343692	-0.088261	0.038241	0.034895	-0.381348	-0.189209	0.669434	130.540051	-84.413823	34.503925
30285		9.748922	0.607381	-0.373399	-0.082608	0.038844	0.039392	-0.385986	-0.180908	0.668945	130.463152	-84.448947	34.538656
30286		9.697174	0.608328	-0.353184	-0.094281	0.046781	0.040403	-0.386475	-0.184814	0.666016	130.363778	-84.484174	34.588704
30287		9.721368	0.653323	-0.397304	-0.095243	0.052356	0.037923	-0.381104	-0.183838	0.656982	130.210290	-84.523742	34.693315
30288		9.719663	0.705630	-0.337562	-0.095318	0.063214	0.037853	-0.387451	-0.191406	0.665283	130.022459	-84.563893	34.831621
30289		9.687437	0.694411	-0.245117	-0.113786	0.076683	0.034526	-0.383301	-0.180176	0.671143	129.727121	-84.610770	35.067216
30290		9.687838	0.691516	-0.237318	-0.127637	0.067074	0.031242	-0.394531	-0.187988	0.650635	129.470885	-84.649292	35.255609
30291		9.696201	0.705147	-0.246077	-0.131055	0.072351	0.028382	-0.387451	-0.186523	0.659180	129.153488	-84.691778	35.504096
30292		9.651826	0.665780	-0.224529	-0.129475	0.061511	0.025014	-0.385498	-0.193359	0.668945	128.891702	-84.725341	35.696981
30293		9.666185	0.637103	-0.201142	-0.131868	0.055430	0.023299	-0.389893	-0.194824	0.663818	128.629339	-84.759089	35.889212
30294		9.658399	0.618927	-0.178756	-0.143408	0.051809	0.021664	-0.396973	-0.186035	0.661621	128.388385	-84.787529	36.053142
30295		9.683606	0.609543	-0.241647	-0.141234	0.044494	0.019897	-0.394287	-0.187988	0.655762	128.154794	-84.815869	36.211253
30296		9.690417	0.622859	-0.218443	-0.134582	0.041692	0.019409	-0.401611	-0.193359	0.653320	127.956316	-84.839599	36.337595
30297		9.661921	0.617211	-0.232904	-0.136529	0.028774	0.011050	-0.391846	-0.188965	0.658447	127.764318	-84.858472	36.456545
30298		9.669478	0.575035	-0.230688	-0.135659	0.031085	0.007355	-0.395996	-0.185547	0.656738	127.569069	-84.872943	36.579018
30299		9.682078	0.546320	-0.176441	-0.131389	0.017150	0.006469	-0.397949	-0.196045	0.654785	127.421279	-84.885531	36.657325
30300		9.645362	0.525648	-0.177676	-0.114125	-0.003371	-0.004419	-0.395752	-0.196777	0.658691	127.366585	-84.882602	36.651067
30301		9.688904	0.497559	-0.332758	-0.115568	-0.007016	-0.009832	-0.394287	-0.192871	0.659180	127.285922	-84.879320	36.670026
30302		9.684388	0.543885	-0.400131	-0.113462	-0.008551	-0.010274	-0.392090	-0.196533	0.654541	127.235367	-84.871926	36.659992
30303		9.684307	0.545414	-0.400017	-0.105646	-0.001418	-0.012256	-0.391602	-0.196777	0.656738	127.124060	-84.869422	36.715841
30304		9.651166	0.587538	-0.484887	-0.095134	0.010598	-0.006895	-0.395020	-0.196289	0.657227	126.999757	-84.870189	36.790395
30305		9.624612	0.593702	-0.379784	-0.075024	0.024289	-0.008210	-0.391113	-0.193115	0.655029	126.790515	-84.878340	36.962131
30306		9.654174	0.542578	-0.379228	-0.076691	0.008017	-0.003597	-0.398193	-0.201172	0.658203	126.702440	-84.879699	37.010922
30307		9.628559	0.542914	-0.465369	-0.080601	0.015023	-0.009348	-0.394043	-0.193848	0.657471	126.532512	-84.884106	37.140037
30308		9.628618	0.544085	-0.462781	-0.065241	0.030486	-0.007944	-0.387939	-0.193848	0.659424	126.318516	-84.891081	37.321837
30309		9.614107	0.513976	-0.461439	-0.054656	0.039691	-0.008678	-0.393311	-0.198975	0.664307	126.039223	-84.903991	37.576299
30310		9.598094	0.482167	-0.424650	-0.043835	0.053526	-0.013353	-0.401123	-0.198975	0.652344	125.695448	-84.916031	37.900699
30311		9.606369	0.500148	-0.434866	-0.049257	0.062625	-0.012249	-0.404541	-0.204590	0.652588	125.280921	-84.934687	38.293474
30312		9.596472	0.590056	-0.526845	-0.028022	0.086173	-0.004069	-0.397705	-0.199463	0.659180	124.803142	-84.961407	38.761476
30313		9.583933	0.568110	-0.398797	-0.009418	0.093983	-0.003308	-0.396484	-0.201416	0.654785	124.267591	-84.993923	39.298229
30314		9.574523	0.549680	-0.339042	-0.006309	0.100002	0.002210	-0.400391	-0.197754	0.652344	123.738706	-85.027306	39.829975
30315		9.589441	0.580820	-0.327679	0.009160	0.085724	-0.001320	-0.398926	-0.203613	0.660645	123.253873	-85.057254	40.326691
30316		9.561858	0.634666	-0.352604	0.005757	0.083009	0.001929	-0.393311	-0.198242	0.656738	122.812551	-85.084407	40.777439
30317		9.568584	0.649061	-0.326385	0.002537	0.079757	0.002524	-0.395264	-0.193359	0.647461	122.361959	-85.113540	41.235949
30318		9.595581	0.651078	-0.265540	0.003919	0.075316	0.003098	-0.403076	-0.203369	0.660889	121.957622	-85.138320	41.648483
30319		9.585783	0.632340	-0.208527	0.019989	0.064556	0.001253	-0.398438	-0.197754	0.650879	121.589189	-85.161772	42.034722
30320		9.570562	0.543417	-0.191536	0.011305	0.052173	-0.010218	-0.402832	-0.205322	0.651611	121.268617	-85.172678	42.367414
30321		9.622850	0.589171	-0.337307	-0.014913	0.046877	-0.003471	-0.391602	-0.200684	0.654297	120.960097	-85.188183	42.672869
30322		9.653294	0.595879	-0.347847	-0.001295	0.051855	-0.006934	-0.404053	-0.192871	0.661865	120.642356	-85.200304	42.995464
30323		9.621257	0.588302	-0.292983	0.008751	0.054689	-0.004491	-0.397461	-0.204834	0.650391	120.296573	-85.217213	43.352841
30324		9.562616	0.578462	-0.291616	0.016443	0.054424	-0.008583	-0.398926	-0.202148	0.658447	119.964464	-85.228939	43.700038
30325		9.516653	0.597840	-0.253360	0.022114	0.055039	-0.004002	-0.397461	-0.200684	0.656982	119.620570	-85.245764	44.062092
30326		9.525032	0.614555	-0.264081	0.022196	0.057307	-0.000529	-0.396729	-0.191895	0.644531	119.297883	-85.261981	44.403126
30327		9.581996	0.622869	-0.220655	0.024386	0.052962	0.003826	-0.401367	-0.196289	0.650635	118.989751	-85.281863	44.731375
30328		9.606191	0.613841	-0.249588	0.018550	0.050000	0.006663	-0.402344	-0.202637	0.650879	118.728924	-85.299372	45.008227
30329		9.614650	0.629401	-0.260994	0.007171	0.045832	0.013164	-0.401123	-0.193604	0.653320	118.479757	-85.321756	45.266965
30330		9.562402	0.632168	-0.242236	0.006218	0.043424	0.016819	-0.395996	-0.194336	0.656006	118.282089	-85.342403	45.473340
30331		9.541375	0.698388	-0.253189	0.009517	0.038044	0.030550	-0.402100	-0.195313	0.645264	118.138431	-85.371261	45.628406
30332		9.578381	0.716059	-0.246037	0.021566	0.045082	0.033949	-0.401123	-0.198975	0.652344	117.992569	-85.400923	45.791614
30333		9.594532	0.687605	-0.259565	0.022817	0.046343	0.035888	-0.401123	-0.197021	0.649170	117.816134	-85.434658	45.986468
30334		9.599140	0.696674	-0.202214	0.019271	0.049336	0.040478	-0.406738	-0.202393	0.654297	117.659237	-85.468690	46.159412
30335		9.611154	0.663899	-0.146868	0.017469	0.041708	0.041663	-0.398438	-0.189209	0.653076	117.523707	-85.503994	46.309857
30336		9.605232	0.644961	-0.161413	0.017063	0.042772	0.046961	-0.400879	-0.200928	0.649902	117.425326	-85.539523	46.422819
30337		9.604620	0.582307	-0.143274	0.004657	0.041945	0.047545	-0.401123	-0.200439	0.646484	117.298257	-85.577782	46.557896
30338		9.594431	0.664701	-0.204635	-0.027736	0.037771	0.046652	-0.395996	-0.196045	0.653809	117.202547	-85.611807	46.642425
30339		9.597875	0.729352	-0.127222	-0.034453	0.045554	0.045747	-0.400146	-0.197510	0.643066	117.018567	-85.649969	46.811519
30340		9.552020	0.744134	-0.090815	-0.035275	0.024386	0.044535	-0.407471	-0.191650	0.650391	116.998137	-85.679403	46.816212
30341		9.591256	0.762574	-0.119856	-0.036739	0.010561	0.041719	-0.402588	-0.194580	0.660645	117.031073	-85.706503	46.766877
30342		9.615788	0.749876	-0.152061	-0.039112	0.012550	0.044774	-0.402832	-0.194336	0.648682	117.090270	-85.732974	46.689516
30343		9.629709	0.718754	-0.133688	-0.037880	0.016671	0.041940	-0.403320	-0.196045	0.652100	117.084545	-85.761683	46.678651
30344		9.606811	0.667231	-0.119035	-0.045832	0.007252	0.040343	-0.403564	-0.195068	0.645508	117.162152	-85.784504	46.578973
30345		9.570313	0.642841	-0.121296	-0.044801	0.011906	0.040161	-0.400879	-0.196777	0.639893	117.178584	-85.811073	46.541529
30346		9.559909	0.620814	-0.070251	-0.037287	-0.000906	0.035225	-0.404785	-0.192627	0.648926	117.301348	-85.829133	46.401489
30347		9.567326	0.576245	-0.072327	-0.040169	-0.007442	0.027032	-0.405518	-0.192627	0.646484	117.409237	-85.843931	46.274952
30348		9.563331	0.561320	-0.125636	-0.052597	-0.005379	0.022828	-0.403076	-0.196533	0.644043	117.511367	-85.854467	46.146811
30349		9.601133	0.523882	-0.142826	-0.057781	-0.004781	0.016397	-0.400391	-0.190430	0.655762	117.552769	-85.864552	46.076923
30350		9.609681	0.539243	-0.158832	-0.058363	-0.005381	0.009972	-0.408936	-0.193848	0.648193	117.605255	-85.868539	45.995246
30351		9.648700	0.561005	-0.189797	-0.051540	-0.002918	0.008274	-0.409668	-0.200928	0.640625	117.609223	-85.874979	45.967180
30352		9.685540	0.580987	-0.186202	-0.045972	-0.001713	0.004631	-0.398926	-0.200684	0.654053	117.623534	-85.877225	45.930895
30353		9.699095	0.553371	-0.168918	-0.035991	0.011886	0.007198	-0.404541	-0.197266	0.647461	117.526844	-85.886963	46.011330
30354		9.689793	0.592236	-0.130949	-0.025455	0.015890	0.007870	-0.404297	-0.193604	0.652344	117.440339	-85.895516	46.087908
30355		9.648684	0.566782	-0.064736	-0.015198	0.002222	0.008926	-0.405518	-0.194824	0.658203	117.430823	-85.903607	46.093802
30356		9.663759	0.588907	-0.183809	-0.024141	-0.006716	0.006183	-0.404541	-0.198975	0.644775	117.499061	-85.905327	46.015995
30357		9.613475	0.594994	-0.204056	-0.029864	0.000611	0.006421	-0.407471	-0.200195	0.652832	117.483564	-85.911691	46.019346
30358		9.626156	0.623456	-0.166223	-0.015626	0.009034	0.004699	-0.404297	-0.199219	0.645020	117.439279	-85.916819	46.059239
30359		9.620510	0.560614	-0.082830	-0.007110	0.008844	0.004421	-0.405518	-0.195801	0.639648	117.369729	-85.924322	46.129378
30360		9.629045	0.576830	-0.097421	-0.000688	0.015257	0.003270	-0.406250	-0.199951	0.648193	117.283941	-85.930352	46.219460
30361		9.618373	0.557888	-0.046323	-0.007955	0.003651	0.001934	-0.404297	-0.203125	0.647461	117.240655	-85.935253	46.262820
30362		9.615604	0.603435	-0.112441	-0.017375	0.006562	0.004569	-0.412109	-0.205322	0.649658	117.212097	-85.939655	46.285941
30363		9.624161	0.619489	-0.127001	-0.015485	0.016422	0.006892	-0.403076	-0.198242	0.648193	117.090601	-85.950341	46.402728
30364		9.624218	0.618928	-0.125417	-0.020657	0.014153	0.005225	-0.405273	-0.188477	0.649170	117.007532	-85.957051	46.478611
30365		9.597867	0.624621	-0.056354	-0.014442	0.005146	0.007927	-0.412842	-0.197266	0.643066	116.973215	-85.965351	46.510110
30366		9.657571	0.577897	-0.072478	-0.005582	-0.001224	0.003634	-0.408447	-0.195313	0.649414	117.003915	-85.967245	46.480600
30367		9.625173	0.561444	-0.145258	-0.007891	-0.007153	0.001847	-0.399902	-0.192383	0.654297	117.037299	-85.969320	46.447546
30368		9.675464	0.554687	-0.125785	-0.005240	-0.007406	-0.000385	-0.403076	-0.198486	0.645752	117.098128	-85.967549	46.388028
30369		9.662815	0.525910	-0.163996	-0.016069	-0.013149	-0.001899	-0.406494	-0.194092	0.654053	117.160134	-85.965962	46.321761
30370		9.635831	0.580387	-0.197850	-0.009850	-0.006213	-0.000393	-0.409668	-0.195068	0.646484	117.209576	-85.964490	46.271010
30371		9.654774	0.623815	-0.142106	-0.005588	0.001664	-0.001128	-0.402100	-0.201416	0.638184	117.171448	-85.967285	46.311355
30372		9.622081	0.615596	-0.092297	-0.006210	0.006115	0.002063	-0.405029	-0.198486	0.651367	117.142963	-85.970292	46.340815
30373		9.610830	0.644605	-0.142338	-0.009278	0.010297	0.004835	-0.410400	-0.192627	0.645996	117.062120	-85.978256	46.420800
30374		9.571857	0.621417	-0.110596	-0.007321	0.009355	0.007075	-0.401855	-0.196777	0.650146	117.027873	-85.984660	46.455398
30375		9.615895	0.599585	-0.108051	-0.005574	0.011823	0.007204	-0.416016	-0.201416	0.640137	116.946597	-85.994287	46.538869
30376		9.623103	0.557279	-0.109294	0.001897	0.006967	0.007091	-0.398926	-0.204590	0.646240	116.934820	-86.000075	46.556236
30377		9.628072	0.513097	-0.076828	0.005588	-0.001665	0.001129	-0.406006	-0.197021	0.656494	116.933704	-86.003033	46.564364
30378		9.630263	0.515446	-0.111990	0.001175	-0.014040	-0.005101	-0.413086	-0.209473	0.649170	117.029628	-85.997136	46.473353
30379		9.651665	0.553416	-0.213683	-0.004203	-0.015787	-0.004119	-0.403076	-0.201416	0.648193	117.107795	-85.993701	46.396789
30380		9.643097	0.537288	-0.199071	0.010046	-0.007357	-0.005826	-0.407959	-0.202393	0.643799	117.157050	-85.989164	46.357655
30381		9.621058	0.548495	-0.200367	0.016191	-0.002672	-0.007801	-0.410889	-0.197510	0.646484	117.137636	-85.987255	46.390466
30382		9.651533	0.555081	-0.215319	0.012706	0.005441	-0.004489	-0.400635	-0.199463	0.654053	117.100330	-85.986742	46.439632
30383		9.639966	0.592759	-0.143636	0.016480	0.012107	-0.003403	-0.404053	-0.189697	0.647949	116.991029	-85.990929	46.563370
30384		9.639977	0.592899	-0.142307	0.022211	0.017831	-0.000077	-0.408691	-0.193115	0.652100	116.885106	-85.995876	46.686780
30385		9.659792	0.580069	-0.105400	0.025214	0.021555	0.002000	-0.404541	-0.197510	0.652344	116.731344	-86.005307	46.861058
30386		9.653509	0.565576	-0.122210	0.022693	0.019033	-0.001900	-0.400879	-0.187256	0.651855	116.609402	-86.009589	47.000801
30387		9.657970	0.569870	-0.189642	0.010893	0.010876	0.000229	-0.401611	-0.189209	0.651855	116.519972	-86.015219	47.102205
30388		9.664287	0.584441	-0.169790	0.016056	0.016026	-0.002868	-0.410156	-0.198975	0.643799	116.412287	-86.018202	47.223843
30389		9.659820	0.580561	-0.099906	0.018356	0.008902	-0.004643	-0.411621	-0.201416	0.651611	116.321530	-86.020844	47.330422
30390		9.616690	0.546071	-0.121575	0.022682	0.005974	-0.005461	-0.414063	-0.198730	0.651367	116.282153	-86.019919	47.387393
30391		9.585683	0.588458	-0.207216	0.014165	0.006164	-0.005191	-0.407959	-0.187988	0.649170	116.205384	-86.021576	47.476899
30392		9.642245	0.596647	-0.167602	0.018911	0.012356	-0.002988	-0.408447	-0.192627	0.648682	116.125631	-86.023526	47.572178
30393		9.594661	0.557740	-0.120148	0.015700	0.009151	-0.002414	-0.407715	-0.200195	0.649902	116.039193	-86.027380	47.673424
30394		9.644929	0.551376	-0.099079	0.018629	0.010623	-0.003817	-0.404785	-0.195557	0.649170	115.968927	-86.028449	47.759030
30395		9.636375	0.535229	-0.083257	0.008582	-0.008106	-0.005110	-0.406494	-0.207031	0.649414	115.996884	-86.026431	47.740419
30396		9.618826	0.550521	-0.153768	0.000974	-0.010637	-0.007197	-0.402588	-0.195801	0.650879	116.061838	-86.020418	47.680338
30397		9.670399	0.602681	-0.148051	0.003276	-0.004711	-0.005415	-0.409180	-0.190918	0.637695	116.060923	-86.019018	47.687121
30398		9.708071	0.567575	-0.165429	0.005020	-0.002244	-0.005289	-0.410156	-0.197021	0.646729	116.072901	-86.016096	47.682468
30399		9.683794	0.576632	-0.132242	0.006904	-0.005438	-0.006525	-0.405273	-0.198486	0.644043	116.072706	-86.014146	47.691366
30400		9.678794	0.620950	-0.165134	0.010811	-0.004435	-0.006808	-0.409180	-0.195557	0.650146	116.098663	-86.009891	47.676027
30401		9.626221	0.626131	-0.151811	0.004114	-0.012573	-0.006483	-0.412598	-0.197266	0.649414	116.151250	-86.006046	47.630152
30402		9.614914	0.655921	-0.203650	-0.001610	-0.005247	-0.006254	-0.406006	-0.197266	0.644287	116.177953	-86.001870	47.606929
30403		9.593383	0.619185	-0.103657	-0.004959	-0.002790	-0.004316	-0.407959	-0.194824	0.642822	116.160423	-86.001626	47.626104
30404		9.606831	0.592646	-0.087312	-0.003288	-0.002578	-0.007668	-0.402344	-0.196533	0.649902	116.161407	-85.997397	47.627700
30405		9.631008	0.584847	-0.121767	-0.012494	-0.016122	-0.006473	-0.406982	-0.196289	0.655029	116.230995	-85.992618	47.555376
30406		9.635392	0.589605	-0.191922	-0.023172	-0.014470	-0.005792	-0.405762	-0.191895	0.641113	116.314404	-85.986337	47.462925
30407		9.625911	0.629729	-0.156506	-0.019686	-0.009537	-0.005541	-0.400635	-0.194092	0.646240	116.334841	-85.983720	47.436062
30408		9.633082	0.588600	-0.159046	-0.013476	-0.002603	-0.004042	-0.412109	-0.190430	0.647217	116.343110	-85.981347	47.424504
30409		9.628624	0.584884	-0.090743	-0.017245	-0.009271	-0.005123	-0.409912	-0.196777	0.647705	116.364365	-85.979032	47.398443
30410		9.657219	0.581123	-0.193714	-0.013757	-0.004335	-0.004871	-0.406006	-0.203369	0.646973	116.382088	-85.975792	47.377246
30411		9.602477	0.583857	-0.145395	-0.023944	-0.004364	-0.001244	-0.403320	-0.193604	0.648682	116.376943	-85.976642	47.372791
30412		9.604663	0.586205	-0.180080	-0.018852	-0.004352	-0.003058	-0.409912	-0.197754	0.649170	116.398404	-85.974328	47.344920
30413		9.625712	0.632160	-0.158917	-0.013760	-0.004338	-0.004872	-0.404297	-0.192871	0.651123	116.386875	-85.973334	47.353402
30414		9.641398	0.607520	-0.176982	-0.014665	-0.001616	-0.002513	-0.401367	-0.200195	0.653076	116.392741	-85.971997	47.343569
30415		9.600177	0.583065	-0.112201	-0.018436	-0.008287	-0.003597	-0.404297	-0.194092	0.649170	116.413707	-85.970554	47.316782
30416		9.658327	0.641322	-0.209435	-0.034214	-0.006662	-0.001100	-0.406738	-0.201416	0.644287	116.450214	-85.968655	47.265004
30417		9.652007	0.627146	-0.228367	-0.025913	-0.003439	-0.003487	-0.406982	-0.196777	0.650146	116.430079	-85.968557	47.274795
30418		9.619305	0.619084	-0.178867	-0.012849	0.003102	0.001096	-0.407959	-0.197754	0.650635	116.415672	-85.970275	47.286329
30419		9.647621	0.622943	-0.158887	-0.014249	0.007501	0.000516	-0.401611	-0.197754	0.647217	116.337221	-85.975020	47.361555
30420		9.628429	0.587797	-0.092661	-0.014466	-0.002144	-0.005166	-0.405273	-0.201416	0.649658	116.337488	-85.972187	47.357451
30421		9.608569	0.601134	-0.128645	-0.023755	-0.017959	-0.007473	-0.402588	-0.193848	0.650879	116.411038	-85.966263	47.274415
30422		9.606588	0.591657	-0.217815	-0.033530	-0.021936	-0.004389	-0.401855	-0.200439	0.647949	116.546894	-85.958772	47.123433
30423		9.641138	0.610426	-0.181120	-0.022358	-0.009313	-0.003322	-0.410645	-0.203369	0.647217	116.573820	-85.957172	47.088340
30424		9.634794	0.596458	-0.200556	-0.019710	-0.009564	-0.005556	-0.403809	-0.195313	0.646973	116.623224	-85.952235	47.031963
30425		9.626290	0.580133	-0.185128	-0.015581	0.001091	-0.000150	-0.408936	-0.197021	0.652344	116.588101	-85.954991	47.062660
30426		9.654607	0.584052	-0.165328	-0.012089	0.006034	0.000111	-0.410645	-0.200195	0.649902	116.549405	-85.956957	47.098980
30427		9.599928	0.586392	-0.116099	-0.019709	0.003486	-0.001978	-0.406006	-0.199951	0.658936	116.488031	-85.959401	47.153936
30428		9.654590	0.584619	-0.164336	-0.025380	0.002890	-0.006589	-0.399902	-0.198242	0.652344	116.440252	-85.957123	47.191726
30429		9.592643	0.628933	-0.113002	-0.027053	0.002665	-0.003237	-0.404541	-0.196533	0.645264	116.379090	-85.958556	47.242323
30430		9.624374	0.693513	-0.140492	-0.027334	0.013983	-0.000485	-0.407959	-0.194336	0.651123	116.271549	-85.962225	47.338902
30431		9.602392	0.703952	-0.139670	-0.026560	0.014029	0.003285	-0.398438	-0.194092	0.649658	116.148869	-85.970002	47.451729
30432		9.655884	0.643255	-0.173620	-0.019081	0.009185	0.003167	-0.409912	-0.199463	0.648926	116.093733	-85.974315	47.500513
30433		9.660960	0.598999	-0.140929	-0.023827	0.000083	0.005707	-0.398926	-0.202637	0.646240	116.083717	-85.979736	47.501835
30434		9.676701	0.573759	-0.158797	-0.018523	-0.000407	0.001242	-0.398682	-0.196533	0.640869	116.092102	-85.980640	47.487261
30435		9.670418	0.559234	-0.177491	-0.023905	-0.002168	0.002220	-0.408203	-0.208008	0.648438	116.086447	-85.983609	47.483503
30436		9.634891	0.596923	-0.194426	-0.028737	0.002425	0.000106	-0.407471	-0.197754	0.648926	116.064156	-85.984642	47.493814
30437		9.612885	0.607508	-0.194769	-0.047549	0.000277	0.000512	-0.402100	-0.200439	0.649170	116.019061	-85.987415	47.515899
30438		9.600637	0.692901	-0.223970	-0.052098	0.003694	0.003988	-0.405273	-0.203613	0.648926	115.987936	-85.990766	47.521649
30439		9.620515	0.679432	-0.187787	-0.042375	0.012683	0.010541	-0.411377	-0.200928	0.649170	115.891871	-86.001745	47.597964
30440		9.631294	0.697645	-0.236589	-0.032239	0.007603	0.008187	-0.411621	-0.189453	0.654053	115.858174	-86.008236	47.617698
30441		9.662473	0.654437	-0.149853	-0.019790	0.008458	0.007641	-0.410156	-0.194824	0.641602	115.794023	-86.016829	47.676192
30442		9.641463	0.608294	-0.170707	-0.014893	0.009006	0.008484	-0.395264	-0.204102	0.649902	115.760692	-86.023821	47.705521
30443		9.598440	0.572809	-0.192177	-0.015389	0.010690	0.005547	-0.406250	-0.208984	0.648926	115.675957	-86.031709	47.786256
30444		9.567997	0.566003	-0.175831	-0.020636	0.016307	0.008741	-0.403076	-0.201172	0.640381	115.585446	-86.040638	47.869603
30445		9.572142	0.577123	-0.120740	-0.019311	0.022704	0.009430	-0.407471	-0.191895	0.652100	115.420611	-86.053438	48.027584
30446		9.545250	0.630775	-0.150994	-0.017565	0.025173	0.009568	-0.400879	-0.192627	0.649902	115.267023	-86.064940	48.175919
30447		9.549387	0.641795	-0.095174	-0.017990	0.029094	0.010118	-0.403564	-0.202881	0.639404	115.057504	-86.079681	48.381510
30448		9.582265	0.649338	-0.141403	-0.019884	0.032269	0.011366	-0.403564	-0.200684	0.645264	114.852874	-86.093763	48.579668
30449		9.604402	0.637409	-0.137481	-0.010786	0.032655	0.017529	-0.416016	-0.196533	0.652100	114.641159	-86.113019	48.789906
30450		9.606841	0.638231	-0.167997	-0.015000	0.045833	0.015822	-0.400879	-0.202393	0.643555	114.347087	-86.132538	49.080508
30451		9.585051	0.646942	-0.164044	-0.016340	0.049548	0.023492	-0.406738	-0.203857	0.645752	114.016841	-86.158782	49.406958
30452		9.594807	0.605162	-0.195328	-0.009223	0.063885	0.031031	-0.408691	-0.205811	0.652588	113.629888	-86.190220	49.793948
30453		9.575007	0.500615	-0.231284	0.004596	0.086359	0.038299	-0.412598	-0.200928	0.639404	113.059293	-86.232177	50.372577
30454		9.680579	0.487590	-0.249941	0.007684	0.110418	0.046222	-0.407959	-0.206543	0.647949	112.339548	-86.281421	51.102740
30455		9.723108	0.524518	-0.093361	-0.030765	0.134279	0.053824	-0.413574	-0.196289	0.642090	111.371086	-86.340893	52.059611
30456		9.759460	0.595086	-0.053896	-0.061273	0.151586	0.064232	-0.408447	-0.196533	0.643555	110.273199	-86.406580	53.128991
30457		9.790803	0.659904	0.056404	-0.072276	0.171689	0.069826	-0.414795	-0.197266	0.647949	108.934257	-86.479482	54.434078
30458		9.814066	0.651703	0.162378	-0.095797	0.175702	0.068782	-0.411377	-0.202637	0.636230	107.523759	-86.548843	55.796669
30459		9.820274	0.554157	0.279540	-0.119302	0.200674	0.065311	-0.408447	-0.199951	0.641846	105.763809	-86.619694	57.495908
30460		9.762163	0.482271	0.273239	-0.146366	0.202593	0.059144	-0.414795	-0.200195	0.635498	103.922287	-86.682652	59.261041
30461		9.623753	0.347853	0.150798	-0.164532	0.196015	0.045213	-0.423584	-0.199219	0.641357	101.998198	-86.735002	61.098519
30462		9.412624	0.110701	-0.093131	-0.134387	0.159491	0.023414	-0.423096	-0.198975	0.634521	100.399347	-86.766397	62.627289
30463		9.282051	-0.230406	-0.256487	-0.077195	0.123880	0.003092	-0.419189	-0.203613	0.634033	99.085780	-86.782094	63.903746
30464		9.171053	-0.565979	-0.210631	0.014828	0.145228	-0.008996	-0.426270	-0.207764	0.641113	97.625793	-86.789590	65.379009
30465		9.108748	-0.681650	-0.091657	0.064820	0.111828	-0.035321	-0.418457	-0.196045	0.633545	96.453821	-86.779142	66.594321
30466		9.197663	-0.606534	-0.067275	0.072949	0.119114	-0.047928	-0.416504	-0.203125	0.631348	95.253725	-86.759302	67.842657
30467		9.319709	-0.322304	-0.302889	0.068192	0.090515	-0.059607	-0.418701	-0.204102	0.636963	94.302299	-86.731383	68.839557
30468		9.600783	0.071604	-0.482373	0.048589	0.092688	-0.056284	-0.420898	-0.197510	0.641602	93.378706	-86.703293	69.797020
30469		9.822010	0.350169	-0.589148	0.046273	0.088274	-0.046417	-0.422852	-0.204102	0.647217	92.478040	-86.681062	70.730632
30470		9.931797	0.461753	-0.632803	0.070997	0.071767	-0.038627	-0.423828	-0.200928	0.639160	91.807774	-86.661023	71.447244
30471		10.019774	0.422387	-0.622130	0.103040	0.051673	-0.036427	-0.421143	-0.201172	0.636475	91.322160	-86.642655	71.997632
30472		10.037262	0.468389	-0.561591	0.111378	0.029577	-0.043247	-0.422119	-0.196777	0.626709	91.098805	-86.618784	72.289766
30473		9.962781	0.601627	-0.539950	0.086545	0.014934	-0.046135	-0.433838	-0.195557	0.642578	90.965612	-86.594192	72.477531
30474		9.931436	0.723534	-0.427978	0.022693	0.033644	-0.050856	-0.425537	-0.201660	0.636963	90.658540	-86.565877	72.802643
30475		9.891676	0.819604	-0.385937	-0.035081	0.053454	-0.044458	-0.426270	-0.196289	0.641846	90.096347	-86.542296	73.350754
30476		9.809212	0.766156	-0.374070	-0.068493	0.068653	-0.035707	-0.424805	-0.200928	0.632568	89.418543	-86.522223	73.994953
30477		9.792795	0.680305	-0.356304	-0.099666	0.092545	-0.029892	-0.428711	-0.199219	0.637451	88.467502	-86.505724	74.895539
30478		9.821124	0.526046	-0.267429	-0.128447	0.116647	-0.023636	-0.426514	-0.197021	0.630615	87.319445	-86.490294	75.976479
30479		9.882726	0.389195	-0.137478	-0.153650	0.130502	-0.024160	-0.421143	-0.207275	0.636719	86.000311	-86.473665	77.215069
30480		9.879933	0.342331	-0.022762	-0.171276	0.149709	-0.027225	-0.425781	-0.200684	0.627441	84.548381	-86.451624	78.575916
30481		9.838489	0.331139	0.110684	-0.192516	0.180371	-0.040028	-0.426025	-0.198730	0.634277	82.801954	-86.418824	80.219762
30482		9.743514	0.324850	0.259205	-0.239097	0.207391	-0.053114	-0.430664	-0.203369	0.631592	80.873892	-86.372411	82.018850
30483		9.625861	0.262771	0.331368	-0.258729	0.194808	-0.065421	-0.431885	-0.210693	0.621826	79.078254	-86.317435	83.675069
30484		9.528136	0.227395	0.282300	-0.277221	0.146476	-0.078800	-0.425049	-0.210693	0.630615	77.798839	-86.256976	84.802474
30485		9.492801	0.225449	0.342470	-0.302481	0.101407	-0.100243	-0.424316	-0.217041	0.615723	76.928457	-86.189413	85.505505
30486		9.468183	0.301175	0.371863	-0.325958	0.059480	-0.129832	-0.429199	-0.211182	0.626221	76.509496	-86.109788	85.742700
30487		9.458226	0.392321	0.261944	-0.355711	0.034460	-0.150916	-0.420410	-0.214600	0.631104	76.294860	-86.022288	85.757964
30488		9.550136	0.492673	0.303024	-0.326170	0.039293	-0.172616	-0.424316	-0.222656	0.622314	76.138620	-85.921474	85.731717
30489		9.702377	0.470157	0.600012	-0.286901	0.034398	-0.199007	-0.431152	-0.224121	0.619385	76.066345	-85.807305	85.644165
30490		9.621347	0.472826	0.452657	-0.286469	-0.004530	-0.227833	-0.430908	-0.228760	0.618164	76.360573	-85.681748	85.189008
30491		9.629967	0.528734	0.089453	-0.242882	-0.047023	-0.243945	-0.421143	-0.229980	0.618164	76.958604	-85.553175	84.453924
30492		9.810533	0.640953	-0.023281	-0.165405	-0.028919	-0.252690	-0.431152	-0.236328	0.621582	77.480460	-85.416246	83.839851
30493		9.847374	0.755663	0.025763	-0.079298	0.006853	-0.261446	-0.426025	-0.240723	0.621338	77.760713	-85.270329	83.517152
30494		9.944123	0.802063	-0.134477	-0.004653	0.018714	-0.267640	-0.420166	-0.242432	0.624268	78.022367	-85.118744	83.256375
30495		9.894413	0.903696	-0.109252	0.115284	0.075514	-0.267660	-0.430664	-0.235352	0.619385	77.950862	-84.960916	83.397953
30496		9.746359	0.935814	0.145565	0.251219	0.116722	-0.274516	-0.423584	-0.230957	0.619141	77.741187	-84.793674	83.757460
30497		9.507154	0.972173	0.150455	0.368716	0.194108	-0.267089	-0.428955	-0.232178	0.622559	77.121208	-84.621400	84.596963
30498		9.121135	1.124783	-0.070512	0.480954	0.266307	-0.250560	-0.424561	-0.235352	0.624023	76.197380	-84.447099	85.806313
30499		8.719294	1.364481	-0.230199	0.542127	0.316889	-0.228130	-0.435791	-0.225586	0.621826	75.039359	-84.276547	87.286626
30500		8.591802	1.574863	-0.255140	0.478214	0.381162	-0.189145	-0.431152	-0.226074	0.612793	73.539693	-84.113677	89.073910
30501		8.489594	1.767675	0.005011	0.318618	0.431357	-0.142395	-0.429932	-0.228271	0.616699	71.679629	-83.962971	91.132574
30502		8.661494	1.825425	0.115958	0.104017	0.420290	-0.099234	-0.427490	-0.226318	0.624023	69.793838	-83.830448	93.093533
30503		9.015572	1.856516	-0.134887	-0.084167	0.348002	-0.071414	-0.439697	-0.226807	0.611816	68.161476	-83.721571	94.691621
30504		9.514881	1.897274	-0.735182	-0.197170	0.256758	-0.061945	-0.439453	-0.225586	0.614258	66.948587	-83.633216	95.802757
30505		10.086555	2.050319	-1.002246	-0.255089	0.223834	-0.061723	-0.437988	-0.231445	0.620361	65.867481	-83.550191	96.748470
30506		10.291091	2.231999	-0.931672	-0.326454	0.169478	-0.064188	-0.430176	-0.236084	0.608887	65.042640	-83.477020	97.394864
30507		10.384710	2.207122	-0.936701	-0.359946	0.082066	-0.073761	-0.443115	-0.230713	0.606934	64.613003	-83.419429	97.624158
30508		10.301373	1.946502	-1.014997	-0.342099	0.044254	-0.085976	-0.437012	-0.236084	0.611572	64.407058	-83.364673	97.638650
30509		10.247264	1.485021	-1.203406	-0.309590	0.041494	-0.103400	-0.438965	-0.234619	0.606934	64.254928	-83.301649	97.618322
30510		10.089519	1.073497	-1.191873	-0.276681	0.088427	-0.128114	-0.433350	-0.245361	0.611816	63.986423	-83.214113	97.733556
30511		9.985840	0.670666	-1.138083	-0.215086	0.076684	-0.127375	-0.443848	-0.239014	0.605469	63.794046	-83.129947	97.808012
30512		10.069818	0.277145	-1.041011	-0.137278	0.101565	-0.140501	-0.434570	-0.246094	0.604736	63.584115	-83.032613	97.944743
30513		10.113280	0.338280	-1.280367	-0.095943	0.140366	-0.139627	-0.438477	-0.236572	0.605713	63.227531	-82.925816	98.253494
30514		9.973644	0.581661	-1.274330	0.006035	0.185420	-0.124240	-0.436279	-0.255127	0.602783	62.737349	-82.814760	98.755474
30515		9.696707	0.751607	-0.977975	0.119340	0.214036	-0.122766	-0.443604	-0.243896	0.600830	62.199667	-82.696507	99.371079
30516		9.505678	1.058984	-0.705973	0.188929	0.215402	-0.117893	-0.441895	-0.249512	0.601563	61.715035	-82.579487	99.973384
30517		9.284517	1.386415	-0.596437	0.225355	0.213876	-0.109460	-0.443359	-0.240234	0.599365	61.245067	-82.466625	100.582122
30518		9.111726	1.649608	-0.454271	0.226839	0.210971	-0.108132	-0.447510	-0.239502	0.600586	60.810919	-82.354492	101.155723
30519		8.918310	1.902128	-0.424405	0.189958	0.189047	-0.110991	-0.441895	-0.244629	0.605713	60.445585	-82.246798	101.639493
30520		8.781959	2.060280	-0.309719	0.131351	0.190448	-0.105549	-0.441406	-0.243896	0.602051	60.052979	-82.140767	102.116235
30521		8.690022	2.092692	-0.114636	0.092737	0.166744	-0.105935	-0.447510	-0.235840	0.602539	59.727646	-82.041136	102.503030
30522		8.655783	2.045215	-0.025134	0.012347	0.154459	-0.109507	-0.451172	-0.239258	0.593018	59.422365	-81.942837	102.822965
30523		8.710178	2.091624	-0.140536	-0.078677	0.111271	-0.101835	-0.450195	-0.239258	0.596680	59.195822	-81.860900	103.011794
30524		8.828549	2.023793	-0.066449	-0.134968	0.077742	-0.101299	-0.445068	-0.244385	0.600586	59.063850	-81.788849	103.071502
30525		8.872662	1.945182	-0.305716	-0.207138	0.056037	-0.088701	-0.445557	-0.250488	0.595459	58.932489	-81.729490	103.089588
30526		8.912158	1.945254	-0.450066	-0.201270	0.041294	-0.071741	-0.453369	-0.253662	0.596680	58.828140	-81.682694	103.083008
30527		8.897065	1.822672	-0.319901	-0.197943	0.020661	-0.060603	-0.445801	-0.242920	0.591797	58.765561	-81.647363	103.035910
30528		8.861262	1.723020	-0.386178	-0.213662	-0.000755	-0.046629	-0.450928	-0.254883	0.594971	58.744095	-81.625367	102.938379
30529		8.864599	1.708244	-0.490728	-0.212804	-0.019014	-0.040870	-0.452148	-0.241699	0.599365	58.764968	-81.611631	102.799068
30530		8.916266	1.688940	-0.572422	-0.223127	-0.046227	-0.036426	-0.445068	-0.258301	0.594971	58.868209	-81.608111	102.569993
30531		8.958367	1.841923	-0.653257	-0.247654	-0.058654	-0.027894	-0.441895	-0.252197	0.593750	58.975737	-81.612532	102.323373
30532		9.011475	1.926957	-0.600080	-0.256024	-0.070824	-0.011830	-0.443604	-0.249268	0.595947	59.093137	-81.628220	102.060940
30533		8.977360	2.087580	-0.675222	-0.270036	-0.095001	0.003442	-0.437012	-0.261475	0.593506	59.249509	-81.658638	101.752149
30534		9.001749	2.120182	-0.794141	-0.301455	-0.119879	0.018212	-0.445801	-0.255615	0.597168	59.448733	-81.703253	101.380756
30535		9.002075	2.220759	-0.926370	-0.332873	-0.140429	0.029039	-0.442383	-0.257568	0.593262	59.678422	-81.759061	100.960981
30536		8.980879	2.220927	-0.987481	-0.360234	-0.142336	0.050105	-0.448975	-0.250000	0.586914	59.864590	-81.825546	100.568858
30537		8.976594	2.125012	-1.077382	-0.393513	-0.158073	0.069397	-0.444336	-0.259033	0.592285	60.046539	-81.906089	100.163289
30538		8.970069	2.006848	-1.242968	-0.403765	-0.171761	0.085750	-0.447998	-0.267822	0.584961	60.250185	-81.998310	99.728480
30539		9.093726	1.908101	-1.299250	-0.393706	-0.176578	0.101028	-0.433594	-0.261719	0.597656	60.447661	-82.099245	99.306490
30540		9.198618	1.881850	-1.401184	-0.391753	-0.172219	0.114959	-0.435547	-0.268799	0.593018	60.615715	-82.205755	98.914770
30541		9.328398	1.917867	-1.489920	-0.395895	-0.176618	0.125908	-0.439209	-0.263428	0.594971	60.782629	-82.319013	98.523007
30542		9.504594	2.013889	-1.509678	-0.375424	-0.182440	0.137171	-0.438965	-0.271973	0.595947	60.968429	-82.439168	98.123033
30543		9.643173	2.066160	-1.613757	-0.335732	-0.188737	0.144677	-0.433594	-0.268311	0.595703	61.193604	-82.564828	97.707684
30544		9.735783	2.091366	-1.606764	-0.290514	-0.196633	0.147070	-0.440186	-0.275879	0.599854	61.483282	-82.693429	97.252252
30545		9.761258	2.039278	-1.483255	-0.262318	-0.217317	0.147645	-0.438232	-0.267578	0.598389	61.884916	-82.827748	96.701515
30546		9.755941	2.075627	-1.528019	-0.295362	-0.244071	0.148783	-0.441406	-0.268799	0.598633	62.392703	-82.969091	96.023760
30547		9.674925	2.115153	-1.619521	-0.299298	-0.263234	0.165616	-0.429932	-0.273438	0.592773	62.966470	-83.123532	95.279361
30548		9.530571	2.096669	-1.520227	-0.306379	-0.315882	0.167745	-0.435059	-0.266113	0.594971	63.792315	-83.291181	94.275389
30549		9.283659	2.062177	-1.654193	-0.417267	-0.395145	0.147476	-0.436768	-0.269531	0.600342	65.002694	-83.466048	92.822223
30550		9.240495	2.362511	-2.001174	-0.587444	-0.424469	0.140199	-0.432373	-0.282471	0.597900	66.339218	-83.640077	91.142963
30551		9.347827	2.531316	-1.660433	-0.665569	-0.440236	0.144326	-0.432861	-0.281250	0.597168	67.784012	-83.815306	89.311786
30552		9.800531	2.360193	-0.796555	-0.694873	-0.471743	0.113778	-0.423096	-0.281982	0.606934	69.522991	-83.975057	87.166977
30553		10.729953	2.085119	-0.135122	-0.827793	-0.468885	0.076335	-0.415771	-0.295410	0.607910	71.342555	-84.106975	84.866791
30554		11.744331	1.377407	0.589627	-0.888840	-0.505106	0.059504	-0.414795	-0.293945	0.610107	73.438350	-84.227668	82.252662
30555		12.323999	0.793861	0.288234	-0.823498	-0.615558	0.027959	-0.413086	-0.294922	0.608154	76.341900	-84.335578	78.866243
30556		12.857070	0.357629	0.576647	-0.822814	-0.663642	-0.003193	-0.414795	-0.298584	0.603027	79.657110	-84.413491	75.065765
30557		13.239697	0.089928	1.589241	-0.905887	-0.654632	-0.044513	-0.410645	-0.297607	0.605225	82.991633	-84.445559	71.200347
30558		13.397514	-0.171515	2.364857	-0.890513	-0.612068	-0.120033	-0.400879	-0.305908	0.605469	86.134346	-84.410883	67.534561
30559		13.324052	-0.373563	1.598920	-0.702994	-0.533588	-0.225286	-0.399414	-0.314697	0.607178	88.888580	-84.296047	64.369022
30560		12.902996	-0.248674	1.061798	-0.361710	-0.418718	-0.296927	-0.393555	-0.312012	0.618164	91.056107	-84.126553	61.986569
30561		11.829830	0.370820	1.058340	-0.017062	-0.334078	-0.319603	-0.398682	-0.323242	0.610107	92.830554	-83.937777	60.199416
30562		10.455288	1.363351	1.490267	0.119013	-0.325833	-0.314006	-0.397949	-0.323486	0.606934	94.526098	-83.746772	58.567110
30563		9.496024	2.273931	1.885651	-0.019164	-0.283594	-0.274085	-0.385986	-0.324707	0.615967	95.849806	-83.576368	57.229682
30564		8.688330	2.923218	2.185197	-0.168629	-0.171861	-0.222315	-0.387207	-0.324707	0.618896	96.500596	-83.439654	56.481944
30565		8.124387	3.112985	2.663218	-0.324127	-0.093146	-0.182482	-0.385498	-0.326660	0.614746	96.678370	-83.330063	56.122003
30566		7.826027	2.899432	2.773119	-0.560952	-0.071387	-0.161313	-0.387939	-0.332031	0.604492	96.618463	-83.234040	55.863194
30567		7.741978	2.376455	2.362665	-0.708591	-0.102757	-0.174606	-0.375488	-0.335693	0.611328	96.609864	-83.128316	55.468677
30568		8.131110	1.464219	1.927568	-0.768474	-0.124125	-0.193225	-0.384277	-0.343506	0.607910	96.652888	-83.010650	54.986287
30569		8.844651	0.422211	1.597654	-0.799991	-0.108192	-0.198431	-0.377441	-0.351563	0.599854	96.592437	-82.890777	54.591141
30570		9.607135	-0.431052	1.237565	-0.758837	-0.091743	-0.179149	-0.376465	-0.346924	0.599121	96.487418	-82.783330	54.263283
30571		10.388850	-1.098020	0.833236	-0.646366	-0.070789	-0.130755	-0.382324	-0.347168	0.607422	96.371126	-82.704698	54.012644
30572		10.811968	-1.477378	0.443351	-0.456424	-0.057195	-0.074442	-0.375732	-0.356934	0.604492	96.333646	-82.659201	53.791272
30573		10.904637	-1.547225	0.304906	-0.173343	-0.035405	-0.016306	-0.376221	-0.358154	0.595703	96.387976	-82.648444	53.642855
30574		10.503523	-1.223022	0.261280	0.123199	-0.023957	0.012988	-0.379395	-0.359131	0.598877	96.578002	-82.654805	53.526928
30575		10.021789	-0.655785	0.296435	0.323437	-0.030926	0.028450	-0.381592	-0.354980	0.605469	96.917427	-82.669684	53.376947
30576		9.815858	-0.150731	0.450588	0.408175	-0.009575	0.056276	-0.375000	-0.360352	0.610107	97.231868	-82.701521	53.300211
30577		9.882706	0.204964	0.460654	0.453778	0.018210	0.103048	-0.378418	-0.349121	0.612061	97.474635	-82.762158	53.323136
30578		9.899323	0.294922	0.495603	0.528362	0.061727	0.148883	-0.385986	-0.354492	0.602051	97.595484	-82.851874	53.510957
30579		9.856396	0.239816	0.505284	0.561034	0.098998	0.182333	-0.374268	-0.339355	0.603516	97.578179	-82.963816	53.857616
30580		9.807058	0.242195	0.465203	0.564364	0.153684	0.194245	-0.386230	-0.339355	0.609619	97.313130	-83.086096	54.454905
30581		9.763276	0.323155	0.417081	0.574750	0.192355	0.202128	-0.385254	-0.344971	0.608887	96.853480	-83.215601	55.255025
30582		9.819633	0.446347	0.406490	0.561208	0.209158	0.208869	-0.385254	-0.335693	0.622314	96.287988	-83.348722	56.152691
30583		9.843103	0.625294	0.320428	0.539390	0.220110	0.222821	-0.394043	-0.324707	0.612061	95.627965	-83.489516	57.133150
30584		9.732466	0.789491	0.275228	0.522952	0.219807	0.235618	-0.386963	-0.313477	0.607178	94.933667	-83.636064	58.137874
30585		9.548405	0.832842	0.280618	0.524849	0.226006	0.244965	-0.398438	-0.311035	0.606689	94.164630	-83.787475	59.219889
30586		9.287332	0.876673	0.332571	0.500935	0.204613	0.248417	-0.395264	-0.317627	0.608643	93.459255	-83.937826	60.222486
30587		8.948757	0.794449	0.468221	0.425579	0.184850	0.248965	-0.399170	-0.305664	0.615234	92.766842	-84.087140	61.169184
30588		8.643797	0.747850	0.433575	0.327499	0.146820	0.236442	-0.394287	-0.313721	0.612305	92.198081	-84.226672	61.934023
30589		8.483634	0.618499	0.260893	0.288821	0.129898	0.225452	-0.397949	-0.306885	0.617188	91.663545	-84.359217	62.642835
30590		8.427055	0.421405	0.095422	0.298871	0.102156	0.213233	-0.399414	-0.292236	0.617676	91.275367	-84.483399	63.209399
30591		8.568412	0.182448	0.040653	0.306555	0.080831	0.200690	-0.401367	-0.289307	0.616211	90.991877	-84.600330	63.676418
30592		8.813798	0.062548	-0.048641	0.308920	0.065042	0.178088	-0.391113	-0.294434	0.618896	90.795465	-84.703486	64.055943
30593		9.039223	-0.039128	-0.170794	0.334466	0.058377	0.159410	-0.402344	-0.286377	0.614746	90.637986	-84.796290	64.412386
30594		9.264568	-0.085034	-0.209076	0.335540	0.041333	0.134776	-0.400635	-0.287842	0.622070	90.585070	-84.874310	64.663033
30595		9.352826	0.050188	-0.395555	0.331964	0.029984	0.106556	-0.398926	-0.284912	0.612549	90.590151	-84.936659	64.854612
30596		9.360966	0.182154	-0.502414	0.380175	0.024461	0.079768	-0.402344	-0.293457	0.619629	90.662534	-84.983064	65.005098
30597		9.246989	0.279657	-0.557888	0.426921	0.017469	0.050837	-0.409180	-0.279297	0.618164	90.796980	-85.013293	65.120697
30598		9.221682	0.404547	-0.797465	0.458450	0.006213	0.024264	-0.407471	-0.275879	0.620605	91.029212	-85.027799	65.155733
30599		9.252210	0.532609	-0.996928	0.505822	0.035268	0.001764	-0.401123	-0.269287	0.619385	91.085951	-85.030383	65.395213
30600		9.288931	0.607875	-0.992941	0.539072	0.070838	-0.007342	-0.403809	-0.270264	0.622803	90.935292	-85.027441	65.860952
30601		9.314639	0.719735	-1.034536	0.528994	0.078683	-0.021485	-0.403076	-0.266846	0.626221	90.720039	-85.016938	66.386841
30602		9.245658	0.800762	-1.091528	0.536345	0.065307	-0.030141	-0.411133	-0.272461	0.625488	90.604467	-85.000652	66.815806
30603		9.301842	0.862963	-1.231632	0.550498	0.062404	-0.034790	-0.399658	-0.262939	0.634521	90.511160	-84.982133	67.231347
30604		9.355476	0.739188	-1.318094	0.574621	0.078470	-0.036802	-0.398682	-0.260498	0.621826	90.335393	-84.961932	67.742778
30605		9.423506	0.526110	-1.381027	0.601680	0.095038	-0.031936	-0.404297	-0.245117	0.633545	90.066804	-84.944847	68.363833
30606		9.491722	0.312459	-1.351975	0.618013	0.108595	-0.027419	-0.412598	-0.249023	0.633789	89.726598	-84.929579	69.065335
30607		9.576918	0.134908	-1.346830	0.627295	0.116107	-0.016953	-0.398438	-0.241455	0.620605	89.341278	-84.920537	69.818941
30608		9.654200	-0.004444	-1.421759	0.651857	0.103701	-0.013861	-0.409180	-0.239502	0.629395	89.055779	-84.912323	70.485011
30609		9.647273	-0.090348	-1.389458	0.688031	0.097226	-0.004956	-0.403809	-0.233398	0.638428	88.828433	-84.909637	71.114575
30610		9.623349	-0.094985	-1.345661	0.706450	0.102464	0.005447	-0.405029	-0.233887	0.632568	88.580913	-84.911990	71.773924
30611		9.478890	-0.064545	-1.201963	0.711267	0.115644	0.018256	-0.402832	-0.224365	0.634033	88.245826	-84.921812	72.525076
30612		9.295124	0.000324	-1.039248	0.704776	0.136382	0.024787	-0.410400	-0.220215	0.640137	87.771702	-84.933854	73.410940
30613		9.168484	0.024761	-0.771230	0.632163	0.157292	0.027999	-0.412842	-0.211182	0.637939	87.114017	-84.947131	74.440526
30614		8.969199	0.048356	-0.755744	0.570465	0.134525	0.032734	-0.406250	-0.201660	0.641846	86.564815	-84.962178	75.324469
30615		8.973343	0.044593	-0.779746	0.549742	0.097524	0.042911	-0.411621	-0.205322	0.635986	86.233172	-84.984557	75.979689
30616		9.005499	0.060036	-0.644735	0.514298	0.070374	0.059772	-0.410156	-0.211426	0.637451	86.048930	-85.016585	76.464913
30617		9.082233	0.173078	-0.531872	0.449547	0.065994	0.074131	-0.406494	-0.196533	0.636963	85.842384	-85.057592	76.936304
30618		9.153956	0.330759	-0.451450	0.351917	0.055847	0.088663	-0.409180	-0.188721	0.640381	85.636638	-85.106449	77.349669
30619		9.148609	0.490612	-0.415637	0.291764	0.032190	0.087905	-0.413574	-0.194092	0.640137	85.547636	-85.156623	77.612762
30620		9.126178	0.616332	-0.352174	0.234637	0.019784	0.091700	-0.411377	-0.190430	0.641846	85.506715	-85.208695	77.793221
30621		9.144774	0.516121	-0.445829	0.227184	0.005582	0.097435	-0.412354	-0.200684	0.638428	85.551727	-85.265470	77.884506
30622		9.135685	0.372163	-0.406885	0.243420	0.005265	0.093362	-0.410400	-0.183594	0.643066	85.612062	-85.319146	77.968387
30623		9.130610	0.164925	-0.477172	0.244987	-0.004241	0.084198	-0.416992	-0.187012	0.641113	85.743201	-85.368809	77.983299
30624		9.047050	0.065803	-0.668925	0.259867	-0.031685	0.067050	-0.409912	-0.181396	0.640869	86.090227	-85.408994	77.789001
30625		9.001999	-0.029575	-1.032837	0.330967	-0.066196	0.047961	-0.416260	-0.171631	0.644043	86.737603	-85.440211	77.335643
30626		8.938692	-0.286146	-1.430535	0.427744	-0.109063	0.023586	-0.406982	-0.174316	0.638916	87.766398	-85.457273	76.553926
30627		8.903923	-0.596942	-1.831169	0.537831	-0.175061	-0.001130	-0.406982	-0.167725	0.643799	89.344939	-85.460627	75.285703
30628		9.071477	-0.919600	-2.127348	0.619241	-0.222186	-0.022957	-0.399902	-0.163330	0.647461	91.308032	-85.447300	73.676812
30629		9.724081	-1.265471	-1.747392	0.814864	-0.117846	-0.017879	-0.401855	-0.159912	0.649414	92.626816	-85.436198	72.826270
30630		10.429391	-1.013200	-1.266065	0.916823	-0.009712	0.015319	-0.403320	-0.154297	0.641357	93.235861	-85.445218	72.746737
30631		11.137973	-0.069957	-0.601984	0.520327	-0.030388	0.058561	-0.400391	-0.145508	0.649170	93.790081	-85.479187	72.493832
30632		11.642746	0.910411	-0.629754	0.072657	-0.096027	0.064595	-0.405029	-0.147461	0.651855	94.571181	-85.512621	71.756548
30633		12.074782	1.758515	-1.958682	0.130798	-0.086894	0.059424	-0.401855	-0.146973	0.647949	95.330104	-85.543797	71.074467
30634		12.503455	2.091337	-0.529421	0.372514	0.025347	0.066447	-0.390381	-0.147949	0.650391	95.411933	-85.583586	71.210946
30635		12.576603	2.205268	1.780569	0.148402	-0.043808	0.072679	-0.401123	-0.138428	0.658936	95.888356	-85.624032	70.822412
30636		12.643126	2.827850	1.552982	-0.202655	-0.132550	0.077616	-0.388672	-0.136230	0.652344	96.836404	-85.660334	69.759643
30637		12.538865	3.432951	0.253935	-0.117302	-0.093447	0.085722	-0.399170	-0.138672	0.654297	97.566700	-85.703725	68.963932
30638		12.373584	3.417573	1.083613	0.114383	0.010937	0.113025	-0.399170	-0.138184	0.649414	97.673390	-85.769254	68.927142
30639		12.091780	2.867558	2.389679	0.010832	-0.042067	0.155687	-0.392822	-0.136963	0.651855	98.185731	-85.855504	68.423784
30640		11.817265	2.091304	2.204519	-0.149953	-0.236087	0.210431	-0.397217	-0.136719	0.644775	100.244015	-85.953374	66.278571
30641		11.428652	0.746942	1.813939	-0.122338	-0.412481	0.254322	-0.393066	-0.141357	0.646729	103.927706	-86.047539	62.519809
30642		10.869368	-0.757717	1.526230	-0.132753	-0.532411	0.248322	-0.388672	-0.133789	0.653076	108.711228	-86.098866	57.653278
30643		10.224982	-1.728552	0.763659	-0.139684	-0.508087	0.194464	-0.390381	-0.137451	0.659180	113.217019	-86.099848	53.060987
30644		9.260113	-2.108229	0.362291	0.000938	-0.352587	0.134997	-0.382324	-0.131592	0.656494	116.389690	-86.085691	49.885943
30645		8.369854	-2.035384	0.510779	0.202379	-0.152586	0.095163	-0.382813	-0.120605	0.661621	118.023407	-86.095378	48.368754
30646		7.674946	-1.459066	0.433650	0.428249	0.019631	0.073580	-0.387695	-0.124268	0.661133	118.428583	-86.138196	48.213052
30647		7.433213	-0.577724	0.680750	0.629891	0.137816	0.071128	-0.386475	-0.119385	0.661621	118.053392	-86.212740	48.954846
30648		7.575846	0.317370	0.915385	0.774311	0.195057	0.077339	-0.377197	-0.110352	0.662842	117.310729	-86.304262	50.148163
30649		8.054141	0.960091	1.177733	0.866487	0.232877	0.067584	-0.372070	-0.106934	0.657959	116.227360	-86.400286	51.735242
30650		8.477472	1.453325	1.151271	0.843743	0.232648	0.043724	-0.387451	-0.102295	0.646240	114.964598	-86.480852	53.489281
30651		9.074718	1.977407	1.167970	0.719031	0.249366	0.020787	-0.396240	-0.096191	0.652100	113.328075	-86.551540	55.545630
30652		9.520225	2.648460	1.240354	0.514042	0.248444	0.000896	-0.392578	-0.091797	0.655029	111.436285	-86.606633	57.740318
30653		9.830070	3.268257	1.336929	0.296274	0.219346	-0.016243	-0.386719	-0.090088	0.652588	109.565057	-86.643333	59.791307
30654		9.879301	3.742718	1.449705	0.100990	0.165447	-0.021860	-0.388428	-0.082275	0.648193	108.031656	-86.662457	61.389762
30655		9.858796	3.983168	1.421754	-0.097930	0.082134	-0.009234	-0.381836	-0.083984	0.650635	107.184286	-86.672840	62.186545
30656		9.686289	3.703610	1.266304	-0.237147	-0.003779	0.000792	-0.387939	-0.086426	0.641113	107.098312	-86.673081	62.141032
30657		9.407255	2.976746	1.137358	-0.307010	-0.070745	-0.012608	-0.389160	-0.088623	0.636719	107.553619	-86.655147	61.513020
30658		9.348593	2.172348	0.829425	-0.366549	-0.110348	-0.061163	-0.384033	-0.087646	0.647949	108.194574	-86.602828	60.665045
30659		9.453496	1.781956	0.874153	-0.462967	-0.088780	-0.126149	-0.384033	-0.091553	0.647217	108.358963	-86.519185	60.238946
30660		9.635564	1.709311	0.786046	-0.540572	-0.076267	-0.195846	-0.388672	-0.094727	0.656006	108.163331	-86.399369	60.129108
30661		9.815544	1.614073	0.524921	-0.559263	-0.074383	-0.257296	-0.387695	-0.098145	0.646484	107.768265	-86.246888	60.208250
30662		9.937653	1.431833	0.430456	-0.561971	-0.069546	-0.299709	-0.390869	-0.110840	0.644775	107.253725	-86.071578	60.405712
30663		9.897149	1.310438	0.339401	-0.550269	-0.071867	-0.316848	-0.386719	-0.108398	0.645508	106.745502	-85.886875	60.605959
30664		9.821483	1.227490	0.227274	-0.520629	-0.073168	-0.321649	-0.379395	-0.112793	0.643799	106.291622	-85.698721	60.766437
30665		9.713123	1.137909	0.162895	-0.472608	-0.074267	-0.308441	-0.383789	-0.129150	0.635986	105.916118	-85.517964	60.875857
30666		9.576845	1.029194	-0.009674	-0.392460	-0.072637	-0.294968	-0.380859	-0.121582	0.639404	105.627426	-85.344467	60.944367
30667		9.416614	0.986320	-0.165600	-0.326497	-0.069849	-0.280495	-0.379883	-0.121826	0.634766	105.388399	-85.179726	61.000903
30668		9.218135	1.207913	-0.364951	-0.288116	-0.044115	-0.248409	-0.380371	-0.124268	0.640381	105.080707	-85.036219	61.148518
30669		9.008509	1.339987	-0.097866	-0.217329	-0.016234	-0.229594	-0.383789	-0.125977	0.642822	104.675790	-84.907492	61.434405
30670		8.763642	1.425002	-0.041113	-0.177148	0.005822	-0.226827	-0.384277	-0.133545	0.638916	104.188513	-84.782928	61.826233
30671		8.500538	1.509996	-0.140190	-0.172594	0.016272	-0.228747	-0.378418	-0.135498	0.639648	103.651994	-84.658812	62.272720
30672		8.448885	1.593643	-0.206084	-0.163477	0.013220	-0.220485	-0.380371	-0.133301	0.635498	103.179211	-84.538161	62.658012
30673		8.372215	1.684475	-0.238462	-0.179045	0.015700	-0.209039	-0.376709	-0.134521	0.635498	102.709375	-84.424165	63.031414
30674		8.257345	1.680236	-0.312811	-0.191304	0.010868	-0.176297	-0.378174	-0.140381	0.630615	102.324270	-84.327384	63.312727
30675		8.292226	1.599932	-0.276829	-0.197211	0.000004	-0.145550	-0.371826	-0.141602	0.629883	102.036535	-84.246532	63.492803
30676		8.416953	1.467689	-0.324516	-0.244458	-0.006557	-0.116483	-0.378662	-0.138428	0.640625	101.805075	-84.180940	63.589155
30677		8.649564	1.309879	-0.608755	-0.300455	-0.005382	-0.093335	-0.378906	-0.147461	0.633057	101.557860	-84.128570	63.669093
30678		8.921195	1.254860	-0.761977	-0.306517	0.013119	-0.053918	-0.385498	-0.143311	0.635986	101.259748	-84.100262	63.796721
30679		9.135760	1.194669	-0.831980	-0.284033	0.022960	-0.002995	-0.379639	-0.140137	0.635498	100.970291	-84.101711	63.928604
30680		9.306523	1.159775	-0.816526	-0.278176	0.021983	0.037377	-0.381592	-0.153320	0.621094	100.738260	-84.125607	64.006125
30681		9.313932	1.222839	-0.927424	-0.296645	0.022168	0.069420	-0.378662	-0.152100	0.628174	100.519766	-84.167621	64.059405
30682		9.321834	1.284117	-1.037598	-0.303647	0.026044	0.092396	-0.375244	-0.148682	0.617676	100.303765	-84.222879	64.106133
30683		9.281492	1.309164	-0.980030	-0.311257	0.021809	0.106665	-0.383301	-0.152100	0.622803	100.112852	-84.285797	64.123277
30684		9.209845	1.374699	-1.007515	-0.352206	0.031656	0.127352	-0.379883	-0.153320	0.623779	99.866973	-84.361302	64.172060
30685		9.179081	1.525399	-1.110209	-0.403054	0.027466	0.145194	-0.381836	-0.151855	0.610840	99.623771	-84.446482	64.188904
30686		9.137684	1.714170	-1.174430	-0.442055	0.015610	0.162049	-0.382324	-0.146484	0.621094	99.446901	-84.540028	64.116626
30687		9.146039	1.784600	-1.070985	-0.475150	0.001001	0.174646	-0.381348	-0.158936	0.616699	99.343851	-84.639326	63.951213
30688		9.101850	1.789989	-1.030283	-0.521753	-0.022437	0.181444	-0.379883	-0.160400	0.609619	99.371728	-84.740314	63.627468
30689		9.124506	1.765630	-0.988216	-0.558675	-0.032139	0.180102	-0.369385	-0.157471	0.616455	99.438843	-84.839538	63.243209
30690		9.175407	1.751740	-0.837795	-0.584630	-0.016463	0.170345	-0.377197	-0.165771	0.607910	99.395002	-84.934781	62.955400
30691		9.208773	1.690374	-0.832529	-0.566447	-0.010266	0.154992	-0.382813	-0.166260	0.603516	99.304022	-85.021827	62.725512
30692		9.193743	1.635244	-0.969977	-0.563441	-0.002867	0.145817	-0.385254	-0.174072	0.608154	99.163952	-85.104530	62.546554
30693		9.171600	1.520343	-0.818898	-0.593158	0.003106	0.139525	-0.381348	-0.171143	0.610352	98.955230	-85.184085	62.419550
30694		9.115170	1.329363	-0.699293	-0.634044	-0.016925	0.127586	-0.373047	-0.175293	0.608643	98.850686	-85.255309	62.164391
30695		9.090583	1.321194	-0.836055	-0.676033	-0.056899	0.107901	-0.379150	-0.176514	0.600586	98.973718	-85.311631	61.656902
30696		9.091560	1.377168	-0.842030	-0.690567	-0.078112	0.087241	-0.377197	-0.179199	0.598877	99.225236	-85.354414	61.012044
30697		9.184321	1.517753	-0.897862	-0.666238	-0.059563	0.072778	-0.378906	-0.186768	0.596436	99.347019	-85.390323	60.511516
30698		9.184460	1.458430	-0.885126	-0.615950	-0.050713	0.053739	-0.382568	-0.180420	0.590332	99.422237	-85.416465	60.086482
30699		9.173569	1.378440	-1.123728	-0.626857	-0.063330	0.028893	-0.375977	-0.202881	0.595947	99.548755	-85.427037	59.603890
30700		9.218284	1.485083	-1.433896	-0.620535	-0.065264	0.015299	-0.381104	-0.200684	0.582764	99.681787	-85.429933	59.118236
30701		9.214952	1.486747	-1.397425	-0.621696	-0.079630	0.010488	-0.381836	-0.201172	0.582764	99.906033	-85.428276	58.540588
30702		9.111061	1.810334	-1.820859	-0.755151	-0.123847	0.007570	-0.370605	-0.213379	0.584717	100.364957	-85.420554	57.650623
30703		9.106452	2.184349	-2.208198	-0.817064	-0.162203	0.020929	-0.371338	-0.218262	0.583008	101.070105	-85.415178	56.478241
30704		9.094392	2.602316	-2.409151	-0.875953	-0.226589	0.029390	-0.374268	-0.213867	0.579834	102.204021	-85.405969	54.841659
30705		9.047482	3.009189	-2.559613	-0.957898	-0.297670	0.033018	-0.369873	-0.230469	0.577148	103.778913	-85.386072	52.715758
30706		9.029691	3.306176	-2.623880	-0.998064	-0.369940	0.037936	-0.369873	-0.230957	0.573242	105.815792	-85.353407	50.102970
30707		9.051088	3.616738	-2.503307	-1.077271	-0.423778	0.050453	-0.360840	-0.235107	0.577393	108.153884	-85.309957	47.142556
30708		9.447347	3.612387	-1.807340	-1.137807	-0.393458	0.089924	-0.362061	-0.244629	0.581543	110.306076	-85.284778	44.333460
30709		10.092225	2.678943	-0.884801	-1.098256	-0.339471	0.113651	-0.370361	-0.242676	0.573975	112.166093	-85.274675	41.840513
30710		10.847491	1.260554	-0.406998	-1.016061	-0.303919	0.093692	-0.364258	-0.256348	0.573975	113.783109	-85.256527	39.638289
30711		11.690382	-0.044247	-0.249060	-1.052333	-0.346860	0.072961	-0.365967	-0.256348	0.572266	115.562762	-85.211131	37.252240
30712		12.650864	-1.103285	-0.085966	-1.194090	-0.345523	0.062726	-0.357910	-0.264404	0.558838	117.183544	-85.155748	34.943608
30713		13.533404	-2.133608	0.761651	-1.160782	-0.254117	0.006305	-0.356689	-0.279297	0.564453	118.057210	-85.091106	33.404045
30714		14.139145	-2.970286	1.124391	-0.903023	-0.148779	-0.139353	-0.359131	-0.274658	0.558838	117.984732	-84.980930	32.961936
30715		14.471942	-3.152703	1.215164	-0.569997	-0.066537	-0.285035	-0.350342	-0.291260	0.554932	117.196404	-84.818405	33.430216
30716		13.959078	-2.346870	1.130457	-0.231088	-0.095159	-0.397158	-0.359375	-0.283203	0.554199	116.490164	-84.591114	34.010994
30717		12.796875	-0.800169	0.541858	0.119032	-0.176944	-0.436900	-0.352295	-0.290771	0.552246	116.353325	-84.321929	34.221627
30718		11.454695	0.943281	0.523415	0.288335	-0.158502	-0.394025	-0.349121	-0.291748	0.553223	116.342683	-84.079687	34.402864
30719		10.199176	2.156740	1.236286	0.206639	-0.013548	-0.294982	-0.352783	-0.297363	0.553711	115.826887	-83.924650	35.045162
30720		8.995101	2.894370	2.123832	0.103487	0.143488	-0.213711	-0.348389	-0.291504	0.550537	114.713021	-83.849391	36.229520
30721		8.082659	3.097067	2.913381	-0.010070	0.163147	-0.158186	-0.343994	-0.295166	0.552490	113.581145	-83.805074	37.366856
30722		7.589986	2.893331	2.751673	-0.182964	0.054466	-0.134213	-0.344238	-0.295410	0.545410	112.943835	-83.747148	37.906983
30723		7.827121	2.440700	1.893022	-0.209856	0.029579	-0.133330	-0.345459	-0.300781	0.539795	112.417683	-83.683304	38.320077
30724		8.691871	1.608115	1.653110	-0.188689	0.058102	-0.102432	-0.349609	-0.303467	0.541992	111.841587	-83.641884	38.795430
30725		9.620112	0.682176	1.600731	-0.140521	0.051423	-0.057597	-0.353027	-0.307129	0.539063	111.409100	-83.622152	39.154350
30726		10.360679	-0.308387	1.516946	-0.080301	-0.003571	-0.013295	-0.353516	-0.306396	0.546631	111.363954	-83.614724	39.157974
30727		10.893072	-1.045257	0.961549	0.003872	-0.019314	0.044097	-0.353516	-0.299561	0.539551	111.542836	-83.634357	38.984962
30728		11.200543	-1.763670	0.466180	0.178439	0.038332	0.113440	-0.350098	-0.301270	0.538086	111.685544	-83.703283	38.948736
30729		10.980069	-2.279107	-0.035902	0.433408	0.095641	0.175748	-0.353271	-0.305908	0.541992	111.811396	-83.817425	39.076641
30730		10.409283	-2.455554	-0.185211	0.755619	0.155045	0.229439	-0.346436	-0.297363	0.539795	111.940411	-83.972926	39.386786
30731		9.668116	-2.161647	-0.073258	0.968658	0.179999	0.259673	-0.352783	-0.290771	0.546143	112.115075	-84.150000	39.773806
30732		9.207828	-1.493980	0.139214	0.986230	0.212770	0.289919	-0.350342	-0.291748	0.536865	112.190053	-84.350225	40.270860
30733		9.080720	-0.622269	0.338758	0.895153	0.245085	0.326060	-0.353027	-0.283936	0.547852	112.090023	-84.576792	40.891223
30734		9.028020	0.059154	0.455023	0.827002	0.252938	0.361865	-0.363281	-0.277344	0.539307	111.963415	-84.823754	41.498728
30735		8.951789	0.330259	0.517759	0.769130	0.217794	0.372875	-0.358887	-0.271973	0.549072	112.002199	-85.069227	41.906748
30736		9.039909	0.395303	0.402392	0.752299	0.198748	0.371347	-0.365967	-0.272461	0.542725	112.139356	-85.309597	42.206146
30737		9.198492	0.384715	0.214300	0.770949	0.143012	0.362192	-0.365723	-0.260254	0.541992	112.623457	-85.533357	42.168186
30738		9.284084	0.442921	0.035429	0.813944	0.100073	0.342679	-0.363525	-0.262207	0.544922	113.415069	-85.736884	41.846461
30739		9.412543	0.358967	-0.141514	0.887528	0.107669	0.326109	-0.367920	-0.248535	0.548096	114.185506	-85.933420	41.588400
30740		9.331750	0.269499	-0.133041	0.948968	0.145604	0.309194	-0.368408	-0.249023	0.544922	114.702720	-86.129603	41.619445
30741		9.171067	0.243489	-0.129377	0.934254	0.181991	0.288579	-0.370117	-0.250977	0.539307	114.854676	-86.324117	42.008158
30742		8.766161	0.373951	0.069106	0.867429	0.194693	0.268018	-0.368164	-0.243408	0.543457	114.776233	-86.510703	42.589202
30743		8.586113	0.530447	0.213009	0.790614	0.211789	0.238310	-0.371826	-0.238037	0.546875	114.327769	-86.686016	43.496791
30744		8.413973	0.605258	0.197209	0.690654	0.195873	0.215451	-0.375244	-0.233643	0.549316	113.814349	-86.844894	44.411847
30745		8.559632	0.554897	0.125296	0.608040	0.184123	0.197756	-0.385254	-0.224609	0.541748	113.205414	-86.991558	45.375103
30746		8.704913	0.391992	0.122224	0.559011	0.183752	0.177255	-0.369141	-0.229736	0.547363	112.416894	-87.126399	46.489845
30747		8.788711	0.108965	0.096145	0.531430	0.181786	0.154552	-0.374268	-0.224854	0.549072	111.426465	-87.248103	47.790879
30748		8.830465	-0.091329	0.065374	0.496765	0.167954	0.127176	-0.382568	-0.227295	0.545410	110.370488	-87.350926	49.137440
30749		8.968136	-0.151676	-0.110681	0.445572	0.144415	0.095134	-0.381348	-0.216064	0.545654	109.321778	-87.430959	50.447347
30750		9.037921	-0.129538	-0.227522	0.396468	0.134390	0.064079	-0.382324	-0.214355	0.546875	108.185471	-87.490917	51.816622
30751		9.059291	0.122473	-0.385230	0.343020	0.108318	0.039072	-0.380859	-0.214355	0.551758	107.175255	-87.531770	53.029050
30752		9.161531	0.427197	-0.515326	0.302480	0.078449	0.014929	-0.381592	-0.213623	0.546143	106.418090	-87.553397	53.964848
30753		9.212578	0.577989	-0.623691	0.278330	0.060369	-0.007310	-0.375488	-0.218018	0.550293	105.768786	-87.559620	54.778893
30754		9.232941	0.669096	-0.745659	0.309533	0.046501	-0.025330	-0.385498	-0.218018	0.539307	105.267978	-87.553222	55.462136
30755		9.207827	0.672995	-0.798249	0.336705	0.034494	-0.047822	-0.381836	-0.217041	0.546387	104.847888	-87.532525	56.080245
30756		9.214386	0.521411	-0.941153	0.345684	0.014900	-0.059009	-0.379395	-0.208496	0.542236	104.670974	-87.502470	56.460041
30757		9.316062	0.448521	-1.135633	0.359401	0.010024	-0.070771	-0.382568	-0.201660	0.537598	104.516408	-87.465276	56.825413
30758		9.452014	0.390123	-1.290040	0.373412	0.010944	-0.074563	-0.374023	-0.215576	0.539307	104.369185	-87.425935	57.191414
30759		9.594816	0.289149	-1.448034	0.397024	0.024088	-0.073437	-0.374512	-0.200684	0.536377	104.072718	-87.389117	57.720428
30760		9.742294	0.145425	-1.486280	0.442648	0.040145	-0.065532	-0.373535	-0.202881	0.544189	103.656723	-87.358645	58.395214
30761		9.748765	-0.060189	-1.436060	0.519230	0.053846	-0.063435	-0.378662	-0.204346	0.544922	103.126788	-87.330998	59.228057
30762		9.688639	-0.342052	-1.309840	0.602121	0.054287	-0.059548	-0.376953	-0.207520	0.537842	102.674965	-87.305162	60.030213
30763		9.553153	-0.559729	-1.232349	0.643275	0.048574	-0.051617	-0.384277	-0.209473	0.537598	102.335800	-87.282892	60.743239
30764		9.428916	-0.702510	-1.178996	0.671872	0.042554	-0.034295	-0.381836	-0.202881	0.541504	102.145191	-87.269341	61.323923
30765		9.294640	-0.815596	-1.174436	0.689766	0.037496	-0.019094	-0.380615	-0.193848	0.540771	102.056361	-87.263761	61.812984
30766		9.217705	-0.802164	-1.031479	0.689598	0.028976	0.005601	-0.379150	-0.192383	0.544434	102.138228	-87.270862	62.131054
30767		9.204364	-0.718494	-0.931520	0.624465	0.008904	0.029630	-0.387451	-0.198242	0.540527	102.472627	-87.289197	62.158914
30768		9.257368	-0.581508	-1.085768	0.576810	-0.008837	0.056983	-0.378906	-0.185547	0.551270	103.074351	-87.320397	61.891847
30769		9.281949	-0.385888	-1.153624	0.578861	0.002362	0.072653	-0.367676	-0.191895	0.548340	103.591234	-87.361915	61.710841
30770		9.397902	-0.202544	-0.988360	0.530607	0.047400	0.082506	-0.376465	-0.187988	0.552002	103.573311	-87.414716	62.037582
30771		9.365808	-0.042113	-0.818536	0.443897	0.076346	0.099023	-0.378662	-0.184814	0.546143	103.175538	-87.480755	62.694732
30772		9.289631	0.164104	-0.893066	0.421306	0.085693	0.106546	-0.387207	-0.191650	0.546631	102.641786	-87.551706	63.475072
30773		9.109133	0.347677	-0.787360	0.408873	0.112621	0.095382	-0.380615	-0.179932	0.547852	101.661776	-87.619450	64.694813
30774		9.028539	0.475317	-0.571169	0.309789	0.121207	0.074759	-0.380859	-0.176025	0.538818	100.393411	-87.675271	66.146362
30775		8.982516	0.532792	-0.598914	0.206535	0.096494	0.059024	-0.385986	-0.173096	0.537842	99.310307	-87.718782	67.353159
30776		8.986753	0.516535	-0.713331	0.135394	0.082390	0.040301	-0.379150	-0.180664	0.550781	98.312083	-87.749337	68.434268
30777		9.004773	0.305143	-0.870097	0.112007	0.054842	0.024643	-0.380859	-0.180664	0.539551	97.640560	-87.768401	69.174919
30778		9.023683	-0.030767	-1.155699	0.151887	0.004496	0.007700	-0.385498	-0.178711	0.546143	97.690761	-87.773629	69.216238
30779		9.117830	-0.521651	-1.669891	0.226490	-0.076508	-0.010695	-0.382324	-0.188477	0.536865	98.921396	-87.761954	68.118919
30780		9.216047	-0.999999	-2.170676	0.337244	-0.162382	-0.027210	-0.378662	-0.179199	0.544922	101.386130	-87.730696	65.850122
30781		9.469727	-1.474438	-2.537984	0.463763	-0.216401	-0.039258	-0.377686	-0.180664	0.548584	104.557030	-87.681664	62.946966
30782		9.851387	-1.709734	-2.622909	0.691267	-0.173216	-0.043727	-0.386475	-0.177490	0.535645	107.133702	-87.630911	60.769004
30783		10.330491	-1.435739	-2.405847	0.786534	-0.122911	-0.040516	-0.369629	-0.177002	0.548584	109.034358	-87.587736	59.322043
30784		10.974955	-0.786934	-1.602257	0.554667	-0.092518	-0.009637	-0.374268	-0.177490	0.544678	110.501928	-87.565036	58.175712
30785		11.582625	-0.008044	-0.923375	0.316795	0.049016	0.027786	-0.368408	-0.168213	0.549316	110.214090	-87.590508	58.649753
30786		11.949968	0.856067	-0.754473	0.296488	0.225880	0.066812	-0.374756	-0.165527	0.545410	107.743011	-87.669250	61.297435
30787		12.233279	1.562546	-0.478815	0.339954	0.282738	0.091306	-0.377441	-0.165039	0.541016	104.418314	-87.765256	64.823973
30788		12.510337	2.193650	0.326554	0.118900	0.122810	0.078739	-0.381836	-0.159424	0.538574	103.003295	-87.826240	66.312682
30789		12.832304	2.445020	0.931991	-0.191893	-0.047514	0.064290	-0.377686	-0.170654	0.543213	103.844590	-87.856531	65.365067
30790		12.830867	2.509337	1.065185	-0.094485	-0.083033	0.053633	-0.375488	-0.170654	0.542480	105.248846	-87.874793	63.910131
30791		12.503451	2.104275	1.580017	0.095447	-0.100814	0.063729	-0.383057	-0.173096	0.546631	107.101824	-87.894435	62.114966
30792		12.109474	1.633185	2.172171	0.077886	-0.128819	0.092760	-0.382568	-0.174805	0.544922	109.539108	-87.922132	59.725179
30793		12.031670	1.496992	2.391152	-0.044656	-0.148166	0.144230	-0.377441	-0.165771	0.540771	112.569918	-87.969343	56.671208
30794		11.709625	1.155494	2.398151	-0.116062	-0.176690	0.194372	-0.380859	-0.172607	0.551514	116.482433	-88.029061	52.694236
30795		11.015385	0.202438	2.493207	-0.019241	-0.235954	0.216860	-0.379883	-0.180176	0.550781	121.738565	-88.072400	47.428448
30796		10.081539	-0.809812	2.392903	0.073595	-0.284943	0.163519	-0.370361	-0.171631	0.549805	127.355992	-88.057263	41.854479
30797		9.203103	-1.340391	1.834893	0.035600	-0.199413	0.071452	-0.368408	-0.173096	0.544922	130.737733	-88.017583	38.495567
30798		8.462483	-0.886862	1.296875	0.109078	-0.055742	-0.025200	-0.370605	-0.172119	0.547607	131.240865	-87.985967	38.059131
30799		8.102044	-0.658656	1.373994	0.357357	0.073119	-0.095366	-0.381104	-0.166992	0.548340	129.555972	-87.972118	39.954326
30800		8.009101	-0.434766	1.133170	0.501203	0.138640	-0.135481	-0.374512	-0.168701	0.550049	126.753738	-87.960408	43.050142
30801		8.109180	-0.031306	0.663437	0.588478	0.152231	-0.158088	-0.373047	-0.165283	0.548584	123.657694	-87.937395	46.489917
30802		8.424541	0.502681	0.673651	0.635793	0.189177	-0.152474	-0.373047	-0.169922	0.551758	120.218648	-87.920908	50.300196
30803		8.887542	1.134904	0.776883	0.577813	0.200227	-0.147331	-0.375488	-0.173340	0.546387	116.691878	-87.902121	54.164949
30804		9.341481	1.907660	0.818903	0.467963	0.199602	-0.147408	-0.380615	-0.167480	0.546143	113.199206	-87.874143	57.932766
30805		9.583023	2.573301	1.033482	0.329531	0.176201	-0.163483	-0.378906	-0.163086	0.545654	109.976886	-87.824924	61.350680
30806		9.691605	3.208908	1.287643	0.147686	0.137931	-0.180094	-0.376953	-0.165771	0.541260	107.284003	-87.752805	64.134716
30807		9.595095	3.520935	1.434110	-0.048686	0.110502	-0.186219	-0.387939	-0.171143	0.548340	104.995536	-87.668549	66.401535
30808		9.539149	3.367139	1.623087	-0.218883	0.065757	-0.183574	-0.374268	-0.168945	0.543701	103.383819	-87.576274	67.893589
30809		9.479600	2.849089	1.495582	-0.366089	0.023572	-0.171710	-0.381348	-0.178711	0.537842	102.360212	-87.483881	68.712711
30810		9.343434	2.214851	1.326958	-0.481863	0.007188	-0.175805	-0.379395	-0.175293	0.540771	101.541788	-87.386672	69.260060
30811		9.189003	1.706594	1.148666	-0.594684	0.006089	-0.197003	-0.383301	-0.188721	0.545410	100.658879	-87.276997	69.807388
30812		9.070594	1.376939	0.930446	-0.691513	-0.006570	-0.224047	-0.370605	-0.181641	0.538574	99.880804	-87.150508	70.194177
30813		9.165052	1.183778	0.586686	-0.782537	-0.024641	-0.252334	-0.380371	-0.188477	0.538574	99.231738	-87.005966	70.399724
30814		9.330031	0.935100	0.036824	-0.813574	-0.058042	-0.279678	-0.382080	-0.197510	0.533203	98.917741	-86.842987	70.251828
30815		9.514751	0.791026	-0.240957	-0.729740	-0.087467	-0.305070	-0.381348	-0.203613	0.539063	98.892498	-86.662898	69.862920
30816		9.611248	0.824309	-0.443381	-0.637178	-0.099138	-0.312388	-0.387695	-0.213379	0.544434	99.009610	-86.477758	69.384340
30817		9.523186	0.898240	-0.488957	-0.511745	-0.085562	-0.298583	-0.383545	-0.223877	0.543213	99.056087	-86.301457	69.048572
30818		9.393590	0.917660	-0.312588	-0.415544	-0.064741	-0.268944	-0.379395	-0.217285	0.530029	99.016355	-86.143954	68.854257
30819		9.170170	1.044686	-0.331211	-0.366437	-0.054196	-0.226113	-0.371582	-0.218262	0.538818	98.957333	-86.011480	68.707568
30820		9.018342	1.164806	-0.237763	-0.337856	-0.038339	-0.192179	-0.376709	-0.220703	0.537109	98.839478	-85.899802	68.636133
30821		8.872838	1.270317	-0.298284	-0.323663	-0.026228	-0.164230	-0.378662	-0.230957	0.531494	98.660605	-85.804834	68.634147
30822		8.902271	1.348582	-0.325391	-0.314465	-0.008945	-0.135833	-0.376953	-0.222168	0.534424	98.402324	-85.727615	68.716943
30823		8.781249	1.312718	-0.472311	-0.270443	0.010419	-0.120110	-0.373291	-0.231445	0.535889	98.037627	-85.660643	68.931899
30824		8.701783	1.336295	-0.421679	-0.247140	0.021931	-0.105771	-0.372559	-0.234863	0.535156	97.634064	-85.602831	69.199102
30825		8.575972	1.423060	-0.441205	-0.259156	0.018718	-0.094161	-0.368164	-0.230713	0.526611	97.257390	-85.550976	69.432605
30826		8.575599	1.478259	-0.538006	-0.249382	0.013444	-0.085513	-0.373779	-0.231689	0.536621	96.948298	-85.503824	69.603797
30827		8.577137	1.429988	-0.552899	-0.244177	0.018999	-0.071335	-0.374512	-0.245117	0.527100	96.610378	-85.464732	69.807078
30828		8.697858	1.230647	-0.548027	-0.231648	0.020363	-0.054477	-0.379150	-0.238037	0.531738	96.296693	-85.435548	69.993089
30829		8.813659	1.142233	-0.503728	-0.217129	0.020872	-0.035328	-0.373291	-0.236816	0.529541	95.996789	-85.416877	70.173810
30830		8.960442	1.058695	-0.474085	-0.210614	0.022693	-0.017819	-0.375244	-0.245850	0.527832	95.710639	-85.408571	70.344298
30831		9.041273	0.993370	-0.536414	-0.226963	0.014947	-0.007631	-0.378174	-0.246338	0.524902	95.469668	-85.405208	70.460255
30832		9.078916	0.926145	-0.776987	-0.239868	0.008733	0.015870	-0.369141	-0.246338	0.531738	95.289454	-85.415256	70.507651
30833		9.113222	0.993117	-0.836566	-0.246267	-0.001273	0.029947	-0.377197	-0.242676	0.522461	95.177776	-85.432420	70.482808
30834		9.091764	1.059732	-0.848935	-0.271910	-0.002968	0.055165	-0.375488	-0.243164	0.523438	95.087435	-85.464276	70.421627
30835		9.063280	1.214773	-0.959962	-0.305201	-0.017004	0.072476	-0.375977	-0.251709	0.519775	95.083259	-85.504904	70.255084
30836		8.974528	1.404672	-1.142875	-0.320321	-0.022112	0.085330	-0.383301	-0.250977	0.523438	95.125468	-85.553002	70.033133
30837		8.904835	1.591449	-1.201776	-0.332818	-0.027519	0.095956	-0.377930	-0.255127	0.519775	95.203639	-85.606439	69.768162
30838		8.867870	1.746969	-1.120444	-0.365428	-0.041746	0.105988	-0.375977	-0.254150	0.522705	95.388643	-85.665226	69.377113
30839		8.864815	1.844312	-1.162069	-0.418022	-0.058088	0.114952	-0.373779	-0.249268	0.520020	95.675959	-85.727628	68.853511
30840		8.907988	1.882121	-1.047501	-0.457834	-0.060017	0.122657	-0.375732	-0.256104	0.523682	95.980537	-85.794574	68.289536
30841		9.066956	1.830541	-0.807586	-0.481839	-0.040826	0.126608	-0.374756	-0.259766	0.513428	96.131127	-85.864240	67.866476
30842		9.175724	1.710118	-0.752321	-0.477248	-0.046537	0.114884	-0.381104	-0.260498	0.528564	96.335942	-85.927301	67.391464
30843		9.277749	1.504332	-0.881848	-0.513836	-0.049497	0.093145	-0.369141	-0.267334	0.517334	96.527238	-85.977102	66.909306
30844		9.330805	1.265949	-0.882707	-0.558496	-0.073824	0.088286	-0.384766	-0.266846	0.513428	96.902008	-86.022912	66.217320
30845		9.321612	1.180702	-0.945807	-0.594004	-0.098382	0.086935	-0.380127	-0.274170	0.516602	97.463812	-86.065198	65.317793
30846		9.251356	1.297952	-1.253333	-0.620456	-0.094077	0.081256	-0.374512	-0.270264	0.509033	97.989928	-86.104597	64.438595
30847		9.185426	1.506773	-1.162725	-0.629073	-0.076932	0.082998	-0.382080	-0.272705	0.507568	98.377417	-86.145280	63.693739
30848		9.103791	1.570050	-0.965954	-0.602919	-0.058583	0.076058	-0.377197	-0.279297	0.514893	98.633178	-86.183922	63.095656
30849		9.012115	1.547383	-0.920739	-0.591055	-0.074175	0.065068	-0.382080	-0.280273	0.510742	99.017046	-86.214084	62.376341
30850		8.992766	1.443139	-1.145853	-0.577472	-0.096531	0.048274	-0.377930	-0.289551	0.511963	99.590898	-86.232940	61.474127
30851		8.882677	1.492640	-1.534705	-0.601231	-0.133478	0.035553	-0.375244	-0.292480	0.503906	100.449805	-86.239491	60.272948
30852		8.904550	1.659924	-1.827318	-0.678802	-0.173105	0.038639	-0.381836	-0.282959	0.508301	101.617485	-86.242729	58.717462
30853		8.955464	2.010725	-2.211750	-0.803607	-0.231302	0.052827	-0.375488	-0.290039	0.500732	103.232683	-86.243515	56.642184
30854		9.221717	2.475740	-2.013415	-0.924455	-0.264919	0.073199	-0.370605	-0.299316	0.507568	105.113047	-86.247483	54.231438
30855		9.749245	2.560390	-1.365841	-1.028603	-0.303025	0.094796	-0.376465	-0.301270	0.510498	107.304187	-86.250820	51.449829
30856		10.659192	2.188303	-0.954949	-1.043152	-0.294897	0.090084	-0.372314	-0.310791	0.500977	109.411934	-86.247028	48.743068
30857		11.651728	1.206200	-0.000622	-0.999201	-0.255377	0.067367	-0.373291	-0.309326	0.493652	111.136775	-86.232085	46.445642
30858		12.497427	0.173988	0.240785	-1.061533	-0.269521	0.023855	-0.375488	-0.319580	0.500244	112.779300	-86.187418	44.194445
30859		13.345603	-0.686560	0.475702	-1.075075	-0.276323	-0.026771	-0.364258	-0.328125	0.486084	114.233691	-86.109770	42.124260
30860		13.938817	-1.601901	1.458053	-0.989240	-0.280732	-0.087518	-0.373535	-0.330811	0.490234	115.488383	-85.997019	40.302921
30861		14.356774	-2.314369	1.767662	-0.886198	-0.271501	-0.180119	-0.367920	-0.343750	0.488281	116.313279	-85.835931	38.971703
30862		14.353364	-2.306149	0.781344	-0.643547	-0.255952	-0.268848	-0.367432	-0.341309	0.494629	116.791376	-85.632948	38.127006
30863		13.660490	-1.162654	-0.067460	-0.218637	-0.250979	-0.315435	-0.371826	-0.346191	0.490479	117.256923	-85.406505	37.539141
30864		12.456627	0.415591	-0.168360	0.173920	-0.207181	-0.306778	-0.364746	-0.346924	0.488037	117.662626	-85.196159	37.236535
30865		11.046181	1.947598	0.559348	0.297242	-0.135306	-0.243534	-0.363281	-0.342529	0.481201	117.879091	-85.036537	37.194943
30866		9.772387	2.971366	1.567408	0.165564	0.013243	-0.174965	-0.361084	-0.354248	0.491455	117.376764	-84.951596	37.798899
30867		8.605598	3.496944	2.381962	-0.036846	0.126260	-0.134666	-0.366699	-0.341064	0.495361	116.238050	-84.915275	38.925656
30868		7.761277	3.338674	2.656795	-0.215741	0.130183	-0.120509	-0.358643	-0.346436	0.490234	115.036140	-84.885674	40.012722
30869		7.498377	2.681486	2.153232	-0.338184	0.070592	-0.123750	-0.365967	-0.350098	0.487061	114.106602	-84.837860	40.756299
30870		7.807817	1.745049	1.614979	-0.363968	0.065276	-0.125157	-0.365234	-0.356201	0.490479	113.213512	-84.787581	41.448148
30871		8.561786	0.783961	1.405433	-0.384910	0.072968	-0.104505	-0.361084	-0.352539	0.487793	112.318856	-84.748365	42.129959
30872		9.345116	-0.065664	1.237996	-0.396519	0.046831	-0.063079	-0.368408	-0.353760	0.481201	111.684205	-84.725314	42.543630
30873		10.195907	-0.682344	0.896950	-0.366971	0.021924	-0.005759	-0.374756	-0.353516	0.480713	111.333540	-84.726715	42.689500
30874		10.808278	-1.062026	0.590073	-0.258578	0.047549	0.049857	-0.367676	-0.367432	0.478027	111.030945	-84.763609	42.849077
30875		10.973933	-1.315893	0.355987	-0.092916	0.089218	0.112396	-0.369141	-0.368408	0.484863	110.703885	-84.841958	43.128867
30876		10.583226	-1.411264	0.327499	0.124458	0.148010	0.159078	-0.367432	-0.364746	0.482666	110.251978	-84.957433	43.658645
30877		9.867779	-1.474936	0.441790	0.313710	0.178292	0.184120	-0.373291	-0.354492	0.479492	109.742545	-85.091576	44.355223
30878		9.277588	-1.317942	0.552076	0.477141	0.163341	0.201042	-0.371826	-0.364990	0.485107	109.440421	-85.231905	44.937267
30879		9.046922	-0.988399	0.438046	0.534432	0.145152	0.216688	-0.373779	-0.356934	0.483887	109.291544	-85.376787	45.398641
30880		9.060993	-0.602332	0.330989	0.550955	0.151388	0.235147	-0.376221	-0.348389	0.482422	109.144911	-85.532990	45.866884
30881		9.181031	-0.355853	0.316693	0.577927	0.158929	0.252876	-0.373291	-0.341309	0.483887	108.968961	-85.699911	46.380182
30882		9.439016	-0.171759	0.347831	0.573362	0.167557	0.280856	-0.377930	-0.345947	0.489746	108.780943	-85.883668	46.902586
30883		9.589012	-0.103025	0.325962	0.557141	0.160209	0.322642	-0.387695	-0.339111	0.487305	108.705928	-86.088502	47.302507
30884		9.581301	-0.080131	0.228143	0.585851	0.127785	0.351039	-0.385254	-0.337158	0.490723	108.987885	-86.302933	47.360811
30885		9.493381	-0.058490	0.122012	0.622352	0.103607	0.358422	-0.386230	-0.327148	0.488525	109.528051	-86.516695	47.181575
30886		9.318126	-0.058007	0.109677	0.638561	0.103224	0.346656	-0.385254	-0.322998	0.480469	110.104076	-86.724028	46.975526
30887		9.209440	0.076997	0.149030	0.620927	0.131686	0.325678	-0.395020	-0.328125	0.487793	110.342832	-86.925550	47.097417
30888		8.961520	0.261450	0.205062	0.605974	0.142731	0.301558	-0.394287	-0.324463	0.487793	110.385445	-87.116410	47.406884
30889		8.758328	0.427819	0.257009	0.611492	0.134303	0.290552	-0.392822	-0.320557	0.493896	110.442999	-87.299623	47.704737
30890		8.560393	0.443872	0.275703	0.584980	0.124125	0.269778	-0.388916	-0.305176	0.489990	110.518176	-87.469727	47.969469
30891		8.502536	0.308646	0.221783	0.549571	0.113099	0.260038	-0.399902	-0.306152	0.500977	110.632584	-87.632336	48.174831
30892		8.529347	0.122807	0.288774	0.518067	0.096663	0.250297	-0.401367	-0.308594	0.492432	110.922720	-87.786483	48.185999
30893		8.641942	-0.212943	0.301415	0.501538	0.086241	0.244329	-0.400879	-0.303467	0.495605	111.318578	-87.935228	48.082134
30894		8.829605	-0.505118	0.206570	0.465752	0.057047	0.235976	-0.392090	-0.304443	0.493408	112.169520	-88.073333	47.502162
30895		8.889537	-0.617959	0.132220	0.439044	0.040059	0.220142	-0.395996	-0.302490	0.490479	113.257677	-88.198944	46.669815
30896		8.993557	-0.538775	0.073529	0.415111	-0.004244	0.190235	-0.402588	-0.294434	0.502930	115.046801	-88.297802	45.122273
30897		9.058060	-0.322917	-0.057924	0.379134	-0.010254	0.142544	-0.398926	-0.291016	0.486328	116.660123	-88.369195	43.730272
30898		9.127217	0.061121	-0.235842	0.345032	-0.018798	0.096253	-0.393555	-0.288574	0.500977	118.124374	-88.413569	42.467677
30899		9.116486	0.399713	-0.361273	0.317556	-0.026972	0.058524	-0.403564	-0.290527	0.500732	119.376290	-88.436015	41.401977
30900		9.197030	0.494018	-0.483294	0.315754	-0.023363	0.028998	-0.396729	-0.289551	0.503906	120.310810	-88.444105	40.652557
30901		9.222285	0.486896	-0.432025	0.318853	-0.004065	0.010721	-0.397949	-0.282959	0.500732	120.673892	-88.448685	40.476776
30902		9.192985	0.324451	-0.441141	0.324156	0.013797	-0.008019	-0.399902	-0.288330	0.500732	120.545870	-88.449088	40.795107
30903		9.232045	0.188453	-0.456807	0.326316	0.010640	-0.022955	-0.402588	-0.283936	0.496826	120.285707	-88.441279	41.247079
30904		9.209111	0.092399	-0.507385	0.321346	-0.005904	-0.036902	-0.403564	-0.281250	0.500000	120.211188	-88.421646	41.510279
30905		9.306971	0.067746	-0.643413	0.303183	-0.005352	-0.051348	-0.397217	-0.282227	0.511230	119.942571	-88.395085	41.957451
30906		9.350015	0.098555	-0.706577	0.279103	-0.001690	-0.052553	-0.401367	-0.281494	0.500977	119.625677	-88.368810	42.438916
30907		9.413403	0.059074	-0.881481	0.255125	0.004114	-0.050201	-0.400391	-0.285156	0.502197	119.201795	-88.345332	43.013875
30908		9.427902	0.032506	-0.988202	0.260208	0.008154	-0.044932	-0.404053	-0.278809	0.506592	118.803025	-88.325428	43.566430
30909		9.416389	-0.152017	-1.133975	0.283253	-0.003031	-0.043680	-0.397949	-0.280762	0.507324	118.604184	-88.303043	43.932378
30910		9.421129	-0.252518	-1.250457	0.293028	-0.007851	-0.043453	-0.402100	-0.275879	0.497803	118.527140	-88.279377	44.181890
30911		9.469776	-0.321784	-1.340954	0.302063	0.007880	-0.038052	-0.404297	-0.277100	0.508545	118.222919	-88.262732	44.664041
30912		9.497438	-0.430571	-1.364843	0.325728	0.044918	-0.030090	-0.400146	-0.277832	0.508301	117.415892	-88.259853	45.662621
30913		9.573283	-0.443910	-1.282612	0.346751	0.080671	-0.014473	-0.405273	-0.273682	0.507080	116.126850	-88.273653	47.155642
30914		9.602708	-0.494448	-1.187732	0.357467	0.102908	-0.001959	-0.402588	-0.275146	0.504395	114.555745	-88.298257	48.936822
30915		9.520532	-0.596888	-1.019184	0.375886	0.100554	0.010660	-0.410156	-0.276611	0.510010	113.066152	-88.327490	50.647126
30916		9.478235	-0.676427	-0.879248	0.370925	0.099839	0.015997	-0.406982	-0.271973	0.503418	111.590828	-88.358109	52.340147
30917		9.392359	-0.684192	-0.805698	0.354713	0.098291	0.011977	-0.411133	-0.266357	0.506836	110.030128	-88.384935	54.109380
30918		9.389884	-0.698181	-0.847004	0.330085	0.110710	0.003659	-0.407471	-0.269287	0.511719	108.122591	-88.408082	56.211329
30919		9.403948	-0.570044	-0.837871	0.307033	0.134633	-0.005121	-0.408447	-0.270996	0.511719	105.597076	-88.428078	58.918352
30920		9.371466	-0.477013	-0.818299	0.273952	0.138832	-0.010030	-0.413086	-0.268066	0.509277	102.898987	-88.442558	61.778935
30921		9.444826	-0.283490	-0.781048	0.238225	0.141188	-0.016244	-0.412842	-0.264648	0.510010	100.047053	-88.449977	64.773003
30922		9.471915	-0.205479	-1.020068	0.230346	0.123512	-0.025691	-0.411377	-0.267334	0.510742	97.531849	-88.446747	67.425622
30923		9.489297	-0.127434	-1.070153	0.247937	0.116266	-0.032723	-0.403564	-0.270752	0.509277	95.167480	-88.435938	69.937507
30924		9.611580	-0.163353	-1.102470	0.254758	0.108524	-0.042715	-0.420654	-0.267578	0.513916	93.008566	-88.416487	72.247722
30925		9.681569	-0.313208	-1.253447	0.263089	0.090816	-0.053496	-0.418457	-0.263184	0.505859	91.257802	-88.388263	74.154483
30926		9.635183	-0.442525	-1.572242	0.324094	0.058603	-0.061081	-0.414551	-0.263672	0.509766	90.261088	-88.354262	75.341833
30927		9.599780	-0.638968	-1.722408	0.415428	0.025813	-0.068131	-0.406982	-0.267334	0.503906	89.992889	-88.315761	75.852769
30928		9.536095	-0.785149	-1.874103	0.488538	-0.029580	-0.062426	-0.416504	-0.261475	0.514648	90.848490	-88.280421	75.281293
30929		9.403680	-0.969659	-2.107679	0.556357	-0.095273	-0.063256	-0.413574	-0.255127	0.508789	92.934464	-88.242936	73.517750
30930		9.435961	-1.116881	-2.045146	0.679406	-0.096699	-0.060480	-0.406494	-0.261719	0.509521	95.043371	-88.205042	71.801754
30931		9.539778	-1.071349	-1.962611	0.808664	-0.067636	-0.040257	-0.419678	-0.255127	0.514160	96.666456	-88.178730	70.645866
30932		10.069847	-0.786671	-1.533768	0.741323	-0.041837	0.001372	-0.412354	-0.256104	0.512695	97.857278	-88.176994	69.883870
30933		10.767926	-0.497772	-0.447150	0.468027	0.043246	0.049116	-0.409668	-0.245117	0.512695	97.482517	-88.208818	70.531526
30934		11.474850	0.103674	0.105999	0.250538	0.250299	0.104928	-0.414795	-0.257568	0.507813	93.160166	-88.282560	75.003982
30935		11.826848	0.653852	0.344197	0.365323	0.344775	0.124928	-0.424805	-0.249268	0.510254	86.646432	-88.354627	81.734322
30936		11.688193	1.137669	-0.159200	0.294490	0.056556	0.087005	-0.418213	-0.241699	0.516357	85.566470	-88.402737	82.987981
30937		11.875776	1.615288	-0.992535	0.012801	-0.209709	0.049324	-0.416992	-0.245117	0.508301	89.899816	-88.436433	78.664741
30938		12.133350	1.756511	0.307593	0.225371	-0.249348	0.044166	-0.420898	-0.252686	0.510498	95.350301	-88.455730	73.345895
30939		12.078031	1.742251	1.482936	0.424317	-0.203984	0.076566	-0.420166	-0.242676	0.516846	100.170391	-88.483994	68.771735
30940		12.094245	1.992587	1.263730	0.261487	-0.228976	0.121918	-0.411621	-0.244385	0.512695	105.836915	-88.523058	63.257619
30941		12.072773	2.374057	2.001542	0.082498	-0.141412	0.195457	-0.412354	-0.252686	0.512207	110.365275	-88.604821	58.779600
30942		11.729695	1.848720	3.052403	0.048479	-0.213629	0.265923	-0.425293	-0.232910	0.522461	117.801535	-88.694551	51.373533
30943		11.133189	0.467159	2.882028	0.068109	-0.430025	0.297965	-0.415527	-0.239258	0.515869	131.052266	-88.696382	38.162950
30944		10.501855	-1.090408	1.900157	0.094647	-0.534211	0.279144	-0.414063	-0.237061	0.526123	144.770225	-88.575746	24.499857
30945		9.777881	-1.967471	1.149548	0.115313	-0.432449	0.209901	-0.411377	-0.242432	0.523926	153.653454	-88.424238	15.684208
30946		9.042551	-1.924280	0.616759	0.339202	-0.234535	0.130237	-0.413086	-0.246582	0.529297	158.216661	-88.331867	11.318068
30947		8.384664	-1.555332	0.945341	0.619037	-0.039586	0.059187	-0.409424	-0.230469	0.534424	159.955399	-88.323028	9.937897
30948		8.069199	-1.019871	1.154249	0.782585	0.072122	0.018736	-0.409180	-0.237061	0.531494	160.292840	-88.365461	10.053357
30949		8.185096	-0.323809	0.820624	0.853313	0.131751	0.007382	-0.409668	-0.237061	0.537354	160.030401	-88.438212	10.809450
30950		8.474442	0.388465	0.839470	0.922653	0.189595	0.008376	-0.408203	-0.224609	0.534912	159.326538	-88.541680	12.046848
30951		8.825383	1.066720	1.168210	0.871222	0.216395	0.004398	-0.405273	-0.207275	0.532227	158.105954	-88.658499	13.771567
30952		9.337883	1.799644	1.240477	0.677655	0.216983	-0.008604	-0.427979	-0.212646	0.535156	156.170786	-88.771117	16.100053
30953		9.807993	2.613680	1.317828	0.451018	0.194221	-0.038875	-0.417969	-0.219482	0.534424	153.172836	-88.862632	19.361587
30954		9.952170	3.308982	1.492449	0.253567	0.150888	-0.082988	-0.425537	-0.218506	0.536133	149.053273	-88.915414	23.631699
30955		9.986060	3.730772	1.585539	0.053775	0.111521	-0.118937	-0.419434	-0.215820	0.529053	144.197357	-88.931757	28.523822
30956		9.888934	3.673555	1.590677	-0.149270	0.038245	-0.135367	-0.416748	-0.215820	0.531738	140.196763	-88.901630	32.444055
30957		9.822755	3.013527	1.489567	-0.293701	-0.033825	-0.142473	-0.421875	-0.226318	0.535156	137.563309	-88.833755	34.914318
30958		9.675154	2.045153	0.938753	-0.373599	-0.085273	-0.159172	-0.429199	-0.220703	0.533936	135.832696	-88.735816	36.435681
30959		9.528833	1.180253	0.601060	-0.407607	-0.081186	-0.200699	-0.422852	-0.224854	0.524414	133.522908	-88.621709	38.517129
30960		9.527293	0.752505	0.496393	-0.504774	-0.052072	-0.256950	-0.419434	-0.228027	0.524902	130.240910	-88.492361	41.515326
30961		9.529874	0.737552	0.254051	-0.529704	-0.059362	-0.299127	-0.410889	-0.233887	0.524414	127.024259	-88.337554	44.434254
30962		9.473177	0.817657	-0.048433	-0.511746	-0.062145	-0.333236	-0.423828	-0.237549	0.525391	124.069032	-88.161743	47.101977
30963		9.506186	0.990966	-0.257200	-0.494691	-0.038574	-0.354308	-0.416260	-0.246582	0.530762	121.087756	-87.979049	49.806011
30964		9.441327	1.092296	-0.123580	-0.452916	-0.035357	-0.361069	-0.413330	-0.245605	0.529541	118.538193	-87.789782	52.102098
30965		9.377583	1.158476	-0.197269	-0.435267	-0.049301	-0.359227	-0.417969	-0.254150	0.516113	116.543614	-87.594464	53.853378
30966		9.319758	1.239547	-0.252562	-0.426439	-0.027289	-0.341223	-0.418701	-0.256592	0.532227	114.699575	-87.411781	55.459072
30967		9.150802	1.330953	-0.210701	-0.409478	-0.007751	-0.315903	-0.412598	-0.261719	0.527344	112.979807	-87.244624	56.950529
30968		8.920650	1.263265	-0.346134	-0.376565	-0.014976	-0.290120	-0.408203	-0.267090	0.525391	111.662915	-87.087992	58.057482
30969		8.831617	1.233021	-0.297382	-0.416646	-0.009347	-0.273649	-0.414307	-0.265869	0.524658	110.436511	-86.939891	59.051210
30970		8.797098	1.237963	-0.363618	-0.441670	0.018816	-0.262267	-0.409668	-0.271729	0.522461	109.081226	-86.802534	60.159552
30971		8.690249	1.229704	-0.624277	-0.442867	0.039431	-0.252048	-0.414795	-0.274902	0.523926	107.649671	-86.672693	61.343987
30972		8.552077	1.287499	-0.764580	-0.411535	0.041237	-0.234761	-0.416504	-0.284424	0.529297	106.379138	-86.551428	62.385011
30973		8.584703	1.387072	-0.733608	-0.405291	0.046020	-0.205051	-0.417725	-0.281006	0.520264	105.207002	-86.445601	63.331415
30974		8.559977	1.531367	-0.722020	-0.448417	0.051489	-0.175493	-0.420654	-0.284424	0.519043	104.102890	-86.356248	64.184750
30975		8.532218	1.659382	-0.761679	-0.493276	0.036155	-0.148012	-0.412109	-0.284180	0.520752	103.194438	-86.278719	64.816611
30976		8.668410	1.640573	-0.636298	-0.524268	0.024187	-0.129273	-0.421143	-0.292725	0.512695	102.448332	-86.210050	65.267767
30977		8.752969	1.472784	-0.764341	-0.578047	0.021478	-0.098404	-0.412598	-0.298828	0.520020	101.757819	-86.157439	65.632643
30978		8.891270	1.311780	-0.818622	-0.619349	0.043478	-0.069187	-0.421631	-0.306152	0.508057	100.935470	-86.123961	66.105669
30979		8.995798	1.082759	-0.810294	-0.622981	0.052495	-0.033554	-0.426758	-0.302490	0.501953	100.089832	-86.110440	66.600265
30980		9.055826	0.965187	-0.975192	-0.647939	0.041959	-0.005917	-0.421143	-0.317871	0.508789	99.371533	-86.111660	66.952598
30981		9.078534	0.950949	-1.051336	-0.681817	0.039723	0.018382	-0.410400	-0.312012	0.506104	98.673062	-86.125503	67.265907
30982		9.060917	1.035850	-1.001734	-0.709773	0.044083	0.044183	-0.417480	-0.317383	0.510010	97.960034	-86.154712	67.577436
30983		9.068626	1.110793	-0.983911	-0.744112	0.038936	0.064797	-0.417725	-0.322998	0.507568	97.276223	-86.194320	67.840266
30984		9.084382	1.135169	-1.056155	-0.800648	0.022878	0.076245	-0.419678	-0.320801	0.497559	96.710876	-86.239791	67.951582
30985		9.100249	1.160281	-1.128254	-0.830456	0.022797	0.085378	-0.418213	-0.326416	0.502197	96.119991	-86.289691	68.071693
30986		9.069109	1.203314	-1.167606	-0.837586	0.013590	0.093040	-0.427490	-0.329834	0.488037	95.614116	-86.344038	68.102194
30987		9.067617	1.194609	-1.210573	-0.853991	-0.002125	0.103723	-0.415771	-0.333740	0.488281	95.233091	-86.402890	67.998506
30988		9.068785	1.195223	-1.201178	-0.866341	-0.017382	0.111445	-0.421387	-0.340820	0.493652	94.997032	-86.466128	67.742157
30989		9.104976	1.160697	-1.089004	-0.856312	-0.016582	0.116422	-0.424561	-0.338623	0.486328	94.754841	-86.531565	67.498068
30990		9.152812	1.150063	-0.937195	-0.839383	-0.001361	0.112207	-0.422607	-0.344482	0.480957	94.382018	-86.596118	67.394238
30991		9.191015	1.165226	-1.008677	-0.824049	0.016678	0.106766	-0.429932	-0.355713	0.490967	93.823916	-86.657577	67.485165
30992		9.228826	1.186315	-0.902751	-0.813179	0.026199	0.092639	-0.421387	-0.364258	0.480957	93.165095	-86.712007	67.682865
30993		9.104711	1.098004	-0.741450	-0.813240	0.011949	0.073429	-0.429688	-0.356445	0.471436	92.618528	-86.754105	67.768442
30994		9.091115	1.180620	-0.806968	-0.847133	-0.003178	0.041946	-0.426514	-0.363281	0.482422	92.193076	-86.778582	67.712900
30995		9.046614	1.259501	-0.946114	-0.898721	-0.009164	0.025677	-0.422852	-0.374512	0.472900	91.783062	-86.792816	67.612658
30996		9.046059	1.433747	-1.062872	-0.902085	-0.021713	0.011865	-0.431885	-0.371338	0.466064	91.501636	-86.799800	67.381331
30997		9.046403	1.556674	-1.117499	-0.865887	-0.021156	-0.001402	-0.431152	-0.381348	0.459961	91.224834	-86.798392	67.166523
30998		8.916995	1.525489	-1.161769	-0.835003	-0.020295	-0.010228	-0.431885	-0.383545	0.468750	90.961762	-86.792859	66.955308
30999		8.842653	1.385478	-1.191869	-0.823639	-0.050501	-0.021070	-0.422852	-0.383301	0.464844	91.005078	-86.779935	66.444134
31000		8.803430	1.330198	-1.454301	-0.850940	-0.099332	-0.021771	-0.434326	-0.386719	0.462646	91.531605	-86.766750	65.432915
31001		8.817399	1.463825	-1.976641	-0.940664	-0.169725	-0.025608	-0.424805	-0.401611	0.453125	92.702724	-86.748106	63.724964
31002		8.940505	1.831292	-2.365765	-0.955294	-0.237108	-0.016373	-0.434082	-0.401123	0.455322	94.535056	-86.730699	61.345903
31003		8.983304	2.086073	-2.558758	-0.991241	-0.300834	-0.006337	-0.419189	-0.403809	0.450684	96.958779	-86.709381	58.354210
31004		8.951426	2.559088	-3.004653	-1.101851	-0.368587	0.013524	-0.426025	-0.412109	0.446533	99.978923	-86.686437	54.701155
31005		9.191389	3.180290	-3.113116	-1.138827	-0.397277	0.037914	-0.432129	-0.413330	0.453369	103.244634	-86.661351	50.781226
31006		9.932897	3.162076	-1.301486	-1.084767	-0.309512	0.094154	-0.433838	-0.425049	0.445557	105.813628	-86.669551	47.589770
31007		10.962612	1.915186	0.185329	-0.943078	-0.292222	0.122186	-0.419189	-0.427979	0.451660	108.390713	-86.686561	44.472013
31008		11.820036	0.347605	0.521636	-0.885317	-0.304924	0.082543	-0.427002	-0.424072	0.442383	111.005960	-86.672619	41.348740
31009		12.736808	-1.177266	0.039604	-1.073947	-0.329765	0.023516	-0.427490	-0.427734	0.441406	113.462711	-86.612905	38.276301
31010		13.757049	-2.355477	0.641583	-1.171581	-0.268971	-0.037753	-0.427979	-0.435303	0.437500	115.001672	-86.530302	36.066584
31011		14.539501	-3.742075	1.410694	-0.872948	-0.200556	-0.175591	-0.423828	-0.439209	0.429199	115.491049	-86.389758	35.080025
31012		14.819231	-4.401190	0.597819	-0.500669	-0.158991	-0.352879	-0.426270	-0.447998	0.431152	115.152661	-86.168417	35.136133
31013		14.593669	-3.274352	-0.277500	-0.181706	-0.089673	-0.463325	-0.424561	-0.447998	0.436035	114.128919	-85.905405	36.062758
31014		13.622179	-1.065773	0.139267	0.246813	-0.009654	-0.459244	-0.419189	-0.455811	0.440186	112.925230	-85.662320	37.415985
31015		12.101679	1.035654	1.299156	0.610653	-0.038425	-0.436342	-0.426758	-0.450684	0.438477	112.307212	-85.422912	38.391556
31016		11.022494	2.746854	1.829475	0.482005	-0.052901	-0.417985	-0.418701	-0.454590	0.445557	111.839487	-85.189989	39.142431
31017		10.388055	3.963386	2.399688	0.133509	0.131884	-0.374645	-0.420898	-0.455078	0.436035	110.197607	-85.016530	40.871864
31018		9.427027	4.654970	4.175801	-0.330216	0.192140	-0.317877	-0.415771	-0.463135	0.432129	108.164495	-84.881092	42.727443
31019		8.469743	5.183759	3.060294	-0.552193	0.006373	-0.281371	-0.417969	-0.461914	0.437744	107.271767	-84.728363	43.311005
31020		8.105469	4.428203	1.970397	-0.418592	0.008127	-0.272777	-0.424805	-0.471680	0.435791	106.508081	-84.580613	43.841627
31021		8.553996	3.018761	1.589697	-0.384465	0.064302	-0.244192	-0.410645	-0.470703	0.427490	105.516495	-84.455871	44.621391
31022		9.214701	1.543243	1.390716	-0.379720	0.143144	-0.205910	-0.409180	-0.470947	0.434082	104.188735	-84.363315	45.741377
31023		9.844418	0.373059	1.588835	-0.349017	0.088297	-0.170400	-0.417969	-0.480469	0.426270	103.260754	-84.280000	46.477922
31024		10.391381	-0.497739	1.273438	-0.320801	0.024117	-0.145230	-0.419678	-0.463867	0.422119	102.766072	-84.202512	46.794863
31025		10.819741	-1.253456	0.855739	-0.296240	-0.013194	-0.106932	-0.421143	-0.485840	0.423340	102.535986	-84.140668	46.860460
31026		10.755740	-1.733142	0.223373	-0.123899	0.055739	-0.048322	-0.425537	-0.486328	0.424072	102.112283	-84.120915	47.219522
31027		10.161787	-2.122436	-0.018937	0.162401	0.111624	0.014644	-0.411621	-0.486572	0.427490	101.612076	-84.141986	47.820793
31028		9.472643	-2.090604	-0.093989	0.429100	0.150451	0.067821	-0.417480	-0.484131	0.428467	101.113467	-84.197553	48.573617
31029		9.080868	-1.746722	0.116496	0.576787	0.175199	0.107981	-0.425293	-0.475098	0.431641	100.581611	-84.277051	49.445167
31030		8.927782	-1.195688	0.230630	0.633905	0.200887	0.157366	-0.418213	-0.478516	0.425293	99.974055	-84.386800	50.425180
31031		8.866559	-0.674053	0.299320	0.647731	0.238519	0.204276	-0.427002	-0.468994	0.435547	99.156419	-84.524862	51.624327
31032		8.670621	-0.273276	0.312906	0.605533	0.239580	0.222814	-0.427979	-0.468262	0.430176	98.281296	-84.672369	52.856329
31033		8.572623	0.001941	0.210843	0.581038	0.246759	0.236185	-0.426514	-0.470947	0.435547	97.288430	-84.825577	54.192475
31034		8.587912	0.083331	0.211052	0.599548	0.221393	0.238067	-0.433105	-0.461182	0.435059	96.411096	-84.976657	55.422658
31035		8.809842	0.144721	0.214809	0.606575	0.175098	0.240184	-0.436035	-0.458008	0.436035	95.774064	-85.124132	56.415691
31036		9.112874	0.178324	0.011657	0.611356	0.128416	0.251092	-0.435059	-0.459961	0.436035	95.428032	-85.275015	57.118935
31037		9.276111	0.175868	-0.086556	0.647558	0.122557	0.263272	-0.439697	-0.455566	0.437988	95.107517	-85.431668	57.817521
31038		9.156437	0.191340	-0.144323	0.683730	0.138939	0.273719	-0.441406	-0.448242	0.443604	94.667325	-85.595239	58.656497
31039		8.947984	0.276961	0.011993	0.702348	0.157768	0.269687	-0.441406	-0.445068	0.445557	94.030841	-85.756181	59.703120
31040		8.630826	0.367600	0.142263	0.704009	0.193175	0.254559	-0.446045	-0.442383	0.446045	93.050432	-85.909133	61.095041
31041		8.440885	0.382753	0.332128	0.690957	0.221602	0.229686	-0.449951	-0.441162	0.443848	91.717888	-86.045914	62.832496
31042		8.400930	0.270147	0.461532	0.651590	0.212842	0.202751	-0.451660	-0.433594	0.451172	90.339521	-86.164812	64.592725
31043		8.534816	0.143902	0.440054	0.606879	0.193646	0.181773	-0.454590	-0.429443	0.452637	88.997567	-86.268307	66.290841
31044		8.745204	-0.044538	0.372613	0.588966	0.157775	0.164205	-0.455322	-0.432861	0.452637	87.901191	-86.360475	67.732114
31045		8.905817	-0.216392	0.197389	0.608553	0.123575	0.148185	-0.458496	-0.428467	0.453857	87.062606	-86.442168	68.926470
31046		9.061651	-0.229429	0.025484	0.611269	0.087573	0.130577	-0.457275	-0.419434	0.460693	86.539460	-86.514635	69.805972
31047		9.124183	-0.095556	-0.227958	0.630635	0.072272	0.110445	-0.457520	-0.419922	0.460693	86.146044	-86.575145	70.566826
31048		9.149993	0.123763	-0.378600	0.625930	0.046981	0.090735	-0.463623	-0.418457	0.470459	86.001210	-86.625737	71.075651
31049		9.119502	0.445098	-0.372963	0.580341	0.038163	0.062800	-0.465820	-0.406494	0.464355	85.915404	-86.660104	71.499411
31050		9.032281	0.707597	-0.409211	0.574952	0.020687	0.045009	-0.463623	-0.412842	0.473633	86.018868	-86.685565	71.730225
31051		9.019464	0.731769	-0.424780	0.574220	0.001913	0.018237	-0.464600	-0.413574	0.464600	86.314020	-86.695928	71.768855
31052		8.952611	0.703580	-0.511174	0.557308	0.004691	-0.000937	-0.457764	-0.416748	0.466064	86.596170	-86.695794	71.810554
31053		8.870371	0.643741	-0.516624	0.530306	0.006053	-0.022160	-0.467529	-0.409668	0.468750	86.850405	-86.682923	71.864968
31054		8.826827	0.554480	-0.631510	0.503197	-0.028617	-0.036749	-0.466309	-0.406738	0.479004	87.447256	-86.663273	71.560378
31055		8.969183	0.401608	-0.936689	0.519031	-0.035739	-0.040913	-0.458252	-0.400635	0.475342	88.108327	-86.640647	71.200790
31056		9.114625	0.196754	-1.037530	0.538719	-0.022799	-0.050001	-0.463623	-0.407959	0.480225	88.661182	-86.612937	70.960646
31057		9.133922	0.067479	-1.115729	0.524590	-0.022775	-0.064001	-0.465576	-0.401367	0.481689	89.191949	-86.576537	70.734751
31058		9.138513	0.020789	-1.178643	0.509575	-0.013027	-0.072881	-0.460693	-0.399170	0.486084	89.624129	-86.535412	70.598756
31059		9.119522	0.038349	-1.213277	0.488112	0.002428	-0.079550	-0.459229	-0.396973	0.480957	89.884673	-86.489873	70.622612
31060		9.095235	0.104623	-1.098352	0.477545	0.014105	-0.079404	-0.462646	-0.397461	0.483154	90.036884	-86.444923	70.748719
31061		9.157031	0.121717	-1.124412	0.475522	0.016103	-0.074587	-0.463379	-0.399902	0.485840	90.162078	-86.402270	70.900951
31062		9.217913	0.141318	-0.972780	0.476927	0.053346	-0.064579	-0.455078	-0.392090	0.493408	89.959948	-86.365852	71.381761
31063		9.318083	0.077956	-0.687428	0.448705	0.078609	-0.048441	-0.471924	-0.398682	0.488525	89.515054	-86.337976	72.089843
31064		9.426910	0.080551	-0.652655	0.423250	0.076238	-0.032727	-0.464600	-0.388672	0.502686	89.089135	-86.319248	72.764114
31065		9.506394	-0.041603	-0.709206	0.424371	0.070979	-0.015180	-0.471680	-0.393066	0.499512	88.706613	-86.309877	73.395742
31066		9.656974	-0.181360	-0.654784	0.435248	0.079841	0.008388	-0.461182	-0.389404	0.494385	88.253143	-86.314026	74.104523
31067		9.753590	-0.206728	-0.570706	0.430060	0.063686	0.036934	-0.461182	-0.383301	0.498779	87.924436	-86.334099	74.685468
31068		9.716268	-0.183181	-0.633345	0.452307	0.059022	0.045094	-0.472412	-0.390381	0.497559	87.647229	-86.359171	75.227395
31069		9.573190	-0.045261	-0.745786	0.480852	0.023774	0.048542	-0.469727	-0.383057	0.505859	87.694198	-86.386585	75.461022
31070		9.426099	-0.040115	-0.984920	0.518457	-0.016685	0.039537	-0.463867	-0.390869	0.504150	88.138537	-86.410131	75.317920
31071		9.255834	-0.198804	-1.232006	0.604889	-0.060104	0.019572	-0.470703	-0.381836	0.507813	89.035131	-86.422400	74.771440
31072		9.148298	-0.508471	-1.456366	0.736271	-0.099680	-0.010770	-0.471680	-0.377197	0.507080	90.379175	-86.417073	73.851918
31073		9.264927	-0.940459	-1.321383	0.931699	-0.139682	-0.038572	-0.465332	-0.366699	0.512939	92.184752	-86.393434	72.582255
31074		9.759966	-1.215813	-0.782912	1.041562	-0.159623	-0.064776	-0.470215	-0.369141	0.520264	94.198752	-86.351817	71.166655
31075		10.514967	-1.012627	-0.478523	0.870309	-0.218865	-0.078958	-0.468262	-0.358643	0.513916	96.581485	-86.295302	69.283251
31076		11.382286	-0.256851	-0.534772	0.700050	-0.230437	-0.089955	-0.473633	-0.365723	0.525391	98.888394	-86.226959	67.377851
31077		12.010849	0.621142	-0.687905	0.590843	-0.226268	-0.116255	-0.468506	-0.353027	0.528076	100.976760	-86.139330	65.628663
31078		12.567884	1.592141	-0.298380	0.622600	-0.218212	-0.149433	-0.471924	-0.364014	0.530762	102.872543	-86.030197	64.090479
31079		12.855914	2.688080	0.549095	0.657084	-0.193248	-0.148865	-0.464355	-0.355957	0.530762	104.499612	-85.921442	62.841344
31080		12.930703	3.694618	1.018635	0.637359	-0.124078	-0.108347	-0.473389	-0.356201	0.531738	105.604714	-85.843489	62.103984
31081		12.732171	4.494239	0.859019	0.652915	-0.136523	-0.029087	-0.464111	-0.353516	0.539795	106.950687	-85.805782	61.134100
31082		12.561327	4.437276	1.432450	0.693701	-0.207375	0.041631	-0.469727	-0.350342	0.541016	108.997472	-85.792241	59.484810
31083		12.440311	3.361305	2.439991	0.530083	-0.272062	0.094422	-0.459961	-0.350342	0.547852	111.548728	-85.789042	57.235834
31084		11.721630	1.845527	2.999846	0.231193	-0.434471	0.173142	-0.466309	-0.343262	0.547119	115.327377	-85.781435	53.584245
31085		11.235666	0.456722	1.986086	0.007770	-0.586983	0.214294	-0.468506	-0.354248	0.548096	120.120483	-85.733661	48.787115
31086		10.724832	-0.562639	0.863674	-0.052841	-0.508746	0.196974	-0.468506	-0.342529	0.554443	124.187327	-85.674358	44.682939
31087		9.880633	-1.214948	0.429770	0.120201	-0.272997	0.154267	-0.468750	-0.340820	0.547852	126.617284	-85.655908	42.319727
31088		8.963730	-1.608503	0.599472	0.405513	-0.079829	0.108119	-0.465576	-0.350098	0.559082	127.836679	-85.677832	41.334322
31089		8.339918	-1.540098	0.801220	0.595691	0.103410	0.070430	-0.460693	-0.338623	0.562500	127.888364	-85.746275	41.629368
31090		8.128600	-0.960981	0.733534	0.746388	0.214792	0.047678	-0.464844	-0.332764	0.561035	127.227673	-85.843217	42.725123
31091		8.400402	-0.394476	0.606764	0.894127	0.288224	0.015812	-0.467529	-0.330078	0.560791	125.971312	-85.949266	44.502909
31092		8.847104	0.220653	0.643196	0.953762	0.335682	-0.013477	-0.472168	-0.322754	0.562012	124.215023	-86.053831	46.815756
31093		9.212262	0.952637	0.668347	0.930957	0.382535	-0.028106	-0.474854	-0.326904	0.561035	121.923310	-86.160298	49.651971
31094		9.425201	1.793200	0.846378	0.831722	0.395125	-0.032238	-0.478760	-0.317139	0.560059	119.328832	-86.260101	52.734192
31095		9.622544	2.698946	1.201552	0.641126	0.359847	-0.038461	-0.471191	-0.312500	0.567383	116.724154	-86.337860	55.717003
31096		9.759574	3.652918	1.525649	0.355738	0.303154	-0.048669	-0.482178	-0.318115	0.559082	114.284763	-86.387871	58.370023
31097		9.733441	4.395065	1.653335	0.024620	0.220908	-0.071190	-0.485596	-0.312744	0.563477	112.197556	-86.400545	60.480132
31098		9.738869	4.699952	1.873452	-0.256041	0.131750	-0.087691	-0.482666	-0.320557	0.558105	110.657415	-86.381761	61.880814
31099		9.607045	4.419062	1.829024	-0.484343	0.037391	-0.121967	-0.493896	-0.324951	0.559570	109.683793	-86.323604	62.583034
31100		9.317447	3.854032	1.482402	-0.642890	-0.043692	-0.179593	-0.485840	-0.326904	0.556396	109.163957	-86.218662	62.739317
31101		9.190088	2.972040	1.268161	-0.766978	-0.111069	-0.237663	-0.479492	-0.330566	0.558105	108.952968	-86.069106	62.515090
31102		9.276203	2.272393	0.776738	-0.881269	-0.151841	-0.289274	-0.488037	-0.336426	0.555420	108.865319	-85.884545	62.101254
31103		9.454384	1.716637	0.226865	-0.905822	-0.163127	-0.326250	-0.469482	-0.340576	0.557129	108.724677	-85.677351	61.726644
31104		9.513548	1.254686	-0.029747	-0.940813	-0.141425	-0.354114	-0.482178	-0.358154	0.549561	108.354654	-85.459657	61.561591
31105		9.448854	1.235464	-0.695271	-0.875101	-0.148706	-0.369641	-0.483887	-0.361328	0.551758	108.031089	-85.231719	61.387950
31106		9.350649	1.114092	-0.796680	-0.651827	-0.142409	-0.367447	-0.481445	-0.368652	0.546143	107.817554	-85.006732	61.231915
31107		9.235839	1.041419	-0.674704	-0.504314	-0.111803	-0.350046	-0.470703	-0.364014	0.545654	107.527002	-84.796039	61.238301
31108		9.128724	1.153826	-0.614237	-0.407248	-0.085358	-0.327593	-0.476563	-0.377686	0.547363	107.202092	-84.602742	61.334752
31109		8.916038	1.267893	-0.524408	-0.321230	-0.069133	-0.297900	-0.469971	-0.372803	0.548340	106.888776	-84.427781	61.469388
31110		8.833505	1.433701	-0.421856	-0.286689	-0.058799	-0.269756	-0.478027	-0.382568	0.546875	106.609168	-84.270516	61.589786
31111		8.733629	1.690450	-0.226945	-0.321590	-0.032508	-0.240123	-0.472656	-0.375488	0.550049	106.215873	-84.133092	61.804679
31112		8.704410	1.906255	-0.181084	-0.403473	-0.032362	-0.214255	-0.472900	-0.390137	0.550781	105.838431	-84.010436	61.956224
31113		8.703361	2.104489	-0.321811	-0.449555	-0.031460	-0.194705	-0.479736	-0.393555	0.551270	105.458615	-83.897926	62.083939
31114		8.662956	2.218247	-0.380561	-0.502235	-0.029505	-0.180158	-0.475342	-0.394287	0.550781	105.078299	-83.794352	62.181523
31115		8.568129	2.262282	-0.463430	-0.513709	-0.043847	-0.162311	-0.478027	-0.395996	0.538818	104.784920	-83.697744	62.185372
31116		8.494453	2.147103	-0.746302	-0.524347	-0.038757	-0.140255	-0.466553	-0.398926	0.544434	104.503142	-83.614843	62.171099
31117		8.433058	1.881447	-0.884497	-0.495136	-0.034842	-0.107041	-0.472656	-0.401611	0.540771	104.254238	-83.550146	62.140919
31118		8.463932	1.585415	-0.935139	-0.462911	-0.031471	-0.067696	-0.478027	-0.407471	0.548096	104.067527	-83.508591	62.066392
31119		8.570817	1.290062	-0.792326	-0.431578	-0.020137	-0.027146	-0.465332	-0.406494	0.533936	103.884062	-83.490346	62.007007
31120		8.806332	1.092864	-0.860193	-0.401244	-0.012872	0.005303	-0.464355	-0.411133	0.545898	103.731282	-83.492004	61.933884
31121		8.972417	0.918123	-0.896372	-0.341672	0.009653	0.032327	-0.468750	-0.408447	0.536133	103.525365	-83.510934	61.948944
31122		9.084725	0.746624	-0.796985	-0.317142	0.012268	0.055838	-0.485107	-0.407715	0.530518	103.356920	-83.544154	61.940089
31123		9.107456	0.788115	-0.926145	-0.322658	0.024048	0.080521	-0.476563	-0.417725	0.530762	103.145821	-83.591854	61.971322
31124		9.126776	0.883150	-1.030480	-0.304241	0.053599	0.107839	-0.478760	-0.414307	0.545410	102.835973	-83.659436	62.112189
31125		9.054847	0.954703	-0.966145	-0.257668	0.084516	0.137706	-0.478027	-0.410889	0.541748	102.415564	-83.746650	62.391456
31126		8.943940	1.056543	-0.881433	-0.226710	0.103502	0.155269	-0.492188	-0.422119	0.533203	101.932983	-83.846597	62.750710
31127		8.939098	1.153863	-0.822804	-0.225548	0.120781	0.173690	-0.486816	-0.416260	0.530518	101.356675	-83.957662	63.205170
31128		8.966923	1.254545	-0.899725	-0.226688	0.112500	0.200253	-0.480225	-0.416748	0.531494	100.841874	-84.083148	63.596683
31129		9.169535	1.212236	-0.769789	-0.166232	0.143737	0.217482	-0.490723	-0.416992	0.528076	100.177441	-84.220295	64.173693
31130		9.460367	1.142744	-0.336164	-0.096602	0.200937	0.221594	-0.485840	-0.422852	0.521484	99.208579	-84.365330	65.096244
31131		9.630775	1.069854	-0.448242	-0.033100	0.216941	0.218389	-0.487793	-0.408203	0.525391	98.121186	-84.507345	66.174578
31132		9.689591	1.045382	-0.561761	0.005848	0.236128	0.210329	-0.497070	-0.411865	0.524414	96.885671	-84.645006	67.423500
31133		9.521612	0.888085	-0.395050	-0.012165	0.217404	0.204001	-0.497803	-0.408203	0.527832	95.679340	-84.774386	68.632846
31134		9.367724	0.991323	-0.479126	-0.094388	0.186703	0.190227	-0.500732	-0.407959	0.525391	94.562486	-84.893018	69.704437
31135		9.266417	1.383552	-0.718257	-0.150553	0.195651	0.169516	-0.497070	-0.416504	0.523438	93.286875	-84.997137	70.903291
31136		9.132384	1.719555	-0.721581	-0.126294	0.201005	0.149359	-0.506592	-0.412842	0.520508	91.941032	-85.088419	72.186036
31137		8.993015	1.873153	-0.626182	-0.068616	0.179196	0.123545	-0.505371	-0.415527	0.523438	90.717837	-85.161068	73.379091
31138		8.941774	1.968876	-0.760223	-0.093832	0.134365	0.093266	-0.501221	-0.407959	0.518311	89.759973	-85.215375	74.290871
31139		8.892299	1.998135	-1.062000	-0.171796	0.100479	0.069164	-0.509277	-0.421387	0.525635	88.966479	-85.253800	74.993240
31140		8.858573	2.012488	-1.296475	-0.274940	0.052273	0.064294	-0.504883	-0.414551	0.523682	88.444512	-85.290506	75.363402
31141		8.867953	2.073410	-1.453903	-0.387671	-0.005160	0.069616	-0.507568	-0.422119	0.519775	88.245819	-85.329846	75.344816
31142		8.801537	2.207987	-1.611996	-0.500006	-0.075439	0.077196	-0.504883	-0.426270	0.509521	88.483014	-85.375848	74.823891
31143		8.763995	2.399765	-1.936641	-0.616277	-0.134405	0.081397	-0.507080	-0.420166	0.518555	89.076476	-85.423448	73.879206
31144		8.742759	2.648162	-2.059265	-0.678814	-0.166736	0.082397	-0.504883	-0.431885	0.515381	89.889922	-85.472071	72.677503
31145		8.661086	2.832824	-2.090818	-0.759272	-0.226898	0.076934	-0.517334	-0.423828	0.512451	91.111775	-85.514283	71.020442
31146		8.489308	2.878946	-2.274559	-0.876595	-0.289318	0.078363	-0.507568	-0.439209	0.505615	92.758563	-85.554104	68.869338
31147		8.368823	2.984948	-2.656174	-0.971649	-0.357999	0.093147	-0.511963	-0.437256	0.512695	94.894858	-85.592857	66.173260
31148		8.351144	3.097194	-2.712416	-1.043879	-0.402785	0.109716	-0.506348	-0.438477	0.503418	97.383802	-85.631208	63.081625
31149		8.786830	3.244868	-1.948669	-1.089356	-0.381659	0.144783	-0.510986	-0.453125	0.510010	99.771954	-85.679720	60.065650
31150		9.630150	2.883920	-0.808565	-1.030766	-0.337519	0.182986	-0.508057	-0.449951	0.501709	101.988631	-85.746682	57.254991
31151		10.765315	1.905323	0.024525	-0.934441	-0.272149	0.181542	-0.504395	-0.457275	0.500000	103.829873	-85.812243	54.876927
31152		11.874535	0.501190	0.869809	-1.031064	-0.248983	0.150951	-0.510498	-0.463135	0.494629	105.445529	-85.860343	52.669153
31153		13.108776	-0.857543	0.688366	-1.280167	-0.315027	0.096545	-0.507080	-0.462402	0.500488	107.321070	-85.861524	50.058338
31154		14.598221	-1.744358	0.771896	-1.325361	-0.270981	0.019753	-0.509521	-0.469482	0.495850	108.652173	-85.824774	47.966822
31155		15.997286	-2.536325	1.393230	-1.121595	-0.118482	-0.091701	-0.506104	-0.475342	0.483887	108.654128	-85.752453	47.325480
31156		16.380183	-2.909021	1.637463	-0.739047	-0.018748	-0.212819	-0.505859	-0.477051	0.485107	107.869020	-85.633725	47.692648
31157		15.464872	-2.046658	0.991710	-0.254587	-0.135541	-0.294640	-0.497314	-0.486816	0.486328	108.003248	-85.448575	47.416627
31158		13.865400	-0.186138	0.307307	0.116552	-0.241510	-0.284941	-0.507568	-0.487549	0.484131	109.054960	-85.250228	46.432922
31159		12.122174	1.764237	0.541471	0.261689	-0.184121	-0.191024	-0.501953	-0.483154	0.496338	109.950431	-85.111340	45.689630
31160		10.458218	3.198477	1.403731	0.300506	-0.061047	-0.095844	-0.501709	-0.489258	0.493164	110.294337	-85.048163	45.521747
31161		8.984852	3.918379	2.290295	0.251149	0.025922	-0.036753	-0.506836	-0.487305	0.491455	110.192388	-85.033005	45.773427
31162		7.957872	3.933772	2.559719	0.047643	0.107713	-0.008152	-0.510254	-0.486328	0.492188	109.541993	-85.050006	46.458147
31163		7.255149	3.217528	2.971093	-0.183059	0.161151	0.021677	-0.505371	-0.479004	0.493652	108.468774	-85.091172	47.435036
31164		6.914752	2.186153	2.839759	-0.328553	0.116379	0.040608	-0.510986	-0.484863	0.488770	107.632915	-85.134390	48.089492
31165		6.978372	1.082343	2.364323	-0.362052	0.073500	0.054656	-0.506836	-0.486816	0.489990	107.056508	-85.176130	48.464782
31166		7.386822	0.122959	2.046058	-0.409439	0.042748	0.068071	-0.513184	-0.495117	0.490234	106.687147	-85.221005	48.604507
31167		8.119103	-0.615238	1.853517	-0.451486	0.019599	0.082647	-0.506348	-0.493652	0.487549	106.455259	-85.268921	48.582625
31168		8.984357	-1.079874	1.397829	-0.444697	0.003411	0.099615	-0.513428	-0.489502	0.488037	106.383347	-85.324667	48.403607
31169		9.894955	-1.553440	0.903470	-0.348807	0.034013	0.109280	-0.518799	-0.491699	0.485596	106.162066	-85.389660	48.430090
31170		10.558436	-1.886333	0.220949	-0.171967	0.058277	0.122885	-0.508545	-0.494385	0.485840	105.915166	-85.467002	48.583413
31171		10.793761	-1.905563	-0.173561	0.051010	0.088285	0.143158	-0.510742	-0.494141	0.484863	105.600462	-85.559227	48.933349
31172		10.393735	-1.601030	-0.254639	0.301919	0.086281	0.167777	-0.521729	-0.495605	0.490234	105.498439	-85.665543	49.213645
