// General information: 
//  MT Manager version: 2022.2.0 
//  XDA version: 2022.2.0 build 7381 rev 124627 built on 2023-07-19
// Device information: 
//  DeviceId: 00B4BCF6
//  ProductCode: MTW2-3A7G6
//  Firmware Version: 4.6.0
//  Hardware Version: 2.0.0
// Device settings: 
//  Filter Profile: human(46.1)
//  Option Flags: Orientation Smoother Disabled, Position/Velocity Smoother Disabled, Continuous Zero Rotation Update Disabled, AHS Disabled, ICC Disabled
// Coordinate system: ENU
PacketCounter	SampleTimeFine	Acc_X	Acc_Y	Acc_Z	Gyr_X	Gyr_Y	Gyr_Z	Mag_X	Mag_Y	Mag_Z	Roll	Pitch	Yaw
56268		-5.554952	1.968739	7.877044	-0.007059	0.000931	-0.006750	-0.534912	-0.489746	-0.455078	14.258993	34.304431	101.571101
56269		-5.576638	1.945210	7.862635	-0.007938	-0.002117	-0.004625	-0.544678	-0.486572	-0.452393	14.254595	34.299997	101.570273
56270		-5.511452	1.998776	7.886297	-0.009619	-0.003834	-0.005157	-0.530518	-0.475098	-0.452148	14.248411	34.294952	101.567840
56271		-5.533201	1.988423	7.892464	-0.008740	-0.000787	-0.007282	-0.546143	-0.478271	-0.448975	14.242675	34.291632	101.565454
56272		-5.522637	2.027938	7.895359	-0.014204	-0.001139	-0.007970	-0.537842	-0.489990	-0.459717	14.233061	34.288450	101.562456
56273		-5.501195	1.957898	7.969558	-0.004916	0.009118	-0.008177	-0.543213	-0.489014	-0.469482	14.230130	34.290757	101.561158
56274		-5.524194	1.980036	7.924530	-0.006548	0.017291	-0.010506	-0.546143	-0.488281	-0.464355	14.225691	34.298241	101.559244
56275		-5.580146	1.965337	7.902948	-0.003167	0.016592	-0.011680	-0.539063	-0.491211	-0.456299	14.223152	34.305191	101.556864
56276		-5.505670	1.987376	7.916890	-0.003985	0.020678	-0.012844	-0.544434	-0.490723	-0.455811	14.219632	34.314843	101.553837
56277		-5.540410	1.982066	7.889005	0.001546	0.026787	-0.016191	-0.546387	-0.483154	-0.460205	14.219062	34.328090	101.550159
56278		-5.586423	1.962559	7.899203	-0.001832	0.026106	-0.015766	-0.534424	-0.484375	-0.461426	14.216195	34.341136	101.546318
56279		-5.534070	1.916509	7.927842	0.004022	0.027173	-0.013000	-0.536377	-0.479492	-0.459473	14.218288	34.354148	101.544852
56280		-5.547709	1.980070	7.884375	0.006592	0.029181	-0.016084	-0.535645	-0.475830	-0.459229	14.220402	34.368986	101.541554
56281		-5.582844	1.975374	7.855977	0.008678	0.028855	-0.014968	-0.527832	-0.474854	-0.462646	14.224577	34.383210	101.539051
56282		-5.628474	1.988590	7.815960	0.000702	0.016843	-0.017804	-0.538574	-0.475098	-0.459473	14.221471	34.391437	101.532794
56283		-5.597433	1.946489	7.871455	0.001493	0.016891	-0.014399	-0.538818	-0.483887	-0.452881	14.220592	34.398936	101.528632
56284		-5.599064	2.004725	7.861427	-0.001025	0.006613	-0.015796	-0.540283	-0.482666	-0.461182	14.216290	34.401162	101.521614
56285		-5.567426	2.007991	7.887757	-0.005202	0.007260	-0.018032	-0.535889	-0.480225	-0.451904	14.209264	34.403822	101.513363
56286		-5.557683	1.956033	7.949570	-0.002650	0.012026	-0.019621	-0.531494	-0.482910	-0.457764	14.203100	34.409599	101.504576
56287		-5.570162	1.927430	7.966474	0.001960	0.020602	-0.017853	-0.545410	-0.482910	-0.457520	14.201528	34.419643	101.498716
56288		-5.539981	1.963862	7.941285	0.009921	0.032615	-0.015015	-0.542969	-0.478027	-0.456543	14.206294	34.436205	101.496510
56289		-5.542633	1.905208	7.948391	0.017415	0.039539	-0.009469	-0.540283	-0.489502	-0.457764	14.218595	34.455589	101.499528
56290		-5.567826	1.975082	7.871435	0.022860	0.041273	-0.008027	-0.534424	-0.486572	-0.449707	14.234276	34.475955	101.503528
56291		-5.592924	1.999234	7.824194	0.018679	0.041916	-0.010267	-0.540527	-0.484131	-0.455811	14.247237	34.496770	101.506427
56292		-5.650168	2.031704	7.771208	0.011946	0.025153	-0.010609	-0.540771	-0.484863	-0.459717	14.254133	34.508546	101.505618
56293		-5.652060	2.044884	7.790549	0.001044	0.009036	-0.013190	-0.535156	-0.479736	-0.456543	14.252689	34.511514	101.500925
56294		-5.630610	1.961939	7.844250	-0.004855	0.000832	-0.012672	-0.540771	-0.483643	-0.462158	14.246815	34.510100	101.495011
56295		-5.577325	2.001484	7.906124	-0.004467	0.001546	-0.010595	-0.527344	-0.487061	-0.459473	14.242478	34.508543	101.490785
56296		-5.609769	1.950560	7.909317	-0.001166	-0.002144	-0.006229	-0.539551	-0.488770	-0.451416	14.240884	34.504595	101.488533
56297		-5.555599	1.950944	7.909589	0.003397	0.010568	-0.002223	-0.539551	-0.474365	-0.459229	14.245124	34.506867	101.491493
56298		-5.589544	1.973485	7.923061	0.007571	0.009924	0.000018	-0.538330	-0.484863	-0.459961	14.252102	34.508687	101.495664
56299		-5.611511	1.970420	7.836773	0.007122	0.016099	0.001671	-0.544922	-0.489014	-0.458740	14.260500	34.513481	101.502196
56300		-5.623356	1.989317	7.823916	0.007085	0.007592	0.004220	-0.531982	-0.480957	-0.453613	14.268575	34.513427	101.508662
56301		-5.601998	1.999380	7.817662	0.005411	0.005873	0.003684	-0.533691	-0.487793	-0.451172	14.275769	34.512257	101.514799
56302		-5.624047	1.958194	7.873547	0.002900	-0.003026	0.003037	-0.539307	-0.486328	-0.456055	14.279970	34.506481	101.518309
56303		-5.633817	1.950134	7.820883	0.001140	-0.007740	0.008033	-0.538330	-0.488281	-0.453125	14.285054	34.497136	101.525041
56304		-5.568236	2.005345	7.844973	-0.000534	-0.009459	0.007498	-0.540283	-0.487793	-0.459961	14.288363	34.487151	101.530515
56305		-5.557270	2.059730	7.868558	-0.003422	-0.007810	0.003715	-0.544922	-0.475586	-0.455078	14.289175	34.478378	101.534323
56306		-5.577742	1.977718	7.863749	-0.006322	-0.004784	0.000679	-0.533691	-0.482910	-0.455322	14.287024	34.471942	101.536658
56307		-5.577204	1.977371	7.864218	-0.002513	-0.008899	-0.000648	-0.534180	-0.484375	-0.452637	14.286587	34.463181	101.537341
56308		-5.576691	2.022801	7.834897	-0.004212	-0.007862	0.000308	-0.536133	-0.483398	-0.452881	14.285203	34.455114	101.538340
56309		-5.597319	1.999530	7.820975	-0.009225	-0.014398	-0.002045	-0.543457	-0.478027	-0.468994	14.279856	34.443498	101.537140
56310		-5.607240	1.984290	7.860367	-0.014262	-0.018178	-0.002906	-0.537598	-0.483154	-0.458984	14.270487	34.430163	101.534938
56311		-5.605384	2.015407	7.811613	-0.016000	-0.025649	0.000598	-0.547119	-0.483643	-0.454346	14.261178	34.411925	101.533595
56312		-5.592454	1.976740	7.896455	-0.023190	-0.034860	0.002656	-0.541016	-0.486084	-0.463867	14.247222	34.388516	101.531904
56313		-5.557265	1.979336	7.925539	-0.026084	-0.033212	-0.001125	-0.535156	-0.481934	-0.452393	14.230758	34.366320	101.528122
56314		-5.533568	1.968067	7.992473	-0.013932	-0.024598	0.002460	-0.541748	-0.484375	-0.456299	14.223020	34.348668	101.527939
56315		-5.488674	1.953906	8.032249	-0.004319	-0.008107	0.007330	-0.540771	-0.489990	-0.452393	14.224657	34.339225	101.534133
56316		-5.510902	1.958369	8.058272	0.005346	0.015517	0.008910	-0.539795	-0.481201	-0.461182	14.234280	34.342900	101.544750
56317		-5.490619	1.955922	8.030429	0.017920	0.034731	0.012775	-0.537842	-0.474121	-0.453613	14.254851	34.356477	101.561918
56318		-5.482698	1.972542	7.989400	0.024647	0.051492	0.013117	-0.545410	-0.484375	-0.454346	14.280590	34.379527	101.582426
56319		-5.487171	2.066690	7.926172	0.029359	0.058926	0.007114	-0.536377	-0.477539	-0.459717	14.307931	34.407326	101.599957
56320		-5.589479	2.023421	7.892284	0.029421	0.063294	0.002326	-0.530518	-0.484131	-0.461426	14.333494	34.438417	101.615000
56321		-5.549646	1.958765	7.845259	0.029421	0.061911	0.001577	-0.536133	-0.481445	-0.460205	14.359092	34.468646	101.629360
56322		-5.587224	2.060950	7.775383	0.023213	0.055985	-0.005519	-0.535889	-0.494141	-0.461182	14.377413	34.496844	101.637705
56323		-5.569822	2.039182	7.816687	0.021223	0.045280	-0.012605	-0.537109	-0.489746	-0.452637	14.391305	34.519853	101.639675
56324		-5.605315	2.021780	7.766853	0.011165	0.036345	-0.015081	-0.539063	-0.481201	-0.459717	14.397198	34.538479	101.637293
56325		-5.652103	2.061593	7.766990	0.000754	0.023939	-0.021124	-0.546875	-0.481445	-0.459961	14.394020	34.550858	101.629839
56326		-5.653693	2.046543	7.745572	-0.008380	0.013914	-0.027962	-0.525391	-0.486084	-0.464844	14.381596	34.558837	101.616329
56327		-5.676543	1.989033	7.781006	-0.013817	-0.000462	-0.029096	-0.539551	-0.485107	-0.462402	14.364625	34.558804	101.599281
56328		-5.687592	1.972091	7.820087	-0.017641	-0.018866	-0.025651	-0.539307	-0.493896	-0.460449	14.344552	34.548350	101.581134
56329		-5.664631	1.978451	7.815976	-0.022275	-0.023311	-0.025187	-0.536865	-0.484619	-0.459961	14.322004	34.535069	101.562788
56330		-5.619198	1.948500	7.836403	-0.024525	-0.030355	-0.015990	-0.546143	-0.490234	-0.462891	14.300597	34.516815	101.548850
56331		-5.606277	1.941131	7.871216	-0.019514	-0.036457	-0.013320	-0.536133	-0.490234	-0.457031	14.282903	34.494545	101.536263
56332		-5.614915	1.924999	7.911739	-0.016285	-0.033257	-0.005222	-0.540771	-0.488037	-0.462891	14.270063	34.473138	101.529115
56333		-5.536451	1.946961	7.929135	-0.013842	-0.030109	-0.000532	-0.541260	-0.487549	-0.462158	14.261126	34.452583	101.526247
56334		-5.556649	1.995860	7.927165	-0.009750	-0.022485	0.006188	-0.538818	-0.484131	-0.450439	14.257411	34.435557	101.529027
56335		-5.587614	1.958648	7.951900	-0.006833	-0.015626	0.007423	-0.543457	-0.479492	-0.458740	14.256923	34.421922	101.533997
56336		-5.553249	1.982539	7.908846	0.001103	-0.014869	0.011324	-0.543945	-0.484863	-0.462646	14.262135	34.408338	101.541622
56337		-5.509469	2.028742	7.938696	0.001482	-0.001515	0.013093	-0.542480	-0.482178	-0.452637	14.269928	34.401738	101.552820
56338		-5.531279	2.020177	7.944219	0.005797	0.006589	0.005764	-0.533936	-0.489990	-0.458008	14.277782	34.400860	101.560440
56339		-5.530875	1.994337	7.902904	0.003613	0.005292	0.010921	-0.544678	-0.483154	-0.458740	14.286626	34.398344	101.571339
56340		-5.520300	1.977108	7.914429	0.006159	0.010058	0.009333	-0.532715	-0.485352	-0.458496	14.296375	34.398914	101.581535
56341		-5.564778	2.005197	7.895283	0.007819	0.013155	0.010616	-0.532227	-0.477783	-0.463379	14.308275	34.400803	101.593577
56342		-5.510685	1.993748	7.874492	0.009892	0.014211	0.012484	-0.533447	-0.481445	-0.453369	14.321741	34.403274	101.607026
56343		-5.512405	2.021806	7.914326	0.010376	0.016542	0.008282	-0.538574	-0.480957	-0.462402	14.334550	34.407370	101.618081
56344		-5.568117	2.009066	7.891944	0.008722	0.024705	0.005941	-0.538818	-0.483154	-0.461182	14.345902	34.416536	101.628882
56345		-5.579927	2.001490	7.837646	0.006187	0.018562	0.006783	-0.536377	-0.484619	-0.460205	14.355941	34.421963	101.639280
56346		-5.559786	1.979233	7.881029	0.006686	0.019514	0.001835	-0.536133	-0.481201	-0.459961	14.364063	34.428840	101.646384
56347		-5.604997	2.006796	7.861409	0.004998	0.019173	0.002044	-0.532227	-0.486816	-0.457764	14.371681	34.435276	101.653701
56348		-5.616702	1.966349	7.857779	0.002465	0.013030	0.002886	-0.536621	-0.488525	-0.456787	14.377157	34.438412	101.660108
56349		-5.574334	1.998782	7.866070	0.004178	0.010616	0.001186	-0.532471	-0.474121	-0.450439	14.383146	34.440220	101.665374
56350		-5.596865	2.035356	7.841411	-0.000455	0.006174	0.001651	-0.536133	-0.486816	-0.455566	14.385828	34.439681	101.669710
56351		-5.619065	2.025906	7.846869	-0.002513	0.003740	-0.000963	-0.539795	-0.481934	-0.458984	14.386494	34.437979	101.672343
56352		-5.575459	1.998602	7.865318	-0.005060	-0.001024	0.000624	-0.536865	-0.476563	-0.454590	14.385445	34.433603	101.674817
56353		-5.575480	2.011366	7.886158	-0.008364	-0.008595	-0.002687	-0.534180	-0.481201	-0.467773	14.380899	34.425301	101.674161
56354		-5.552795	2.006713	7.860529	-0.003718	-0.005530	-0.003897	-0.532227	-0.480957	-0.458740	14.378439	34.419102	101.673621
56355		-5.553304	2.032590	7.901790	-0.011291	-0.002814	-0.004236	-0.545898	-0.483154	-0.454102	14.372191	34.414229	101.672921
56356		-5.542001	2.000050	7.893660	-0.008345	0.001287	-0.004492	-0.542725	-0.482422	-0.458496	14.367549	34.411840	101.672552
56357		-5.596753	1.998716	7.893085	-0.006259	0.000965	-0.003369	-0.537109	-0.488770	-0.462646	14.364883	34.408941	101.673088
56358		-5.564245	1.989304	7.899414	-0.003299	0.003689	-0.004370	-0.546143	-0.481201	-0.456543	14.363402	34.407899	101.673141
56359		-5.586937	1.992956	7.925292	-0.001255	0.007500	-0.001010	-0.538086	-0.475830	-0.451172	14.365136	34.408291	101.676390
56360		-5.564829	1.975418	7.878427	-0.001213	0.003367	-0.003247	-0.545410	-0.481201	-0.470703	14.365270	34.406826	101.677561
56361		-5.587237	2.011678	7.853959	0.002118	0.008183	-0.001426	-0.536865	-0.477539	-0.458252	14.368845	34.407656	101.680649
56362		-5.598931	1.997378	7.891879	-0.002500	0.002362	-0.001708	-0.538818	-0.474854	-0.462402	14.368686	34.405509	101.683340
56363		-5.598768	2.029741	7.841508	0.002072	0.001056	0.001869	-0.535645	-0.483643	-0.453369	14.372792	34.401915	101.687415
56364		-5.598662	1.984125	7.871330	0.001315	-0.001750	-0.003031	-0.544189	-0.483643	-0.457275	14.373938	34.397651	101.687737
56365		-5.566225	1.988473	7.898228	-0.000771	-0.001429	-0.004154	-0.542480	-0.490479	-0.453613	14.373884	34.393535	101.687332
56366		-5.566440	2.001547	7.918859	-0.001644	-0.004474	-0.002030	-0.542725	-0.485107	-0.463867	14.373478	34.387568	101.687045
56367		-5.576178	1.992810	7.866277	-0.001217	-0.007893	-0.002190	-0.534912	-0.486084	-0.466309	14.373286	34.379585	101.686847
56368		-5.565294	2.033336	7.869335	-0.002430	-0.004526	-0.005438	-0.540771	-0.482910	-0.454102	14.371078	34.374184	101.685002
56369		-5.608142	2.000721	7.860715	-0.003689	-0.008286	-0.005391	-0.540039	-0.487793	-0.458496	14.368216	34.366438	101.682585
56370		-5.564676	2.000092	7.920466	0.000456	-0.006173	-0.001653	-0.534912	-0.487793	-0.455566	14.368983	34.359501	101.682394
56371		-5.574722	2.004730	7.888384	-0.002904	-0.008235	-0.001983	-0.533447	-0.484619	-0.455566	14.367870	34.351298	101.682278
56372		-5.574033	2.004496	7.888930	-0.002104	-0.009561	0.000679	-0.540771	-0.485840	-0.459473	14.367715	34.342195	101.682623
56373		-5.562788	1.999631	7.921908	-0.000445	-0.006464	0.001963	-0.539795	-0.481689	-0.457764	14.369679	34.334414	101.685463
56374		-5.540105	1.995743	7.896081	0.000841	-0.005459	0.000424	-0.541748	-0.479248	-0.458740	14.371511	34.327594	101.687233
56375		-5.528501	2.009884	7.858151	-0.002946	-0.004102	0.000256	-0.543213	-0.481201	-0.450928	14.371623	34.321367	101.689331
56376		-5.550912	2.027145	7.904869	0.001687	0.000342	-0.000208	-0.535889	-0.481445	-0.459717	14.374282	34.317800	101.691920
56377		-5.529180	1.990613	7.928895	-0.004601	0.004061	-0.002084	-0.537354	-0.483643	-0.450928	14.373351	34.316436	101.693852
56378		-5.562115	2.031581	7.872035	0.000845	0.005801	-0.000632	-0.536621	-0.481201	-0.453857	14.375883	34.316015	101.696533
56379		-5.573454	2.004116	7.889435	0.003832	0.005770	-0.003126	-0.544678	-0.481201	-0.461670	14.379556	34.315747	101.698059
56380		-5.574423	2.017489	7.909455	0.001732	0.007469	-0.003502	-0.537354	-0.485596	-0.457031	14.381671	34.316644	101.699690
56381		-5.574804	2.004120	7.888480	0.003004	0.009852	-0.004296	-0.538086	-0.488281	-0.460693	14.384823	34.318809	101.701133
56382		-5.553370	2.000121	7.861802	0.001731	0.007469	-0.003503	-0.542480	-0.481934	-0.454346	14.386933	34.319752	101.701936
56383		-5.533038	2.036049	7.896520	0.002632	0.007760	-0.007119	-0.532227	-0.491211	-0.450684	14.388598	34.321157	101.701122
56384		-5.576832	2.003707	7.887152	0.001387	0.002622	-0.007818	-0.544434	-0.483887	-0.458740	14.388436	34.319967	101.697696
56385		-5.555390	1.966953	7.911045	0.000573	0.005325	-0.009734	-0.545898	-0.483643	-0.454346	14.387694	34.320393	101.694704
56386		-5.534626	1.989455	7.925385	0.003416	0.007811	-0.003711	-0.542725	-0.486816	-0.456299	14.390752	34.321459	101.696096
56387		-5.557012	2.012553	7.880182	0.005974	0.011199	-0.006043	-0.540039	-0.486084	-0.462646	14.395074	34.324619	101.696597
56388		-5.514357	2.031497	7.868062	0.006374	0.010536	-0.004712	-0.531250	-0.478027	-0.453857	14.399691	34.327404	101.697480
56389		-5.538108	2.048930	7.913808	0.005144	0.015279	-0.007214	-0.540771	-0.480957	-0.455811	14.403491	34.332996	101.697899
56390		-5.570951	2.017533	7.845239	0.003086	0.012844	-0.009830	-0.542725	-0.485107	-0.455811	14.404515	34.337774	101.696114
56391		-5.550266	1.980848	7.868605	0.002685	0.013506	-0.011161	-0.534912	-0.484131	-0.455078	14.405238	34.342945	101.693575
56392		-5.552410	2.007339	7.908607	0.005141	0.015278	-0.007215	-0.536133	-0.481445	-0.452148	14.408680	34.348692	101.693401
56393		-5.575305	2.030192	7.863058	0.004355	0.015225	-0.010624	-0.545898	-0.477051	-0.464355	14.410731	34.354740	101.691520
56394		-5.555243	2.052796	7.876909	0.003853	0.014273	-0.005676	-0.543701	-0.485107	-0.458008	14.413909	34.359700	101.693429
56395		-5.567371	2.024937	7.893852	-0.000705	0.014197	-0.010003	-0.538086	-0.479736	-0.455322	14.413196	34.365089	101.691788
56396		-5.568655	2.024378	7.893090	-0.000306	0.013534	-0.008671	-0.543457	-0.485596	-0.466064	14.412801	34.370056	101.690898
56397		-5.580855	2.041953	7.880275	-0.000691	0.012819	-0.010749	-0.540527	-0.482422	-0.462646	14.411678	34.374786	101.688518
56398		-5.538151	2.014317	7.898245	-0.001930	0.007681	-0.011447	-0.535889	-0.488037	-0.455811	14.408696	34.376968	101.685323
56399		-5.517842	2.036231	7.912488	-0.002779	0.013138	-0.011874	-0.535156	-0.478027	-0.455566	14.405980	34.382036	101.682240
56400		-5.541073	2.025930	7.917389	-0.001910	0.016182	-0.013999	-0.540039	-0.484375	-0.452637	14.402898	34.389264	101.677690
56401		-5.575086	2.020318	7.889589	-0.002728	0.018883	-0.015917	-0.532227	-0.482178	-0.455566	14.399234	34.398096	101.672879
56402		-5.587177	1.978283	7.885984	-0.003999	0.016500	-0.015125	-0.539063	-0.484131	-0.457520	14.394572	34.405632	101.667488
56403		-5.578261	2.018215	7.887884	0.000206	0.013107	-0.014365	-0.539551	-0.481934	-0.456543	14.392613	34.411036	101.662722
56404		-5.622433	2.017406	7.827747	-0.005270	0.014116	-0.014333	-0.538574	-0.482910	-0.460449	14.387282	34.417128	101.658015
56405		-5.580807	2.016045	7.886638	-0.004419	0.008659	-0.013907	-0.531006	-0.485107	-0.451416	14.382412	34.419999	101.652788
56406		-5.559474	2.010939	7.860187	-0.006106	0.008315	-0.013701	-0.541260	-0.484375	-0.457764	14.376273	34.422820	101.646960
56407		-5.571760	1.995240	7.898052	-0.010280	0.008951	-0.015954	-0.537109	-0.485107	-0.453369	14.367294	34.426142	101.640405
56408		-5.572168	1.980461	7.877345	-0.005690	0.006275	-0.013115	-0.535645	-0.476807	-0.457031	14.361437	34.427692	101.634745
56409		-5.573895	2.005709	7.918056	-0.009846	0.005534	-0.016114	-0.539795	-0.482666	-0.467773	14.352311	34.429139	101.627492
56410		-5.563043	2.005021	7.859173	-0.009919	0.011042	-0.013130	-0.537109	-0.487061	-0.457520	14.344436	34.433410	101.624172
56411		-5.575053	2.021788	7.846699	-0.006111	0.008314	-0.013701	-0.539307	-0.489258	-0.456055	14.338638	34.436057	101.619020
56412		-5.576883	2.001387	7.917046	-0.008217	0.010008	-0.014082	-0.539551	-0.486084	-0.459717	14.331326	34.439839	101.612787
56413		-5.566132	2.000807	7.858060	-0.008600	0.009293	-0.016161	-0.533203	-0.486572	-0.454102	14.323260	34.443376	101.606147
56414		-5.577904	1.971685	7.875487	-0.009486	0.007624	-0.013292	-0.547119	-0.491211	-0.461670	14.315281	34.445734	101.600271
56415		-5.590269	2.001650	7.883602	-0.008183	0.007253	-0.015575	-0.534912	-0.480225	-0.457275	14.307477	34.448055	101.593673
56416		-5.557841	1.978068	7.869412	-0.009870	0.006907	-0.015371	-0.537354	-0.484863	-0.457275	14.298418	34.450278	101.586982
56417		-5.559274	1.989913	7.889588	-0.007821	0.009344	-0.012751	-0.531250	-0.481934	-0.452393	14.292098	34.453359	101.582643
56418		-5.570195	1.979951	7.836275	-0.009890	0.008284	-0.014625	-0.543457	-0.484375	-0.451416	14.283446	34.456253	101.576164
56419		-5.604278	2.000649	7.850023	-0.003591	0.004580	-0.012736	-0.540039	-0.490967	-0.452637	14.279093	34.456685	101.571017
56420		-5.561126	1.972749	7.868426	-0.006983	0.005266	-0.011580	-0.537842	-0.489014	-0.455566	14.273030	34.457359	101.565426
56421		-5.540458	1.994327	7.883159	-0.006965	0.003888	-0.012327	-0.535889	-0.484375	-0.458008	14.266833	34.457349	101.560436
56422		-5.594444	1.965679	7.841342	-0.006545	0.001849	-0.011741	-0.539307	-0.481201	-0.459717	14.260577	34.456262	101.554606
56423		-5.520093	2.014775	7.897978	-0.006564	0.003226	-0.010995	-0.542725	-0.488281	-0.456055	14.255052	34.455695	101.550399
56424		-5.574661	1.999441	7.876574	-0.005662	0.003519	-0.014610	-0.547363	-0.478760	-0.462402	14.248378	34.455891	101.543711
56425		-5.597252	1.988794	7.881901	-0.005761	0.010403	-0.010877	-0.538086	-0.488525	-0.458008	14.244053	34.459292	101.540811
56426		-5.586602	1.956475	7.873114	-0.001546	0.007018	-0.010115	-0.534424	-0.483887	-0.460693	14.241780	34.460799	101.538359
56427		-5.576942	1.996626	7.875674	-0.005782	0.003278	-0.007585	-0.540771	-0.478516	-0.458496	14.238008	34.459779	101.536459
56428		-5.566267	1.977720	7.887722	-0.004979	0.001954	-0.004920	-0.537598	-0.487061	-0.462402	14.235238	34.457793	101.536736
56429		-5.576918	1.981799	7.855229	-0.006646	0.000231	-0.005463	-0.539551	-0.483643	-0.460449	14.231486	34.454781	101.535745
56430		-5.578151	2.007644	7.896246	-0.004960	0.000577	-0.005667	-0.541260	-0.479004	-0.458252	14.228309	34.452159	101.534698
56431		-5.555925	2.003122	7.870298	-0.006244	-0.000431	-0.004131	-0.536865	-0.484619	-0.457275	14.225231	34.448592	101.534491
56432		-5.544956	1.984194	7.882553	-0.006626	-0.001146	-0.006210	-0.538086	-0.485352	-0.461670	14.220753	34.445020	101.533082
56433		-5.577807	1.991847	7.876271	-0.008715	-0.000831	-0.007338	-0.537842	-0.486084	-0.457764	14.214999	34.441683	101.530647
56434		-5.599670	1.981248	7.882083	-0.008715	-0.000831	-0.007338	-0.537842	-0.476074	-0.460693	14.208915	34.438497	101.527865
56435		-5.545220	1.981208	7.883119	-0.003656	0.000210	-0.007950	-0.532471	-0.482910	-0.461914	14.205927	34.435824	101.525197
56436		-5.523800	1.990066	7.877437	-0.003737	0.005716	-0.004962	-0.533203	-0.490234	-0.462891	14.204197	34.435979	101.526437
56437		-5.589708	1.961034	7.893936	-0.002051	0.006063	-0.005166	-0.543701	-0.481201	-0.448730	14.203754	34.436165	101.526642
56438		-5.579951	2.001609	7.896507	-0.001227	0.003362	-0.003249	-0.538330	-0.485840	-0.458252	14.203958	34.434667	101.526802
56439		-5.568852	1.969791	7.887882	0.000558	0.005328	-0.009733	-0.534180	-0.487793	-0.454102	14.203200	34.435087	101.523805
56440		-5.613191	1.995915	7.869095	-0.004099	0.003624	-0.007789	-0.544922	-0.480225	-0.454590	14.200044	34.434413	101.520598
56441		-5.602591	1.977138	7.881040	-0.002011	0.003309	-0.006661	-0.537842	-0.481445	-0.458496	14.198790	34.433279	101.519327
56442		-5.570052	1.967841	7.887521	-0.006647	0.000229	-0.005464	-0.536133	-0.484131	-0.452637	14.194744	34.430304	101.518915
56443		-5.570108	1.967268	7.887625	0.000541	-0.001797	-0.006442	-0.541260	-0.479492	-0.455811	14.194544	34.426303	101.516921
56444		-5.548393	1.976450	7.882080	-0.001186	0.000609	-0.004744	-0.535645	-0.484131	-0.473145	14.193946	34.423449	101.516284
56445		-5.549137	1.989334	7.902525	-0.001589	0.001271	-0.006076	-0.539795	-0.484375	-0.460693	14.192960	34.421100	101.515060
56446		-5.559824	1.993780	7.869916	-0.001207	0.001986	-0.003996	-0.531982	-0.480225	-0.457275	14.192661	34.419114	101.516312
56447		-5.570273	1.952405	7.867031	-0.003296	0.002300	-0.005125	-0.543213	-0.485352	-0.458008	14.191158	34.417204	101.515904
56448		-5.549941	1.988090	7.902274	0.000076	0.002995	-0.005532	-0.539551	-0.481445	-0.461426	14.191185	34.415851	101.515274
56449		-5.528132	1.983853	7.875965	-0.004163	0.007753	-0.005547	-0.539063	-0.479248	-0.457520	14.189549	34.417029	101.515509
56450		-5.583343	1.982243	7.874772	-0.002817	0.004633	-0.009325	-0.541748	-0.486084	-0.460205	14.186621	34.417107	101.513574
56451		-5.583642	1.981673	7.874704	-0.001166	-0.000768	-0.005491	-0.542236	-0.482178	-0.453369	14.185904	34.413545	101.512397
56452		-5.572742	1.963041	7.886817	-0.001971	0.000556	-0.008156	-0.544922	-0.481689	-0.450684	14.183561	34.411127	101.509534
56453		-5.583950	1.980509	7.874778	-0.004962	0.000575	-0.005669	-0.541992	-0.480225	-0.459473	14.180731	34.408335	101.508467
56454		-5.574180	1.988232	7.927903	-0.004941	-0.000802	-0.006416	-0.543213	-0.480713	-0.455811	14.177234	34.404861	101.507156
56455		-5.552038	1.983705	7.901903	-0.004082	0.002246	-0.008537	-0.531982	-0.483643	-0.459717	14.173979	34.403399	101.504442
56456		-5.518808	1.961211	7.887976	-0.001145	-0.002144	-0.006239	-0.536377	-0.482178	-0.461426	14.172543	34.399293	101.502560
56457		-5.574251	1.973241	7.907400	0.000012	0.007125	-0.003290	-0.540527	-0.491211	-0.453613	14.174098	34.399805	101.504209
56458		-5.574261	1.959492	7.886626	-0.002820	0.004632	-0.009325	-0.532471	-0.478271	-0.458984	14.171195	34.399893	101.500403
56459		-5.575210	1.972362	7.906943	0.000881	0.001672	-0.002868	-0.543701	-0.480469	-0.460693	14.172884	34.397317	101.501408
56460		-5.532637	2.004376	7.916089	-0.001134	0.004980	-0.009529	-0.545166	-0.481934	-0.463379	14.170864	34.397641	101.499590
56461		-5.543056	1.995436	7.862803	-0.000350	0.005033	-0.006117	-0.535889	-0.487305	-0.451416	14.170935	34.397388	101.498979
56462		-5.554949	1.980696	7.900611	0.000933	0.006043	-0.007653	-0.540283	-0.489014	-0.456543	14.170967	34.397978	101.497212
56463		-5.555177	1.966891	7.879693	-0.003309	0.010799	-0.007668	-0.535156	-0.480713	-0.460449	14.169306	34.401145	101.496538
56464		-5.523817	1.971032	7.906220	0.000530	0.006705	-0.008985	-0.537598	-0.475586	-0.461426	14.168638	34.402351	101.493819
56465		-5.568493	1.997180	7.887180	-0.000298	0.009404	-0.010902	-0.541504	-0.486084	-0.452637	14.167338	34.405198	101.490730
56466		-5.579591	1.955751	7.883785	-0.000841	0.011200	-0.004460	-0.545166	-0.483398	-0.450928	14.168056	34.408191	101.492769
56467		-5.570220	1.996427	7.886151	0.001335	0.005381	-0.006320	-0.532715	-0.477051	-0.469727	14.169048	34.408160	101.492080
56468		-5.537989	1.987504	7.892358	-0.000754	0.005694	-0.007450	-0.531982	-0.480957	-0.462402	14.168114	34.408575	101.491777
56469		-5.538672	1.986999	7.892006	-0.001179	0.007732	-0.008035	-0.544922	-0.481934	-0.458252	14.167239	34.410090	101.490334
56470		-5.615704	1.976008	7.896215	-0.000373	0.006409	-0.005370	-0.543701	-0.489258	-0.458496	14.167386	34.410619	101.491181
56471		-5.561727	1.976619	7.896863	-0.002060	0.006060	-0.005167	-0.534180	-0.476074	-0.466309	14.166937	34.410803	101.491384
56472		-5.551440	2.003785	7.879044	-0.001993	0.001931	-0.007410	-0.534180	-0.481934	-0.463379	14.164935	34.409160	101.490183
56473		-5.574331	2.006904	7.904864	-0.004172	0.007748	-0.005550	-0.537109	-0.486328	-0.465332	14.163293	34.410335	101.490416
56474		-5.574054	1.947282	7.913784	-0.002060	0.006059	-0.005167	-0.541748	-0.484863	-0.454102	14.162473	34.410761	101.490996
56475		-5.563862	1.974739	7.895830	0.002118	0.005435	-0.002908	-0.530518	-0.483643	-0.461914	14.165217	34.410281	101.492615
56476		-5.574229	1.966271	7.842401	0.000386	0.007838	-0.001210	-0.541992	-0.482422	-0.456543	14.167544	34.411020	101.495089
56477		-5.544017	1.997490	7.909865	0.001266	0.009510	-0.004078	-0.539795	-0.477539	-0.450195	14.169746	34.412969	101.496613
56478		-5.587808	1.964968	7.899888	0.001243	0.010886	-0.003330	-0.531494	-0.478516	-0.450439	14.172117	34.415523	101.498982
56479		-5.599733	1.983045	7.887181	0.001646	0.010225	-0.001998	-0.538574	-0.483398	-0.451660	14.175398	34.417576	101.502029
56480		-5.579306	2.005928	7.901601	0.002094	0.006811	-0.002160	-0.534180	-0.480713	-0.456299	14.178300	34.417771	101.503180
56481		-5.578832	1.979212	7.860136	0.000459	0.010832	-0.006743	-0.549072	-0.489258	-0.457520	14.179153	34.420827	101.503135
56482		-5.570686	2.000772	7.932991	-0.000087	0.012628	-0.000301	-0.542969	-0.483643	-0.458740	14.182063	34.423997	101.507355
56483		-5.581334	1.992206	7.879357	0.002594	0.007767	-0.007108	-0.542480	-0.485840	-0.463623	14.183706	34.425402	101.506543
56484		-5.550196	1.996807	7.905704	0.002074	0.015309	-0.004704	-0.543213	-0.486572	-0.459229	14.186402	34.430730	101.509131
56485		-5.572085	1.960595	7.869317	0.003333	0.017696	-0.005491	-0.548828	-0.482422	-0.454346	14.190040	34.437423	101.511098
56486		-5.607564	1.995569	7.902740	0.000387	0.014959	-0.004502	-0.539307	-0.479980	-0.455322	14.191877	34.442397	101.513459
56487		-5.586314	1.991608	7.875978	-0.000873	0.012572	-0.003715	-0.541016	-0.488770	-0.457520	14.193289	34.445995	101.515751
56488		-5.607540	1.909409	7.869594	-0.002180	0.012938	-0.001434	-0.536865	-0.484375	-0.453369	14.194601	34.449510	101.519141
56489		-5.567486	2.059803	7.859911	0.001263	0.009508	-0.004079	-0.539551	-0.481201	-0.457275	14.196803	34.451456	101.520667
56490		-5.622651	2.012772	7.887983	-0.003464	0.011927	0.000100	-0.539063	-0.484375	-0.465332	14.197864	34.454204	101.524899
56491		-5.687046	1.911506	7.892850	-0.000877	0.005450	-0.000424	-0.546387	-0.479736	-0.457275	14.199841	34.453382	101.528195
56492		-5.570773	1.994528	7.958580	0.000164	0.020221	0.005514	-0.537109	-0.478027	-0.452393	14.205810	34.460001	101.539101
56493		-5.656318	1.877310	7.855841	0.006995	0.045967	0.012465	-0.542969	-0.481934	-0.454590	14.221127	34.479869	101.557994
56494		-5.609248	2.050968	7.917893	0.004418	0.036823	0.018824	-0.537598	-0.479004	-0.456543	14.236279	34.493738	101.579551
56495		-5.544594	1.995253	7.867336	0.002280	0.047005	0.015891	-0.541504	-0.493896	-0.456543	14.250324	34.513691	101.600951
56496		-5.539784	2.109445	7.878581	-0.001120	0.054800	0.013744	-0.531250	-0.474854	-0.456543	14.262119	34.538330	101.621033
56497		-5.493722	2.177495	7.978463	0.001322	0.077933	0.007823	-0.531982	-0.473877	-0.448242	14.275568	34.576588	101.642321
56498		-5.448135	2.251436	7.985685	0.007503	0.109590	0.000289	-0.539063	-0.486572	-0.456787	14.292527	34.633537	101.664057
56499		-5.597902	2.277736	7.899145	0.016981	0.117597	-0.015391	-0.531006	-0.482422	-0.459473	14.309980	34.697093	101.676554
56500		-5.786048	2.113478	7.759972	0.020591	0.097409	-0.019964	-0.536621	-0.482178	-0.461426	14.325556	34.750172	101.681437
56501		-5.783584	2.031633	7.866999	0.031471	0.076824	-0.008589	-0.534180	-0.480469	-0.455322	14.349972	34.790122	101.691553
56502		-5.622941	1.996824	7.805520	0.032483	0.057381	-0.008592	-0.531006	-0.483398	-0.460693	14.372848	34.819332	101.698182
56503		-5.617280	2.085499	7.774969	0.024353	0.051986	-0.000746	-0.532959	-0.483398	-0.463623	14.393791	34.844374	101.709341
56504		-5.511803	1.906332	7.894009	0.024525	0.043730	-0.005220	-0.536377	-0.485352	-0.466553	14.412035	34.865637	101.715754
56505		-5.691701	1.904463	7.944719	0.040081	0.046204	-0.005641	-0.532715	-0.486816	-0.463623	14.439545	34.888163	101.722625
56506		-5.973923	1.900565	7.789682	0.057066	0.024475	0.016223	-0.535889	-0.488525	-0.457031	14.482815	34.895664	101.740365
56507		-5.863172	1.914112	7.699588	0.055578	0.010387	0.032134	-0.528076	-0.483398	-0.455566	14.530257	34.892894	101.766555
56508		-5.679294	2.018559	7.729476	0.052833	-0.016196	0.034519	-0.532715	-0.488281	-0.464111	14.574160	34.875110	101.788063
56509		-5.708558	2.019333	7.702619	0.041208	-0.033996	0.034728	-0.530273	-0.494385	-0.461670	14.609886	34.847324	101.808182
56510		-5.679358	1.843194	7.707233	0.032146	-0.056893	0.035189	-0.535156	-0.482422	-0.459717	14.637993	34.807024	101.822754
56511		-5.520289	1.809489	7.712005	0.027524	-0.068459	0.038933	-0.541504	-0.483643	-0.460449	14.663975	34.759507	101.839576
56512		-5.601257	1.866761	7.677302	0.015647	-0.075246	0.045101	-0.536865	-0.485352	-0.459961	14.684551	34.707423	101.859784
56513		-5.275953	1.853176	7.616395	-0.000778	-0.073639	0.044348	-0.536865	-0.487305	-0.460693	14.695815	34.656239	101.879280
56514		-4.529207	1.902139	7.614506	-0.025519	-0.035491	0.006362	-0.537598	-0.480225	-0.462402	14.681881	34.631892	101.879411
56515		-4.387483	1.937913	8.033086	-0.032917	0.024039	-0.043674	-0.542725	-0.478271	-0.453125	14.650811	34.647626	101.856844
56516		-5.176714	1.562764	8.185939	-0.038341	0.067391	-0.102829	-0.535645	-0.484375	-0.452393	14.597987	34.695913	101.803058
56517		-5.477935	1.682106	7.999258	-0.025448	0.103107	-0.132894	-0.531250	-0.482422	-0.452393	14.544736	34.768322	101.734103
56518		-5.324796	1.905363	7.849112	-0.009746	0.098932	-0.120926	-0.525879	-0.489990	-0.454346	14.504250	34.836598	101.671050
56519		-5.500153	1.634668	8.038013	0.002725	0.132853	-0.114507	-0.536133	-0.491455	-0.466309	14.476935	34.922792	101.619478
56520		-5.768221	2.098035	7.829356	0.021959	0.138371	-0.096365	-0.532715	-0.480469	-0.457764	14.467749	35.009511	101.579267
56521		-5.938981	2.290270	7.861179	0.028961	0.121901	-0.083654	-0.532715	-0.486084	-0.461426	14.466165	35.085196	101.546539
56522		-6.099256	2.317011	7.740040	0.021381	0.096127	-0.070833	-0.535156	-0.487549	-0.464600	14.462270	35.144695	101.518416
56523		-6.093839	2.315532	7.676489	0.019086	0.057438	-0.058980	-0.526367	-0.486328	-0.459961	14.458086	35.181081	101.491094
56524		-5.953650	2.221761	7.652902	0.009207	0.034238	-0.054919	-0.533936	-0.485352	-0.469727	14.447165	35.204049	101.462471
56525		-5.914992	2.219459	7.711632	-0.002053	0.014160	-0.047098	-0.525146	-0.494141	-0.455322	14.431122	35.214717	101.435618
56526		-5.880576	2.168131	7.657255	-0.007049	-0.001100	-0.039894	-0.533447	-0.486084	-0.462891	14.413220	35.215957	101.410429
56527		-5.827841	2.102288	7.760501	-0.009558	-0.017317	-0.030202	-0.531982	-0.487305	-0.459473	14.396323	35.206736	101.389553
56528		-5.890897	2.011783	7.787182	-0.013491	-0.023314	-0.020069	-0.533936	-0.484375	-0.460449	14.380313	35.192728	101.374932
56529		-5.823286	1.947766	7.833165	-0.012820	-0.031946	-0.007046	-0.533691	-0.488281	-0.453613	14.369157	35.172085	101.367248
56530		-5.715499	1.990084	7.899543	-0.006340	-0.013519	0.010220	-0.526855	-0.484619	-0.459717	14.370132	35.159130	101.374478
56531		-5.864183	1.928417	7.845630	-0.005787	0.002182	0.030929	-0.531738	-0.491455	-0.459961	14.381272	35.152025	101.398514
56532		-5.659205	1.980774	7.880820	-0.001389	0.020906	0.047048	-0.531250	-0.491455	-0.464844	14.402858	35.153085	101.436241
56533		-5.867625	2.038164	7.803387	0.002544	0.054482	0.055198	-0.532227	-0.488525	-0.462891	14.433514	35.171526	101.485871
56534		-5.916693	1.901241	7.686247	-0.001092	0.024646	0.066753	-0.528320	-0.485107	-0.453613	14.463348	35.171855	101.537807
56535		-5.876013	1.977899	7.757337	-0.008294	-0.019216	0.076949	-0.536621	-0.488281	-0.460938	14.488868	35.146254	101.589307
56536		-5.764579	2.043536	7.753088	-0.006175	-0.028006	0.080663	-0.531006	-0.488281	-0.459717	14.515924	35.115227	101.641018
56537		-5.867985	2.031871	7.731403	-0.009349	-0.049799	0.083949	-0.535400	-0.486328	-0.460693	14.540391	35.071619	101.691820
56538		-5.714474	2.033325	7.889455	-0.006536	-0.050055	0.088508	-0.533447	-0.489014	-0.459717	14.567924	35.027285	101.744959
56539		-5.857820	2.054435	7.757813	-0.006703	-0.044564	0.091473	-0.534668	-0.490479	-0.453369	14.597235	34.985455	101.801672
56540		-5.861036	2.018407	7.758810	-0.005955	-0.081682	0.094559	-0.544434	-0.483887	-0.462402	14.624155	34.922645	101.851752
56541		-5.808131	2.042518	7.753872	-0.010463	-0.105869	0.098620	-0.536133	-0.487305	-0.458984	14.647712	34.845751	101.902344
56542		-5.820489	2.110327	7.777146	-0.006385	-0.129475	0.093940	-0.533203	-0.489014	-0.459229	14.669093	34.756511	101.945404
56543		-5.740707	2.084626	7.779345	-0.009900	-0.167380	0.093970	-0.532471	-0.489746	-0.461914	14.684770	34.646170	101.981821
56544		-5.561170	2.091277	7.794298	-0.017581	-0.191829	0.084353	-0.539063	-0.482178	-0.460693	14.689542	34.523996	102.005296
56545		-5.401745	2.028358	7.824413	-0.020992	-0.196699	0.082482	-0.537842	-0.480469	-0.465332	14.691366	34.399068	102.028687
56546		-4.963490	2.076183	7.964577	-0.019648	-0.171408	0.065474	-0.540283	-0.482178	-0.463623	14.689653	34.290937	102.045890
56547		-4.889799	2.062078	8.188162	-0.010987	-0.118284	0.035065	-0.541016	-0.483154	-0.452881	14.686973	34.216358	102.051216
56548		-5.366289	1.876881	8.008612	-0.004534	-0.080668	0.016418	-0.544434	-0.485596	-0.459961	14.684396	34.165540	102.050337
56549		-5.392490	1.872850	7.985411	0.004828	-0.063049	0.005937	-0.545898	-0.481934	-0.462158	14.685259	34.125806	102.045850
56550		-5.368594	2.072554	7.975160	-0.003642	-0.052155	-0.016528	-0.541260	-0.489014	-0.455566	14.673599	34.095570	102.028411
56551		-5.526678	2.015196	7.893076	-0.009345	-0.044513	-0.028913	-0.536133	-0.479492	-0.455811	14.655106	34.071165	102.003865
56552		-5.514118	2.066737	7.918923	-0.010381	-0.045050	-0.041431	-0.543701	-0.485596	-0.460693	14.630987	34.048502	101.969559
56553		-5.425171	2.113848	7.919715	-0.026632	-0.037442	-0.053182	-0.548828	-0.478516	-0.453613	14.594228	34.031507	101.930048
56554		-5.478259	2.140094	7.870664	-0.034729	-0.018708	-0.053701	-0.539307	-0.486816	-0.462158	14.554199	34.025053	101.893843
56555		-5.532871	2.073751	7.880243	-0.050378	0.008460	-0.058617	-0.549316	-0.486328	-0.454102	14.506279	34.034250	101.858691
56556		-5.537757	2.164812	7.932739	-0.066840	0.019946	-0.061099	-0.546387	-0.480225	-0.463379	14.448815	34.050320	101.822973
56557		-5.689200	1.963545	7.879116	-0.072641	0.014711	-0.066149	-0.545410	-0.479980	-0.446045	14.385885	34.064004	101.783820
56558		-5.606610	2.091463	7.910069	-0.064999	-0.000613	-0.065496	-0.542969	-0.485596	-0.460449	14.325863	34.069067	101.743024
56559		-5.702855	1.918478	7.898931	-0.061102	-0.000360	-0.048439	-0.540283	-0.483398	-0.457031	14.274721	34.071810	101.713126
56560		-5.659000	1.917186	7.868889	-0.054363	-0.014597	-0.043429	-0.542236	-0.486084	-0.450928	14.227681	34.066112	101.683651
56561		-5.637869	1.992630	7.876975	-0.048380	-0.030258	-0.042584	-0.541504	-0.481445	-0.459473	14.183190	34.051385	101.652603
56562		-5.558434	2.030013	7.825802	-0.047061	-0.061888	-0.033241	-0.539795	-0.475098	-0.457275	14.139753	34.017865	101.621597
56563		-5.477484	2.002465	7.876106	-0.048236	-0.078293	-0.032930	-0.551025	-0.482422	-0.456787	14.094491	33.975059	101.588972
56564		-5.375235	2.024009	7.983151	-0.044611	-0.095486	-0.043094	-0.540527	-0.470947	-0.449707	14.045700	33.924152	101.547934
56565		-5.325764	2.115682	7.898274	-0.044499	-0.090868	-0.054909	-0.536621	-0.485840	-0.452148	13.993310	33.877359	101.498611
56566		-5.394198	1.915011	8.026662	-0.037400	-0.081628	-0.056929	-0.543457	-0.481934	-0.456299	13.944943	33.836036	101.449239
56567		-5.453786	1.899862	7.977667	-0.032528	-0.069576	-0.051542	-0.546143	-0.483643	-0.455322	13.902771	33.800552	101.405845
56568		-5.522676	1.785564	7.934180	-0.023429	-0.066649	-0.041383	-0.548096	-0.481201	-0.445557	13.869670	33.765365	101.369718
56569		-5.376592	1.789068	7.966315	-0.015080	-0.066519	-0.036141	-0.555176	-0.480225	-0.446045	13.843591	33.729427	101.337218
56570		-5.207606	1.731351	7.980318	0.000289	-0.048866	-0.028402	-0.546387	-0.480469	-0.456055	13.830748	33.701978	101.312520
56571		-5.013841	1.896613	8.054067	0.016127	-0.010204	-0.036173	-0.551514	-0.472656	-0.452881	13.827725	33.697361	101.289308
56572		-5.197985	1.764911	8.074989	0.031913	0.025451	-0.038421	-0.548096	-0.479492	-0.459473	13.835906	33.712846	101.272735
56573		-5.215577	1.922299	7.971542	0.050084	0.061255	-0.030442	-0.546631	-0.481934	-0.446533	13.860996	33.747202	101.265130
56574		-5.301535	2.012342	8.024155	0.053280	0.090235	-0.036926	-0.550537	-0.479736	-0.461914	13.887919	33.798523	101.258821
56575		-5.467474	2.228048	7.992125	0.039502	0.089918	-0.049926	-0.546387	-0.485596	-0.447510	13.902329	33.851507	101.242943
56576		-5.606050	2.234450	7.920113	0.027115	0.083729	-0.068222	-0.550049	-0.483154	-0.452881	13.901992	33.903499	101.214747
56577		-5.610997	2.113896	7.933437	0.007746	0.073994	-0.065359	-0.543457	-0.479248	-0.448975	13.890928	33.949751	101.185867
56578		-5.576002	2.188890	7.909262	0.004247	0.061790	-0.080073	-0.547119	-0.482910	-0.451660	13.871015	33.991073	101.145871
56579		-5.546782	2.090189	7.880492	-0.010832	0.057433	-0.086027	-0.548584	-0.478516	-0.460449	13.839941	34.030931	101.100311
56580		-5.532670	2.055394	8.013223	-0.011246	0.056704	-0.088118	-0.540527	-0.485107	-0.460449	13.807531	34.070539	101.055431
56581		-5.558086	1.986638	7.933623	-0.016810	0.064776	-0.091381	-0.538574	-0.478516	-0.449219	13.771585	34.115169	101.007386
56582		-5.487635	1.965157	7.884562	-0.019903	0.073259	-0.091434	-0.549072	-0.485840	-0.455811	13.734347	34.164509	100.961506
56583		-5.462544	1.917770	7.937290	-0.019223	0.081799	-0.090560	-0.538330	-0.483154	-0.455322	13.698761	34.218453	100.916685
56584		-5.458103	1.899922	7.853899	-0.010901	0.086336	-0.090075	-0.545898	-0.489990	-0.452393	13.668315	34.274724	100.873880
56585		-5.277675	2.029694	7.972878	-0.010389	0.106122	-0.090232	-0.541504	-0.485352	-0.457275	13.640010	34.342125	100.833130
56586		-5.447165	1.873925	7.940347	-0.008153	0.127881	-0.096876	-0.530273	-0.479736	-0.454346	13.612270	34.422341	100.791619
56587		-5.622123	1.882504	7.858811	0.001580	0.138037	-0.086548	-0.536865	-0.479980	-0.455322	13.595007	34.506989	100.758425
56588		-5.601123	1.856661	7.836882	-0.000490	0.150018	-0.079618	-0.535645	-0.487549	-0.461914	13.580056	34.597300	100.733007
56589		-5.615495	1.865665	7.848826	0.002170	0.155252	-0.072080	-0.534912	-0.486572	-0.457764	13.570143	34.689576	100.712300
56590		-5.632235	1.933989	7.851390	-0.003188	0.162372	-0.067018	-0.535645	-0.487061	-0.460449	13.559537	34.785094	100.696742
56591		-5.670966	1.992227	7.859051	-0.008927	0.164405	-0.059261	-0.534424	-0.485596	-0.458496	13.548983	34.880740	100.686142
56592		-5.725033	1.895724	7.849062	-0.016190	0.160574	-0.054315	-0.525391	-0.484375	-0.450439	13.535656	34.973462	100.679043
56593		-5.707949	1.942524	7.837980	-0.023793	0.167735	-0.043376	-0.529297	-0.481689	-0.456543	13.523027	35.068830	100.679719
56594		-5.721274	1.892089	7.858332	-0.029468	0.171376	-0.041921	-0.531006	-0.484375	-0.453369	13.507954	35.165863	100.681357
56595		-5.701434	1.866442	7.835580	-0.027506	0.172424	-0.040047	-0.533447	-0.488037	-0.457031	13.494919	35.263399	100.685016
56596		-5.652534	1.793892	7.961004	-0.026366	0.174783	-0.040847	-0.523926	-0.471680	-0.459717	13.482420	35.362054	100.688047
56597		-5.722586	1.833584	7.919700	-0.018185	0.180700	-0.039549	-0.523926	-0.481201	-0.455322	13.475697	35.464135	100.693364
56598		-5.714482	1.781070	7.913187	-0.010523	0.194374	-0.042874	-0.521729	-0.483154	-0.459473	13.473221	35.574092	100.699949
56599		-5.720530	1.806092	7.884641	-0.002015	0.205360	-0.044269	-0.530273	-0.492188	-0.472656	13.476258	35.690543	100.706087
56600		-5.677165	1.951672	7.839852	0.002049	0.217810	-0.056358	-0.526855	-0.487549	-0.454834	13.477828	35.815459	100.706126
56601		-5.706662	1.920289	7.844129	0.003487	0.233930	-0.069457	-0.516602	-0.485840	-0.455078	13.476661	35.951192	100.699676
56602		-5.727083	1.916195	7.830235	-0.001194	0.251365	-0.076932	-0.514160	-0.489258	-0.464600	13.471431	36.097359	100.689082
56603		-5.705704	1.932068	7.805670	0.006209	0.272087	-0.083556	-0.511719	-0.486084	-0.466309	13.469751	36.256234	100.679166
56604		-5.754885	1.943469	7.834910	0.001134	0.300683	-0.092129	-0.515381	-0.482422	-0.464600	13.464232	36.432179	100.667115
56605		-5.719613	1.948679	7.873349	-0.000051	0.329576	-0.106769	-0.506348	-0.478760	-0.472656	13.454964	36.626182	100.650560
56606		-5.660174	1.878175	7.873445	0.002168	0.375909	-0.116416	-0.505371	-0.476318	-0.468994	13.447282	36.847217	100.635738
56607		-5.669079	1.962371	7.911405	0.007693	0.414000	-0.133005	-0.507813	-0.485596	-0.472412	13.439711	37.091757	100.614796
56608		-5.561243	1.880331	7.890424	0.007362	0.476250	-0.156851	-0.497803	-0.486816	-0.471191	13.427828	37.374049	100.587900
56609		-5.765254	1.804531	7.858441	0.013010	0.543760	-0.172139	-0.496582	-0.486084	-0.478516	13.419482	37.696105	100.560955
56610		-5.486289	1.893053	7.916439	0.014428	0.607597	-0.192149	-0.488281	-0.488770	-0.473877	13.409449	38.056312	100.530033
56611		-5.745630	1.702104	7.942068	0.004559	0.696178	-0.209262	-0.487061	-0.488770	-0.474121	13.395377	38.468240	100.502097
56612		-5.786036	1.563793	7.984293	0.027881	0.767281	-0.215972	-0.483887	-0.482422	-0.481934	13.398774	38.920520	100.480521
56613		-5.691608	1.689985	7.988833	0.043087	0.852829	-0.229518	-0.482422	-0.483154	-0.473633	13.413986	39.422449	100.464545
56614		-5.840253	1.653391	7.913294	0.050889	0.954032	-0.235345	-0.471191	-0.496826	-0.484131	13.441925	39.981310	100.461954
56615		-5.898753	1.595509	7.859430	0.056946	1.052455	-0.230191	-0.456055	-0.490479	-0.482666	13.487360	40.594575	100.480808
56616		-6.000630	1.513005	7.838992	0.073764	1.145569	-0.224863	-0.445068	-0.487061	-0.489258	13.556385	41.258747	100.520817
56617		-6.139559	1.598601	7.785883	0.095868	1.239773	-0.213176	-0.441162	-0.496826	-0.493896	13.656904	41.973994	100.588534
56618		-6.041495	1.716042	7.843141	0.106584	1.350428	-0.210744	-0.435303	-0.504883	-0.496338	13.780690	42.750111	100.680920
56619		-6.123785	1.782256	7.864785	0.129598	1.468863	-0.212228	-0.420166	-0.494385	-0.481689	13.935993	43.592437	100.798475
56620		-6.086047	1.959159	7.835944	0.120661	1.622737	-0.224410	-0.409912	-0.504883	-0.491455	14.104811	44.521375	100.941157
56621		-6.149928	2.163061	7.938060	0.093362	1.797642	-0.255779	-0.389893	-0.494873	-0.498291	14.271632	45.551940	101.100445
56622		-6.172438	2.235914	8.040911	0.058419	2.005071	-0.297443	-0.381104	-0.500244	-0.500000	14.432140	46.702765	101.276005
56623		-6.155128	2.381032	7.979276	0.020845	2.235716	-0.360670	-0.360840	-0.502441	-0.505127	14.578159	47.990742	101.457455
56624		-6.228550	2.331199	7.889970	-0.016116	2.484765	-0.438313	-0.344482	-0.505859	-0.503174	14.704784	49.427118	101.637603
56625		-6.402923	2.107085	7.839257	-0.053129	2.750138	-0.519636	-0.315918	-0.502441	-0.502686	14.813923	51.022758	101.818399
56626		-6.255771	1.958795	7.756611	-0.077860	2.994385	-0.603875	-0.303223	-0.501953	-0.509521	14.906984	52.765064	101.992701
56627		-6.367251	1.998732	7.623553	-0.103300	3.279890	-0.710337	-0.269287	-0.496338	-0.516846	14.975717	54.681764	102.150597
56628		-6.370282	2.463336	7.428542	-0.126006	3.597259	-0.853956	-0.245117	-0.500488	-0.505615	14.995446	56.794365	102.261193
56629		-6.835730	2.694923	7.176162	-0.156303	3.918335	-1.036763	-0.207764	-0.496582	-0.510498	14.918759	59.112716	102.275659
56630		-8.136133	2.703813	7.397557	-0.072466	4.206833	-1.182546	-0.179443	-0.495605	-0.510254	14.817348	61.611102	102.206140
56631		-8.785479	3.540066	7.147890	-0.025883	4.478067	-1.334681	-0.142578	-0.493652	-0.507080	14.636261	64.283029	102.018819
56632		-9.964930	3.574263	7.314868	-0.018625	4.724682	-1.491640	-0.100586	-0.499512	-0.491943	14.295727	67.112450	101.656332
56633		-11.812894	3.722765	7.427052	-0.024632	4.867904	-1.628469	-0.062744	-0.489746	-0.490479	13.699743	70.040558	101.030820
56634		-12.478807	2.926221	7.403073	0.092068	4.847338	-1.730640	-0.029297	-0.486328	-0.468994	12.775813	72.965766	100.000562
56635		-13.816427	2.466218	7.926300	0.333643	4.779782	-1.814760	0.010254	-0.489990	-0.468262	11.385565	75.857805	98.358610
56636		-13.311082	3.112512	7.189268	0.579814	4.574092	-1.904103	0.040039	-0.496826	-0.453369	9.040304	78.625615	95.613405
56637		-13.861438	3.341785	7.169815	0.696398	4.404596	-2.003744	0.081299	-0.485107	-0.435303	4.730402	81.267365	90.831714
56638		-14.020782	3.123643	6.825592	0.823941	4.173153	-2.085937	0.111328	-0.486084	-0.423584	-3.646862	83.671430	81.906813
56639		-14.402699	2.898480	6.696571	1.024481	3.925938	-2.156104	0.129883	-0.481689	-0.408936	-21.129160	85.625282	63.761613
56640		-15.691400	2.900490	7.340773	1.335117	3.555641	-2.147237	0.169189	-0.486572	-0.387207	-52.992384	86.544662	31.061277
56641		-15.666608	2.278050	7.347036	1.723822	2.993030	-2.070675	0.195068	-0.490967	-0.374268	-83.765899	86.056588	-0.763331
56642		-13.428249	1.981278	6.133402	2.104482	2.425403	-2.006766	0.216064	-0.501709	-0.349365	-99.604468	84.857951	-17.860633
56643		-7.035877	2.492159	4.498768	2.315104	1.842478	-1.993357	0.221191	-0.509277	-0.339600	-105.893896	83.511793	-25.515970
56644		1.080013	0.765164	6.948950	2.393572	1.516757	-1.858372	0.236816	-0.510986	-0.332520	-108.600411	82.243148	-29.626353
56645		-28.640333	7.563722	16.802826	2.652491	0.067521	-1.300955	0.245605	-0.524658	-0.329834	-105.779096	81.523497	-28.312304
56646		-10.744810	10.482204	12.430265	2.136081	-1.834172	-0.837626	0.230225	-0.528320	-0.330078	-97.073016	81.267685	-20.746417
56647		-0.728337	10.953072	6.965834	1.036479	-2.267714	-0.753170	0.225098	-0.531006	-0.334961	-88.055515	80.896920	-12.220778
56648		-1.132434	6.047828	5.931618	0.233955	-2.355692	-0.700789	0.213135	-0.528809	-0.342041	-79.980778	80.361323	-4.174613
56649		-1.927287	2.225357	5.775786	0.154201	-2.369750	-0.421748	0.206787	-0.525391	-0.350098	-72.645258	79.806362	3.181450
56650		-1.175304	0.834880	5.127907	0.469041	-2.422921	0.018716	0.203613	-0.531494	-0.363525	-65.259682	79.320258	10.415831
56651		-1.636141	1.573090	5.336268	0.819620	-2.502722	0.494189	0.183105	-0.540771	-0.373047	-57.519486	78.882427	17.818891
56652		-1.683457	3.191791	5.367536	0.852692	-2.624218	0.826612	0.173584	-0.534424	-0.384766	-49.557916	78.369160	25.439057
56653		-2.128309	3.292016	5.476628	0.656398	-2.750549	0.987553	0.145752	-0.551758	-0.398193	-41.972360	77.673703	32.807773
56654		-3.020013	1.853964	5.841411	0.506586	-2.956616	1.069905	0.135742	-0.552979	-0.407227	-34.879114	76.723316	39.781252
56655		-3.270668	0.218892	6.032650	0.558167	-3.204308	1.104782	0.106445	-0.565674	-0.418213	-28.462644	75.490172	46.060259
56656		-2.984396	-0.747121	5.917146	0.763196	-3.417337	1.094862	0.090820	-0.568115	-0.428955	-22.804157	73.989404	51.469027
56657		-2.365904	-0.911197	5.408778	0.962293	-3.515773	1.044847	0.065674	-0.576904	-0.452881	-18.063579	72.307612	55.844851
56658		-2.305434	-0.617023	4.924972	1.080110	-3.450445	0.989232	0.048340	-0.597412	-0.457520	-14.158600	70.557609	59.308115
56659		-3.293166	-0.194968	5.172907	1.077129	-3.263877	0.984879	0.016113	-0.598389	-0.465088	-10.942039	68.851868	62.078493
56660		-5.014398	0.282361	6.157320	0.983523	-3.115878	1.102079	-0.002930	-0.612793	-0.483887	-8.080239	67.186645	64.553628
56661		-6.128889	0.753239	7.311732	0.816062	-3.061446	1.322214	-0.034912	-0.619141	-0.495605	-5.414402	65.530510	66.952264
56662		-6.846961	0.336951	8.384587	0.679069	-3.087125	1.543229	-0.054199	-0.635254	-0.502686	-2.871899	63.820372	69.331136
56663		-7.620850	-0.405973	8.735291	0.669064	-3.154399	1.673640	-0.085449	-0.642822	-0.512207	-0.501805	62.038568	71.561251
56664		-8.479063	-0.455679	8.618144	0.732888	-3.232856	1.641575	-0.121338	-0.652588	-0.524170	1.605491	60.166624	73.484994
56665		-9.334062	0.027803	8.234374	0.755330	-3.296309	1.463667	-0.159180	-0.665039	-0.527100	3.313729	58.240197	74.968833
56666		-9.897443	0.513708	8.044184	0.742119	-3.310048	1.263517	-0.184326	-0.674805	-0.532959	4.669659	56.286783	76.071651
56667		-10.196438	1.085207	7.764597	0.741551	-3.269321	1.185340	-0.225586	-0.678467	-0.525146	5.829059	54.355746	76.963910
56668		-10.186638	2.057904	7.489150	0.719149	-3.146764	1.249150	-0.265381	-0.693115	-0.521973	6.939997	52.473026	77.830451
56669		-10.646669	3.171021	7.580477	0.652351	-2.971265	1.467075	-0.299316	-0.688965	-0.510498	8.087605	50.671627	78.817291
56670		-11.137612	3.843299	7.954140	0.530328	-2.814522	1.828562	-0.332275	-0.696289	-0.506836	9.336949	48.907356	80.051191
56671		-11.413990	4.093951	8.332876	0.410873	-2.696294	2.284437	-0.363037	-0.694580	-0.489502	10.709963	47.154381	81.580160
56672		-11.770277	4.604814	8.675569	0.235534	-2.635704	2.706407	-0.403564	-0.694824	-0.481934	12.128803	45.355244	83.352860
56673		-12.043218	4.446895	9.017344	-0.012077	-2.614291	3.036219	-0.418213	-0.688477	-0.474609	13.462752	43.505202	85.267055
56674		-11.868512	3.700405	9.259430	-0.220099	-2.648878	3.285531	-0.457031	-0.679443	-0.477295	14.680340	41.563265	87.249989
56675		-11.323475	3.207618	9.316833	-0.368851	-2.676740	3.465723	-0.488037	-0.666748	-0.466064	15.766894	39.557802	89.244654
56676		-10.922227	2.774273	9.397192	-0.491973	-2.671970	3.556977	-0.528564	-0.656982	-0.466797	16.708061	37.505918	91.203315
56677		-10.727595	2.079890	9.613708	-0.577265	-2.663493	3.583091	-0.542725	-0.645264	-0.465088	17.498260	35.439335	93.087677
56678		-10.623813	1.128093	9.838103	-0.604897	-2.656871	3.553769	-0.581299	-0.632080	-0.451904	18.164130	33.354603	94.875459
56679		-10.387348	0.772281	9.879538	-0.602651	-2.656329	3.458628	-0.618896	-0.601807	-0.445557	18.705538	31.279860	96.532659
56680		-10.190619	0.904580	9.803485	-0.667986	-2.635691	3.254574	-0.643555	-0.592773	-0.429932	19.070264	29.235549	98.012137
56681		-10.396880	0.683673	9.691370	-0.756113	-2.603524	2.968869	-0.667725	-0.582031	-0.424316	19.239072	27.264105	99.282657
56682		-10.816736	0.194813	9.659971	-0.770700	-2.604128	2.656626	-0.688477	-0.560303	-0.407959	19.267129	25.342128	100.339187
56683		-10.957697	0.181374	9.509292	-0.696593	-2.633943	2.332142	-0.718750	-0.543213	-0.395752	19.216247	23.472810	101.180400
56684		-11.117725	0.189644	9.162821	-0.576615	-2.665104	2.015168	-0.744629	-0.543457	-0.381348	19.132391	21.640362	101.820303
56685		-10.938803	-0.154252	8.234150	-0.399727	-2.701800	1.734619	-0.761963	-0.529297	-0.352539	19.068523	19.848251	102.284845
56686		-9.876704	-0.511985	6.912487	-0.183174	-2.638757	1.424785	-0.782227	-0.520020	-0.333008	19.060555	18.142294	102.580493
56687		-9.171457	-0.927957	5.627135	0.059929	-2.431528	1.108004	-0.794922	-0.507080	-0.322998	19.141158	16.614001	102.733310
56688		-9.059784	-1.008004	4.696147	0.291807	-2.145042	0.807964	-0.809570	-0.509033	-0.290527	19.318604	15.291334	102.768727
56689		-9.296940	-0.765326	4.029516	0.459303	-1.825040	0.535790	-0.820801	-0.504639	-0.279297	19.567449	14.199006	102.710023
56690		-9.530296	-0.376248	3.487499	0.536967	-1.510066	0.313897	-0.831299	-0.512939	-0.262695	19.845891	13.314696	102.585696
56691		-10.328672	-0.072658	3.133760	0.547964	-1.231813	0.154397	-0.837646	-0.508789	-0.244385	20.124486	12.617065	102.425309
56692		-10.576512	0.403826	2.569025	0.493890	-1.009383	0.045728	-0.848389	-0.515625	-0.236816	20.369684	12.056966	102.247265
56693		-10.948105	0.694736	2.236502	0.402759	-0.792843	-0.044752	-0.856201	-0.515625	-0.222412	20.563077	11.636204	102.062212
56694		-11.170291	0.843408	1.922810	0.303014	-0.629441	-0.105353	-0.860107	-0.524414	-0.214111	20.700012	11.312309	101.876549
56695		-10.659895	1.003925	1.502262	0.196759	-0.450046	-0.153104	-0.862061	-0.522461	-0.211426	20.779366	11.098081	101.701591
56696		-10.143590	1.086789	1.212299	0.089260	-0.214887	-0.191082	-0.861572	-0.520752	-0.194580	20.802573	11.015001	101.554425
56697		-9.731498	1.256106	1.139448	-0.008029	0.041433	-0.196437	-0.863770	-0.537354	-0.191406	20.780035	11.073000	101.457561
56698		-9.623293	1.571965	1.295172	-0.119682	0.318277	-0.174301	-0.868164	-0.534912	-0.187500	20.706441	11.272824	101.429876
56699		-9.498744	1.814599	1.381651	-0.260045	0.565423	-0.123413	-0.858887	-0.535889	-0.187012	20.568125	11.596779	101.480627
56700		-9.473032	1.702826	1.456284	-0.378295	0.816585	-0.059131	-0.864258	-0.531250	-0.199707	20.379759	12.041580	101.617121
56701		-9.684389	1.538921	1.591193	-0.454020	1.040890	0.027235	-0.874268	-0.529053	-0.205566	20.168943	12.591479	101.845432
56702		-6.340014	-0.498668	3.320280	-0.451085	1.238778	0.116668	-0.865479	-0.518799	-0.213135	19.981619	13.230534	102.161577
56703		-3.893679	0.615469	4.964751	0.352187	2.185760	-0.193236	-0.867676	-0.533936	-0.222168	20.264983	14.440400	102.500066
56704		6.448330	7.283160	7.868907	-0.065824	2.326025	-0.474991	-0.856445	-0.527832	-0.229980	20.283877	15.780523	102.715730
56705		-2.147660	3.592204	12.900406	-0.167497	2.292545	-0.975161	-0.848633	-0.533203	-0.247314	20.168274	17.202094	102.644412
56706		-2.279858	4.660238	9.106069	-0.042800	2.419084	-0.967032	-0.838379	-0.535400	-0.260986	20.130983	18.689422	102.601336
56707		-2.360119	5.023829	6.829383	-0.117382	2.826696	-0.934156	-0.837646	-0.544678	-0.282227	20.084199	20.390163	102.660704
56708		-3.274026	4.366111	7.304120	-0.207136	3.456774	-0.955855	-0.814209	-0.547119	-0.301758	20.031488	22.433665	102.839657
56709		-9.860898	3.393769	10.490252	-0.194220	3.703398	-0.886787	-0.793457	-0.554688	-0.318115	20.030141	24.597116	103.113619
56710		-13.671174	3.859906	11.405513	-0.248464	3.418215	-0.791965	-0.788574	-0.558838	-0.343994	20.006224	26.588018	103.386237
56711		-15.337125	4.226224	11.969556	-0.499090	2.911244	-0.885227	-0.777588	-0.554688	-0.356445	19.768804	28.324977	103.490203
56712		-17.921762	4.323559	11.724583	-0.736966	2.084707	-1.072993	-0.767822	-0.556641	-0.371338	19.248142	29.652162	103.285840
56713		-16.711822	3.436459	10.055327	-0.719924	1.215781	-1.073600	-0.760498	-0.572998	-0.380615	18.631298	30.506607	102.876900
56714		-12.003640	2.280620	9.455546	-0.667125	0.727309	-0.802443	-0.755615	-0.560547	-0.386963	18.069102	31.043664	102.523933
56715		-7.609491	1.024628	9.216333	-0.502424	0.509079	-0.609472	-0.746094	-0.562744	-0.388428	17.635679	31.424302	102.242043
56716		-5.796432	1.122517	8.868011	-0.391538	0.447249	-0.467573	-0.748047	-0.562500	-0.393066	17.303255	31.746253	102.034633
56717		-5.969309	2.288523	8.121932	-0.336700	0.402366	-0.419544	-0.744873	-0.565918	-0.398926	17.011598	32.033416	101.846555
56718		-6.438594	2.537651	7.920728	-0.337184	0.303129	-0.375358	-0.748291	-0.558838	-0.397217	16.722429	32.259170	101.665275
56719		-6.308385	2.212354	8.140382	-0.322317	0.199678	-0.308781	-0.742188	-0.558350	-0.401855	16.452988	32.415315	101.505649
56720		-6.165445	1.761032	8.366457	-0.299280	0.128018	-0.236569	-0.744385	-0.567139	-0.404541	16.213595	32.521053	101.378252
56721		-6.058819	1.329707	8.554290	-0.227359	0.085132	-0.152344	-0.745605	-0.558594	-0.397705	16.040376	32.588164	101.297283
56722		-5.886926	1.558139	8.411661	-0.156359	0.052960	-0.088830	-0.740723	-0.563477	-0.406982	15.926490	32.628631	101.251429
56723		-5.651271	1.941896	8.229902	-0.106175	0.047783	-0.045176	-0.740723	-0.555664	-0.411621	15.856456	32.658066	101.233228
56724		-5.570812	2.046786	8.122737	-0.075357	0.038328	-0.025644	-0.738037	-0.566406	-0.402100	15.809667	32.680507	101.225847
56725		-5.344189	2.442376	7.909769	-0.071118	0.030786	-0.027062	-0.744385	-0.566895	-0.405762	15.764376	32.697719	101.216292
56726		-5.241218	2.558178	7.797796	-0.094441	0.031855	-0.042167	-0.737305	-0.556396	-0.405518	15.700123	32.719149	101.196837
56727		-5.318972	2.446231	7.866227	-0.117014	0.035799	-0.052412	-0.738037	-0.556152	-0.406250	15.620013	32.743030	101.171528
56728		-5.272401	2.186335	7.949196	-0.129065	0.029942	-0.061460	-0.741943	-0.558594	-0.415771	15.528855	32.766322	101.139002
56729		-5.223014	2.201481	7.991043	-0.134519	0.035351	-0.073300	-0.737061	-0.555908	-0.399170	15.431170	32.793082	101.099791
56730		-5.596515	2.098718	8.012033	-0.125414	0.041499	-0.075834	-0.735107	-0.554443	-0.413086	15.338031	32.824842	101.059799
56731		-5.621145	2.061951	7.998746	-0.111038	0.013264	-0.062187	-0.738281	-0.551514	-0.397705	15.255511	32.837611	101.023799
56732		-5.406991	2.097961	8.062576	-0.101365	0.010469	-0.067778	-0.741455	-0.556885	-0.407715	15.175916	32.850918	100.983426
56733		-5.354550	2.087964	8.064647	-0.095407	0.004844	-0.075745	-0.735596	-0.556641	-0.405273	15.096654	32.860973	100.936948
56734		-5.396739	1.970780	8.047813	-0.087558	0.011410	-0.075963	-0.742188	-0.548828	-0.404541	15.022083	32.875921	100.891294
56735		-5.311126	1.922526	8.106193	-0.075523	0.017405	-0.073936	-0.745361	-0.553955	-0.407227	14.956020	32.892560	100.848179
56736		-5.281548	1.905300	8.112524	-0.059411	0.032699	-0.071534	-0.741455	-0.558105	-0.413818	14.901120	32.918546	100.809120
56737		-5.247771	2.048316	8.099548	-0.048324	0.046924	-0.068478	-0.736084	-0.558838	-0.409180	14.855346	32.950659	100.774718
56738		-5.448403	2.002234	8.028694	-0.040270	0.068270	-0.066259	-0.738525	-0.562744	-0.414795	14.816595	32.995505	100.745275
56739		-5.422493	2.019722	7.981657	-0.033944	0.060304	-0.059551	-0.738770	-0.554443	-0.409668	14.783460	33.033683	100.719022
56740		-5.354260	2.052987	8.014090	-0.034570	0.070631	-0.055723	-0.736572	-0.556152	-0.411133	14.751904	33.078269	100.696860
56741		-5.600601	2.015820	7.993542	-0.032048	0.088425	-0.041584	-0.731445	-0.550293	-0.407959	14.728944	33.129387	100.687311
56742		-5.512171	2.078450	7.947945	-0.034704	0.088993	-0.029975	-0.734863	-0.558350	-0.415527	14.708303	33.180385	100.685312
56743		-5.443498	2.085568	7.939035	-0.042481	0.079784	-0.038326	-0.740479	-0.551270	-0.417725	14.679679	33.226234	100.676360
56744		-5.385348	2.127408	7.847845	-0.050070	0.065218	-0.056681	-0.735840	-0.558594	-0.409424	14.638232	33.267925	100.652474
56745		-5.412761	2.109525	7.851698	-0.059686	0.048168	-0.077650	-0.731689	-0.554932	-0.413818	14.582377	33.301918	100.611887
56746		-5.331654	2.139933	7.827873	-0.070358	0.036199	-0.085004	-0.732666	-0.558105	-0.417969	14.516157	33.331554	100.564098
56747		-5.408666	1.994676	7.943591	-0.071910	0.028904	-0.088509	-0.734131	-0.560059	-0.419922	14.447419	33.356340	100.512876
56748		-5.377977	1.931560	7.980278	-0.061374	0.023337	-0.085095	-0.738770	-0.552002	-0.409424	14.385012	33.378754	100.462723
56749		-5.266005	2.027258	7.974262	-0.053933	0.029211	-0.087334	-0.734131	-0.551270	-0.412842	14.326946	33.403449	100.412242
56750		-5.357239	1.991883	8.016660	-0.044363	0.033427	-0.089183	-0.731689	-0.556641	-0.415771	14.273642	33.431946	100.360997
56751		-5.516364	2.049563	7.965268	-0.040372	0.020878	-0.087906	-0.731934	-0.561523	-0.416016	14.222276	33.452015	100.308642
56752		-5.580936	1.970861	7.921170	-0.040178	0.009624	-0.086813	-0.735352	-0.552979	-0.420898	14.169950	33.466874	100.254880
56753		-5.527985	1.933925	7.972841	-0.034799	0.006936	-0.073500	-0.738037	-0.559814	-0.403076	14.125722	33.477103	100.209719
56754		-5.535406	2.044795	7.953611	-0.040373	0.010608	-0.071994	-0.734863	-0.554688	-0.417969	14.078774	33.490371	100.165950
56755		-5.472395	2.054227	7.916610	-0.050075	0.012063	-0.074238	-0.729248	-0.556885	-0.415771	14.025959	33.503490	100.121119
56756		-5.387630	2.041445	7.924258	-0.049452	0.020624	-0.073406	-0.733887	-0.554688	-0.411865	13.974174	33.522457	100.078036
56757		-5.311864	1.955272	7.979198	-0.050603	0.034529	-0.076434	-0.740723	-0.556152	-0.424561	13.922251	33.548303	100.035414
56758		-5.397658	2.020179	8.013619	-0.045580	0.051757	-0.073828	-0.728271	-0.560547	-0.421143	13.875304	33.584569	99.997128
56759		-5.443649	1.952091	7.961244	-0.043957	0.069619	-0.070064	-0.730713	-0.553467	-0.414551	13.832652	33.629003	99.964455
56760		-5.368669	1.808161	8.022852	-0.036392	0.084548	-0.065724	-0.734619	-0.560303	-0.421143	13.796853	33.682349	99.936875
56761		-5.403434	1.896568	7.984433	-0.026821	0.101967	-0.058754	-0.726563	-0.550781	-0.421631	13.771056	33.743207	99.916971
56762		-5.273761	1.916957	8.028595	-0.022121	0.125893	-0.045362	-0.732178	-0.559814	-0.416260	13.754671	33.816754	99.909701
56763		-5.354631	1.986590	7.998767	-0.017196	0.146064	-0.048299	-0.731689	-0.556396	-0.416016	13.742234	33.900720	99.903955
56764		-5.333551	1.930131	8.027183	-0.009663	0.174323	-0.042204	-0.728271	-0.553223	-0.422852	13.738563	34.000769	99.906699
56765		-5.342149	1.982056	8.040360	-0.004700	0.203481	-0.038593	-0.733398	-0.564453	-0.420410	13.742188	34.115369	99.916878
56766		-5.396314	2.045886	8.012394	-0.001245	0.228302	-0.044076	-0.721924	-0.557129	-0.420654	13.747643	34.245693	99.927262
56767		-5.451180	2.096195	7.962429	0.000067	0.253370	-0.050715	-0.724121	-0.557373	-0.426025	13.754102	34.389707	99.937556
56768		-5.480102	2.038250	7.925120	-0.006260	0.266239	-0.060271	-0.719971	-0.553711	-0.419922	13.754134	34.543331	99.943343
56769		-5.540762	2.113561	7.913786	-0.003303	0.282841	-0.080725	-0.717041	-0.561035	-0.426025	13.749971	34.707835	99.938260
56770		-5.590912	1.951813	7.939715	-0.010836	0.294847	-0.095840	-0.724121	-0.557861	-0.427979	13.736367	34.882209	99.924677
56771		-5.618665	1.959316	7.943086	0.000868	0.315765	-0.098228	-0.718018	-0.553711	-0.428223	13.730836	35.067417	99.913084
56772		-5.743838	1.929858	7.932237	0.008513	0.333061	-0.105167	-0.715332	-0.556152	-0.429199	13.728188	35.264315	99.899395
56773		-5.777157	2.029087	7.872951	0.011149	0.344880	-0.106744	-0.707520	-0.558838	-0.436279	13.727885	35.466885	99.886767
56774		-5.826787	2.000011	7.836692	0.017034	0.361765	-0.113510	-0.710449	-0.559326	-0.431152	13.729472	35.680889	99.872095
56775		-5.889758	2.033479	7.756946	0.008586	0.367682	-0.121064	-0.710938	-0.567871	-0.435303	13.724070	35.898097	99.853391
56776		-5.836169	2.114272	7.686045	0.009066	0.375047	-0.135208	-0.705078	-0.556396	-0.437988	13.713473	36.122439	99.825898
56777		-5.781518	1.820833	7.801827	0.010457	0.385979	-0.142351	-0.698975	-0.561035	-0.437744	13.702045	36.352718	99.795387
56778		-5.895264	1.826697	7.820058	0.030590	0.403786	-0.139365	-0.697754	-0.564697	-0.437744	13.704641	36.593609	99.769632
56779		-5.891864	1.869349	7.826564	0.047247	0.425116	-0.140872	-0.696777	-0.565674	-0.448242	13.718562	36.845473	99.746608
56780		-5.847369	1.807433	7.788672	0.062805	0.459593	-0.144146	-0.695801	-0.561768	-0.450195	13.743122	37.118075	99.726990
56781		-5.915815	1.911580	7.743714	0.073081	0.505319	-0.136895	-0.697266	-0.570068	-0.445313	13.781741	37.414047	99.720598
56782		-5.977285	1.885164	7.695448	0.076472	0.530587	-0.137131	-0.687012	-0.570557	-0.449951	13.824607	37.725196	99.718422
56783		-5.840924	1.918925	7.692012	0.078711	0.571869	-0.144807	-0.680420	-0.572998	-0.458496	13.870381	38.059282	99.718519
56784		-5.802638	1.868463	7.699937	0.084026	0.630743	-0.154725	-0.675049	-0.560547	-0.459473	13.921089	38.428540	99.722047
56785		-6.005597	1.503555	7.670027	0.081281	0.696211	-0.170335	-0.677734	-0.576172	-0.451416	13.971176	38.835293	99.726690
56786		-5.902441	1.663986	7.750440	0.127240	0.729393	-0.184271	-0.681152	-0.572021	-0.470215	14.045047	39.263457	99.727637
56787		-6.112008	1.619654	7.677078	0.154507	0.789766	-0.192893	-0.666016	-0.571289	-0.463135	14.138456	39.725336	99.734345
56788		-6.063163	1.739708	7.683956	0.169868	0.855580	-0.182409	-0.657959	-0.577881	-0.469482	14.253649	40.223292	99.761596
56789		-6.069348	1.887809	7.630474	0.173488	0.899127	-0.198826	-0.647217	-0.579590	-0.473389	14.370011	40.746703	99.786768
56790		-6.187124	1.911555	7.545482	0.168007	0.972071	-0.211173	-0.645996	-0.590576	-0.477051	14.487131	41.313273	99.817999
56791		-6.250002	1.890683	7.527384	0.176192	1.036939	-0.212804	-0.638916	-0.583252	-0.476074	14.618399	41.915038	99.862719
56792		-6.350551	1.875849	7.492755	0.175099	1.116438	-0.216282	-0.632568	-0.582520	-0.485352	14.759276	42.562206	99.922509
56793		-6.413174	1.882983	7.447562	0.166930	1.184408	-0.200071	-0.623535	-0.590332	-0.476563	14.916054	43.243606	100.011402
56794		-6.410657	1.909302	7.371783	0.149402	1.255001	-0.200694	-0.614502	-0.589600	-0.480469	15.075250	43.964858	100.117580
56795		-6.542924	1.867913	7.303349	0.142287	1.341480	-0.197439	-0.604492	-0.589844	-0.489746	15.249250	44.732347	100.248986
56796		-6.615843	1.804173	7.200244	0.136467	1.419881	-0.191873	-0.600098	-0.599854	-0.491699	15.439481	45.542827	100.406529
56797		-6.680433	1.768060	7.075482	0.132410	1.497989	-0.192483	-0.588867	-0.592773	-0.498291	15.646126	46.395308	100.587565
56798		-6.791464	1.716318	7.034943	0.131181	1.574008	-0.195045	-0.575928	-0.593262	-0.498779	15.870115	47.290395	100.791065
56799		-6.836117	1.688901	7.088127	0.123665	1.668330	-0.192047	-0.568848	-0.603027	-0.508789	16.117452	48.235612	101.028591
56800		-6.777006	2.069120	7.007714	0.106061	1.786089	-0.200050	-0.555176	-0.602051	-0.515625	16.381605	49.246873	101.298641
56801		-6.728818	2.029404	6.972825	0.092455	1.929615	-0.239207	-0.542969	-0.601074	-0.523438	16.654033	50.341800	101.585163
56802		-6.883965	2.024559	7.112421	0.080923	2.091343	-0.280111	-0.528076	-0.609619	-0.521729	16.940274	51.531909	101.893586
56803		-6.797102	2.207059	7.115527	0.051343	2.266353	-0.323374	-0.498291	-0.609863	-0.531006	17.236266	52.823533	102.230252
56804		-6.929355	2.206244	6.989163	0.044214	2.463644	-0.388283	-0.492188	-0.612793	-0.532959	17.547887	54.233515	102.585736
56805		-7.115760	2.115369	6.889960	0.040025	2.651620	-0.454838	-0.465332	-0.612305	-0.541748	17.879811	55.756004	102.962180
56806		-7.308952	2.124227	6.694283	0.017510	2.864196	-0.515132	-0.455566	-0.614746	-0.544678	18.238453	57.404006	103.379298
56807		-7.497598	2.232808	6.540401	0.019743	3.083021	-0.589486	-0.436523	-0.617432	-0.546387	18.639219	59.182533	103.836295
56808		-8.090440	2.486799	6.445858	0.007695	3.298847	-0.682126	-0.402344	-0.614502	-0.559570	19.066421	61.093635	104.323235
56809		-8.898771	2.992927	6.344998	0.043559	3.470316	-0.785615	-0.376465	-0.622070	-0.565186	19.534444	63.114928	104.823774
56810		-9.713360	3.327086	6.135161	0.061723	3.612391	-0.908475	-0.357666	-0.623779	-0.569336	20.008022	65.234660	105.309979
56811		-10.620329	3.509756	5.905196	0.090836	3.650873	-1.038778	-0.329102	-0.630127	-0.570313	20.440112	67.399128	105.724220
56812		-11.298191	3.483628	5.630732	0.072031	3.625495	-1.158737	-0.294434	-0.633789	-0.562012	20.763623	69.572873	106.026951
56813		-12.473353	2.700447	5.510850	0.091295	3.471622	-1.238991	-0.274170	-0.632324	-0.559814	20.948836	71.680228	106.167149
56814		-11.690012	1.906006	4.416352	0.197546	3.277086	-1.306469	-0.242676	-0.637451	-0.557861	20.980453	73.696946	106.081098
56815		-12.265998	1.682021	4.499097	0.379514	3.057125	-1.340049	-0.220703	-0.643799	-0.563477	20.871250	75.603103	105.741752
56816		-11.867306	2.011113	3.774190	0.548654	2.782412	-1.355789	-0.208984	-0.649170	-0.550537	20.513187	77.364442	105.049622
56817		-11.643828	1.931166	3.094273	0.689612	2.542526	-1.379370	-0.184326	-0.641846	-0.547363	19.768417	79.000206	103.884512
56818		-10.932560	1.874754	2.540407	0.819184	2.345335	-1.418624	-0.166260	-0.656738	-0.531982	18.429377	80.531562	102.046389
56819		-10.406763	1.744381	2.273532	0.992776	2.197470	-1.454537	-0.144531	-0.663086	-0.535889	16.281765	81.978272	99.297581
56820		-10.308366	1.752494	2.373978	1.164147	2.070877	-1.498460	-0.135254	-0.675293	-0.517334	12.830618	83.338854	95.145031
56821		-10.723698	1.480723	2.653348	1.376357	1.923359	-1.525760	-0.122070	-0.682861	-0.508545	7.331652	84.574978	88.822114
56822		-10.868282	1.253097	2.701772	1.609947	1.735088	-1.529076	-0.113525	-0.695801	-0.502686	-1.302526	85.613346	79.230223
56823		-11.304233	1.049131	2.654099	1.828478	1.531840	-1.513999	-0.093994	-0.713867	-0.477539	-14.191838	86.368852	65.259065
56824		-10.941899	1.105238	2.360078	1.989411	1.259777	-1.492394	-0.093018	-0.725586	-0.481201	-30.668935	86.711461	47.609824
56825		-9.222693	1.449865	2.214029	2.031317	1.001290	-1.506551	-0.081543	-0.734863	-0.466553	-47.194755	86.613546	29.889923
56826		-5.487739	2.673066	4.033271	1.912834	0.723176	-1.473399	-0.069580	-0.742432	-0.444580	-59.335173	86.182477	16.626932
56827		-11.660148	5.279737	10.629160	1.691296	0.047237	-0.965385	-0.085938	-0.755859	-0.437012	-62.437610	85.713219	12.544667
56828		-20.302231	8.193830	12.896354	1.416621	-1.380120	-0.486710	-0.092041	-0.769775	-0.434814	-54.963524	85.064157	19.227766
56829		-6.717294	7.154295	9.323032	0.892296	-2.208500	-0.290609	-0.117676	-0.772705	-0.416016	-45.263756	84.122181	28.456223
56830		-1.498706	5.636102	6.215828	0.328542	-2.420050	-0.288681	-0.145020	-0.782227	-0.414795	-37.956363	82.972491	35.619284
56831		-3.143112	2.931301	6.402554	0.039441	-2.407300	-0.360271	-0.178955	-0.786133	-0.417969	-33.175750	81.728514	40.419065
56832		-3.594232	1.326843	6.437812	0.084303	-2.413453	-0.420565	-0.207031	-0.789063	-0.405273	-29.787110	80.420422	43.798896
56833		-3.347633	0.912589	6.076546	0.271587	-2.432004	-0.446396	-0.232178	-0.795410	-0.391113	-27.176393	79.071953	46.293032
56834		-3.544614	1.480106	6.200650	0.466133	-2.480326	-0.504436	-0.263916	-0.803711	-0.394043	-25.089914	77.665131	48.148996
56835		-3.853449	1.955647	6.395458	0.562134	-2.507297	-0.612177	-0.293945	-0.811279	-0.377930	-23.575485	76.209866	49.372266
56836		-4.734368	2.202494	6.595705	0.632445	-2.567870	-0.726343	-0.323730	-0.820313	-0.367432	-22.441487	74.688699	50.167678
56837		-5.755922	2.177524	6.841407	0.721022	-2.686441	-0.770744	-0.359375	-0.822266	-0.339111	-21.440456	73.094070	50.778890
56838		-6.460308	2.506172	6.945231	0.803654	-2.843758	-0.725427	-0.401855	-0.841064	-0.315918	-20.350358	71.418811	51.437819
56839		-5.680097	2.995539	6.478348	0.807356	-2.947097	-0.610061	-0.426514	-0.842285	-0.289307	-19.189308	69.709488	52.177721
56840		-4.639143	3.052538	5.850454	0.745877	-2.862665	-0.445636	-0.465088	-0.853760	-0.257813	-18.010285	68.068163	52.980875
56841		-4.419039	2.667975	5.566016	0.701218	-2.646767	-0.222604	-0.500000	-0.860352	-0.217041	-16.803896	66.580742	53.852131
56842		-5.049575	2.150340	5.818186	0.728669	-2.394443	0.094601	-0.532959	-0.864014	-0.177734	-15.397216	65.271757	54.932564
56843		-6.130981	2.307844	6.541906	0.795123	-2.218296	0.452824	-0.566895	-0.858398	-0.143799	-13.726275	64.104371	56.276223
56844		-6.862161	2.743247	7.159485	0.788658	-2.146422	0.789035	-0.587402	-0.847412	-0.091797	-11.822274	62.998340	57.894782
56845		-7.301438	2.787603	7.598106	0.695557	-2.140983	1.029904	-0.614746	-0.831787	-0.047119	-9.862726	61.901805	59.654623
56846		-7.607838	2.310659	7.877592	0.589126	-2.167301	1.176931	-0.632080	-0.820801	-0.001221	-7.937361	60.771887	61.460536
56847		-7.693726	1.710541	7.920011	0.541471	-2.210755	1.260597	-0.650391	-0.808105	0.047852	-6.099243	59.599972	63.220630
56848		-7.810146	1.416728	7.925982	0.541363	-2.229585	1.312817	-0.651367	-0.781494	0.095703	-4.333498	58.388013	64.914917
56849		-7.863748	1.551275	8.025117	0.533310	-2.232349	1.363000	-0.644287	-0.765137	0.126953	-2.661755	57.155817	66.529041
56850		-7.857395	1.673590	8.081812	0.490578	-2.223939	1.436098	-0.657959	-0.750488	0.167236	-1.060013	55.900142	68.108114
56851		-7.616338	1.622353	8.140118	0.432009	-2.183702	1.524362	-0.648438	-0.744873	0.201416	0.462292	54.650196	69.658246
56852		-7.429003	1.438357	8.115508	0.397332	-2.117213	1.621982	-0.634521	-0.724609	0.231689	1.947756	53.408396	71.208043
56853		-7.695876	1.435265	8.345744	0.387090	-2.056006	1.716882	-0.624756	-0.700195	0.267578	3.396142	52.182313	72.747153
56854		-8.042048	1.641651	8.628236	0.381428	-2.036789	1.798971	-0.603027	-0.687012	0.295654	4.815951	50.934505	74.276353
56855		-8.500431	1.963381	8.913037	0.364470	-2.071548	1.878945	-0.567627	-0.665283	0.330078	6.182178	49.646251	75.779903
56856		-8.581725	2.384929	8.953623	0.316104	-2.139017	1.965445	-0.536133	-0.648193	0.347900	7.490405	48.284862	77.269466
56857		-8.209328	2.655226	8.792040	0.227822	-2.195870	2.077207	-0.491455	-0.635986	0.345947	8.719697	46.867722	78.756943
56858		-7.812654	2.845123	8.592187	0.140103	-2.205602	2.212261	-0.459717	-0.625977	0.343994	9.897646	45.404712	80.274562
56859		-7.612512	3.105804	8.532326	0.042961	-2.183065	2.367842	-0.423828	-0.620117	0.324463	11.019601	43.924532	81.834539
56860		-7.466235	3.269839	8.561275	-0.070084	-2.148627	2.523963	-0.383545	-0.627930	0.308594	12.085155	42.417510	83.445644
56861		-7.674803	3.298539	8.843022	-0.170114	-2.110880	2.680462	-0.367188	-0.630371	0.277100	13.089460	40.898453	85.102111
56862		-7.963112	3.355918	9.073510	-0.263229	-2.114788	2.821980	-0.360352	-0.635498	0.245850	14.030399	39.329842	86.791433
56863		-8.192453	3.231968	9.415153	-0.343797	-2.135004	2.929112	-0.348389	-0.647705	0.208252	14.886574	37.722220	88.481048
56864		-8.560434	2.942702	9.612649	-0.377703	-2.187175	3.020629	-0.357666	-0.651611	0.176514	15.680938	36.045346	90.159939
56865		-8.680337	2.905537	9.761189	-0.395870	-2.252255	3.074329	-0.369629	-0.659424	0.151611	16.398267	34.314311	91.797383
56866		-8.920492	2.810241	9.880265	-0.413707	-2.317150	3.089907	-0.376709	-0.664551	0.124756	17.033023	32.521679	93.375181
56867		-9.370455	2.792578	10.027115	-0.430339	-2.398414	3.059779	-0.400879	-0.663574	0.091553	17.566787	30.684169	94.862907
56868		-9.447303	2.529947	9.907369	-0.436927	-2.483806	3.011431	-0.420654	-0.673828	0.074707	18.010712	28.790152	96.257516
56869		-9.028777	2.225369	9.609181	-0.432569	-2.524041	2.934509	-0.438965	-0.668213	0.058838	18.369682	26.887227	97.555467
56870		-8.900639	1.682220	9.304016	-0.397230	-2.493734	2.820050	-0.466553	-0.670166	0.042725	18.670119	25.007623	98.757328
56871		-8.953093	1.149314	9.184890	-0.321196	-2.437668	2.661187	-0.480957	-0.662109	0.032227	18.931855	23.189917	99.847435
56872		-9.039225	1.075110	8.952749	-0.241223	-2.363564	2.452677	-0.507813	-0.654541	0.023438	19.160144	21.440041	100.807976
56873		-8.577753	1.323888	8.687495	-0.192737	-2.275054	2.164365	-0.522705	-0.635986	0.012451	19.329884	19.796499	101.601775
56874		-7.875921	0.549526	7.996039	-0.150668	-2.101065	1.849469	-0.542725	-0.636963	0.010498	19.452798	18.298394	102.238494
56875		-7.962903	-0.425287	7.466581	0.054845	-1.864206	1.543324	-0.551758	-0.629883	0.014160	19.636829	16.991881	102.739865
56876		-9.901111	-0.116457	7.861415	0.359712	-1.674475	1.247732	-0.565430	-0.625244	0.011230	19.947058	15.836820	103.104377
56877		-12.473333	0.850331	7.926128	0.571901	-1.720177	1.002625	-0.576660	-0.618652	0.007324	20.330463	14.709572	103.313539
56878		-12.648298	1.260603	7.184015	0.630477	-1.892086	0.789245	-0.587158	-0.616699	0.020020	20.703965	13.526288	103.360237
56879		-11.914733	0.692847	5.772456	0.654598	-1.971132	0.582892	-0.599121	-0.608643	0.014893	21.059256	12.347898	103.269128
56880		-10.665063	0.315324	4.057158	0.680049	-1.892771	0.366248	-0.604248	-0.607666	0.025635	21.408805	11.252517	103.069391
56881		-9.829054	0.348392	2.620978	0.683379	-1.649925	0.143681	-0.610107	-0.604980	0.029785	21.749597	10.338985	102.795078
56882		-9.467467	0.275117	1.555806	0.668568	-1.290432	-0.053916	-0.610596	-0.607666	0.033447	22.079939	9.656902	102.487404
56883		-9.290076	0.501879	0.714597	0.620657	-0.897229	-0.198629	-0.615967	-0.607178	0.042480	22.386592	9.219914	102.185073
56884		-9.010492	0.870578	0.215961	0.516830	-0.465744	-0.315221	-0.615234	-0.614990	0.039551	22.640456	9.035701	101.914198
56885		-9.570921	0.938014	0.250728	0.420791	-0.033595	-0.397477	-0.614014	-0.608887	0.039795	22.847712	9.101787	101.695577
56886		-10.399721	1.151040	0.702066	0.367813	0.293062	-0.402625	-0.611572	-0.604980	0.046387	23.035638	9.340318	101.548255
56887		-11.582025	1.587438	1.618117	0.342203	0.494076	-0.321377	-0.605469	-0.604004	0.043701	23.222851	9.668758	101.490883
56888		-12.030449	2.316899	2.268569	0.277995	0.547052	-0.185310	-0.610107	-0.600342	0.038818	23.387858	9.993579	101.519367
56889		-10.434384	2.718131	2.237588	0.118890	0.594441	-0.081718	-0.602783	-0.601074	0.032715	23.473436	10.320474	101.614866
56890		-8.915007	2.248353	2.188132	-0.052373	0.777641	-0.065437	-0.611084	-0.596436	0.026123	23.471309	10.740017	101.762021
56891		-8.282042	1.775128	2.555765	-0.135695	1.019227	-0.080344	-0.594727	-0.591553	0.033691	23.431495	11.289845	101.957322
56892		-8.136215	1.677076	3.060342	-0.153645	1.229244	-0.096682	-0.596680	-0.591064	0.021484	23.391970	11.954831	102.192798
56893		-8.236870	1.749459	3.389031	-0.146285	1.396839	-0.100418	-0.592529	-0.583984	0.019531	23.366991	12.708057	102.465395
56894		-3.828878	5.762971	6.370133	-0.258213	1.517588	-0.064976	-0.591797	-0.584229	0.009521	23.292789	13.518547	102.785579
56895		9.199905	10.793161	14.512665	-1.771589	2.243046	0.224676	-0.577393	-0.575684	0.006104	22.433747	14.648517	103.424281
56896		1.273472	5.740753	14.735397	-1.490291	1.746512	0.146591	-0.585449	-0.563232	-0.011230	21.704200	15.541129	103.896236
56897		5.337018	2.993929	10.582678	-1.041211	1.852824	-0.171657	-0.583496	-0.563477	-0.020508	21.194067	16.560986	104.206666
56898		1.197235	-1.329265	6.371675	-0.828461	2.558118	-0.475241	-0.570557	-0.555176	-0.017578	20.805739	18.023108	104.492579
56899		-5.499979	-2.692424	8.205369	-0.576268	3.068649	-0.419343	-0.564697	-0.552246	-0.031982	20.612572	19.748531	104.913983
56900		-6.619692	-2.582136	11.366419	-0.422403	3.168783	-0.670793	-0.555908	-0.543945	-0.048584	20.476793	21.579734	105.212308
56901		-8.092631	-3.089502	12.736904	-0.112597	3.143580	-1.021754	-0.542969	-0.546875	-0.049561	20.447282	23.467742	105.302070
56902		-11.120700	0.966758	11.244908	0.210152	3.001510	-0.886341	-0.530518	-0.542236	-0.056152	20.626661	25.252840	105.444094
56903		-12.426246	7.295280	10.334515	0.045056	2.741900	-0.712385	-0.527588	-0.549561	-0.068115	20.738542	26.862597	105.638590
56904		-17.077171	10.735909	10.918887	-0.508779	2.182485	-0.892257	-0.521484	-0.536865	-0.073486	20.427942	28.210009	105.596494
56905		-14.760579	6.551054	8.557781	-0.709074	1.330631	-0.998103	-0.516113	-0.550293	-0.077637	19.873332	29.118609	105.285984
56906		-10.622683	2.506487	8.852228	-0.709379	1.040886	-0.839819	-0.506836	-0.544189	-0.082031	19.325563	29.839704	104.997280
56907		-8.943992	0.089020	10.130709	-0.558627	0.690294	-0.734111	-0.505615	-0.534180	-0.084961	18.851784	30.346921	104.689500
56908		-6.418474	0.072823	9.216932	-0.387043	0.539892	-0.531636	-0.503174	-0.536133	-0.087891	18.519937	30.735786	104.471732
56909		-6.263877	2.241940	8.465793	-0.286434	0.458605	-0.449244	-0.501953	-0.530518	-0.087646	18.261012	31.062257	104.285902
56910		-6.641848	3.147425	8.012363	-0.309935	0.347978	-0.326845	-0.493652	-0.534668	-0.091309	18.014817	31.308373	104.152575
56911		-6.538615	2.578366	8.132282	-0.307055	0.239612	-0.267498	-0.498779	-0.533691	-0.085938	17.777421	31.482055	104.033397
56912		-6.398169	1.745933	8.650984	-0.263246	0.181314	-0.189706	-0.497559	-0.540039	-0.089600	17.583967	31.612515	103.951101
56913		-6.273780	1.487210	8.717518	-0.160791	0.115808	-0.107788	-0.495850	-0.523682	-0.100342	17.469681	31.690339	103.907694
56914		-6.096647	1.584549	8.667308	-0.069039	0.081388	-0.033624	-0.497070	-0.535400	-0.090576	17.428883	31.739148	103.904684
56915		-6.047001	1.527583	8.583898	0.032267	0.056350	0.048620	-0.493164	-0.541260	-0.096191	17.471640	31.757550	103.949630
56916		-5.529989	1.933613	8.281739	0.094106	0.035603	0.099694	-0.500244	-0.539063	-0.092041	17.564432	31.758404	104.023004
56917		-5.224646	2.641457	7.829131	0.109616	0.034077	0.113029	-0.489258	-0.524170	-0.094238	17.670926	31.753362	104.104840
56918		-4.956835	3.083498	7.647384	0.058823	0.039674	0.086815	-0.495850	-0.531738	-0.086670	17.739565	31.758486	104.170763
56919		-5.015516	2.883133	7.727977	0.011049	0.046588	0.058835	-0.497314	-0.537354	-0.084473	17.772634	31.769572	104.220381
56920		-4.957947	2.556409	7.865885	-0.007426	0.058997	0.030636	-0.494385	-0.529053	-0.090820	17.786520	31.794979	104.254279
56921		-4.798361	2.627638	7.874695	-0.017663	0.071460	0.007668	-0.493164	-0.534180	-0.089111	17.788575	31.828567	104.276203
56922		-5.012556	2.695676	7.909124	-0.029088	0.088209	-0.033977	-0.493896	-0.537598	-0.093994	17.771382	31.881187	104.274647
56923		-5.423169	2.715927	7.853273	-0.036909	0.075972	-0.059778	-0.499756	-0.537842	-0.090088	17.740019	31.929032	104.254148
56924		-5.572324	2.761028	7.902191	-0.048675	0.048644	-0.064334	-0.491211	-0.534180	-0.089111	17.696953	31.965345	104.224880
56925		-5.261842	2.578366	7.908594	-0.060666	0.026274	-0.075083	-0.498291	-0.531982	-0.084961	17.641290	31.988695	104.184240
56926		-4.960238	2.530018	7.881030	-0.072738	0.032713	-0.093740	-0.497070	-0.535400	-0.087646	17.572611	32.021365	104.132690
56927		-4.844330	2.561734	7.793519	-0.096058	0.060106	-0.111307	-0.494629	-0.529785	-0.091553	17.487844	32.069367	104.075493
56928		-5.019712	2.426971	7.902374	-0.126149	0.086189	-0.128048	-0.493164	-0.541016	-0.087158	17.382398	32.136998	104.012479
56929		-5.272113	2.166556	7.944943	-0.134091	0.100809	-0.131017	-0.493164	-0.535400	-0.098145	17.273170	32.210454	103.950472
56930		-5.337183	2.353327	7.949385	-0.132642	0.095384	-0.127142	-0.485840	-0.533691	-0.091064	17.164933	32.282750	103.889484
56931		-5.257720	2.579310	7.842128	-0.140944	0.091109	-0.134628	-0.492920	-0.538818	-0.092041	17.049131	32.351301	103.822770
56932		-5.137093	2.496441	7.828792	-0.157166	0.088472	-0.160713	-0.489014	-0.539307	-0.099121	16.914076	32.425211	103.738189
56933		-5.338036	2.620567	7.960164	-0.161936	0.094857	-0.177558	-0.490479	-0.529541	-0.093018	16.771261	32.502683	103.643827
56934		-5.465757	2.591717	7.812872	-0.170043	0.073970	-0.193869	-0.487061	-0.530273	-0.092773	16.615214	32.573719	103.534268
56935		-5.366755	2.390822	7.847607	-0.183156	0.060550	-0.212232	-0.496094	-0.529541	-0.097900	16.443933	32.637563	103.410008
56936		-5.356364	2.310176	7.945207	-0.193954	0.043192	-0.222588	-0.491211	-0.530518	-0.091064	16.260332	32.695764	103.275157
56937		-5.441435	2.272260	7.951370	-0.200557	0.040752	-0.236645	-0.496338	-0.529541	-0.098389	16.067855	32.751938	103.130529
56938		-5.502477	2.020449	8.012705	-0.203401	0.021705	-0.228438	-0.486084	-0.530762	-0.098145	15.874028	32.798468	102.987205
56939		-5.444623	2.047458	8.040079	-0.192841	0.018004	-0.222195	-0.490723	-0.531006	-0.097168	15.688299	32.839033	102.847242
56940		-5.331249	2.291015	7.898227	-0.191386	0.028406	-0.208164	-0.488770	-0.531982	-0.098145	15.508767	32.885355	102.717967
56941		-5.522349	1.815848	8.130021	-0.174986	0.044468	-0.187359	-0.496826	-0.526855	-0.094482	15.347905	32.934502	102.605287
56942		-5.389952	2.041617	8.031763	-0.156010	0.056830	-0.165528	-0.484375	-0.520020	-0.093750	15.206249	32.989485	102.508760
56943		-5.216391	2.211713	8.002644	-0.141655	0.080337	-0.149117	-0.490723	-0.529297	-0.102295	15.081301	33.052276	102.427277
56944		-5.409237	2.002959	8.028532	-0.125864	0.113831	-0.127656	-0.488281	-0.532715	-0.098389	14.975671	33.132807	102.365450
56945		-5.529440	2.017035	7.970529	-0.106853	0.126228	-0.105751	-0.479004	-0.527832	-0.098389	14.890377	33.214349	102.320328
56946		-5.464115	1.864411	8.030381	-0.088680	0.141323	-0.085749	-0.486572	-0.532227	-0.100342	14.823536	33.303791	102.290678
56947		-5.350167	1.952469	8.054190	-0.062094	0.158198	-0.066665	-0.481445	-0.531006	-0.096436	14.780927	33.397235	102.276763
56948		-5.332440	1.982685	8.023614	-0.041425	0.182431	-0.052967	-0.483887	-0.532959	-0.106201	14.756895	33.504615	102.275836
56949		-5.286159	1.987520	8.069108	-0.022527	0.213405	-0.042363	-0.484131	-0.531982	-0.098633	14.751121	33.625091	102.287619
56950		-5.296952	2.129853	8.021959	-0.015220	0.239363	-0.038990	-0.485352	-0.523926	-0.100830	14.752766	33.761953	102.305934
56951		-5.470148	2.195576	7.955047	-0.012599	0.251886	-0.041795	-0.483154	-0.519043	-0.099609	14.756722	33.903667	102.324894
56952		-5.543366	2.118216	7.927314	-0.009267	0.259872	-0.052535	-0.480469	-0.531250	-0.099365	14.758867	34.053846	102.337849
56953		-5.569281	2.200212	7.944842	-0.006138	0.261881	-0.052198	-0.470459	-0.528809	-0.103516	14.763737	34.202615	102.351695
56954		-5.639201	1.991397	7.913595	0.000610	0.269203	-0.064034	-0.483154	-0.520508	-0.108643	14.768236	34.359633	102.358664
56955		-5.822864	2.061808	7.809853	0.011476	0.260127	-0.060635	-0.478271	-0.524902	-0.101563	14.779929	34.508660	102.366622
56956		-5.840596	2.032667	7.753985	0.008667	0.244737	-0.059428	-0.481689	-0.535156	-0.102295	14.788412	34.651454	102.372427
56957		-5.788614	2.126892	7.770365	0.006790	0.231028	-0.061070	-0.479248	-0.530029	-0.101563	14.794384	34.784423	102.374996
56958		-5.764922	2.202107	7.739195	-0.004466	0.213386	-0.068137	-0.473389	-0.529053	-0.103760	14.788841	34.911136	102.369377
56959		-5.633797	2.246929	7.766146	-0.014023	0.207543	-0.083484	-0.472656	-0.523682	-0.112305	14.771797	35.034371	102.352580
56960		-5.651800	2.240056	7.755042	-0.029462	0.203290	-0.100298	-0.474121	-0.531006	-0.101318	14.738311	35.160177	102.323276
56961		-5.754746	2.223379	7.712453	-0.052394	0.191332	-0.124987	-0.468506	-0.532227	-0.108643	14.681184	35.280450	102.275202
56962		-5.811468	2.210448	7.641431	-0.067725	0.178136	-0.148398	-0.475098	-0.529541	-0.107178	14.603981	35.399224	102.208370
56963		-5.885172	2.112202	7.564727	-0.098025	0.153205	-0.167841	-0.469238	-0.528320	-0.111084	14.499404	35.504413	102.123837
56964		-5.957481	2.164103	7.566262	-0.116115	0.126283	-0.173149	-0.473145	-0.531494	-0.109375	14.378785	35.597767	102.030345
56965		-5.871128	1.970266	7.654380	-0.121810	0.110897	-0.169561	-0.469971	-0.530029	-0.106445	14.254950	35.679429	101.936534
56966		-5.865751	1.895917	7.745612	-0.116801	0.112871	-0.151810	-0.477295	-0.518311	-0.114746	14.140497	35.762026	101.854653
56967		-5.792829	1.840433	7.803309	-0.101725	0.116615	-0.144095	-0.471436	-0.527100	-0.109619	14.038388	35.843010	101.778683
56968		-5.820412	1.868941	7.826273	-0.087174	0.134279	-0.135922	-0.474121	-0.525635	-0.106689	13.948927	35.935067	101.710828
56969		-5.829930	1.690957	7.865927	-0.065032	0.150772	-0.126386	-0.463379	-0.530273	-0.114502	13.877933	36.032418	101.652364
56970		-5.794808	1.754366	7.873746	-0.048066	0.173683	-0.110540	-0.460205	-0.530273	-0.117676	13.824632	36.142766	101.608208
56971		-5.819377	1.750067	7.830802	-0.031018	0.189068	-0.100519	-0.466064	-0.526855	-0.109375	13.787085	36.257799	101.573680
56972		-5.899383	1.744686	7.781843	-0.017436	0.209418	-0.094237	-0.461182	-0.523438	-0.117188	13.761232	36.385744	101.546507
56973		-5.824782	1.788107	7.807271	-0.000190	0.220715	-0.086435	-0.461426	-0.529053	-0.118408	13.750061	36.516447	101.526847
56974		-5.876689	1.837666	7.755664	0.022805	0.241903	-0.085189	-0.468994	-0.528564	-0.108887	13.754075	36.661218	101.511288
56975		-5.840206	1.904963	7.790424	0.032192	0.261423	-0.082060	-0.468994	-0.518066	-0.111084	13.767301	36.813981	101.501530
56976		-5.860467	1.890409	7.753073	0.053411	0.286564	-0.085453	-0.462891	-0.530273	-0.113770	13.793262	36.983628	101.493430
56977		-5.917291	1.896927	7.725800	0.059823	0.298032	-0.094940	-0.461182	-0.529541	-0.111572	13.820709	37.158528	101.481077
56978		-5.938115	1.778257	7.723700	0.064447	0.323960	-0.082154	-0.458740	-0.534668	-0.109131	13.858356	37.348515	101.481898
56979		-5.932556	1.817466	7.682504	0.068409	0.348445	-0.073589	-0.458008	-0.529297	-0.119385	13.905199	37.548533	101.493458
56980		-5.848608	1.878531	7.695630	0.046788	0.392988	-0.058257	-0.456787	-0.533447	-0.117188	13.950554	37.773592	101.523452
56981		-5.967031	1.685814	7.751923	0.054157	0.424117	-0.061116	-0.456299	-0.524414	-0.113770	14.003150	38.013942	101.557560
56982		-5.905306	1.861281	7.656931	0.065378	0.446150	-0.089082	-0.450195	-0.531738	-0.122803	14.052111	38.272763	101.575833
56983		-6.075935	1.836008	7.564792	0.083649	0.467253	-0.099384	-0.450684	-0.528809	-0.114014	14.110249	38.542370	101.591274
56984		-6.116586	1.894702	7.525020	0.073011	0.493675	-0.106742	-0.446289	-0.531982	-0.123047	14.161657	38.830014	101.606248
56985		-6.160918	1.861128	7.542364	0.085674	0.513344	-0.109668	-0.444580	-0.530273	-0.115967	14.222192	39.126645	101.623464
56986		-6.216165	1.869813	7.441101	0.091742	0.538715	-0.122572	-0.437012	-0.528320	-0.124268	14.283017	39.441489	101.636162
56987		-6.158931	1.902690	7.460790	0.108466	0.560761	-0.128575	-0.443359	-0.523438	-0.122070	14.354272	39.767093	101.649481
56988		-6.120082	1.853495	7.470946	0.112281	0.602993	-0.134149	-0.443604	-0.526367	-0.129150	14.429980	40.119213	101.666848
56989		-6.227187	1.863277	7.442103	0.120315	0.651744	-0.137185	-0.440674	-0.534912	-0.118408	14.515982	40.496496	101.692275
56990		-6.211947	1.799764	7.482898	0.126581	0.708479	-0.139433	-0.438232	-0.529297	-0.121094	14.611639	40.907799	101.727394
56991		-6.152256	1.867392	7.564232	0.130461	0.775166	-0.141595	-0.425049	-0.533203	-0.119141	14.718544	41.354067	101.775340
56992		-6.295136	1.790492	7.426311	0.132510	0.846236	-0.136120	-0.435547	-0.534180	-0.133545	14.839187	41.841048	101.842357
56993		-6.346713	1.770862	7.416612	0.139811	0.893141	-0.115910	-0.429199	-0.534424	-0.122314	14.982828	42.348688	101.936211
56994		-6.349223	1.878697	7.481722	0.134165	0.949850	-0.116976	-0.420410	-0.537598	-0.138184	15.132136	42.889849	102.042854
56995		-6.373681	1.912827	7.588395	0.137085	1.029581	-0.118520	-0.412354	-0.537354	-0.129639	15.297078	43.472941	102.168204
56996		-6.204647	2.190623	7.640918	0.130152	1.145546	-0.116479	-0.419189	-0.535400	-0.131104	15.478893	44.121596	102.322818
56997		-6.158682	2.141038	7.697471	0.134714	1.295094	-0.145482	-0.413086	-0.541748	-0.127441	15.675620	44.854786	102.492519
56998		-6.262939	1.974443	7.693647	0.129986	1.464849	-0.160382	-0.399902	-0.538818	-0.133545	15.893329	45.685419	102.693768
56999		-6.231638	2.002073	7.775321	0.123254	1.651674	-0.172867	-0.401855	-0.541504	-0.135498	16.139434	46.618364	102.936233
57000		-6.105988	2.179398	7.874462	0.105336	1.882826	-0.200237	-0.400146	-0.534180	-0.134033	16.409081	47.683895	103.221330
57001		-6.105769	2.229203	7.799226	0.098157	2.143778	-0.256419	-0.384277	-0.535400	-0.135010	16.702930	48.899126	103.538763
57002		-6.148434	2.046036	7.738244	0.092120	2.407914	-0.324042	-0.372070	-0.541016	-0.142334	17.019239	50.270905	103.884481
57003		-6.244851	1.909262	7.772411	0.105007	2.688472	-0.377918	-0.362305	-0.542725	-0.142578	17.390113	51.802384	104.283248
57004		-6.139528	2.373224	7.879591	0.119512	2.979202	-0.442546	-0.350586	-0.545166	-0.146729	17.820833	53.503435	104.738484
57005		-6.384105	2.845152	7.717401	0.102086	3.301683	-0.556750	-0.345215	-0.542725	-0.146729	18.278468	55.396858	105.228235
57006		-6.664267	2.545802	7.319811	0.093451	3.643437	-0.701155	-0.319092	-0.546875	-0.143555	18.760105	57.500918	105.741401
57007		-7.773739	2.210374	6.844977	0.138060	3.976134	-0.827061	-0.306396	-0.538330	-0.156738	19.327914	59.804943	106.312784
57008		-9.115974	2.167054	6.914537	0.252918	4.210918	-0.917927	-0.285645	-0.547119	-0.151855	20.049641	62.250511	106.971491
57009		-9.682850	2.781386	7.043186	0.449787	4.326782	-0.982004	-0.272705	-0.541504	-0.142578	20.998257	64.765394	107.742533
57010		-9.782446	3.023743	6.421998	0.577834	4.418701	-1.049975	-0.252930	-0.548340	-0.155518	22.170245	67.337407	108.661894
57011		-11.268053	2.370830	5.802501	0.794304	4.501867	-1.102933	-0.229736	-0.552734	-0.144043	23.713440	69.955000	109.829129
57012		-11.392660	2.593270	5.318288	0.961980	4.466400	-1.166016	-0.205566	-0.556885	-0.133545	25.627214	72.555660	111.267061
57013		-11.788407	1.591116	5.230386	1.267667	4.438023	-1.202478	-0.189697	-0.558350	-0.138428	28.212382	75.130883	113.201066
57014		-11.886828	2.496182	4.854562	1.655524	4.320732	-1.226030	-0.166748	-0.564209	-0.120361	31.759535	77.622682	115.873551
57015		-12.491745	3.098475	4.685655	1.913335	4.142664	-1.295793	-0.152588	-0.568115	-0.114746	36.485753	80.000852	119.572184
57016		-12.808625	3.353836	4.323644	2.070042	3.897449	-1.436099	-0.133057	-0.579102	-0.106445	42.729822	82.243516	124.689751
57017		-12.485959	3.341444	4.011003	2.216126	3.630236	-1.577084	-0.114258	-0.572998	-0.088379	51.762127	84.319282	132.503754
57018		-12.218571	2.858945	3.632957	2.370539	3.354789	-1.709551	-0.095215	-0.581299	-0.079590	66.991576	86.150142	146.420130
57019		-12.155555	2.562646	3.593087	2.603959	3.069006	-1.807606	-0.087158	-0.586914	-0.061035	97.399969	87.452800	175.377218
57020		-13.155107	2.458793	4.191698	2.884468	2.712030	-1.862876	-0.066650	-0.594482	-0.044189	143.527422	87.594884	-140.111266
57021		-14.043481	2.055290	4.526694	3.213048	2.157877	-1.834209	-0.053467	-0.594482	-0.042480	174.629851	86.791178	-110.817568
57022		-12.629693	1.342145	3.634687	3.526052	1.435279	-1.772279	-0.033691	-0.602783	-0.015137	-168.185263	85.910260	-95.623650
57023		-8.025557	2.025132	1.641563	3.624947	0.775905	-1.799226	-0.032471	-0.604492	0.008789	-155.350849	85.166310	-84.834582
57024		1.009951	4.105777	4.595465	3.156363	0.236733	-1.764759	-0.011963	-0.604004	0.023926	-144.571644	84.547121	-75.828559
57025		-25.301879	8.992287	13.595954	2.817707	-1.053020	-1.253172	-0.014404	-0.609619	0.026611	-133.136066	84.533450	-65.963526
57026		-14.984883	11.473268	12.644036	1.900624	-3.138032	-0.909104	-0.006836	-0.615967	0.020020	-112.169557	85.080479	-46.006809
57027		-1.042091	10.459460	6.939973	0.783337	-3.691575	-0.813193	-0.008789	-0.604980	0.018555	-86.645521	84.967416	-20.840428
57028		-0.324831	7.271610	5.093056	-0.214454	-3.795687	-0.853755	-0.008789	-0.605957	0.012695	-65.953265	83.964700	0.068159
57029		-3.051589	3.888773	5.539105	-0.595618	-3.865128	-0.727563	-0.006104	-0.594238	0.007568	-52.074896	82.456474	14.385371
57030		-2.310907	2.643549	5.052526	-0.677886	-3.982482	-0.491844	-0.009033	-0.588623	0.004639	-42.365199	80.692599	24.590391
57031		-1.193301	2.171376	4.518367	-0.586764	-4.008493	-0.162920	-0.004395	-0.584229	-0.008301	-35.112856	78.837985	32.299670
57032		-0.278626	1.955404	4.516833	-0.471787	-3.938071	0.161402	-0.008057	-0.581787	-0.008057	-29.350184	76.972709	38.466630
57033		-0.038306	1.759749	4.604344	-0.342139	-3.746259	0.408486	-0.002686	-0.578125	-0.019775	-24.751100	75.164358	43.405668
57034		-1.465708	1.497272	5.096997	-0.120661	-3.582268	0.637349	-0.007813	-0.575195	-0.024902	-20.764128	73.406427	47.616329
57035		-3.498339	1.798408	5.864687	0.110276	-3.558210	0.845086	-0.007568	-0.567871	-0.030029	-17.130552	71.632399	51.358367
57036		-4.392952	2.732472	6.183380	0.240969	-3.635108	0.973436	-0.002441	-0.564941	-0.031982	-13.840874	69.766436	54.694441
57037		-4.782545	3.184818	6.061928	0.254790	-3.658561	1.022175	-0.008789	-0.561279	-0.049805	-11.044600	67.842570	57.535868
57038		-5.476683	2.790474	6.061713	0.245235	-3.588084	1.115237	-0.008789	-0.565430	-0.058838	-8.585312	65.917088	60.053643
57039		-5.850007	2.352494	6.063329	0.289397	-3.409907	1.380914	-0.008057	-0.571533	-0.064941	-6.189868	64.078066	62.512731
57040		-6.628755	2.612419	6.488931	0.294219	-3.157562	1.806267	-0.010986	-0.575439	-0.082520	-3.651846	62.354631	65.163089
57041		-7.232583	3.313013	7.032992	0.155624	-2.895909	2.255729	-0.011963	-0.567139	-0.098633	-1.046731	60.746170	68.023474
57042		-8.069935	3.528646	7.583925	-0.099691	-2.671417	2.564899	-0.001221	-0.584717	-0.100830	1.445785	59.199624	70.964262
57043		-9.740780	3.260008	8.212719	-0.324007	-2.539369	2.697884	-0.004639	-0.584717	-0.122559	3.673888	57.673262	73.795988
57044		-11.269718	2.938169	8.671677	-0.431077	-2.546282	2.727093	-0.006836	-0.583984	-0.144287	5.645671	56.080564	76.441116
57045		-11.921661	2.854274	8.757866	-0.467705	-2.647476	2.714749	-0.019775	-0.600342	-0.166748	7.361593	54.393327	78.854946
57046		-11.982710	2.766753	8.806390	-0.451429	-2.746295	2.699079	-0.030762	-0.607666	-0.192383	8.882596	52.604920	81.064659
57047		-12.055096	3.217703	8.860597	-0.432117	-2.825711	2.710722	-0.039063	-0.607422	-0.218506	10.236463	50.746466	83.104893
57048		-11.949659	4.037958	8.979002	-0.504593	-2.895263	2.781296	-0.059814	-0.625244	-0.239014	11.438361	48.805055	85.053408
57049		-11.627888	4.259012	8.991597	-0.649300	-2.951722	2.905906	-0.084229	-0.631836	-0.265137	12.479745	46.801479	86.960110
57050		-11.140139	3.958591	8.969738	-0.770751	-2.965865	3.062739	-0.111572	-0.642334	-0.277344	13.411740	44.739486	88.872596
57051		-10.783979	3.489772	9.087861	-0.828593	-2.941031	3.213313	-0.148926	-0.650879	-0.300537	14.263040	42.658827	90.790787
57052		-10.371327	3.018424	9.218587	-0.821424	-2.902068	3.282881	-0.189453	-0.654541	-0.314941	15.041611	40.561486	92.667390
57053		-10.085954	2.405568	9.373967	-0.757578	-2.835024	3.259088	-0.218994	-0.652344	-0.315918	15.739902	38.495635	94.445285
57054		-10.110303	1.986818	9.520035	-0.641432	-2.774997	3.141293	-0.256836	-0.649414	-0.319824	16.366637	36.457153	96.074959
57055		-10.430937	1.799153	9.796902	-0.507713	-2.733449	2.950728	-0.286621	-0.657471	-0.312744	16.912267	34.468334	97.515553
57056		-11.014495	1.571837	10.114185	-0.379612	-2.747759	2.721268	-0.316406	-0.653809	-0.315430	17.377374	32.491731	98.748811
57057		-11.362048	1.307074	10.257000	-0.241834	-2.811923	2.474913	-0.341064	-0.645996	-0.314697	17.771138	30.523547	99.766075
57058		-11.197709	0.976080	10.064174	-0.111591	-2.879566	2.228764	-0.375000	-0.653809	-0.310791	18.110882	28.548398	100.581124
57059		-10.694395	0.637074	9.609609	0.020048	-2.893619	1.984061	-0.396484	-0.647461	-0.288574	18.416507	26.613644	101.214976
57060		-10.427430	0.533892	9.102857	0.118468	-2.845811	1.731916	-0.422607	-0.644043	-0.281006	18.689788	24.740543	101.685550
57061		-10.094849	0.849201	8.417049	0.162097	-2.764482	1.461298	-0.444336	-0.647217	-0.270020	18.908891	22.967202	101.996100
57062		-9.498207	0.865917	7.796503	0.151404	-2.633339	1.175985	-0.456055	-0.645752	-0.258057	19.057188	21.310378	102.156249
57063		-9.129510	0.340349	7.213507	0.184540	-2.436937	0.927537	-0.479492	-0.652344	-0.252441	19.181044	19.812969	102.206069
57064		-8.891444	-0.093187	6.216755	0.301751	-2.236432	0.718570	-0.495850	-0.651367	-0.235352	19.343748	18.457284	102.172007
57065		-8.517183	-0.012060	5.296218	0.449821	-1.995394	0.478184	-0.499023	-0.655029	-0.222168	19.563218	17.283916	102.045297
57066		-8.796438	-0.014006	4.907877	0.589909	-1.741655	0.238332	-0.505127	-0.660400	-0.216309	19.839836	16.288931	101.830065
57067		-10.717222	0.012909	5.032427	0.754739	-1.592098	0.081380	-0.521729	-0.665771	-0.200684	20.197179	15.411748	101.552848
57068		-11.439538	0.518087	4.760903	0.867386	-1.612085	0.030114	-0.527588	-0.666504	-0.196045	20.613455	14.531479	101.237999
57069		-10.227448	0.902029	3.735994	0.845668	-1.589637	-0.004779	-0.521484	-0.670410	-0.176514	21.017082	13.676949	100.903424
57070		-9.061440	0.864804	2.801816	0.745656	-1.425540	-0.073047	-0.528076	-0.676758	-0.167969	21.366260	12.923046	100.561631
57071		-8.606414	0.781969	2.262623	0.636328	-1.173621	-0.150773	-0.538330	-0.683838	-0.161133	21.658619	12.324956	100.228293
57072		-8.277573	0.833498	2.145894	0.543277	-0.893303	-0.206173	-0.534424	-0.685547	-0.154297	21.906558	11.886932	99.923510
57073		-8.006827	1.458670	2.354667	0.447028	-0.635538	-0.246708	-0.539795	-0.681396	-0.152100	22.108040	11.598105	99.651959
57074		-7.287376	2.334658	2.466744	0.281299	-0.417723	-0.278022	-0.534912	-0.703613	-0.150635	22.221714	11.430825	99.410897
57075		-6.253314	2.697186	2.825016	0.076353	-0.193423	-0.295735	-0.532715	-0.697021	-0.145996	22.226292	11.388127	99.209769
57076		-6.053101	2.519546	3.621513	-0.060846	0.036174	-0.240175	-0.533447	-0.698975	-0.145996	22.168380	11.454272	99.089447
57077		-6.506070	2.712534	4.403165	-0.106825	0.142130	-0.070944	-0.528076	-0.694580	-0.156982	22.106705	11.540827	99.084000
57078		-6.167606	3.117285	5.024337	-0.169709	0.170563	0.155332	-0.535400	-0.693115	-0.148682	22.035086	11.593525	99.207381
57079		-5.912952	2.983294	5.252148	-0.242042	0.188393	0.390969	-0.528809	-0.689941	-0.145996	21.948292	11.605537	99.462355
57080		-5.678223	2.720955	5.166007	-0.309644	0.204254	0.581966	-0.526611	-0.690674	-0.145996	21.844649	11.585901	99.824493
57081		-5.145099	2.391873	4.850047	-0.390841	0.259651	0.682178	-0.535400	-0.688477	-0.148926	21.707356	11.574869	100.253026
57082		-5.172630	1.775720	4.663636	-0.443112	0.382594	0.705430	-0.526123	-0.685547	-0.151367	21.548591	11.626288	100.720857
57083		-5.624386	1.189572	4.470273	-0.424879	0.510090	0.672767	-0.535156	-0.676270	-0.157227	21.402471	11.752963	101.198133
57084		-5.969643	0.910262	4.223973	-0.352762	0.632268	0.600637	-0.529053	-0.668701	-0.150146	21.296740	11.962197	101.662221
57085		-6.534075	0.802889	4.004883	-0.253012	0.767392	0.499935	-0.525391	-0.675293	-0.160400	21.244275	12.263848	102.100092
57086		-7.567125	0.985005	3.808153	-0.157885	0.884319	0.396042	-0.529053	-0.667969	-0.161377	21.242457	12.651605	102.506526
57087		-8.563757	1.380802	3.562424	-0.099112	0.971913	0.296651	-0.524902	-0.662109	-0.168213	21.269048	13.104801	102.877842
57088		8.425219	6.147158	9.484381	-0.545983	1.225758	0.387939	-0.524170	-0.664063	-0.171875	21.067345	13.677999	103.353460
57089		-0.740843	6.888185	13.045976	-0.922618	2.025310	0.452122	-0.517822	-0.653564	-0.180908	20.705344	14.665661	104.031535
57090		5.201739	3.449989	13.882555	-0.723230	1.997303	0.131671	-0.506836	-0.653320	-0.200439	20.421000	15.708361	104.523204
57091		1.214553	3.343018	9.828676	-0.513651	2.292854	-0.335092	-0.500977	-0.646484	-0.199951	20.208836	17.002872	104.812715
57092		-3.816647	-1.390512	7.073289	-0.448979	2.891051	-0.505722	-0.483398	-0.635742	-0.209229	20.049180	18.654844	105.127762
57093		-2.100442	-1.621737	8.266794	-0.444750	3.445267	-0.807085	-0.466553	-0.642334	-0.213379	19.881115	20.663969	105.383843
57094		-6.821291	-2.055364	11.833169	-0.311901	3.746480	-1.266089	-0.441406	-0.648438	-0.228027	19.721663	22.926423	105.433906
57095		-11.896419	0.063510	11.870365	-0.106706	3.481087	-1.376341	-0.416016	-0.639404	-0.227295	19.630337	25.065880	105.358185
57096		-11.482182	5.444599	9.855999	-0.207946	3.180532	-1.332663	-0.404541	-0.651855	-0.231201	19.458370	27.036216	105.237617
57097		-14.102966	10.550220	9.984694	-0.668812	2.843059	-1.420976	-0.385010	-0.640137	-0.245850	18.953168	28.838230	104.975994
57098		-15.532987	9.846668	8.651940	-1.103105	2.060675	-1.632950	-0.367188	-0.638184	-0.248291	18.032066	30.253026	104.388731
57099		-12.803972	2.921388	8.370050	-1.171486	1.453455	-1.468121	-0.364258	-0.628418	-0.255615	17.034343	31.296473	103.749467
57100		-12.235674	-2.291093	10.795957	-1.073144	0.944149	-1.414658	-0.354248	-0.628174	-0.259766	16.037322	32.044999	103.020004
57101		-8.123504	-1.783038	10.401099	-0.792357	0.587174	-1.030836	-0.339355	-0.625977	-0.263672	15.283334	32.524386	102.457200
57102		-9.359426	-0.731679	10.443098	-0.481977	0.413430	-0.631019	-0.342285	-0.626465	-0.260498	14.824209	32.846745	102.117823
57103		-6.243035	1.118603	8.166134	-0.277902	0.192012	-0.425769	-0.345703	-0.630615	-0.266602	14.532217	33.011036	101.872450
57104		-6.990685	2.763614	8.275822	-0.198018	0.162973	-0.318773	-0.346924	-0.625000	-0.263672	14.319963	33.146882	101.691337
57105		-5.545347	2.555305	7.700766	-0.167609	0.110742	-0.259326	-0.338867	-0.616943	-0.260742	14.141960	33.240982	101.540484
57106		-5.819449	2.249108	7.916095	-0.139392	0.107973	-0.245864	-0.338867	-0.623535	-0.266846	13.983600	33.335208	101.397288
57107		-5.821820	1.901287	7.771358	-0.141764	0.093439	-0.226455	-0.332520	-0.627441	-0.267090	13.829958	33.414443	101.264525
57108		-5.998867	1.024691	8.036058	-0.112993	0.081539	-0.162630	-0.336426	-0.621582	-0.265625	13.714157	33.482032	101.171707
57109		-6.017481	0.916323	8.149102	-0.057500	0.064847	-0.071657	-0.337158	-0.627197	-0.263916	13.662717	33.523938	101.137081
57110		-5.760625	1.348045	8.152080	-0.001056	0.052873	0.010967	-0.331543	-0.630127	-0.277344	13.672144	33.551970	101.155244
57111		-5.575634	1.562960	8.088210	0.047798	0.058234	0.049290	-0.328369	-0.622559	-0.264893	13.725070	33.573790	101.200323
57112		-5.574139	1.750861	7.999487	0.091835	0.070132	0.047565	-0.337402	-0.619629	-0.264404	13.802796	33.606400	101.245785
57113		-5.655284	2.402295	7.784471	0.099581	0.060270	0.035125	-0.337158	-0.624023	-0.265381	13.880427	33.631201	101.281830
57114		-5.660484	2.765657	7.669177	0.044118	0.047660	0.001498	-0.330078	-0.616943	-0.263428	13.911833	33.657539	101.292927
57115		-5.656899	2.634752	7.663623	-0.011335	0.023127	-0.033197	-0.329102	-0.618652	-0.261719	13.897252	33.671056	101.277224
57116		-5.719926	2.182911	7.797094	-0.053382	0.007543	-0.057156	-0.322754	-0.620850	-0.257324	13.847507	33.683112	101.242551
57117		-5.625034	1.788716	8.021992	-0.063164	-0.005940	-0.055091	-0.333252	-0.621338	-0.263428	13.792440	33.683435	101.207401
57118		-5.654647	1.419255	8.105263	-0.048862	-0.004023	-0.037629	-0.333496	-0.619385	-0.270020	13.751474	33.686300	101.183877
57119		-5.658266	1.625991	8.174682	-0.027753	-0.001957	-0.021612	-0.326660	-0.627686	-0.264648	13.729475	33.684243	101.171770
57120		-5.702411	1.760815	8.026361	-0.019013	0.009581	-0.013775	-0.328857	-0.625732	-0.268555	13.715639	33.691363	101.166395
57121		-5.660765	1.825677	7.987677	-0.010195	-0.001104	-0.014384	-0.326904	-0.616455	-0.266846	13.706460	33.688793	101.159264
57122		-5.588926	1.988544	7.919318	-0.008747	-0.016104	-0.019239	-0.332764	-0.622314	-0.264404	13.694149	33.682296	101.146040
57123		-5.380036	1.923870	7.977049	-0.008740	-0.004179	-0.018159	-0.333496	-0.623291	-0.263916	13.684127	33.678525	101.135884
57124		-5.339966	1.923362	8.037751	0.003338	0.012486	-0.015448	-0.340576	-0.623779	-0.254150	13.682751	33.687344	101.129866
57125		-5.298102	1.898113	8.055901	0.014973	0.038735	-0.007462	-0.334717	-0.627197	-0.261963	13.694163	33.706012	101.133859
57126		-5.432914	1.962599	7.973096	0.026374	0.061528	-0.003080	-0.335938	-0.617676	-0.265869	13.715034	33.740344	101.144128
57127		-5.581465	1.979052	7.976726	0.023441	0.063105	-0.006933	-0.322510	-0.620850	-0.267822	13.733721	33.772502	101.152476
57128		-5.576898	2.053672	7.927090	0.007026	0.049518	-0.026661	-0.331543	-0.621338	-0.271729	13.733680	33.803261	101.145025
57129		-5.592187	2.023402	7.941085	-0.010250	0.058087	-0.041389	-0.319824	-0.617432	-0.259766	13.719770	33.837311	101.129476
57130		-5.658988	1.962506	7.910977	-0.019468	0.060480	-0.048756	-0.335938	-0.621094	-0.268799	13.697309	33.877083	101.109002
57131		-5.595030	1.917005	7.882285	-0.025409	0.050086	-0.051252	-0.334717	-0.623291	-0.270996	13.670256	33.908006	101.085488
57132		-5.625064	1.927281	7.925998	-0.031445	0.045421	-0.057783	-0.325928	-0.624023	-0.263672	13.636150	33.940515	101.056453
57133		-5.691355	1.831085	7.946838	-0.033321	0.037218	-0.056435	-0.330078	-0.624023	-0.256348	13.601398	33.964950	101.027308
57134		-5.685115	1.853599	7.928362	-0.038822	0.041282	-0.045870	-0.323486	-0.617676	-0.269043	13.567115	33.993439	101.005546
57135		-5.711314	1.837339	7.931022	-0.051158	0.057098	-0.032794	-0.324951	-0.620117	-0.273193	13.532774	34.025744	100.995451
57136		-5.674787	2.023618	7.782944	-0.058492	0.040844	-0.038153	-0.319336	-0.612793	-0.270264	13.490046	34.052853	100.978756
57137		-5.615272	2.060296	7.789374	-0.072591	0.019869	-0.053497	-0.325684	-0.615967	-0.273193	13.432226	34.067163	100.948676
57138		-5.527748	1.815610	7.801775	-0.074458	0.004111	-0.058034	-0.334717	-0.615967	-0.263184	13.369555	34.076331	100.912674
57139		-5.378582	1.939441	7.906853	-0.079576	0.007314	-0.062318	-0.325928	-0.620117	-0.268311	13.303248	34.084752	100.874608
57140		-5.456590	1.916222	7.909269	-0.069818	0.011905	-0.070964	-0.323730	-0.617920	-0.269043	13.239041	34.099799	100.831120
57141		-5.506143	1.739137	7.952356	-0.063798	0.012014	-0.075837	-0.327881	-0.614746	-0.260986	13.177051	34.112541	100.784656
57142		-5.532232	1.732394	7.977730	-0.058204	0.020325	-0.076168	-0.331299	-0.616943	-0.270752	13.118239	34.132786	100.738943
57143		-5.472196	1.802343	7.934637	-0.044498	0.033036	-0.068765	-0.333008	-0.616211	-0.277344	13.071781	34.156266	100.700493
57144		-5.361510	1.935422	7.886123	-0.046040	0.032913	-0.075654	-0.326416	-0.611572	-0.271484	13.021176	34.183306	100.657034
57145		-5.315928	1.956842	7.929226	-0.037125	0.049389	-0.086613	-0.325684	-0.612549	-0.267822	12.973529	34.218161	100.609010
57146		-5.355852	1.922767	7.968779	-0.033548	0.062619	-0.099934	-0.324707	-0.613770	-0.275391	12.923386	34.264734	100.553691
57147		-5.435827	1.841487	7.975109	-0.027975	0.073942	-0.105789	-0.321289	-0.614502	-0.271729	12.875688	34.315687	100.496383
57148		-5.436075	1.875092	7.975294	-0.016795	0.083055	-0.112310	-0.320068	-0.611816	-0.266113	12.832048	34.375070	100.435698
57149		-5.507748	1.823111	7.963198	-0.006937	0.098660	-0.111429	-0.320557	-0.612061	-0.263672	12.796203	34.440480	100.378206
57150		-5.508810	1.811898	7.990350	0.003896	0.110232	-0.109377	-0.321045	-0.627686	-0.263672	12.767708	34.514516	100.323513
57151		-5.347285	1.846247	7.977291	0.009611	0.131162	-0.106480	-0.314209	-0.620850	-0.259521	12.745855	34.597414	100.274190
57152		-5.479642	1.805949	7.978662	0.024898	0.162645	-0.100001	-0.324707	-0.618408	-0.263672	12.737374	34.699424	100.233750
57153		-5.728185	1.705397	7.945832	0.037004	0.189404	-0.079273	-0.324951	-0.616455	-0.262207	12.746649	34.811422	100.211746
57154		-5.617125	1.610174	7.920084	0.046266	0.218158	-0.053272	-0.314209	-0.613525	-0.272217	12.773345	34.938467	100.211630
57155		-5.626170	1.640446	7.889558	0.056296	0.248600	-0.030130	-0.320068	-0.611816	-0.267578	12.818122	35.077320	100.232380
57156		-5.605540	1.871689	7.823562	0.065798	0.288839	-0.008770	-0.311768	-0.611816	-0.264404	12.879997	35.238099	100.273919
57157		-5.522992	1.851032	7.862559	0.063839	0.340768	0.003461	-0.312744	-0.619629	-0.271240	12.951109	35.424086	100.332571
57158		-5.565999	1.888312	7.848525	0.085940	0.409222	0.026452	-0.307129	-0.620850	-0.268311	13.050318	35.647357	100.418066
57159		-5.847981	1.797529	7.852992	0.121252	0.476399	0.052990	-0.307861	-0.623535	-0.268555	13.187986	35.902415	100.533664
57160		-6.021631	1.660213	7.869999	0.152622	0.508565	0.090099	-0.303955	-0.618164	-0.269287	13.362458	36.172298	100.681078
57161		-6.235858	1.697237	7.829639	0.164322	0.489359	0.089617	-0.311768	-0.624512	-0.269043	13.543473	36.429145	100.826759
57162		-5.898137	2.051650	7.898797	0.140108	0.446940	0.039742	-0.305664	-0.619141	-0.274658	13.686649	36.670744	100.931868
57163		-6.018860	2.124172	7.701504	0.124632	0.447691	0.002162	-0.306152	-0.622803	-0.266357	13.806824	36.915703	101.012259
57164		-6.061893	1.738372	7.601554	0.115432	0.444319	-0.008643	-0.298340	-0.634277	-0.268311	13.917226	37.162051	101.085186
57165		-5.994810	2.065432	7.646888	0.105352	0.447911	-0.026263	-0.292969	-0.620117	-0.267090	14.015929	37.410814	101.147455
57166		-6.048639	2.001135	7.630112	0.098363	0.455861	-0.051090	-0.300537	-0.616943	-0.268555	14.101125	37.669226	101.194208
57167		-6.063301	1.947935	7.552953	0.089615	0.448392	-0.064165	-0.296875	-0.627930	-0.270752	14.175811	37.923411	101.231284
57168		-5.954941	1.981440	7.675037	0.079900	0.463869	-0.077454	-0.291748	-0.625732	-0.269775	14.240930	38.189820	101.262061
57169		-6.036490	1.938820	7.577014	0.083904	0.491251	-0.108443	-0.284668	-0.625000	-0.273193	14.298592	38.473990	101.276525
57170		-6.323945	1.680288	7.402600	0.087878	0.485073	-0.109124	-0.283936	-0.626465	-0.268555	14.357482	38.756538	101.289600
57171		-6.237407	1.749063	7.319929	0.095074	0.464333	-0.117951	-0.271240	-0.622559	-0.272949	14.414843	39.027098	101.293216
57172		-6.427189	1.550313	7.241242	0.087341	0.444790	-0.110976	-0.279297	-0.626709	-0.268555	14.468508	39.287500	101.298354
57173		-6.267827	1.933473	7.207070	0.086232	0.410660	-0.103885	-0.275879	-0.624023	-0.271729	14.521354	39.526264	101.302798
57174		-6.191678	2.085579	7.338737	0.079667	0.396681	-0.124241	-0.269775	-0.634277	-0.266357	14.559217	39.761851	101.290005
57175		-6.345560	2.104740	7.302119	0.071428	0.395569	-0.139425	-0.270508	-0.626953	-0.263916	14.585613	39.997365	101.266383
57176		-6.314000	1.928290	7.313262	0.070322	0.401754	-0.155666	-0.268066	-0.629395	-0.266602	14.604136	40.240256	101.231982
57177		-6.343633	1.901165	7.212359	0.064634	0.411567	-0.153373	-0.263916	-0.629883	-0.268066	14.621914	40.486669	101.201297
57178		-6.431391	1.845604	7.205345	0.062784	0.424438	-0.155502	-0.268066	-0.629883	-0.269043	14.638757	40.742078	101.171286
57179		-6.558928	1.745438	7.128245	0.060784	0.420338	-0.148654	-0.267578	-0.637939	-0.270752	14.657465	40.992684	101.145708
57180		-6.581484	1.713664	7.059984	0.050500	0.412094	-0.133687	-0.259277	-0.632813	-0.269043	14.676054	41.238064	101.129354
57181		-6.601892	1.700276	7.099943	0.040421	0.406757	-0.124333	-0.262451	-0.630615	-0.267334	14.693074	41.477622	101.119127
57182		-6.647270	1.725726	7.078799	0.036775	0.391704	-0.110416	-0.255615	-0.635742	-0.261475	14.712561	41.708296	101.116130
57183		-6.598601	1.837519	7.054517	0.030242	0.383738	-0.104749	-0.248535	-0.631104	-0.263184	14.730487	41.932252	101.116103
57184		-6.555046	1.962355	7.050771	0.025055	0.387382	-0.107519	-0.246582	-0.634521	-0.254395	14.744234	42.160076	101.114583
57185		-6.629211	1.879285	7.004331	0.019339	0.395145	-0.118702	-0.249268	-0.626465	-0.268311	14.750488	42.392388	101.106491
57186		-6.635447	1.843449	7.093459	0.011124	0.407865	-0.116449	-0.245850	-0.633545	-0.265869	14.754512	42.632824	101.102392
57187		-6.615546	1.795844	7.106685	0.009573	0.422237	-0.125012	-0.246338	-0.632813	-0.267822	14.755530	42.881068	101.094903
57188		-6.670932	1.841154	7.156538	0.013925	0.452791	-0.128152	-0.250244	-0.636719	-0.261719	14.761203	43.148059	101.090903
57189		-6.659775	1.797445	7.132360	0.014951	0.485334	-0.126310	-0.241943	-0.632813	-0.273682	14.773260	43.431451	101.095093
57190		-6.646583	1.749996	7.140417	0.014385	0.516084	-0.125183	-0.244629	-0.628174	-0.269287	14.789617	43.733023	101.106246
57191		-6.688864	1.697535	7.134426	0.019956	0.553969	-0.117958	-0.229492	-0.629639	-0.263184	14.818896	44.053210	101.131095
57192		-6.663489	1.721354	7.126272	0.017455	0.602527	-0.111321	-0.221191	-0.632813	-0.258789	14.857288	44.400561	101.171188
57193		-6.694788	1.794839	7.126486	0.024450	0.649915	-0.112033	-0.230713	-0.630615	-0.257813	14.907145	44.772981	101.221376
57194		-6.658556	1.839840	7.165206	0.022454	0.708428	-0.118345	-0.224854	-0.634521	-0.264160	14.961459	45.179887	101.279413
57195		-6.707594	1.820328	7.095377	0.028473	0.782996	-0.125012	-0.222656	-0.633057	-0.261719	15.028105	45.627813	101.349231
57196		-6.738420	1.813428	7.141508	0.028080	0.865099	-0.136085	-0.217529	-0.632324	-0.264648	15.101845	46.123877	101.428942
57197		-6.736481	1.940252	7.350261	0.015664	0.972418	-0.133473	-0.216797	-0.631104	-0.262451	15.189015	46.677701	101.536065
57198		-6.544196	2.355166	7.397535	-0.010758	1.116238	-0.148494	-0.202881	-0.628174	-0.265869	15.277534	47.314218	101.664935
57199		-6.514208	2.061683	7.402625	-0.008367	1.291684	-0.196131	-0.201416	-0.630127	-0.260986	15.371470	48.053718	101.797618
57200		-6.706167	1.687786	7.431719	-0.022304	1.463366	-0.213096	-0.191406	-0.628418	-0.257080	15.480280	48.891383	101.959412
57201		-6.773888	1.469665	7.425047	-0.024473	1.640589	-0.203515	-0.177002	-0.631592	-0.250977	15.632132	49.824237	102.177195
57202		-6.663944	1.601912	7.530902	-0.023411	1.833858	-0.182524	-0.168945	-0.635986	-0.254395	15.843835	50.860752	102.469007
57203		-6.511527	1.778292	7.565062	-0.007375	2.068774	-0.203959	-0.156738	-0.630127	-0.251465	16.111238	52.028465	102.815548
57204		-6.693385	1.736037	7.433757	0.036236	2.319517	-0.239590	-0.147705	-0.640137	-0.253174	16.450791	53.339280	103.215803
57205		-6.825810	1.605371	7.378220	0.096072	2.580316	-0.268621	-0.134033	-0.632813	-0.252686	16.891023	54.795702	103.690708
57206		-6.894335	2.184218	7.265222	0.141397	2.878617	-0.334330	-0.120117	-0.633789	-0.239014	17.418395	56.424599	104.231009
57207		-7.124915	2.763234	7.079480	0.174781	3.190148	-0.451353	-0.104492	-0.635010	-0.239014	18.005296	58.240424	104.808414
57208		-8.136640	3.402598	7.105724	0.194100	3.465514	-0.639911	-0.085449	-0.634766	-0.231445	18.582124	60.236964	105.349619
57209		-8.920268	3.233991	6.921740	0.259095	3.694181	-0.820658	-0.071289	-0.629395	-0.225342	19.173100	62.387788	105.853252
57210		-10.121600	3.392956	6.919874	0.388172	3.825697	-0.964971	-0.053467	-0.634766	-0.215332	19.821666	64.634565	106.328680
57211		-10.576318	3.204140	6.311595	0.476270	3.860002	-1.082603	-0.019287	-0.634766	-0.202881	20.499180	66.920346	106.771570
57212		-12.110265	2.343866	6.446579	0.668585	3.808649	-1.150020	-0.003906	-0.632080	-0.193848	21.290764	69.189791	107.211236
57213		-11.090877	2.307075	5.592571	0.833803	3.727115	-1.228978	0.020752	-0.636475	-0.181641	22.154515	71.430070	107.620428
57214		-11.437359	1.776661	5.772544	1.111336	3.656432	-1.264377	0.034912	-0.645508	-0.160156	23.241841	73.637891	108.092002
57215		-11.235800	2.367548	5.447315	1.441098	3.530356	-1.286204	0.048828	-0.639893	-0.149658	24.610473	75.781462	108.654031
57216		-11.544592	3.239579	5.035850	1.651535	3.384255	-1.372733	0.071533	-0.631348	-0.139404	26.071422	77.865835	109.181840
57217		-11.981099	3.411742	4.791312	1.733167	3.217421	-1.529075	0.091309	-0.642090	-0.115967	27.301467	79.902049	109.422612
57218		-12.301120	3.184758	4.613728	1.853391	3.021314	-1.671241	0.095215	-0.645752	-0.101563	28.102634	81.874816	109.157847
57219		-12.792168	3.009825	4.631920	2.000184	2.768457	-1.778286	0.109863	-0.650879	-0.079102	28.049903	83.749635	107.949037
57220		-13.060456	2.554654	4.704301	2.192876	2.456277	-1.842655	0.134521	-0.645996	-0.062256	26.151298	85.478768	104.779656
57221		-12.649583	2.375747	4.421598	2.380659	2.066738	-1.886429	0.132813	-0.646484	-0.050293	19.347563	86.988368	96.594285
57222		-10.797249	2.592247	3.571906	2.469886	1.639460	-1.946846	0.151855	-0.651123	-0.035645	-1.662508	88.104430	74.149332
57223		-7.942242	2.897289	2.986405	2.389022	1.297178	-2.022650	0.164551	-0.648682	-0.019775	-45.104914	88.342899	29.318109
57224		-1.073870	3.668876	6.570479	2.064087	0.869765	-2.002208	0.174561	-0.651855	-0.004150	-72.782532	87.594706	0.440327
57225		-19.814087	4.446248	12.850952	1.990529	-0.116804	-1.677132	0.175049	-0.650146	0.005371	-75.507321	86.653608	-3.430337
57226		-14.753479	7.743577	13.323359	1.591273	-1.807452	-1.431945	0.179688	-0.646973	0.006104	-64.373147	85.525582	6.814504
