// General information: 
//  MT Manager version: 2022.2.0 
//  XDA version: 2022.2.0 build 7381 rev 124627 built on 2023-07-19
// Device information: 
//  DeviceId: 00B4C3A0
//  ProductCode: MTW2-3A7G6
//  Firmware Version: 4.6.0
//  Hardware Version: 2.0.0
// Device settings: 
//  Filter Profile: human(46.1)
//  Option Flags: Orientation Smoother Disabled, Position/Velocity Smoother Disabled, Continuous Zero Rotation Update Disabled, AHS Disabled, ICC Disabled
// Coordinate system: ENU
PacketCounter	SampleTimeFine	Acc_X	Acc_Y	Acc_Z	Gyr_X	Gyr_Y	Gyr_Z	Mag_X	Mag_Y	Mag_Z	Roll	Pitch	Yaw
46283		9.636510	0.637963	-0.119680	-0.016918	0.000650	0.000476	-0.405518	-0.213867	0.649902	120.943893	-84.517360	39.010946
46284		9.621958	0.666984	-0.130777	-0.022304	0.008223	0.000760	-0.406982	-0.217041	0.642822	120.893195	-84.520037	39.052907
46285		9.629108	0.682478	-0.099745	-0.013459	0.011311	0.001611	-0.402100	-0.209717	0.652588	120.789467	-84.528351	39.155267
46286		9.643689	0.653313	-0.086579	-0.008902	0.018706	0.000792	-0.403809	-0.210205	0.646240	120.692441	-84.534102	39.251482
46287		9.607590	0.675117	-0.087737	-0.008480	0.013396	-0.000250	-0.403809	-0.211670	0.643311	120.575407	-84.541964	39.371409
46288		9.622057	0.666672	-0.124972	-0.000733	0.019750	0.002559	-0.404053	-0.211182	0.649902	120.482580	-84.548857	39.468105
46289		9.600629	0.638514	-0.064161	0.006946	0.010424	0.001454	-0.406982	-0.207520	0.645996	120.394186	-84.556685	39.567549
46290		9.662046	0.601405	-0.078173	0.017661	0.017073	0.002531	-0.403809	-0.214355	0.649170	120.325242	-84.562761	39.650838
46291		9.622563	0.585419	-0.118466	0.016923	0.018937	-0.004880	-0.413330	-0.206543	0.645996	120.178401	-84.569914	39.814898
46292		9.658234	0.645041	-0.115994	0.002832	0.021655	-0.005800	-0.407959	-0.210205	0.647705	120.051408	-84.573145	39.947962
46293		9.640316	0.636760	-0.164732	0.004983	0.021675	-0.006272	-0.407471	-0.204102	0.645264	119.877404	-84.580482	40.132743
46294		9.636581	0.659712	-0.153261	0.007528	0.027284	-0.006964	-0.413086	-0.208008	0.645996	119.719635	-84.584667	40.299421
46295		9.668910	0.681715	-0.188769	0.013576	0.037006	-0.009955	-0.402588	-0.208496	0.646484	119.458145	-84.594374	40.577248
46296		9.658176	0.668336	-0.154665	0.022849	0.057037	-0.002789	-0.406982	-0.206787	0.635498	119.163290	-84.608857	40.890436
46297		9.661999	0.646239	-0.158116	0.028733	0.064197	-0.002813	-0.399658	-0.211182	0.647217	118.785602	-84.629222	41.292840
46298		9.679870	0.655338	-0.101168	0.026432	0.065965	-0.001996	-0.400146	-0.203613	0.644043	118.443309	-84.646195	41.655718
46299		9.639974	0.678973	-0.037882	0.024521	0.073328	-0.001403	-0.411133	-0.206787	0.634521	118.014113	-84.669050	42.107950
46300		9.603883	0.700882	-0.033947	0.022361	0.073327	-0.000933	-0.404297	-0.208984	0.634766	117.627214	-84.688058	42.513259
46301		9.614625	0.694264	-0.005932	0.026229	0.078708	-0.000830	-0.411865	-0.209717	0.642334	117.161701	-84.712257	43.001563
46302		9.599935	0.702762	0.040016	0.027841	0.074927	-0.000726	-0.408691	-0.210693	0.640137	116.763317	-84.731221	43.421531
46303		9.588961	0.689085	0.076896	0.041139	0.080671	-0.003743	-0.415039	-0.214111	0.636475	116.279665	-84.753736	43.936983
46304		9.657538	0.688859	0.049388	0.036699	0.086784	-0.005089	-0.414551	-0.204590	0.646729	115.801177	-84.772813	44.442459
46305		9.672233	0.680974	0.019533	0.023378	0.100721	-0.006517	-0.411133	-0.213867	0.651367	115.176795	-84.798074	45.089153
46306		9.625442	0.709903	0.004831	0.026683	0.097946	-0.003215	-0.411621	-0.207520	0.642334	114.625160	-84.819897	45.662278
46307		9.665310	0.666448	0.007730	0.027493	0.086868	-0.010983	-0.415283	-0.201416	0.639893	114.062307	-84.838204	46.249894
46308		9.672881	0.623203	-0.003463	-0.005558	0.056935	-0.019261	-0.413330	-0.209961	0.646240	113.681269	-84.841175	46.633153
46309		9.695357	0.673309	-0.108301	-0.019615	0.044351	-0.018443	-0.417969	-0.205322	0.640869	113.314719	-84.845149	46.996985
46310		9.749180	0.682939	-0.100406	0.006566	0.041514	-0.018938	-0.409424	-0.206543	0.644043	113.030720	-84.844393	47.289782
46311		9.712478	0.686073	-0.049341	0.014649	0.037779	-0.020204	-0.403809	-0.203613	0.637451	112.717851	-84.845577	47.619364
46312		9.704079	0.712436	0.022474	0.030313	0.030832	-0.024788	-0.415527	-0.208496	0.644043	112.496017	-84.839114	47.863406
46313		9.691571	0.724380	-0.136077	0.037425	0.028603	-0.024452	-0.420898	-0.211670	0.637939	112.241386	-84.835661	48.147385
46314		9.636458	0.779068	-0.088961	0.044157	0.036522	-0.020004	-0.423340	-0.208252	0.636475	112.006495	-84.832781	48.412506
46315		9.622462	0.728984	-0.095245	0.058911	0.035901	-0.019896	-0.413818	-0.208496	0.638672	111.729348	-84.833389	48.730391
46316		9.585663	0.732120	-0.045145	0.066019	0.033687	-0.019554	-0.412354	-0.200684	0.641602	111.525141	-84.829943	48.977280
46317		9.585529	0.734049	-0.042067	0.058094	0.040019	-0.021268	-0.406494	-0.211914	0.640625	111.223021	-84.830165	49.320856
46318		9.569732	0.724368	0.050758	0.059438	0.044147	-0.023098	-0.410156	-0.208984	0.637939	110.945714	-84.826770	49.637360
46319		9.562929	0.710971	0.023887	0.050327	0.028816	-0.027188	-0.407227	-0.213867	0.648193	110.694263	-84.821074	49.924424
46320		9.581772	0.682303	-0.021192	0.053840	0.029063	-0.021137	-0.411377	-0.206787	0.645996	110.508263	-84.815449	50.146030
46321		9.632884	0.653856	-0.053542	0.051736	0.033866	-0.017608	-0.418457	-0.210205	0.640381	110.250211	-84.815685	50.441328
46322		9.621634	0.641657	-0.021214	0.057347	0.029329	-0.015082	-0.416260	-0.202393	0.638428	110.078471	-84.813217	50.650633
46323		9.628776	0.678902	-0.039164	0.058926	0.036954	-0.008477	-0.411865	-0.214355	0.636475	109.823086	-84.819003	50.947137
46324		9.603104	0.694666	-0.018609	0.059927	0.035926	-0.004363	-0.417480	-0.208008	0.640625	109.636381	-84.823449	51.172952
46325		9.624763	0.702289	-0.024643	0.066812	0.026327	-0.004096	-0.415039	-0.202393	0.640381	109.458380	-84.829269	51.395282
46326		9.588589	0.724381	-0.026536	0.075045	0.020843	-0.005663	-0.414795	-0.207764	0.635742	109.367036	-84.830027	51.534040
46327		9.585287	0.767491	-0.066909	0.074383	0.023164	-0.007383	-0.412109	-0.204834	0.637451	109.204776	-84.833380	51.745718
46328		9.597567	0.779764	0.045286	0.077060	0.023165	-0.000072	-0.415039	-0.207764	0.642822	109.112121	-84.837544	51.886950
46329		9.627895	0.762637	-0.030125	0.068538	0.020338	-0.010005	-0.407227	-0.208008	0.640869	108.958424	-84.838792	52.086513
46330		9.606877	0.776297	-0.071270	0.067487	0.012678	-0.008828	-0.408936	-0.196777	0.643799	108.904944	-84.836212	52.182903
46331		9.650209	0.791395	-0.087494	0.049461	0.016521	-0.006601	-0.416260	-0.197021	0.645264	108.771998	-84.838384	52.351326
46332		9.624496	0.807185	-0.068928	0.056263	0.017892	-0.005566	-0.410645	-0.198730	0.644531	108.687495	-84.838502	52.472408
46333		9.632449	0.762728	-0.085039	0.057434	0.019444	-0.004430	-0.410156	-0.202393	0.639160	108.544390	-84.842439	52.656476
46334		9.621987	0.769248	-0.104537	0.045542	0.022585	-0.000253	-0.415283	-0.192871	0.638916	108.436039	-84.846251	52.795334
46335		9.622013	0.769208	-0.102457	0.030498	0.026718	0.000256	-0.423828	-0.196777	0.631348	108.242491	-84.853948	53.013837
46336		9.591553	0.787044	-0.023319	0.033974	0.026515	0.000609	-0.414551	-0.195068	0.648682	108.104895	-84.858863	53.175401
46337		9.567428	0.740990	-0.051359	0.029126	0.018262	0.004758	-0.414307	-0.206055	0.642822	107.968113	-84.867535	53.336412
46338		9.589140	0.748164	-0.058343	0.022472	0.018983	-0.004968	-0.413086	-0.202393	0.640137	107.858104	-84.868016	53.463659
46339		9.606828	0.778116	-0.056406	0.014886	0.022180	-0.001701	-0.412354	-0.202637	0.638428	107.678459	-84.873602	53.658239
46340		9.654241	0.770193	-0.080180	0.013559	0.022422	-0.002506	-0.416260	-0.202393	0.636963	107.546959	-84.875964	53.801934
46341		9.671953	0.799949	-0.077600	0.014122	0.031104	-0.000052	-0.422119	-0.199707	0.644043	107.314622	-84.883892	54.048833
46342		9.653396	0.750682	-0.023944	0.006819	0.030249	-0.003152	-0.414063	-0.204346	0.636475	107.129698	-84.887141	54.242287
46343		9.658260	0.748465	-0.080802	-0.000178	0.025825	-0.006913	-0.417725	-0.194824	0.637939	106.906975	-84.890320	54.471627
46344		9.600394	0.763283	-0.073400	-0.005421	0.032112	-0.001382	-0.418457	-0.200439	0.630371	106.706363	-84.894724	54.673787
46345		9.606791	0.779581	-0.040279	-0.003577	0.035718	-0.001171	-0.415039	-0.199463	0.636230	106.430357	-84.902526	54.954756
46346		9.593118	0.727677	-0.045120	-0.007493	0.045640	-0.003194	-0.421631	-0.197754	0.643555	106.140899	-84.907943	55.244920
46347		9.646021	0.715892	0.014655	-0.001140	0.052860	0.004546	-0.414063	-0.199707	0.643066	105.769332	-84.921289	55.623646
46348		9.584890	0.671399	0.036583	0.003659	0.052423	0.005712	-0.420654	-0.193604	0.641357	105.457639	-84.932363	55.942536
46349		9.605626	0.658314	0.083974	0.004483	0.052705	0.004459	-0.420410	-0.198486	0.639404	105.087402	-84.945197	56.323673
46350		9.637725	0.658422	0.101436	0.008926	0.047122	0.011597	-0.426025	-0.208496	0.636963	104.818787	-84.958420	56.602336
46351		9.642979	0.653835	0.186582	0.008581	0.045857	0.009207	-0.422852	-0.201904	0.637451	104.496788	-84.972628	56.935971
46352		9.656157	0.605517	0.113992	-0.005362	0.041845	0.004707	-0.420654	-0.197266	0.638184	104.239258	-84.981025	57.195277
46353		9.593077	0.623489	0.041539	-0.011187	0.038477	-0.003636	-0.425537	-0.195557	0.652344	103.930106	-84.986746	57.505194
46354		9.598197	0.619940	0.125569	-0.004287	0.029346	0.002402	-0.419434	-0.202148	0.628662	103.747376	-84.991938	57.690027
46355		9.598591	0.720692	0.073835	-0.009093	0.029309	-0.004475	-0.414551	-0.208740	0.645752	103.495649	-84.995737	57.943888
46356		9.636981	0.738897	-0.019684	-0.006953	0.054403	-0.000748	-0.425781	-0.196045	0.638184	103.146096	-85.002335	58.294645
46357		9.692981	0.785476	0.029377	0.008229	0.073557	0.002648	-0.416992	-0.191895	0.637451	102.631822	-85.015407	58.821612
46358		9.707328	0.756250	0.049315	0.015047	0.079800	0.006763	-0.421143	-0.201172	0.640381	102.139475	-85.028830	59.328343
46359		9.694521	0.722602	0.136858	0.017788	0.067847	0.001956	-0.429688	-0.196289	0.632568	101.661752	-85.040028	59.824696
46360		9.706686	0.654782	0.117593	0.029556	0.071856	0.006927	-0.416748	-0.195557	0.637695	101.224482	-85.051914	60.284471
46361		9.707975	0.674113	0.073625	0.032719	0.074760	0.002253	-0.427246	-0.190918	0.638428	100.705163	-85.063397	60.830878
46362		9.705908	0.635135	0.042550	0.027779	0.081876	0.004446	-0.428955	-0.202637	0.631348	100.193998	-85.074237	61.363784
46363		9.617996	0.687074	0.080761	0.020432	0.101282	0.002418	-0.426270	-0.197510	0.632568	99.487861	-85.087547	62.090444
46364		9.636093	0.735584	0.180378	0.020137	0.109270	0.000419	-0.432129	-0.196777	0.640137	98.782228	-85.097547	62.814119
46365		9.637424	0.755333	0.140564	0.026994	0.124297	-0.000763	-0.413330	-0.197998	0.630615	97.917856	-85.109328	63.703423
46366		9.668914	0.737446	0.077039	0.053920	0.146586	-0.003727	-0.427246	-0.201172	0.631348	96.973729	-85.117914	64.685867
46367		9.678924	0.750732	0.202643	0.075371	0.172167	-0.003908	-0.421631	-0.201172	0.624756	95.810856	-85.128193	65.901680
46368		9.682674	0.728811	0.210721	0.087301	0.183268	-0.004531	-0.432617	-0.199951	0.621826	94.632821	-85.134979	67.138047
46369		9.662252	0.741468	0.186082	0.097389	0.205407	0.003755	-0.426514	-0.192871	0.628906	93.251964	-85.146585	68.584473
46370		9.641560	0.772819	0.252044	0.083757	0.212555	0.007621	-0.432129	-0.200439	0.630859	91.870491	-85.156199	70.022935
46371		9.563357	0.737259	0.325181	0.051974	0.200604	0.015368	-0.428955	-0.189209	0.629883	90.487412	-85.168462	71.446542
46372		9.603935	0.811294	0.373600	0.028949	0.177685	0.020703	-0.438965	-0.186768	0.625732	89.300486	-85.179940	72.658202
46373		9.597889	0.793189	0.358531	0.011247	0.134193	0.017171	-0.429688	-0.191406	0.628174	88.333061	-85.189114	73.642315
46374		9.644378	0.744521	0.307266	0.016453	0.104944	0.013666	-0.440430	-0.192627	0.626953	87.627521	-85.194621	74.363672
46375		9.685666	0.738736	0.351077	0.008911	0.078811	-0.001400	-0.438721	-0.193604	0.628174	87.037987	-85.192473	74.966624
46376		9.663972	0.651085	0.369785	-0.015630	0.054177	-0.005041	-0.431641	-0.194580	0.629150	86.665337	-85.187684	75.335470
46377		9.636273	0.628182	0.352503	-0.023423	0.040127	-0.008020	-0.434814	-0.186523	0.620361	86.324938	-85.182353	75.669635
46378		9.624559	0.677021	0.292007	-0.008895	0.032115	-0.007667	-0.433838	-0.196533	0.621582	86.108354	-85.176554	75.885741
46379		9.606130	0.729027	0.290902	0.005219	0.043191	-0.008642	-0.437256	-0.197754	0.628174	85.764993	-85.170481	76.239132
46380		9.610659	0.685073	0.418072	0.017501	0.036435	-0.013249	-0.437500	-0.191162	0.635498	85.538511	-85.161127	76.480353
46381		9.615882	0.703156	0.450610	0.005640	0.019986	-0.021430	-0.434082	-0.203857	0.629395	85.361375	-85.148556	76.667665
46382		9.616987	0.686022	0.362890	-0.016814	0.010840	-0.027493	-0.440186	-0.194580	0.624756	85.296849	-85.132147	76.726623
46383		9.648474	0.689597	0.377396	-0.012852	0.005231	-0.028046	-0.445313	-0.197754	0.622803	85.213094	-85.116423	76.808565
46384		9.657998	0.686404	0.398797	0.000094	-0.008738	-0.033938	-0.434814	-0.193115	0.618896	85.293065	-85.097256	76.732223
46385		9.693373	0.690542	0.271619	0.002223	-0.003796	-0.031316	-0.439209	-0.202393	0.626465	85.278391	-85.080142	76.753609
46386		9.656017	0.676254	0.228025	0.010187	0.003574	-0.031685	-0.433105	-0.195801	0.620850	85.280732	-85.061678	76.760985
46387		9.661219	0.695424	0.258985	0.004850	0.019224	-0.025888	-0.440186	-0.198242	0.628906	85.115179	-85.046508	76.935035
46388		9.653079	0.661984	0.282026	-0.000641	0.022484	-0.023173	-0.444092	-0.195557	0.623779	84.983012	-85.031965	77.071198
46389		9.638814	0.692696	0.271159	0.004275	0.025150	-0.019219	-0.428711	-0.191895	0.629395	84.774834	-85.020277	77.288278
46390		9.632450	0.759117	0.239610	0.011089	0.030959	-0.020735	-0.447266	-0.199707	0.624023	84.594254	-85.006601	77.479790
46391		9.702451	0.760214	0.211126	0.020236	0.044305	-0.022617	-0.438721	-0.190186	0.625732	84.276576	-84.991736	77.816136
46392		9.667942	0.741778	0.253417	0.034425	0.063424	-0.017830	-0.431885	-0.191406	0.625000	83.899314	-84.977627	78.218516
46393		9.644032	0.756222	0.356403	0.039955	0.064587	-0.023205	-0.432861	-0.196777	0.619629	83.467435	-84.960768	78.681399
46394		9.657681	0.730093	0.375274	0.046923	0.059314	-0.025401	-0.438232	-0.200195	0.624756	83.134417	-84.942143	79.046571
46395		9.645842	0.780972	0.316159	0.043189	0.053326	-0.031242	-0.441162	-0.197754	0.625244	82.789024	-84.920945	79.423219
46396		9.618170	0.760487	0.299033	0.033921	0.055493	-0.031350	-0.439697	-0.196289	0.625244	82.483275	-84.898849	79.753560
46397		9.599296	0.814713	0.299253	0.028120	0.057466	-0.031041	-0.437500	-0.194824	0.624023	82.107988	-84.877094	80.152017
46398		9.604113	0.833943	0.334631	0.027688	0.061606	-0.024700	-0.433105	-0.192871	0.624512	81.759874	-84.857921	80.521329
46399		9.630098	0.821037	0.324968	0.025854	0.076592	-0.024217	-0.452148	-0.194336	0.629150	81.265056	-84.837909	81.038839
46400		9.636843	0.820198	0.273467	0.029810	0.089636	-0.024039	-0.438721	-0.195557	0.622070	80.748660	-84.816069	81.578366
46401		9.648305	0.813874	0.384439	0.038255	0.091656	-0.025345	-0.434326	-0.194092	0.614746	80.174436	-84.793180	82.182803
46402		9.614906	0.754343	0.472767	0.053804	0.091498	-0.026111	-0.443848	-0.191650	0.630859	79.671926	-84.769067	82.722230
46403		9.618757	0.734543	0.472881	0.060722	0.091168	-0.025252	-0.440674	-0.194580	0.623535	79.125913	-84.745243	83.311330
46404		9.637209	0.725352	0.524508	0.067178	0.091351	-0.026461	-0.440674	-0.186035	0.622314	78.642188	-84.720064	83.839629
46405		9.646039	0.722454	0.554543	0.049549	0.091010	-0.031011	-0.440430	-0.194580	0.617676	78.108212	-84.692086	84.410574
46406		9.639859	0.670460	0.494595	0.017517	0.079449	-0.042426	-0.443848	-0.192383	0.627686	77.698541	-84.658566	84.835971
46407		9.657812	0.726503	0.370117	-0.006091	0.065463	-0.052460	-0.449951	-0.192871	0.627930	77.325042	-84.620953	85.213340
46408		9.645025	0.757247	0.443759	-0.011480	0.062512	-0.047428	-0.447754	-0.192383	0.612549	77.015893	-84.586292	85.521129
46409		9.636779	0.764970	0.508261	-0.001775	0.046148	-0.042856	-0.449219	-0.194092	0.622070	76.752209	-84.556199	85.790784
46410		9.678490	0.786231	0.416765	-0.000433	0.050345	-0.044697	-0.443359	-0.199707	0.624756	76.523522	-84.524403	86.024135
46411		9.676490	0.831662	0.379047	0.010048	0.056566	-0.032269	-0.443848	-0.198486	0.614746	76.198968	-84.498543	86.361487
46412		9.682075	0.770380	0.419586	0.016362	0.066590	-0.027421	-0.443604	-0.195068	0.620117	75.867365	-84.473874	86.707922
46413		9.642325	0.775184	0.470647	0.007131	0.059380	-0.027932	-0.446533	-0.196289	0.616455	75.525269	-84.449637	87.060867
46414		9.619979	0.809727	0.521306	-0.012171	0.044652	-0.027724	-0.436768	-0.192627	0.617432	75.308412	-84.427608	87.275615
46415		9.617762	0.752044	0.618416	-0.023406	0.019472	-0.039610	-0.448486	-0.199707	0.616943	75.198144	-84.402476	87.378374
46416		9.623663	0.755083	0.479936	-0.037498	0.009539	-0.044116	-0.449707	-0.198242	0.618652	75.191957	-84.376427	87.366875
46417		9.588930	0.841089	0.381115	-0.041003	0.005308	-0.041882	-0.452881	-0.188477	0.614746	75.153878	-84.352098	87.386597
46418		9.638837	0.834222	0.440165	-0.021658	0.018763	-0.036690	-0.434814	-0.187988	0.611816	75.094427	-84.328807	87.437742
46419		9.605348	0.813841	0.560277	-0.020467	0.027087	-0.024421	-0.446045	-0.194580	0.621094	74.922593	-84.310980	87.604839
46420		9.595565	0.782914	0.503099	-0.018981	0.025049	-0.023898	-0.445068	-0.197998	0.625244	74.812038	-84.293801	87.708886
46421		9.618790	0.750604	0.540479	-0.009564	0.016704	-0.021361	-0.442627	-0.194336	0.608887	74.702360	-84.279134	87.819510
46422		9.638829	0.738328	0.666059	-0.009386	0.006853	-0.027409	-0.442139	-0.198486	0.615967	74.703892	-84.262735	87.816439
46423		9.673243	0.723075	0.591347	-0.035990	-0.006230	-0.041279	-0.440186	-0.201904	0.615723	74.735174	-84.240493	87.769451
46424		9.619754	0.781965	0.408759	-0.064089	-0.027420	-0.044943	-0.449219	-0.207520	0.617432	74.918574	-84.219538	87.552083
46425		9.657292	0.864989	0.357043	-0.063641	-0.027912	-0.042868	-0.440918	-0.198486	0.619385	75.053507	-84.199581	87.384320
46426		9.647617	0.874446	0.333536	-0.047349	-0.019217	-0.033356	-0.443848	-0.197510	0.621582	75.182593	-84.183724	87.231172
46427		9.642668	0.899534	0.341040	-0.044162	-0.004621	-0.023823	-0.452881	-0.205078	0.619873	75.174320	-84.170923	87.219787
46428		9.631512	0.846042	0.413283	-0.032640	0.004464	-0.015592	-0.442139	-0.199219	0.622314	75.157164	-84.161418	87.222108
46429		9.637718	0.783025	0.448286	-0.016613	0.003815	-0.014213	-0.438477	-0.197021	0.618896	75.104102	-84.152687	87.271240
46430		9.606158	0.782769	0.434527	-0.009222	0.002945	-0.011253	-0.445068	-0.201660	0.619629	75.102439	-84.145808	87.271474
46431		9.651702	0.756819	0.462128	-0.005021	-0.004480	-0.012088	-0.448486	-0.199219	0.622314	75.099457	-84.139494	87.277155
46432		9.598155	0.749332	0.455164	-0.012871	-0.003089	-0.017121	-0.447998	-0.195557	0.618408	75.136618	-84.130253	87.236260
46433		9.608960	0.806455	0.383144	-0.011628	-0.001994	-0.021662	-0.448486	-0.189209	0.615967	75.128387	-84.118317	87.243786
46434		9.610359	0.805678	0.463411	-0.006207	-0.012752	-0.024373	-0.449219	-0.198975	0.615234	75.231326	-84.106472	87.140601
46435		9.603944	0.794774	0.351541	-0.011234	-0.009204	-0.030715	-0.438477	-0.194092	0.625000	75.273704	-84.090600	87.097590
46436		9.652327	0.867652	0.404108	-0.004787	-0.005443	-0.023488	-0.445801	-0.199463	0.618896	75.336379	-84.078160	87.035697
46437		9.656928	0.847239	0.395677	0.007310	0.002628	-0.018881	-0.446045	-0.192383	0.618164	75.312470	-84.067112	87.070039
46438		9.629892	0.902771	0.449818	0.016471	0.001009	-0.013011	-0.443115	-0.205566	0.614014	75.338047	-84.059541	87.057687
46439		9.614152	0.871142	0.529720	0.015140	-0.003189	-0.011182	-0.447266	-0.193848	0.618408	75.337581	-84.053576	87.072318
46440		9.562067	0.924129	0.429066	0.005996	-0.003740	-0.000592	-0.444092	-0.197266	0.615967	75.365102	-84.053576	87.051978
46441		9.556058	0.846143	0.492065	-0.003510	-0.008687	0.004893	-0.443115	-0.200684	0.613281	75.360722	-84.057354	87.060276
46442		9.560946	0.823183	0.482606	-0.000153	-0.016395	0.005290	-0.444092	-0.202637	0.612549	75.444014	-84.062441	86.980320
46443		9.553242	0.825624	0.539917	0.005636	-0.022753	0.007685	-0.442139	-0.193848	0.618408	75.516445	-84.069721	86.915587
46444		9.592716	0.823508	0.492514	0.004237	-0.025623	0.004134	-0.437988	-0.202881	0.619141	75.653489	-84.075456	86.784123
46445		9.646323	0.832107	0.496610	0.008553	-0.025507	0.003341	-0.447021	-0.196533	0.620117	75.750501	-84.080728	86.697078
46446		9.646476	0.831798	0.494143	0.011835	-0.023867	0.004102	-0.443604	-0.189453	0.615479	75.882994	-84.086145	86.574568
46447		9.649662	0.850599	0.441103	0.012017	-0.017658	0.009526	-0.448730	-0.197754	0.625488	75.929998	-84.093787	86.540385
46448		9.640307	0.894508	0.455861	0.017069	-0.016768	0.013197	-0.447754	-0.195557	0.616943	76.015551	-84.103238	86.468083
46449		9.605999	0.872366	0.491389	0.025058	-0.006192	0.015596	-0.449463	-0.200195	0.627197	76.000204	-84.112637	86.503814
46450		9.557458	0.878497	0.513703	0.021752	-0.012252	0.017507	-0.441895	-0.196289	0.617920	76.058611	-84.123853	86.461502
46451		9.584460	0.861803	0.495731	0.027606	-0.027942	0.019541	-0.445313	-0.201904	0.621826	76.158312	-84.138419	86.382833
46452		9.574034	0.804782	0.564626	0.022805	-0.031957	0.020935	-0.441162	-0.198975	0.617432	76.320329	-84.154212	86.236977
46453		9.586859	0.777207	0.493594	0.012744	-0.039474	0.021652	-0.434326	-0.199951	0.625244	76.473075	-84.171427	86.095866
46454		9.617003	0.857593	0.499188	-0.002072	-0.042162	0.018425	-0.437744	-0.199707	0.623535	76.681644	-84.187091	85.888897
46455		9.612648	0.878269	0.503524	-0.007882	-0.040227	0.018705	-0.436035	-0.205322	0.617920	76.835193	-84.202669	85.735351
46456		9.645713	0.938535	0.420272	-0.010901	-0.036965	0.028751	-0.438477	-0.192871	0.620117	76.998991	-84.223297	85.568311
46457		9.652763	0.910363	0.489180	0.001171	-0.041331	0.030258	-0.439697	-0.192383	0.618164	77.149785	-84.245376	85.422474
46458		9.653232	0.907603	0.485023	0.003226	-0.044371	0.027148	-0.431641	-0.193359	0.621826	77.367296	-84.265943	85.209598
46459		9.666122	0.918120	0.451943	0.009355	-0.032564	0.032322	-0.440430	-0.194824	0.616455	77.474092	-84.288044	85.113446
46460		9.666565	0.914979	0.448838	0.015927	-0.029291	0.033828	-0.443848	-0.196045	0.623779	77.608737	-84.310379	84.991176
46461		9.671653	0.889090	0.438271	0.002567	-0.016659	0.037231	-0.439697	-0.192871	0.622070	77.615664	-84.333222	84.991142
46462		9.628088	0.870625	0.452399	-0.015876	-0.009330	0.039648	-0.438721	-0.193359	0.620850	77.613334	-84.356346	84.988216
46463		9.614305	0.895086	0.438013	-0.026977	-0.015298	0.041938	-0.439697	-0.195313	0.636963	77.590872	-84.381667	85.000975
46464		9.653255	0.906100	0.561269	-0.026727	-0.022010	0.038590	-0.436768	-0.197510	0.622803	77.656003	-84.405756	84.924018
46465		9.624747	0.881416	0.455824	-0.028459	-0.030582	0.035324	-0.443359	-0.195801	0.619873	77.730620	-84.429223	84.838460
46466		9.654967	0.921321	0.424550	-0.023091	-0.027582	0.030293	-0.444824	-0.187988	0.622314	77.841548	-84.449319	84.717589
46467		9.640100	0.885573	0.502151	-0.001261	-0.030191	0.031325	-0.436279	-0.191895	0.626221	77.932589	-84.470507	84.631208
46468		9.637296	0.824285	0.511847	-0.005687	-0.033387	0.029420	-0.442871	-0.199219	0.613281	78.089953	-84.490759	84.473710
46469		9.642262	0.799151	0.500565	0.002973	-0.028768	0.025137	-0.436035	-0.191162	0.616943	78.185644	-84.508214	84.384492
46470		9.589043	0.788393	0.491386	0.008024	-0.031485	0.020380	-0.441162	-0.195557	0.623291	78.352675	-84.523105	84.225185
46471		9.602175	0.838895	0.497602	0.004234	-0.023270	0.017921	-0.434814	-0.193359	0.622070	78.427121	-84.535855	84.158261
46472		9.617625	0.869900	0.415276	-0.006522	-0.019101	0.017274	-0.437988	-0.197266	0.620361	78.518093	-84.547530	84.066994
46473		9.625134	0.881861	0.524066	0.007237	-0.022935	0.016277	-0.433838	-0.186035	0.625488	78.595890	-84.559270	83.998204
46474		9.667119	0.897559	0.425648	-0.003439	-0.020073	0.021013	-0.442139	-0.191650	0.619141	78.690713	-84.573129	83.904846
46475		9.693883	0.880529	0.408090	0.003562	-0.011620	0.016529	-0.441162	-0.195801	0.629150	78.699232	-84.583785	83.904338
46476		9.681707	0.865586	0.436038	0.012158	-0.015835	0.017578	-0.441406	-0.187744	0.627686	78.782552	-84.595225	83.831515
46477		9.690991	0.819111	0.417610	0.021983	-0.018974	0.014078	-0.440430	-0.196533	0.630127	78.848605	-84.605306	83.783803
46478		9.647225	0.803372	0.430822	0.021195	-0.024161	0.012287	-0.443848	-0.197998	0.630859	78.993555	-84.614666	83.654280
46479		9.645642	0.844199	0.385856	0.016913	-0.019846	0.010428	-0.441162	-0.192383	0.624512	79.066982	-84.622717	83.595645
46480		9.606925	0.845357	0.429218	0.020762	-0.019235	0.007544	-0.442383	-0.194092	0.622559	79.188409	-84.628832	83.489502
46481		9.587837	0.856536	0.384361	0.004966	-0.012339	0.011665	-0.441895	-0.200195	0.623291	79.207961	-84.636775	83.478094
46482		9.590374	0.852602	0.463560	0.006299	-0.021886	0.012141	-0.435791	-0.196045	0.625977	79.332249	-84.645736	83.360759
46483		9.619463	0.833682	0.525636	-0.001022	-0.035228	0.005835	-0.437012	-0.194336	0.629639	79.494246	-84.652737	83.202262
46484		9.619377	0.816193	0.351870	-0.008957	-0.042641	0.006187	-0.434082	-0.195801	0.619141	79.742342	-84.660419	82.951801
46485		9.637037	0.845336	0.348658	0.000286	-0.035450	0.006666	-0.434326	-0.193359	0.630615	79.907373	-84.667820	82.791309
46486		9.661009	0.810031	0.380454	0.006527	-0.028590	0.008789	-0.436768	-0.198486	0.630371	80.077799	-84.675418	82.627771
46487		9.604941	0.781186	0.422971	-0.000170	-0.022015	0.013362	-0.442139	-0.204834	0.627441	80.155903	-84.685201	82.554548
46488		9.608448	0.838650	0.407755	0.005593	-0.027563	0.004647	-0.437500	-0.194092	0.626953	80.324733	-84.690294	82.392080
46489		9.664071	0.804873	0.453189	0.007093	-0.038906	0.004803	-0.438721	-0.192627	0.624268	80.517483	-84.696791	82.207279
46490		9.652058	0.813036	0.346742	-0.007193	-0.043352	0.009101	-0.437256	-0.192139	0.622559	80.771559	-84.705767	81.951846
46491		9.723359	0.850482	0.349096	-0.000053	-0.041120	0.006951	-0.444092	-0.190430	0.626465	80.972491	-84.713598	81.755280
46492		9.638298	0.839988	0.325983	-0.005400	-0.030377	0.009687	-0.434326	-0.190674	0.632324	81.149089	-84.721579	81.578693
46493		9.626205	0.825838	0.352693	-0.000587	-0.026392	0.008264	-0.426270	-0.192139	0.628906	81.259723	-84.728784	81.473039
46494		9.623805	0.805981	0.400837	0.002631	-0.032773	0.003265	-0.437744	-0.187988	0.628906	81.462534	-84.733248	81.274753
46495		9.642398	0.776728	0.271021	-0.013743	-0.028465	0.002641	-0.431885	-0.187012	0.633545	81.586339	-84.737356	81.148244
46496		9.621348	0.808130	0.314617	-0.001696	-0.023558	0.004442	-0.443359	-0.187500	0.631348	81.729442	-84.741627	81.007432
46497		9.626737	0.823958	0.342416	-0.010196	-0.020643	0.008797	-0.438477	-0.194580	0.629883	81.800740	-84.748592	80.936231
46498		9.636576	0.817388	0.361975	-0.009104	-0.022672	0.001536	-0.437500	-0.189941	0.623779	81.937139	-84.751096	80.797891
46499		9.648061	0.791463	0.292162	-0.013246	-0.024566	0.002041	-0.435547	-0.190918	0.621826	82.036382	-84.754461	80.695939
46500		9.629538	0.842140	0.285111	-0.011807	-0.021699	0.005579	-0.436768	-0.200195	0.619141	82.162034	-84.759132	80.566838
46501		9.666637	0.859033	0.326762	-0.003430	-0.019205	0.009950	-0.437988	-0.197754	0.625732	82.227074	-84.766490	80.504113
46502		9.630670	0.879228	0.319913	-0.003644	-0.012499	0.013299	-0.434082	-0.192383	0.624512	82.294310	-84.774801	80.438371
46503		9.659666	0.881905	0.251784	-0.002843	-0.007319	0.015088	-0.436035	-0.191895	0.630859	82.282701	-84.784156	80.453267
46504		9.592422	0.878054	0.364333	-0.003599	0.000402	0.022069	-0.435547	-0.189697	0.629395	82.262484	-84.796450	80.475369
46505		9.584847	0.839948	0.385454	-0.000505	-0.000572	0.025796	-0.435791	-0.196045	0.620117	82.201741	-84.811396	80.541698
46506		9.616717	0.838697	0.399743	-0.004790	0.013034	0.024310	-0.433594	-0.182617	0.624268	82.099450	-84.823969	80.645525
46507		9.531589	0.826350	0.381652	-0.007568	0.014516	0.034055	-0.436523	-0.193359	0.634033	81.930965	-84.842371	80.815643
46508		9.524612	0.848372	0.310316	-0.001981	0.009979	0.036729	-0.436035	-0.192871	0.623535	81.837020	-84.862192	80.912700
46509		9.449036	0.851166	0.181640	0.001539	0.013401	0.045557	-0.443604	-0.190430	0.633301	81.668868	-84.887107	81.087635
46510		9.551377	0.846542	0.165901	-0.004375	0.039374	0.055324	-0.437012	-0.190430	0.619385	81.366910	-84.914927	81.392147
46511		9.682943	0.942245	0.251763	-0.042092	0.073016	0.068002	-0.441406	-0.185791	0.624512	80.764274	-84.947080	81.978300
46512		9.875273	1.018582	0.420223	-0.082943	0.111823	0.091060	-0.437988	-0.186035	0.628906	79.903098	-84.987550	82.798972
46513		10.004818	1.009321	0.570498	-0.110155	0.157452	0.108068	-0.430664	-0.178467	0.622559	78.648594	-85.031656	84.000801
46514		10.006496	0.955175	0.631092	-0.115032	0.180814	0.121683	-0.436279	-0.193115	0.624023	77.246589	-85.078000	85.345760
46515		9.987150	0.850559	0.744159	-0.111754	0.204889	0.131613	-0.443115	-0.190674	0.623535	75.602063	-85.123572	86.937839
46516		9.849086	0.777466	0.781807	-0.138720	0.210691	0.135378	-0.446777	-0.192139	0.618652	73.914475	-85.166466	88.555605
46517		9.680883	0.780528	0.881869	-0.200708	0.202345	0.140048	-0.447754	-0.190674	0.620850	72.158118	-85.208934	90.207992
46518		9.485167	0.786858	0.745089	-0.283894	0.175491	0.138846	-0.439209	-0.193604	0.614990	70.552155	-85.251954	91.660180
46519		9.239224	0.768317	0.509129	-0.365025	0.135955	0.128298	-0.443848	-0.193115	0.616943	69.106988	-85.293420	92.905631
46520		9.158200	0.553271	0.249629	-0.395230	0.126760	0.110965	-0.450684	-0.193359	0.614746	67.776031	-85.325648	94.017718
46521		9.110480	0.133328	0.128902	-0.342943	0.093777	0.093443	-0.451172	-0.199463	0.615723	66.671583	-85.353398	94.934132
46522		9.217691	-0.438778	-0.001016	-0.225983	0.085114	0.065983	-0.448486	-0.197754	0.614258	65.807978	-85.368134	95.674540
46523		9.201301	-0.814483	-0.079149	-0.165050	0.004902	0.044434	-0.453613	-0.201416	0.611816	65.505984	-85.389310	95.887848
46524		9.519994	-0.932327	-0.447030	-0.116056	-0.012851	0.024573	-0.446289	-0.195068	0.608887	65.453767	-85.404958	95.877392
46525		9.742187	-0.781883	-0.522736	-0.063070	0.017121	0.009991	-0.448242	-0.204590	0.614502	65.230249	-85.405314	96.070495
46526		9.909478	-0.421129	-0.478398	-0.037873	0.026334	0.006988	-0.448975	-0.195557	0.615234	65.020989	-85.402382	96.262529
46527		10.006798	-0.021487	-0.362844	-0.015958	0.032624	0.008566	-0.454834	-0.203125	0.616211	64.731027	-85.398241	96.549441
46528		10.192318	0.244009	-0.270537	0.006561	0.050819	0.015465	-0.458740	-0.195313	0.611816	64.364713	-85.393511	96.924580
46529		10.238141	0.419233	0.049771	0.006890	0.088647	0.030926	-0.442871	-0.199219	0.615967	63.659450	-85.386510	97.641340
46530		10.278904	0.535072	0.384913	-0.019810	0.122181	0.030368	-0.445068	-0.199707	0.608398	62.781754	-85.370283	98.514381
46531		10.203216	0.638391	0.770139	-0.098756	0.182897	0.013684	-0.452393	-0.189697	0.614014	61.500607	-85.327525	99.747998
46532		10.023098	0.709742	0.724174	-0.181344	0.215955	-0.004982	-0.449707	-0.199707	0.604492	60.104812	-85.264451	101.048125
46533		9.846905	0.679357	0.671397	-0.185480	0.191626	-0.019739	-0.452148	-0.203857	0.608643	58.891834	-85.198113	102.164302
46534		9.720875	0.544042	0.837402	-0.222804	0.183874	-0.026848	-0.459473	-0.207275	0.602051	57.803595	-85.129513	103.132185
46535		9.598037	0.267907	0.953721	-0.238474	0.157454	-0.038877	-0.448975	-0.201172	0.605469	56.881749	-85.060977	103.924870
46536		9.546853	0.029134	1.075336	-0.211717	0.121866	-0.052171	-0.452148	-0.208008	0.608154	56.283684	-84.997355	104.407300
46537		9.487445	-0.206880	1.250080	-0.195578	0.055447	-0.084799	-0.450195	-0.215820	0.609619	56.142119	-84.938295	104.442138
46538		9.380818	-0.344622	1.354859	-0.154920	-0.093378	-0.127562	-0.454834	-0.207764	0.600830	57.013050	-84.906544	103.482535
46539		9.390711	-0.388194	0.959203	-0.120358	-0.206717	-0.173114	-0.458984	-0.214600	0.601563	58.620557	-84.884756	101.804108
46540		9.306804	-0.234508	0.632553	-0.069371	-0.225807	-0.209161	-0.455566	-0.209717	0.605225	60.502001	-84.846755	99.879051
46541		9.243156	0.048018	0.338770	-0.027274	-0.206910	-0.235719	-0.449463	-0.214844	0.607422	62.305254	-84.784242	98.057552
46542		9.201326	0.245759	0.203516	0.002181	-0.161920	-0.250858	-0.451904	-0.211182	0.607910	63.915495	-84.697784	96.445633
46543		9.285456	0.432606	0.292432	0.055027	-0.096894	-0.252017	-0.445801	-0.215088	0.607666	65.106380	-84.590976	95.286342
46544		9.343938	0.546457	0.484961	0.121917	-0.024738	-0.232029	-0.451416	-0.215820	0.607666	65.890772	-84.475663	94.572413
46545		9.397265	0.532399	0.531696	0.230802	0.014640	-0.208793	-0.443604	-0.214600	0.608154	66.403190	-84.362612	94.195401
46546		9.410210	0.638102	0.333174	0.374020	0.061502	-0.188326	-0.440430	-0.214600	0.610840	66.727260	-84.249378	94.088959
46547		9.317192	0.717236	0.204033	0.494590	0.116619	-0.143389	-0.449219	-0.205322	0.609863	66.693711	-84.147302	94.412511
46548		9.148703	0.812642	0.116717	0.539138	0.150414	-0.099796	-0.444336	-0.206299	0.606689	66.460620	-84.060359	94.961265
46549		9.091807	0.936129	0.076026	0.523915	0.181205	-0.066208	-0.448486	-0.202148	0.615967	65.966705	-83.983551	95.765142
46550		9.211395	0.968341	0.157356	0.468345	0.237054	-0.044779	-0.450928	-0.205322	0.597900	65.173198	-83.903798	96.836829
46551		9.668392	0.887102	0.592046	0.383265	0.307671	-0.026996	-0.452148	-0.204102	0.619385	63.943242	-83.813673	98.299728
46552		10.012217	0.751268	0.627626	0.336346	0.336762	-0.021903	-0.454834	-0.199951	0.609131	62.613959	-83.715476	99.834659
46553		10.234850	0.728944	0.147854	0.391290	0.305063	-0.025670	-0.451660	-0.197021	0.611572	61.480260	-83.619981	101.206071
46554		10.347025	0.958036	-0.080261	0.461127	0.295444	-0.041852	-0.463135	-0.200439	0.604736	60.537906	-83.516739	102.424153
46555		10.091831	1.404284	-0.483936	0.493602	0.272660	-0.032263	-0.461182	-0.188965	0.609619	59.690171	-83.422110	103.566850
46556		9.624917	1.855354	-0.538346	0.470751	0.214541	-0.015074	-0.458496	-0.182373	0.610840	59.089188	-83.351865	104.447267
46557		9.310188	2.077619	-0.614676	0.393372	0.161408	0.006828	-0.456787	-0.180908	0.608887	58.594820	-83.306660	105.177784
46558		9.035634	2.199732	-0.845765	0.267026	0.102192	0.030760	-0.463135	-0.189697	0.610840	58.248660	-83.290795	105.684255
46559		9.197475	2.252539	-1.214815	0.144506	0.064768	0.041705	-0.454102	-0.182617	0.606445	57.932906	-83.290620	106.090874
46560		9.625219	2.142618	-1.244316	0.043664	0.047502	0.038533	-0.464600	-0.186279	0.606445	57.666014	-83.294581	106.388679
46561		10.175121	1.946008	-1.316975	-0.057784	0.028208	0.003927	-0.466797	-0.175293	0.607422	57.484738	-83.286877	106.542821
46562		10.602842	1.721741	-1.296865	-0.130139	0.003799	-0.034178	-0.464600	-0.178223	0.606445	57.487871	-83.268977	106.468470
46563		10.797658	1.350083	-1.064859	-0.105012	-0.012574	-0.069873	-0.459717	-0.185303	0.609131	57.637719	-83.238218	106.263022
46564		10.845302	0.952963	-1.081917	0.025345	-0.024913	-0.087199	-0.458008	-0.189697	0.603027	57.981714	-83.203324	105.935113
46565		10.511161	0.756987	-1.167388	0.119027	-0.008559	-0.087382	-0.465332	-0.180908	0.605225	58.286772	-83.162545	105.701294
46566		10.048402	0.846892	-1.099586	0.173447	0.018555	-0.067053	-0.466064	-0.179932	0.613525	58.482281	-83.124038	105.608355
46567		9.639702	1.039663	-0.916482	0.211475	0.051278	-0.053190	-0.454346	-0.181641	0.601074	58.507854	-83.082009	105.710369
46568		9.337344	1.249873	-0.714828	0.226836	0.087527	-0.045035	-0.462402	-0.174072	0.612305	58.401621	-83.033565	105.952201
46569		9.119912	1.513542	-0.612247	0.243070	0.126726	-0.048925	-0.460449	-0.183350	0.613037	58.140725	-82.970924	106.360920
46570		9.060572	1.682778	-0.270034	0.245352	0.177319	-0.060034	-0.458984	-0.176025	0.610352	57.738291	-82.887627	106.911978
46571		8.974381	1.732284	-0.052509	0.200031	0.186197	-0.063443	-0.461670	-0.179199	0.611084	57.277361	-82.798999	107.497387
46572		8.925109	1.763005	0.091759	0.153885	0.163536	-0.071132	-0.463379	-0.178223	0.612793	56.924700	-82.713669	107.945654
46573		8.915242	1.653668	0.211699	0.111783	0.121071	-0.084457	-0.462891	-0.176758	0.599854	56.729815	-82.634488	108.212078
46574		8.839007	1.587813	0.069589	0.062601	0.076105	-0.095804	-0.467773	-0.174805	0.609131	56.720855	-82.564455	108.261172
46575		8.857347	1.529396	-0.109526	0.024965	0.047643	-0.104574	-0.462158	-0.174316	0.604492	56.797196	-82.498561	108.203948
46576		8.854655	1.521643	-0.216732	-0.007668	0.031016	-0.106986	-0.462891	-0.173828	0.601807	56.937625	-82.437299	108.061758
46577		8.884800	1.516948	-0.390290	-0.041996	0.015070	-0.112367	-0.461182	-0.172852	0.599609	57.109144	-82.377850	107.870009
46578		8.874501	1.572476	-0.455191	-0.073395	-0.004347	-0.103119	-0.462158	-0.181396	0.598145	57.324940	-82.329310	107.613741
46579		8.906732	1.601527	-0.409535	-0.131284	-0.021204	-0.096911	-0.463379	-0.179199	0.609863	57.534274	-82.288260	107.331771
46580		8.945791	1.689910	-0.541239	-0.178620	-0.052930	-0.100097	-0.463135	-0.181396	0.600098	57.850644	-82.255779	106.913114
46581		9.098901	1.793485	-0.634721	-0.199664	-0.074479	-0.097376	-0.455078	-0.183350	0.608398	58.207621	-82.230326	106.442826
46582		9.260710	1.851091	-0.663038	-0.235189	-0.084947	-0.085131	-0.448975	-0.178955	0.607666	58.567441	-82.214082	105.947555
46583		9.287312	1.789225	-0.829935	-0.267544	-0.113417	-0.069271	-0.457031	-0.188965	0.601807	58.963661	-82.213350	105.398701
46584		9.270709	1.727933	-0.874558	-0.277401	-0.127196	-0.066293	-0.458740	-0.185303	0.610840	59.408808	-82.217844	104.792891
46585		9.289039	1.741757	-0.808245	-0.291206	-0.148764	-0.047049	-0.461670	-0.193115	0.608887	59.871504	-82.237051	104.162977
46586		9.218282	1.764665	-0.759682	-0.312550	-0.168157	-0.044104	-0.458740	-0.194336	0.609619	60.402707	-82.262894	103.450043
46587		9.337308	1.690460	-0.378195	-0.338836	-0.147112	-0.042219	-0.455566	-0.187744	0.603027	60.828157	-82.282533	102.830095
46588		9.385895	1.559429	-0.117551	-0.371476	-0.164872	-0.044989	-0.459717	-0.195313	0.599609	61.322354	-82.305445	102.120509
46589		9.331474	1.359217	-0.188376	-0.387978	-0.209039	-0.041130	-0.453613	-0.187988	0.609863	61.954317	-82.341029	101.264123
46590		9.250154	1.221383	-0.453082	-0.438694	-0.239589	-0.029402	-0.455566	-0.201904	0.601563	62.672032	-82.389680	100.290282
46591		9.250704	1.187004	-0.508186	-0.461728	-0.239315	-0.018846	-0.449463	-0.209229	0.610107	63.352198	-82.441851	99.343125
46592		9.283250	1.206125	-0.397784	-0.467098	-0.221245	-0.033170	-0.448975	-0.210449	0.605713	64.010614	-82.480803	98.412900
46593		9.286291	1.328820	-0.434612	-0.486756	-0.192639	-0.043263	-0.450928	-0.203125	0.605957	64.559969	-82.505839	97.582429
46594		9.260578	1.523853	-0.738340	-0.505512	-0.209601	-0.060884	-0.450928	-0.203613	0.610107	65.214470	-82.525005	96.634071
46595		9.313458	1.703918	-0.807013	-0.502796	-0.234372	-0.071312	-0.445557	-0.218506	0.612305	65.978792	-82.543043	95.578899
46596		9.329883	1.776951	-1.032168	-0.473813	-0.273666	-0.078829	-0.449707	-0.221191	0.607178	66.948903	-82.564035	94.330646
46597		9.292325	1.918070	-1.520157	-0.474119	-0.287612	-0.065668	-0.437744	-0.222412	0.613037	67.948188	-82.592116	93.054234
46598		9.550161	1.951718	-1.367342	-0.514442	-0.272357	-0.038011	-0.437500	-0.218750	0.621094	68.837643	-82.629118	91.864000
46599		9.909701	1.783611	-0.877845	-0.577485	-0.293011	-0.022648	-0.443115	-0.225098	0.615479	69.755641	-82.676183	90.610849
46600		10.483795	1.597095	-0.687243	-0.612689	-0.337072	-0.040265	-0.433105	-0.217773	0.611084	70.887959	-82.719285	89.119250
46601		11.176741	1.512006	-0.356619	-0.564632	-0.326973	-0.074645	-0.428711	-0.236572	0.616943	72.056620	-82.738249	87.621364
46602		11.630739	1.574856	-0.432495	-0.508992	-0.303063	-0.105612	-0.422363	-0.239746	0.613281	73.210262	-82.732114	86.168286
46603		12.068507	1.310633	-0.024123	-0.485703	-0.274364	-0.130751	-0.419922	-0.238037	0.616943	74.273541	-82.704024	84.821208
46604		12.423735	0.908037	0.454699	-0.464868	-0.305641	-0.152231	-0.432617	-0.243164	0.610596	75.504763	-82.665257	83.315239
46605		12.621555	0.608140	0.555436	-0.344842	-0.320770	-0.162313	-0.423828	-0.246338	0.606689	76.855630	-82.618836	81.759538
46606		12.517297	0.539417	0.591063	-0.160486	-0.325376	-0.171451	-0.421631	-0.253174	0.612549	78.329546	-82.562741	80.184380
46607		12.324261	0.671897	0.681458	-0.007924	-0.337787	-0.170615	-0.424561	-0.252930	0.623047	79.908966	-82.503297	78.591837
46608		11.704485	1.076090	0.727608	0.130965	-0.403055	-0.149559	-0.419922	-0.250000	0.625488	81.817477	-82.455155	76.746350
46609		10.948531	1.878653	0.604086	0.264557	-0.494954	-0.119470	-0.415527	-0.238770	0.616211	84.146458	-82.422063	74.555217
46610		10.191678	2.667886	0.788706	0.252179	-0.492722	-0.064663	-0.406006	-0.248291	0.628662	86.430027	-82.408129	72.401154
46611		9.508688	3.352960	1.227601	0.045894	-0.450803	0.003316	-0.415283	-0.253174	0.627441	88.387142	-82.421992	70.458773
46612		8.840902	3.747307	1.464997	-0.206585	-0.445716	0.060478	-0.405273	-0.252930	0.632324	90.192991	-82.459620	68.521588
46613		8.423287	3.704767	1.757235	-0.401626	-0.457530	0.081310	-0.408691	-0.250244	0.633057	91.947763	-82.501415	66.524498
46614		8.173608	3.274901	1.783156	-0.668873	-0.413369	0.077546	-0.395264	-0.258301	0.633301	93.384768	-82.534600	64.692521
46615		7.990172	2.590824	1.343001	-0.868073	-0.323256	0.061199	-0.397461	-0.260742	0.632080	94.310147	-82.557217	63.262969
46616		8.061470	1.674558	1.113145	-0.864500	-0.189143	0.042271	-0.398682	-0.264893	0.632813	94.660182	-82.572708	62.414336
46617		8.114185	0.594772	1.639628	-0.878137	-0.014322	0.015802	-0.398193	-0.260254	0.628174	94.216992	-82.581140	62.359297
46618		8.251665	-0.228030	2.012465	-0.944930	0.064079	0.000790	-0.405029	-0.274658	0.624268	93.397395	-82.583848	62.643729
46619		8.589770	-0.770718	2.033742	-0.999286	0.125010	0.005695	-0.403320	-0.278076	0.622314	92.266293	-82.590884	63.212687
46620		9.031330	-1.151481	1.590158	-0.984543	0.151015	0.008866	-0.395264	-0.291504	0.623779	91.040897	-82.598273	63.883436
46621		9.614744	-1.297534	1.107901	-0.883287	0.182457	0.013784	-0.409180	-0.294678	0.623535	89.720426	-82.607035	64.709992
46622		10.229001	-1.310073	0.877696	-0.735898	0.221364	0.019399	-0.406494	-0.296143	0.613770	88.322453	-82.615792	65.698393
46623		10.597836	-0.978988	0.608509	-0.601449	0.183443	0.032605	-0.404541	-0.298584	0.615723	87.149832	-82.630652	66.538620
46624		10.895973	-0.453986	0.378539	-0.464094	0.142704	0.061963	-0.402100	-0.302979	0.613525	86.238731	-82.661186	67.193058
46625		10.807731	0.156772	0.187690	-0.310193	0.125464	0.095101	-0.402344	-0.304688	0.617432	85.462078	-82.710709	67.802209
46626		10.681079	0.594321	0.419210	-0.170523	0.149651	0.125557	-0.407471	-0.303711	0.614258	84.648032	-82.774793	68.528228
46627		10.597974	0.728174	0.639789	-0.063997	0.170829	0.154092	-0.401367	-0.300293	0.608398	83.759233	-82.853126	69.392473
46628		10.726265	0.738261	0.666478	0.011712	0.218915	0.177271	-0.419434	-0.297852	0.594971	82.673474	-82.938972	70.497284
46629		10.840709	0.607659	0.730882	0.051851	0.280998	0.200750	-0.411377	-0.293701	0.611816	81.263807	-83.030824	71.952704
46630		10.814566	0.361282	0.642519	0.112980	0.340022	0.223911	-0.416992	-0.298828	0.603760	79.573567	-83.124707	73.724450
46631		10.661450	0.273343	0.729251	0.184521	0.412122	0.235700	-0.425049	-0.295898	0.605957	77.511837	-83.210559	75.912869
46632		10.405326	0.410989	0.886906	0.209368	0.442986	0.244033	-0.426025	-0.289307	0.602051	75.273326	-83.286549	78.291690
46633		9.942589	0.658250	0.868344	0.206273	0.399252	0.240512	-0.427002	-0.290039	0.595703	73.176746	-83.357265	80.526948
46634		9.747168	0.795042	0.748915	0.216113	0.370915	0.233827	-0.432129	-0.295410	0.604736	71.204785	-83.419618	82.640647
46635		9.485666	0.909944	0.735368	0.180298	0.347730	0.243794	-0.433594	-0.286133	0.593506	69.248480	-83.483671	84.718767
46636		9.325941	0.873451	0.572276	0.124611	0.329258	0.255097	-0.428467	-0.281738	0.595703	67.305221	-83.549423	86.750273
46637		9.044733	0.838820	0.555134	0.068815	0.358251	0.262947	-0.436035	-0.277344	0.601563	65.121487	-83.604414	88.992635
46638		8.801938	0.735328	0.574657	-0.013833	0.330428	0.261831	-0.440674	-0.286133	0.590332	63.004282	-83.656309	91.118897
46639		8.669646	0.612236	0.472860	-0.063748	0.321507	0.243362	-0.442627	-0.278076	0.596191	60.895163	-83.692526	93.209432
46640		8.569366	0.458663	0.339465	-0.100584	0.299139	0.215871	-0.443115	-0.276855	0.594727	58.935506	-83.713420	95.126885
46641		8.702321	0.255469	0.192427	-0.125179	0.311723	0.191202	-0.440674	-0.269531	0.586182	56.948340	-83.711213	97.059419
46642		8.885274	0.018466	0.182119	-0.118934	0.325652	0.161534	-0.450684	-0.269531	0.590088	55.015121	-83.683321	98.939718
46643		8.896238	-0.133403	0.257519	-0.132134	0.317653	0.137852	-0.441406	-0.273682	0.585449	53.180471	-83.640327	100.715275
46644		8.983610	-0.234147	-0.026507	-0.144728	0.299552	0.115014	-0.448486	-0.278076	0.577148	51.527815	-83.587459	102.298692
46645		8.926610	-0.246107	-0.120380	-0.105329	0.312154	0.104624	-0.449219	-0.276123	0.570068	49.893508	-83.520154	103.887886
46646		8.904464	-0.263503	-0.087882	-0.066670	0.296257	0.097736	-0.464844	-0.270264	0.578613	48.414266	-83.451282	105.342178
46647		8.847181	-0.241635	-0.139137	-0.040981	0.288102	0.088096	-0.454346	-0.284912	0.579346	47.023738	-83.377034	106.723579
46648		8.806205	-0.108742	-0.176364	-0.005448	0.264825	0.068701	-0.457031	-0.274658	0.575928	45.851159	-83.300778	107.904870
46649		8.818846	0.032918	-0.206283	0.019586	0.231564	0.052030	-0.459717	-0.272705	0.588135	44.874444	-83.228265	108.904682
46650		8.889945	0.162515	-0.241078	0.033516	0.192640	0.031255	-0.460693	-0.268799	0.577881	44.142583	-83.161897	109.664963
46651		9.029454	0.238237	-0.304358	0.063662	0.151857	0.017736	-0.458984	-0.283447	0.572998	43.606503	-83.105959	110.247356
46652		9.144649	0.214961	-0.406839	0.107533	0.124125	0.003008	-0.458740	-0.266602	0.571045	43.259294	-83.055293	110.663064
46653		9.217399	0.267394	-0.459396	0.153441	0.101084	-0.008595	-0.456055	-0.268555	0.585205	43.041728	-83.009227	110.975871
46654		9.238397	0.232652	-0.533242	0.208449	0.081918	-0.016112	-0.465820	-0.271484	0.572266	42.960169	-82.968400	111.182267
46655		9.209689	0.201748	-0.586499	0.269625	0.067509	-0.015490	-0.464600	-0.268555	0.575439	42.944041	-82.933783	111.359583
46656		9.213505	0.136674	-0.669548	0.328915	0.049676	-0.015385	-0.458008	-0.261719	0.574463	43.032546	-82.906747	111.464191
46657		9.227937	0.076153	-0.811636	0.391982	0.049164	-0.002715	-0.461426	-0.264893	0.584961	43.101643	-82.884868	111.626230
46658		9.241735	-0.082649	-0.882258	0.456143	0.035072	0.004299	-0.469727	-0.261230	0.577637	43.242956	-82.871693	111.751093
46659		9.267950	-0.271018	-1.053784	0.539353	0.041827	0.016549	-0.463867	-0.256592	0.579834	43.355878	-82.860612	111.954066
46660		9.343285	-0.436902	-1.089574	0.615840	0.039735	0.028844	-0.459717	-0.257568	0.578125	43.492416	-82.855231	112.175961
46661		9.401868	-0.556764	-0.899197	0.644109	0.027343	0.041711	-0.466309	-0.252197	0.586182	43.627751	-82.860292	112.416693
46662		9.494984	-0.570156	-0.734902	0.663128	0.007774	0.061198	-0.464355	-0.250488	0.586182	43.784797	-82.881094	112.645219
46663		9.589835	-0.489824	-0.534851	0.675529	-0.009859	0.076522	-0.462891	-0.238770	0.585938	43.940387	-82.915623	112.883672
46664		9.659903	-0.255307	-0.321324	0.635290	-0.004049	0.101764	-0.461426	-0.236572	0.592773	43.983030	-82.957562	113.211372
46665		9.605732	0.015971	-0.131636	0.539909	-0.011255	0.121632	-0.461182	-0.233643	0.587891	43.911696	-83.010785	113.600353
46666		9.590344	0.359964	0.096707	0.458294	0.008606	0.138354	-0.461182	-0.234375	0.586914	43.682256	-83.061885	114.099923
46667		9.637600	0.576889	0.390102	0.409348	0.030072	0.155923	-0.464111	-0.228760	0.588623	43.274876	-83.111030	114.751701
46668		9.676354	0.713419	0.852398	0.289230	0.067566	0.171018	-0.460449	-0.218506	0.595947	42.630776	-83.149260	115.571262
46669		9.571384	0.851568	1.065861	0.133320	0.036307	0.174309	-0.466797	-0.219971	0.586670	41.963292	-83.201282	116.325857
46670		9.358484	0.843895	0.648840	0.106048	-0.075879	0.158044	-0.465576	-0.217041	0.587891	41.703565	-83.293867	116.652471
46671		9.211413	0.446824	-0.146952	0.233134	-0.204456	0.123415	-0.462402	-0.213867	0.600098	42.046073	-83.428413	116.447511
46672		9.243600	-0.287376	-0.788505	0.410496	-0.314655	0.097984	-0.463135	-0.217773	0.603027	42.993472	-83.599031	115.734608
46673		9.551462	-1.182469	-1.073399	0.555237	-0.380969	0.077265	-0.457275	-0.210693	0.602295	44.375975	-83.787752	114.669272
46674		10.104692	-1.706547	-1.340480	0.731084	-0.363471	0.085729	-0.461914	-0.203857	0.595215	45.851842	-83.969318	113.610109
46675		10.598693	-1.696120	-1.440916	0.795266	-0.352763	0.113893	-0.445313	-0.197510	0.602295	47.275713	-84.156148	112.642099
46676		11.063032	-1.223867	-1.008902	0.703321	-0.310258	0.152381	-0.448486	-0.189941	0.602295	48.409524	-84.339973	111.911446
46677		11.371089	-0.396715	-0.920624	0.648072	-0.243591	0.192720	-0.450684	-0.193359	0.613525	49.097969	-84.515722	111.598307
46678		11.725035	0.295688	-0.567485	0.736688	-0.174978	0.222526	-0.453857	-0.182617	0.613281	49.448139	-84.677544	111.674429
46679		12.131442	0.822772	0.474025	0.768353	-0.178592	0.225061	-0.442627	-0.174316	0.616455	49.814913	-84.842858	111.753612
46680		12.445648	1.223351	1.467526	0.597704	-0.285911	0.218063	-0.449463	-0.168213	0.622803	50.682083	-85.043460	111.230728
46681		12.441756	1.789350	1.281454	0.367173	-0.373475	0.208682	-0.447998	-0.164795	0.622070	51.968421	-85.271341	110.156518
46682		12.293522	2.066370	1.277619	0.310115	-0.363461	0.197772	-0.444336	-0.162598	0.617432	53.348475	-85.487545	108.954103
46683		12.126651	1.812649	2.297964	0.400999	-0.346265	0.193524	-0.451660	-0.154053	0.625000	54.802863	-85.694510	107.731341
46684		11.769109	1.225448	3.293863	0.473793	-0.398417	0.205110	-0.432861	-0.154053	0.626709	56.751655	-85.919877	106.053388
46685		11.179091	0.435858	3.193918	0.382069	-0.575646	0.216236	-0.429199	-0.151855	0.629639	60.090319	-86.198991	102.931819
46686		10.679260	-0.243673	2.341306	0.354055	-0.710720	0.225420	-0.425781	-0.148682	0.642578	65.030891	-86.501309	98.188373
46687		10.240795	-0.757555	1.927881	0.508875	-0.681019	0.201110	-0.426514	-0.134766	0.637939	70.702237	-86.756168	92.802355
46688		9.544648	-1.111293	1.937263	0.636790	-0.586396	0.120264	-0.417969	-0.133057	0.642334	76.553299	-86.916960	87.311661
46689		8.720602	-0.879667	1.779221	0.694701	-0.439496	0.042748	-0.418213	-0.130371	0.649658	81.487283	-86.990169	82.772352
46690		8.000391	-0.361925	1.559379	0.816268	-0.288714	-0.015869	-0.416992	-0.121582	0.641113	85.107702	-87.000251	79.619149
46691		7.649303	0.189975	1.574274	0.972539	-0.157902	-0.056191	-0.409912	-0.113525	0.646973	87.398715	-86.975375	77.885989
46692		7.658886	0.654547	1.484767	1.067657	-0.024782	-0.076028	-0.415283	-0.105957	0.645508	88.309735	-86.932186	77.590135
46693		7.922426	0.949120	1.236183	1.102239	0.058246	-0.067234	-0.406738	-0.103027	0.653564	88.321368	-86.894046	78.213973
46694		8.311990	1.170028	1.268568	1.047075	0.066490	-0.044574	-0.412842	-0.095215	0.645996	88.238674	-86.867185	78.901477
46695		8.835888	1.453930	1.062739	0.899127	0.073999	-0.030225	-0.408447	-0.095703	0.642334	87.968600	-86.849735	79.690949
46696		9.357978	1.992862	0.751667	0.671688	0.100348	-0.026482	-0.411621	-0.087646	0.644043	87.325978	-86.832023	80.723851
46697		9.753722	2.734713	0.813291	0.438313	0.112913	-0.016541	-0.414307	-0.079834	0.650635	86.396703	-86.820138	81.909170
46698		10.070582	3.420685	0.843245	0.225920	0.082921	-0.024822	-0.412842	-0.077881	0.645508	85.695173	-86.802479	82.745298
46699		10.171836	3.868149	0.781783	0.062768	0.026189	-0.046036	-0.417969	-0.087646	0.643066	85.475190	-86.775934	83.004825
46700		10.036183	3.850839	0.700258	-0.072903	-0.019400	-0.080246	-0.416992	-0.083008	0.647705	85.693452	-86.730754	82.748242
46701		9.816116	3.281099	1.002331	-0.188537	-0.058407	-0.110978	-0.406006	-0.071289	0.647217	86.217630	-86.670496	82.120721
46702		9.732245	2.429377	0.829803	-0.263622	-0.090463	-0.141162	-0.404053	-0.089600	0.650879	87.028885	-86.592615	81.160625
46703		9.722306	1.880762	0.632333	-0.335283	-0.050775	-0.166676	-0.412109	-0.082031	0.653076	87.371718	-86.499250	80.628075
46704		9.753009	1.700943	0.798304	-0.433148	0.010441	-0.194308	-0.409180	-0.084961	0.648926	87.115853	-86.387569	80.639649
46705		9.766733	1.797272	0.983373	-0.527054	0.057283	-0.203311	-0.413330	-0.087646	0.655762	86.383615	-86.269925	81.074184
46706		9.788570	1.901070	1.061637	-0.592011	0.051289	-0.218116	-0.405762	-0.090820	0.636719	85.734278	-86.143036	81.388875
46707		9.778583	1.874062	0.960518	-0.659688	0.024964	-0.240715	-0.410400	-0.102295	0.649902	85.284480	-86.004838	81.464296
46708		9.795396	1.809354	0.753127	-0.720088	-0.017709	-0.263766	-0.404297	-0.104736	0.646729	85.192896	-85.854880	81.146360
46709		9.694297	1.762992	0.598134	-0.750531	-0.049331	-0.286990	-0.416748	-0.112305	0.643066	85.308451	-85.693705	80.602754
46710		9.651031	1.624654	0.445348	-0.759087	-0.065756	-0.303635	-0.412354	-0.118164	0.642334	85.545829	-85.523095	79.932345
46711		9.566954	1.413379	0.261210	-0.727213	-0.062152	-0.313189	-0.403809	-0.122559	0.652588	85.726934	-85.347316	79.338805
46712		9.420086	1.143497	0.141645	-0.675200	-0.061791	-0.319366	-0.406006	-0.121582	0.638672	85.928879	-85.167198	78.751852
46713		9.236659	0.997101	-0.124119	-0.648865	-0.038710	-0.316979	-0.406738	-0.127686	0.645508	85.946957	-84.987931	78.364055
46714		9.032423	0.965123	-0.349576	-0.600978	-0.024818	-0.302273	-0.408447	-0.143555	0.645996	85.902400	-84.815996	78.066963
46715		8.959290	0.935127	-0.440246	-0.511543	-0.006767	-0.279395	-0.398438	-0.141602	0.643799	85.762815	-84.656943	77.916303
46716		8.817243	1.062163	-0.425592	-0.445826	0.012112	-0.251533	-0.409424	-0.143555	0.638184	85.552388	-84.512520	77.874967
46717		8.679088	1.325244	-0.566026	-0.400408	0.018067	-0.215991	-0.407959	-0.146484	0.632813	85.304907	-84.388649	77.896617
46718		8.529371	1.610414	-0.636860	-0.373447	0.014324	-0.178288	-0.396729	-0.146240	0.641602	85.097600	-84.285974	77.893802
46719		8.529990	1.780005	-0.474713	-0.342505	0.018913	-0.137720	-0.401123	-0.144287	0.641113	84.850567	-84.206695	77.948371
46720		8.471219	1.881769	-0.385424	-0.370718	0.027030	-0.098240	-0.402588	-0.153564	0.635498	84.540959	-84.149022	78.049959
46721		8.537163	1.832985	-0.396313	-0.420023	0.033790	-0.080659	-0.401855	-0.158936	0.637939	84.145812	-84.101332	78.208817
46722		8.658642	1.673358	-0.437352	-0.441674	0.044875	-0.067852	-0.403076	-0.157959	0.631592	83.688933	-84.059754	78.417611
46723		8.948667	1.475838	-0.428555	-0.471400	0.062974	-0.073618	-0.406982	-0.161865	0.630127	83.111219	-84.013849	78.730486
46724		9.113363	1.257928	-0.564048	-0.475859	0.066315	-0.075693	-0.401123	-0.162598	0.630127	82.535058	-83.965874	79.039559
46725		9.250192	1.185072	-0.867246	-0.453399	0.056065	-0.065200	-0.398926	-0.161621	0.626953	82.012283	-83.924641	79.307625
46726		9.276981	1.356600	-0.844919	-0.418498	0.059846	-0.038845	-0.408936	-0.161865	0.629639	81.487457	-83.897495	79.598170
46727		9.213075	1.449193	-0.690645	-0.410999	0.063912	0.003135	-0.400879	-0.165771	0.625488	80.901511	-83.893739	79.954235
46728		9.104731	1.550381	-0.650844	-0.436829	0.063012	0.032702	-0.396729	-0.170410	0.627197	80.292466	-83.906125	80.318922
46729		9.069773	1.606843	-0.601776	-0.461219	0.064585	0.060164	-0.409180	-0.167969	0.622559	79.620659	-83.933644	80.732399
46730		9.119652	1.597467	-0.613186	-0.494708	0.057119	0.080897	-0.407715	-0.180176	0.615479	78.955523	-83.972902	81.120108
46731		9.153017	1.593555	-0.586395	-0.497120	0.056455	0.086698	-0.405029	-0.178467	0.620605	78.267518	-84.015315	81.532086
46732		9.242447	1.553133	-0.514014	-0.498742	0.048339	0.085256	-0.413330	-0.173096	0.618164	77.628085	-84.057100	81.891569
46733		9.393277	1.525695	-0.324085	-0.470936	0.059008	0.086337	-0.403564	-0.174561	0.617188	76.927135	-84.097968	82.331742
46734		9.504806	1.458593	-0.129381	-0.398159	0.074063	0.077477	-0.400146	-0.181396	0.608643	76.201838	-84.131079	82.835428
46735		9.529143	1.170460	-0.032889	-0.367437	0.070986	0.065222	-0.417236	-0.181641	0.617432	75.509730	-84.157258	83.323227
46736		9.497832	0.870656	-0.287794	-0.376350	0.058947	0.057593	-0.405762	-0.182861	0.604980	74.895156	-84.180329	83.728125
46737		9.516054	0.673991	-0.445067	-0.384074	0.060677	0.054781	-0.399658	-0.188477	0.607910	74.255893	-84.201336	84.156242
46738		9.546778	0.787327	-0.378102	-0.359266	0.056599	0.040086	-0.408447	-0.191406	0.597900	73.683629	-84.214248	84.528424
46739		9.570705	1.074297	-0.554653	-0.333069	0.056664	0.023746	-0.406738	-0.196289	0.599609	73.139863	-84.217888	84.886850
46740		9.512492	1.414613	-0.757951	-0.308507	0.037660	0.013920	-0.416992	-0.193604	0.602051	72.739657	-84.218973	85.115318
46741		9.370453	1.632888	-1.029934	-0.310692	-0.020447	0.012156	-0.409180	-0.189453	0.600586	72.644923	-84.228967	85.035314
46742		9.287928	1.829925	-1.401265	-0.379930	-0.108697	0.022115	-0.410156	-0.190918	0.598877	72.983766	-84.259265	84.479849
46743		9.235854	2.064128	-1.721071	-0.498571	-0.194976	0.042708	-0.409180	-0.198975	0.597412	73.691771	-84.314594	83.484950
46744		9.138415	2.247693	-1.901536	-0.610415	-0.276796	0.055929	-0.400391	-0.199219	0.588623	74.800667	-84.388292	82.023076
46745		8.988766	2.444098	-2.230462	-0.707033	-0.364424	0.056736	-0.401611	-0.205811	0.603271	76.381462	-84.471603	80.031527
46746		8.825453	2.623814	-2.363448	-0.758770	-0.453417	0.055121	-0.390381	-0.207520	0.593750	78.519541	-84.558695	77.450755
46747		8.692346	2.726026	-2.492296	-0.810197	-0.539597	0.046865	-0.403076	-0.209961	0.596436	81.221174	-84.639390	74.274617
46748		8.586817	2.810695	-2.470045	-0.879043	-0.576514	0.052046	-0.398193	-0.206055	0.592773	84.195717	-84.710727	70.785231
46749		8.738430	2.673622	-1.760059	-0.942820	-0.577492	0.059030	-0.390869	-0.212646	0.594238	87.210051	-84.769109	67.219546
46750		9.193113	2.112273	-0.983804	-0.989416	-0.571878	0.066542	-0.384521	-0.228516	0.596436	90.230900	-84.814376	63.620816
46751		9.857226	1.155814	-0.483545	-1.024576	-0.525826	0.047666	-0.382813	-0.225830	0.591553	92.975336	-84.833064	60.279616
46752		10.741294	-0.078224	-0.011097	-0.990261	-0.407971	-0.011350	-0.378174	-0.234375	0.585205	94.978795	-84.810181	57.702124
46753		11.804443	-1.103881	0.399580	-0.950656	-0.212159	-0.095128	-0.378418	-0.242432	0.592041	95.701006	-84.744470	56.433845
46754		12.951585	-1.916382	1.063238	-0.947131	0.034395	-0.193739	-0.379150	-0.253662	0.579590	94.840034	-84.635569	56.757401
46755		13.771741	-2.638104	2.272172	-0.807818	0.134488	-0.282317	-0.380371	-0.247803	0.581055	93.446135	-84.479825	57.696495
46756		13.845064	-2.929439	2.735284	-0.405436	0.044550	-0.392022	-0.385010	-0.259766	0.572998	92.833298	-84.256767	58.082760
46757		13.097423	-2.478862	2.770852	-0.081523	-0.204156	-0.469856	-0.382813	-0.264160	0.573486	93.767535	-83.981526	57.100349
46758		11.733368	-0.890366	1.551116	-0.074151	-0.411239	-0.446360	-0.368896	-0.261230	0.571533	95.709205	-83.706973	55.108579
46759		10.351711	0.955069	1.039795	-0.118974	-0.398328	-0.361827	-0.375732	-0.270020	0.579834	97.445685	-83.475336	53.296239
46760		9.269192	2.385442	2.313918	-0.347332	-0.130061	-0.255158	-0.371094	-0.260010	0.574219	97.720944	-83.320414	52.822696
46761		8.373027	3.413188	3.623817	-0.594810	0.100842	-0.171684	-0.371338	-0.272705	0.573486	96.785755	-83.230594	53.424876
46762		7.886809	3.956759	3.397745	-0.761596	0.139001	-0.148640	-0.368408	-0.277588	0.564941	95.611914	-83.154352	54.171479
46763		8.255619	4.227064	2.593312	-0.864050	0.092248	-0.138567	-0.374268	-0.289551	0.561279	94.617466	-83.080287	54.678250
46764		9.189859	3.962938	1.716359	-0.914408	0.064124	-0.129839	-0.372070	-0.291748	0.556152	93.751581	-83.008596	55.026645
46765		10.165032	3.140256	1.170186	-0.858474	0.032482	-0.111111	-0.374268	-0.285645	0.559082	93.072586	-82.946269	55.219038
46766		11.116942	1.917770	0.979933	-0.744523	-0.026713	-0.079166	-0.367920	-0.297607	0.557373	92.753495	-82.900011	55.114615
46767		11.774681	0.443691	0.593600	-0.501254	-0.050635	-0.043822	-0.373291	-0.307129	0.551514	92.683064	-82.873600	54.900060
46768		11.977141	-0.945793	0.389017	-0.232206	-0.002101	0.021607	-0.365479	-0.300537	0.558594	92.567128	-82.885731	54.886711
46769		11.814719	-1.820026	0.082691	0.024766	0.055658	0.113741	-0.368408	-0.303711	0.543945	92.341232	-82.952348	55.132489
46770		11.179402	-2.250690	-0.128120	0.364881	0.224485	0.194888	-0.368408	-0.304932	0.541748	91.535550	-83.068120	56.158721
46771		10.442450	-2.339501	-0.109388	0.698567	0.319330	0.254222	-0.372803	-0.303467	0.549072	90.429037	-83.217205	57.680093
46772		9.701510	-2.104907	0.402811	0.839059	0.425994	0.278996	-0.378174	-0.297119	0.535156	88.827302	-83.375310	59.780793
46773		9.216010	-1.818137	0.729012	0.868538	0.486663	0.282146	-0.378418	-0.288086	0.538818	86.837382	-83.526746	62.288343
46774		9.030415	-1.357995	0.913820	0.857311	0.496817	0.283045	-0.389893	-0.276855	0.544189	84.695057	-83.667305	64.942281
46775		9.005354	-0.865597	0.924905	0.813899	0.487865	0.291778	-0.381104	-0.271484	0.542969	82.452343	-83.802615	67.671185
46776		9.110197	-0.235644	0.717821	0.759890	0.432848	0.306814	-0.393066	-0.277588	0.540771	80.362464	-83.939213	70.214845
46777		9.127907	0.453150	0.366336	0.745554	0.364872	0.324453	-0.393555	-0.266846	0.539307	78.495778	-84.084024	72.524834
46778		9.110423	1.006985	0.044887	0.780140	0.335317	0.329649	-0.393799	-0.264160	0.538574	76.716639	-84.227085	74.766470
46779		9.057822	1.378593	-0.118137	0.808658	0.313102	0.322050	-0.400146	-0.259277	0.542236	74.976680	-84.362452	76.984267
46780		8.862721	1.508010	-0.189842	0.833308	0.313828	0.289320	-0.391846	-0.251709	0.534912	73.223475	-84.472431	79.229431
46781		8.598040	1.446959	-0.118921	0.831969	0.309821	0.254603	-0.404541	-0.249268	0.540527	71.466866	-84.557765	81.476557
46782		8.344811	1.220728	-0.050994	0.798112	0.291694	0.223572	-0.398193	-0.245850	0.535645	69.813985	-84.623017	83.600041
46783		8.130519	0.956719	0.006934	0.759083	0.270000	0.191598	-0.406494	-0.241943	0.530762	68.277249	-84.670237	85.583918
46784		8.151521	0.621884	0.036009	0.721479	0.261300	0.170756	-0.407959	-0.233154	0.528809	66.804508	-84.703250	87.482053
46785		8.446861	0.219088	-0.004414	0.677878	0.270158	0.155415	-0.406494	-0.233643	0.542969	65.262784	-84.721674	89.424006
46786		8.764802	-0.079136	0.088304	0.601152	0.279396	0.157581	-0.402344	-0.238037	0.530518	63.623668	-84.733855	91.419861
46787		9.002700	-0.330285	0.069518	0.536128	0.267138	0.168352	-0.411377	-0.226807	0.526367	61.961648	-84.749538	93.400948
46788		9.146348	-0.514482	0.097946	0.532444	0.252589	0.176656	-0.412354	-0.222168	0.522705	60.356195	-84.768176	95.323367
46789		9.132162	-0.694352	0.056370	0.586076	0.235369	0.179822	-0.406982	-0.215088	0.534668	58.837668	-84.788644	97.188949
46790		9.095348	-0.768676	0.072053	0.642944	0.226082	0.176368	-0.410156	-0.218018	0.523438	57.415817	-84.805846	98.990463
46791		9.031704	-0.714074	0.154566	0.631522	0.224592	0.158440	-0.410156	-0.217041	0.527100	56.034185	-84.810988	100.744600
46792		8.997219	-0.422607	0.064539	0.623793	0.227298	0.119336	-0.411865	-0.201904	0.521484	54.790372	-84.793134	102.356310
46793		9.004433	-0.023491	0.053323	0.641393	0.215375	0.083942	-0.415527	-0.204834	0.523438	53.743706	-84.759946	103.779813
46794		8.985866	0.311191	0.046332	0.639099	0.157031	0.053311	-0.418213	-0.200928	0.529541	53.130399	-84.730669	104.767309
46795		9.119112	0.527382	-0.054867	0.608459	0.093980	0.024548	-0.419922	-0.206543	0.526855	52.911140	-84.709345	105.341044
46796		9.176814	0.613249	-0.210783	0.600985	0.044332	0.016278	-0.417480	-0.200928	0.511719	52.980246	-84.701270	105.621335
46797		9.275003	0.632639	-0.217503	0.572699	-0.009843	0.020971	-0.414795	-0.195557	0.524658	53.268739	-84.714107	105.664576
46798		9.261515	0.587857	-0.318852	0.558387	-0.070039	0.030088	-0.414307	-0.196289	0.528809	53.831841	-84.751603	105.424254
46799		9.189665	0.520776	-0.463551	0.597519	-0.105439	0.022720	-0.414795	-0.191650	0.520264	54.616592	-84.797360	104.983443
46800		9.243253	0.469735	-0.348796	0.606771	-0.112068	0.008298	-0.414307	-0.192627	0.519531	55.518699	-84.837813	104.430592
46801		9.274778	0.414038	-0.226745	0.564781	-0.104685	-0.005648	-0.409180	-0.191895	0.515869	56.404098	-84.868642	103.869945
46802		9.363979	0.354438	-0.185488	0.524992	-0.092744	-0.016800	-0.412354	-0.184570	0.517822	57.264005	-84.889441	103.312473
46803		9.447467	0.215449	-0.335386	0.509455	-0.088702	-0.011228	-0.408936	-0.183105	0.524414	58.065650	-84.911182	102.804122
46804		9.485651	0.066394	-0.550428	0.540927	-0.084404	0.006280	-0.415527	-0.186768	0.522461	58.822345	-84.939342	102.359474
46805		9.548583	-0.188140	-0.446604	0.577086	-0.067619	0.034171	-0.402344	-0.188721	0.527588	59.406085	-84.976093	102.108807
46806		9.526992	-0.333516	-0.323322	0.509391	-0.086618	0.063916	-0.408203	-0.181152	0.524902	59.980564	-85.032540	101.828986
46807		9.575754	-0.231729	-0.316576	0.417275	-0.120924	0.089813	-0.406982	-0.177490	0.525391	60.611917	-85.111710	101.438642
46808		9.565679	-0.111546	-0.394373	0.324532	-0.176287	0.115631	-0.406494	-0.188477	0.519775	61.467207	-85.218372	100.770781
46809		9.547807	0.045745	-0.711549	0.268674	-0.227454	0.118893	-0.410400	-0.178955	0.531494	62.618034	-85.339874	99.773864
46810		9.566736	-0.035720	-0.819519	0.267383	-0.232073	0.109270	-0.406250	-0.185547	0.531982	63.900138	-85.455408	98.645182
46811		9.623761	-0.322966	-0.928040	0.314688	-0.272272	0.090188	-0.400391	-0.181396	0.530762	65.586778	-85.569048	97.137565
46812		9.873201	-0.797018	-0.878886	0.455020	-0.359769	0.064787	-0.390869	-0.169434	0.521729	68.138899	-85.683989	94.843336
46813		10.369952	-1.201840	-0.753093	0.552380	-0.377577	0.042245	-0.397217	-0.180420	0.529053	71.050024	-85.782632	92.244817
46814		10.990492	-1.105800	-0.832979	0.573346	-0.332410	0.029895	-0.391113	-0.178467	0.537109	73.795150	-85.856285	89.825622
46815		11.579263	-0.473051	-0.384439	0.475975	-0.340399	-0.002385	-0.395752	-0.180176	0.536377	76.682057	-85.905378	87.207939
46816		11.994703	0.466485	-0.337016	0.303814	-0.380702	-0.047642	-0.389648	-0.167236	0.538086	79.926979	-85.922668	84.133139
46817		12.292635	1.480926	-0.112313	0.319345	-0.299144	-0.066775	-0.392334	-0.176514	0.535889	82.556604	-85.911794	81.683527
46818		12.346734	2.320395	0.696155	0.399524	-0.280886	-0.057334	-0.389648	-0.171387	0.531494	85.072050	-85.896277	79.395010
46819		12.356176	2.950565	1.625893	0.428848	-0.294985	-0.012866	-0.394531	-0.175537	0.530518	87.669264	-85.900467	77.040776
46820		12.284511	3.423787	1.105645	0.281784	-0.321781	0.054792	-0.381836	-0.174316	0.533447	90.408784	-85.934770	74.460022
46821		12.224086	3.439429	1.401915	0.305147	-0.276371	0.142145	-0.386719	-0.169189	0.532959	92.857928	-86.012460	72.183469
46822		11.683922	2.563285	2.570846	0.279769	-0.329447	0.202892	-0.380859	-0.164307	0.541504	95.884213	-86.113839	69.314576
46823		10.920674	1.423378	2.666436	0.144703	-0.422282	0.242019	-0.382813	-0.168945	0.547119	99.818813	-86.218957	65.457705
46824		10.073304	0.580786	2.023225	0.122793	-0.463313	0.250232	-0.383301	-0.168457	0.543457	104.323299	-86.303550	61.017997
46825		9.441160	0.015679	1.608417	0.216187	-0.398698	0.206770	-0.382813	-0.174805	0.550537	108.374679	-86.353826	57.085883
46826		8.946123	-0.246354	1.779208	0.282133	-0.259078	0.135437	-0.367676	-0.167480	0.538086	111.149989	-86.376533	54.470828
46827		8.495166	-0.388221	1.889939	0.280923	-0.128174	0.070123	-0.379150	-0.172119	0.549316	112.616331	-86.387449	53.166295
46828		8.286591	-0.358850	1.323744	0.281224	-0.036003	0.028838	-0.375977	-0.170410	0.553223	113.181835	-86.394515	52.764986
46829		8.297878	-0.130031	1.044823	0.351534	0.053201	-0.001049	-0.371338	-0.162842	0.542725	112.923555	-86.406988	53.229027
46830		8.433347	0.360766	1.055984	0.340553	0.098348	-0.019072	-0.374512	-0.163086	0.547607	112.222945	-86.418399	54.130387
46831		8.830438	0.990099	1.004626	0.243489	0.135385	-0.030088	-0.373291	-0.172852	0.550537	111.095130	-86.432107	55.403608
46832		9.370575	1.674397	1.010616	0.138451	0.147872	-0.038512	-0.372070	-0.166016	0.552246	109.777061	-86.440877	56.807579
46833		9.833170	2.201615	0.986564	0.018783	0.114881	-0.049235	-0.365723	-0.163574	0.545654	108.626482	-86.436911	57.974613
46834		10.080790	2.718187	0.895406	-0.110504	0.067304	-0.060045	-0.375000	-0.171875	0.549561	107.805713	-86.416144	58.737413
46835		9.945804	3.002265	0.704261	-0.165411	0.017659	-0.080174	-0.375488	-0.178955	0.547363	107.322728	-86.376309	59.129891
46836		9.636465	2.916026	0.693257	-0.207038	-0.025434	-0.097740	-0.375977	-0.175537	0.535645	107.163480	-86.318360	59.174467
46837		9.382724	2.376734	0.897925	-0.262818	-0.056720	-0.107322	-0.376709	-0.185791	0.543457	107.195723	-86.250798	58.994816
46838		9.255333	1.662459	0.743946	-0.318257	-0.065171	-0.119308	-0.375000	-0.180420	0.544434	107.247901	-86.174305	58.763646
46839		9.411914	1.091690	0.376678	-0.339773	-0.041355	-0.139348	-0.369385	-0.178711	0.542969	107.024422	-86.091750	58.796114
46840		9.581935	0.896376	0.379437	-0.352131	-0.008578	-0.158851	-0.375732	-0.184326	0.542480	106.512347	-86.003042	59.111043
46841		9.635643	1.002899	0.518752	-0.360916	-0.021037	-0.174646	-0.373535	-0.191650	0.547119	106.057122	-85.904307	59.363706
46842		9.592854	1.345644	0.462175	-0.423839	-0.022071	-0.175051	-0.374268	-0.195801	0.541504	105.606367	-85.804216	59.576035
46843		9.470132	1.635406	0.376716	-0.476929	-0.019872	-0.190539	-0.378174	-0.197510	0.545654	105.077220	-85.696582	59.836245
46844		9.459410	1.859481	0.388155	-0.536125	-0.034409	-0.211879	-0.368408	-0.207520	0.536133	104.614084	-85.574035	59.996530
46845		9.510320	1.923168	0.155106	-0.596350	-0.069570	-0.238611	-0.375244	-0.207520	0.539551	104.314583	-85.432296	59.957859
46846		9.580442	1.717251	-0.112167	-0.581686	-0.070856	-0.253421	-0.368896	-0.213867	0.531738	104.030245	-85.281423	59.912628
46847		9.523906	1.330367	-0.232057	-0.516650	-0.038071	-0.255343	-0.368896	-0.216309	0.538086	103.557350	-85.134676	60.093791
46848		9.356936	0.931083	-0.302315	-0.473310	-0.013714	-0.258452	-0.372314	-0.224121	0.531982	102.983430	-84.988590	60.401528
46849		9.220655	0.675342	-0.457536	-0.418510	0.020726	-0.244200	-0.375000	-0.235352	0.529785	102.256757	-84.855141	60.894003
46850		9.149671	0.600093	-0.503284	-0.363116	0.059244	-0.224760	-0.366211	-0.229248	0.540283	101.396480	-84.735893	61.552807
46851		9.013942	0.821888	-0.591980	-0.327949	0.079055	-0.195115	-0.373779	-0.229980	0.537109	100.490770	-84.635193	62.277379
46852		8.984763	1.233571	-0.445101	-0.308853	0.086384	-0.158519	-0.373291	-0.235352	0.531494	99.633463	-84.554249	62.964644
46853		8.878274	1.629233	-0.432202	-0.294169	0.073879	-0.139084	-0.363525	-0.242432	0.522461	98.884982	-84.482820	63.550910
46854		8.769359	1.862510	-0.355091	-0.284302	0.061349	-0.126528	-0.367188	-0.239014	0.517090	98.255726	-84.416205	64.023349
46855		8.559749	1.897534	-0.433076	-0.296390	0.037199	-0.123824	-0.366699	-0.241211	0.527588	97.760301	-84.349254	64.354216
46856		8.455883	1.793458	-0.581484	-0.325900	0.019342	-0.114100	-0.373535	-0.246582	0.524170	97.379165	-84.285740	64.553466
46857		8.400217	1.537605	-0.604632	-0.329841	0.033444	-0.101767	-0.373291	-0.246582	0.535400	96.918873	-84.230530	64.829857
46858		8.423455	1.237329	-0.681586	-0.351507	0.039701	-0.071296	-0.364014	-0.249023	0.529785	96.450297	-84.192435	65.102285
46859		8.528227	1.091770	-0.832751	-0.370627	0.072294	-0.048941	-0.370117	-0.248291	0.528320	95.794896	-84.169180	65.551359
46860		8.617744	1.070579	-0.904069	-0.348805	0.094032	-0.026966	-0.373535	-0.258545	0.518555	95.058645	-84.158721	66.094435
46861		8.775727	1.145556	-0.918477	-0.319605	0.097682	-0.008728	-0.373779	-0.255859	0.522705	94.317177	-84.158478	66.659434
46862		8.795306	1.215025	-0.864562	-0.315848	0.090764	0.010592	-0.368896	-0.259277	0.522217	93.635509	-84.167962	67.166626
46863		8.769685	1.355569	-0.934754	-0.344057	0.068848	0.034818	-0.375244	-0.265381	0.529297	93.054791	-84.190302	67.555948
46864		8.759147	1.465922	-0.994844	-0.369645	0.041372	0.051713	-0.365967	-0.257324	0.516113	92.626870	-84.220891	67.777069
46865		8.736514	1.663034	-1.075621	-0.414954	0.016414	0.090072	-0.375000	-0.258545	0.528076	92.309559	-84.272936	67.860794
46866		8.814160	1.815478	-1.077568	-0.436875	0.008465	0.111013	-0.374268	-0.265625	0.517334	92.037547	-84.336500	67.886482
46867		8.920190	1.860654	-0.957994	-0.437975	0.014652	0.138372	-0.374268	-0.263672	0.517090	91.719726	-84.416041	67.957473
46868		9.069768	1.791549	-0.756679	-0.435267	0.020397	0.139958	-0.366455	-0.273193	0.513184	91.374982	-84.496336	68.057155
46869		9.296099	1.656001	-0.560839	-0.430383	0.021159	0.132167	-0.365479	-0.281982	0.513916	91.010267	-84.572267	68.179634
46870		9.503076	1.467029	-0.549628	-0.448933	0.024746	0.105949	-0.376221	-0.277832	0.518555	90.614794	-84.632984	68.322381
46871		9.600258	1.345341	-0.547170	-0.470198	0.014940	0.068402	-0.374512	-0.274658	0.512939	90.249269	-84.672164	68.422758
46872		9.708817	1.253801	-0.483789	-0.462981	0.013120	0.036897	-0.380859	-0.285645	0.517090	89.906235	-84.693131	68.504737
46873		9.671909	1.149017	-0.616737	-0.472894	-0.010149	0.017903	-0.384277	-0.277588	0.508545	89.689977	-84.703310	68.453658
46874		9.714029	1.148072	-0.809683	-0.439316	-0.018024	-0.011208	-0.376953	-0.282959	0.506836	89.552752	-84.696772	68.342560
46875		9.612310	1.271796	-0.969442	-0.381983	-0.022173	-0.032968	-0.375244	-0.290283	0.508301	89.465142	-84.677882	68.214595
46876		9.406760	1.482652	-1.335470	-0.348984	-0.064049	-0.050123	-0.373047	-0.288818	0.510986	89.663102	-84.649259	67.818828
46877		9.206479	1.857886	-1.903756	-0.410663	-0.130569	-0.052465	-0.377686	-0.291260	0.516846	90.218297	-84.619153	67.028724
46878		9.133878	2.483226	-2.143855	-0.482905	-0.206082	-0.034356	-0.379639	-0.291992	0.509277	91.192758	-84.597832	65.775898
46879		8.968261	3.080280	-2.202271	-0.615652	-0.304701	0.006614	-0.367432	-0.294189	0.502930	92.680899	-84.595565	63.930695
46880		9.098543	3.605614	-2.117034	-0.818028	-0.394298	0.044288	-0.365967	-0.303711	0.507324	94.617575	-84.606335	61.518486
46881		9.599802	3.786530	-1.273446	-0.969762	-0.413950	0.075033	-0.371826	-0.305908	0.505127	96.606880	-84.625700	58.966230
46882		10.279876	3.054469	-0.396370	-1.031368	-0.399678	0.081363	-0.367188	-0.315674	0.504395	98.500519	-84.641645	56.474604
46883		11.040902	1.687526	-0.413260	-1.076188	-0.327473	0.034428	-0.364014	-0.315918	0.501953	99.885865	-84.630835	54.467862
46884		11.733392	0.488667	-0.459574	-1.059194	-0.244183	-0.015537	-0.358154	-0.329102	0.502686	100.724464	-84.596884	53.019858
46885		12.542335	-0.338649	0.233019	-1.071818	-0.236213	-0.024307	-0.361816	-0.321045	0.500000	101.476782	-84.556890	51.651306
46886		12.865894	-1.169747	0.780637	-1.047484	-0.298223	-0.021480	-0.364014	-0.329346	0.496094	102.598265	-84.509056	49.925671
46887		13.211209	-1.953224	0.861416	-0.798572	-0.311446	-0.073422	-0.356445	-0.337891	0.491699	103.830887	-84.427182	48.231563
46888		13.323883	-2.176179	0.844670	-0.547191	-0.177975	-0.181459	-0.373047	-0.333252	0.494385	104.266415	-84.301416	47.482759
46889		13.047616	-1.619634	1.049913	-0.322430	-0.130445	-0.261125	-0.353027	-0.342041	0.487305	104.426794	-84.138035	47.139768
46890		11.938875	-0.294820	0.849764	-0.067740	-0.224549	-0.282908	-0.358154	-0.335938	0.497559	105.185486	-83.948290	46.341818
46891		10.818635	1.145420	0.468174	0.064737	-0.246523	-0.247637	-0.357666	-0.344727	0.499023	106.127417	-83.773777	45.435602
46892		9.925139	2.235089	1.218295	-0.057840	-0.039969	-0.174384	-0.361816	-0.345215	0.497314	106.045086	-83.671283	45.488974
46893		9.011987	2.732630	2.190121	-0.250385	0.201152	-0.099009	-0.360352	-0.353516	0.489258	104.762081	-83.647414	46.639391
46894		8.051861	2.829094	2.896770	-0.333423	0.266379	-0.039314	-0.351318	-0.346680	0.490479	103.192703	-83.662270	48.030111
46895		7.614107	2.476068	2.862791	-0.436081	0.207826	-0.025417	-0.365234	-0.350342	0.481689	101.861326	-83.673983	49.122180
46896		7.840435	1.969134	2.192941	-0.558194	0.185440	-0.047145	-0.361084	-0.352539	0.482910	100.557057	-83.667981	50.116548
46897		8.335511	1.360408	1.585368	-0.542523	0.207890	-0.062922	-0.366211	-0.360840	0.481934	99.127624	-83.652830	51.245972
46898		9.164218	0.498269	1.448190	-0.452295	0.151198	-0.061897	-0.368896	-0.357422	0.475586	98.054873	-83.630538	52.068497
46899		10.226645	-0.360774	1.070433	-0.330117	0.108861	-0.048371	-0.364990	-0.363281	0.474609	97.272371	-83.611374	52.669508
46900		11.043643	-1.034217	0.778240	-0.208629	0.057721	-0.002330	-0.360596	-0.362549	0.472656	96.860878	-83.613948	52.967175
46901		11.568867	-1.438309	0.307089	-0.026316	0.058786	0.079881	-0.366211	-0.366943	0.474609	96.586150	-83.663416	53.232347
46902		11.300987	-1.511093	-0.066752	0.192536	0.113128	0.167767	-0.370117	-0.366699	0.476563	96.211591	-83.765995	53.724037
46903		10.525129	-1.363309	0.121379	0.375043	0.177604	0.230311	-0.364258	-0.364502	0.475586	95.606983	-83.907923	54.552142
46904		9.631400	-1.034613	0.451717	0.497554	0.205462	0.245992	-0.372559	-0.358154	0.472656	94.904989	-84.058889	55.548562
46905		9.045049	-0.497551	0.623152	0.510307	0.209380	0.234895	-0.368896	-0.352295	0.471680	94.128468	-84.202777	56.626897
46906		8.827520	-0.079378	0.729932	0.445197	0.220058	0.232760	-0.373047	-0.351318	0.487061	93.216689	-84.343771	57.803487
46907		8.997825	0.256506	0.633322	0.369623	0.230223	0.229136	-0.376709	-0.354736	0.487061	92.134614	-84.481356	59.107290
46908		9.166608	0.421329	0.475835	0.335044	0.245234	0.236843	-0.372803	-0.348633	0.477051	90.894358	-84.620553	60.549891
46909		9.422220	0.339444	0.354345	0.359329	0.238529	0.250588	-0.379150	-0.343994	0.477783	89.625341	-84.764996	62.034902
46910		9.462561	0.085652	0.289415	0.415294	0.237789	0.254954	-0.386475	-0.354248	0.475586	88.329555	-84.908446	63.578758
46911		9.418387	-0.143977	0.251759	0.449889	0.193985	0.241433	-0.385498	-0.343018	0.476318	87.251675	-85.042598	64.923310
46912		9.241683	-0.155058	0.246245	0.445516	0.183867	0.219765	-0.392334	-0.335693	0.475586	86.198255	-85.162108	66.240662
46913		9.145554	-0.030627	0.054133	0.429774	0.172846	0.203623	-0.387207	-0.334473	0.473389	85.146473	-85.271161	67.546955
46914		8.922357	0.262372	-0.076266	0.403410	0.167687	0.184320	-0.395508	-0.338623	0.476074	84.091125	-85.367105	68.841618
46915		8.797734	0.473513	-0.091474	0.358656	0.171785	0.159670	-0.381592	-0.330811	0.479736	82.937207	-85.447045	70.209130
46916		8.684401	0.678882	0.004573	0.307672	0.212526	0.135617	-0.396973	-0.334717	0.476318	81.457763	-85.507306	71.873901
46917		8.509745	0.760837	0.098820	0.252390	0.237740	0.118556	-0.396729	-0.335693	0.478271	79.727588	-85.552141	73.758122
46918		8.434634	0.736242	0.118159	0.208236	0.246963	0.111119	-0.394531	-0.327637	0.476807	77.898768	-85.586949	75.715963
46919		8.421345	0.597508	0.108245	0.174164	0.237088	0.105883	-0.399414	-0.332520	0.477783	76.086369	-85.615470	77.637520
46920		8.567458	0.367601	0.061414	0.088985	0.202891	0.096114	-0.400146	-0.329834	0.472412	74.487098	-85.639005	79.296465
46921		8.795466	0.240522	-0.035047	-0.000918	0.176861	0.097306	-0.406494	-0.327881	0.473877	72.987862	-85.664060	80.803219
46922		8.952572	0.155693	-0.226935	-0.022315	0.130237	0.082431	-0.399658	-0.327393	0.474854	71.849015	-85.686336	81.936368
46923		9.016184	0.028605	-0.428480	0.008587	0.086118	0.061772	-0.399414	-0.321533	0.475830	71.068985	-85.704084	82.727245
46924		8.963368	-0.065274	-0.531198	0.057680	0.047015	0.032162	-0.400146	-0.334717	0.477539	70.685737	-85.712461	83.148584
46925		8.962687	-0.100997	-0.664541	0.093311	0.011862	-0.005304	-0.397461	-0.330322	0.468750	70.653506	-85.707249	83.238206
46926		8.960392	-0.085035	-0.834346	0.113580	-0.004370	-0.037284	-0.398438	-0.326172	0.470947	70.846911	-85.687697	83.113388
46927		9.016730	-0.047081	-0.873847	0.148760	0.009073	-0.058727	-0.400879	-0.325195	0.473389	70.999582	-85.654158	83.049421
46928		9.070689	-0.036435	-0.865303	0.206208	0.027601	-0.067084	-0.402100	-0.317871	0.466797	71.088659	-85.612460	83.082450
46929		9.104297	-0.082695	-0.814922	0.251790	0.024313	-0.069672	-0.406250	-0.329590	0.468750	71.217145	-85.570192	83.101919
46930		9.111776	-0.116444	-0.746252	0.279350	0.009625	-0.067210	-0.403076	-0.336426	0.475586	71.471642	-85.531734	83.011064
46931		9.151763	-0.155830	-0.757659	0.347899	-0.031199	-0.066490	-0.396973	-0.322754	0.473145	72.028350	-85.501222	82.656210
46932		9.110782	-0.185136	-0.669034	0.400380	-0.068941	-0.075653	-0.405273	-0.323242	0.476318	72.903554	-85.471582	82.012271
46933		9.085283	-0.253075	-0.757403	0.433345	-0.100348	-0.086382	-0.398926	-0.319092	0.467773	74.012090	-85.440658	81.152907
46934		9.088007	-0.306707	-0.912516	0.505513	-0.104080	-0.097761	-0.402344	-0.320557	0.483643	75.208470	-85.402272	80.247135
46935		9.120594	-0.346053	-0.779120	0.555797	-0.081119	-0.101996	-0.401367	-0.323486	0.477539	76.252758	-85.357337	79.522498
46936		9.137530	-0.305564	-0.688773	0.568150	-0.081351	-0.106933	-0.401367	-0.316406	0.482910	77.308778	-85.308147	78.793448
46937		9.218619	-0.124460	-0.831262	0.610966	-0.084698	-0.109398	-0.402344	-0.316406	0.480957	78.384672	-85.257422	78.068686
46938		9.347798	-0.104967	-0.924513	0.698499	-0.095702	-0.097364	-0.399902	-0.314209	0.482666	79.561579	-85.212952	77.293170
46939		9.535018	-0.175610	-0.938456	0.759507	-0.087150	-0.072396	-0.398193	-0.309814	0.479980	80.658838	-85.181079	76.632262
46940		9.619091	-0.285854	-0.973358	0.786654	-0.068688	-0.033050	-0.399414	-0.307617	0.490967	81.607674	-85.168237	76.136249
46941		9.664885	-0.340886	-1.137306	0.796021	-0.085181	-0.004930	-0.396973	-0.302734	0.488037	82.633107	-85.172622	75.568367
46942		9.751274	-0.338448	-1.356415	0.815396	-0.134589	0.004991	-0.390625	-0.306641	0.485840	84.007172	-85.184238	74.662143
46943		9.957927	-0.365668	-1.651039	0.849893	-0.207143	0.001431	-0.390137	-0.291992	0.497070	85.891763	-85.196091	73.263034
46944		10.399638	-0.591286	-1.394974	0.924056	-0.257531	-0.019954	-0.394531	-0.295166	0.507324	88.183638	-85.192109	71.498262
46945		10.949815	-0.872278	-0.671861	1.065801	-0.294033	-0.054413	-0.391846	-0.295410	0.506348	90.789354	-85.163147	69.499557
46946		11.659696	-0.939525	-0.017839	1.092820	-0.414428	-0.105148	-0.385986	-0.281006	0.503418	94.170661	-85.092485	66.738279
46947		12.410194	-0.371315	-0.327059	0.952521	-0.524404	-0.148163	-0.387695	-0.279297	0.513184	98.047878	-84.976919	63.397678
46948		13.248592	0.597452	-0.483653	0.923805	-0.481142	-0.172004	-0.384033	-0.275879	0.508057	101.439967	-84.832926	60.527419
46949		13.842717	1.809453	0.007437	1.015558	-0.287534	-0.158699	-0.378662	-0.278320	0.512207	103.562102	-84.709453	58.984110
46950		13.903734	2.893238	0.973463	1.100011	-0.181027	-0.100872	-0.385010	-0.266357	0.514893	105.118026	-84.627617	58.058302
46951		13.690647	3.755567	1.313545	1.015661	-0.161341	-0.025785	-0.373291	-0.262451	0.519775	106.597137	-84.589086	57.160556
46952		13.412112	3.993702	1.634633	0.908671	-0.170772	0.040394	-0.375488	-0.261230	0.515381	108.178046	-84.581791	56.099404
46953		12.616467	3.398742	2.288901	0.863995	-0.251590	0.101707	-0.385986	-0.255615	0.527344	110.308609	-84.590160	54.460035
46954		11.567622	2.028018	2.436716	0.757717	-0.405839	0.138199	-0.376709	-0.253662	0.531250	113.332154	-84.577106	51.862899
46955		10.581314	0.601385	1.989096	0.623179	-0.489510	0.127580	-0.373291	-0.256348	0.537109	116.674363	-84.525677	48.867736
46956		9.724797	-0.205760	1.070390	0.578451	-0.391667	0.073593	-0.371094	-0.242920	0.539795	119.268147	-84.457540	46.598767
46957		8.865806	-0.461212	0.918697	0.668894	-0.187188	0.016165	-0.374268	-0.234863	0.539307	120.648872	-84.413015	45.600090
46958		8.153726	-0.494775	1.220443	0.770373	-0.009037	-0.031602	-0.372559	-0.249756	0.531006	121.042822	-84.394714	45.651637
46959		7.338251	-0.468088	1.094630	0.827008	0.127195	-0.065795	-0.378906	-0.244385	0.541748	120.677787	-84.400833	46.498032
46960		7.259307	0.051652	0.792525	0.769753	0.213445	-0.078087	-0.369873	-0.229248	0.547363	119.810536	-84.423679	47.816444
46961		7.566461	0.813564	0.652726	0.723212	0.275466	-0.090847	-0.375977	-0.233154	0.537842	118.543710	-84.456302	49.509053
46962		8.109583	1.664145	0.854110	0.650878	0.328347	-0.103683	-0.381348	-0.228271	0.539063	116.911667	-84.491144	51.527261
46963		8.926696	2.499524	1.102845	0.461495	0.324501	-0.123333	-0.378906	-0.232178	0.540527	115.112220	-84.510235	53.604140
46964		9.618846	3.283640	1.291394	0.202343	0.282824	-0.140018	-0.374512	-0.227783	0.532471	113.351157	-84.503464	55.493673
46965		9.980025	3.963797	1.292496	-0.049048	0.203766	-0.157651	-0.381592	-0.229492	0.542236	111.839215	-84.465839	56.987925
46966		10.039829	4.192323	1.241743	-0.251481	0.119329	-0.160162	-0.375488	-0.230713	0.544922	110.701591	-84.404995	57.990043
46967		9.800626	3.920729	1.291402	-0.409750	0.027681	-0.154568	-0.385010	-0.236328	0.527588	109.994446	-84.328218	58.468288
46968		9.375191	3.350275	1.004753	-0.504175	-0.051971	-0.162981	-0.378174	-0.250488	0.532959	109.671138	-84.230138	58.506778
46969		9.078295	2.700577	0.878581	-0.578198	-0.103807	-0.180411	-0.383789	-0.239258	0.537354	109.538913	-84.113431	58.310319
46970		8.966268	2.070016	0.794244	-0.648207	-0.148333	-0.195715	-0.385254	-0.253662	0.533203	109.577760	-83.979178	57.901735
46971		9.028790	1.673147	0.247930	-0.695714	-0.152134	-0.202822	-0.382568	-0.250488	0.532227	109.573933	-83.841063	57.508369
46972		9.119758	1.378827	-0.098731	-0.675492	-0.121718	-0.209067	-0.378662	-0.259766	0.536377	109.425289	-83.704732	57.272454
46973		9.185115	1.311792	-0.267241	-0.623524	-0.078943	-0.207042	-0.376465	-0.262695	0.530518	109.090515	-83.578391	57.253510
46974		9.292416	1.484904	-0.340235	-0.576657	-0.048565	-0.199886	-0.381348	-0.266846	0.532227	108.668077	-83.460885	57.350025
46975		9.291414	1.741537	-0.333215	-0.549074	-0.035650	-0.188626	-0.382324	-0.272949	0.526123	108.216201	-83.352435	57.491899
46976		9.279363	1.900397	-0.427826	-0.484887	-0.034560	-0.177143	-0.375977	-0.270752	0.530762	107.833791	-83.249654	57.601096
46977		9.121338	1.810881	-0.284594	-0.448058	-0.020221	-0.174362	-0.382568	-0.278076	0.527100	107.407266	-83.151417	57.775801
46978		9.089078	1.584928	-0.356135	-0.412683	-0.022153	-0.157930	-0.375244	-0.284912	0.516602	107.051942	-83.061089	57.899429
46979		9.101108	1.354347	-0.396449	-0.399507	-0.009274	-0.140934	-0.377930	-0.284180	0.521484	106.664763	-82.982710	58.062598
46980		9.093878	1.172609	-0.441399	-0.389164	0.008381	-0.113467	-0.374756	-0.280762	0.528564	106.258117	-82.921580	58.251558
46981		8.985820	1.241597	-0.505169	-0.367013	0.027416	-0.092888	-0.375488	-0.291504	0.517090	105.800465	-82.875182	58.504552
46982		8.809707	1.385464	-0.595061	-0.334563	0.047665	-0.070969	-0.378662	-0.294189	0.519775	105.314338	-82.843187	58.805181
46983		8.611919	1.677883	-0.601145	-0.319347	0.050240	-0.051426	-0.383057	-0.294678	0.528564	104.841353	-82.822607	59.101195
46984		8.464304	1.961071	-0.492172	-0.321551	0.043943	-0.039619	-0.376221	-0.294189	0.517822	104.421043	-82.806854	59.343031
46985		8.315187	2.066514	-0.546323	-0.342639	0.024282	-0.024721	-0.375488	-0.299805	0.521240	104.082432	-82.796875	59.490191
46986		8.351102	1.990967	-0.522360	-0.389175	0.011998	-0.007483	-0.377441	-0.296631	0.516846	103.801163	-82.794220	59.552834
46987		8.441053	1.787419	-0.622410	-0.427816	-0.008940	0.014380	-0.378418	-0.306885	0.522705	103.603015	-82.801277	59.509250
46988		8.722497	1.497051	-0.680366	-0.441356	-0.023768	0.046374	-0.379883	-0.302246	0.518066	103.507165	-82.823764	59.354870
46989		8.937432	1.264055	-0.917321	-0.450435	-0.033204	0.071495	-0.378174	-0.318115	0.515381	103.464686	-82.859398	59.141352
46990		9.144364	1.112429	-1.098837	-0.427233	-0.036953	0.092717	-0.381104	-0.314209	0.508545	103.486598	-82.905973	58.876474
46991		9.261042	1.104462	-1.158957	-0.387723	-0.017665	0.115633	-0.375977	-0.317627	0.507080	103.460915	-82.968276	58.682290
46992		9.216844	1.139936	-1.088573	-0.375348	0.008047	0.137873	-0.383789	-0.320801	0.506592	103.361301	-83.046035	58.569869
46993		9.179545	1.290790	-1.095669	-0.371948	0.027563	0.156481	-0.381836	-0.312744	0.503418	103.183793	-83.137148	58.537796
46994		9.163774	1.367475	-1.048800	-0.364413	0.044205	0.171416	-0.385010	-0.319092	0.508545	102.957011	-83.238392	58.559801
46995		9.164566	1.391523	-0.938845	-0.358457	0.067268	0.183413	-0.381104	-0.320068	0.503906	102.622415	-83.349604	58.693706
46996		9.202760	1.319979	-0.965302	-0.360213	0.076902	0.197991	-0.383057	-0.318604	0.504639	102.257704	-83.469719	58.856969
46997		9.275480	1.262542	-0.888935	-0.360897	0.083046	0.204871	-0.392822	-0.322998	0.504150	101.849175	-83.594616	59.063823
46998		9.381592	1.309228	-0.907893	-0.351975	0.097022	0.208926	-0.386719	-0.318359	0.499268	101.376913	-83.722906	59.339968
46999		9.475264	1.374865	-0.795192	-0.327423	0.124171	0.209955	-0.389404	-0.323730	0.500732	100.752222	-83.854751	59.783462
47000		9.568787	1.533570	-0.588149	-0.286876	0.142328	0.200162	-0.392090	-0.315674	0.498047	100.031705	-83.982106	60.346641
47001		9.549009	1.612627	-0.609087	-0.264669	0.156657	0.186818	-0.391357	-0.329590	0.496338	99.195391	-84.102713	61.038862
47002		9.421014	1.583131	-0.440249	-0.272070	0.156584	0.163331	-0.407715	-0.317383	0.493896	98.314892	-84.208698	61.771143
47003		9.318255	1.565250	-0.340286	-0.307852	0.135073	0.141511	-0.397461	-0.330811	0.494385	97.479185	-84.299657	62.437645
47004		9.209234	1.583084	-0.372541	-0.354936	0.089171	0.109069	-0.397705	-0.322266	0.491211	96.845950	-84.367864	62.873508
47005		9.199288	1.596100	-0.520527	-0.401254	0.048214	0.072805	-0.399902	-0.331543	0.487793	96.377230	-84.412440	63.117344
47006		9.205087	1.656418	-0.808020	-0.459687	0.015151	0.038314	-0.399902	-0.329590	0.492920	96.052321	-84.435034	63.183044
47007		9.241881	1.698406	-1.035893	-0.475777	-0.018340	0.010617	-0.405029	-0.336670	0.487793	95.885375	-84.439906	63.080776
47008		9.246291	1.706014	-1.090754	-0.426433	-0.046395	-0.010398	-0.398682	-0.337158	0.484131	95.908697	-84.431079	62.815738
47009		9.175241	1.633148	-1.288676	-0.430718	-0.065476	-0.031940	-0.405762	-0.342041	0.486816	96.016718	-84.408860	62.463149
47010		9.082756	1.695142	-1.482432	-0.441115	-0.078328	-0.034975	-0.396484	-0.343750	0.482422	96.199595	-84.383989	62.029320
47011		9.015176	1.720537	-1.647256	-0.448106	-0.098503	-0.026716	-0.401367	-0.352539	0.486328	96.488073	-84.362389	61.485378
47012		8.951007	1.789858	-1.680202	-0.457327	-0.123285	-0.021340	-0.402344	-0.346436	0.480957	96.923516	-84.341829	60.788383
47013		8.850309	1.931563	-1.812901	-0.467087	-0.165483	-0.014138	-0.403564	-0.348633	0.484375	97.587054	-84.321642	59.856590
47014		8.852228	2.137494	-1.974098	-0.514211	-0.192021	-0.000153	-0.396240	-0.360107	0.480713	98.389065	-84.306100	58.758415
47015		8.772981	2.339051	-2.362972	-0.539122	-0.250949	0.010706	-0.392822	-0.361816	0.480713	99.506816	-84.289586	57.328642
47016		8.687971	2.521452	-2.404968	-0.538854	-0.299301	0.018501	-0.393555	-0.366699	0.488525	100.904133	-84.269472	55.617927
47017		8.645666	2.641848	-2.319859	-0.628762	-0.340632	0.032242	-0.398926	-0.369873	0.488281	102.477527	-84.247760	53.678529
47018		9.016939	2.742089	-1.656144	-0.729515	-0.326629	0.066104	-0.400146	-0.362793	0.482910	103.955556	-84.241692	51.776796
47019		9.675600	2.195938	-0.541620	-0.773820	-0.342728	0.087333	-0.395264	-0.370361	0.476563	105.517367	-84.239828	49.765481
47020		10.550255	1.062047	-0.258509	-0.775953	-0.347050	0.073565	-0.395996	-0.376221	0.477051	107.081719	-84.224330	47.750201
47021		11.625000	0.034619	-0.543050	-0.768633	-0.248934	0.009030	-0.400146	-0.381104	0.478271	107.992616	-84.185997	46.396015
47022		12.624311	-0.555374	-0.178894	-0.715280	-0.114902	-0.062915	-0.398193	-0.385010	0.475098	108.087808	-84.131194	45.892242
47023		13.528936	-1.133381	1.077822	-0.726033	-0.077580	-0.104135	-0.389404	-0.399414	0.472168	107.898592	-84.060514	45.668277
47024		14.079748	-1.495233	1.908799	-0.616467	-0.088102	-0.160383	-0.395020	-0.392334	0.468506	107.737685	-83.957443	45.478800
47025		14.479039	-1.627356	2.105878	-0.431780	-0.097386	-0.247977	-0.390381	-0.390381	0.465820	107.580321	-83.805084	45.392214
47026		14.176568	-1.015335	1.136387	-0.151176	-0.175766	-0.327244	-0.394775	-0.404297	0.465576	107.848307	-83.595694	45.039342
47027		13.112951	0.468029	0.191550	0.140712	-0.248405	-0.322326	-0.385986	-0.400146	0.462402	108.603193	-83.375883	44.364598
47028		11.502284	1.866911	0.152352	0.262819	-0.195195	-0.230343	-0.393066	-0.403564	0.474365	109.291519	-83.214605	43.827041
47029		9.935426	2.786904	1.227775	0.282944	-0.001338	-0.114435	-0.394531	-0.397461	0.469971	109.274930	-83.152614	44.010915
47030		8.418654	2.982020	2.445502	0.200197	0.148100	-0.039370	-0.394531	-0.398193	0.477295	108.662455	-83.158728	44.747202
47031		7.507462	2.856646	2.743122	-0.001781	0.189838	-0.009001	-0.387939	-0.397217	0.474365	107.780268	-83.187915	45.638597
47032		7.219116	2.554868	2.403077	-0.245953	0.215203	-0.012975	-0.393311	-0.408447	0.477295	106.635267	-83.217151	46.653673
47033		7.479190	2.111527	2.323322	-0.359908	0.243695	-0.026071	-0.392822	-0.404785	0.469482	105.257653	-83.241133	47.837283
47034		8.129574	1.417293	2.163015	-0.385674	0.220675	-0.022053	-0.394531	-0.411377	0.466553	103.978449	-83.260669	48.906783
47035		9.033741	0.606086	1.849751	-0.383953	0.164565	-0.006595	-0.400146	-0.412842	0.464600	102.966892	-83.278886	49.707846
47036		10.149572	-0.229755	1.454835	-0.344797	0.126146	0.018081	-0.399658	-0.413330	0.459961	102.191367	-83.304584	50.293689
47037		11.041446	-0.931386	0.821659	-0.216679	0.094751	0.067944	-0.395508	-0.419189	0.460205	101.674138	-83.353854	50.693436
47038		11.567489	-1.445691	0.502127	0.008493	0.081604	0.114396	-0.400635	-0.414063	0.463379	101.399369	-83.427268	50.978828
47039		11.336064	-1.624221	0.373629	0.182460	0.104103	0.154241	-0.399170	-0.416504	0.464600	101.135270	-83.525660	51.353806
47040		10.473391	-1.449540	0.089466	0.352050	0.098003	0.196426	-0.399414	-0.408203	0.463135	101.041911	-83.646745	51.654619
47041		9.527582	-0.991557	0.157629	0.517185	0.095019	0.221901	-0.407959	-0.409912	0.465576	101.066027	-83.782152	51.932354
47042		8.977976	-0.332614	0.313868	0.553073	0.098514	0.221721	-0.402100	-0.402344	0.469971	101.097984	-83.917511	52.222817
47043		8.833381	0.382344	0.323414	0.463139	0.123596	0.225728	-0.413574	-0.399414	0.465332	100.928953	-84.058246	52.663458
47044		9.073551	0.772135	0.315618	0.404677	0.143070	0.247903	-0.411621	-0.394531	0.465332	100.638010	-84.212956	53.192895
47045		9.286084	0.830156	0.309453	0.397710	0.138095	0.277830	-0.403564	-0.399658	0.472656	100.367423	-84.384148	53.697677
47046		9.483023	0.583081	0.219781	0.390638	0.099776	0.300194	-0.415039	-0.395752	0.476807	100.331739	-84.563460	53.962270
47047		9.643638	0.358633	-0.019797	0.392872	0.092460	0.312572	-0.408203	-0.379150	0.472900	100.332104	-84.749395	54.191833
47048		9.673302	0.214631	-0.296819	0.454510	0.081270	0.331998	-0.418945	-0.385254	0.478760	100.467694	-84.944737	54.321041
47049		9.595258	0.077538	-0.235406	0.498258	0.119584	0.339156	-0.425537	-0.377686	0.469727	100.369107	-85.148510	54.710388
47050		9.300816	0.236155	-0.302012	0.505840	0.149412	0.353989	-0.425049	-0.383789	0.479248	100.079732	-85.363149	55.295453
47051		9.060746	0.348073	-0.268361	0.537996	0.202480	0.343061	-0.428711	-0.374023	0.472656	99.350001	-85.576736	56.340517
47052		8.793798	0.394444	-0.071010	0.539265	0.247184	0.331819	-0.423828	-0.376953	0.476563	98.191343	-85.786080	57.816199
47053		8.630064	0.447089	-0.045352	0.499009	0.264720	0.322428	-0.428711	-0.364502	0.479736	96.703338	-85.989149	59.598522
47054		8.533900	0.397173	-0.013791	0.468159	0.281241	0.313084	-0.430176	-0.371094	0.484375	94.894948	-86.183759	61.683867
47055		8.577432	0.360009	0.040892	0.428425	0.273293	0.305338	-0.433594	-0.364258	0.479004	92.905447	-86.369103	63.927393
47056		8.589296	0.197466	0.112225	0.382365	0.263264	0.286990	-0.437256	-0.357910	0.473877	90.778993	-86.538157	66.281291
47057		8.723951	0.063706	0.015712	0.352317	0.234389	0.256457	-0.437744	-0.357422	0.475830	88.681659	-86.684512	68.588343
47058		8.884888	-0.064592	-0.240068	0.358076	0.195782	0.227966	-0.434082	-0.356689	0.483154	86.826217	-86.810463	70.656137
47059		8.986266	-0.148297	-0.388463	0.406191	0.186548	0.202548	-0.436523	-0.350830	0.475830	84.939579	-86.918503	72.782505
47060		8.975578	-0.111034	-0.428788	0.400676	0.181627	0.178524	-0.442383	-0.356201	0.483154	83.017702	-87.009132	74.940841
47061		8.943128	0.159688	-0.386693	0.369472	0.188770	0.146425	-0.442383	-0.346924	0.476807	80.906896	-87.076966	77.270245
47062		8.948244	0.482538	-0.430163	0.321587	0.187042	0.109909	-0.446777	-0.345703	0.477783	78.793084	-87.119877	79.575127
47063		9.028920	0.693819	-0.444977	0.304145	0.175513	0.077774	-0.447754	-0.347900	0.479248	76.796107	-87.141953	81.752899
47064		9.183010	0.666027	-0.397772	0.307668	0.145932	0.048947	-0.447510	-0.351563	0.488770	75.211823	-87.148740	83.519516
47065		9.264566	0.530158	-0.597489	0.320320	0.098377	0.026923	-0.453613	-0.340332	0.488037	74.200878	-87.148449	84.719285
47066		9.372341	0.344057	-0.688390	0.346199	0.083796	0.011924	-0.451416	-0.344727	0.483398	73.439179	-87.141425	85.684400
47067		9.323683	0.211037	-0.713114	0.375486	0.075434	0.001042	-0.447266	-0.337646	0.486572	72.804284	-87.129114	86.539307
47068		9.243215	0.080448	-0.750750	0.369807	0.075468	-0.016031	-0.451660	-0.336914	0.474854	72.254416	-87.107163	87.305889
47069		9.133190	0.033534	-0.797749	0.352310	0.076916	-0.035054	-0.447998	-0.336914	0.484375	71.734983	-87.074101	88.031914
47070		9.082467	0.064493	-0.755162	0.334249	0.080669	-0.055733	-0.449463	-0.336182	0.480957	71.275039	-87.028946	88.688098
47071		9.099071	0.061155	-0.787320	0.318877	0.064908	-0.068582	-0.460693	-0.337891	0.480957	71.010707	-86.979410	89.139535
47072		9.205387	0.028833	-0.901311	0.314825	0.064779	-0.065646	-0.451904	-0.332275	0.489990	70.766230	-86.931509	89.568860
47073		9.281753	-0.106207	-1.040910	0.342800	0.060485	-0.062891	-0.453857	-0.334473	0.485352	70.562322	-86.885723	89.973540
47074		9.418913	-0.268083	-1.102917	0.370368	0.066504	-0.055708	-0.460449	-0.337646	0.482910	70.317234	-86.842679	90.435385
47075		9.440185	-0.525637	-1.116070	0.427794	0.095592	-0.042817	-0.453613	-0.332031	0.479492	69.771732	-86.800647	91.230973
47076		9.439956	-0.867739	-0.947235	0.510417	0.112881	-0.040527	-0.451416	-0.332275	0.485840	69.136142	-86.755994	92.164346
47077		9.441817	-0.988355	-0.722917	0.506567	0.096813	-0.039736	-0.459229	-0.330322	0.489014	68.649865	-86.714544	92.945857
47078		9.557438	-0.975926	-0.756543	0.477376	0.083098	-0.034776	-0.460205	-0.332031	0.487305	68.285984	-86.678323	93.588183
47079		9.568273	-0.703997	-0.623398	0.443175	0.084547	-0.029300	-0.455811	-0.329346	0.492920	67.864696	-86.644489	94.268233
47080		9.557760	-0.312830	-0.526839	0.411437	0.072496	-0.031322	-0.458252	-0.324951	0.483398	67.566834	-86.611920	94.806623
47081		9.502452	0.065379	-0.418815	0.357793	0.080067	-0.024395	-0.452637	-0.322266	0.496338	67.138772	-86.581224	95.444473
47082		9.421915	0.206135	-0.522610	0.347510	0.098670	-0.019107	-0.462891	-0.319824	0.493408	66.546962	-86.548714	96.240682
47083		9.302956	0.206413	-0.628695	0.415986	0.100567	-0.017113	-0.464844	-0.328125	0.499512	65.969067	-86.516412	97.062076
47084		9.242017	0.146371	-0.697688	0.455382	0.076395	-0.024481	-0.453857	-0.330811	0.490479	65.674274	-86.485475	97.622689
47085		9.238564	0.070822	-0.771758	0.449256	0.038720	-0.043616	-0.464844	-0.323730	0.489746	65.760418	-86.453462	97.797928
47086		9.265548	0.026980	-1.047169	0.442127	-0.007292	-0.067290	-0.466064	-0.329590	0.490234	66.329801	-86.419712	97.485121
47087		9.228019	-0.030063	-1.525415	0.476626	-0.071282	-0.095054	-0.462891	-0.324219	0.502197	67.530854	-86.385548	96.558964
47088		9.186554	-0.295218	-1.960772	0.565740	-0.140743	-0.109289	-0.461182	-0.314941	0.500000	69.403449	-86.356685	95.011272
47089		9.163697	-0.706492	-2.229679	0.668347	-0.220611	-0.110999	-0.464844	-0.318604	0.505127	71.976900	-86.338505	92.819926
47090		9.366036	-1.063687	-2.414854	0.772541	-0.268792	-0.107792	-0.453857	-0.323975	0.510010	74.998889	-86.322853	90.239143
47091		9.867302	-1.251032	-2.290137	0.966098	-0.231052	-0.087997	-0.459717	-0.308105	0.508789	77.727914	-86.305266	88.062742
47092		10.570079	-0.749488	-1.868046	0.881620	-0.232244	-0.047684	-0.462402	-0.308105	0.507080	80.338848	-86.303558	85.956420
47093		11.623441	-0.083773	-0.604825	0.420885	-0.157798	0.019982	-0.461914	-0.300781	0.510986	81.935564	-86.329141	84.601615
47094		12.160793	0.759097	-0.234979	0.151713	0.129084	0.072135	-0.459961	-0.307617	0.510010	80.783482	-86.358696	85.847017
47095		12.260671	1.865744	-0.462562	0.316816	0.172746	0.073007	-0.456543	-0.303711	0.509033	79.309349	-86.383139	87.509557
47096		12.613665	2.455459	0.887146	0.414151	0.007417	0.048620	-0.467285	-0.305420	0.509277	79.401241	-86.409532	87.659113
47097		12.914871	2.845429	2.354368	-0.009073	-0.098784	0.017622	-0.462891	-0.308594	0.518799	80.253339	-86.429740	86.803732
47098		12.849674	3.457768	1.543578	-0.330617	-0.188047	0.025198	-0.462158	-0.310791	0.510986	81.743118	-86.460664	85.125154
47099		12.706515	3.874536	0.880818	-0.005607	-0.152360	0.101647	-0.461914	-0.296875	0.517090	83.021121	-86.530138	83.845187
47100		12.439103	3.317398	2.734117	0.369574	-0.163988	0.173307	-0.460693	-0.304932	0.517822	84.621266	-86.638787	82.458189
47101		12.193647	2.624708	3.434697	0.076687	-0.338253	0.195903	-0.464600	-0.304443	0.520264	87.886492	-86.763568	79.235274
47102		11.563417	1.764336	2.777670	-0.187413	-0.417718	0.235919	-0.461426	-0.308105	0.522705	92.104711	-86.898672	74.906926
47103		10.718867	0.189771	2.604731	-0.019189	-0.469207	0.245686	-0.455322	-0.302490	0.524658	97.344659	-87.017038	69.652334
47104		9.877707	-1.611425	2.367539	0.055942	-0.461216	0.207907	-0.460693	-0.302490	0.527100	102.838116	-87.087936	64.187573
47105		9.034745	-2.342228	1.540087	-0.004199	-0.274210	0.151636	-0.456055	-0.300049	0.535156	106.269056	-87.132877	60.753581
47106		8.252627	-2.250271	1.200722	0.169685	-0.061378	0.113445	-0.467041	-0.300049	0.534912	107.424659	-87.184756	59.697764
47107		8.080805	-2.118267	1.352015	0.433059	0.082543	0.078717	-0.462402	-0.292725	0.527588	107.005690	-87.242320	60.369310
47108		8.420246	-1.510607	1.009947	0.480582	0.190003	0.037365	-0.465820	-0.299561	0.531982	105.214432	-87.292960	62.442138
47109		9.047096	-0.365173	0.730357	0.495261	0.251625	0.009444	-0.466553	-0.295654	0.531494	102.527893	-87.333333	65.419323
47110		9.726036	0.688646	0.924220	0.499038	0.278366	-0.017908	-0.474854	-0.289307	0.537354	99.397358	-87.353442	68.843324
47111		10.308560	1.769237	1.162434	0.400053	0.278715	-0.036850	-0.479736	-0.296875	0.528320	96.123112	-87.354536	72.354126
47112		10.491938	2.714582	1.324034	0.258214	0.256037	-0.048026	-0.475830	-0.292480	0.534424	93.068888	-87.338685	75.563596
47113		10.280938	3.396422	1.405265	0.099097	0.224039	-0.078227	-0.477295	-0.295410	0.531006	90.338284	-87.297942	78.357675
47114		9.770634	3.855958	1.401599	-0.046326	0.181339	-0.123859	-0.479980	-0.292236	0.535889	88.160463	-87.225425	80.515276
47115		9.297378	3.785534	1.554382	-0.171762	0.123697	-0.172246	-0.479736	-0.291992	0.531006	86.697643	-87.123667	81.885051
47116		9.061130	3.202263	1.475813	-0.277428	0.059940	-0.219949	-0.475342	-0.302246	0.532227	86.028919	-86.995532	82.399357
47117		8.917723	2.403817	1.053355	-0.384461	0.026412	-0.259004	-0.469238	-0.302979	0.518555	85.708284	-86.846272	82.503628
47118		8.929677	1.563327	0.846669	-0.456994	0.001156	-0.277150	-0.466797	-0.306885	0.529297	85.648674	-86.687688	82.304943
47119		9.062961	0.941029	0.742491	-0.512820	-0.013292	-0.267088	-0.473633	-0.311768	0.529053	85.661928	-86.535448	82.001125
47120		9.231539	0.659465	0.401769	-0.567951	0.007039	-0.262384	-0.470215	-0.313721	0.523926	85.461822	-86.385062	81.879447
47121		9.249537	0.723905	0.134179	-0.589761	0.034394	-0.276695	-0.468506	-0.319580	0.518555	85.008241	-86.225204	81.999158
47122		9.199520	0.961386	0.108975	-0.589647	0.039584	-0.294090	-0.472168	-0.325439	0.525146	84.564987	-86.055148	82.108678
47123		9.208665	1.284033	0.024848	-0.600720	0.007632	-0.310323	-0.473633	-0.333496	0.524902	84.387992	-85.877501	81.944869
47124		9.134100	1.577802	-0.085347	-0.599542	-0.031621	-0.320133	-0.471924	-0.329346	0.525391	84.532218	-85.696491	81.459679
47125		9.006943	1.722051	-0.020355	-0.583815	-0.064065	-0.320698	-0.472656	-0.344482	0.517334	84.881870	-85.516644	80.777320
47126		8.888567	1.737074	0.253241	-0.591603	-0.083260	-0.319076	-0.464844	-0.342773	0.512939	85.334792	-85.338366	79.986781
47127		8.830631	1.654774	0.166017	-0.631404	-0.091815	-0.302701	-0.471191	-0.351563	0.509766	85.755986	-85.169253	79.204954
47128		8.770443	1.494174	0.001253	-0.644561	-0.080117	-0.280516	-0.466064	-0.351807	0.513916	86.056007	-85.012025	78.537037
47129		8.676639	1.392873	-0.130201	-0.666768	-0.068953	-0.247572	-0.468018	-0.360352	0.511230	86.217321	-84.872863	77.995412
47130		8.713013	1.433497	-0.223180	-0.685159	-0.062124	-0.220572	-0.471924	-0.364502	0.510986	86.309288	-84.748884	77.512760
47131		8.722573	1.403651	-0.156287	-0.682957	-0.067621	-0.199800	-0.468994	-0.371826	0.506836	86.403317	-84.636794	77.029189
47132		8.680638	1.383675	-0.146069	-0.705516	-0.076883	-0.175846	-0.469727	-0.373779	0.502686	86.531448	-84.538758	76.498320
47133		8.708879	1.362479	-0.170073	-0.727434	-0.093281	-0.153335	-0.464844	-0.372314	0.503906	86.713477	-84.453893	75.900593
47134		8.856899	1.253859	-0.253795	-0.729401	-0.109978	-0.132696	-0.466309	-0.382080	0.493164	86.984827	-84.381254	75.211921
47135		8.985432	1.056111	-0.332862	-0.703550	-0.113312	-0.110691	-0.463867	-0.393799	0.502686	87.261275	-84.320865	74.532925
47136		9.017402	0.832926	-0.405296	-0.657942	-0.113425	-0.084122	-0.466553	-0.390869	0.507568	87.559129	-84.275465	73.858623
47137		9.005659	0.695763	-0.513530	-0.626089	-0.105137	-0.053084	-0.466064	-0.399170	0.497314	87.803802	-84.247231	73.256059
47138		8.987724	0.672196	-0.520164	-0.601367	-0.085352	-0.015991	-0.460693	-0.392334	0.499512	87.950171	-84.239701	72.766524
47139		8.979624	0.754667	-0.461743	-0.571668	-0.076141	0.010152	-0.478760	-0.398193	0.493408	88.045612	-84.246789	72.345266
47140		8.997324	0.937013	-0.376100	-0.573498	-0.078264	0.034785	-0.474121	-0.403320	0.496582	88.158900	-84.268008	71.905038
47141		8.946720	1.126273	-0.394878	-0.601789	-0.086627	0.053297	-0.477051	-0.406006	0.489014	88.292960	-84.299837	71.427653
47142		8.889084	1.265762	-0.485526	-0.595924	-0.105859	0.070491	-0.471680	-0.403809	0.490967	88.552770	-84.341695	70.827317
47143		8.811741	1.315908	-0.572639	-0.617251	-0.128578	0.085605	-0.471924	-0.412109	0.493896	88.927657	-84.392130	70.099111
47144		8.803748	1.369456	-0.694042	-0.661179	-0.148711	0.103517	-0.469238	-0.414551	0.486572	89.415161	-84.452485	69.232536
47145		8.839892	1.448480	-0.739557	-0.700714	-0.156337	0.130018	-0.469727	-0.416992	0.485596	89.930635	-84.527279	68.315213
47146		8.948311	1.457219	-0.732181	-0.707205	-0.144482	0.154107	-0.464355	-0.416992	0.482178	90.401853	-84.615157	67.438725
47147		9.110396	1.427315	-0.530611	-0.697841	-0.110733	0.170905	-0.470703	-0.425537	0.484375	90.683987	-84.712261	66.757690
47148		9.286636	1.268393	-0.507125	-0.656204	-0.070654	0.171337	-0.470703	-0.434570	0.485840	90.765588	-84.809731	66.302068
47149		9.463423	1.135278	-0.530411	-0.640443	-0.034267	0.164967	-0.471924	-0.435547	0.475586	90.622161	-84.903784	66.081557
47150		9.562437	1.040353	-0.494939	-0.596724	-0.000542	0.153551	-0.474854	-0.427002	0.478760	90.294279	-84.991576	66.071362
47151		9.664423	1.004845	-0.461935	-0.557302	0.019364	0.150100	-0.469482	-0.431641	0.477295	89.841056	-85.077357	66.209697
47152		9.609433	1.011482	-0.355259	-0.545995	0.049716	0.144745	-0.475586	-0.438477	0.471436	89.189012	-85.159864	66.554018
47153		9.452917	1.037890	-0.363386	-0.515031	0.072203	0.134707	-0.470459	-0.431152	0.474609	88.374622	-85.235896	67.079069
47154		9.325606	1.113778	-0.391794	-0.490986	0.089007	0.108720	-0.478516	-0.444824	0.465820	87.453066	-85.296105	67.725375
47155		9.200290	1.329057	-0.501663	-0.490287	0.106679	0.086559	-0.477783	-0.444092	0.473389	86.386826	-85.342057	68.517258
47156		9.132806	1.614093	-0.604683	-0.506999	0.112210	0.071660	-0.475098	-0.435547	0.463135	85.272074	-85.378143	69.348104
47157		9.230767	1.875636	-0.562095	-0.515010	0.103874	0.061725	-0.481689	-0.444824	0.464844	84.194266	-85.407551	70.137313
47158		9.246464	2.029657	-0.652057	-0.526599	0.075979	0.054209	-0.489014	-0.457520	0.459473	83.312761	-85.433497	70.722828
47159		9.259213	2.153123	-0.879948	-0.558000	0.026932	0.052927	-0.484375	-0.454346	0.461426	82.747947	-85.461310	70.972675
47160		9.220465	2.223182	-1.082786	-0.603628	-0.017229	0.053271	-0.487305	-0.459229	0.458252	82.478953	-85.492654	70.899447
47161		9.264185	2.162311	-1.190544	-0.620568	-0.066573	0.038344	-0.487305	-0.462891	0.454102	82.562254	-85.518927	70.463230
47162		9.299158	2.014714	-1.531901	-0.633017	-0.117838	0.033311	-0.482178	-0.460449	0.456055	83.028946	-85.546136	69.635190
47163		9.355169	1.959598	-1.780668	-0.632543	-0.150580	0.031855	-0.494873	-0.452393	0.450684	83.737917	-85.573699	68.564593
47164		9.468997	1.892628	-1.948181	-0.628389	-0.154722	0.035318	-0.495605	-0.459473	0.444092	84.496585	-85.602723	67.446431
47165		9.540027	1.887224	-1.997426	-0.623731	-0.144347	0.046277	-0.486816	-0.477539	0.445557	85.178964	-85.636043	66.407671
47166		9.581831	1.832652	-2.027410	-0.624221	-0.135946	0.058887	-0.483398	-0.470947	0.446533	85.811156	-85.675608	65.418847
47167		9.529955	1.687818	-2.215351	-0.599147	-0.119622	0.078036	-0.487061	-0.483643	0.444580	86.333094	-85.724357	64.555231
47168		9.506990	1.410440	-2.122505	-0.530114	-0.105956	0.088927	-0.497559	-0.472656	0.440674	86.806540	-85.778663	63.779782
47169		9.415777	1.076409	-2.059567	-0.569790	-0.106349	0.101093	-0.492676	-0.481689	0.445313	87.267206	-85.839088	62.994599
47170		9.320574	0.955598	-2.087093	-0.570711	-0.102143	0.113877	-0.487549	-0.477783	0.439941	87.713282	-85.906649	62.223390
47171		9.165185	0.970013	-2.316860	-0.562319	-0.118386	0.105825	-0.483887	-0.482666	0.433594	88.314588	-85.969030	61.301629
47172		8.934548	1.381518	-2.350970	-0.561159	-0.112150	0.107268	-0.491211	-0.477783	0.438965	88.892678	-86.031855	60.403691
47173		8.885024	1.820856	-1.917092	-0.514118	-0.092660	0.097930	-0.501221	-0.484131	0.429932	89.356071	-86.088191	59.647989
47174		9.238290	1.856856	-0.477503	-0.531125	0.005636	0.087919	-0.502441	-0.490479	0.430176	88.995775	-86.138331	59.707971
47175		10.102653	1.122716	0.542625	-0.553468	0.114721	0.047736	-0.498779	-0.493652	0.427979	87.690817	-86.163137	60.702121
47176		11.132319	0.070281	1.523918	-0.598463	0.192911	0.011641	-0.494385	-0.495850	0.420410	85.699079	-86.163235	62.358537
47177		12.297111	-0.934362	2.292068	-0.679827	0.066421	-0.009013	-0.500488	-0.496582	0.423584	84.751341	-86.154280	62.922094
47178		13.637970	-1.952375	2.769509	-0.756631	-0.001419	-0.079568	-0.498535	-0.500732	0.424805	84.395962	-86.108780	62.847646
47179		14.656948	-3.014958	3.342248	-0.642331	0.021353	-0.260698	-0.505371	-0.512207	0.418457	84.067630	-85.958394	62.811894
47180		15.091857	-3.417058	2.716778	-0.509418	0.055419	-0.446472	-0.487549	-0.505615	0.417236	83.718540	-85.700465	62.873131
47181		14.938597	-2.226696	1.265815	-0.234430	0.126927	-0.517661	-0.505859	-0.509766	0.418457	83.091298	-85.397109	63.371511
47182		13.831615	-0.205652	1.715072	0.351628	0.215679	-0.476678	-0.489990	-0.515137	0.423584	82.239295	-85.110245	64.432477
47183		12.260270	1.595553	3.118616	0.533543	0.201591	-0.399269	-0.495850	-0.512939	0.422119	81.604969	-84.867232	65.380032
47184		11.012384	3.030094	2.948326	0.370886	0.207863	-0.360841	-0.493896	-0.519043	0.424072	80.880860	-84.644559	66.324454
47185		10.499131	3.839275	3.496713	0.261860	0.212346	-0.338171	-0.500977	-0.515381	0.422119	80.107432	-84.432983	67.256089
47186		10.212811	4.280109	3.996345	-0.067103	0.061278	-0.295331	-0.492432	-0.518066	0.418457	80.017654	-84.260052	67.311550
47187		10.031543	4.311973	2.672058	-0.165466	-0.079261	-0.249734	-0.493408	-0.525146	0.421631	80.595982	-84.126102	66.638980
47188		10.059571	3.158913	2.154606	-0.046120	-0.108745	-0.197586	-0.499268	-0.531738	0.422363	81.336791	-84.023881	65.871507
47189		10.120178	1.417113	2.168727	-0.041996	-0.110954	-0.160538	-0.497070	-0.525391	0.425049	82.031137	-83.941393	65.153212
47190		10.056454	-0.266725	1.904125	-0.115818	-0.174298	-0.121117	-0.484131	-0.526855	0.424805	82.981216	-83.885418	64.134895
47191		10.220940	-1.359135	0.528346	-0.163464	-0.194155	-0.053774	-0.495850	-0.533936	0.416260	83.945002	-83.866848	63.075469
47192		10.166726	-1.921819	-0.428733	-0.003034	-0.176258	0.048835	-0.497314	-0.531738	0.418945	84.858981	-83.904355	62.158395
47193		9.532901	-2.182377	-0.629811	0.384480	-0.126702	0.153504	-0.489258	-0.521240	0.431885	85.687955	-83.997525	61.550334
47194		9.110145	-2.215468	-0.259832	0.656488	-0.089966	0.257935	-0.500977	-0.523438	0.429443	86.464908	-84.148303	61.151249
47195		8.450163	-1.663729	-0.167496	0.729707	0.019998	0.317146	-0.502197	-0.514648	0.437744	86.655602	-84.328694	61.383769
47196		8.051652	-0.954333	0.201258	0.769830	0.094531	0.351214	-0.502441	-0.516846	0.433838	86.420821	-84.526102	62.066717
47197		7.958731	-0.351457	0.673334	0.751830	0.143356	0.376804	-0.508545	-0.504395	0.453369	85.817502	-84.735721	63.109288
47198		7.929829	0.264638	0.981675	0.640873	0.177857	0.384919	-0.512939	-0.500488	0.440918	84.863929	-84.947081	64.439299
47199		7.881579	0.727802	1.071590	0.547294	0.183686	0.385184	-0.520020	-0.499512	0.443604	83.706331	-85.155977	65.919896
47200		7.818826	0.819919	1.030124	0.531884	0.162987	0.382648	-0.510254	-0.497559	0.443115	82.580192	-85.362322	67.359565
47201		7.871777	0.347733	0.955406	0.590763	0.155574	0.361475	-0.516846	-0.493652	0.445068	81.435594	-85.554743	68.851245
47202		8.152189	-0.371983	0.957029	0.657311	0.155198	0.350256	-0.532715	-0.487549	0.450928	80.242018	-85.738527	70.429844
47203		8.553783	-0.933790	0.777822	0.695202	0.149381	0.343015	-0.523926	-0.482178	0.459473	78.990144	-85.916099	72.088349
47204		8.988770	-1.281251	0.562315	0.738261	0.154718	0.335782	-0.532715	-0.476318	0.457520	77.616118	-86.086340	73.893620
47205		9.230369	-1.239071	0.776651	0.772246	0.178390	0.313715	-0.529785	-0.473389	0.464111	75.950531	-86.237654	76.010303
47206		9.202287	-0.670643	0.935909	0.739516	0.168490	0.272883	-0.535156	-0.469482	0.466553	74.313326	-86.363813	78.079389
47207		9.012506	0.118752	0.889690	0.674311	0.109030	0.223196	-0.540283	-0.454102	0.463867	73.156579	-86.468751	79.629381
47208		8.825610	0.832003	0.722000	0.625249	0.042625	0.186042	-0.533447	-0.457764	0.461426	72.619188	-86.563235	80.530538
47209		8.747910	1.216809	0.580183	0.577008	-0.013222	0.172594	-0.541504	-0.457031	0.469727	72.557246	-86.659481	80.927645
47210		8.653348	1.262078	0.406471	0.577557	-0.060728	0.168427	-0.532715	-0.455811	0.480225	72.971743	-86.761751	80.847792
47211		8.625110	1.022180	0.376759	0.586703	-0.083212	0.167233	-0.545410	-0.448975	0.479248	73.617385	-86.866814	80.541722
47212		8.741888	0.799170	0.314585	0.567566	-0.103351	0.151510	-0.541748	-0.437988	0.478760	74.560670	-86.966325	79.926597
47213		8.940227	0.600016	0.285398	0.519721	-0.109721	0.132435	-0.539063	-0.446533	0.486084	75.630517	-87.055410	79.157384
47214		9.121876	0.580240	0.147056	0.469044	-0.129346	0.107099	-0.547119	-0.435791	0.491211	77.034664	-87.132346	78.024382
47215		9.308526	0.620867	0.003781	0.416501	-0.170014	0.075639	-0.533447	-0.437988	0.482422	78.995843	-87.194600	76.303640
47216		9.297228	0.670651	-0.161587	0.390785	-0.198260	0.043507	-0.535645	-0.435791	0.502686	81.437278	-87.238277	74.087355
47217		9.123956	0.710812	-0.255865	0.404759	-0.228290	0.003302	-0.541016	-0.431396	0.496826	84.343909	-87.256057	71.413459
47218		8.900386	0.678456	-0.334713	0.415948	-0.246299	-0.019575	-0.542725	-0.431885	0.496826	87.537125	-87.254669	68.459037
47219		8.738716	0.585094	-0.535039	0.437184	-0.246021	-0.043231	-0.544922	-0.434326	0.510742	90.702802	-87.231874	65.544391
47220		8.688894	0.432754	-0.699168	0.506879	-0.225378	-0.056642	-0.541016	-0.429688	0.503662	93.620506	-87.194386	62.917862
47221		8.614957	0.224069	-0.666168	0.547500	-0.198342	-0.074238	-0.546875	-0.427734	0.509033	96.131329	-87.142250	60.721966
47222		8.533166	0.127811	-0.781046	0.552481	-0.207286	-0.092456	-0.536133	-0.419922	0.514404	98.645918	-87.074265	58.524990
47223		8.543536	0.066707	-0.985473	0.557074	-0.223426	-0.105484	-0.536377	-0.419678	0.517090	101.180346	-86.992686	56.310680
47224		8.677107	-0.007955	-1.081584	0.587311	-0.237591	-0.114141	-0.541260	-0.425781	0.524658	103.744818	-86.899282	54.083411
47225		8.801333	-0.092343	-1.059872	0.619079	-0.255068	-0.111407	-0.531494	-0.421387	0.527100	106.347438	-86.799785	51.835995
47226		8.997072	-0.153744	-1.272903	0.643162	-0.271232	-0.122732	-0.526611	-0.418701	0.532471	108.944565	-86.685506	49.607635
47227		9.074831	-0.109278	-1.407866	0.658749	-0.264592	-0.112268	-0.531738	-0.413818	0.527832	111.349453	-86.573080	47.580554
47228		9.249981	-0.046551	-1.553503	0.688603	-0.214585	-0.106442	-0.536865	-0.406006	0.536621	113.235852	-86.469880	46.089810
47229		9.316327	0.015779	-1.401958	0.731924	-0.140062	-0.098257	-0.529785	-0.408936	0.535889	114.455678	-86.386194	45.291657
47230		9.433470	0.026617	-1.233037	0.763304	-0.053271	-0.096544	-0.527832	-0.403564	0.541260	114.966266	-86.323068	45.222129
47231		9.593590	-0.017298	-0.925833	0.764233	0.028040	-0.086450	-0.535645	-0.396973	0.547119	114.846202	-86.285164	45.785087
47232		9.703250	-0.119493	-0.725648	0.767134	0.094082	-0.075787	-0.523682	-0.397705	0.547119	114.256122	-86.267947	46.820748
47233		9.767434	-0.200734	-0.691451	0.789928	0.125287	-0.065537	-0.523438	-0.395752	0.549561	113.461378	-86.262886	48.074586
47234		9.855536	-0.172157	-0.710756	0.780148	0.139998	-0.047261	-0.528809	-0.399902	0.552734	112.616031	-86.269238	49.373542
47235		9.865951	-0.091507	-0.815444	0.749448	0.123895	-0.048764	-0.533936	-0.384033	0.558350	111.866858	-86.270481	50.558447
47236		9.776664	0.143005	-1.191486	0.785428	0.084841	-0.057588	-0.533936	-0.375000	0.555908	111.439672	-86.257625	51.441386
47237		9.710483	0.351823	-1.392910	0.840654	0.058222	-0.074810	-0.532959	-0.374512	0.556885	111.202683	-86.230047	52.165399
47238		9.565717	0.381746	-1.592924	0.915211	0.022358	-0.079767	-0.533936	-0.377930	0.562256	111.297881	-86.191968	52.599387
47239		9.406910	0.170827	-1.810354	1.017641	-0.001402	-0.083947	-0.526367	-0.367920	0.563721	111.622378	-86.147113	52.862347
47240		9.367336	-0.081170	-1.755088	1.097662	-0.003882	-0.075137	-0.547852	-0.366943	0.572998	112.046562	-86.106199	53.071415
47241		9.295130	-0.292028	-1.609616	1.102805	-0.015932	-0.063216	-0.541748	-0.357910	0.581299	112.595092	-86.069424	53.158744
47242		9.263694	-0.507795	-1.567453	1.075813	-0.024426	-0.052716	-0.532715	-0.351563	0.583496	113.229162	-86.036033	53.144896
47243		9.182773	-0.671953	-1.537978	1.074331	-0.012828	-0.054576	-0.533203	-0.346436	0.587158	113.757946	-86.004645	53.235656
47244		9.090507	-0.689965	-1.627146	1.045329	0.008765	-0.064707	-0.530273	-0.344238	0.590820	114.078350	-85.972672	53.518735
47245		8.946046	-0.617539	-1.777241	1.027252	0.021079	-0.086483	-0.537598	-0.337646	0.593750	114.221366	-85.932645	53.969171
47246		8.862592	-0.457119	-1.853845	0.979389	0.008136	-0.108735	-0.536133	-0.326660	0.591553	114.366463	-85.877661	54.390157
47247		8.930182	-0.332777	-1.990761	0.941757	-0.013182	-0.129726	-0.539307	-0.322998	0.598389	114.575031	-85.807142	54.725799
