// General information: 
//  MT Manager version: 2022.2.0 
//  XDA version: 2022.2.0 build 7381 rev 124627 built on 2023-07-19
// Device information: 
//  DeviceId: 00B4C223
//  ProductCode: MTW2-3A7G6
//  Firmware Version: 4.6.0
//  Hardware Version: 2.0.0
// Device settings: 
//  Filter Profile: human(46.1)
//  Option Flags: Orientation Smoother Disabled, Position/Velocity Smoother Disabled, Continuous Zero Rotation Update Disabled, AHS Disabled, ICC Disabled
// Coordinate system: ENU
PacketCounter	SampleTimeFine	Acc_X	Acc_Y	Acc_Z	Gyr_X	Gyr_Y	Gyr_Z	Mag_X	Mag_Y	Mag_Z	Roll	Pitch	Yaw
49449		9.422355	-0.772392	2.293710	-0.003054	0.000284	0.001509	-0.999023	0.479004	-0.621094	-18.933315	-76.733188	-59.195646
49450		9.441855	-0.777361	2.307561	-0.000588	-0.001784	0.005220	-1.003906	0.484131	-0.621582	-18.941473	-76.733817	-59.185870
49451		9.468749	-0.799203	2.305359	-0.003234	-0.002644	-0.001119	-1.002686	0.485596	-0.622070	-18.935386	-76.732459	-59.192919
49452		9.441934	-0.777814	2.307083	-0.002708	-0.002245	0.004241	-1.005371	0.488770	-0.624756	-18.942872	-76.733520	-59.185082
49453		9.382807	-0.768892	2.307414	-0.000095	0.004478	0.003223	-1.004150	0.486572	-0.627197	-18.939595	-76.727438	-59.186559
49454		9.441812	-0.778496	2.307355	-0.004444	-0.000349	0.001965	-1.000977	0.490234	-0.621582	-18.941349	-76.727895	-59.185632
49455		9.468648	-0.800473	2.305332	-0.001594	-0.000061	0.004380	-1.008301	0.490234	-0.624512	-18.945233	-76.724051	-59.180559
49456		9.429605	-0.791576	2.277455	-0.003054	0.000284	0.001508	-0.995117	0.483643	-0.623291	-18.944643	-76.724250	-59.181222
49457		9.402710	-0.770365	2.279465	-0.003259	0.000855	0.005432	-1.002930	0.486084	-0.624512	-18.951146	-76.719738	-59.174666
49458		9.441669	-0.779885	2.307469	0.001115	0.002183	0.000140	-1.008057	0.488770	-0.614990	-18.943528	-76.719162	-59.180097
49459		9.461709	-0.780193	2.279355	-0.002709	-0.002245	0.004240	-1.002930	0.486572	-0.619141	-18.949462	-76.716602	-59.173668
49460		9.428958	-0.797290	2.319497	-0.001390	-0.000633	0.000456	-1.005615	0.493896	-0.618408	-18.946226	-76.717493	-59.176070
49461		9.429520	-0.793023	2.277306	-0.002709	-0.002245	0.004240	-1.003662	0.487305	-0.625488	-18.952327	-76.714936	-59.169214
49462		9.409476	-0.793352	2.305225	-0.005834	-0.000982	0.002421	-0.999512	0.490723	-0.624023	-18.956423	-76.715651	-59.166700
49463		9.461228	-0.786027	2.320681	-0.001044	-0.003162	0.003188	-1.008301	0.485840	-0.621094	-18.959774	-76.713726	-59.161903
49464		9.449094	-0.798695	2.290600	-0.002049	-0.001439	0.002348	-0.999023	0.487305	-0.622314	-18.961894	-76.714702	-59.159190
49465		9.408076	-0.738790	2.282418	-0.001940	0.002467	0.001648	-1.001953	0.491211	-0.625244	-18.957710	-76.710066	-59.162966
49466		9.441689	-0.782291	2.306574	-0.000589	-0.001785	0.005219	-1.004150	0.486084	-0.628906	-18.965852	-76.710695	-59.153206
49467		9.441735	-0.782603	2.306279	-0.006015	-0.003909	-0.000207	-1.002686	0.490723	-0.614502	-18.964807	-76.709794	-59.155816
49468		9.454462	-0.766047	2.293912	-0.003259	0.000855	0.005432	-1.009277	0.486816	-0.625732	-18.972885	-76.708953	-59.147694
49469		9.422218	-0.778759	2.292119	-0.002049	-0.001439	0.002348	-1.007324	0.481201	-0.623047	-18.973546	-76.706330	-59.146240
49470		9.461205	-0.788404	2.319968	-0.001869	0.001488	0.004975	-1.006348	0.485107	-0.620605	-18.979279	-76.705231	-59.139708
49471		9.441668	-0.784167	2.306024	-0.002050	-0.001439	0.002348	-1.010742	0.494629	-0.619385	-18.979674	-76.702610	-59.139207
49472		9.434347	-0.767542	2.321754	-0.002709	-0.002246	0.004239	-1.007568	0.486084	-0.619141	-18.987144	-76.703671	-59.131386
49473		9.416773	-0.814387	2.288069	-0.002528	0.000681	0.006867	-1.000977	0.497314	-0.625732	-18.996836	-76.699054	-59.120631
49474		9.434303	-0.768496	2.321617	-0.003510	-0.001093	-0.000523	-1.007568	0.490967	-0.626953	-18.992939	-76.700377	-59.124961
49475		9.428947	-0.802643	2.317696	-0.002709	-0.002246	0.004239	-1.003418	0.482178	-0.631104	-18.999108	-76.697767	-59.117733
49476		9.473875	-0.773975	2.307126	-0.000864	-0.000236	0.005815	-0.999512	0.488281	-0.624512	-19.007543	-76.697445	-59.107834
49477		9.422127	-0.782093	2.291356	-0.001319	-0.001613	0.003783	-1.006592	0.482422	-0.624023	-19.011055	-76.694623	-59.103643
49478		9.454362	-0.770305	2.292898	-0.001979	-0.002420	0.005674	-1.004150	0.489746	-0.623047	-19.021529	-76.695509	-59.092305
49479		9.441643	-0.787706	2.304920	-0.003714	-0.000522	0.003400	-1.005859	0.492676	-0.627930	-19.024752	-76.692209	-59.089580
49480		9.461697	-0.788164	2.276660	-0.003440	-0.002073	0.002804	-1.000244	0.492432	-0.622314	-19.029214	-76.693442	-59.085280
49481		9.409445	-0.800850	2.302756	-0.003369	-0.003053	0.006130	-0.996826	0.491455	-0.621826	-19.040721	-76.690982	-59.073231
49482		9.453877	-0.776578	2.334132	-0.003511	-0.001092	-0.000523	-1.004883	0.491455	-0.627930	-19.036832	-76.692306	-59.077554
49483		9.428962	-0.806143	2.316422	-0.003258	0.000854	0.005431	-1.006836	0.487061	-0.615234	-19.043558	-76.687877	-59.070583
49484		9.434853	-0.768338	2.278075	-0.003644	-0.001503	0.006726	-0.994873	0.496094	-0.616211	-19.056665	-76.688068	-59.057518
49485		9.421625	-0.790442	2.331948	-0.005216	-0.005062	0.004554	-0.999023	0.486328	-0.627441	-19.067258	-76.687095	-59.047869
49486		9.432443	-0.723151	2.339180	-0.001594	-0.000064	0.004379	-0.999268	0.486328	-0.627441	-19.072680	-76.686945	-59.041495
49487		9.429512	-0.803799	2.273556	-0.004831	-0.002706	0.003259	-0.999756	0.487305	-0.625977	-19.077915	-76.684843	-59.037549
49488		9.461769	-0.791980	2.275036	-0.002710	-0.002247	0.004238	-1.005859	0.484619	-0.618652	-19.085381	-76.685901	-59.029732
49489		9.414896	-0.770696	2.305002	-0.003715	-0.000523	0.003400	-1.003662	0.480713	-0.619141	-19.088623	-76.682643	-59.027107
49490		9.422265	-0.787839	2.288821	-0.002963	-0.004192	-0.001716	-1.003418	0.485107	-0.626953	-19.084151	-76.685870	-59.031707
49491		9.421784	-0.792520	2.330601	0.000070	-0.000981	0.003326	-0.999756	0.484131	-0.620605	-19.085338	-76.682878	-59.029181
49492		9.469207	-0.810129	2.258205	-0.005491	-0.003513	0.005150	-1.005371	0.496826	-0.629150	-19.097486	-76.684451	-59.018190
49493		9.395537	-0.767305	2.290044	-0.002710	-0.002247	0.004238	-1.003418	0.487305	-0.623291	-19.103630	-76.681942	-59.011381
49494		9.441896	-0.794003	2.301721	-0.003441	-0.002073	0.002803	-1.008057	0.487549	-0.618408	-19.108094	-76.683175	-59.007079
49495		9.461418	-0.799084	2.315442	-0.000590	-0.001789	0.005217	-1.003174	0.483643	-0.623291	-19.114803	-76.680282	-58.998742
49496		9.441914	-0.794718	2.301400	-0.001390	-0.000633	0.000456	-1.010010	0.486328	-0.621826	-19.111584	-76.681175	-59.001128
49497		9.427769	-0.756375	2.291350	-0.003602	0.003384	0.002702	-0.998047	0.491211	-0.620117	-19.110090	-76.675946	-59.003212
49498		9.441827	-0.795313	2.301551	-0.007226	-0.001615	0.002876	-1.004395	0.484619	-0.618164	-19.116526	-76.676917	-58.999112
49499		9.447192	-0.761784	2.305377	0.002303	0.003384	0.003608	-0.998779	0.492188	-0.619385	-19.113904	-76.671566	-58.998735
49500		9.449051	-0.813036	2.285728	-0.002711	-0.002248	0.004238	-0.998535	0.487793	-0.617676	-19.121365	-76.672623	-58.990923
49501		9.422229	-0.791823	2.287591	-0.003715	-0.000523	0.003399	-1.004639	0.487549	-0.620850	-19.124905	-76.669438	-58.987604
49502		9.434401	-0.779928	2.317401	-0.001594	-0.000065	0.004378	-1.008301	0.491455	-0.627930	-19.130318	-76.669287	-58.981239
49503		9.422201	-0.792646	2.287422	-0.003441	-0.002073	0.002802	-1.004150	0.491455	-0.619873	-19.133413	-76.666972	-58.977951
49504		9.461255	-0.802310	2.314993	-0.001047	-0.003165	0.003185	-1.002197	0.490479	-0.624268	-19.138242	-76.668723	-58.971864
49505		9.414927	-0.776332	2.302983	-0.004719	0.001201	0.002561	-1.001953	0.489258	-0.628662	-19.139040	-76.664722	-58.971682
49506		9.454491	-0.781442	2.288592	-0.000043	-0.004890	0.004023	-1.002441	0.497803	-0.620850	-19.146574	-76.667249	-58.962223
49507		9.429082	-0.815675	2.312593	-0.002711	-0.002248	0.004237	-1.000488	0.483154	-0.623535	-19.152847	-76.664776	-58.954909
49508		9.467285	-0.765228	2.275917	-0.001391	-0.000633	0.000456	-1.003662	0.489258	-0.624512	-19.149634	-76.665669	-58.957290
49509		9.422311	-0.794669	2.286270	-0.002985	-0.000698	0.004834	-1.000732	0.489990	-0.625000	-19.155938	-76.662294	-58.951197
49510		9.454526	-0.782862	2.287963	-0.002324	0.000109	0.002943	-1.002686	0.492432	-0.620850	-19.158351	-76.662318	-58.948345
49511		9.427666	-0.761569	2.290056	-0.002598	0.001659	0.003540	-1.007324	0.479004	-0.624756	-19.159832	-76.657913	-58.946254
49512		9.422200	-0.795857	2.286313	-0.003715	-0.000524	0.003399	-1.001953	0.487305	-0.625244	-19.164583	-76.658194	-58.941819
49513		9.414878	-0.779182	2.302220	-0.003055	0.000284	0.001508	-1.007324	0.488037	-0.620605	-19.162408	-76.654924	-58.944857
49514		9.434866	-0.779682	2.274162	-0.001137	0.001309	0.006410	-1.000488	0.490234	-0.620850	-19.171096	-76.653647	-58.934856
49515		9.422127	-0.796886	2.286253	-0.003238	-0.002640	-0.001121	-1.004639	0.488037	-0.625244	-19.165667	-76.652495	-58.940453
49516		9.447087	-0.767824	2.303802	-0.002324	0.000109	0.002943	-0.999512	0.489014	-0.625488	-19.168077	-76.652519	-58.937604
49517		9.407563	-0.763375	2.317818	-0.003168	-0.003623	0.002205	-1.006836	0.487061	-0.620605	-19.170918	-76.651233	-58.934765
49518		9.449008	-0.819284	2.283673	-0.004446	-0.000349	0.001964	-0.999756	0.488525	-0.627197	-19.172674	-76.651689	-58.933838
49519		9.473955	-0.790294	2.301258	-0.002781	-0.001266	0.000911	-1.000977	0.488281	-0.624756	-19.170456	-76.649396	-58.936068
49520		9.447164	-0.768843	2.303147	-0.002051	-0.001441	0.002346	-1.004639	0.492188	-0.622314	-19.172576	-76.650371	-58.933355
49521		9.422244	-0.798200	2.285314	-0.003512	-0.001091	-0.000524	-1.005615	0.487793	-0.616699	-19.167489	-76.648259	-58.938555
49522		9.461762	-0.803287	2.271099	-0.001137	0.001308	0.006410	-0.995850	0.483398	-0.615967	-19.176172	-76.646982	-58.928559
49523		9.427647	-0.764944	2.289007	-0.003239	-0.002640	-0.001121	-1.003418	0.489258	-0.621826	-19.170722	-76.645967	-58.935116
49524		9.441743	-0.803661	2.298996	-0.002324	0.000109	0.002943	-1.008789	0.485596	-0.621582	-19.173131	-76.645991	-58.932267
49525		9.454474	-0.787153	2.286706	-0.002712	-0.002249	0.004236	-1.003174	0.495850	-0.621582	-19.179236	-76.643644	-58.925826
49526		9.441231	-0.809130	2.340671	-0.002712	-0.002249	0.004236	-1.009277	0.481445	-0.623535	-19.186684	-76.644701	-58.918027
49527		9.422272	-0.800178	2.284506	-0.004173	-0.001899	0.001367	-1.002197	0.492432	-0.618896	-19.186864	-76.642691	-58.918279
49528		9.479495	-0.759044	2.303727	-0.003442	-0.002074	0.002801	-1.005859	0.483154	-0.625488	-19.191322	-76.643923	-58.913984
49529		9.441833	-0.805395	2.298016	-0.002782	-0.001266	0.000911	-1.009521	0.486084	-0.619873	-19.189160	-76.641689	-58.916147
49530		9.415076	-0.783885	2.299812	-0.003899	-0.003449	0.000769	-1.013916	0.489014	-0.621094	-19.190338	-76.644047	-58.915492
49531		9.441897	-0.805916	2.297573	-0.000864	-0.000243	0.005813	-1.004150	0.494141	-0.627197	-19.197359	-76.640328	-58.906723
49532		9.447325	-0.772354	2.301311	-0.001391	-0.000633	0.000456	-1.000732	0.484131	-0.625488	-19.194153	-76.641221	-58.909097
49533		9.435143	-0.784880	2.271223	-0.002439	-0.003800	0.003639	-0.997803	0.485352	-0.615234	-19.200084	-76.639804	-58.902484
49534		9.427373	-0.772891	2.328910	-0.003442	-0.002074	0.002801	-1.003662	0.498291	-0.620850	-19.204542	-76.641035	-58.898189
49535		9.415133	-0.785449	2.299044	-0.001937	0.002466	0.001650	-1.004150	0.489014	-0.622803	-19.200929	-76.636731	-58.900858
49536		9.454625	-0.790479	2.284932	-0.002324	0.000108	0.002943	-1.000732	0.494873	-0.624023	-19.203337	-76.636755	-58.898011
49537		9.474112	-0.795445	2.298836	-0.003055	0.000284	0.001508	-1.009766	0.494141	-0.624023	-19.201661	-76.633575	-58.899163
49538		9.422833	-0.798643	2.241227	-0.002597	0.001658	0.003541	-1.005127	0.488525	-0.621094	-19.204356	-76.632648	-58.896181
49539		9.422248	-0.803755	2.283351	-0.003258	0.000849	0.005431	-1.008301	0.494873	-0.619141	-19.211203	-76.628429	-58.888650
49540		9.473961	-0.796702	2.299024	-0.002325	0.000108	0.002943	-1.003418	0.488037	-0.621338	-19.213609	-76.628453	-58.885805
49541		9.454429	-0.792180	2.285155	-0.002394	0.001093	-0.000382	-1.002930	0.482910	-0.619141	-19.206599	-76.625250	-58.892213
49542		9.420838	-0.748981	2.261218	-0.001664	0.000917	0.001053	-0.995605	0.493408	-0.629150	-19.203684	-76.625193	-58.894448
49543		9.441634	-0.809398	2.297429	-0.002325	0.000108	0.002943	-1.000000	0.490723	-0.631592	-19.204866	-76.621909	-58.893279
49544		9.467092	-0.775919	2.273097	-0.002325	0.000108	0.002943	-1.008301	0.494385	-0.621094	-19.207271	-76.621933	-58.890435
49545		9.454329	-0.793193	2.285215	-0.003716	-0.000525	0.003398	-1.003418	0.485107	-0.623047	-19.210897	-76.618846	-58.886411
49546		9.434298	-0.793460	2.313221	-0.002052	-0.001442	0.002345	-1.000977	0.489258	-0.616943	-19.213014	-76.619821	-58.883703
49547		9.467056	-0.776850	2.272929	0.000458	0.001374	0.002032	-0.999512	0.489502	-0.617920	-19.209524	-76.616091	-58.885887
49548		9.454257	-0.794140	2.285184	-0.003258	0.000848	0.005430	-1.007324	0.490967	-0.626953	-19.217531	-76.615246	-58.877834
49549		9.441509	-0.811442	2.297222	-0.001779	-0.002991	0.001748	-1.002441	0.490967	-0.619629	-19.218223	-76.613890	-58.876267
49550		9.427471	-0.773185	2.286961	-0.001594	-0.000068	0.004377	-1.001221	0.493652	-0.631348	-19.223609	-76.613739	-58.869929
49551		9.421466	-0.812223	2.325096	-0.004377	-0.001334	0.005288	-1.007080	0.486572	-0.620605	-19.232590	-76.610790	-58.861009
49552		9.474253	-0.795927	2.256607	-0.002325	0.000108	0.002943	-1.001709	0.496826	-0.613770	-19.234992	-76.610814	-58.858168
49553		9.441430	-0.813122	2.296952	-0.002598	0.001657	0.003540	-0.999023	0.490967	-0.622314	-19.236656	-76.606679	-58.855981
49554		9.427322	-0.774929	2.286988	-0.002598	0.001657	0.003540	-0.999512	0.489258	-0.617188	-19.239343	-76.605752	-58.853007
49555		9.454094	-0.796838	2.284920	0.001003	-0.001726	0.000837	-1.002197	0.491699	-0.624268	-19.235447	-76.603963	-58.854909
49556		9.434056	-0.796970	2.313002	-0.004719	0.001200	0.002561	-1.007324	0.487549	-0.625977	-19.237486	-76.603467	-58.853851
49557		9.480812	-0.819061	2.282961	-0.001206	0.002290	0.003085	-1.000977	0.492188	-0.617432	-19.236650	-76.598997	-58.853565
49558		9.434471	-0.792929	2.271220	-0.003055	0.000284	0.001508	-1.008545	0.480957	-0.621338	-19.236071	-76.599197	-58.854219
49559		9.453974	-0.797882	2.285051	-0.002052	-0.001442	0.002345	-1.004639	0.484131	-0.621338	-19.236974	-76.596982	-58.853363
49560		9.427186	-0.776435	2.287037	-0.003055	0.000284	0.001508	-0.999756	0.499023	-0.623779	-19.236395	-76.597181	-58.854016
49561		9.460731	-0.820018	2.310925	-0.003444	-0.002075	0.002800	-1.007813	0.483643	-0.626465	-19.239826	-76.595185	-58.850447
49562		9.434439	-0.794062	2.270959	-0.004992	0.002750	0.003158	-1.008057	0.486328	-0.622314	-19.242150	-76.593739	-58.849257
49563		9.441165	-0.815916	2.297049	0.001003	-0.001726	0.000837	-1.005615	0.487549	-0.616943	-19.237992	-76.591912	-58.851777
49564		9.446126	-0.786957	2.342739	-0.005108	-0.001159	0.003852	-1.003662	0.487793	-0.615234	-19.245052	-76.592449	-58.845787
49565		9.466166	-0.787343	2.314471	-0.002783	-0.001266	0.000910	-0.998535	0.493408	-0.614014	-19.243113	-76.590469	-58.848034
49566		9.434428	-0.795177	2.270613	-0.001595	-0.000070	0.004377	-0.990967	0.491699	-0.624023	-19.248487	-76.590318	-58.841707
49567		9.434418	-0.795536	2.270527	-0.002053	-0.001442	0.002344	-1.004150	0.488281	-0.623047	-19.249775	-76.588159	-58.839740
49568		9.453933	-0.800487	2.284313	-0.000661	-0.000810	0.001889	-1.011230	0.490967	-0.620605	-19.249557	-76.588878	-58.838613
49569		9.466186	-0.788398	2.314033	-0.000389	-0.002359	0.001292	-1.004883	0.484863	-0.626465	-19.247962	-76.587337	-58.838453
49570		9.414963	-0.791415	2.256206	-0.004447	-0.000349	0.001963	-1.007080	0.487549	-0.622314	-19.249714	-76.587793	-58.837530
49571		9.460720	-0.822869	2.309956	-0.005108	-0.001159	0.003852	-0.995605	0.489014	-0.622070	-19.255574	-76.585127	-58.833125
49572		9.427144	-0.780007	2.285995	-0.000476	0.002112	0.004520	-1.000000	0.484131	-0.617920	-19.258900	-76.583768	-58.828244
49573		9.434410	-0.797180	2.269983	-0.003241	-0.002638	-0.001123	-1.001465	0.491699	-0.631592	-19.253737	-76.582937	-58.834433
49574		9.446667	-0.785025	2.299722	-0.003055	0.000284	0.001508	-1.000000	0.485107	-0.623291	-19.253159	-76.583137	-58.835085
49575		9.414404	-0.797347	2.297937	-0.001392	-0.000633	0.000455	-1.007568	0.489990	-0.619629	-19.248911	-76.580829	-58.838597
49576		9.434428	-0.797556	2.269778	-0.003055	0.000284	0.001508	-0.999512	0.488037	-0.617676	-19.248333	-76.581029	-58.839250
49577		9.486159	-0.790288	2.285512	-0.004058	0.002010	0.000671	-1.007813	0.493408	-0.622314	-19.244099	-76.577344	-58.844198
49578		9.427102	-0.780982	2.285836	-0.002053	-0.001443	0.002344	-1.001221	0.489990	-0.618408	-19.246208	-76.578320	-58.841497
49579		9.434336	-0.798110	2.269964	0.000847	0.003731	0.000741	-0.999023	0.488037	-0.623535	-19.238030	-76.573667	-58.847105
49580		9.446510	-0.786060	2.300016	-0.002325	0.000107	0.002942	-0.993652	0.485596	-0.626953	-19.240424	-76.573692	-58.844272
49581		9.453755	-0.803263	2.284073	-0.001664	0.000916	0.001053	-0.992188	0.479492	-0.614258	-19.236492	-76.570518	-58.848147
49582		9.419676	-0.764735	2.302197	-0.001664	0.000916	0.001053	-1.007080	0.490967	-0.625977	-19.233586	-76.570461	-58.850373
49583		9.426925	-0.781878	2.286259	-0.003056	0.000284	0.001508	-1.003906	0.491455	-0.616943	-19.231954	-76.567597	-58.852814
49584		9.414168	-0.798867	2.298376	-0.002122	-0.000456	-0.000980	-1.001465	0.484131	-0.621582	-19.225791	-76.568666	-58.858660
49585		9.453718	-0.803772	2.284049	-0.002053	-0.001443	0.002344	-1.001465	0.491455	-0.622803	-19.226923	-76.566567	-58.857018
49586		9.446398	-0.787071	2.300131	-0.002208	0.004015	0.002249	-1.003174	0.489258	-0.615967	-19.224592	-76.564608	-58.858974
49587		9.446835	-0.782632	2.258396	-0.001936	0.002466	0.001651	-0.999268	0.487793	-0.614258	-19.221092	-76.560524	-58.861640
49588		9.406726	-0.782689	2.314773	0.002852	0.000279	0.002414	-1.009521	0.488525	-0.626953	-19.219186	-76.560556	-58.860178
49589		9.472973	-0.809181	2.298737	-0.003007	0.005179	-0.002509	-0.999756	0.485352	-0.613770	-19.204649	-76.555784	-58.875077
49590		9.446122	-0.787476	2.301123	-0.004058	0.002010	0.000671	-1.003174	0.483154	-0.625244	-19.201392	-76.555207	-58.879076
49591		9.439334	-0.765947	2.275227	-0.000272	0.001549	0.000598	-1.001953	0.489014	-0.620361	-19.195123	-76.551858	-58.884603
49592		9.421053	-0.816824	2.283642	-0.001664	0.000916	0.001053	-0.999023	0.490967	-0.620361	-19.192220	-76.551801	-58.886827
49593		9.453351	-0.804733	2.285226	-0.002239	-0.004364	-0.000287	-1.007324	0.489502	-0.620361	-19.189925	-76.551805	-58.888507
49594		9.426591	-0.783049	2.287235	-0.001275	0.003276	-0.000238	-1.006348	0.484375	-0.619873	-19.182021	-76.550714	-58.895644
49595		9.446061	-0.787824	2.301253	-0.001392	-0.000633	0.000455	-0.998779	0.490723	-0.625000	-19.177851	-76.548554	-58.898943
49596		9.433826	-0.800257	2.271331	-0.002326	0.000106	0.002942	-1.005127	0.493408	-0.620605	-19.180239	-76.548580	-58.896115
49597		9.438809	-0.771250	2.317017	-0.004633	-0.003271	-0.000669	-1.002686	0.487061	-0.630615	-19.177648	-76.548049	-58.899083
49598		9.438840	-0.771378	2.316846	-0.003056	0.000283	0.001507	-0.997314	0.491943	-0.626709	-19.177069	-76.548249	-58.899736
49599		9.453388	-0.805584	2.284774	-0.003445	-0.002076	0.002798	-1.010742	0.488281	-0.621338	-19.180573	-76.546388	-58.896147
49600		9.419380	-0.767253	2.302570	-0.001051	-0.003170	0.003180	-1.000000	0.494629	-0.622803	-19.185347	-76.548141	-58.890115
49601		9.466235	-0.789276	2.272065	-0.001781	-0.002992	0.001745	-0.996338	0.489502	-0.619141	-19.186306	-76.547023	-58.887732
49602		9.439497	-0.767811	2.273923	-0.002053	-0.001443	0.002343	-1.008301	0.488770	-0.620361	-19.188404	-76.548000	-58.885042
49603		9.453495	-0.806923	2.283859	-0.006043	-0.000422	0.006338	-1.000732	0.487549	-0.632080	-19.200142	-76.544686	-58.874731
49604		9.419434	-0.768780	2.301837	0.000068	-0.000988	0.003323	-1.003418	0.485352	-0.626221	-19.202883	-76.545232	-58.870131
49605		9.473532	-0.807801	2.255414	-0.003173	-0.003626	0.002199	-1.006836	0.491943	-0.624268	-19.205972	-76.544355	-58.867276
49606		9.438998	-0.774259	2.315243	-0.004379	-0.001338	0.005285	-1.000977	0.495850	-0.628662	-19.215974	-76.544719	-58.857831
49607		9.466318	-0.791718	2.270869	-0.003173	-0.003626	0.002199	-1.002441	0.490234	-0.625000	-19.219320	-76.543850	-58.853330
49608		9.414081	-0.804124	2.296897	-0.001051	-0.003170	0.003179	-1.004883	0.481445	-0.619385	-19.224098	-76.545603	-58.847295
49609		9.459113	-0.775493	2.286361	-0.005381	0.000389	0.004449	-1.004150	0.493896	-0.614258	-19.230419	-76.542228	-58.842756
49610		9.459121	-0.775965	2.286169	-0.002444	-0.003804	0.003633	-1.010986	0.494873	-0.627197	-19.237521	-76.544237	-58.835151
49611		9.459104	-0.776190	2.286160	0.000848	0.003731	0.000743	-1.001709	0.485596	-0.623535	-19.229510	-76.539730	-58.839852
49612		9.407304	-0.783734	2.270578	-0.004176	-0.001899	0.001363	-1.003906	0.488770	-0.611328	-19.230970	-76.541137	-58.839070
49613		9.473029	-0.815308	2.296341	-0.000747	0.003659	0.005119	-0.998291	0.493408	-0.622070	-19.233659	-76.535942	-58.835563
49614		9.412169	-0.755279	2.316687	-0.003056	0.000283	0.001507	-1.005859	0.488037	-0.619629	-19.233082	-76.536142	-58.836215
49615		9.433954	-0.806439	2.268609	-0.003446	-0.002077	0.002797	-1.001221	0.492432	-0.623535	-19.236675	-76.534444	-58.832534
49616		9.426690	-0.789874	2.284477	-0.001596	-0.000073	0.004376	-0.997314	0.482910	-0.616211	-19.242024	-76.534295	-58.826232
49617		9.446731	-0.790197	2.256199	-0.002512	-0.002815	0.000310	-1.013184	0.488281	-0.630859	-19.239988	-76.533513	-58.828589
49618		9.438988	-0.778114	2.313992	-0.002054	-0.001444	0.002343	-1.007324	0.490967	-0.621338	-19.242087	-76.534489	-58.825899
49619		9.459008	-0.778468	2.285786	-0.002326	0.000105	0.002942	-1.002197	0.483643	-0.618896	-19.243495	-76.531512	-58.823422
49620		9.426171	-0.795779	2.326069	-0.003259	0.000843	0.005429	-0.994629	0.489746	-0.623291	-19.251451	-76.530668	-58.815419
49621		9.439442	-0.774539	2.271871	-0.002784	-0.001266	0.000909	-0.999756	0.496338	-0.631348	-19.249674	-76.528952	-58.817870
49622		9.466219	-0.796465	2.269625	-0.002054	-0.001444	0.002343	-1.011719	0.489502	-0.628418	-19.251773	-76.529928	-58.815181
49623		9.439449	-0.775009	2.271679	-0.000934	0.000738	0.002487	-1.005859	0.494141	-0.620605	-19.250981	-76.526693	-58.813665
49624		9.419394	-0.775248	2.299833	-0.002326	0.000105	0.002942	-1.008057	0.489746	-0.631592	-19.253365	-76.526718	-58.810842
49625		9.466190	-0.797290	2.269454	-0.001783	-0.002993	0.001744	-1.003418	0.486328	-0.624023	-19.254305	-76.525702	-58.808382
49626		9.446138	-0.797470	2.297613	-0.002207	0.004014	0.002251	-1.007324	0.486084	-0.619141	-19.251979	-76.523744	-58.810332
49627		9.458318	-0.785571	2.327678	-0.002326	0.000105	0.002941	-0.998047	0.483643	-0.622314	-19.253387	-76.520916	-58.809097
49628		9.427095	-0.788573	2.241765	-0.004177	-0.001899	0.001363	-1.010986	0.491211	-0.619629	-19.254847	-76.522323	-58.808315
49629		9.466047	-0.798424	2.269651	0.000646	0.004290	0.004665	-1.004150	0.493408	-0.623779	-19.255204	-76.516919	-58.806153
49630		9.426473	-0.793872	2.283988	-0.004907	-0.001720	-0.000072	-1.005371	0.492188	-0.618164	-19.253706	-76.518501	-58.808844
49631		9.466005	-0.798811	2.269692	-0.001664	0.000916	0.001053	-1.001953	0.491943	-0.613281	-19.250061	-76.515595	-58.811166
49632		9.426460	-0.794205	2.283926	-0.004448	-0.000350	0.001961	-1.007080	0.496338	-0.622314	-19.251807	-76.516052	-58.810250
49633		9.458726	-0.782353	2.285623	-0.004448	-0.000350	0.001961	-1.001221	0.492676	-0.617676	-19.252871	-76.513696	-58.809308
49634		9.440967	-0.828562	2.251762	-0.003515	-0.001087	-0.000526	-1.004150	0.486572	-0.629150	-19.249052	-76.515021	-58.813564
49635		9.465948	-0.799518	2.269682	-0.001545	0.004825	0.000363	-1.000977	0.485840	-0.613525	-19.240618	-76.510149	-58.821435
49636		9.426340	-0.794910	2.284174	-0.004720	0.001199	0.002560	-1.002930	0.492188	-0.623047	-19.242649	-76.509654	-58.820385
49637		9.458580	-0.782956	2.286022	-0.002394	0.001094	-0.000381	-1.001709	0.486572	-0.627441	-19.236012	-76.507004	-58.827221
49638		9.453000	-0.817093	2.282294	-0.004262	0.002569	0.004593	-1.007813	0.489014	-0.624512	-19.241286	-76.505385	-58.822566
49639		9.418896	-0.778751	2.300690	-0.002937	0.004192	0.000817	-1.005615	0.490234	-0.622803	-19.235114	-76.500762	-58.829041
49640		9.438862	-0.778880	2.272795	-0.002394	0.001094	-0.000381	-1.004639	0.493408	-0.626221	-19.229266	-76.500879	-58.834724
49641		9.451082	-0.766776	2.302770	-0.001664	0.000916	0.001053	-1.002930	0.486084	-0.624756	-19.225606	-76.497996	-58.837173
49642		9.445489	-0.800837	2.299108	-0.002207	0.004013	0.002251	-1.000000	0.489258	-0.624023	-19.223290	-76.496037	-58.839113
49643		9.465441	-0.801189	2.271205	-0.004720	0.001198	0.002559	-1.002197	0.490234	-0.623047	-19.224462	-76.492758	-58.839343
49644		9.458170	-0.784449	2.287209	-0.001392	-0.000633	0.000454	-1.002197	0.480713	-0.619385	-19.221281	-76.493652	-58.841693
49645		9.439206	-0.775124	2.231226	-0.004449	-0.000350	0.001960	-1.008789	0.485840	-0.623047	-19.222135	-76.491371	-58.842541
49646		9.438635	-0.780098	2.273319	-0.001935	0.002464	0.001652	-1.004150	0.484619	-0.624756	-19.219532	-76.490363	-58.844616
49647		9.477581	-0.789819	2.301256	-0.001664	0.000916	0.001053	-1.006592	0.489258	-0.618896	-19.215699	-76.487539	-58.848324
49648		9.431294	-0.763462	2.289583	-0.004058	0.002010	0.000671	-1.004639	0.487793	-0.622070	-19.212461	-76.486961	-58.852302
49649		9.445739	-0.797541	2.257764	-0.001936	0.002464	0.001652	-1.002930	0.486572	-0.616211	-19.209058	-76.483223	-58.855228
49650		9.445132	-0.802381	2.300039	-0.001273	0.003276	-0.000236	-1.009277	0.486816	-0.620605	-19.201192	-76.482132	-58.862327
49651		9.445079	-0.802356	2.300266	-0.001001	0.001727	-0.000835	-1.000732	0.484619	-0.627197	-19.192210	-76.479298	-58.870808
49652		9.457808	-0.785520	2.288337	-0.001936	0.002464	0.001652	-1.012695	0.488037	-0.625977	-19.189611	-76.478290	-58.872880
49653		9.425436	-0.797845	2.286879	-0.000815	0.004646	0.001797	-1.005127	0.485840	-0.622559	-19.184089	-76.473301	-58.877463
49654		9.464876	-0.802799	2.272990	-0.002666	0.002643	0.000217	-1.007080	0.493164	-0.622070	-19.178543	-76.472466	-58.882996
49655		9.450249	-0.769029	2.305436	0.000306	0.006827	0.001943	-1.003174	0.488281	-0.623291	-19.171173	-76.466320	-58.888356
49656		9.425107	-0.798296	2.288077	-0.001936	0.002464	0.001652	-1.009521	0.487793	-0.628174	-19.168577	-76.465312	-58.890425
49657		9.424996	-0.798462	2.288479	-0.001816	0.006373	0.000962	-1.009521	0.491211	-0.618408	-19.160498	-76.459573	-58.897937
49658		9.469966	-0.769560	2.278488	-0.001664	0.000915	0.001052	-1.000488	0.496338	-0.628418	-19.157611	-76.459516	-58.900145
49659		9.444865	-0.798749	2.260994	-0.003939	0.005919	-0.000019	-1.012207	0.482422	-0.623047	-19.149141	-76.454231	-58.908291
49660		9.436953	-0.786688	2.319386	-0.001936	0.002464	0.001652	-0.996338	0.491699	-0.619141	-19.146548	-76.453223	-58.910356
49661		9.437384	-0.782289	2.277756	0.000372	0.005835	0.005265	-1.010254	0.493896	-0.626221	-19.147350	-76.447057	-58.907999
49662		9.463462	-0.809087	2.318028	-0.004058	0.002010	0.000670	-1.004639	0.485352	-0.617188	-19.144126	-76.446479	-58.911966
49663		9.423845	-0.804475	2.332494	-0.002208	0.004012	0.002251	-1.007080	0.488770	-0.622559	-19.141121	-76.441843	-58.914255
49664		9.424242	-0.799980	2.291053	0.000034	0.008375	0.002542	-1.009277	0.491699	-0.620361	-19.134798	-76.437469	-58.918997
49665		9.449103	-0.771100	2.309440	-0.002937	0.004191	0.000816	-0.999023	0.489014	-0.630371	-19.128885	-76.433009	-58.924558
49666		9.470188	-0.826829	2.303924	-0.001816	0.006372	0.000962	-0.994141	0.488770	-0.620850	-19.121642	-76.430015	-58.931337
49667		9.436644	-0.783448	2.280422	-0.003395	0.002822	-0.001218	-1.000488	0.492676	-0.623779	-19.112531	-76.426698	-58.941298
49668		9.431088	-0.817213	2.276657	-0.005245	0.000820	-0.002799	-1.008301	0.495605	-0.617188	-19.103140	-76.427415	-58.952308
49669		9.436556	-0.783185	2.280876	0.000511	0.006269	-0.001978	-1.003418	0.485352	-0.623291	-19.087599	-76.422387	-58.965135
49670		9.429157	-0.765992	2.297524	-0.002612	0.007542	-0.003795	-1.006836	0.491211	-0.621582	-19.069256	-76.419648	-58.983802
49671		9.442964	-0.804299	2.308257	-0.001220	0.008175	-0.004248	-1.004639	0.484131	-0.629395	-19.047919	-76.414020	-59.004843
49672		9.468399	-0.770040	2.284830	-0.001949	0.008354	-0.005683	-1.006348	0.484131	-0.617188	-19.024358	-76.411191	-59.028488
49673		9.442614	-0.803363	2.310012	0.000292	0.012716	-0.005391	-1.008057	0.497070	-0.625000	-18.995976	-76.403329	-59.056743
49674		9.455778	-0.781318	2.256924	-0.002885	0.009089	-0.003197	-1.010010	0.492188	-0.623535	-18.977983	-76.399634	-59.075214
49675		9.455506	-0.781036	2.258161	-0.000525	0.017359	-0.003594	-1.001709	0.485840	-0.619629	-18.950932	-76.388858	-59.099845
49676		9.454593	-0.785475	2.301597	-0.002766	0.012997	-0.003887	-1.001953	0.491943	-0.620605	-18.928359	-76.383170	-59.122959
49677		9.434153	-0.785197	2.331250	-0.001071	0.020454	-0.002397	-1.002930	0.493652	-0.625244	-18.901916	-76.370615	-59.149318
49678		9.466595	-0.768034	2.292967	0.000593	0.019538	-0.003449	-1.004395	0.488281	-0.624512	-18.873451	-76.361294	-59.176515
49679		9.466135	-0.767854	2.294924	-0.000617	0.021820	-0.000365	-0.995850	0.486084	-0.623535	-18.850337	-76.347550	-59.198298
49680		9.452803	-0.784804	2.309166	0.001231	0.023821	0.001216	-1.002197	0.481689	-0.622559	-18.828738	-76.335039	-59.218058
49681		9.484448	-0.773066	2.313459	0.001203	0.027292	0.007768	-1.000488	0.490967	-0.623535	-18.818451	-76.316911	-59.227668
49682		9.471467	-0.785795	2.286708	0.002950	0.039643	0.005243	-0.999512	0.486572	-0.622314	-18.792919	-76.295072	-59.250465
49683		9.462462	-0.774367	2.348680	0.005039	0.043565	0.012776	-0.996338	0.492920	-0.621826	-18.779519	-76.267183	-59.259724
49684		9.462000	-0.770649	2.310983	0.003033	0.047012	0.011097	-1.004639	0.491211	-0.622559	-18.761509	-76.240264	-59.274732
49685		9.455274	-0.805502	2.311670	0.006269	0.049640	0.012224	-0.997070	0.486816	-0.618164	-18.741842	-76.209190	-59.288966
49686		9.432757	-0.751234	2.322379	0.005111	0.050925	0.018624	-0.990723	0.490479	-0.618896	-18.736456	-76.178760	-59.289753
49687		9.445302	-0.791766	2.337314	0.005618	0.051295	0.023974	-0.998047	0.492432	-0.625000	-18.741876	-76.144734	-59.280032
49688		9.442919	-0.738570	2.319920	0.005278	0.047940	0.028581	-1.003906	0.489746	-0.631104	-18.760477	-76.114090	-59.256012
49689		9.423133	-0.792015	2.332733	0.005451	0.050845	0.031205	-1.001953	0.491699	-0.623291	-18.781934	-76.078830	-59.228382
49690		9.473389	-0.787640	2.353509	0.007169	0.048932	0.033475	-1.006104	0.490234	-0.615479	-18.809199	-76.046740	-59.194313
49691		9.432276	-0.785768	2.372424	0.009129	0.054823	0.034358	-0.998291	0.495117	-0.623779	-18.832254	-76.008855	-59.163244
49692		9.465615	-0.822836	2.317897	0.004337	0.057003	0.033566	-0.989746	0.492432	-0.628662	-18.855068	-75.972365	-59.135424
49693		9.450095	-0.847382	2.377780	0.011873	0.065412	0.032651	-0.992188	0.490479	-0.621094	-18.864856	-75.929012	-59.116181
49694		9.454776	-0.811424	2.346059	0.013208	0.067020	0.028871	-0.991943	0.492676	-0.624023	-18.864836	-75.887959	-59.106653
49695		9.380093	-0.825531	2.406164	0.010635	0.065193	0.025840	-0.998535	0.492188	-0.624756	-18.860678	-75.846071	-59.103478
49696		9.384070	-0.793809	2.415682	0.009089	0.052298	0.024453	-0.990723	0.485107	-0.628906	-18.864286	-75.813817	-59.092639
49697		9.410374	-0.813064	2.376585	0.009956	0.046666	0.025988	-0.993408	0.489990	-0.623779	-18.874158	-75.781904	-59.075680
49698		9.448812	-0.820010	2.367008	0.009610	0.040842	0.020733	-0.997559	0.484863	-0.628174	-18.877812	-75.756550	-59.064483
49699		9.454016	-0.843207	2.397062	0.011231	0.040911	0.016367	-0.993896	0.483398	-0.635010	-18.870502	-75.729569	-59.064680
49700		9.520187	-0.866744	2.344014	0.012367	0.051430	0.019027	-0.991943	0.488281	-0.626953	-18.861214	-75.698791	-59.065205
49701		9.681672	-0.918838	2.404469	0.013625	0.055019	0.008607	-0.991699	0.485596	-0.632813	-18.825821	-75.665565	-59.093119
49702		9.669039	-0.926327	2.339890	0.024956	0.095841	0.001207	-0.996826	0.491455	-0.625977	-18.739737	-75.613985	-59.165472
49703		9.640558	-0.958844	2.374259	0.032608	0.114971	-0.011085	-0.991211	0.493652	-0.621338	-18.609850	-75.551842	-59.279014
49704		9.711588	-0.999898	2.355729	0.037506	0.138697	-0.029848	-0.991211	0.486084	-0.627441	-18.422615	-75.482545	-59.448452
49705		10.286003	-1.349865	2.349715	0.047508	0.176730	-0.090313	-0.990234	0.485352	-0.631592	-18.078651	-75.400904	-59.774337
49706		10.634156	-1.530266	2.376938	0.076381	0.262162	-0.232503	-0.985596	0.483398	-0.631348	-17.369303	-75.298992	-60.460537
49707		14.469775	-1.263115	2.798035	0.078867	0.333072	-0.267279	-0.989014	0.490967	-0.629639	-16.552462	-75.159418	-61.257588
49708		21.775208	-1.761280	2.319286	0.076358	0.855759	-0.075439	-0.978760	0.479736	-0.645508	-15.841386	-74.701202	-61.946921
49709		16.851572	-1.957892	2.444091	0.094622	1.398651	-0.009696	-0.976074	0.488770	-0.644531	-15.005062	-73.928694	-62.757388
49710		15.950766	-1.463064	2.536776	0.164985	1.580906	0.154837	-0.951904	0.480469	-0.645996	-14.419302	-73.030625	-63.267987
49711		17.689783	-1.268929	2.517444	0.187866	1.831708	0.373396	-0.940430	0.475830	-0.654297	-14.144745	-71.959550	-63.441380
49712		17.912261	-1.758659	2.343649	0.225951	2.109471	0.652123	-0.920166	0.477783	-0.655273	-14.206835	-70.696766	-63.237407
49713		17.129969	-1.940632	2.294371	0.297972	2.345232	1.004070	-0.898438	0.473389	-0.658936	-14.643381	-69.251177	-62.589406
49714		16.648206	-2.171681	2.722543	0.331828	2.511449	1.348639	-0.870605	0.475098	-0.672607	-15.395073	-67.661646	-61.575119
49715		14.501664	-3.032369	3.045731	0.355411	2.598111	1.718068	-0.854248	0.483643	-0.684082	-16.445743	-65.959560	-60.209039
49716		11.385956	-4.293020	1.162561	0.494245	2.515806	2.095487	-0.820557	0.481201	-0.686523	-17.718861	-64.229445	-58.491494
49717		10.025059	-2.184988	2.085274	0.620821	2.256651	2.004918	-0.798096	0.471191	-0.693359	-18.735240	-62.641812	-56.956051
49718		3.976624	0.225794	-0.367271	0.618064	1.962578	1.737614	-0.776611	0.470947	-0.696777	-19.452996	-61.254094	-55.739642
49719		2.032061	0.521171	-1.268082	0.603647	1.336065	1.195712	-0.756104	0.461182	-0.711914	-19.799843	-60.303116	-54.944437
49720		5.296954	0.006421	-1.955796	0.594352	0.881510	0.617536	-0.745117	0.464844	-0.708984	-19.736953	-59.708789	-54.621902
49721		4.187347	-1.053259	-0.709730	0.672582	0.776823	0.175604	-0.741455	0.451660	-0.719727	-19.259314	-59.256289	-54.727554
49722		2.586593	-0.410623	-1.477686	0.713053	0.192499	-0.075403	-0.747559	0.444824	-0.725586	-18.718744	-59.166689	-54.879264
49723		3.963528	-1.159798	-1.602425	0.722662	-0.279167	-0.105236	-0.741211	0.436035	-0.729248	-18.293039	-59.338489	-54.891448
49724		6.048666	-1.427096	-1.382680	0.807507	-0.516572	-0.121963	-0.740479	0.435059	-0.719971	-17.870267	-59.642153	-54.843175
49725		6.553502	-1.105130	-1.103678	0.897785	-0.548995	-0.123685	-0.754639	0.417236	-0.731689	-17.403169	-59.964836	-54.787207
49726		5.816969	-0.618940	-1.063372	0.970953	-0.549204	-0.150845	-0.750732	0.409424	-0.725586	-16.861118	-60.291607	-54.768804
49727		5.213445	-0.193349	-1.176928	1.007082	-0.591243	-0.199663	-0.762207	0.403076	-0.730957	-16.260869	-60.650865	-54.794334
49728		4.946347	0.072069	-1.285565	1.010105	-0.677127	-0.247487	-0.771729	0.388428	-0.735596	-15.625319	-61.063439	-54.857428
49729		4.936676	0.409100	-1.274479	0.984631	-0.780469	-0.293072	-0.772705	0.386475	-0.744873	-14.980881	-61.541483	-54.947805
49730		5.362615	0.815111	-1.104702	0.935549	-0.853929	-0.363516	-0.783203	0.371338	-0.744873	-14.296101	-62.068064	-55.114654
49731		6.171175	1.137539	-0.806895	0.843357	-0.858507	-0.453164	-0.794678	0.361816	-0.750000	-13.557832	-62.610861	-55.401444
49732		6.591057	1.305753	-0.523379	0.719015	-0.804116	-0.537043	-0.795410	0.355469	-0.752930	-12.762214	-63.130082	-55.830614
49733		6.478430	1.290837	-0.474053	0.574099	-0.767334	-0.540353	-0.807617	0.353516	-0.751953	-12.017643	-63.629290	-56.294269
49734		6.268874	1.262262	-0.369458	0.397821	-0.792024	-0.478874	-0.817627	0.346436	-0.749023	-11.426121	-64.129881	-56.697322
49735		6.031999	1.181166	-0.309698	0.198539	-0.889947	-0.368994	-0.823242	0.337158	-0.752441	-11.086315	-64.675051	-56.946632
49736		5.853981	1.184654	-0.317413	-0.016499	-1.053080	-0.237159	-0.826172	0.334473	-0.756104	-11.054447	-65.293787	-56.990362
49737		5.653272	1.169495	-0.276111	-0.242489	-1.261430	-0.124352	-0.843750	0.326660	-0.756348	-11.347874	-66.020796	-56.819404
49738		5.751632	1.051164	-0.165520	-0.471209	-1.489085	-0.060214	-0.847168	0.339355	-0.756104	-11.931198	-66.863909	-56.475743
49739		6.356485	0.822598	0.004831	-0.680000	-1.702112	-0.028680	-0.866455	0.344482	-0.756592	-12.780758	-67.824613	-55.975940
49740		7.083781	0.515506	0.290326	-0.875277	-1.853519	-0.040765	-0.885986	0.352051	-0.762939	-13.836597	-68.864008	-55.377720
49741		7.786303	0.143869	0.562052	-1.037347	-1.938334	-0.120248	-0.897705	0.358154	-0.762451	-14.987656	-69.961651	-54.781665
49742		8.412468	-0.153485	0.910477	-1.161917	-1.978319	-0.240597	-0.922852	0.355713	-0.761230	-16.133388	-71.091162	-54.270790
49743		8.873662	-0.340793	1.463383	-1.277980	-1.964661	-0.372130	-0.936035	0.357178	-0.762451	-17.222753	-72.235775	-53.893180
49744		9.402035	-0.506241	2.069090	-1.394511	-1.917891	-0.479939	-0.956055	0.367920	-0.763672	-18.252501	-73.366791	-53.649895
49745		9.917240	-0.714330	2.935468	-1.502331	-1.830238	-0.554511	-0.980713	0.386475	-0.757080	-19.237352	-74.467134	-53.519368
49746		10.147208	-0.783719	4.006746	-1.614887	-1.716729	-0.601460	-0.998291	0.381592	-0.757813	-20.184904	-75.509977	-53.494565
49747		11.087373	-1.232512	5.398601	-1.704969	-1.569870	-0.502544	-1.020508	0.395752	-0.748535	-21.359856	-76.458196	-53.288980
49748		11.433165	-2.398981	7.144203	-1.724110	-1.378175	-0.421055	-1.041748	0.404541	-0.759766	-22.651796	-77.281374	-52.975006
49749		11.877844	-3.071132	9.068425	-1.651949	-1.133065	-0.454945	-1.051514	0.414795	-0.762451	-23.668245	-77.985363	-52.901911
49750		12.115735	-3.950851	10.888082	-1.526984	-0.834988	-0.506078	-1.064941	0.418213	-0.765381	-24.195764	-78.540977	-53.254981
49751		12.079109	-4.735729	12.291036	-1.358294	-0.524380	-0.516111	-1.078857	0.427246	-0.765625	-24.236097	-78.939828	-54.005823
49752		20.524156	-7.669376	27.409678	-0.958943	2.417588	-0.386048	-1.060303	0.427246	-0.783691	-21.196883	-77.747618	-57.668087
49753		19.582574	-12.991533	38.980390	-0.558895	3.056831	0.278365	-1.044189	0.436279	-0.785645	-19.535927	-76.051143	-59.700345
49754		-15.617876	0.888952	20.221420	-0.221861	-0.416225	-0.473628	-1.050293	0.429199	-0.785400	-18.933865	-76.366354	-60.449424
49755		4.986277	-1.365062	4.460071	0.115078	-0.029198	-0.087964	-1.050537	0.425537	-0.786133	-18.686838	-76.395899	-60.634000
49756		12.325606	-2.885796	2.319463	-0.031280	-0.182079	-0.168098	-1.052979	0.425049	-0.788086	-18.458088	-76.526094	-60.885981
49757		14.475847	0.221459	-0.393683	-0.039596	-0.155635	-0.093520	-1.057617	0.427979	-0.786621	-18.379921	-76.624902	-60.987937
49758		9.598996	-0.349833	2.456168	0.074570	0.220042	0.156522	-1.051270	0.427002	-0.792236	-18.520539	-76.477551	-60.797684
49759		8.779224	-0.928561	2.641290	0.046797	0.169426	0.167868	-1.052246	0.416748	-0.791748	-18.736506	-76.352398	-60.546172
49760		9.315398	-0.892842	2.340641	0.002724	0.081426	0.070366	-1.053955	0.425049	-0.792236	-18.824620	-76.295879	-60.452139
49761		9.644556	-0.776275	2.229797	0.004190	0.106221	0.057343	-1.045166	0.425781	-0.785889	-18.862970	-76.225222	-60.408441
49762		8.475109	-0.889275	2.586019	0.007200	0.078570	0.038032	-1.046143	0.430664	-0.787109	-18.878087	-76.176208	-60.386882
49763		9.158685	-0.708913	2.385971	-0.000348	0.004742	0.030979	-1.053223	0.431885	-0.791748	-18.936921	-76.165447	-60.324749
49764		9.553495	-0.952068	2.261937	0.001890	0.009106	0.031330	-1.047607	0.432861	-0.787598	-18.992453	-76.155312	-60.264697
49765		9.399900	-0.902149	2.324243	0.009412	0.018814	0.003466	-1.044434	0.431641	-0.791992	-18.974462	-76.142060	-60.275924
49766		9.370804	-0.829866	2.349157	0.008164	0.010348	-0.005967	-1.046143	0.432373	-0.784180	-18.943465	-76.138197	-60.301289
49767		9.488415	-0.786113	2.287236	0.009781	0.010481	-0.010331	-1.050537	0.421631	-0.786865	-18.901338	-76.132044	-60.337159
49768		9.500177	-0.773486	2.318851	0.012470	0.016194	-0.007927	-1.042969	0.427979	-0.786621	-18.859226	-76.125367	-60.371433
49769		9.415120	-0.797629	2.343859	0.012977	0.016516	-0.002562	-1.045898	0.429443	-0.791016	-18.827861	-76.114526	-60.394333
49770		9.427526	-0.780035	2.334095	0.012870	0.020938	0.000713	-1.045410	0.426514	-0.786865	-18.801002	-76.103670	-60.412661
49771		9.451936	-0.751133	2.354446	0.008114	0.013742	0.000620	-1.045410	0.432373	-0.785400	-18.781536	-76.093767	-60.426176
49772		9.444113	-0.734750	2.372330	0.005660	0.018222	0.006819	-1.051758	0.430420	-0.796631	-18.774258	-76.083255	-60.428588
49773		9.451048	-0.751977	2.357738	0.001189	0.017823	0.008739	-1.049561	0.433350	-0.789795	-18.773493	-76.069666	-60.426925
49774		9.405464	-0.782366	2.368693	-0.006357	0.017671	0.012143	-1.037842	0.426270	-0.792725	-18.785151	-76.058471	-60.416921
49775		9.405849	-0.777857	2.328424	-0.007812	0.018049	0.009264	-1.052246	0.422607	-0.790039	-18.790487	-76.044686	-60.414283
49776		9.451513	-0.805505	2.341806	-0.006023	0.021065	0.007565	-1.045166	0.425049	-0.792969	-18.789419	-76.032495	-60.417195
49777		9.424160	-0.784678	2.346099	-0.002222	0.020627	0.007520	-1.041748	0.427246	-0.793457	-18.785835	-76.017661	-60.420448
49778		9.418281	-0.819036	2.342975	-0.005358	0.013568	0.003064	-1.050781	0.428711	-0.791504	-18.780148	-76.010366	-60.427728
49779		9.450220	-0.807267	2.346413	-0.000274	0.009867	0.003236	-1.049072	0.430176	-0.789307	-18.774105	-76.002183	-60.432364
49780		9.423172	-0.786014	2.349619	-0.003070	0.008577	0.004106	-1.049316	0.424316	-0.786133	-18.773078	-75.997404	-60.433490
49781		9.430431	-0.803200	2.333783	-0.002851	0.002106	0.007459	-1.036865	0.424561	-0.794922	-18.783439	-75.992677	-60.422742
49782		9.396060	-0.765702	2.352777	-0.004861	0.005560	0.005804	-1.036865	0.429688	-0.790771	-18.789357	-75.989221	-60.417768
49783		9.422705	-0.788069	2.350802	-0.005254	0.003188	0.007066	-1.045654	0.426270	-0.790771	-18.799426	-75.984004	-60.408739
49784		9.461358	-0.798980	2.378823	-0.006095	-0.000531	0.006277	-1.039063	0.423096	-0.789795	-18.811580	-75.983763	-60.398067
49785		9.397813	-0.818133	2.331961	-0.006265	-0.003414	0.003614	-1.048096	0.430664	-0.785645	-18.819602	-75.982786	-60.391743
49786		9.396914	-0.824212	2.373586	-0.002070	-0.001480	0.002309	-1.046875	0.428711	-0.796631	-18.821531	-75.983793	-60.389233
49787		9.405271	-0.835065	2.315388	-0.002457	0.002108	-0.003706	-1.038330	0.434570	-0.793701	-18.807394	-75.981195	-60.403500
49788		9.442062	-0.794519	2.364360	0.000503	-0.002048	-0.004537	-1.043701	0.430664	-0.794678	-18.793392	-75.983774	-60.415890
49789		9.455009	-0.776735	2.352660	-0.001955	0.000060	-0.008243	-1.048340	0.434326	-0.798828	-18.770636	-75.983145	-60.438745
49790		9.422797	-0.788479	2.350299	-0.004528	0.000628	-0.001397	-1.043457	0.427246	-0.795898	-18.764360	-75.983692	-60.446142
49791		9.430213	-0.805043	2.334030	-0.002403	0.001082	-0.000392	-1.047363	0.428223	-0.793457	-18.758164	-75.981082	-60.452193
49792		9.449555	-0.809945	2.348166	-0.001059	0.002753	-0.004141	-1.045654	0.424316	-0.789795	-18.742370	-75.980981	-60.467353
49793		9.417260	-0.821796	2.346112	-0.000612	0.004099	-0.002089	-1.050781	0.438232	-0.793701	-18.729250	-75.977069	-60.479482
49794		9.435513	-0.770614	2.339548	-0.000333	0.002562	-0.002702	-1.045410	0.432129	-0.797363	-18.716313	-75.976805	-60.491269
49795		9.422611	-0.787462	2.351384	0.002742	0.002316	-0.004183	-1.042725	0.431641	-0.802734	-18.698048	-75.974266	-60.506721
49796		9.440991	-0.797923	2.407555	-0.000612	0.004099	-0.002090	-1.044189	0.430664	-0.785156	-18.685473	-75.973054	-60.518299
49797		9.437279	-0.820126	2.319711	0.005876	0.009372	0.000274	-1.037598	0.421143	-0.787109	-18.669920	-75.965883	-60.529106
49798		9.441582	-0.791898	2.367153	0.004030	0.007380	-0.001343	-1.048584	0.424316	-0.788330	-18.653911	-75.962751	-60.541483
49799		9.390764	-0.792972	2.309643	0.003304	0.007570	-0.002783	-1.043945	0.426514	-0.788574	-18.634547	-75.957138	-60.557738
49800		9.460619	-0.796368	2.382636	0.005428	0.008025	-0.001778	-1.042480	0.432373	-0.781982	-18.616337	-75.953734	-60.571558
49801		9.441066	-0.791083	2.369483	0.008278	0.008289	0.000666	-1.045410	0.422363	-0.791748	-18.601109	-75.947119	-60.580613
49802		9.421459	-0.785850	2.356534	0.008392	0.012197	0.000014	-1.050293	0.422607	-0.801270	-18.582064	-75.941120	-60.593544
49803		9.453471	-0.773510	2.359893	0.004029	0.007379	-0.001344	-1.045654	0.428223	-0.795654	-18.565596	-75.935383	-60.606387
49804		9.420992	-0.785657	2.358463	0.006767	0.012063	0.004374	-1.040771	0.424561	-0.787109	-18.557052	-75.928660	-60.609452
49805		9.472205	-0.778858	2.376281	0.011128	0.016880	0.005732	-1.047852	0.430420	-0.789307	-18.544955	-75.916491	-60.613596
49806		9.439528	-0.791301	2.375532	0.009730	0.016234	0.006166	-1.048096	0.422607	-0.786621	-18.535579	-75.907176	-60.615770
49807		9.466803	-0.807686	2.333239	0.007886	0.022569	0.007169	-1.040771	0.427490	-0.797852	-18.524342	-75.891673	-60.620942
49808		9.502795	-0.768137	2.384793	0.011015	0.029622	0.011622	-1.041992	0.426758	-0.797119	-18.516345	-75.874090	-60.620935
49809		9.530689	-0.840837	2.364969	0.015156	0.040902	0.009621	-1.042969	0.420898	-0.793213	-18.493036	-75.848202	-60.634262
49810		9.503772	-0.813987	2.329819	0.014377	0.050435	0.007479	-1.052002	0.427490	-0.796631	-18.459275	-75.820061	-60.658840
49811		9.462797	-0.809618	2.348769	0.011590	0.055094	0.001059	-1.047607	0.426270	-0.793457	-18.409645	-75.788027	-60.701427
49812		9.512908	-0.802317	2.371172	0.014049	0.067255	0.000094	-1.039795	0.427002	-0.788574	-18.348556	-75.752065	-60.754400
49813		9.549846	-0.811929	2.406182	0.012823	0.075432	-0.004107	-1.040771	0.427246	-0.793213	-18.273276	-75.709898	-60.822741
49814		9.482593	-0.779348	2.387838	0.008798	0.082318	-0.007447	-1.039307	0.432861	-0.791016	-18.189193	-75.667057	-60.902568
49815		9.467704	-0.795711	2.407370	0.006826	0.084730	-0.005810	-1.040039	0.427734	-0.788574	-18.108133	-75.620103	-60.980450
49816		9.497851	-0.782771	2.418364	0.000397	0.092691	-0.009560	-1.040283	0.428223	-0.794678	-18.018215	-75.571930	-61.071304
49817		9.416089	-0.772925	2.454595	-0.000903	0.095929	-0.009803	-1.046143	0.422363	-0.792725	-17.926557	-75.519538	-61.164740
49818		9.448269	-0.810455	2.444965	-0.002103	0.088810	-0.006020	-1.037842	0.429688	-0.793457	-17.849374	-75.472788	-61.243958
49819		9.523416	-0.957865	2.421915	-0.007928	0.098284	-0.031504	-1.042969	0.427002	-0.796631	-17.715850	-75.422847	-61.384850
49820		9.939245	-0.931181	2.419275	-0.002082	0.092007	-0.039770	-1.034912	0.430908	-0.794922	-17.567063	-75.380128	-61.538084
49821		10.878286	-1.613973	2.258141	0.006286	0.180967	-0.087078	-1.037598	0.423828	-0.796631	-17.257485	-75.294306	-61.852615
49822		12.077768	-2.296193	2.179179	0.039015	0.340300	-0.262396	-1.033936	0.423340	-0.797852	-16.469999	-75.151922	-62.642166
49823		13.638419	-2.161481	2.468044	0.107786	0.590614	-0.550508	-1.026855	0.423340	-0.800293	-14.925457	-74.909679	-64.175325
49824		24.675038	-1.449818	2.942693	0.130783	0.817440	-0.357591	-1.026123	0.420654	-0.800781	-13.695747	-74.507032	-65.370720
49825		27.431885	0.565237	3.195238	0.068756	1.793729	0.033137	-1.010254	0.411865	-0.812500	-12.892657	-73.500845	-66.163479
49826		18.624133	-0.111578	2.300565	0.035222	2.307572	0.426844	-0.987305	0.427246	-0.810791	-12.692025	-72.157899	-66.350562
49827		19.613681	0.079614	2.118606	0.048318	2.576364	0.694098	-0.961670	0.427002	-0.812012	-12.843683	-70.629155	-66.159638
49828		21.111290	-0.595040	1.565112	0.067951	3.043791	0.860400	-0.935547	0.438477	-0.814453	-13.043542	-68.819611	-65.903296
49829		21.101789	-1.465332	0.917748	0.128153	3.578498	0.918084	-0.896240	0.427734	-0.822266	-13.086346	-66.702783	-65.775988
49830		20.891657	-2.214093	0.426919	0.237164	4.115724	1.000545	-0.865479	0.432373	-0.830322	-13.004071	-64.276642	-65.715199
49831		20.457473	-1.979954	0.906693	0.326692	4.615218	1.081640	-0.816162	0.432617	-0.822266	-12.839101	-61.560830	-65.688498
49832		18.982677	-2.668467	1.661865	0.365070	4.969007	1.352605	-0.771484	0.438232	-0.829834	-12.840210	-58.613294	-65.443976
49833		15.827778	-2.632014	2.721991	0.390358	5.046155	1.697711	-0.719482	0.432617	-0.826660	-13.077637	-55.578514	-64.893269
49834		13.108485	-1.938098	4.218429	0.383412	4.774188	1.951752	-0.677246	0.425537	-0.827881	-13.490657	-52.659823	-64.110497
49835		12.633603	-4.301995	3.621952	0.446856	4.482510	2.203991	-0.625488	0.441162	-0.822510	-14.001514	-49.866446	-63.126009
49836		12.137201	-4.503227	3.248447	0.647736	4.161585	2.330119	-0.578369	0.429199	-0.824219	-14.429975	-47.227655	-62.057127
49837		14.287777	-4.080942	1.617415	0.840106	4.082296	2.313931	-0.546387	0.432129	-0.812256	-14.666537	-44.632535	-61.056869
49838		12.805295	-3.118306	-0.362765	1.030232	4.145874	2.375099	-0.495850	0.421875	-0.809814	-14.746043	-41.989972	-60.078091
49839		3.700089	-2.694753	-2.215645	1.187794	3.965599	2.297957	-0.455811	0.411377	-0.801514	-14.665050	-39.460875	-59.158470
49840		-2.033835	-3.156124	-4.471077	1.371645	3.423809	1.880420	-0.435303	0.387207	-0.791748	-14.314043	-37.292546	-58.455219
49841		-6.682622	-3.914122	-8.594493	1.677404	2.611759	1.258621	-0.401367	0.381348	-0.788330	-13.603818	-35.669473	-58.033225
49842		-8.015125	-0.781157	-3.412444	1.943932	1.565384	0.716452	-0.397461	0.360107	-0.791016	-12.626009	-34.703374	-57.794264
49843		-0.931937	0.409849	-2.345572	1.916940	0.329444	0.427613	-0.383789	0.341797	-0.790771	-11.666299	-34.470115	-57.550786
49844		1.509810	0.037473	-3.408969	1.869059	-0.364598	0.311369	-0.398926	0.330078	-0.798096	-10.741505	-34.640871	-57.290222
49845		2.005208	0.470179	-3.588957	1.822767	-0.830428	0.122682	-0.407715	0.313721	-0.803711	-9.805363	-35.099534	-57.101693
49846		3.539580	0.658833	-3.027449	1.751949	-1.056446	-0.031299	-0.411377	0.294922	-0.805176	-8.856319	-35.700195	-57.004243
49847		4.847883	1.197860	-2.261820	1.640242	-1.117868	-0.120046	-0.432373	0.278564	-0.811035	-7.935958	-36.347372	-56.971908
49848		4.298867	1.670453	-2.049278	1.473044	-1.130493	-0.139949	-0.443848	0.266113	-0.820801	-7.093383	-37.000453	-56.966684
49849		3.122636	1.955641	-2.157852	1.261956	-1.212011	-0.172027	-0.454590	0.258301	-0.822754	-6.358437	-37.705732	-56.986745
49850		2.544329	2.259442	-2.173246	1.029860	-1.384794	-0.243453	-0.474365	0.245605	-0.828369	-5.722546	-38.509843	-57.058238
49851		2.522696	2.492798	-2.163823	0.764024	-1.607255	-0.285267	-0.494873	0.245117	-0.831299	-5.224675	-39.446644	-57.153905
49852		2.753299	2.317545	-2.088300	0.484575	-1.861187	-0.304695	-0.523926	0.241211	-0.832275	-4.877353	-40.524649	-57.259690
49853		3.240003	1.913869	-2.121032	0.220473	-2.117191	-0.281431	-0.540527	0.237305	-0.847656	-4.699243	-41.751881	-57.338131
49854		3.584959	1.594133	-2.097325	-0.025767	-2.363116	-0.225164	-0.570557	0.239014	-0.845947	-4.695178	-43.112252	-57.363526
49855		4.100288	1.395290	-1.993928	-0.247194	-2.594251	-0.158080	-0.601563	0.235596	-0.847412	-4.869060	-44.606449	-57.316470
49856		4.786362	1.138891	-1.812772	-0.442722	-2.793395	-0.113279	-0.627441	0.242432	-0.853760	-5.196831	-46.206863	-57.210054
49857		5.422340	0.867645	-1.628755	-0.592123	-2.945871	-0.138807	-0.669434	0.240723	-0.844971	-5.621774	-47.900657	-57.092358
49858		5.974429	0.521925	-1.401116	-0.706100	-3.074097	-0.188886	-0.679932	0.249268	-0.836426	-6.106028	-49.664231	-56.984225
49859		6.657096	0.205292	-1.138407	-0.793447	-3.181765	-0.246541	-0.726563	0.268311	-0.828857	-6.635738	-51.498184	-56.886291
49860		7.270231	-0.009040	-0.786923	-0.859588	-3.283248	-0.254010	-0.766113	0.263916	-0.837158	-7.232738	-53.383581	-56.752415
49861		7.931920	-0.088614	-0.455207	-0.927650	-3.387633	-0.234461	-0.797119	0.269287	-0.833008	-7.935724	-55.332387	-56.540670
49862		8.636020	0.006101	-0.046960	-1.000497	-3.476540	-0.225502	-0.835205	0.282227	-0.819092	-8.747703	-57.322420	-56.251882
49863		9.095297	0.409421	0.667150	-1.101444	-3.579690	-0.236035	-0.867676	0.292969	-0.814453	-9.695641	-59.376210	-55.878942
49864		9.337093	1.360877	1.738282	-1.287069	-3.696175	-0.298529	-0.900879	0.295654	-0.791016	-10.797081	-61.491099	-55.458666
49865		9.817663	2.487321	3.003394	-1.581459	-3.803541	-0.467344	-0.943604	0.312012	-0.788086	-12.029005	-63.688251	-55.090880
49866		10.563563	3.034197	4.672591	-1.982587	-3.868597	-0.691918	-0.969238	0.329102	-0.762207	-13.375342	-65.938215	-54.856711
49867		11.989453	2.810875	6.454329	-2.412707	-3.860208	-0.867048	-1.007324	0.355225	-0.747070	-14.895689	-68.212404	-54.705954
49868		13.332043	1.350803	8.564767	-2.802213	-3.786888	-0.948527	-1.041016	0.386230	-0.729492	-16.675589	-70.448658	-54.518053
49869		14.306275	-0.710364	11.137740	-3.065986	-3.647847	-1.077649	-1.072510	0.400391	-0.702637	-18.563526	-72.635425	-54.378547
49870		14.880398	-3.235811	13.836590	-3.161489	-3.437647	-1.209018	-1.094238	0.430664	-0.678955	-20.382294	-74.723867	-54.369316
49871		15.141900	-5.355958	16.390504	-3.077327	-3.162399	-1.317443	-1.128418	0.452881	-0.661865	-21.948335	-76.693077	-54.571407
49872		15.006912	-7.300725	18.598817	-2.834303	-2.821350	-1.348861	-1.142334	0.470459	-0.639160	-23.139479	-78.483011	-55.012905
49873		14.369111	-9.233527	20.244886	-2.453803	-2.408526	-1.312578	-1.172119	0.491699	-0.613525	-23.802515	-80.053709	-55.767471
49874		50.391652	-11.933345	32.605151	-1.788509	-1.555533	-1.326487	-1.179688	0.508057	-0.615967	-22.725838	-81.173563	-57.895618
49875		-15.385961	-15.958792	25.216061	-1.613203	2.479948	0.643249	-1.156738	0.524170	-0.608643	-22.425695	-79.722646	-59.135573
49876		12.571479	-8.936442	29.711407	-0.710591	3.173252	0.243001	-1.128174	0.529541	-0.634766	-20.136349	-77.978129	-61.881902
49877		-11.738006	-4.125997	37.306895	-0.424061	3.567069	0.076731	-1.103760	0.526611	-0.640625	-17.685549	-76.029276	-64.644459
49878		6.988573	1.304746	2.279537	0.130113	-0.471353	-0.038542	-1.104492	0.522461	-0.641357	-17.854766	-76.293811	-64.391662
49879		10.068222	-0.568072	4.193713	0.104186	-0.000702	0.082091	-1.106934	0.519287	-0.641846	-17.973351	-76.277100	-64.206425
49880		10.671128	-0.415538	1.917584	-0.090604	-0.143841	-0.028410	-1.112061	0.531494	-0.639893	-18.060894	-76.361127	-64.168012
49881		10.127210	-0.564954	1.975245	-0.001189	0.067322	0.099523	-1.110107	0.527832	-0.640381	-18.229106	-76.304076	-63.993857
49882		8.929156	-0.660909	2.598662	-0.037937	0.013358	0.123621	-1.108643	0.523193	-0.640625	-18.511013	-76.275114	-63.724313
49883		9.442282	-0.985697	2.178036	-0.036590	0.037087	0.077431	-1.110840	0.529297	-0.635498	-18.670180	-76.238241	-63.580284
49884		9.458057	-0.809522	2.232552	-0.017784	0.067329	0.058908	-1.112061	0.532227	-0.642334	-18.754783	-76.191505	-63.501921
49885		9.170102	-0.849137	2.455454	-0.004334	0.067864	0.040038	-1.099854	0.531494	-0.639160	-18.788692	-76.144761	-63.467802
49886		9.199177	-0.914240	2.391427	-0.005192	0.034430	0.017852	-1.107422	0.528320	-0.642822	-18.799736	-76.123422	-63.457747
49887		9.447988	-0.859687	2.281391	0.006306	0.024045	0.001696	-1.113770	0.538574	-0.635742	-18.775961	-76.107531	-63.476761
49888		9.511482	-0.834667	2.290708	0.025127	0.038101	-0.001987	-1.103516	0.530273	-0.645996	-18.723456	-76.087856	-63.514275
49889		9.397930	-0.716029	2.414605	0.020812	0.032137	-0.000236	-1.108643	0.528564	-0.646729	-18.681312	-76.067955	-63.543655
49890		9.389209	-0.766902	2.321000	0.012477	0.018700	0.002621	-1.107178	0.532471	-0.643066	-18.660678	-76.057953	-63.555805
49891		9.478901	-0.771377	2.367556	0.014418	0.024603	0.003764	-1.107666	0.528564	-0.641846	-18.636601	-76.041428	-63.570345
49892		9.436850	-0.711320	2.366408	0.014722	0.030237	0.009251	-1.103027	0.533203	-0.643555	-18.620720	-76.023946	-63.576274
49893		9.502913	-0.736509	2.351832	0.007687	0.026841	0.011259	-1.101318	0.536133	-0.642578	-18.615235	-76.004860	-63.575628
49894		9.441948	-0.736767	2.396282	0.001630	0.029972	0.016905	-1.099854	0.526123	-0.639404	-18.623739	-75.986122	-63.564157
49895		9.449940	-0.746046	2.340106	-0.003127	0.022712	0.016564	-1.108154	0.532715	-0.639893	-18.638960	-75.968332	-63.548552
49896		9.399381	-0.811394	2.343051	-0.002837	0.021195	0.015914	-1.104492	0.526367	-0.649170	-18.654238	-75.954539	-63.532735
49897		9.396213	-0.763668	2.368480	-0.002699	0.016862	0.012521	-1.101807	0.527344	-0.651367	-18.664657	-75.940691	-63.521824
49898		9.417702	-0.819551	2.360070	-0.000711	0.014509	0.010822	-1.100098	0.524170	-0.641602	-18.672528	-75.931459	-63.512384
49899		9.449378	-0.807998	2.364724	0.003743	0.016131	0.005677	-1.103760	0.529541	-0.642578	-18.664941	-75.919286	-63.516229
49900		9.392500	-0.848233	2.342590	0.011500	0.012160	-0.001017	-1.111816	0.523926	-0.640137	-18.641913	-75.913500	-63.531433
49901		9.493611	-0.777214	2.360069	0.012117	0.014152	-0.006158	-1.097900	0.532227	-0.643799	-18.605426	-75.904589	-63.560128
49902		9.445802	-0.757579	2.392637	0.010860	0.016290	-0.003015	-1.102539	0.522461	-0.641602	-18.575481	-75.896920	-63.582843
49903		9.458180	-0.739300	2.383691	0.006056	0.017286	-0.000517	-1.099121	0.532227	-0.647217	-18.552439	-75.885294	-63.601256
49904		9.465455	-0.755087	2.368193	-0.000098	0.016501	0.005675	-1.100342	0.536133	-0.639648	-18.547440	-75.875923	-63.604724
49905		9.440607	-0.783546	2.349455	-0.002529	0.017550	0.005276	-1.107422	0.528076	-0.647949	-18.541650	-75.863119	-63.610420
49906		9.427300	-0.802088	2.361970	-0.004426	0.023819	0.006419	-1.100830	0.532471	-0.644775	-18.535459	-75.849637	-63.617675
49907		9.480792	-0.844776	2.357569	-0.000849	0.022835	-0.002913	-1.095215	0.534424	-0.640869	-18.507289	-75.835475	-63.645459
49908		9.465902	-0.805114	2.353025	0.007778	0.034735	-0.006422	-1.103271	0.529541	-0.645020	-18.458689	-75.818392	-63.689242
49909		9.458548	-0.780549	2.332271	0.010627	0.041107	-0.011072	-1.101074	0.533203	-0.647461	-18.393502	-75.795786	-63.748434
49910		9.421653	-0.750465	2.398286	0.012908	0.044383	-0.007288	-1.105957	0.533203	-0.641602	-18.333501	-75.773591	-63.800954
49911		9.441147	-0.747213	2.374966	0.012611	0.045892	-0.006646	-1.102783	0.532959	-0.649170	-18.273646	-75.747577	-63.853483
49912		9.360408	-0.739808	2.407035	0.013774	0.046977	-0.003109	-1.103027	0.528809	-0.639893	-18.220624	-75.723194	-63.898302
49913		9.378601	-0.744916	2.425328	0.011686	0.045406	-0.000867	-1.105225	0.530762	-0.644531	-18.174347	-75.696408	-63.937377
49914		9.457230	-0.751187	2.402053	0.010569	0.043211	-0.001117	-1.097900	0.529785	-0.638916	-18.130363	-75.673702	-63.974774
49915		9.371439	-0.777944	2.427161	0.008916	0.042943	0.003219	-1.095215	0.531494	-0.649414	-18.096364	-75.647535	-64.002823
49916		9.385943	-0.809263	2.397036	0.013771	0.040842	0.004023	-1.098633	0.529297	-0.654053	-18.063363	-75.625193	-64.026996
49917		9.436295	-0.802363	2.418279	0.010855	0.041684	-0.001774	-1.102051	0.524170	-0.651855	-18.018743	-75.600606	-64.064869
49918		9.379808	-0.767258	2.470297	0.010214	0.045805	-0.003784	-1.098145	0.525146	-0.647461	-17.968019	-75.576932	-64.109451
49919		9.412095	-0.746467	2.436754	0.007871	0.050762	-0.004752	-1.097168	0.532471	-0.650635	-17.912875	-75.547921	-64.159965
49920		9.425132	-0.785022	2.448944	0.005053	0.049404	-0.003961	-1.106201	0.526367	-0.649170	-17.862615	-75.522296	-64.207132
49921		9.417515	-0.761095	2.429258	0.006887	0.051376	-0.002271	-1.104492	0.523438	-0.645752	-17.813241	-75.492508	-64.252282
49922		9.436986	-0.823112	2.465818	0.002775	0.046113	-0.007759	-1.091797	0.529297	-0.651855	-17.758861	-75.469323	-64.305064
49923		9.437332	-0.814304	2.428826	0.003837	0.049394	-0.010814	-1.098145	0.526611	-0.648926	-17.694983	-75.442101	-64.367015
49924		9.402733	-0.768559	2.412216	0.003240	0.052413	-0.009533	-1.105225	0.526611	-0.648682	-17.632779	-75.415756	-64.427619
49925		9.412927	-0.757377	2.448128	0.002080	0.051316	-0.013081	-1.101074	0.525879	-0.642578	-17.564348	-75.387861	-64.495330
49926		9.485065	-0.803880	2.461241	0.001097	0.058040	-0.017753	-1.104736	0.518799	-0.652344	-17.482920	-75.359823	-64.577086
49927		9.459537	-0.829364	2.446736	0.000663	0.068936	-0.034169	-1.094482	0.530273	-0.653564	-17.360277	-75.325879	-64.701693
49928		9.458044	-0.825690	2.453742	0.000014	0.079143	-0.043353	-1.091553	0.530762	-0.643799	-17.213162	-75.290569	-64.852022
49929		9.429250	-0.799698	2.464802	0.001407	0.091999	-0.058087	-1.089355	0.529053	-0.648438	-17.026823	-75.247881	-65.042095
49930		9.451493	-0.765654	2.494349	0.001645	0.097653	-0.069214	-1.098877	0.532471	-0.643555	-16.815004	-75.206495	-65.258430
49931		9.511757	-0.816806	2.481160	0.004897	0.105276	-0.071803	-1.094238	0.528076	-0.651367	-16.592262	-75.158446	-65.484172
49932		9.412368	-0.714828	2.533410	0.003787	0.097011	-0.081492	-1.091797	0.517090	-0.647949	-16.356710	-75.118978	-65.723879
49933		9.498546	-0.728889	2.499154	0.004141	0.099370	-0.082731	-1.096924	0.532227	-0.643555	-16.118161	-75.075477	-65.966520
49934		9.586237	-0.799553	2.483605	0.008783	0.107662	-0.085719	-1.091553	0.529053	-0.651123	-15.867370	-75.030294	-66.219134
49935		9.611313	-0.811318	2.492057	0.010904	0.125248	-0.102919	-1.086914	0.530762	-0.649414	-15.571433	-74.975111	-66.517288
49936		9.638988	-0.795458	2.550211	0.012898	0.139994	-0.122875	-1.086182	0.517334	-0.654541	-15.227248	-74.917050	-66.864299
49937		9.657262	-0.779954	2.537254	0.017720	0.154981	-0.140336	-1.091064	0.526367	-0.656250	-14.839286	-74.850073	-67.253910
49938		9.860075	-0.728366	2.584333	0.025467	0.173024	-0.152564	-1.093506	0.524902	-0.651611	-14.415636	-74.776786	-67.676016
49939		9.905417	-0.712318	2.662178	0.028219	0.190284	-0.168415	-1.090576	0.520264	-0.649902	-13.953894	-74.692665	-68.136157
49940		10.339544	-0.658949	2.654049	0.033566	0.214915	-0.159057	-1.086670	0.511719	-0.660156	-13.500661	-74.595217	-68.584469
49941		13.427667	-0.427973	2.854767	0.014933	0.265159	-0.071885	-1.090332	0.519775	-0.655762	-13.215849	-74.454860	-68.869397
49942		13.967243	-0.463533	2.830116	-0.010341	0.508910	0.028224	-1.081543	0.525391	-0.661377	-13.036917	-74.167758	-69.059648
49943		15.161034	-0.905512	2.865823	-0.013816	0.692223	0.129515	-1.078857	0.519043	-0.666504	-12.981123	-73.762634	-69.124211
49944		16.695942	-2.252681	2.514450	0.005091	1.049891	0.108092	-1.066162	0.516846	-0.666748	-12.725882	-73.162917	-69.385654
49945		15.046140	-2.062958	2.564325	0.070302	1.409695	0.032886	-1.053711	0.523193	-0.677002	-12.179457	-72.368288	-69.913879
49946		14.923460	-0.586255	2.861977	0.119352	1.613505	0.126058	-1.043213	0.524170	-0.678223	-11.736309	-71.449425	-70.306339
49947		15.602366	-0.409732	2.724481	0.109117	1.846791	0.264826	-1.024170	0.518066	-0.692383	-11.484432	-70.380680	-70.505026
49948		16.328465	-0.855478	2.663133	0.132580	2.104156	0.443119	-1.007568	0.523682	-0.703857	-11.429479	-69.149187	-70.480827
49949		17.576257	-1.506119	2.432403	0.173898	2.437601	0.573897	-0.982666	0.522461	-0.715576	-11.441503	-67.713594	-70.359084
49950		17.773425	-2.771809	1.953113	0.265793	2.810056	0.751295	-0.956299	0.526855	-0.724365	-11.522609	-66.050590	-70.103486
49951		18.048297	-3.330151	1.842884	0.406202	3.173529	1.000270	-0.923096	0.525879	-0.729736	-11.708102	-64.153031	-69.640816
49952		18.572288	-2.425697	2.089379	0.526228	3.521243	1.221212	-0.887207	0.527344	-0.744385	-11.937985	-62.035437	-69.043088
49953		18.688225	-1.338797	2.878026	0.560203	3.845534	1.409084	-0.839355	0.524902	-0.760498	-12.205130	-59.711383	-68.368405
49954		16.615824	-2.188575	3.447785	0.506412	4.006863	1.709870	-0.797119	0.532471	-0.767334	-12.665777	-57.258976	-67.485874
49955		12.756633	-3.281721	4.409940	0.527875	3.804422	2.199785	-0.765381	0.535645	-0.766846	-13.454161	-54.850598	-66.169718
49956		13.686254	-4.439363	5.016998	0.596862	3.479561	2.675205	-0.717041	0.533936	-0.773926	-14.479181	-52.546278	-64.471725
49957		11.477315	-3.963161	4.157693	0.750876	3.322923	2.824360	-0.676025	0.541016	-0.779541	-15.392863	-50.289625	-62.751565
49958		12.851547	-3.120526	2.619678	0.941730	3.237961	2.839274	-0.632568	0.525879	-0.795166	-16.080679	-48.063131	-61.127598
49959		8.338540	-1.989971	0.830627	1.090437	3.193175	2.763175	-0.587646	0.516113	-0.782959	-16.532502	-45.863121	-59.653786
49960		1.465852	-2.507465	-1.453763	1.225372	2.805188	2.419168	-0.564209	0.510986	-0.789795	-16.693334	-43.927185	-58.428880
49961		-0.562187	-3.120602	-3.670752	1.455849	2.200945	1.836426	-0.529541	0.501709	-0.785889	-16.467322	-42.419223	-57.539307
49962		1.544235	-3.067905	-5.096645	1.735200	1.590899	1.346118	-0.510986	0.480225	-0.789307	-15.906755	-41.329419	-56.887117
49963		2.578952	-1.385167	-1.655379	1.983250	1.278757	0.926754	-0.489258	0.457275	-0.802734	-15.044627	-40.482890	-56.468151
49964		1.562192	0.355982	-0.921012	2.019678	0.568435	0.754886	-0.500244	0.451416	-0.810791	-14.169915	-40.059216	-56.028523
49965		3.084113	0.657280	-2.300075	1.974711	0.038714	0.621647	-0.491211	0.431641	-0.808350	-13.324749	-39.954548	-55.583171
49966		3.692405	1.144074	-2.100148	1.898438	-0.353280	0.401284	-0.486816	0.408936	-0.821777	-12.460685	-40.101089	-55.232781
49967		5.184303	1.532568	-1.653853	1.783825	-0.523012	0.220132	-0.491699	0.388916	-0.822266	-11.596105	-40.369860	-54.988875
49968		5.434971	1.847437	-1.441355	1.636533	-0.572014	0.086596	-0.489990	0.382324	-0.837646	-10.751800	-40.682272	-54.842590
49969		4.762912	2.068418	-1.433798	1.460339	-0.614676	0.037582	-0.507324	0.371094	-0.837891	-9.988311	-41.027363	-54.730374
49970		4.102795	2.256723	-1.459800	1.258057	-0.704963	0.002898	-0.508057	0.361084	-0.841553	-9.325725	-41.425749	-54.639448
49971		3.822223	2.703301	-1.339784	1.019960	-0.843323	-0.018677	-0.521729	0.359375	-0.846924	-8.799478	-41.907634	-54.551474
49972		3.688919	2.873972	-1.257592	0.772528	-1.003222	-0.051670	-0.525391	0.345215	-0.840820	-8.405644	-42.480856	-54.476303
49973		3.728959	2.904587	-1.149346	0.502333	-1.166562	-0.152895	-0.538330	0.344971	-0.862549	-8.126004	-43.158397	-54.463466
49974		3.820352	2.890932	-0.962270	0.242997	-1.335470	-0.288234	-0.542969	0.347412	-0.856934	-7.930247	-43.939578	-54.543054
49975		4.106651	2.789235	-0.704705	-0.022031	-1.510963	-0.410950	-0.566406	0.342285	-0.861572	-7.829811	-44.833347	-54.703565
49976		4.353023	2.527985	-0.616247	-0.283613	-1.692620	-0.522942	-0.577393	0.348633	-0.870117	-7.822875	-45.835359	-54.939412
49977		4.671238	2.181965	-0.499604	-0.533742	-1.879271	-0.605183	-0.611328	0.356445	-0.862061	-7.921533	-46.953833	-55.224103
49978		5.057323	1.715756	-0.445677	-0.769669	-2.084254	-0.637628	-0.617676	0.366699	-0.872803	-8.146556	-48.187809	-55.514407
49979		5.572782	1.165647	-0.409546	-0.979540	-2.283406	-0.615548	-0.646729	0.378174	-0.873779	-8.523680	-49.538246	-55.757308
49980		6.233626	0.581545	-0.297793	-1.155047	-2.464031	-0.565321	-0.667480	0.390625	-0.875977	-9.057074	-50.983403	-55.922117
49981		7.012626	0.149344	-0.136519	-1.295675	-2.630048	-0.520418	-0.697998	0.406982	-0.868408	-9.736427	-52.524078	-56.000775
49982		7.718060	-0.080414	0.132464	-1.409976	-2.751101	-0.489714	-0.727295	0.420898	-0.860596	-10.543039	-54.125592	-56.000281
49983		8.450801	-0.226833	0.417146	-1.507583	-2.841434	-0.498942	-0.749268	0.444580	-0.868652	-11.447443	-55.784045	-55.949149
49984		9.124347	-0.355259	0.707256	-1.598778	-2.901604	-0.533939	-0.780762	0.458252	-0.863281	-12.428034	-57.474366	-55.869906
49985		9.849362	-0.490954	0.868887	-1.674288	-2.930642	-0.570175	-0.814209	0.479492	-0.857178	-13.479430	-59.190260	-55.760247
49986		10.506204	-0.767845	1.107379	-1.738618	-2.939241	-0.616214	-0.841797	0.486328	-0.849609	-14.586537	-60.910205	-55.630342
49987		11.265082	-1.120249	1.377566	-1.768654	-2.909157	-0.683686	-0.867432	0.517578	-0.836426	-15.704877	-62.628170	-55.509801
49988		12.013394	-1.383269	1.817701	-1.775536	-2.859234	-0.771304	-0.908936	0.537842	-0.832031	-16.786860	-64.325176	-55.435717
49989		12.415958	-1.458339	2.382971	-1.781789	-2.794557	-0.903719	-0.948242	0.546387	-0.822021	-17.765079	-66.014918	-55.481362
49990		12.378890	-1.534380	3.161515	-1.800396	-2.730665	-1.049615	-0.982422	0.570313	-0.811523	-18.598299	-67.689611	-55.695274
49991		12.597438	-2.435144	4.237466	-1.827634	-2.699536	-1.079449	-1.015137	0.588379	-0.792725	-19.438591	-69.360678	-55.916176
49992		13.094030	-3.833843	5.840276	-1.792928	-2.688914	-1.031374	-1.047607	0.599121	-0.783203	-20.375563	-71.011090	-56.010426
49993		13.486306	-5.259062	8.080251	-1.699999	-2.663457	-0.943465	-1.075928	0.620850	-0.758789	-21.470117	-72.636641	-55.882217
49994		13.717974	-6.610212	10.633137	-1.541223	-2.619517	-0.804950	-1.104492	0.635742	-0.750488	-22.813732	-74.201338	-55.400012
49995		13.384059	-7.539170	13.312175	-1.329541	-2.549341	-0.612833	-1.140381	0.653564	-0.731689	-24.561541	-75.686426	-54.377675
49996		12.408420	-7.937055	15.628972	-1.093785	-2.455421	-0.345237	-1.163330	0.655029	-0.711426	-26.969776	-77.040295	-52.542883
49997		11.367539	-7.864250	17.311235	-0.839111	-2.338060	-0.065012	-1.185059	0.666016	-0.696045	-30.230144	-78.239598	-49.696194
49998		10.794610	-7.788900	18.420793	-0.567096	-2.149138	0.150753	-1.202148	0.673096	-0.678955	-34.214590	-79.236607	-45.963300
49999		10.696057	-8.011383	18.904110	-0.251477	-1.827599	0.187844	-1.215820	0.677002	-0.677979	-38.218394	-80.021379	-42.038237
50000		36.676737	-8.383689	27.064641	0.363170	0.513810	-0.963667	-1.215820	0.675293	-0.686035	-34.468315	-80.112386	-45.632382
50001		4.542960	-6.974985	19.048559	0.740510	1.270507	-0.955071	-1.217285	0.658936	-0.703369	-29.252040	-79.783659	-50.497412
50002		14.876770	-1.093164	23.661703	1.009365	2.252170	-1.256265	-1.200195	0.651367	-0.714600	-22.230512	-78.933289	-57.051188
50003		13.541959	3.976723	26.104437	0.430598	2.892291	0.107922	-1.179932	0.639160	-0.733398	-19.445832	-77.361129	-59.642515
50004		-12.529224	3.328842	12.830443	0.153495	1.232081	-0.158111	-1.167480	0.632324	-0.740234	-17.994645	-76.722203	-61.039617
50005		10.560101	-1.975686	1.446619	0.117494	0.014960	0.150500	-1.168701	0.640137	-0.739014	-18.254882	-76.684554	-60.701153
50006		10.589530	-0.673580	2.490622	0.032721	-0.119288	0.112065	-1.168457	0.633545	-0.732422	-18.579789	-76.729739	-60.346299
50007		10.346725	-0.790144	2.006349	-0.022282	-0.106118	0.082962	-1.172363	0.639160	-0.743652	-18.858813	-76.769444	-60.070882
50008		10.156250	-0.720565	1.913498	-0.006487	0.067355	0.097932	-1.166016	0.645264	-0.738770	-19.029028	-76.715360	-59.898085
50009		9.472088	-0.604620	2.330330	0.002643	0.107261	0.121090	-1.168701	0.636719	-0.737793	-19.211477	-76.632005	-59.707149
50010		9.457219	-0.862627	2.220991	-0.006251	0.101986	0.121636	-1.162354	0.642578	-0.735352	-19.404421	-76.554453	-59.510742
50011		9.590458	-0.841636	2.222755	-0.003190	0.106865	0.092402	-1.161865	0.644287	-0.749023	-19.521537	-76.476540	-59.390295
50012		9.190065	-0.931136	2.287063	0.004031	0.108737	0.065815	-1.160156	0.640625	-0.739258	-19.574674	-76.405855	-59.331517
50013		8.879347	-0.970609	2.413435	0.010023	0.064686	0.032505	-1.163818	0.650879	-0.735596	-19.582383	-76.362164	-59.315784
50014		9.249985	-0.857466	2.283839	0.019557	0.046229	0.014911	-1.158936	0.649902	-0.737061	-19.562352	-76.334989	-59.323124
50015		9.281318	-0.846025	2.289907	0.023331	0.034050	0.005634	-1.166992	0.644043	-0.741943	-19.527018	-76.312992	-59.343840
50016		9.420154	-0.914710	2.243629	0.036385	0.035420	-0.012740	-1.162842	0.643311	-0.743408	-19.444724	-76.296936	-59.405343
50017		9.494030	-0.770418	2.282170	0.040954	0.037356	-0.025211	-1.165527	0.643555	-0.738037	-19.328729	-76.279017	-59.498699
50018		9.432148	-0.712868	2.348860	0.041929	0.029639	-0.017130	-1.162109	0.645264	-0.747559	-19.238394	-76.266868	-59.565218
50019		9.425052	-0.689050	2.326231	0.031990	0.026985	0.003055	-1.159668	0.638428	-0.750732	-19.198462	-76.249178	-59.585570
50020		9.417216	-0.672241	2.345002	0.023188	0.020761	0.006942	-1.160645	0.636963	-0.741699	-19.179125	-76.237273	-59.590056
50021		9.491767	-0.766466	2.292888	0.011370	0.013768	0.015628	-1.164063	0.645264	-0.744629	-19.188961	-76.224378	-59.571330
50022		9.390414	-0.708404	2.371532	0.005899	0.015116	0.016729	-1.155518	0.636475	-0.742920	-19.205458	-76.213684	-59.549121
50023		9.463443	-0.753469	2.339836	-0.003848	0.009602	0.023103	-1.152344	0.641357	-0.741455	-19.243599	-76.201643	-59.510223
50024		9.437917	-0.784318	2.322303	-0.011043	0.012879	0.021943	-1.161865	0.648682	-0.740967	-19.282916	-76.191167	-59.474508
50025		9.489172	-0.779879	2.339573	-0.016296	0.013719	0.019121	-1.163330	0.641357	-0.739746	-19.316129	-76.177653	-59.448025
50026		9.439225	-0.833364	2.262166	-0.008710	0.022175	0.018330	-1.163086	0.634521	-0.746094	-19.338898	-76.162827	-59.427971
50027		9.471760	-0.879090	2.286850	-0.008264	0.011794	0.011175	-1.160889	0.639893	-0.746094	-19.351477	-76.151870	-59.417996
50028		9.432649	-0.869244	2.260284	0.005777	0.014805	0.000223	-1.152832	0.638672	-0.747070	-19.331872	-76.144463	-59.433035
50029		9.463096	-0.806758	2.285130	0.013505	0.017809	-0.000527	-1.161865	0.647949	-0.741699	-19.301765	-76.132487	-59.454179
50030		9.434528	-0.734333	2.310295	0.011158	0.017872	0.002394	-1.157959	0.646729	-0.743164	-19.281528	-76.123007	-59.466696
50031		9.459883	-0.761958	2.351454	0.007681	0.015756	0.005140	-1.159668	0.643799	-0.751465	-19.268793	-76.111082	-59.473384
50032		9.432863	-0.740637	2.355275	0.004930	0.013446	0.009323	-1.156006	0.639160	-0.742920	-19.270692	-76.102685	-59.466774
50033		9.460647	-0.813695	2.333129	0.000003	0.011721	0.009197	-1.156494	0.637695	-0.747314	-19.274297	-76.092185	-59.461160
50034		9.448143	-0.825882	2.304227	0.000809	0.016467	0.006672	-1.155273	0.651367	-0.743896	-19.270454	-76.082656	-59.462898
50035		9.480658	-0.870414	2.329270	0.002292	0.022046	0.002275	-1.155029	0.643799	-0.749512	-19.249792	-76.067892	-59.480934
50036		9.439815	-0.809382	2.324852	0.007251	0.029738	-0.004869	-1.159180	0.643311	-0.742920	-19.207045	-76.053360	-59.518954
50037		9.503808	-0.785019	2.332445	0.005980	0.033007	-0.005086	-1.163086	0.639648	-0.750244	-19.160080	-76.034057	-59.561921
50038		9.458606	-0.807518	2.303378	0.009587	0.039027	-0.008486	-1.156250	0.637451	-0.748047	-19.101317	-76.015161	-59.615071
50039		9.476411	-0.755793	2.300407	0.006369	0.044730	-0.007049	-1.168457	0.639404	-0.751465	-19.041349	-75.989871	-59.671218
50040		9.390446	-0.779299	2.328033	0.007541	0.045873	-0.003569	-1.160645	0.643555	-0.748291	-18.989637	-75.966322	-59.718321
50041		9.441074	-0.772047	2.348723	0.006813	0.046063	-0.005010	-1.156006	0.637695	-0.747314	-18.933230	-75.939920	-59.770547
50042		9.427070	-0.788713	2.364487	0.005325	0.040483	-0.000614	-1.151855	0.645264	-0.748047	-18.893504	-75.918723	-59.806611
50043		9.458422	-0.776800	2.370770	0.006496	0.041627	0.002867	-1.150635	0.648438	-0.753906	-18.857896	-75.893259	-59.837591
50044		9.426075	-0.783246	2.330578	0.008342	0.043605	0.004475	-1.162842	0.633301	-0.741455	-18.825345	-75.869417	-59.864481
50045		9.463636	-0.793860	2.362776	0.008339	0.043600	0.004471	-1.160889	0.644775	-0.740967	-18.790919	-75.842590	-59.893160
50046		9.446428	-0.889828	2.311500	0.012886	0.051270	0.008473	-1.154785	0.636475	-0.748535	-18.758969	-75.813845	-59.916752
50047		9.446535	-0.761100	2.404788	0.005749	0.051152	0.000709	-1.155273	0.640625	-0.752686	-18.712747	-75.783617	-59.959139
50048		9.412933	-0.772918	2.407361	0.008993	0.053765	0.001882	-1.150146	0.640869	-0.741699	-18.667381	-75.754719	-59.998879
50049		9.411608	-0.773103	2.412479	0.007353	0.053630	0.006229	-1.147705	0.639404	-0.750488	-18.630596	-75.722128	-60.030591
50050		9.400026	-0.834980	2.366530	0.003429	0.057157	-0.003673	-1.147949	0.631348	-0.748779	-18.574492	-75.692389	-60.084713
50051		9.501937	-0.820667	2.404996	0.000334	0.056073	-0.015399	-1.146973	0.640381	-0.755371	-18.494369	-75.662406	-60.165313
50052		9.541525	-0.818032	2.355212	-0.001889	0.067015	-0.023745	-1.148438	0.637207	-0.743896	-18.392249	-75.630909	-60.270094
50053		9.546118	-0.837623	2.388199	0.004182	0.086192	-0.031433	-1.149658	0.635986	-0.751221	-18.255629	-75.587373	-60.406774
50054		9.445591	-0.819332	2.409927	0.000662	0.092066	-0.042620	-1.155518	0.642090	-0.753662	-18.095891	-75.545492	-60.569578
50055		9.523160	-0.824420	2.391730	0.004220	0.099074	-0.049348	-1.151611	0.639648	-0.746338	-17.914410	-75.497933	-60.752627
50056		9.428513	-0.826845	2.440287	0.004658	0.107358	-0.057925	-1.146484	0.638672	-0.754639	-17.711889	-75.450137	-60.957330
50057		9.587846	-0.761283	2.463540	0.004039	0.103106	-0.062650	-1.147461	0.641113	-0.763184	-17.502399	-75.402376	-61.169511
50058		9.469698	-0.785681	2.451562	0.005907	0.110995	-0.068352	-1.146729	0.636719	-0.757568	-17.277635	-75.354000	-61.396550
50059		9.597048	-0.786747	2.494399	0.010169	0.117790	-0.073652	-1.141846	0.628418	-0.756348	-17.035062	-75.299652	-61.639402
50060		9.491796	-0.792961	2.472113	0.009909	0.125215	-0.080380	-1.156494	0.634277	-0.760010	-16.777120	-75.245002	-61.898485
50061		9.631989	-0.774832	2.505008	0.011689	0.127831	-0.098641	-1.149414	0.644043	-0.756104	-16.479209	-75.188686	-62.197797
50062		9.610259	-0.759364	2.503857	0.013298	0.143141	-0.111073	-1.141113	0.628174	-0.750488	-16.148897	-75.128440	-62.529876
50063		9.742316	-0.721066	2.555398	0.016585	0.150253	-0.130457	-1.142334	0.629395	-0.752686	-15.774011	-75.063912	-62.906116
50064		9.859374	-0.586473	2.578002	0.016059	0.171330	-0.134728	-1.141602	0.638672	-0.760010	-15.382946	-74.990661	-63.299648
50065		9.831333	-0.602162	2.575928	0.013082	0.172325	-0.124069	-1.140137	0.631348	-0.757568	-15.017745	-74.911705	-63.668200
50066		12.082567	-0.683503	2.640601	0.009233	0.206232	-0.055538	-1.144043	0.632568	-0.759766	-14.781291	-74.806263	-63.905923
50067		11.811290	-0.565609	2.649387	-0.016987	0.366550	0.001457	-1.135742	0.634521	-0.760010	-14.593165	-74.600603	-64.109196
50068		11.191523	-0.528073	2.685390	-0.019413	0.440659	0.070387	-1.131104	0.630615	-0.761963	-14.511293	-74.346651	-64.203955
50069		12.536521	-0.426105	2.816840	-0.024316	0.520307	0.147282	-1.121338	0.634766	-0.762451	-14.543639	-74.034647	-64.182956
50070		14.670559	-0.453356	2.897948	-0.037450	0.667483	0.271438	-1.126709	0.635498	-0.772217	-14.745570	-73.625873	-63.993288
50071		15.454860	-1.402674	2.654099	-0.042766	0.952815	0.322564	-1.105469	0.630371	-0.773438	-14.894603	-73.048667	-63.861417
50072		14.531496	-1.578044	2.604547	-0.013429	1.247240	0.295256	-1.089844	0.631592	-0.777832	-14.833987	-72.315133	-63.931196
50073		14.077208	-0.657521	2.804082	0.004545	1.455809	0.341204	-1.084473	0.638916	-0.787842	-14.752888	-71.456697	-64.011908
50074		14.412577	-0.306301	2.833301	0.005275	1.640428	0.477041	-1.061523	0.642822	-0.794434	-14.816206	-70.478735	-63.939943
50075		14.810157	-0.525309	2.722932	-0.004516	1.846107	0.588728	-1.050537	0.639404	-0.788330	-14.962169	-69.367939	-63.785387
50076		15.307155	-0.807426	2.613823	0.017305	2.094885	0.662375	-1.028320	0.631836	-0.807373	-15.090359	-68.110873	-63.635389
50077		16.073707	-1.250773	2.424313	0.050059	2.394140	0.692062	-1.001221	0.636230	-0.802734	-15.118084	-66.681543	-63.572337
50078		17.015548	-2.270901	2.043634	0.110751	2.771740	0.638605	-0.972168	0.639160	-0.822266	-14.920972	-65.053452	-63.716919
50079		17.414616	-3.110545	1.742551	0.208745	3.225019	0.508353	-0.934570	0.641602	-0.825439	-14.413817	-63.190809	-64.145650
50080		18.061192	-3.377289	1.512833	0.335922	3.703098	0.380334	-0.897705	0.634277	-0.839355	-13.644749	-61.080070	-64.795819
50081		18.154739	-2.473217	1.947419	0.436069	4.166625	0.341496	-0.860840	0.628418	-0.850098	-12.779324	-58.710408	-65.505353
50082		17.475448	-0.970669	3.114179	0.462199	4.533368	0.375175	-0.811279	0.631104	-0.862061	-11.968703	-56.127743	-66.150856
50083		15.346159	-0.153347	4.584597	0.387651	4.733053	0.433093	-0.764648	0.618652	-0.863770	-11.313279	-53.421394	-66.679300
50084		11.855574	-0.772523	6.275421	0.277811	4.624165	0.647972	-0.724854	0.619629	-0.874512	-10.961684	-50.750624	-66.920952
50085		10.420824	-2.170466	5.777339	0.199536	4.220034	1.040548	-0.668213	0.620605	-0.870605	-10.991287	-48.263562	-66.729774
50086		10.170247	-3.553197	4.935825	0.246920	3.876865	1.397743	-0.621582	0.617920	-0.862061	-11.232023	-45.930064	-66.205760
50087		11.093524	-3.270333	4.854595	0.369651	3.706124	1.485413	-0.588135	0.615723	-0.867432	-11.432698	-43.681108	-65.618648
50088		10.758750	-3.123417	3.592289	0.484808	3.649532	1.417183	-0.544434	0.608643	-0.863770	-11.501528	-41.470883	-65.103893
50089		10.738679	-2.847263	2.258722	0.605242	3.608168	1.507304	-0.496582	0.597900	-0.856445	-11.521914	-39.273564	-64.535388
50090		8.712381	-2.878470	1.118392	0.699373	3.505856	1.742160	-0.458984	0.584961	-0.852539	-11.571763	-37.106183	-63.803961
50091		1.458131	-3.663139	-0.971187	0.822313	3.159398	1.847262	-0.415527	0.580078	-0.843750	-11.590774	-35.121710	-62.970916
50092		-5.044136	-5.435234	-3.598082	1.143485	2.470651	1.590801	-0.388428	0.564697	-0.848145	-11.351106	-33.553634	-62.231293
50093		-3.218452	-5.057032	-7.293522	1.456815	1.657300	1.288931	-0.379395	0.551025	-0.852295	-10.867855	-32.480957	-61.585563
50094		-6.490477	-1.877056	-3.607971	1.887390	0.699859	1.248014	-0.363770	0.524414	-0.854492	-10.181007	-31.956594	-60.842343
50095		-0.100653	-0.345326	-0.958075	1.934858	-0.402309	1.123928	-0.366455	0.509766	-0.863770	-9.493711	-32.075021	-60.047663
50096		4.004604	0.119499	-2.634699	1.985251	-0.935550	0.984706	-0.379883	0.487061	-0.876953	-8.759725	-32.515240	-59.289294
50097		3.463750	1.632261	-2.515479	1.962692	-1.194807	0.587890	-0.397705	0.466553	-0.880371	-7.914257	-33.145348	-58.774582
50098		4.226457	2.430988	-1.806447	1.837461	-1.314344	0.206579	-0.398438	0.451660	-0.902832	-7.001519	-33.877106	-58.517826
50099		4.963700	2.862947	-1.090265	1.631109	-1.364134	-0.051467	-0.416748	0.430908	-0.894287	-6.107573	-34.659052	-58.445430
50100		4.532745	2.911096	-0.836037	1.367469	-1.424858	-0.186685	-0.429443	0.419189	-0.909668	-5.303897	-35.482424	-58.477570
50101		3.468050	2.892968	-0.911925	1.067763	-1.563386	-0.270581	-0.453369	0.415039	-0.911621	-4.635825	-36.390848	-58.572757
50102		3.068903	2.940065	-0.852978	0.750187	-1.791550	-0.333845	-0.464844	0.407227	-0.925049	-4.119105	-37.429316	-58.714603
50103		3.549048	2.698084	-0.598853	0.419464	-2.035063	-0.357203	-0.491455	0.399658	-0.918701	-3.780949	-38.609651	-58.872279
50104		4.002463	2.385599	-0.357651	0.108091	-2.250993	-0.376749	-0.516357	0.400391	-0.924561	-3.608321	-39.910974	-59.044505
50105		4.297701	2.088085	-0.212205	-0.187861	-2.438739	-0.395907	-0.547363	0.402588	-0.929199	-3.595720	-41.323160	-59.227752
50106		4.953361	1.490880	0.058763	-0.442451	-2.583997	-0.406566	-0.579102	0.418945	-0.937744	-3.722043	-42.815898	-59.415048
50107		5.824607	1.026223	0.409879	-0.654923	-2.682566	-0.397840	-0.614258	0.427734	-0.936279	-3.977328	-44.368547	-59.587406
50108		6.352098	0.760953	0.896333	-0.836187	-2.739788	-0.360531	-0.645508	0.436768	-0.940186	-4.361303	-45.949568	-59.719204
50109		6.584151	0.530217	1.198773	-1.000183	-2.794412	-0.318534	-0.669678	0.449951	-0.928467	-4.876138	-47.564395	-59.797490
50110		6.967539	0.328661	1.479958	-1.139421	-2.856580	-0.265171	-0.710449	0.458984	-0.927490	-5.522800	-49.208517	-59.803548
50111		7.460969	0.041744	1.816000	-1.247317	-2.909439	-0.233087	-0.748779	0.477783	-0.932373	-6.281477	-50.885044	-59.744509
50112		8.071859	-0.225015	2.152865	-1.318709	-2.947115	-0.226624	-0.775146	0.486816	-0.919434	-7.120400	-52.577645	-59.636261
50113		8.786587	-0.451095	2.551288	-1.363375	-2.964126	-0.217007	-0.805664	0.511963	-0.911865	-8.035218	-54.282534	-59.468286
50114		9.208789	-0.525457	2.898194	-1.391885	-2.963663	-0.211930	-0.839355	0.518311	-0.898926	-9.018627	-55.980268	-59.239718
50115		9.646008	-0.608005	3.199813	-1.405896	-2.960704	-0.221662	-0.879395	0.537842	-0.901611	-10.060553	-57.679536	-58.955819
50116		10.060316	-0.799095	3.612176	-1.408086	-2.953358	-0.258889	-0.912598	0.555176	-0.886475	-11.134247	-59.370587	-58.640971
50117		10.593012	-1.041983	4.142214	-1.395342	-2.940366	-0.321415	-0.945557	0.563965	-0.867920	-12.212145	-61.063259	-58.318762
50118		10.809575	-1.079072	4.818804	-1.380567	-2.919231	-0.403558	-0.978760	0.582764	-0.854492	-13.268184	-62.746189	-58.016507
50119		11.020293	-0.959580	5.576597	-1.384913	-2.895841	-0.537308	-1.009766	0.596680	-0.842529	-14.252265	-64.436633	-57.802332
50120		11.183356	-1.128117	6.348702	-1.410590	-2.859753	-0.714837	-1.040527	0.609131	-0.825928	-15.097779	-66.126007	-57.759470
50121		11.438635	-1.340474	7.277445	-1.449797	-2.813465	-0.912024	-1.073486	0.615479	-0.804688	-15.749739	-67.824467	-57.952203
50122		12.011591	-1.923223	8.256582	-1.503427	-2.749069	-1.048118	-1.105469	0.635254	-0.788574	-16.240304	-69.504645	-58.348529
50123		12.433677	-2.753402	9.485409	-1.550059	-2.644858	-1.107984	-1.139160	0.638916	-0.765869	-16.621613	-71.142938	-58.885232
50124		12.580325	-3.506235	10.718618	-1.569125	-2.517832	-1.055956	-1.165039	0.649414	-0.739502	-17.020899	-72.699506	-59.409170
50125		12.493719	-4.458442	11.952345	-1.555123	-2.360190	-0.876991	-1.186279	0.661865	-0.724365	-17.651138	-74.144648	-59.679723
50126		12.300708	-5.094146	13.001248	-1.500417	-2.183654	-0.616677	-1.214600	0.677734	-0.703857	-18.706814	-75.444185	-59.474910
50127		11.952292	-5.471880	13.886463	-1.403021	-1.963811	-0.341764	-1.241943	0.680908	-0.681396	-20.273598	-76.573817	-58.687193
50128		11.563859	-5.581838	14.422598	-1.263756	-1.681557	-0.144376	-1.249756	0.693848	-0.666260	-22.172458	-77.502593	-57.480018
50129		11.362423	-5.596773	14.649391	-1.090931	-1.343479	-0.045625	-1.257568	0.706787	-0.644043	-24.089306	-78.223119	-56.157193
50130		11.072111	-5.593130	14.496273	-0.901772	-0.965104	0.013840	-1.273438	0.709961	-0.638428	-25.778421	-78.721951	-54.958909
50131		10.542148	-5.683838	13.931524	-0.703019	-0.580497	0.065545	-1.266113	0.724854	-0.635498	-27.101573	-79.004064	-54.019332
50132		31.040357	-4.854643	21.430897	-0.349218	1.174800	-0.802504	-1.267090	0.721680	-0.635498	-23.738844	-78.594022	-57.649540
50133		13.400992	-1.630135	14.524784	-0.190764	2.010076	-0.323833	-1.253662	0.729004	-0.644287	-20.952520	-77.598495	-60.607034
50134		3.411929	-2.949637	31.792300	-0.115927	2.673597	0.261511	-1.230957	0.724121	-0.667725	-19.355657	-76.109298	-62.313196
50135		-0.693101	8.163920	7.382888	0.099645	-0.190852	-0.389342	-1.224854	0.719971	-0.670654	-18.578776	-76.282598	-63.052588
50136		7.157744	-3.754391	3.629545	0.146560	0.225790	0.064413	-1.224854	0.729736	-0.664551	-18.464489	-76.148833	-63.082059
50137		10.482909	-1.079338	2.418041	-0.030471	-0.311073	-0.042544	-1.229248	0.718994	-0.666016	-18.611509	-76.322649	-62.946745
50138		11.717376	-0.769385	1.428776	-0.024227	-0.128255	0.002235	-1.238770	0.724121	-0.661865	-18.721814	-76.392487	-62.845780
50139		10.643532	-0.635856	1.878203	0.043065	0.122706	0.083428	-1.231201	0.720703	-0.660645	-18.783074	-76.307698	-62.755434
50140		9.173036	-0.641751	2.538582	0.047089	0.173860	0.143367	-1.237793	0.731445	-0.664063	-18.936695	-76.187510	-62.567760
50141		9.301531	-0.827742	2.421501	0.009648	0.097627	0.119420	-1.227295	0.724365	-0.671875	-19.112155	-76.109513	-62.379428
50142		9.744396	-0.943103	2.235543	-0.006205	0.106933	0.079882	-1.230225	0.721191	-0.660156	-19.203602	-76.037254	-62.287130
50143		8.903071	-0.831924	2.433559	0.001343	0.112307	0.056149	-1.226074	0.718994	-0.663818	-19.232386	-75.963102	-62.254745
50144		8.902905	-0.696766	2.452903	0.001894	0.061829	0.047888	-1.238037	0.717285	-0.672119	-19.282747	-75.921247	-62.199966
50145		9.283248	-0.895876	2.316587	0.001118	0.038368	0.034699	-1.227539	0.730713	-0.669922	-19.320557	-75.891123	-62.158390
50146		9.249700	-0.974759	2.376852	0.013945	0.037920	0.017726	-1.226807	0.728027	-0.668213	-19.316777	-75.867899	-62.152303
50147		9.318977	-0.852686	2.332946	0.023865	0.030083	-0.007827	-1.228027	0.722412	-0.670898	-19.256437	-75.850309	-62.198499
50148		9.498735	-0.797255	2.365589	0.033211	0.036692	-0.006085	-1.227783	0.725586	-0.666260	-19.191609	-75.832244	-62.243988
50149		9.457263	-0.735355	2.364971	0.028013	0.035313	-0.002386	-1.234619	0.726807	-0.666504	-19.136931	-75.810787	-62.281901
50150		9.466172	-0.675705	2.422414	0.022509	0.029333	0.009099	-1.225830	0.714355	-0.670166	-19.116430	-75.793835	-62.287999
50151		9.454499	-0.743628	2.412651	0.014699	0.028340	0.019625	-1.222656	0.717773	-0.668701	-19.121704	-75.772026	-62.271939
50152		9.487104	-0.725603	2.376971	0.004899	0.028682	0.018599	-1.224121	0.730957	-0.664307	-19.132060	-75.753644	-62.256612
50153		9.460360	-0.763121	2.400980	-0.005496	0.025939	0.025999	-1.224121	0.720459	-0.670410	-19.164141	-75.731945	-62.224826
50154		9.518690	-0.775735	2.402729	-0.018704	0.013610	0.031400	-1.229248	0.722900	-0.669434	-19.226279	-75.719302	-62.170020
50155		9.489863	-0.889308	2.354627	-0.013602	0.025430	0.023924	-1.219238	0.723145	-0.666504	-19.258745	-75.698268	-62.142620
50156		9.509587	-0.889563	2.329243	-0.010301	0.025932	0.015252	-1.227051	0.728027	-0.666260	-19.272498	-75.681996	-62.132771
50157		9.404510	-0.910486	2.339731	-0.000438	0.037822	0.001996	-1.221436	0.727539	-0.666992	-19.241769	-75.658414	-62.162809
50158		9.458513	-0.821423	2.390109	0.004033	0.039405	-0.003147	-1.220215	0.727783	-0.665039	-19.198492	-75.638325	-62.203348
50159		9.396544	-0.762217	2.416966	0.000809	0.035667	-0.001140	-1.229248	0.720947	-0.667969	-19.162251	-75.616499	-62.238347
50160		9.421713	-0.727242	2.398743	-0.001894	0.031027	0.009533	-1.220215	0.728027	-0.670410	-19.155453	-75.598550	-62.244738
50161		9.394944	-0.763761	2.422694	-0.005519	0.024890	0.012746	-1.223389	0.728516	-0.667480	-19.160073	-75.579953	-62.241295
50162		9.401826	-0.780891	2.407834	-0.004226	0.021639	0.012906	-1.220459	0.726318	-0.673340	-19.168579	-75.566451	-62.233264
50163		9.371091	-0.843215	2.383099	-0.007244	0.018591	0.007693	-1.224365	0.723877	-0.665039	-19.168136	-75.552223	-62.236068
50164		9.391148	-0.842118	2.357167	-0.011113	0.020092	0.004403	-1.221680	0.730713	-0.673584	-19.163848	-75.541157	-62.245324
50165		9.394719	-0.816760	2.407089	0.001906	0.023473	0.003436	-1.218506	0.728516	-0.664551	-19.145713	-75.525099	-62.260987
50166		9.466176	-0.809152	2.398730	-0.000192	0.021921	0.005682	-1.218262	0.727295	-0.670898	-19.136553	-75.512801	-62.268813
50167		9.408617	-0.849374	2.377488	0.002783	0.026066	0.007604	-1.227783	0.720459	-0.666260	-19.124818	-75.494566	-62.277348
50168		9.386651	-0.795028	2.389315	0.004515	0.024114	0.009850	-1.226074	0.728516	-0.667725	-19.120122	-75.480298	-62.277779
50169		9.365422	-0.797721	2.419150	0.003387	0.021931	0.009610	-1.224121	0.723877	-0.664063	-19.115269	-75.463937	-62.278849
50170		9.392975	-0.812253	2.376723	0.006173	0.024363	0.005517	-1.227051	0.729004	-0.669189	-19.100413	-75.450347	-62.288794
50171		9.371769	-0.814531	2.406551	0.003634	0.021514	0.005677	-1.221436	0.727051	-0.673828	-19.087547	-75.434960	-62.297996
50172		9.422626	-0.808680	2.425956	0.002590	0.024348	0.001582	-1.215332	0.722168	-0.669189	-19.066606	-75.422114	-62.316350
50173		9.423399	-0.801078	2.386959	0.006252	0.029375	0.001658	-1.226807	0.726563	-0.671631	-19.038291	-75.403231	-62.339968
50174		9.436352	-0.840176	2.397609	0.006334	0.034388	-0.002199	-1.217285	0.729492	-0.670654	-19.000244	-75.385648	-62.373786
50175		9.408725	-0.818158	2.404155	0.007860	0.038964	-0.003169	-1.221191	0.724854	-0.670898	-18.954305	-75.362474	-62.414671
50176		9.438564	-0.813372	2.452823	0.009268	0.039626	-0.003572	-1.209717	0.725098	-0.664307	-18.908207	-75.342294	-62.455079
50177		9.346379	-0.814901	2.452958	0.007821	0.040057	-0.006465	-1.221924	0.726563	-0.666748	-18.854961	-75.319132	-62.503550
50178		9.392294	-0.777048	2.407784	0.006726	0.036773	-0.003417	-1.216309	0.726074	-0.674072	-18.812902	-75.300453	-62.541296
50179		9.350150	-0.780123	2.466139	0.005738	0.030263	-0.007020	-1.218018	0.729004	-0.667725	-18.766857	-75.282697	-62.583564
50180		9.416032	-0.804712	2.452731	0.004123	0.036122	-0.009843	-1.219482	0.731934	-0.663330	-18.713688	-75.265539	-62.634345
50181		9.371486	-0.825639	2.421778	0.006540	0.035053	-0.009437	-1.214600	0.720947	-0.663818	-18.659077	-75.245617	-62.685003
50182		9.389261	-0.773207	2.420813	0.004662	0.034186	-0.014416	-1.215088	0.720703	-0.671631	-18.597774	-75.230321	-62.743886
50183		9.432885	-0.806461	2.476834	0.002901	0.037230	-0.019965	-1.227783	0.726074	-0.677979	-18.522360	-75.211122	-62.818226
50184		9.460453	-0.818404	2.436142	0.002003	0.042867	-0.021347	-1.216064	0.720703	-0.671143	-18.442649	-75.192330	-62.897732
50185		9.381393	-0.800748	2.425865	-0.000048	0.047421	-0.026261	-1.213379	0.728516	-0.662842	-18.349441	-75.168685	-62.992242
50186		9.496772	-0.825092	2.473344	0.004724	0.054618	-0.025949	-1.222900	0.715820	-0.677490	-18.251220	-75.144264	-63.089302
50187		9.421202	-0.780890	2.512036	0.002931	0.058750	-0.034798	-1.206055	0.714355	-0.675293	-18.131826	-75.115906	-63.209164
50188		9.440779	-0.775972	2.490032	0.000560	0.057609	-0.028634	-1.215576	0.728271	-0.672119	-18.029199	-75.090238	-63.313277
50189		9.404995	-0.736087	2.515228	0.002710	0.056953	-0.024298	-1.212402	0.727295	-0.675293	-17.933424	-75.060898	-63.408859
50190		9.451456	-0.753789	2.489972	-0.002593	0.050576	-0.016765	-1.208984	0.719971	-0.674805	-17.862162	-75.036889	-63.482403
50191		9.445646	-0.842742	2.506666	-0.000469	0.051020	-0.015719	-1.213135	0.721680	-0.667236	-17.790214	-75.009225	-63.555230
50192		9.484359	-0.844548	2.498615	0.002086	0.061053	-0.026337	-1.216064	0.724365	-0.681641	-17.690472	-74.981118	-63.655502
50193		9.423308	-0.775437	2.485520	-0.000660	0.064712	-0.029421	-1.221680	0.723145	-0.670898	-17.582585	-74.948303	-63.765678
50194		9.469619	-0.792014	2.461721	0.002235	0.071033	-0.034092	-1.216553	0.721924	-0.674805	-17.461449	-74.915981	-63.888049
50195		9.439413	-0.774878	2.512801	0.004352	0.071472	-0.033049	-1.215576	0.715576	-0.682617	-17.340052	-74.879990	-64.009282
50196		9.515898	-0.786918	2.534894	0.005586	0.076445	-0.030101	-1.206055	0.718750	-0.675293	-17.222736	-74.843895	-64.125746
50197		9.542898	-0.797597	2.498336	0.004350	0.084664	-0.034168	-1.205322	0.719238	-0.677002	-17.092048	-74.800748	-64.256654
50198		9.573841	-0.838724	2.528767	0.005805	0.091400	-0.041748	-1.206543	0.728027	-0.675049	-16.943189	-74.758273	-64.405724
50199		9.757258	-0.802887	2.596119	0.009392	0.111798	-0.049375	-1.213135	0.726074	-0.676270	-16.764219	-74.702606	-64.583750
50200		9.799328	-0.843140	2.530016	0.011893	0.127819	-0.050661	-1.211426	0.718750	-0.673340	-16.574187	-74.641370	-64.771970
50201		10.024472	-0.859996	2.565439	0.015068	0.148559	-0.037841	-1.210449	0.728516	-0.682129	-16.396106	-74.563346	-64.945818
50202		12.211183	-0.512880	2.730197	0.002832	0.194509	0.024887	-1.213867	0.717285	-0.685303	-16.325488	-74.452985	-65.015658
50203		11.981746	-0.787105	2.661183	-0.012648	0.375868	0.106303	-1.208740	0.721924	-0.684326	-16.319179	-74.226669	-65.027825
50204		10.803249	-0.709525	2.702094	-0.015737	0.453377	0.138446	-1.196777	0.721436	-0.690430	-16.334071	-73.955668	-65.019955
50205		11.634525	-0.481366	2.824528	-0.021153	0.509388	0.193529	-1.193604	0.726074	-0.690430	-16.423075	-73.641910	-64.937972
50206		12.922107	-0.436748	2.922325	-0.036371	0.604702	0.300093	-1.178955	0.735352	-0.691895	-16.661766	-73.261418	-64.708942
50207		14.293784	-1.235001	2.737121	-0.048595	0.785785	0.358118	-1.175781	0.733643	-0.698975	-16.901225	-72.768723	-64.485727
50208		14.478916	-1.767395	2.611875	-0.020210	1.064332	0.328296	-1.163086	0.731689	-0.702881	-16.916377	-72.131159	-64.480205
50209		13.939380	-1.145786	2.784029	0.003161	1.307745	0.322471	-1.150146	0.732666	-0.711670	-16.786716	-71.358207	-64.612890
50210		13.533258	-0.464584	2.913074	-0.001582	1.490479	0.404640	-1.128906	0.730713	-0.714111	-16.713517	-70.474238	-64.689510
50211		13.293946	-0.133883	2.998622	-0.007201	1.637052	0.560278	-1.114990	0.743164	-0.720459	-16.813694	-69.481406	-64.585322
50212		13.538629	-0.077403	2.992468	-0.029136	1.786981	0.715574	-1.104248	0.750488	-0.739014	-17.069885	-68.383100	-64.326867
50213		13.957340	-0.639863	2.823568	-0.042059	1.978753	0.827944	-1.078857	0.752441	-0.743164	-17.376350	-67.157786	-64.019803
50214		14.149246	-1.530451	2.660813	-0.026473	2.221702	0.870286	-1.051025	0.760498	-0.749023	-17.601434	-65.794440	-63.789031
50215		14.907898	-2.044165	2.463680	0.018781	2.511728	0.859283	-1.024414	0.754395	-0.760742	-17.657808	-64.272127	-63.712892
50216		15.688350	-1.777491	2.576919	0.072500	2.856477	0.844785	-0.996826	0.764160	-0.771973	-17.545646	-62.566352	-63.789956
50217		16.383870	-1.114300	2.721434	0.104710	3.197253	0.861365	-0.952393	0.766113	-0.780762	-17.336944	-60.669445	-63.956858
50218		16.457481	-0.451367	3.143130	0.104216	3.522157	0.943536	-0.920166	0.769043	-0.790771	-17.134648	-58.582439	-64.120131
50219		15.833793	0.133258	3.874693	0.061275	3.778486	1.056424	-0.873047	0.774902	-0.798340	-17.006796	-56.334410	-64.227932
50220		14.952928	-0.044094	5.017296	-0.033170	3.906118	1.222992	-0.834473	0.771240	-0.806885	-17.043926	-53.989883	-64.203795
50221		12.973217	-1.345128	6.036584	-0.126408	3.862532	1.462847	-0.786865	0.788818	-0.811768	-17.306960	-51.627658	-63.962154
50222		11.684780	-3.798918	5.614786	-0.152791	3.553672	1.903429	-0.741699	0.787354	-0.812256	-17.905534	-49.357634	-63.297758
50223		11.805756	-5.290031	5.188240	-0.067646	3.285200	2.480362	-0.698975	0.790283	-0.817871	-18.788487	-47.123537	-62.163731
50224		11.954585	-5.912975	4.834654	0.094000	3.071070	2.968062	-0.649902	0.793457	-0.822021	-19.792792	-44.901417	-60.690971
50225		11.836645	-5.033622	3.728831	0.317536	2.977300	3.160070	-0.598633	0.786377	-0.810303	-20.671552	-42.674761	-59.156091
50226		11.841605	-4.416455	2.592226	0.555870	3.005883	3.160974	-0.553223	0.789307	-0.819824	-21.302553	-40.418631	-57.722164
50227		8.817155	-2.938380	1.843366	0.754777	3.012480	3.004587	-0.505371	0.774170	-0.811523	-21.662079	-38.182799	-56.469816
50228		2.809469	-2.615668	-0.080551	0.907600	2.806591	2.598574	-0.469482	0.762939	-0.815918	-21.737585	-36.138817	-55.481206
50229		-0.178364	-2.444265	-1.431984	1.087435	2.411230	1.849476	-0.426270	0.753662	-0.816650	-21.450650	-34.465439	-54.897612
50230		-6.734985	-3.207269	-7.349336	1.317298	1.674967	1.123001	-0.412598	0.738281	-0.828369	-20.864061	-33.338880	-54.593051
50231		-5.969641	-1.404348	-2.116994	1.591463	0.711744	0.366386	-0.400879	0.731445	-0.833740	-19.986718	-32.884630	-54.528564
50232		-1.047230	-0.311627	-1.228782	1.605701	-0.266640	-0.041868	-0.410889	0.710449	-0.842041	-19.082901	-33.037270	-54.495710
50233		3.944317	-1.667477	-2.384461	1.643202	-0.861567	-0.165375	-0.425781	0.693359	-0.850098	-18.185184	-33.536319	-54.414851
50234		4.197730	-1.675107	-2.102940	1.742867	-1.126007	-0.337310	-0.435791	0.683594	-0.851074	-17.192254	-34.210296	-54.401638
50235		5.340115	-1.575970	-1.959829	1.839530	-1.210346	-0.436054	-0.449219	0.662354	-0.866943	-16.109661	-34.947765	-54.451303
50236		5.644528	-1.197495	-1.600207	1.908477	-1.195881	-0.503755	-0.456543	0.648926	-0.871094	-14.946736	-35.685778	-54.568478
50237		4.987001	-0.630445	-1.412277	1.931481	-1.168013	-0.560476	-0.479736	0.642578	-0.893311	-13.733862	-36.415730	-54.748450
50238		4.076675	-0.033242	-1.344768	1.899713	-1.214594	-0.629806	-0.500732	0.625732	-0.900391	-12.498217	-37.175897	-54.991328
50239		3.470578	0.416214	-1.234254	1.814509	-1.331850	-0.704423	-0.513916	0.605469	-0.917725	-11.275150	-38.008285	-55.291529
50240		3.344811	0.910023	-1.122875	1.666076	-1.516167	-0.733037	-0.536865	0.584961	-0.931641	-10.118210	-38.940332	-55.613994
50241		3.467715	1.248779	-0.922566	1.468197	-1.727666	-0.697584	-0.552979	0.582031	-0.934570	-9.088012	-39.985938	-55.910707
50242		3.471186	1.507504	-0.743458	1.236743	-1.954838	-0.661229	-0.584717	0.573975	-0.937500	-8.200270	-41.150648	-56.183502
50243		3.566185	1.723762	-0.455793	0.962127	-2.205241	-0.624516	-0.614258	0.563965	-0.937500	-7.485489	-42.454470	-56.427973
50244		4.297555	1.816152	-0.107542	0.669548	-2.439215	-0.573467	-0.640137	0.562500	-0.953125	-6.958222	-43.882687	-56.635415
50245		5.177715	1.721153	0.230726	0.369497	-2.621003	-0.534724	-0.671387	0.560303	-0.957520	-6.620345	-45.413774	-56.813872
50246		5.772971	1.435730	0.571863	0.071333	-2.765941	-0.492331	-0.700195	0.564697	-0.948730	-6.472809	-47.020789	-56.959252
50247		6.373261	1.229344	0.787617	-0.211662	-2.884153	-0.440381	-0.737305	0.576904	-0.946777	-6.522385	-48.695304	-57.054705
50248		7.069904	0.858316	1.044300	-0.472930	-2.974195	-0.377172	-0.771973	0.589355	-0.951660	-6.770033	-50.413372	-57.083149
50249		7.809803	0.566683	1.281610	-0.713275	-3.027863	-0.305071	-0.812744	0.603027	-0.942139	-7.224427	-52.161072	-57.023259
50250		8.354133	0.217088	1.472443	-0.924206	-3.063205	-0.230100	-0.848633	0.616211	-0.939209	-7.883902	-53.918692	-56.858589
50251		8.917978	-0.091035	1.630522	-1.114452	-3.087738	-0.149981	-0.881836	0.629883	-0.930908	-8.763410	-55.686547	-56.562430
50252		9.489542	-0.390307	1.815077	-1.265214	-3.106187	-0.110388	-0.918701	0.652100	-0.915527	-9.826075	-57.453576	-56.155816
50253		9.964883	-0.812506	1.957479	-1.377232	-3.117186	-0.115555	-0.947021	0.673096	-0.898926	-11.032411	-59.227374	-55.664434
50254		10.388737	-1.258078	2.200556	-1.442978	-3.134938	-0.161528	-0.993652	0.700684	-0.882813	-12.331034	-61.005610	-55.118411
50255		10.825961	-1.508940	2.679901	-1.467397	-3.150792	-0.270526	-1.017822	0.718750	-0.862061	-13.647839	-62.805164	-54.577678
50256		10.994246	-1.436287	3.372041	-1.480127	-3.161701	-0.449277	-1.065186	0.748291	-0.843750	-14.891283	-64.624794	-54.134936
50257		11.537766	-1.471338	4.277119	-1.499319	-3.186568	-0.608369	-1.101807	0.757813	-0.821777	-16.083096	-66.483166	-53.768334
50258		12.328876	-1.619433	5.505438	-1.522991	-3.170629	-0.794722	-1.138672	0.780518	-0.799805	-17.151902	-68.354729	-53.554127
50259		12.978695	-2.001420	7.052650	-1.536413	-3.110506	-0.983129	-1.175781	0.793701	-0.774658	-18.036359	-70.229603	-53.548543
50260		13.663969	-2.824059	8.826614	-1.528375	-3.022892	-1.115016	-1.213867	0.820557	-0.740723	-18.731933	-72.075292	-53.737136
50261		13.954146	-3.714430	10.673696	-1.466949	-2.888576	-1.156676	-1.251465	0.828613	-0.711182	-19.286249	-73.861342	-54.035190
50262		14.062951	-4.606282	12.429430	-1.351330	-2.709142	-1.063957	-1.279053	0.832031	-0.693604	-19.856692	-75.528723	-54.244775
50263		13.974009	-5.486709	13.986513	-1.183074	-2.491056	-0.820609	-1.309082	0.851074	-0.677734	-20.757001	-77.035005	-54.014509
50264		13.539981	-5.948468	15.183977	-0.959877	-2.217053	-0.516263	-1.338379	0.853027	-0.645264	-22.169039	-78.326131	-53.130469
50265		12.897105	-6.053238	16.014389	-0.700570	-1.890259	-0.252055	-1.356934	0.858887	-0.630615	-24.054634	-79.382252	-51.616470
50266		38.960225	-5.205340	22.669476	-0.371488	-1.347398	-0.260127	-1.356934	0.866943	-0.628662	-25.295961	-80.146734	-50.569665
50267		13.648958	-4.159165	20.808627	-0.416081	1.431773	0.097502	-1.352051	0.880371	-0.632813	-23.923244	-79.379093	-52.205376
50268		3.203973	-1.385526	19.059648	-0.122344	1.818877	0.103280	-1.334961	0.878174	-0.639160	-22.186397	-78.397585	-54.045046
50269		12.981086	2.662337	28.561372	-0.409270	2.321521	0.258712	-1.324463	0.885986	-0.658447	-20.807302	-77.105230	-55.694554
50270		-22.539853	3.336700	34.341554	0.163699	1.301366	-0.164180	-1.310059	0.876953	-0.664551	-19.245721	-76.437494	-57.200581
50271		17.700383	-0.505309	0.137727	0.043684	0.201665	0.188196	-1.314941	0.885254	-0.669434	-19.472998	-76.289501	-56.938907
50272		10.364370	0.633070	2.766841	0.032735	-0.296618	-0.064893	-1.319092	0.878662	-0.665039	-19.538326	-76.462753	-56.850647
50273		10.441890	-0.285682	2.311354	-0.072731	-0.166581	-0.000428	-1.319336	0.883789	-0.661865	-19.703088	-76.549708	-56.721993
50274		10.609269	-0.634728	1.730898	-0.022433	-0.008893	0.106003	-1.312500	0.877197	-0.659180	-19.956438	-76.534544	-56.472965
50275		9.335019	-0.653042	2.357134	-0.012464	0.061323	0.155458	-1.311035	0.887207	-0.664795	-20.252011	-76.467984	-56.174255
50276		9.302491	-0.933321	2.264555	-0.044900	0.062381	0.121631	-1.314209	0.882813	-0.656982	-20.491587	-76.410872	-55.952531
50277		9.791225	-0.803724	2.064873	-0.032839	0.089211	0.100544	-1.303223	0.886475	-0.654297	-20.649111	-76.339848	-55.807711
50278		9.322277	-0.926109	2.297641	-0.012367	0.108414	0.107820	-1.308350	0.897461	-0.661133	-20.797684	-76.260551	-55.660339
50279		8.848552	-1.066151	2.398877	-0.004489	0.067082	0.055218	-1.306885	0.885498	-0.665039	-20.855539	-76.210481	-55.601321
50280		9.385620	-1.004156	2.149414	0.003277	0.047121	0.021931	-1.302979	0.885254	-0.657227	-20.856998	-76.181440	-55.596142
50281		9.271476	-0.961330	2.284266	0.017103	0.050269	-0.008909	-1.303223	0.888916	-0.665771	-20.776737	-76.153436	-55.666615
50282		9.244179	-0.885594	2.309390	0.019333	0.030345	-0.030535	-1.309326	0.882568	-0.657959	-20.669019	-76.144025	-55.764407
50283		9.459371	-0.815070	2.293937	0.019156	0.022961	-0.036336	-1.304199	0.884521	-0.657959	-20.550879	-76.136143	-55.872697
50284		9.549556	-0.709247	2.336477	0.018726	0.024075	-0.028537	-1.301025	0.889648	-0.665283	-20.453209	-76.129606	-55.960504
50285		9.491458	-0.742868	2.277837	0.016722	0.027621	-0.006560	-1.299561	0.892578	-0.666260	-20.397627	-76.113200	-56.005800
50286		9.477604	-0.758845	2.292921	0.013957	0.028877	0.004171	-1.312256	0.883545	-0.669678	-20.370057	-76.097513	-56.024219
50287		9.470555	-0.793027	2.292021	0.011490	0.024116	0.011122	-1.298096	0.884521	-0.666504	-20.358797	-76.079471	-56.026946
50288		9.456184	-0.759489	2.326054	0.005844	0.026135	0.016139	-1.307129	0.881592	-0.673096	-20.364073	-76.062869	-56.016316
50289		9.449797	-0.790625	2.282940	-0.003786	0.025760	0.018625	-1.303955	0.884033	-0.659668	-20.376459	-76.042463	-56.003696
50290		9.435847	-0.808933	2.297497	-0.010826	0.023694	0.017593	-1.306885	0.884033	-0.659180	-20.396329	-76.026880	-55.987869
50291		9.448102	-0.849801	2.310046	-0.009135	0.021759	0.019861	-1.310547	0.887695	-0.670654	-20.417575	-76.008389	-55.969273
50292		9.409395	-0.892314	2.264094	-0.006164	0.008595	0.012692	-1.305420	0.886230	-0.665771	-20.436249	-76.001891	-55.951922
50293		9.421644	-0.881113	2.294474	-0.002382	0.004603	0.006118	-1.304199	0.895264	-0.662842	-20.437766	-75.995373	-55.949672
50294		9.415433	-0.859779	2.268688	0.005093	0.005546	-0.000650	-1.299561	0.885254	-0.670654	-20.423702	-75.993180	-55.959414
50295		9.460391	-0.835900	2.300801	0.006712	0.005597	-0.005007	-1.307129	0.890381	-0.672607	-20.395310	-75.988365	-55.982622
50296		9.479161	-0.789490	2.334763	0.007894	0.006767	-0.001563	-1.306885	0.881836	-0.669434	-20.376712	-75.985696	-55.995384
50297		9.459745	-0.784393	2.321114	0.004274	-0.000152	0.005258	-1.299805	0.889893	-0.667725	-20.376420	-75.981932	-55.991070
50298		9.446389	-0.801307	2.333620	0.003510	0.004502	0.007018	-1.308838	0.885254	-0.667480	-20.380610	-75.978768	-55.982933
50299		9.439844	-0.835761	2.330391	-0.004211	0.001640	0.007870	-1.299072	0.886475	-0.661133	-20.389353	-75.973533	-55.974316
50300		9.428030	-0.844597	2.258704	0.000027	0.002479	0.009815	-1.298584	0.886230	-0.658936	-20.403158	-75.970895	-55.958325
50301		9.427066	-0.849565	2.301236	0.000164	0.007376	0.005791	-1.313232	0.879639	-0.659424	-20.400348	-75.963009	-55.959033
50302		9.439353	-0.837532	2.331744	0.004121	0.007287	-0.001492	-1.302246	0.887939	-0.659668	-20.383671	-75.960048	-55.972045
50303		9.459278	-0.838250	2.304517	0.005985	0.009257	0.000067	-1.306641	0.883545	-0.666992	-20.363763	-75.952305	-55.986940
50304		9.452192	-0.820885	2.321290	0.006448	0.010618	0.002082	-1.306641	0.882080	-0.661377	-20.350789	-75.946840	-55.994760
50305		9.465122	-0.804590	2.310360	0.009203	0.016301	0.004358	-1.299805	0.882813	-0.665771	-20.332683	-75.934470	-56.005900
50306		9.445886	-0.850525	2.278504	0.006158	0.013160	-0.000646	-1.303467	0.879639	-0.661865	-20.312033	-75.928180	-56.021806
50307		9.471213	-0.821985	2.297687	0.006320	0.020534	0.005143	-1.300049	0.891357	-0.668213	-20.293965	-75.913393	-56.034610
50308		9.470674	-0.822066	2.299879	0.008113	0.024487	0.000074	-1.300049	0.896240	-0.669434	-20.264822	-75.900870	-56.058119
50309		9.469237	-0.826199	2.344442	0.006202	0.026978	0.001701	-1.308105	0.879883	-0.661377	-20.234467	-75.883315	-56.083665
50310		9.469393	-0.822027	2.305159	0.007091	0.030688	0.002415	-1.299316	0.883789	-0.662842	-20.206138	-75.866989	-56.106943
50311		9.448488	-0.821200	2.336212	0.006834	0.032237	0.002999	-1.302490	0.885010	-0.668701	-20.174209	-75.846355	-56.133743
50312		9.421491	-0.798834	2.341242	0.004633	0.037268	0.001895	-1.308838	0.878418	-0.669922	-20.141166	-75.826586	-56.163338
50313		9.453737	-0.838812	2.326941	0.002884	0.028852	0.003776	-1.304932	0.889160	-0.661377	-20.115959	-75.807626	-56.185544
50314		9.426833	-0.816638	2.331525	0.001655	0.032142	0.003515	-1.307617	0.887207	-0.660400	-20.092207	-75.790289	-56.207319
50315		9.439311	-0.800606	2.322501	0.003258	0.035659	0.005658	-1.302734	0.890137	-0.666260	-20.065636	-75.767305	-56.230716
50316		9.444417	-0.822668	2.352100	0.002827	0.033306	0.006955	-1.306152	0.889160	-0.666748	-20.047726	-75.748661	-56.245776
50317		9.443611	-0.823245	2.355134	-0.000436	0.030725	0.005848	-1.301758	0.883545	-0.661621	-20.027620	-75.728305	-56.264691
50318		9.416671	-0.801453	2.359665	0.000993	0.030342	0.008706	-1.304199	0.886719	-0.664795	-20.016832	-75.710911	-56.273488
50319		9.448907	-0.842221	2.345256	-0.000207	0.032640	0.011757	-1.300049	0.886230	-0.668945	-20.007692	-75.688376	-56.280953
50320		9.461370	-0.826898	2.336154	0.001192	0.033246	0.011301	-1.296143	0.887695	-0.665283	-20.000081	-75.668909	-56.286356
50321		9.498950	-0.838125	2.367732	0.000650	0.037334	0.009153	-1.295898	0.883301	-0.662842	-19.981443	-75.644370	-56.303120
50322		9.400709	-0.817533	2.342968	0.005767	0.041874	0.011819	-1.303955	0.888184	-0.668457	-19.965765	-75.620154	-56.314145
50323		9.478101	-0.885828	2.342145	0.002221	0.041834	0.007978	-1.293213	0.884766	-0.682373	-19.940462	-75.593433	-56.336865
50324		9.417815	-0.824051	2.365119	0.010196	0.043131	0.006557	-1.294922	0.886230	-0.670654	-19.910387	-75.569566	-56.360138
50325		9.620028	-0.876414	2.327381	0.009057	0.055761	0.005439	-1.291504	0.881104	-0.665283	-19.865546	-75.535842	-56.398996
50326		9.488216	-0.921118	2.325695	0.013018	0.071439	-0.006136	-1.292480	0.882324	-0.669678	-19.786334	-75.499174	-56.471356
50327		9.486524	-0.919698	2.333146	0.010915	0.083318	-0.017922	-1.292725	0.892090	-0.670166	-19.671825	-75.455097	-56.581099
50328		9.490477	-0.938507	2.368079	0.010450	0.095236	-0.034064	-1.291016	0.885010	-0.664551	-19.519468	-75.410878	-56.730581
50329		9.521043	-0.922832	2.379882	0.009961	0.108129	-0.053532	-1.294922	0.886719	-0.663086	-19.315259	-75.360042	-56.933643
50330		9.459674	-0.854391	2.408675	0.005963	0.105203	-0.072543	-1.291260	0.878662	-0.678711	-19.080859	-75.317420	-57.170651
50331		9.575183	-0.869320	2.420527	0.005547	0.114125	-0.078765	-1.297607	0.884033	-0.675781	-18.825752	-75.267630	-57.429046
50332		9.658900	-0.945048	2.412019	0.009163	0.120455	-0.102067	-1.290527	0.879883	-0.674072	-18.521070	-75.221597	-57.736938
50333		9.753580	-0.848699	2.450183	0.018317	0.132669	-0.120685	-1.290527	0.877930	-0.673828	-18.163536	-75.168597	-58.093837
50334		9.874134	-0.773217	2.488152	0.024298	0.137374	-0.123839	-1.291748	0.876953	-0.679199	-17.798436	-75.116250	-58.455411
50335		10.342363	-0.790303	2.488391	0.036786	0.158959	-0.152050	-1.298828	0.878662	-0.681885	-17.354312	-75.053119	-58.891163
50336		10.833249	-0.383338	2.648714	0.041159	0.194462	-0.163489	-1.290039	0.874268	-0.675781	-16.868631	-74.974794	-59.367779
50337		16.928330	-0.859170	2.754241	0.024496	0.267770	-0.015140	-1.286621	0.877441	-0.680664	-16.651983	-74.827784	-59.575590
50338		19.959587	-1.368951	2.595435	-0.010320	0.831937	0.106241	-1.284912	0.873047	-0.687256	-16.372978	-74.354066	-59.869373
50339		15.111144	-1.938933	2.340549	0.027649	1.264841	0.098832	-1.272705	0.877197	-0.698486	-15.838637	-73.639614	-60.406730
50340		14.912037	-0.787479	2.620673	0.039865	1.457853	0.128282	-1.256104	0.882813	-0.704834	-15.301940	-72.815817	-60.941634
50341		16.159514	-0.574557	2.591446	0.050378	1.693959	0.242660	-1.245850	0.878906	-0.724854	-14.894610	-71.840158	-61.336810
50342		15.935295	-0.834309	2.406827	0.058364	1.962319	0.344991	-1.224121	0.874023	-0.725830	-14.576950	-70.703091	-61.635117
50343		16.889726	-1.224195	2.224812	0.093833	2.254178	0.379241	-1.202393	0.875732	-0.729492	-14.212820	-69.395892	-61.963233
50344		17.570070	-1.984325	1.926099	0.154681	2.633716	0.335761	-1.175537	0.879639	-0.749268	-13.667840	-67.885518	-62.451377
50345		18.088608	-2.430098	1.620721	0.239620	3.048681	0.293721	-1.148926	0.875977	-0.767090	-12.963432	-66.145073	-63.065298
50346		18.740063	-2.437572	1.595685	0.330232	3.499626	0.269204	-1.117188	0.876465	-0.789307	-12.153981	-64.154865	-63.746836
50347		18.702224	-2.431546	1.818197	0.408545	3.924823	0.335988	-1.073242	0.865967	-0.799072	-11.385050	-61.912718	-64.344862
50348		17.554929	-1.458936	2.937649	0.438053	4.243536	0.501734	-1.038574	0.865967	-0.818359	-10.799749	-59.471955	-64.726176
50349		14.706072	-1.759497	4.254740	0.369473	4.325266	0.830967	-0.989990	0.856934	-0.829590	-10.597627	-56.947638	-64.713011
50350		10.560512	-2.687146	5.114843	0.343138	3.976459	1.398905	-0.938477	0.857422	-0.849121	-10.929538	-54.560152	-64.071706
50351		10.750906	-3.184776	4.700335	0.423186	3.547214	1.699425	-0.895264	0.860596	-0.858643	-11.441833	-52.376839	-63.130691
50352		12.764132	-2.313751	3.651950	0.555117	3.515348	1.483549	-0.851563	0.856934	-0.871826	-11.657128	-50.233767	-62.445237
50353		11.002364	-1.862937	1.928789	0.648815	3.617718	1.197326	-0.806152	0.848877	-0.869873	-11.577674	-48.065053	-62.057085
50354		3.859728	-1.661871	-0.197933	0.710490	3.415207	1.045212	-0.779541	0.837402	-0.888184	-11.379931	-46.028749	-61.768744
50355		-1.355108	-2.796908	-2.205939	0.800724	2.753697	0.914534	-0.741943	0.841064	-0.881836	-11.126853	-44.379295	-61.477198
50356		-0.798548	-3.413942	-4.506435	0.970879	1.974895	0.774336	-0.714111	0.825195	-0.891357	-10.779317	-43.184577	-61.173058
50357		3.907230	-3.298434	-3.883085	1.220719	1.380261	0.719698	-0.699707	0.807861	-0.892822	-10.319615	-42.332061	-60.818699
50358		1.620784	-0.980275	-1.260528	1.348513	1.042434	0.730647	-0.683105	0.792480	-0.898193	-9.821477	-41.671273	-60.405936
50359		3.142601	-0.040783	-2.774374	1.340507	0.389774	0.728998	-0.676270	0.792969	-0.913330	-9.384243	-41.382270	-59.906002
50360		3.008824	0.671613	-2.420949	1.312531	-0.010991	0.513943	-0.683594	0.770508	-0.910645	-8.886488	-41.342200	-59.518657
50361		4.480411	0.958325	-2.152695	1.267422	-0.240148	0.180781	-0.678467	0.759033	-0.920410	-8.267818	-41.464162	-59.355168
50362		5.100022	0.679801	-1.955703	1.210954	-0.332836	-0.123430	-0.683838	0.739502	-0.921875	-7.532523	-41.663215	-59.415120
50363		4.738619	0.533417	-1.833548	1.142621	-0.412774	-0.294794	-0.692139	0.737061	-0.928223	-6.753331	-41.920818	-59.600943
50364		4.236679	0.277679	-1.861337	1.047724	-0.567941	-0.333565	-0.707764	0.734131	-0.932861	-6.011502	-42.265868	-59.809541
50365		4.055293	0.133878	-1.851820	0.939308	-0.761768	-0.264020	-0.716797	0.718750	-0.940430	-5.374004	-42.717655	-59.955491
50366		4.155481	0.183047	-1.766293	0.823319	-0.968686	-0.196690	-0.726318	0.716064	-0.942627	-4.841014	-43.280891	-60.042832
50367		4.280710	0.332329	-1.586307	0.694674	-1.167409	-0.165669	-0.742188	0.711670	-0.944580	-4.403065	-43.958219	-60.099613
50368		4.500734	0.516084	-1.347168	0.550083	-1.360630	-0.172436	-0.760254	0.712646	-0.946533	-4.044981	-44.743338	-60.158565
50369		4.511223	0.758196	-1.113400	0.387498	-1.554977	-0.207709	-0.787842	0.710938	-0.947266	-3.763265	-45.643785	-60.241549
50370		4.688587	0.932167	-0.831916	0.208578	-1.757742	-0.261291	-0.810547	0.709961	-0.946533	-3.552321	-46.658763	-60.365982
50371		5.130916	0.997998	-0.581983	0.016559	-1.948920	-0.301044	-0.832764	0.717285	-0.939209	-3.428821	-47.787788	-60.520049
50372		5.586591	0.695045	-0.367690	-0.174666	-2.132222	-0.287845	-0.870850	0.723877	-0.942871	-3.422809	-49.017496	-60.659644
50373		6.039262	0.503526	-0.109963	-0.362258	-2.304648	-0.231651	-0.900879	0.720703	-0.928955	-3.567494	-50.348008	-60.740758
50374		6.500882	0.502839	0.056207	-0.549748	-2.468539	-0.140035	-0.939697	0.731689	-0.909180	-3.894312	-51.764966	-60.723385
50375		6.826321	0.385852	0.119596	-0.734889	-2.628846	-0.053363	-0.971436	0.746582	-0.908936	-4.416195	-53.274316	-60.594987
50376		7.320191	0.227131	0.225284	-0.903656	-2.794246	-0.002883	-1.004639	0.760010	-0.889404	-5.112094	-54.870290	-60.372964
50377		8.034232	0.142616	0.545647	-1.051902	-2.930973	-0.007359	-1.038086	0.781738	-0.862549	-5.944088	-56.547552	-60.094127
50378		8.777916	-0.056502	0.793453	-1.191125	-3.040256	-0.050912	-1.076172	0.790527	-0.849365	-6.882382	-58.282260	-59.788594
50379		9.412208	-0.407662	1.085008	-1.301471	-3.121327	-0.095827	-1.113037	0.810059	-0.821289	-7.921191	-60.068611	-59.446020
50380		10.131611	-0.902917	1.345182	-1.382407	-3.187302	-0.121047	-1.151611	0.826904	-0.791992	-9.072519	-61.885454	-59.033352
50381		10.844564	-1.365108	1.705025	-1.426582	-3.224861	-0.141691	-1.184082	0.836182	-0.752441	-10.338932	-63.726601	-58.527379
50382		11.461831	-1.654642	2.258789	-1.436614	-3.233031	-0.171919	-1.219727	0.852051	-0.728760	-11.701590	-65.564168	-57.928613
50383		11.901770	-1.492136	3.090306	-1.452195	-3.222297	-0.246135	-1.250488	0.861328	-0.698242	-13.128419	-67.404055	-57.278952
50384		12.183684	-1.396406	4.152341	-1.493716	-3.198078	-0.345876	-1.283203	0.865234	-0.656494	-14.600699	-69.231080	-56.613913
50385		12.898090	-1.539534	5.569827	-1.561552	-3.135360	-0.485354	-1.309082	0.883545	-0.628174	-16.067878	-71.043661	-56.004251
50386		13.616109	-2.236771	7.250965	-1.621179	-3.010974	-0.636654	-1.336670	0.884033	-0.588379	-17.445990	-72.801325	-55.530030
50387		14.335770	-3.331835	9.034183	-1.660357	-2.834906	-0.712254	-1.366455	0.898438	-0.551758	-18.797547	-74.478246	-55.111853
50388		14.669615	-4.246074	11.057449	-1.651156	-2.613587	-0.668150	-1.392822	0.894531	-0.516602	-20.269875	-76.018174	-54.565988
50389		14.522240	-5.078843	12.873576	-1.620455	-2.365307	-0.498248	-1.406006	0.903320	-0.484131	-22.148448	-77.390427	-53.588642
50390		13.746535	-5.695558	14.562622	-1.532445	-2.097773	-0.239266	-1.426270	0.906982	-0.458008	-24.671316	-78.548705	-51.905257
50391		12.752524	-6.104020	15.706940	-1.393465	-1.817385	0.037063	-1.444580	0.920166	-0.429199	-27.948695	-79.477124	-49.378930
50392		11.797846	-6.194302	16.333956	-1.204706	-1.517372	0.268157	-1.442383	0.920166	-0.407471	-31.785227	-80.155584	-46.180661
50393		11.023593	-6.307029	16.712704	-0.970861	-1.191026	0.420226	-1.460205	0.930176	-0.392090	-35.763421	-80.591678	-42.708712
50394		28.477389	-3.361582	24.877663	-0.669509	0.460568	-0.280192	-1.456299	0.930176	-0.385010	-34.443860	-80.468956	-44.433683
50395		11.073707	-5.162147	15.606328	-0.407335	1.251986	-0.460867	-1.453369	0.917480	-0.389648	-31.127769	-80.009307	-48.033835
50396		8.746029	-0.998471	19.946778	-0.181976	2.059792	-1.150615	-1.447998	0.919434	-0.408936	-25.001130	-79.277718	-54.365879
50397		12.542841	3.731761	20.292655	-0.385398	2.763675	-0.261986	-1.439209	0.927490	-0.430176	-21.444099	-77.879957	-58.218183
50398		13.905980	2.259722	22.941556	-0.873541	3.267597	-0.001396	-1.421631	0.923096	-0.447266	-19.123523	-76.124247	-61.111380
50399		-11.118493	5.712391	7.629762	0.124079	0.215111	-0.396049	-1.432129	0.913818	-0.447998	-18.017573	-76.076868	-62.175530
