// General information: 
//  MT Manager version: 2022.2.0 
//  XDA version: 2022.2.0 build 7381 rev 124627 built on 2023-07-19
// Device information: 
//  DeviceId: 00B4C223
//  ProductCode: MTW2-3A7G6
//  Firmware Version: 4.6.0
//  Hardware Version: 2.0.0
// Device settings: 
//  Filter Profile: human(46.1)
//  Option Flags: Orientation Smoother Disabled, Position/Velocity Smoother Disabled, Continuous Zero Rotation Update Disabled, AHS Disabled, ICC Disabled
// Coordinate system: ENU
PacketCounter	SampleTimeFine	Acc_X	Acc_Y	Acc_Z	Gyr_X	Gyr_Y	Gyr_Z	Mag_X	Mag_Y	Mag_Z	Roll	Pitch	Yaw
64062		9.410231	-0.782364	2.324819	-0.001807	0.000663	0.001014	-1.001709	0.489502	-0.627686	-18.074462	-77.108833	-65.476692
64063		9.422094	-0.803853	2.282385	-0.003565	-0.001738	0.004175	-1.004395	0.499268	-0.625000	-18.083902	-77.106361	-65.467678
64064		9.416151	-0.793625	2.303474	-0.001112	0.000173	0.002412	-1.000000	0.485352	-0.624268	-18.084175	-77.106361	-65.466577
64065		9.449580	-0.788348	2.309923	-0.005835	-0.001959	0.002960	-1.004150	0.489746	-0.623535	-18.092232	-77.104185	-65.460317
64066		9.425905	-0.765486	2.319881	0.001342	0.002084	0.000649	-1.003418	0.488037	-0.621582	-18.085420	-77.103457	-65.465042
64067		9.422011	-0.804895	2.282360	-0.002040	0.002037	0.001845	-0.997070	0.492676	-0.616455	-18.085545	-77.099261	-65.464688
64068		9.410119	-0.783853	2.324772	-0.001574	-0.000710	0.000183	-1.005371	0.488281	-0.623779	-18.081467	-77.100138	-65.468323
64069		9.467212	-0.801453	2.321309	-0.003382	-0.000047	0.001196	-1.005371	0.492676	-0.616455	-18.082466	-77.097153	-65.467862
64070		9.416048	-0.794697	2.303523	-0.004077	0.000443	-0.000202	-1.008057	0.481689	-0.625000	-18.078012	-77.097470	-65.473352
64071		9.431738	-0.776699	2.298903	-0.001807	0.000663	0.001014	-1.006836	0.497070	-0.624756	-18.077154	-77.094089	-65.473871
64072		9.443493	-0.778815	2.331371	-0.003615	0.001326	0.002028	-1.002930	0.492188	-0.629883	-18.077052	-77.093528	-65.474627
64073		9.488746	-0.794717	2.295644	-0.002919	0.000836	0.003426	-1.016113	0.486084	-0.632324	-18.082428	-77.089585	-65.469403
64074		9.427677	-0.797359	2.336312	-0.002553	0.004219	-0.002532	-1.008057	0.485352	-0.629395	-18.068640	-77.088260	-65.483574
64075		9.431515	-0.777489	2.299550	-0.003152	0.002209	0.004257	-1.012695	0.491943	-0.622314	-18.075083	-77.083383	-65.477393
64076		9.433469	-0.808314	2.315584	-0.000928	0.001864	-0.000567	-1.002686	0.486572	-0.613770	-18.066863	-77.082991	-65.484897
64077		9.443190	-0.779719	2.332295	-0.002041	0.002037	0.001845	-1.003662	0.499023	-0.619873	-18.067099	-77.078601	-65.484431
64078		9.421563	-0.806687	2.283575	-0.000466	0.002747	0.001663	-0.999268	0.492920	-0.621826	-18.063227	-77.077331	-65.487202
64079		9.454944	-0.801295	2.290275	-0.001112	0.000172	0.002412	-1.006104	0.489502	-0.619141	-18.065743	-77.073820	-65.483851
64080		9.415561	-0.796534	2.304878	-0.003382	-0.000047	0.001196	-1.006104	0.488525	-0.624268	-18.064598	-77.074156	-65.485539
64081		9.437217	-0.789279	2.278915	-0.001758	-0.002402	0.003161	-1.005371	0.493652	-0.624756	-18.071288	-77.071882	-65.478286
64082		9.448968	-0.791520	2.311343	-0.002274	0.003410	0.002676	-1.000244	0.486328	-0.622070	-18.070344	-77.070071	-65.479115
64083		9.431220	-0.779249	2.300164	-0.004724	-0.002131	0.000546	-1.009033	0.490723	-0.618164	-18.072344	-77.068086	-65.478418
64084		9.433248	-0.809974	2.315902	-0.004078	0.000443	-0.000202	-1.008545	0.491211	-0.622559	-18.067901	-77.068403	-65.483898
64085		9.464626	-0.773890	2.306753	-0.000466	0.002747	0.001663	-1.006592	0.494629	-0.625732	-18.066359	-77.063530	-65.484332
64086		9.437063	-0.790264	2.279213	-0.002041	0.002036	0.001845	-1.006348	0.488037	-0.621582	-18.064374	-77.062615	-65.486093
64087		9.425137	-0.769349	2.321721	-0.003615	0.001326	0.002027	-1.003906	0.486328	-0.624023	-18.066611	-77.058426	-65.484500
64088		9.415296	-0.798406	2.305314	-0.003153	0.002209	0.004257	-1.013916	0.486816	-0.619873	-18.070847	-77.056989	-65.480532
64089		9.448646	-0.793074	2.312126	-0.001161	0.003238	0.000265	-1.009766	0.482666	-0.623779	-18.066028	-77.052039	-65.484737
64090		9.448610	-0.793222	2.312219	-0.004957	-0.000758	0.001377	-1.005615	0.490479	-0.620361	-18.066767	-77.052730	-65.485417
64091		9.419084	-0.779018	2.268644	-0.002041	0.002036	0.001845	-1.010254	0.489014	-0.624023	-18.067145	-77.048124	-65.484807
64092		9.448574	-0.793647	2.312220	-0.004725	-0.002131	0.000546	-1.011475	0.490479	-0.625488	-18.066842	-77.049710	-65.486419
64093		9.436778	-0.791821	2.279852	-0.001161	0.003238	0.000265	-1.003418	0.491699	-0.615479	-18.062065	-77.044708	-65.490581
64094		9.430791	-0.781338	2.301212	-0.001808	0.000663	0.001013	-1.003662	0.489258	-0.620117	-18.059042	-77.044689	-65.493271
64095		9.460359	-0.815082	2.270115	-0.002503	0.001154	-0.000385	-1.008789	0.479736	-0.618164	-18.055127	-77.040915	-65.497337
64096		9.446447	-0.763464	2.296741	-0.003616	0.001326	0.002027	-1.008545	0.491943	-0.626953	-18.055027	-77.040355	-65.498090
64097		9.414973	-0.799999	2.306082	-0.002921	0.000835	0.003425	-1.003418	0.485840	-0.619385	-18.060640	-77.036059	-65.492625
64098		9.442458	-0.784025	2.333817	-0.003845	-0.000930	-0.001035	-1.010254	0.490234	-0.621826	-18.055167	-77.037272	-65.499026
64099		9.436600	-0.792885	2.280219	-0.000650	0.001054	0.004641	-1.012207	0.484619	-0.618408	-18.062199	-77.032611	-65.490770
64100		9.414875	-0.800874	2.306177	-0.003154	0.002208	0.004256	-1.008057	0.483643	-0.628418	-18.066428	-77.031174	-65.486809
64101		9.469924	-0.788084	2.286968	-0.000880	-0.001202	0.001580	-1.004150	0.491211	-0.629883	-18.068114	-77.028264	-65.484174
64102		9.434498	-0.763234	2.264475	-0.003383	-0.000048	0.001195	-1.005127	0.495850	-0.615479	-18.066974	-77.028599	-65.485858
64103		9.438485	-0.824712	2.296098	-0.002688	-0.000539	0.002593	-1.010254	0.480225	-0.627441	-18.071590	-77.025135	-65.481277
64104		9.436379	-0.775114	2.355027	-0.001808	0.000663	0.001013	-1.008301	0.486328	-0.619629	-18.068570	-77.025116	-65.483964
64105		9.430509	-0.783977	2.301472	-0.005191	0.000615	0.002208	-1.004639	0.484619	-0.619873	-18.072834	-77.021062	-65.481219
64106		9.430467	-0.784272	2.301543	0.002733	0.001101	0.003446	-1.008057	0.486328	-0.619385	-18.072625	-77.020372	-65.478351
64107		9.430463	-0.784367	2.301528	-0.006116	-0.001148	-0.002251	-0.992920	0.492188	-0.620605	-18.068249	-77.018051	-65.485014
64108		9.414774	-0.802342	2.306077	-0.002966	0.000272	-0.002615	-1.004395	0.495605	-0.619385	-18.057623	-77.018889	-65.496188
64109		9.448189	-0.796751	2.312727	-0.004311	0.001817	0.000629	-1.010742	0.486328	-0.625732	-18.056757	-77.014419	-65.498187
64110		9.451999	-0.757659	2.350578	-0.001808	0.000663	0.001013	-1.000488	0.491699	-0.626709	-18.053740	-77.014400	-65.500872
64111		9.420636	-0.813245	2.285075	-0.001113	0.000171	0.002411	-1.004150	0.492920	-0.618652	-18.056502	-77.010483	-65.497269
64112		9.412697	-0.772362	2.290365	-0.004263	-0.001250	0.002774	-0.999512	0.496826	-0.614014	-18.060523	-77.011193	-65.494174
64113		9.448114	-0.797651	2.312723	-0.001808	0.000663	0.001013	-1.005371	0.491699	-0.624268	-18.060032	-77.007242	-65.494316
64114		9.452060	-0.777895	2.275585	-0.001065	-0.002895	0.004557	-1.010498	0.486084	-0.623047	-18.067696	-77.008531	-65.485601
64115		9.397023	-0.791184	2.294558	-0.003613	-0.002302	-0.001867	-1.003906	0.489990	-0.617676	-18.063728	-77.006691	-65.490375
64116		9.448224	-0.798278	2.312058	-0.003335	-0.003114	0.003340	-1.001953	0.486084	-0.617676	-18.069989	-77.008316	-65.484435
64117		9.430530	-0.786047	2.300680	-0.003383	-0.000048	0.001195	-1.003906	0.483154	-0.624268	-18.071405	-77.004685	-65.483548
64118		9.446275	-0.768208	2.295863	-0.005606	-0.003333	0.002124	-1.006592	0.496094	-0.629150	-18.076264	-77.006645	-65.480382
64119		9.408968	-0.794190	2.325919	-0.000832	-0.004269	0.003725	-1.005371	0.491211	-0.615723	-18.085435	-77.004847	-65.470035
64120		9.424766	-0.776431	2.320869	-0.003103	-0.004487	0.002508	-1.004395	0.492432	-0.617188	-18.090660	-77.007368	-65.465022
64121		9.428761	-0.756580	2.283549	-0.003151	-0.001421	0.000363	-1.004395	0.488037	-0.619385	-18.091029	-77.004595	-65.465069
64122		9.446583	-0.769282	2.294237	-0.005788	-0.008654	0.001207	-1.008545	0.491943	-0.624023	-18.097936	-77.009616	-65.459909
64123		9.409359	-0.795277	2.323966	-0.003983	-0.005690	0.004087	-1.006592	0.486328	-0.625732	-18.110842	-77.008494	-65.447580
64124		9.486209	-0.774861	2.278318	-0.001758	-0.006032	-0.000736	-1.010254	0.497070	-0.625000	-18.108836	-77.012433	-65.449197
64125		9.433209	-0.818631	2.313015	-0.003151	-0.001421	0.000363	-1.004395	0.490234	-0.625000	-18.109186	-77.009634	-65.449263
64126		9.470649	-0.793046	2.282241	-0.004261	-0.004877	-0.001120	-0.999512	0.483887	-0.619141	-18.106815	-77.013012	-65.452726
64127		9.413643	-0.775606	2.285375	-0.000880	-0.001202	0.001579	-1.006348	0.490723	-0.628662	-18.108595	-77.009866	-65.449998
64128		9.441160	-0.759715	2.313047	-0.002688	-0.000540	0.002593	-1.009521	0.490967	-0.624756	-18.110740	-77.010221	-65.447902
64129		9.449081	-0.801083	2.307583	-0.001576	-0.000710	0.000181	-1.001465	0.489014	-0.626953	-18.109230	-77.007038	-65.448943
64130		9.453031	-0.781268	2.270389	-0.001065	-0.002897	0.004556	-1.003418	0.487549	-0.625000	-18.116897	-77.008327	-65.440225
64131		9.415731	-0.807138	2.300493	-0.006765	-0.003723	-0.001504	-1.005615	0.489258	-0.617676	-18.116710	-77.007078	-65.442985
64132		9.464922	-0.783761	2.302201	-0.003801	-0.000370	0.005004	-1.003662	0.495850	-0.615723	-18.125051	-77.006910	-65.435184
64133		9.396055	-0.764708	2.273109	-0.001760	-0.002405	0.003158	-1.003174	0.494873	-0.618652	-18.132032	-77.004107	-65.427605
64134		9.464960	-0.784520	2.301787	-0.004032	-0.002623	0.001942	-1.009033	0.486328	-0.620117	-18.135021	-77.005712	-65.425433
64135		9.415837	-0.808370	2.299625	-0.003151	-0.001421	0.000363	-1.003174	0.489990	-0.619873	-18.135402	-77.002855	-65.425470
64136		9.429571	-0.759763	2.279143	-0.001808	0.000662	0.001014	-1.009766	0.494629	-0.614746	-18.132388	-77.002836	-65.428150
64137		9.415824	-0.808771	2.299536	-0.001993	-0.001032	0.003990	-1.011230	0.483643	-0.619385	-18.140377	-76.999111	-65.419691
64138		9.486611	-0.777854	2.275623	-0.001808	0.000662	0.001014	-1.007813	0.486328	-0.619629	-18.137364	-76.999093	-65.422371
64139		9.413828	-0.778566	2.283605	-0.004727	-0.002131	0.000544	-1.000977	0.492188	-0.616943	-18.139645	-76.996573	-65.421388
64140		9.413846	-0.778682	2.283491	-0.004079	0.000444	-0.000202	-0.999023	0.485840	-0.625000	-18.135235	-76.996890	-65.426837
64141		9.441340	-0.762745	2.311314	-0.003616	0.001325	0.002028	-1.007813	0.482422	-0.628174	-18.137724	-76.992214	-65.424979
64142		9.437423	-0.802179	2.273553	-0.003384	-0.000048	0.001195	-1.000732	0.493652	-0.621094	-18.136591	-76.992551	-65.426656
64143		9.449204	-0.804330	2.305950	-0.001808	0.000662	0.001014	-1.006104	0.486084	-0.624023	-18.136154	-76.988408	-65.426741
64144		9.425576	-0.781361	2.315918	-0.003152	-0.001421	0.000363	-1.006104	0.485352	-0.614990	-18.133987	-76.989640	-65.429343
64145		9.413802	-0.779510	2.283391	-0.000880	-0.001203	0.001579	-1.006348	0.493408	-0.618652	-18.135799	-76.986405	-65.426572
64146		9.470828	-0.797283	2.280022	-0.002273	0.003408	0.002679	-1.006104	0.485596	-0.613037	-18.134860	-76.984595	-65.427397
64147		9.431457	-0.792393	2.294693	-0.003615	-0.002301	-0.001868	-1.003174	0.490479	-0.620605	-18.130992	-76.982564	-65.432055
64148		9.396087	-0.767459	2.272050	-0.003337	-0.003116	0.003339	-1.013672	0.490967	-0.618896	-18.137249	-76.984189	-65.426120
64149		9.437414	-0.803371	2.273170	-0.000464	0.002745	0.001665	-1.004639	0.488037	-0.622070	-18.135997	-76.978773	-65.426247
64150		9.458998	-0.776857	2.322198	-0.003152	-0.001421	0.000362	-1.006348	0.488281	-0.620850	-18.133830	-76.980005	-65.428848
64151		9.429472	-0.762484	2.278641	-0.002040	0.002035	0.001846	-1.009766	0.494873	-0.619385	-18.134458	-76.974936	-65.427984
64152		9.437332	-0.803850	2.273337	-0.001808	0.000662	0.001014	-1.003662	0.482178	-0.626465	-18.131450	-76.974918	-65.430659
64153		9.429416	-0.762884	2.278742	-0.002689	-0.000541	0.002592	-1.004639	0.485352	-0.623535	-18.136202	-76.971116	-65.425933
64154		9.464836	-0.787951	2.301125	-0.002086	0.001478	-0.004192	-1.008057	0.497070	-0.619141	-18.120476	-76.971582	-65.441826
64155		9.435322	-0.773388	2.257585	-0.002689	-0.000541	0.002592	-1.007080	0.483643	-0.624268	-18.125241	-76.967779	-65.437070
64156		9.425507	-0.783042	2.315634	-0.003615	-0.002301	-0.001868	-0.998535	0.486084	-0.618164	-18.118771	-76.969888	-65.444361
64157		9.431425	-0.793652	2.294390	-0.002041	0.002035	0.001847	-1.004395	0.489014	-0.619629	-18.119383	-76.964814	-65.443539
64158		9.458914	-0.777704	2.322259	-0.004080	0.000444	-0.000203	-0.998779	0.490234	-0.625000	-18.114985	-76.965131	-65.448976
64159		9.443152	-0.796007	2.326942	-0.001345	0.001542	0.003244	-1.009033	0.493652	-0.620117	-18.118916	-76.960061	-65.444279
64160		9.441133	-0.765629	2.311207	-0.003384	-0.000048	0.001195	-1.005615	0.489746	-0.614746	-18.117786	-76.960397	-65.445953
64161		9.431331	-0.794475	2.294491	-0.002457	-0.001914	0.001759	-0.996094	0.489502	-0.623047	-18.121507	-76.957475	-65.442103
64162		9.458847	-0.778575	2.322238	-0.004312	0.001817	0.000630	-1.005127	0.485107	-0.620605	-18.118147	-76.956896	-65.446612
64163		9.464735	-0.789351	2.301060	-0.002689	-0.000541	0.002592	-1.007080	0.485107	-0.620850	-18.122848	-76.953059	-65.441987
64164		9.419465	-0.793154	2.262156	-0.002041	0.002035	0.001847	-1.009033	0.495117	-0.616455	-18.120880	-76.952145	-65.443731
64165		9.425349	-0.784742	2.315699	-0.002920	-0.002793	-0.000471	-1.003174	0.490479	-0.616455	-18.120302	-76.950088	-65.444577
64166		9.447015	-0.777210	2.289783	-0.002504	0.001155	-0.000384	-0.999756	0.485352	-0.622314	-18.114037	-76.950051	-65.451005
64167		9.446984	-0.777262	2.289891	-0.000232	0.001372	0.000833	-1.013428	0.495117	-0.613281	-18.111759	-76.945483	-65.452070
64168		9.431213	-0.795595	2.294588	-0.002922	0.000831	0.003425	-1.001221	0.492188	-0.619629	-18.114928	-76.944943	-65.449060
64169		9.425290	-0.785303	2.315749	-0.003152	-0.001421	0.000362	-1.014648	0.491943	-0.626709	-18.115391	-76.941980	-65.448976
64170		9.464636	-0.790316	2.301136	-0.005703	0.002802	-0.002165	-1.000244	0.494629	-0.617676	-18.105516	-76.941363	-65.460992
64171		9.429151	-0.765412	2.278991	-0.003154	0.002203	0.004258	-1.007324	0.484375	-0.616455	-18.112323	-76.935721	-65.454435
64172		9.431069	-0.796281	2.294943	-0.000928	0.001865	-0.000564	-1.003662	0.495850	-0.621338	-18.104192	-76.935328	-65.461852
64173		9.431000	-0.796417	2.295179	-0.002273	0.003407	0.002680	-1.008301	0.487793	-0.622559	-18.105865	-76.929319	-65.460052
64174		9.452567	-0.789181	2.269583	-0.001346	0.001541	0.003244	-1.013428	0.487305	-0.615723	-18.107158	-76.928425	-65.458040
64175		9.440681	-0.768413	2.312127	-0.003617	0.001324	0.002027	-1.012695	0.490723	-0.625244	-18.109674	-76.923667	-65.456163
64176		9.428870	-0.766653	2.279732	-0.004961	-0.000759	0.001375	-1.004883	0.492432	-0.613281	-18.110419	-76.924358	-65.456840
64177		9.448564	-0.810123	2.306542	-0.000186	-0.001697	0.002975	-1.010010	0.492188	-0.631348	-18.115519	-76.921072	-65.450262
64178		9.462291	-0.761431	2.286281	-0.002550	0.004224	-0.002526	-1.011963	0.493652	-0.630615	-18.101921	-76.919745	-65.464247
64179		9.458291	-0.781557	2.323500	0.000463	0.000879	0.002230	-1.004395	0.488525	-0.623047	-18.102907	-76.915175	-65.461543
64180		9.418955	-0.795744	2.263369	-0.004080	0.000444	-0.000203	-1.005859	0.484619	-0.617432	-18.098529	-76.915492	-65.466962
64181		9.464176	-0.792362	2.302323	-0.003385	-0.000049	0.001194	-1.007324	0.492432	-0.617188	-18.099998	-76.911647	-65.466058
64182		9.422804	-0.756835	2.301325	-0.001160	0.003238	0.000269	-1.003418	0.482666	-0.625244	-18.092916	-76.910358	-65.472535
64183		9.473907	-0.763978	2.319209	-0.003385	-0.000049	0.001194	-1.009766	0.482910	-0.615479	-18.094395	-76.906497	-65.471580
64184		9.412923	-0.785662	2.284906	-0.000928	0.001865	-0.000564	-0.997803	0.493652	-0.622559	-18.086281	-76.906104	-65.478980
64185		9.418744	-0.777250	2.338683	-0.002041	0.002034	0.001847	-1.007568	0.485840	-0.616699	-18.086927	-76.900992	-65.478071
64186		9.446285	-0.780453	2.291690	-0.004962	-0.000759	0.001374	-1.011230	0.484375	-0.620605	-18.087672	-76.901683	-65.478749
64187		9.469918	-0.803692	2.281551	-0.001576	-0.000710	0.000180	-1.005127	0.487549	-0.617432	-18.086206	-76.898359	-65.479761
64188		9.418719	-0.777825	2.338590	-0.005194	0.000613	0.002207	-0.999023	0.497070	-0.622803	-18.087984	-76.898155	-65.479514
64189		9.440363	-0.770510	2.312729	-0.000881	-0.001204	0.001578	-1.010498	0.494629	-0.622314	-18.089840	-76.894837	-65.476639
64190		9.412863	-0.786768	2.284773	-0.002458	-0.001914	0.001758	-1.005127	0.496094	-0.629883	-18.090931	-76.896090	-65.475488
64191		9.458102	-0.783476	2.323625	-0.003385	-0.000049	0.001194	-0.997070	0.485352	-0.628906	-18.092408	-76.892201	-65.474476
64192		9.426650	-0.738430	2.264190	-0.002458	-0.001914	0.001758	-1.008057	0.488525	-0.621338	-18.093499	-76.893453	-65.473325
64193		9.452269	-0.792399	2.269703	-0.002458	-0.001914	0.001758	-1.010254	0.487305	-0.628174	-18.097060	-76.890505	-65.469841
64194		9.412959	-0.787791	2.284023	-0.004221	-0.004322	0.004913	-1.006104	0.494629	-0.620605	-18.108382	-76.892507	-65.459223
64195		9.462185	-0.764350	2.285746	-0.000463	-0.000879	-0.002231	-1.010986	0.487061	-0.610840	-18.100786	-76.889707	-65.465801
64196		9.422846	-0.759404	2.300309	-0.002690	-0.000542	0.002591	-1.004395	0.490479	-0.618652	-18.102910	-76.890063	-65.463727
64197		9.446501	-0.782687	2.290038	-0.004498	-0.003504	-0.000293	-1.000732	0.494141	-0.627930	-18.104142	-76.888382	-65.463623
64198		9.446576	-0.782794	2.289691	-0.002226	-0.003287	0.000924	-1.008545	0.482910	-0.626953	-18.104201	-76.890530	-65.463396
64199		9.480093	-0.777374	2.295918	-0.004498	-0.003504	-0.000293	-1.007324	0.489258	-0.626953	-18.105383	-76.888795	-65.463497
64200		9.429002	-0.770424	2.277918	-0.003153	-0.001421	0.000360	-1.010498	0.489502	-0.618896	-18.103229	-76.890027	-65.466088
64201		9.446756	-0.783056	2.288858	-0.002921	-0.002793	-0.000473	-1.007568	0.488525	-0.614014	-18.102581	-76.887973	-65.466993
64202		9.442866	-0.803432	2.325548	-0.001067	-0.002902	0.004552	-1.010254	0.491699	-0.627197	-18.110164	-76.889266	-65.458359
64203		9.446881	-0.783517	2.288185	-0.004266	-0.004876	-0.001126	-1.002930	0.486328	-0.618652	-18.110378	-76.888469	-65.459139
64204		9.458709	-0.785554	2.320451	-0.003432	0.003021	-0.000947	-1.000732	0.484619	-0.617432	-18.101931	-76.887516	-65.468355
64205		9.429214	-0.770970	2.276854	-0.004498	-0.003504	-0.000293	-1.001953	0.489258	-0.626465	-18.103110	-76.885840	-65.468487
64206		9.417416	-0.750047	2.319189	-0.004313	0.001816	0.000630	-1.009521	0.492920	-0.619873	-18.099778	-76.885262	-65.472969
64207		9.462647	-0.765794	2.283345	-0.002690	-0.000543	0.002591	-1.005615	0.483154	-0.617920	-18.104464	-76.881418	-65.468211
64208		9.425271	-0.791643	2.313668	-0.001577	-0.000711	0.000180	-1.010986	0.492432	-0.626221	-18.100444	-76.882296	-65.471791
64209		9.450863	-0.764186	2.250750	-0.003572	-0.001747	0.004168	-0.998047	0.494629	-0.619873	-18.110144	-76.878850	-65.462530
64210		9.441011	-0.774120	2.308873	-0.001809	0.000661	0.001014	-1.002441	0.497803	-0.625000	-18.107158	-76.878832	-65.465184
64211		9.446891	-0.784871	2.287680	-0.005195	0.000612	0.002208	-1.006836	0.492188	-0.616943	-18.111606	-76.874444	-65.461973
64212		9.458694	-0.787107	2.319987	0.000927	-0.001866	0.000563	-1.006836	0.494385	-0.618896	-18.107931	-76.875882	-65.463725
64213		9.446917	-0.785304	2.287423	-0.003572	-0.001748	0.004168	-1.007813	0.487549	-0.617676	-18.117705	-76.872468	-65.454181
64214		9.401643	-0.770164	2.323258	-0.003618	0.001323	0.002028	-1.008545	0.489502	-0.619385	-18.117618	-76.871909	-65.454922
64215		9.462628	-0.767777	2.282759	-0.003154	-0.001421	0.000360	-1.003418	0.485352	-0.625977	-18.117861	-76.868997	-65.455213
64216		9.413457	-0.791649	2.280636	-0.001995	-0.001037	0.003988	-1.011963	0.499512	-0.627930	-18.123222	-76.869374	-65.449405
64217		9.435092	-0.784378	2.254753	-0.003386	-0.000049	0.001194	-1.007080	0.484131	-0.620117	-18.124563	-76.865506	-65.448623
64218		9.423295	-0.763670	2.297052	-0.001068	-0.002903	0.004551	-0.999268	0.488281	-0.624756	-18.132132	-76.866799	-65.440002
64219		9.441049	-0.776428	2.307942	-0.003618	-0.002299	-0.001871	-1.014160	0.492432	-0.625000	-18.128061	-76.864774	-65.445200
64220		9.423364	-0.764083	2.296635	-0.003804	-0.000376	0.005001	-1.001953	0.489990	-0.622803	-18.136318	-76.864610	-65.437483
64221		9.429240	-0.774944	2.275398	-0.001809	0.000661	0.001014	-1.010254	0.488525	-0.619873	-18.135807	-76.860433	-65.437541
64222		9.407562	-0.782785	2.301261	-0.002923	0.000828	0.003424	-1.004883	0.487061	-0.621582	-18.138957	-76.859894	-65.434549
64223		9.456714	-0.759448	2.303302	-0.001809	0.000661	0.001014	-1.009521	0.478760	-0.624023	-18.138364	-76.855760	-65.434858
64224		9.452743	-0.798768	2.265495	-0.003618	0.001322	0.002028	-1.006104	0.493164	-0.612549	-18.138277	-76.855201	-65.435599
64225		9.429129	-0.775980	2.275502	-0.001764	-0.002409	0.003154	-1.012207	0.489502	-0.619385	-18.144976	-76.852379	-65.428414
64226		9.413352	-0.794391	2.280113	-0.002273	0.003405	0.002681	-1.010498	0.494141	-0.622803	-18.144052	-76.850570	-65.429224
64227		9.462510	-0.770847	2.282213	-0.000463	-0.000878	-0.002231	-1.007324	0.495850	-0.626221	-18.136431	-76.847836	-65.435641
64228		9.440869	-0.778606	2.307947	-0.003805	-0.000377	0.005001	-1.003906	0.490723	-0.623779	-18.144678	-76.847672	-65.427934
64229		9.446758	-0.789518	2.286628	-0.004964	-0.000760	0.001373	-1.008057	0.484375	-0.618652	-18.147925	-76.844220	-65.425993
64230		9.440856	-0.779226	2.307789	-0.003386	-0.000049	0.001194	-1.011475	0.489258	-0.619629	-18.146810	-76.844557	-65.427654
64231		9.450704	-0.769690	2.249543	-0.001577	-0.000711	0.000180	-1.003418	0.492432	-0.614746	-18.145146	-76.841356	-65.429003
64232		9.446764	-0.789978	2.286446	-0.003386	-0.000049	0.001194	-1.004395	0.499512	-0.626465	-18.144031	-76.841693	-65.430663
64233		9.440867	-0.779592	2.307623	-0.001577	-0.000711	0.000180	-1.001221	0.488525	-0.630127	-18.142631	-76.838469	-65.431236
64234		9.423229	-0.767123	2.296174	-0.007655	-0.004924	0.000065	-1.005371	0.484619	-0.617676	-18.145054	-76.841662	-65.431776
64235		9.464547	-0.803249	2.297021	-0.001764	0.001210	0.007052	-1.006348	0.490234	-0.619873	-18.157967	-76.836175	-65.418547
64236		9.446811	-0.791040	2.285885	-0.001577	-0.000711	0.000180	-1.007080	0.488770	-0.616943	-18.153962	-76.837053	-65.422112
64237		9.423214	-0.768067	2.295919	-0.003387	-0.000049	0.001193	-1.013916	0.491943	-0.618652	-18.155283	-76.833330	-65.421230
64238		9.429124	-0.778836	2.274548	-0.001764	-0.002410	0.003153	-1.005859	0.490479	-0.621338	-18.159603	-76.834603	-65.416355
64239		9.456658	-0.763113	2.302321	-0.002041	0.002033	0.001848	-1.003418	0.492432	-0.621582	-18.160101	-76.829613	-65.415423
64240		9.434972	-0.789882	2.253332	-0.002691	-0.000544	0.002590	-1.001709	0.494873	-0.619629	-18.162217	-76.829970	-65.413356
64241		9.427114	-0.749003	2.258778	-0.002691	-0.000544	0.002590	-0.997559	0.489014	-0.618896	-18.166850	-76.826259	-65.408548
64242		9.429040	-0.779915	2.274528	-0.004314	0.001817	0.000631	-1.002197	0.480713	-0.613525	-18.163537	-76.825681	-65.413013
64243		9.440815	-0.782354	2.306899	-0.001301	-0.001533	0.005383	-1.004150	0.489746	-0.612061	-18.174374	-76.822084	-65.401660
64244		9.462427	-0.775149	2.281102	-0.002041	0.002033	0.001848	-1.006104	0.483398	-0.624023	-18.172425	-76.821172	-65.403386
64245		9.444701	-0.762844	2.269971	-0.004269	-0.001255	0.002770	-1.007813	0.492920	-0.627930	-18.178731	-76.817852	-65.398096
64246		9.413221	-0.799364	2.278916	-0.001765	-0.002410	0.003152	-1.004883	0.490479	-0.619141	-18.183047	-76.819125	-65.393225
64247		9.423087	-0.771099	2.295426	-0.002692	-0.000544	0.002590	-0.999512	0.486816	-0.618408	-18.187590	-76.815413	-65.388577
64248		9.480120	-0.789015	2.291829	-0.002692	-0.000544	0.002590	-1.006104	0.486572	-0.616455	-18.189704	-76.815770	-65.386513
64249		9.423053	-0.771753	2.295346	-0.002923	0.000827	0.003424	-1.005127	0.487793	-0.616943	-18.195175	-76.811233	-65.381298
64250		9.462324	-0.777114	2.280859	-0.002272	0.003404	0.002682	-1.002197	0.498291	-0.627197	-18.194249	-76.809424	-65.382109
64251		9.424883	-0.802963	2.311346	-0.001578	-0.000710	0.000179	-1.007813	0.484375	-0.622559	-18.192699	-76.806264	-65.382972
64252		9.456352	-0.766942	2.302304	-0.004545	0.003188	0.001465	-1.002441	0.487549	-0.620117	-18.190414	-76.804790	-65.386516
64253		9.428731	-0.783004	2.274748	0.000651	0.002577	-0.000742	-1.007568	0.485107	-0.626953	-18.182751	-76.800036	-65.392849
64254		9.422785	-0.772600	2.296159	-0.003619	0.001322	0.002027	-1.002441	0.484131	-0.623047	-18.182665	-76.799478	-65.393589
64255		9.444381	-0.765203	2.270512	-0.002736	0.002527	0.000451	-1.005859	0.486084	-0.616455	-18.179713	-76.794524	-65.397225
64256		9.463957	-0.808654	2.297556	-0.002041	0.002032	0.001848	-1.006348	0.490479	-0.622803	-18.177767	-76.793611	-65.398948
64257		9.422628	-0.773190	2.296604	-0.001114	0.000166	0.002410	-1.010498	0.496582	-0.626221	-18.180392	-76.789636	-65.395315
64258		9.456042	-0.767914	2.303254	-0.004314	0.001817	0.000630	-1.003418	0.486572	-0.615967	-18.177089	-76.789058	-65.399769
64259		9.446105	-0.796758	2.286817	0.000000	0.003619	0.003900	-1.006104	0.479492	-0.617676	-18.179963	-76.782919	-65.394978
64260		9.471641	-0.750263	2.299188	-0.000927	0.001866	-0.000562	-1.008545	0.489014	-0.620605	-18.171921	-76.782528	-65.402308
64261		9.410605	-0.771802	2.264917	0.000463	0.000876	0.002231	-1.006836	0.486572	-0.618408	-18.172510	-76.778231	-65.400281
64262		9.445929	-0.797232	2.287376	-0.004546	0.003188	0.001465	-1.007324	0.485352	-0.625244	-18.170235	-76.776758	-65.403817
64263		9.457650	-0.799574	2.319978	-0.002041	0.002032	0.001848	-1.010010	0.492188	-0.619385	-18.170556	-76.771879	-65.403408
64264		9.439904	-0.787217	2.308972	-0.003619	0.001322	0.002027	-1.005859	0.486328	-0.622070	-18.170472	-76.771321	-65.404148
64265		9.416261	-0.764422	2.319185	-0.001346	0.001537	0.003244	-1.000244	0.491455	-0.616943	-18.174128	-76.766466	-65.399462
64266		9.473261	-0.801160	2.240901	-0.001810	0.000661	0.001013	-1.009521	0.484375	-0.620850	-18.171164	-76.766449	-65.402095
64267		9.388639	-0.780565	2.291602	-0.002316	0.002857	-0.003356	-1.004639	0.491699	-0.621826	-18.159066	-76.762096	-65.414347
64268		9.455484	-0.769710	2.304944	-0.000652	0.001042	0.004641	-1.002441	0.493896	-0.617920	-18.163546	-76.761224	-65.408652
64269		9.422003	-0.775506	2.298390	-0.003388	-0.000049	0.001192	-1.007568	0.491455	-0.626221	-18.164949	-76.757622	-65.407153
64270		9.437734	-0.757714	2.293846	-0.002925	0.000826	0.003423	-1.003662	0.487549	-0.622314	-18.168075	-76.757084	-65.404187
64271		9.427848	-0.786578	2.277173	-0.003388	-0.000049	0.001192	-1.014893	0.489502	-0.612549	-18.169262	-76.753454	-65.403544
64272		9.459377	-0.750620	2.267948	-0.002461	-0.001916	0.001754	-1.000977	0.487793	-0.620361	-18.170344	-76.754707	-65.402404
64273		9.433743	-0.778718	2.330608	-0.002925	0.000826	0.003423	-1.007324	0.490479	-0.625732	-18.175787	-76.750301	-65.396791
64274		9.427842	-0.787278	2.276954	-0.003851	-0.000925	-0.001039	-1.004395	0.485352	-0.618652	-18.170455	-76.751514	-65.403059
64275		9.427853	-0.787541	2.276817	-0.001303	-0.001536	0.005382	-1.007568	0.493896	-0.617188	-18.181195	-76.747993	-65.391540
64276		9.484891	-0.805472	2.273182	-0.001578	-0.000710	0.000179	-1.002930	0.487793	-0.618652	-18.177214	-76.748871	-65.395082
64277		9.427872	-0.787889	2.276621	-0.001578	-0.000710	0.000179	-1.006104	0.493652	-0.616699	-18.175638	-76.745882	-65.395728
64278		9.455454	-0.772039	2.304290	-0.004735	-0.002131	0.000537	-1.009277	0.489990	-0.625244	-18.175370	-76.747470	-65.397313
64279		9.406247	-0.795651	2.302223	-0.000926	0.001867	-0.000562	-1.004883	0.494873	-0.615723	-18.169735	-76.743170	-65.401734
64280		9.461341	-0.782543	2.283078	-0.002273	-0.000215	-0.001218	-1.007813	0.486572	-0.616943	-18.162550	-76.744028	-65.408978
64281		9.443611	-0.769992	2.272094	-0.002968	0.003898	0.001286	-1.008301	0.489746	-0.627686	-18.160819	-76.738368	-65.410603
64282		9.427740	-0.788446	2.276972	-0.003388	0.003568	0.005092	-1.005371	0.485352	-0.620605	-18.165983	-76.736040	-65.405815
64283		9.421751	-0.778349	2.298459	-0.002042	0.002032	0.001848	-1.007568	0.488525	-0.620361	-18.166201	-76.731227	-65.405869
64284		9.445263	-0.801683	2.288573	-0.004546	0.003188	0.001464	-1.013428	0.494141	-0.623779	-18.163939	-76.729754	-65.409392
64285		9.421579	-0.778886	2.298982	-0.000000	0.003617	0.003900	-1.010254	0.493652	-0.623779	-18.166718	-76.723719	-65.404681
64286		9.421461	-0.779290	2.299328	-0.004083	0.004063	0.003695	-1.005127	0.489502	-0.617920	-18.168677	-76.721370	-65.403595
64287		9.421351	-0.779664	2.299655	-0.002274	0.003403	0.002682	-1.002930	0.494873	-0.618652	-18.170122	-76.715709	-65.401605
64288		9.466519	-0.795437	2.264000	-0.002042	0.002032	0.001848	-1.003174	0.499023	-0.619385	-18.168188	-76.714797	-65.403317
64289		9.448765	-0.764232	2.327870	-0.003620	0.001321	0.002026	-1.005859	0.488281	-0.616943	-18.170732	-76.710417	-65.400088
64290		9.427018	-0.790789	2.279150	-0.003011	0.006971	-0.000852	-1.005127	0.489746	-0.625000	-18.159399	-76.707297	-65.412029
64291		9.454431	-0.775027	2.307480	-0.000001	0.003617	0.003900	-1.007568	0.483398	-0.621826	-18.162019	-76.701348	-65.408253
64292		9.448493	-0.783592	2.254028	-0.004083	0.000446	-0.000205	-1.007324	0.486328	-0.625488	-18.157726	-76.701665	-65.413591
64293		9.438495	-0.793433	2.312602	-0.000970	0.008556	0.001201	-1.001953	0.494141	-0.618896	-18.150738	-76.693502	-65.421124
64294		9.444257	-0.804009	2.291906	-0.001158	0.003237	0.000272	-0.998779	0.483887	-0.625732	-18.143766	-76.692214	-65.427493
64295		9.438245	-0.793690	2.313534	-0.003201	0.005269	0.002120	-1.002441	0.491943	-0.619629	-18.142929	-76.685714	-65.429250
64296		9.459754	-0.786383	2.288330	-0.001854	0.007349	0.002776	-1.005859	0.486084	-0.622314	-18.139020	-76.681740	-65.432882
64297		9.459545	-0.786788	2.289054	-0.001392	0.008224	0.005007	-1.006592	0.480957	-0.623291	-18.141574	-76.673127	-65.429778
64298		9.441664	-0.774241	2.278731	-0.001243	0.009382	-0.004002	-1.001953	0.487793	-0.619873	-18.120214	-76.669254	-65.450983
64299		9.402095	-0.769032	2.294300	-0.002592	0.010917	-0.000759	-1.007324	0.482910	-0.617432	-18.107971	-76.660231	-65.464735
64300		9.498202	-0.791783	2.277339	-0.003057	0.013658	0.000910	-1.008301	0.489990	-0.625732	-18.095750	-76.653153	-65.477617
64301		9.440837	-0.774292	2.282137	0.000794	0.014582	0.001951	-1.004639	0.493164	-0.608643	-18.085192	-76.641636	-65.486906
64302		9.442356	-0.805272	2.299284	-0.001250	0.016613	0.003796	-1.007324	0.486328	-0.628662	-18.076374	-76.632434	-65.495229
64303		9.457698	-0.787625	2.296387	-0.001484	0.017983	0.004630	-1.009766	0.495850	-0.623779	-18.070955	-76.618635	-65.499698
64304		9.496589	-0.793085	2.283604	-0.000833	0.020558	0.003889	-1.009277	0.492432	-0.623291	-18.059189	-76.607268	-65.510805
64305		9.454728	-0.757508	2.284978	0.001079	0.031358	-0.000471	-1.009277	0.488281	-0.622559	-18.030847	-76.587002	-65.536840
64306		9.444130	-0.786169	2.271349	0.003575	0.033815	0.003812	-1.010010	0.486572	-0.618164	-18.006603	-76.568423	-65.558180
64307		9.437350	-0.775608	2.296071	0.002335	0.039577	-0.004095	-1.008301	0.491455	-0.622070	-17.963085	-76.544417	-65.600204
64308		9.448155	-0.777440	2.332242	0.001212	0.039739	-0.001690	-0.998047	0.489990	-0.621094	-17.923474	-76.523574	-65.638743
64309		9.462897	-0.759105	2.332056	0.004271	0.050912	-0.002426	-0.998779	0.492432	-0.622803	-17.874763	-76.493094	-65.684604
64310		9.422642	-0.772666	2.276391	0.004305	0.047836	-0.000292	-1.006592	0.492920	-0.614502	-17.830928	-76.467574	-65.725673
64311		9.442987	-0.746281	2.330129	0.005449	0.048211	0.003333	-0.999756	0.493896	-0.627930	-17.797003	-76.437587	-65.755095
64312		9.447811	-0.757207	2.313512	0.003200	0.048536	0.008142	-1.000977	0.488770	-0.625244	-17.772647	-76.410199	-65.776786
64313		9.424753	-0.765619	2.344047	0.006334	0.053563	0.011683	-0.992920	0.492188	-0.621338	-17.753260	-76.375771	-65.791564
64314		9.445249	-0.759090	2.323333	0.006366	0.050488	0.013818	-0.996338	0.489990	-0.627930	-17.738626	-76.346323	-65.801390
64315		9.493133	-0.737218	2.330569	0.009795	0.051618	0.024702	-1.007568	0.492920	-0.629395	-17.747971	-76.310751	-65.784605
64316		9.466038	-0.786207	2.323607	0.008365	0.059827	0.029685	-0.999023	0.486572	-0.622314	-17.761031	-76.273435	-65.764749
64317		9.503811	-0.793781	2.315222	0.013737	0.064517	0.028412	-1.007080	0.490234	-0.618652	-17.766937	-76.230159	-65.749118
64318		9.440765	-0.798612	2.361351	0.009878	0.063587	0.027350	-0.995850	0.484619	-0.625977	-17.771102	-76.191198	-65.737521
64319		9.439137	-0.800903	2.367077	0.008349	0.056193	0.025765	-0.998047	0.493652	-0.635010	-17.779986	-76.152998	-65.722147
64320		9.399897	-0.828473	2.402302	0.007676	0.053071	0.020467	-1.000488	0.489014	-0.621338	-17.777561	-76.120979	-65.718633
64321		9.487268	-0.811793	2.395266	0.005465	0.046176	0.017486	-1.002197	0.485352	-0.618896	-17.776935	-76.089642	-65.714493
64322		9.470101	-0.831245	2.404377	0.008340	0.052021	0.015822	-0.999756	0.493652	-0.629639	-17.764652	-76.059008	-65.720743
64323		9.583462	-0.887094	2.328978	0.013274	0.056377	0.018359	-0.996826	0.492188	-0.620605	-17.754297	-76.021997	-65.722019
64324		9.971323	-0.940790	2.306037	0.023759	0.091366	0.010740	-0.992432	0.494873	-0.622314	-17.694675	-75.970776	-65.767956
64325		9.647120	-1.007712	2.370294	0.031923	0.128103	-0.012338	-0.993896	0.483887	-0.620361	-17.557603	-75.899972	-65.888532
64326		9.787939	-1.073689	2.347932	0.037701	0.152621	-0.039327	-0.996094	0.491943	-0.622070	-17.340987	-75.823818	-66.088155
64327		10.632304	-1.488682	2.320297	0.054798	0.212280	-0.158305	-0.998047	0.494141	-0.632324	-16.823628	-75.731209	-66.588077
64328		11.237165	-0.613206	2.613111	0.067833	0.290872	-0.294440	-0.989014	0.483398	-0.631104	-15.961211	-75.619424	-67.436571
64329		19.613219	-1.210124	2.619020	0.030284	0.426941	-0.040046	-0.985840	0.482910	-0.634277	-15.598785	-75.387304	-67.791532
64330		19.477651	-1.393698	2.540660	0.024278	1.096812	0.063710	-0.980957	0.484619	-0.636475	-15.087518	-74.772082	-68.304747
64331		14.603338	-1.636197	2.490221	0.067582	1.387578	0.188113	-0.972900	0.482666	-0.645508	-14.689128	-73.973600	-68.676863
64332		15.040792	-1.261361	2.405814	0.104156	1.555099	0.247175	-0.954834	0.483887	-0.648438	-14.333081	-73.075985	-68.984412
64333		15.337949	-2.055299	2.440962	0.150079	1.733142	0.420662	-0.944824	0.482422	-0.650879	-14.210237	-72.052072	-69.021755
64334		15.114386	-2.948764	2.361149	0.227274	1.903567	0.674040	-0.923584	0.480957	-0.658447	-14.388333	-70.900261	-68.695090
64335		13.981615	-3.096554	2.437960	0.326797	2.005477	1.017598	-0.905029	0.473877	-0.672852	-14.961959	-69.639227	-67.885652
64336		12.734202	-3.554069	2.419767	0.390960	2.044704	1.371711	-0.880615	0.478516	-0.674805	-15.893780	-68.301234	-66.645888
64337		11.300775	-3.742234	1.862684	0.519495	2.016066	1.604393	-0.860596	0.474609	-0.680908	-16.945372	-66.931858	-65.185836
64338		9.998289	-2.281740	2.592115	0.641871	1.841296	1.327749	-0.838623	0.476563	-0.686279	-17.517809	-65.699329	-64.157635
64339		6.374803	-0.057928	0.549840	0.633290	1.734236	1.041755	-0.824463	0.470703	-0.687012	-17.734846	-64.570406	-63.517762
64340		3.318071	0.232392	-0.147797	0.574648	1.188394	0.727586	-0.810547	0.462891	-0.700195	-17.793213	-63.795295	-63.085575
64341		7.163559	-0.236759	-0.777710	0.509947	0.831271	0.464430	-0.801758	0.465332	-0.694580	-17.719582	-63.259730	-62.840702
64342		5.596193	-0.817997	-0.230221	0.513288	0.764850	0.280996	-0.793701	0.461426	-0.710938	-17.463316	-62.793852	-62.796643
64343		3.658970	0.025660	-0.934930	0.484644	0.299235	0.136839	-0.785889	0.449463	-0.703857	-17.233069	-62.606611	-62.742625
64344		4.805041	-0.404779	-0.901396	0.438009	-0.099364	0.061687	-0.800537	0.449463	-0.707031	-17.076319	-62.651090	-62.634918
64345		6.882049	-0.838935	-0.850994	0.459709	-0.283412	-0.030553	-0.801270	0.446045	-0.703369	-16.874040	-62.811799	-62.565562
64346		7.269688	-0.996243	-0.725495	0.512100	-0.303305	-0.100048	-0.797607	0.438477	-0.711914	-16.567561	-62.995222	-62.578626
64347		6.753460	-1.091735	-0.835377	0.568070	-0.304414	-0.153110	-0.802734	0.435303	-0.713135	-16.175171	-63.188273	-62.653146
64348		6.334367	-0.963715	-0.918894	0.617914	-0.349119	-0.174334	-0.803955	0.430420	-0.721680	-15.735980	-63.408538	-62.746853
64349		5.984150	-0.658730	-0.997330	0.636216	-0.437013	-0.180882	-0.807373	0.424561	-0.727539	-15.308017	-63.679148	-62.817285
64350		5.970008	-0.243792	-1.025320	0.620399	-0.543668	-0.177089	-0.805420	0.414795	-0.725098	-14.914849	-64.006794	-62.857690
64351		6.590276	0.264090	-0.720066	0.571119	-0.610531	-0.185391	-0.811279	0.405518	-0.718994	-14.562113	-64.374354	-62.885628
64352		7.190739	0.692341	-0.441922	0.483142	-0.600711	-0.232931	-0.818604	0.409424	-0.724121	-14.189484	-64.741348	-62.990133
64353		7.235410	0.858998	-0.183854	0.363016	-0.564994	-0.271586	-0.827148	0.399658	-0.725830	-13.829071	-65.095994	-63.157962
64354		7.275890	0.884839	0.045981	0.228779	-0.546234	-0.232868	-0.823242	0.396484	-0.723145	-13.573763	-65.432101	-63.293156
64355		7.042432	0.869904	0.236229	0.066649	-0.568298	-0.143249	-0.836426	0.395752	-0.715820	-13.530189	-65.771355	-63.298519
64356		6.658139	0.925748	0.363493	-0.094481	-0.649189	-0.041197	-0.836182	0.401367	-0.733643	-13.725488	-66.138843	-63.142367
64357		6.358913	1.000301	0.509559	-0.251990	-0.791586	0.018921	-0.847168	0.389404	-0.726318	-14.145356	-66.580373	-62.841003
64358		6.071775	1.058653	0.633579	-0.410985	-0.962992	0.003414	-0.847412	0.392090	-0.728516	-14.702739	-67.114704	-62.489342
64359		6.029867	0.937076	0.762563	-0.554748	-1.160594	-0.084541	-0.863037	0.400146	-0.731689	-15.324207	-67.773825	-62.159844
64360		6.641028	0.663573	0.975124	-0.680208	-1.334426	-0.184554	-0.871826	0.405029	-0.731201	-15.970294	-68.539059	-61.882122
64361		7.346904	0.205505	1.194385	-0.782037	-1.446813	-0.255548	-0.888916	0.401611	-0.729248	-16.659670	-69.380360	-61.622767
64362		7.813215	-0.205227	1.529094	-0.860886	-1.523500	-0.277523	-0.893066	0.414551	-0.719238	-17.431229	-70.262031	-61.324748
64363		8.219168	-0.503195	1.858008	-0.916855	-1.568687	-0.284593	-0.902832	0.408936	-0.730469	-18.302446	-71.172316	-60.957428
64364		8.649038	-0.559424	2.346366	-0.972348	-1.582496	-0.262192	-0.925781	0.415039	-0.728760	-19.306828	-72.079585	-60.484646
64365		9.152763	-0.647137	2.820954	-1.021471	-1.569723	-0.252451	-0.940918	0.419922	-0.725830	-20.432791	-72.979482	-59.916901
64366		9.560647	-0.672443	3.264299	-1.056496	-1.515534	-0.296509	-0.949463	0.437256	-0.717041	-21.545079	-73.851635	-59.386463
64367		10.031509	-0.747774	3.829463	-1.079829	-1.423528	-0.393557	-0.961670	0.433594	-0.732178	-22.509692	-74.697089	-59.026140
64368		10.354737	-1.068210	4.305528	-1.088365	-1.307417	-0.520013	-0.973877	0.436768	-0.723145	-23.189462	-75.503699	-58.966527
64369		10.542540	-1.500884	4.715607	-1.070696	-1.173764	-0.643780	-0.995850	0.440674	-0.731934	-23.517986	-76.271871	-59.259281
64370		10.472504	-1.936129	5.060173	-1.027613	-1.050014	-0.731983	-1.007568	0.438232	-0.728027	-23.492511	-76.991459	-59.889159
64371		10.539147	-2.329006	5.365590	-0.962283	-0.949439	-0.777416	-1.016357	0.446777	-0.731934	-23.184324	-77.671474	-60.768995
64372		10.348514	-2.741346	5.591484	-0.864550	-0.860284	-0.784836	-1.028320	0.452393	-0.734131	-22.628656	-78.301171	-61.842067
64373		10.170370	-3.112599	5.752794	-0.729030	-0.777444	-0.794003	-1.052979	0.447510	-0.745361	-21.794134	-78.888954	-63.118297
64374		10.406688	-3.577385	6.009005	-0.566669	-0.688504	-0.786247	-1.059082	0.455811	-0.739746	-20.665854	-79.420413	-64.596199
64375		40.757556	-8.693389	15.077439	-0.445838	0.822630	-0.036451	-1.063232	0.444092	-0.741699	-19.961696	-78.988183	-65.571850
64376		-6.607277	-0.107070	11.410614	-0.313736	1.552148	0.273636	-1.046143	0.457275	-0.760254	-19.386071	-78.098530	-66.341103
64377		16.130765	-4.568404	23.085220	-0.182449	2.427257	0.496894	-1.029785	0.457275	-0.770508	-18.666932	-76.691596	-67.183803
64378		-19.867413	-1.971351	32.951543	0.074670	0.472647	-0.169267	-1.017578	0.455322	-0.766846	-17.876643	-76.465371	-67.950817
64379		9.124960	-2.871760	1.545931	0.000007	0.112978	0.206170	-1.028809	0.462402	-0.767578	-18.253671	-76.362909	-67.561410
64380		14.230509	-0.109875	1.794437	-0.034571	-0.434107	-0.001444	-1.026123	0.446533	-0.767578	-18.591409	-76.599678	-67.232942
64381		9.829008	-0.538734	2.342153	-0.024742	-0.180360	-0.115952	-1.033447	0.460205	-0.763672	-18.474382	-76.714702	-67.366285
64382		11.587129	-0.132333	1.293279	0.002868	-0.016220	-0.010329	-1.031982	0.456543	-0.768799	-18.455610	-76.725920	-67.382407
64383		9.488478	-0.634059	2.340214	0.031733	0.108385	0.097439	-1.027588	0.458008	-0.767334	-18.573459	-76.645430	-67.241114
64384		9.287363	-0.790458	2.387175	0.014820	0.081217	0.095613	-1.026367	0.459961	-0.774414	-18.714813	-76.584357	-67.085606
64385		9.336824	-0.921356	2.325529	0.003323	0.065550	0.067412	-1.028809	0.458008	-0.769287	-18.810909	-76.532527	-66.983332
64386		9.691148	-0.896337	2.225870	0.003845	0.085013	0.047318	-1.030029	0.463867	-0.769043	-18.844400	-76.478211	-66.945146
64387		9.497257	-0.887776	2.287608	0.013932	0.126992	0.025087	-1.027588	0.453125	-0.774414	-18.791139	-76.400899	-66.990211
64388		8.689943	-0.737148	2.527537	0.007037	0.082521	0.009814	-1.015381	0.449219	-0.770264	-18.740620	-76.354856	-67.036564
64389		9.175395	-0.724966	2.414948	-0.000346	0.019456	0.026752	-1.022461	0.459229	-0.770264	-18.781431	-76.335577	-66.993257
64390		9.410207	-0.921921	2.293940	0.005352	0.019339	0.020798	-1.023926	0.452393	-0.772461	-18.804394	-76.321783	-66.964989
64391		9.330717	-0.914214	2.324792	0.009414	0.017644	0.002892	-1.025391	0.459717	-0.772461	-18.787688	-76.307912	-66.975117
64392		9.393379	-0.840640	2.311442	0.012897	0.010674	-0.006195	-1.019775	0.457520	-0.776123	-18.752763	-76.303798	-67.001978
64393		9.510920	-0.836580	2.344786	0.014877	0.014915	-0.012222	-1.017578	0.459961	-0.766357	-18.701472	-76.294218	-67.044486
64394		9.535938	-0.788999	2.360911	0.014557	0.022908	-0.009482	-1.025879	0.451904	-0.768066	-18.649144	-76.284056	-67.088284
64395		9.449283	-0.754224	2.323395	0.014895	0.015341	-0.006173	-1.021240	0.454346	-0.767334	-18.611092	-76.273159	-67.117158
64396		9.420956	-0.753022	2.371746	0.006024	0.014434	0.006120	-1.020752	0.453857	-0.775879	-18.604778	-76.264734	-67.118625
64397		9.432823	-0.773022	2.329833	0.007927	0.011130	0.013250	-1.019043	0.457764	-0.770264	-18.617004	-76.252606	-67.099851
64398		9.467724	-0.799954	2.352522	0.002642	0.011225	0.009352	-1.027344	0.448975	-0.771729	-18.622193	-76.245332	-67.091470
64399		9.406712	-0.821061	2.318014	0.001213	0.015792	0.010523	-1.020996	0.447754	-0.779297	-18.628674	-76.231209	-67.082568
64400		9.387868	-0.793106	2.384294	0.002805	0.016517	0.010376	-1.020996	0.450195	-0.770996	-18.632067	-76.220874	-67.075939
64401		9.441005	-0.848766	2.342822	0.003000	0.018273	0.007435	-1.025635	0.453369	-0.781006	-18.628811	-76.206001	-67.076007
64402		9.422971	-0.836141	2.333575	0.004866	0.014111	0.002467	-1.013672	0.455811	-0.776367	-18.615324	-76.198420	-67.085544
64403		9.428696	-0.845962	2.313595	0.009857	0.018471	0.005137	-1.016602	0.458496	-0.774170	-18.602957	-76.183893	-67.090950
64404		9.426381	-0.814520	2.301044	0.013922	0.020732	-0.002749	-1.015137	0.458740	-0.776611	-18.567888	-76.173667	-67.117369
64405		9.419757	-0.804339	2.324762	0.020096	0.021875	-0.000394	-1.015381	0.459229	-0.769775	-18.535021	-76.158337	-67.137847
64406		9.440293	-0.779244	2.377355	0.019152	0.023739	-0.000938	-1.019775	0.453369	-0.771973	-18.498830	-76.146140	-67.162340
64407		9.439717	-0.778858	2.379764	0.020301	0.024058	0.002711	-1.017334	0.456543	-0.773926	-18.471168	-76.129089	-67.177339
64408		9.411912	-0.793851	2.353429	0.016427	0.023553	0.007652	-1.011963	0.452393	-0.771973	-18.455669	-76.115429	-67.182128
64409		9.395552	-0.812360	2.359415	0.015971	0.022716	0.005398	-1.017578	0.452148	-0.775391	-18.437429	-76.098649	-67.189978
64410		9.439817	-0.810371	2.401061	0.014413	0.018453	0.001581	-1.013428	0.453369	-0.779785	-18.413531	-76.088860	-67.204609
64411		9.419952	-0.765944	2.377493	0.019235	0.017521	0.003230	-1.016846	0.445313	-0.770752	-18.392512	-76.075324	-67.213397
64412		9.433594	-0.816688	2.350988	0.017114	0.023034	0.009043	-1.021729	0.460205	-0.778564	-18.380139	-76.061694	-67.214561
64413		9.403135	-0.784538	2.385215	0.011224	0.017001	0.001868	-1.018311	0.453613	-0.770752	-18.361136	-76.048717	-67.226002
64414		9.436049	-0.779319	2.394120	0.012371	0.017322	0.005518	-1.025146	0.449707	-0.773926	-18.347946	-76.038828	-67.230808
64415		9.402263	-0.784847	2.388548	0.006896	0.015664	0.004556	-1.021240	0.442627	-0.774170	-18.338283	-76.026122	-67.235180
64416		9.423816	-0.776522	2.364856	0.006895	0.015664	0.004555	-1.017822	0.457764	-0.779785	-18.327351	-76.017308	-67.240893
64417		9.419054	-0.798484	2.402303	0.005348	0.011836	0.006790	-1.018066	0.458984	-0.770996	-18.326217	-76.006312	-67.237388
64418		9.446892	-0.800240	2.356609	-0.001267	0.010292	0.008225	-1.019775	0.453369	-0.771729	-18.331862	-75.999759	-67.230837
64419		9.442173	-0.822650	2.393693	0.001021	0.010500	0.009478	-1.019287	0.447998	-0.775146	-18.340012	-75.989034	-67.220317
64420		9.418051	-0.800806	2.405462	0.001671	0.013089	0.008787	-1.019775	0.462158	-0.768066	-18.343162	-75.980858	-67.214602
64421		9.461611	-0.784598	2.356316	0.002817	0.013410	0.012437	-1.017090	0.453369	-0.775879	-18.354593	-75.968043	-67.199640
64422		9.484935	-0.808409	2.347058	-0.002252	0.015693	0.011635	-1.015381	0.452393	-0.778564	-18.364286	-75.957936	-67.189495
64423		9.456266	-0.808406	2.395328	-0.005482	0.017349	0.009835	-1.010498	0.451660	-0.774902	-18.371928	-75.943483	-67.183338
64424		9.438183	-0.796408	2.386170	-0.009653	0.020871	0.007488	-1.016113	0.450195	-0.775879	-18.373100	-75.931309	-67.186350
64425		9.417352	-0.837077	2.427958	-0.009699	0.023973	0.005397	-1.025879	0.458984	-0.766846	-18.368742	-75.914084	-67.195053
64426		9.421272	-0.816039	2.393772	-0.011004	0.018363	0.000730	-1.018066	0.453613	-0.770752	-18.357866	-75.904494	-67.211285
64427		9.396986	-0.793767	2.406303	-0.008559	0.023858	0.002999	-1.019043	0.454346	-0.766357	-18.347789	-75.887787	-67.225214
64428		9.459809	-0.821178	2.383308	-0.005041	0.017315	-0.000011	-1.010742	0.456055	-0.766846	-18.332690	-75.878899	-67.242280
64429		9.463791	-0.799569	2.349219	-0.007910	0.026012	-0.003741	-1.019775	0.456055	-0.772217	-18.306196	-75.862260	-67.272756
64430		9.404875	-0.766139	2.430632	-0.001545	0.029335	0.001729	-1.013428	0.452148	-0.776611	-18.284334	-75.846516	-67.294732
64431		9.408808	-0.844996	2.386923	-0.000158	0.028304	0.004526	-1.020264	0.456787	-0.775146	-18.269693	-75.827170	-67.308407
64432		9.406366	-0.813953	2.375095	0.001883	0.029428	0.000586	-1.020996	0.439941	-0.773682	-18.243437	-75.811577	-67.332893
64433		9.337738	-0.808226	2.438951	0.006862	0.033348	-0.002788	-1.020508	0.451172	-0.783691	-18.205587	-75.790821	-67.366364
64434		9.398749	-0.803604	2.402218	0.003364	0.021327	-0.004531	-1.011719	0.454590	-0.769287	-18.173336	-75.780547	-67.396162
64435		9.341066	-0.785695	2.407831	0.008988	0.028266	-0.002548	-1.016602	0.452881	-0.778320	-18.138519	-75.762527	-67.425252
64436		9.335965	-0.806754	2.446213	0.003610	0.019975	-0.005386	-1.006592	0.450439	-0.777588	-18.105350	-75.753133	-67.455856
64437		9.357574	-0.797620	2.423063	0.009772	0.021113	-0.003014	-1.014160	0.455322	-0.770752	-18.074210	-75.739106	-67.480692
64438		9.414281	-0.814445	2.421657	0.007332	0.015618	-0.005285	-1.010254	0.450195	-0.782227	-18.042257	-75.732058	-67.507843
64439		9.421872	-0.854575	2.416573	0.011814	0.022236	-0.006954	-1.007568	0.450439	-0.777588	-18.000823	-75.718134	-67.542098
64440		9.429146	-0.794287	2.422332	0.014952	0.026781	-0.009333	-1.014648	0.451660	-0.767090	-17.948176	-75.705708	-67.586101
64441		9.444342	-0.774686	2.421522	0.014905	0.029880	-0.011428	-1.017334	0.458496	-0.778076	-17.890290	-75.688415	-67.635512
64442		9.388299	-0.787118	2.442130	0.013310	0.029155	-0.011288	-1.012451	0.450684	-0.776123	-17.832962	-75.675017	-67.685324
64443		9.393996	-0.795508	2.423409	0.012408	0.027917	-0.009747	-1.015137	0.456055	-0.772461	-17.781658	-75.658501	-67.729425
64444		9.387120	-0.784461	2.447509	0.005803	0.025939	-0.014377	-1.013916	0.454834	-0.781006	-17.724439	-75.647375	-67.783570
64445		9.404117	-0.795877	2.460972	0.007642	0.025310	-0.015372	-1.015137	0.449463	-0.778320	-17.665844	-75.633263	-67.838023
64446		9.432044	-0.795419	2.416946	0.004854	0.027798	-0.014932	-1.015137	0.451172	-0.770508	-17.606912	-75.621191	-67.894503
64447		9.409321	-0.802403	2.444845	0.007089	0.031105	-0.015770	-1.015381	0.447510	-0.777344	-17.544093	-75.603979	-67.953652
64448		9.457739	-0.777221	2.451799	0.004300	0.033592	-0.015332	-1.014648	0.450684	-0.781250	-17.480964	-75.588779	-68.014802
64449		9.392132	-0.817423	2.454865	0.010658	0.036481	-0.015901	-1.009033	0.450439	-0.772949	-17.412512	-75.568642	-68.077666
64450		9.422915	-0.779136	2.451324	0.005584	0.038757	-0.016727	-1.010498	0.454346	-0.773438	-17.342549	-75.550821	-68.145123
64451		9.422087	-0.777454	2.455038	0.007862	0.038964	-0.015469	-1.013428	0.446533	-0.772705	-17.275334	-75.529236	-68.208378
64452		9.432360	-0.779174	2.491255	0.009241	0.037936	-0.012667	-1.005127	0.451172	-0.782227	-17.212765	-75.511135	-68.266046
64453		9.410969	-0.802494	2.444686	0.007093	0.043005	-0.012929	-1.010254	0.452393	-0.775146	-17.149077	-75.486895	-68.326125
64454		9.401926	-0.760187	2.455555	0.008032	0.041141	-0.012379	-1.004639	0.449463	-0.786377	-17.086052	-75.466959	-68.384991
64455		9.420170	-0.802786	2.485373	0.006596	0.045257	-0.017288	-1.009033	0.455078	-0.778320	-17.012385	-75.442208	-68.455688
64456		9.409832	-0.828869	2.471809	0.005206	0.046276	-0.020101	-1.022705	0.453125	-0.782471	-16.931772	-75.420712	-68.534412
64457		9.410493	-0.857414	2.491311	0.005975	0.056352	-0.033999	-1.008057	0.453857	-0.784668	-16.816726	-75.392623	-68.648255
64458		9.437915	-0.854586	2.451025	0.006614	0.073052	-0.046055	-1.004395	0.454102	-0.776611	-16.664425	-75.360639	-68.800253
64459		9.455019	-0.793313	2.494326	0.004393	0.083412	-0.062640	-1.007080	0.445068	-0.777588	-16.474388	-75.322238	-68.992588
64460		9.493150	-0.791158	2.488653	0.003390	0.087903	-0.071374	-1.009277	0.442871	-0.786377	-16.263272	-75.285931	-69.207349
64461		9.456503	-0.758144	2.475071	0.001174	0.095594	-0.079826	-1.010742	0.449463	-0.775391	-16.033847	-75.243232	-69.442394
64462		9.450688	-0.703108	2.545286	0.003732	0.102805	-0.080543	-1.010742	0.453369	-0.779297	-15.796820	-75.199723	-69.683833
64463		9.407140	-0.660323	2.553776	0.002640	0.096709	-0.073975	-1.003662	0.451904	-0.778076	-15.580788	-75.155049	-69.904255
64464		9.357100	-0.609061	2.582610	-0.001275	0.082084	-0.057707	-1.013184	0.442383	-0.786621	-15.408686	-75.119035	-70.081583
64465		9.524789	-0.692847	2.543524	0.000100	0.078409	-0.046748	-1.001465	0.444092	-0.784668	-15.263207	-75.080020	-70.230586
64466		9.515821	-0.747906	2.547669	0.004164	0.078439	-0.040417	-1.003418	0.442139	-0.787598	-15.127488	-75.043188	-70.367094
64467		9.531002	-0.824863	2.542025	0.002458	0.086069	-0.058736	-1.004883	0.450195	-0.777344	-14.953133	-75.001546	-70.544649
64468		9.454824	-0.720544	2.566641	0.008968	0.099508	-0.057312	-1.008545	0.449219	-0.787109	-14.769825	-74.955324	-70.727634
64469		9.362698	-0.634482	2.594947	0.006763	0.095729	-0.062563	-1.004395	0.441162	-0.778564	-14.582016	-74.908615	-70.916651
64470		9.400137	-0.701479	2.565760	0.007416	0.095201	-0.061178	-1.008789	0.443604	-0.781982	-14.396178	-74.865029	-71.103255
64471		9.530310	-0.741638	2.581910	0.009704	0.094952	-0.065984	-0.995361	0.449463	-0.786377	-14.202327	-74.818935	-71.296871
64472		9.502210	-0.681219	2.586697	0.008844	0.101601	-0.071653	-0.999023	0.445068	-0.791016	-13.993196	-74.772923	-71.506846
64473		9.560922	-0.752430	2.624550	0.014226	0.116873	-0.088146	-1.001465	0.447510	-0.781982	-13.743048	-74.717326	-71.756226
64474		9.532251	-0.620529	2.656518	0.015673	0.131627	-0.099748	-0.999512	0.444092	-0.781494	-13.461048	-74.657904	-72.037803
64475		9.504969	-0.588126	2.679203	0.006856	0.134594	-0.104805	-0.998291	0.445557	-0.782715	-13.176744	-74.594021	-72.327138
64476		9.599231	-0.598331	2.677808	0.013234	0.148002	-0.103421	-0.996338	0.441650	-0.787109	-12.885581	-74.525195	-72.619845
64477		9.507496	-0.677304	2.675650	0.005568	0.150835	-0.110893	-0.993408	0.437256	-0.784424	-12.587269	-74.452250	-72.924682
64478		9.454015	-0.727966	2.646298	0.009276	0.165317	-0.127328	-0.997803	0.445801	-0.786377	-12.248192	-74.375851	-73.269692
64479		9.812674	-0.581767	2.778683	0.009945	0.175273	-0.124047	-1.000244	0.441895	-0.784424	-11.916747	-74.289889	-73.606581
64480		10.712059	-0.491157	2.811416	0.001138	0.187089	-0.072174	-0.990723	0.427490	-0.788574	-11.689651	-74.193826	-73.840374
64481		11.463377	-0.410941	2.861772	-0.013260	0.274010	0.000005	-0.989746	0.447998	-0.785400	-11.583022	-74.037453	-73.957711
64482		11.489176	-0.721703	2.768516	-0.023262	0.360323	0.045120	-0.998291	0.445801	-0.791748	-11.535430	-73.830410	-74.019612
64483		12.229661	-0.743373	2.859642	-0.009409	0.487135	0.069718	-0.989746	0.447266	-0.794922	-11.481379	-73.546424	-74.080127
64484		12.141493	-0.603296	2.890203	-0.014662	0.624513	0.098361	-0.973389	0.447754	-0.783691	-11.431682	-73.184939	-74.139262
64485		11.652812	-0.516168	2.954466	-0.018594	0.727233	0.158908	-0.974609	0.447021	-0.786865	-11.460920	-72.756075	-74.118415
64486		10.987070	-0.391343	2.967385	-0.022410	0.809842	0.213620	-0.965332	0.449707	-0.794434	-11.555728	-72.277379	-74.030971
64487		10.468996	-0.291250	3.042166	-0.030681	0.851059	0.273527	-0.963379	0.449707	-0.790527	-11.740107	-71.765847	-73.854194
64488		10.402939	-0.457729	3.094141	-0.039193	0.880285	0.330422	-0.948242	0.439941	-0.791016	-12.001507	-71.233728	-73.600716
64489		10.482922	-0.769422	3.044407	-0.035212	0.925593	0.346003	-0.945313	0.443848	-0.802246	-12.257386	-70.671355	-73.349932
64490		10.380752	-1.013015	3.069947	-0.019635	0.990108	0.320548	-0.930420	0.451172	-0.788818	-12.427254	-70.078333	-73.180006
64491		10.288715	-1.027019	3.172480	-0.004489	1.048009	0.278195	-0.921143	0.445313	-0.791504	-12.497753	-69.455484	-73.106189
64492		10.309617	-1.077823	3.232730	0.011385	1.110315	0.245415	-0.909912	0.448730	-0.800293	-12.486113	-68.804384	-73.110126
64493		10.218565	-0.986328	3.389513	0.032750	1.166590	0.217158	-0.905029	0.445068	-0.797852	-12.407623	-68.122828	-73.172929
64494		10.113717	-0.891286	3.428336	0.042533	1.212977	0.194219	-0.891357	0.452393	-0.805908	-12.281589	-67.420537	-73.281200
64495		9.910434	-0.902878	3.476889	0.050403	1.256620	0.188962	-0.869141	0.453125	-0.810059	-12.140555	-66.691990	-73.401599
64496		10.002869	-0.947195	3.595263	0.061058	1.298463	0.185517	-0.862549	0.459473	-0.803955	-11.984183	-65.942649	-73.532577
64497		10.016987	-0.922208	3.739620	0.066937	1.350866	0.182745	-0.851807	0.451660	-0.811279	-11.817871	-65.161863	-73.671766
64498		9.870203	-0.921555	3.822514	0.072706	1.407620	0.189256	-0.843994	0.458496	-0.801270	-11.649779	-64.350561	-73.809956
64499		9.835487	-0.926719	3.909460	0.076386	1.446312	0.203455	-0.834717	0.460693	-0.816162	-11.497499	-63.513618	-73.929400
64500		9.883328	-0.977676	4.039543	0.082134	1.498680	0.214266	-0.820557	0.447998	-0.813232	-11.348905	-62.648031	-74.041657
64501		9.704765	-1.090156	4.175022	0.084141	1.549500	0.224583	-0.798096	0.461914	-0.814209	-11.208716	-61.750607	-74.144297
64502		9.682594	-1.086465	4.343640	0.090982	1.591414	0.241944	-0.789551	0.453369	-0.820557	-11.079711	-60.829586	-74.230305
64503		9.659931	-1.218931	4.435057	0.093363	1.642623	0.251256	-0.774902	0.455811	-0.812500	-10.956598	-59.876783	-74.309093
64504		9.544775	-1.306252	4.609474	0.103196	1.688421	0.270700	-0.758545	0.460693	-0.820068	-10.842432	-58.897901	-74.371370
64505		9.488737	-1.362841	4.873241	0.103519	1.722178	0.333499	-0.750244	0.449707	-0.820557	-10.785577	-57.891478	-74.367206
64506		9.476713	-1.635725	4.998233	0.103109	1.727814	0.463377	-0.718994	0.458984	-0.815186	-10.840630	-56.869668	-74.229999
64507		9.520881	-1.793127	5.257908	0.110898	1.717003	0.653151	-0.710205	0.459229	-0.821289	-11.046977	-55.831491	-73.904567
64508		9.518627	-1.914717	5.661626	0.126634	1.687955	0.832444	-0.692871	0.455078	-0.825684	-11.375688	-54.790471	-73.414828
64509		9.462579	-1.810872	5.857224	0.132776	1.652480	0.938546	-0.691406	0.452881	-0.824951	-11.766664	-53.753885	-72.838351
64510		9.606273	-2.184955	5.502922	0.151607	1.636226	1.007769	-0.659424	0.452881	-0.814941	-12.172722	-52.717423	-72.221276
64511		9.595126	-2.801197	5.211549	0.186438	1.627767	1.096369	-0.639648	0.452637	-0.824463	-12.597741	-51.670705	-71.547060
64512		9.783356	-3.512997	5.424447	0.251918	1.626706	1.211472	-0.622803	0.457031	-0.812744	-13.034050	-50.608325	-70.799558
64513		9.562316	-3.704442	6.151954	0.349631	1.627441	1.280799	-0.612061	0.459717	-0.819336	-13.431440	-49.531785	-70.019232
64514		9.528421	-3.825864	6.541852	0.448898	1.585333	1.276859	-0.591797	0.445557	-0.820801	-13.744223	-48.477423	-69.262170
64515		9.520613	-3.939066	6.449282	0.556484	1.551215	1.220179	-0.579102	0.441895	-0.812012	-13.942092	-47.446422	-68.565842
64516		9.639411	-4.023474	6.189301	0.675268	1.534159	1.141388	-0.560791	0.438721	-0.812744	-14.004605	-46.435946	-67.948802
64517		9.852053	-4.005618	5.783300	0.784926	1.540877	1.067328	-0.539307	0.427002	-0.816650	-13.947791	-45.430913	-67.401683
64518		10.187948	-4.024999	5.325142	0.900379	1.597619	1.092642	-0.526367	0.418457	-0.819580	-13.816340	-44.392517	-66.855145
64519		9.143801	-3.897383	4.844337	1.003042	1.648119	1.201222	-0.512939	0.416260	-0.807129	-13.668970	-43.311434	-66.238456
64520		6.741665	-3.746794	4.389117	1.096245	1.627387	1.282303	-0.489746	0.402344	-0.815186	-13.496523	-42.232972	-65.565357
64521		5.525418	-3.812153	4.160104	1.194414	1.523451	1.281117	-0.483398	0.385254	-0.806885	-13.269776	-41.213830	-64.878401
64522		5.304865	-3.263289	3.550482	1.287492	1.408896	1.271325	-0.464600	0.381348	-0.812256	-12.982817	-40.262685	-64.185546
64523		4.064545	-2.422609	2.290115	1.335133	1.215096	1.272919	-0.458984	0.362305	-0.812256	-12.683579	-39.421905	-63.459729
64524		3.261628	-1.481244	1.269414	1.347502	0.855190	1.264715	-0.446289	0.348389	-0.811768	-12.397645	-38.786680	-62.686712
64525		3.922075	-0.741478	2.539998	1.300161	0.499191	1.192761	-0.441162	0.330811	-0.813965	-12.138455	-38.362164	-61.909152
64526		3.383724	-0.073590	3.322529	1.208445	0.125005	1.083755	-0.439453	0.321533	-0.821289	-11.910992	-38.163156	-61.156062
64527		4.425196	0.637188	2.397329	1.070797	-0.273088	0.905543	-0.446777	0.308838	-0.819580	-11.723635	-38.210335	-60.468157
64528		4.250604	0.836368	2.419722	0.903170	-0.578339	0.640049	-0.445801	0.308350	-0.822021	-11.540725	-38.461355	-59.926446
64529		5.725864	0.657569	2.546443	0.748935	-0.755320	0.327127	-0.472412	0.297852	-0.827148	-11.328455	-38.848917	-59.580458
64530		6.850938	0.533342	2.727372	0.608878	-0.777606	0.112379	-0.473633	0.290039	-0.834473	-11.098841	-39.273818	-59.388938
64531		6.809279	0.084883	2.628075	0.475715	-0.751945	0.031705	-0.473145	0.288818	-0.828125	-10.909766	-39.694264	-59.258534
64532		6.469537	-0.119048	2.370139	0.364558	-0.742594	0.031938	-0.489990	0.288818	-0.839111	-10.780505	-40.109084	-59.132179
64533		6.303241	-0.170121	2.193532	0.264701	-0.764529	0.135218	-0.501221	0.277100	-0.847412	-10.763850	-40.526419	-58.924288
64534		5.932883	-0.024417	2.009990	0.171637	-0.819764	0.252232	-0.507813	0.277344	-0.847900	-10.861322	-40.961047	-58.622072
64535		5.610054	0.362453	1.981546	0.084910	-0.902933	0.324239	-0.514404	0.286133	-0.838623	-11.059328	-41.435574	-58.248276
64536		5.590757	0.602581	2.023944	-0.003472	-0.995486	0.313490	-0.529297	0.276367	-0.851807	-11.314477	-41.960657	-57.865546
64537		5.710236	0.841983	2.197691	-0.098208	-1.087065	0.248271	-0.533447	0.274658	-0.853760	-11.610586	-42.545153	-57.509370
64538		5.849104	0.900409	2.288072	-0.197404	-1.170238	0.162415	-0.558594	0.283936	-0.853271	-11.932748	-43.182970	-57.199944
64539		6.043384	0.785516	2.460027	-0.285866	-1.248239	0.077542	-0.578369	0.284424	-0.853516	-12.280819	-43.875672	-56.932656
64540		6.299227	0.586659	2.644422	-0.371916	-1.323105	0.013350	-0.593018	0.292725	-0.856201	-12.658127	-44.614641	-56.695248
64541		6.436193	0.359313	2.782756	-0.441742	-1.404179	-0.018918	-0.610596	0.287842	-0.854248	-13.080222	-45.404506	-56.456367
64542		6.575575	0.135213	2.944532	-0.501461	-1.488619	-0.051641	-0.632324	0.293457	-0.859619	-13.537432	-46.241760	-56.217487
64543		6.755386	-0.092591	3.082202	-0.544079	-1.563323	-0.093067	-0.645508	0.298828	-0.863037	-14.020682	-47.127880	-55.981683
64544		7.213943	-0.288956	3.304568	-0.574399	-1.615129	-0.152056	-0.668457	0.314209	-0.858154	-14.504328	-48.046672	-55.770436
64545		7.561648	-0.519705	3.412904	-0.594502	-1.643902	-0.194674	-0.693604	0.308105	-0.854736	-14.994256	-48.989721	-55.570966
64546		7.670084	-0.733321	3.467146	-0.605651	-1.672941	-0.208208	-0.709961	0.317627	-0.845459	-15.498792	-49.946350	-55.361837
64547		7.676926	-0.919892	3.486226	-0.600500	-1.722443	-0.202078	-0.724854	0.314941	-0.847412	-16.032627	-50.931676	-55.115445
64548		7.520190	-0.988249	3.532055	-0.602093	-1.804883	-0.205605	-0.749512	0.325439	-0.846191	-16.597495	-51.957739	-54.832437
64549		7.625929	-1.094097	3.361434	-0.596100	-1.903348	-0.235345	-0.777344	0.331787	-0.833008	-17.183971	-53.044763	-54.523449
64550		7.958651	-1.242900	3.479732	-0.578581	-1.992178	-0.288127	-0.790527	0.334473	-0.844727	-17.764073	-54.183606	-54.212889
64551		8.473275	-1.246288	3.582980	-0.564963	-2.046628	-0.345960	-0.822510	0.323730	-0.825928	-18.335701	-55.364514	-53.909112
64552		8.824179	-1.392701	3.558360	-0.555510	-2.077587	-0.388372	-0.842773	0.342529	-0.816650	-18.901509	-56.564162	-53.608714
64553		9.107737	-1.523067	3.468186	-0.537985	-2.099299	-0.422262	-0.869873	0.349854	-0.819824	-19.468704	-57.784448	-53.300261
64554		9.096437	-1.542664	3.535805	-0.530088	-2.136860	-0.445740	-0.888428	0.349609	-0.814209	-20.051531	-59.023584	-52.970923
64555		9.437412	-1.526673	3.636404	-0.533978	-2.164355	-0.456696	-0.914063	0.345459	-0.807617	-20.676225	-60.282168	-52.601262
64556		9.719297	-1.605911	3.804115	-0.549238	-2.188387	-0.464318	-0.925049	0.355713	-0.795898	-21.349515	-61.548615	-52.189315
64557		9.989550	-1.600732	4.010304	-0.563467	-2.194671	-0.447526	-0.946777	0.360352	-0.780273	-22.104112	-62.816725	-51.700820
64558		10.265336	-1.610763	4.278016	-0.592354	-2.184783	-0.443240	-0.979492	0.364014	-0.771973	-22.929874	-64.070952	-51.155528
64559		10.449045	-1.530245	4.518103	-0.624567	-2.157709	-0.453199	-0.989746	0.370361	-0.763184	-23.822306	-65.313880	-50.563827
64560		10.594860	-1.439611	4.854123	-0.668134	-2.123212	-0.463600	-1.007324	0.362305	-0.750000	-24.780160	-66.532561	-49.932467
64561		10.858286	-1.392553	5.221575	-0.723488	-2.076158	-0.469944	-1.024414	0.384033	-0.745361	-25.824508	-67.728102	-49.248475
64562		11.083149	-1.455217	5.548168	-0.789642	-2.014083	-0.472698	-1.052734	0.387451	-0.723145	-26.952528	-68.882902	-48.519893
64563		11.243474	-1.557999	5.842190	-0.842920	-1.928541	-0.493820	-1.058594	0.391113	-0.716797	-28.130600	-69.998326	-47.776951
64564		11.341359	-1.785187	6.108248	-0.895048	-1.826194	-0.506077	-1.075684	0.399414	-0.699219	-29.343106	-71.055921	-47.033343
64565		11.365748	-1.940432	6.333780	-0.930553	-1.713781	-0.507961	-1.089844	0.410156	-0.706055	-30.592782	-72.056479	-46.277373
64566		11.385957	-2.175712	6.554655	-0.946065	-1.589866	-0.488882	-1.104492	0.417969	-0.688965	-31.869782	-72.981390	-45.505375
64567		11.443260	-2.221583	6.815489	-0.944919	-1.452837	-0.454179	-1.112305	0.426025	-0.666992	-33.178416	-73.827272	-44.704004
64568		11.408279	-2.215123	7.090750	-0.931548	-1.294070	-0.405274	-1.117920	0.439941	-0.674316	-34.484897	-74.573255	-43.899452
64569		11.353732	-2.206631	7.375541	-0.904757	-1.129899	-0.359960	-1.124756	0.438232	-0.664307	-35.759795	-75.225003	-43.114967
64570		11.118127	-2.177137	7.455574	-0.868913	-0.963105	-0.333287	-1.139648	0.453125	-0.650879	-36.922912	-75.783483	-42.426354
64571		10.724046	-2.160125	7.507637	-0.821674	-0.811081	-0.322558	-1.140869	0.462646	-0.654541	-37.939419	-76.267821	-41.862929
64572		10.426322	-2.152057	7.465333	-0.771755	-0.683724	-0.328642	-1.138672	0.462402	-0.642090	-38.773820	-76.692713	-41.458059
64573		10.157260	-2.028208	7.358607	-0.715789	-0.560512	-0.370419	-1.147461	0.467041	-0.634521	-39.344115	-77.078189	-41.292392
64574		9.937848	-1.960132	7.260240	-0.654866	-0.438280	-0.436768	-1.150879	0.472412	-0.642334	-39.565700	-77.431971	-41.448425
64575		9.767045	-1.825666	7.101383	-0.606170	-0.317726	-0.491741	-1.151611	0.477539	-0.626465	-39.448327	-77.753443	-41.922883
64576		9.537382	-1.747315	6.842022	-0.576337	-0.205470	-0.517528	-1.155273	0.494873	-0.638428	-39.050215	-78.033085	-42.666308
64577		9.394611	-1.768044	6.470234	-0.553447	-0.103453	-0.504252	-1.150879	0.490723	-0.636475	-38.465450	-78.261379	-43.586365
64578		9.248878	-1.717424	6.017870	-0.531592	-0.002961	-0.464348	-1.153564	0.489014	-0.633057	-37.754978	-78.427767	-44.621318
64579		8.994112	-1.758045	5.629966	-0.513367	0.073776	-0.424683	-1.152344	0.496338	-0.628906	-36.966801	-78.542487	-45.724314
64580		8.762155	-1.714477	5.375962	-0.491061	0.131607	-0.375914	-1.148926	0.503662	-0.625977	-36.164188	-78.611062	-46.828723
64581		8.749965	-1.754251	5.098534	-0.465945	0.183619	-0.335129	-1.148193	0.499756	-0.629395	-35.342676	-78.638035	-47.937393
64582		8.792882	-1.783855	4.915457	-0.434466	0.241767	-0.327724	-1.143066	0.505371	-0.630127	-34.425454	-78.632593	-49.125401
64583		8.773923	-1.949610	4.655871	-0.394670	0.303794	-0.324967	-1.141846	0.502441	-0.625977	-33.393010	-78.591698	-50.407579
64584		8.635557	-2.082945	4.473211	-0.348993	0.361993	-0.314937	-1.142822	0.497070	-0.626709	-32.282929	-78.516046	-51.742733
64585		8.271162	-2.105721	4.305294	-0.299881	0.387489	-0.295992	-1.140137	0.507813	-0.619873	-31.166340	-78.415615	-53.055996
64586		8.350475	-2.951291	4.448904	-0.249985	0.379730	-0.302273	-1.138672	0.510254	-0.635254	-30.041698	-78.317251	-54.348990
64587		21.296471	-6.724205	7.059065	0.120008	1.321012	-0.940586	-1.130371	0.507568	-0.640625	-26.015000	-77.900861	-58.391927
64588		9.653418	-5.180784	4.946373	0.359787	1.513114	-0.894998	-1.120850	0.501221	-0.651123	-22.062922	-77.318299	-62.225600
64589		1.763654	-4.584299	19.447702	0.549764	1.471701	-0.307718	-1.110840	0.493408	-0.657471	-19.733117	-76.591294	-64.292138
64590		8.972312	-0.198174	2.283408	-0.076374	-0.146451	-0.000796	-1.107666	0.493164	-0.663330	-19.889000	-76.670946	-64.175413
64591		9.521196	-0.048192	2.549293	0.018441	0.000469	-0.125641	-1.105469	0.495605	-0.654297	-19.585606	-76.691789	-64.474649
64592		10.152412	-0.911566	2.188389	0.033634	-0.007430	-0.070076	-1.108887	0.491211	-0.662354	-19.406456	-76.709749	-64.637456
64593		10.187953	-0.615574	2.147215	0.032891	0.064173	-0.064427	-1.104248	0.487793	-0.658691	-19.182555	-76.684047	-64.846476
64594		10.179779	-0.618028	2.105061	0.049562	0.158165	-0.017904	-1.111572	0.485596	-0.656006	-18.982785	-76.602298	-65.021137
64595		9.178905	-0.657947	2.425098	0.037362	0.134506	0.019375	-1.108643	0.494385	-0.654541	-18.894377	-76.522657	-65.088335
64596		9.335185	-0.710553	2.391551	0.023589	0.078395	0.027594	-1.116943	0.500000	-0.657959	-18.876888	-76.475577	-65.090943
64597		9.549873	-0.717592	2.209406	0.013185	0.073399	0.036188	-1.106934	0.495117	-0.661377	-18.887980	-76.425934	-65.070069
64598		9.363871	-0.829362	2.329195	0.012300	0.069081	0.039852	-1.111816	0.492920	-0.663330	-18.911549	-76.381628	-65.037091
64599		9.161329	-0.844973	2.369427	0.012096	0.049427	0.023213	-1.104004	0.493896	-0.662598	-18.912386	-76.347409	-65.027403
64600		9.402988	-0.769156	2.347273	0.007832	0.030728	0.012396	-1.103760	0.490234	-0.659912	-18.906397	-76.328988	-65.027469
64601		9.447433	-0.785598	2.314219	0.006933	0.029510	0.013956	-1.111572	0.485840	-0.661621	-18.904755	-76.307294	-65.023375
64602		9.416366	-0.853535	2.341156	0.009154	0.035884	0.010949	-1.105225	0.494141	-0.656494	-18.890881	-76.286347	-65.030776
64603		9.428227	-0.774288	2.309425	0.012821	0.027901	0.007133	-1.103760	0.489990	-0.657959	-18.871981	-76.266808	-65.040975
64604		9.478553	-0.782440	2.329897	0.005092	0.026080	0.005010	-1.098145	0.488770	-0.664063	-18.854765	-76.252275	-65.054215
64605		9.450312	-0.798545	2.304322	0.011936	0.027178	0.014724	-1.104980	0.494141	-0.663330	-18.853786	-76.231741	-65.046486
64606		9.478729	-0.815129	2.350376	0.009890	0.025612	0.012654	-1.109131	0.494385	-0.656006	-18.851126	-76.216047	-65.041911
64607		9.425419	-0.777262	2.319864	0.011449	0.029405	0.010368	-1.112793	0.492920	-0.658447	-18.839128	-76.195131	-65.045814
64608		9.448059	-0.801260	2.312604	0.013255	0.032330	0.013272	-1.104248	0.494141	-0.665527	-18.830857	-76.175679	-65.045031
64609		9.401944	-0.786603	2.351380	0.011676	0.028037	0.009524	-1.102051	0.488037	-0.658447	-18.817942	-76.155682	-65.049747
64610		9.418738	-0.800086	2.365134	0.011907	0.026672	0.008684	-1.109375	0.489258	-0.656006	-18.804620	-76.140147	-65.054961
64611		9.416487	-0.769804	2.352359	0.011006	0.025456	0.010244	-1.099854	0.489990	-0.662842	-18.795642	-76.121433	-65.056016
64612		9.445289	-0.803985	2.322950	0.007634	0.018735	0.009621	-1.097900	0.495117	-0.658936	-18.792784	-76.110030	-65.052974
64613		9.411311	-0.809578	2.318042	0.008742	0.021670	0.005101	-1.094727	0.488037	-0.666992	-18.776672	-76.094338	-65.062715
64614		9.432276	-0.784216	2.369796	0.010093	0.023739	0.005772	-1.104980	0.493652	-0.664551	-18.760265	-76.080929	-65.072180
64615		9.453603	-0.776832	2.346487	0.011012	0.021867	0.006328	-1.097656	0.494629	-0.655029	-18.745450	-76.064921	-65.079246
64616		9.419545	-0.782409	2.341887	0.008721	0.025250	0.009006	-1.099609	0.479736	-0.656006	-18.735824	-76.050097	-65.082535
64617		9.369518	-0.806038	2.341511	0.009188	0.022522	0.007329	-1.104492	0.495605	-0.660645	-18.723792	-76.033569	-65.087812
64618		9.429933	-0.785760	2.378592	0.011259	0.016917	0.001579	-1.090576	0.488037	-0.657471	-18.702704	-76.024631	-65.101413
64619		9.419473	-0.814050	2.363364	0.010553	0.021007	0.004090	-1.098877	0.493408	-0.662109	-18.683999	-76.009537	-65.112762
64620		9.440915	-0.806542	2.339781	0.009887	0.018429	0.004814	-1.093018	0.489990	-0.668457	-18.669676	-75.999183	-65.120203
64621		9.434507	-0.796233	2.362808	0.006711	0.016516	-0.000885	-1.107666	0.495361	-0.660889	-18.645712	-75.987456	-65.139242
64622		9.461540	-0.780654	2.392789	0.010333	0.018784	0.001017	-1.106445	0.495605	-0.667236	-18.622659	-75.977603	-65.155419
64623		9.433652	-0.795942	2.366316	0.007160	0.017371	0.001347	-1.095703	0.485596	-0.659424	-18.602725	-75.965017	-65.170042
64624		9.472630	-0.801237	2.353745	0.005103	0.019391	0.003185	-1.104248	0.486328	-0.661377	-18.586985	-75.954436	-65.181771
64625		9.448699	-0.778146	2.365728	0.000558	0.018991	0.000720	-1.095947	0.491943	-0.663330	-18.568354	-75.941101	-65.198952
64626		9.461152	-0.811699	2.415519	0.005764	0.021966	0.002458	-1.097168	0.484619	-0.661865	-18.548833	-75.929252	-65.214189
64627		9.396765	-0.770474	2.351695	0.000985	0.022929	0.000829	-1.095703	0.494141	-0.659424	-18.527401	-75.913772	-65.234008
64628		9.431212	-0.796163	2.375949	0.001927	0.017475	-0.002517	-1.100586	0.488525	-0.674316	-18.502629	-75.905265	-65.256927
64629		9.397349	-0.801102	2.370734	0.002140	0.019695	0.000552	-1.099365	0.493652	-0.670410	-18.482358	-75.891608	-65.274869
64630		9.463757	-0.790863	2.386514	0.006468	0.017873	-0.000053	-1.102539	0.498779	-0.664551	-18.460087	-75.882433	-65.292530
64631		9.379034	-0.787992	2.363041	0.004881	0.017166	0.000111	-1.093018	0.490234	-0.659912	-18.439188	-75.870244	-65.309503
64632		9.412073	-0.782879	2.371586	0.006487	0.014790	0.002070	-1.094727	0.494385	-0.668701	-18.423757	-75.862358	-65.320100
64633		9.388270	-0.759687	2.382969	0.001282	0.011815	0.000329	-1.096680	0.495117	-0.673584	-18.409285	-75.853055	-65.332573
64634		9.444865	-0.777740	2.381118	0.006037	0.013932	-0.000164	-1.097412	0.484375	-0.663330	-18.389940	-75.846038	-65.347474
64635		9.371662	-0.777511	2.389682	0.005136	0.012720	0.001397	-1.098389	0.488037	-0.662598	-18.374942	-75.836067	-65.358213
64636		9.456321	-0.798477	2.340965	0.003334	0.010296	0.004521	-1.092773	0.490479	-0.661377	-18.369869	-75.830179	-65.359992
64637		9.399152	-0.780505	2.345049	0.003787	0.010651	0.000725	-1.097900	0.482422	-0.669922	-18.355706	-75.821473	-65.370668
64638		9.405706	-0.803595	2.415275	0.005372	0.011356	0.000561	-1.103271	0.487061	-0.663818	-18.340199	-75.815722	-65.382005
64639		9.408553	-0.752298	2.364276	0.003333	0.010295	0.004520	-1.108398	0.486816	-0.668945	-18.334742	-75.806542	-65.383971
64640		9.405158	-0.803917	2.417302	0.002201	0.009944	0.000889	-1.092773	0.493896	-0.671387	-18.322781	-75.801500	-65.393525
64641		9.386021	-0.760231	2.391639	0.002885	0.009438	0.002286	-1.097168	0.489990	-0.658936	-18.313400	-75.793205	-65.399803
64642		9.432773	-0.806686	2.372346	0.000168	0.008382	-0.001181	-1.103027	0.483398	-0.656982	-18.299284	-75.789384	-65.412782
64643		9.381698	-0.798970	2.354943	0.005838	0.009131	0.004918	-1.101074	0.487305	-0.666504	-18.294101	-75.780801	-65.412985
64644		9.414871	-0.793861	2.362970	0.004240	0.011003	-0.003071	-1.097656	0.492676	-0.664063	-18.271754	-75.775892	-65.432050
64645		9.441997	-0.778184	2.392322	0.005607	0.009991	-0.000275	-1.102295	0.494629	-0.659668	-18.254979	-75.767793	-65.444349
64646		9.425727	-0.795999	2.397668	0.006033	0.013928	-0.000168	-1.100342	0.496582	-0.667480	-18.235796	-75.760768	-65.459090
64647		9.389830	-0.751906	2.451468	0.004923	0.010497	-0.001674	-1.099854	0.487061	-0.656006	-18.216094	-75.752661	-65.474816
64648		9.406365	-0.751962	2.373070	-0.000050	0.006663	0.001777	-1.099609	0.488037	-0.664551	-18.209716	-75.749240	-65.479943
64649		9.413711	-0.793375	2.367751	0.003140	0.004994	0.003575	-1.094727	0.485840	-0.665283	-18.206163	-75.743202	-65.480059
64650		9.452203	-0.780936	2.429318	-0.000080	0.010246	0.005679	-1.105225	0.493408	-0.657715	-18.205641	-75.737132	-65.479162
64651		9.401187	-0.773496	2.411597	-0.002061	0.002021	0.001833	-1.101074	0.490479	-0.673340	-18.203435	-75.733041	-65.480965
64652		9.435927	-0.799302	2.434476	0.000405	0.007017	-0.002018	-1.093994	0.488770	-0.664063	-18.188436	-75.730106	-65.494719
64653		9.422909	-0.765736	2.387509	0.002861	0.012516	0.000159	-1.103027	0.490479	-0.663818	-18.172459	-75.720615	-65.507820
64654		9.440042	-0.778510	2.399920	0.004684	0.011858	-0.000840	-1.098145	0.491455	-0.662354	-18.154152	-75.714833	-65.522458
64655		9.429835	-0.806632	2.384013	0.002177	0.013022	-0.001241	-1.098145	0.493164	-0.666260	-18.135256	-75.705332	-65.538978
64656		9.420534	-0.734438	2.375978	0.002363	0.018321	-0.000300	-1.097900	0.485596	-0.662842	-18.114946	-75.695932	-65.557057
64657		9.383479	-0.791006	2.422585	0.000558	0.015899	0.002823	-1.092285	0.498779	-0.664063	-18.103690	-75.684158	-65.566652
64658		9.456009	-0.791292	2.416890	0.000352	0.013678	-0.000245	-1.102783	0.480713	-0.677734	-18.087931	-75.677274	-65.581224
64659		9.388766	-0.801561	2.404345	0.004834	0.020738	0.004002	-1.093262	0.493408	-0.658691	-18.073409	-75.662668	-65.591663
64660		9.386879	-0.770387	2.390880	0.004860	0.019731	-0.008055	-1.097168	0.490967	-0.664307	-18.034265	-75.653871	-65.627707
64661		9.419823	-0.764760	2.399965	0.004606	0.021596	-0.001194	-1.099365	0.484863	-0.663330	-18.008297	-75.639733	-65.650097
64662		9.426834	-0.805648	2.396184	0.001654	0.021902	-0.003830	-1.096436	0.496338	-0.663330	-17.978575	-75.628996	-65.678316
64663		9.430075	-0.766451	2.436863	0.004802	0.026389	-0.006284	-1.092773	0.486816	-0.664307	-17.938477	-75.613156	-65.715181
64664		9.435603	-0.776161	2.418070	0.003898	0.025178	-0.004724	-1.094238	0.492188	-0.666992	-17.903429	-75.600782	-65.747575
64665		9.458503	-0.798902	2.410664	0.005001	0.028607	-0.003220	-1.095703	0.488770	-0.671143	-17.868350	-75.583198	-65.779146
64666		9.457810	-0.798377	2.413555	0.004978	0.031683	-0.005350	-1.092773	0.482422	-0.672852	-17.827047	-75.567375	-65.817364
64667		9.468259	-0.800384	2.449445	0.004915	0.038341	-0.003581	-1.091797	0.492432	-0.664063	-17.784819	-75.544552	-65.856376
64668		9.448613	-0.755851	2.426312	0.005172	0.036472	-0.010445	-1.098877	0.492188	-0.664063	-17.729585	-75.526991	-65.908872
64669		9.449077	-0.785903	2.445589	0.010760	0.043880	-0.002568	-1.094971	0.493164	-0.672607	-17.682682	-75.500967	-65.949261
64670		9.495098	-0.831618	2.430096	0.005521	0.047059	-0.008580	-1.096436	0.491943	-0.673584	-17.624370	-75.477278	-66.004743
64671		9.493903	-0.830355	2.435191	0.008378	0.059055	-0.014464	-1.094238	0.491455	-0.670410	-17.544026	-75.445019	-66.081101
64672		9.584999	-0.771918	2.469000	0.006457	0.072009	-0.022002	-1.096924	0.495117	-0.669922	-17.440928	-75.409968	-66.182318
64673		9.493005	-0.756785	2.471573	0.004788	0.077951	-0.020087	-1.099365	0.484131	-0.666748	-17.339250	-75.368292	-66.282879
64674		9.430721	-0.774889	2.443429	0.003173	0.082878	-0.030232	-1.093262	0.490234	-0.672852	-17.214793	-75.328600	-66.408154
64675		9.485808	-0.790445	2.448896	0.009665	0.085336	-0.019659	-1.089111	0.494385	-0.673096	-17.107669	-75.282725	-66.511498
64676		9.491510	-0.828749	2.451498	0.012175	0.089295	-0.035586	-1.097900	0.485840	-0.670410	-16.964194	-75.240283	-66.651155
64677		9.513116	-0.847567	2.451034	0.012502	0.104991	-0.050073	-1.088135	0.490234	-0.669678	-16.781430	-75.188577	-66.831097
64678		9.430267	-0.800699	2.473632	0.016521	0.113220	-0.062279	-1.088379	0.482666	-0.671875	-16.567263	-75.137168	-67.041372
64679		9.470846	-0.760552	2.509320	0.015993	0.118473	-0.068820	-1.092041	0.489746	-0.669434	-16.338288	-75.080778	-67.267158
64680		9.466462	-0.822579	2.498318	0.018817	0.129909	-0.080788	-1.085938	0.496094	-0.670898	-16.077820	-75.022711	-67.524102
64681		9.432302	-0.749636	2.526371	0.022832	0.135043	-0.090882	-1.085938	0.482666	-0.680176	-15.793594	-74.960158	-67.803167
64682		9.477048	-0.786149	2.520512	0.022465	0.145043	-0.102564	-1.085205	0.488525	-0.658203	-15.482025	-74.896448	-68.111016
64683		9.369521	-0.711165	2.555540	0.024538	0.145008	-0.118649	-1.085938	0.487549	-0.672852	-15.139456	-74.831821	-68.449686
64684		9.344219	-0.606831	2.601549	0.023796	0.142381	-0.117984	-1.087646	0.485352	-0.676514	-14.802509	-74.770938	-68.783227
64685		9.366657	-0.649440	2.620478	0.021333	0.131221	-0.109896	-1.083984	0.485352	-0.680908	-14.492392	-74.711681	-69.090367
64686		9.468948	-0.701937	2.612332	0.023309	0.132222	-0.113908	-1.093750	0.485352	-0.674805	-14.174343	-74.654891	-69.404791
64687		9.487288	-0.651638	2.584918	0.021528	0.140638	-0.120268	-1.084473	0.479980	-0.675537	-13.843211	-74.590952	-69.733794
64688		9.462727	-0.577998	2.646418	0.021283	0.147220	-0.118601	-1.076416	0.479248	-0.677246	-13.514453	-74.525503	-70.060721
64689		9.434585	-0.612892	2.647041	0.021185	0.147159	-0.118674	-1.079590	0.470215	-0.680664	-13.189091	-74.456741	-70.384157
64690		9.381671	-0.524815	2.664158	0.016246	0.148546	-0.114411	-1.078369	0.481934	-0.687500	-12.876538	-74.389033	-70.697472
64691		9.503240	-0.551195	2.708381	0.010794	0.147071	-0.098145	-1.079590	0.481201	-0.676025	-12.603636	-74.316823	-70.972836
64692		9.761927	-0.604775	2.725811	0.011526	0.148753	-0.093729	-1.074707	0.478271	-0.674805	-12.340037	-74.245620	-71.238321
64693		10.058629	-0.632727	2.717343	0.010833	0.183270	-0.076884	-1.078369	0.479736	-0.682861	-12.098724	-74.149906	-71.481049
64694		9.684968	-0.638498	2.706896	0.012450	0.214166	-0.079997	-1.072754	0.479004	-0.686035	-11.839683	-74.039779	-71.741489
64695		9.703922	-0.583791	2.742188	0.008158	0.231672	-0.076900	-1.069092	0.483154	-0.684326	-11.586613	-73.916358	-71.998320
64696		9.395599	-0.440157	2.794779	0.008916	0.235532	-0.069479	-1.074951	0.475098	-0.685791	-11.348860	-73.792415	-72.239021
64697		9.429546	-0.369655	2.826549	-0.000418	0.224482	-0.041865	-1.067627	0.477295	-0.679199	-11.178182	-73.668579	-72.415468
64698		9.670009	-0.585994	2.812471	-0.006669	0.223475	-0.027074	-1.067139	0.476563	-0.681641	-11.041239	-73.546317	-72.560698
64699		9.712465	-0.629210	2.817057	-0.001893	0.238287	-0.022761	-1.064209	0.476807	-0.687988	-10.907354	-73.412404	-72.699880
64700		9.843192	-0.582868	2.839211	0.000340	0.259757	-0.029327	-1.063721	0.483154	-0.692139	-10.753454	-73.269768	-72.858818
64701		9.795335	-0.575972	2.878120	-0.005541	0.283959	-0.022271	-1.056641	0.485596	-0.682617	-10.611231	-73.109914	-73.009113
64702		9.794723	-0.653782	2.863335	-0.001014	0.304780	-0.022380	-1.063477	0.479248	-0.691406	-10.460875	-72.940957	-73.165421
64703		9.769451	-0.422506	3.004147	-0.001076	0.327867	-0.016015	-1.048584	0.469727	-0.685303	-10.318532	-72.755519	-73.313447
64704		9.837739	-0.369919	2.981799	-0.010639	0.337782	0.014952	-1.057129	0.485107	-0.686768	-10.236084	-72.563936	-73.404701
64705		10.074780	-0.483944	3.046727	-0.012804	0.355627	0.043866	-1.050537	0.473145	-0.697266	-10.203372	-72.356654	-73.445111
64706		10.347381	-0.551447	3.018990	-0.020758	0.384731	0.057699	-1.049072	0.473145	-0.702148	-10.190139	-72.134223	-73.469985
64707		10.623092	-0.704672	3.098782	-0.014580	0.443650	0.065550	-1.042236	0.486572	-0.695801	-10.170121	-71.875135	-73.498226
64708		10.874889	-0.691774	3.097206	-0.011719	0.512609	0.058696	-1.038330	0.476563	-0.699219	-10.115684	-71.580473	-73.561110
64709		11.142931	-0.714383	3.188469	-0.005144	0.588140	0.067204	-1.034668	0.474609	-0.701660	-10.052204	-71.239750	-73.629611
64710		11.366940	-0.818575	3.172307	0.003988	0.679998	0.064240	-1.023193	0.483643	-0.705078	-9.953774	-70.850039	-73.729748
64711		11.115684	-0.856700	3.237707	0.017592	0.773988	0.049322	-1.020752	0.487305	-0.709717	-9.802973	-70.406164	-73.877346
64712		10.809718	-0.693582	3.245827	0.029021	0.853216	0.045932	-1.010742	0.483887	-0.716553	-9.625107	-69.920240	-74.047225
64713		10.628141	-0.391407	3.414339	0.029814	0.913065	0.063637	-1.013428	0.478760	-0.712402	-9.467673	-69.396220	-74.195359
64714		10.293346	-0.208095	3.433392	0.025461	0.962940	0.096189	-0.995361	0.479004	-0.713379	-9.354782	-68.843269	-74.299032
64715		9.807094	-0.351349	3.460746	0.019864	0.998050	0.130591	-0.990234	0.483643	-0.713379	-9.292251	-68.264855	-74.352426
64716		9.407352	-0.438184	3.520444	0.016159	1.007239	0.147270	-0.972168	0.484619	-0.726563	-9.254793	-67.682051	-74.381295
64717		9.163774	-0.634224	3.554351	0.019430	1.018155	0.151543	-0.973389	0.473877	-0.736572	-9.221367	-67.090364	-74.403875
64718		9.155114	-0.809303	3.597039	0.028253	1.027100	0.145793	-0.958008	0.484131	-0.735840	-9.174094	-66.496448	-74.436131
64719		9.172378	-0.999472	3.723495	0.043877	1.045033	0.116576	-0.945557	0.487793	-0.744629	-9.080085	-65.892762	-74.509838
64720		9.213728	-1.023136	3.719271	0.062302	1.065662	0.095446	-0.947266	0.482422	-0.740723	-8.948736	-65.281506	-74.613301
64721		9.438354	-0.997766	3.940121	0.076832	1.093501	0.078805	-0.929932	0.490234	-0.745361	-8.790536	-64.653640	-74.737773
64722		9.592602	-0.854462	4.011153	0.092914	1.131783	0.072334	-0.916504	0.490967	-0.751465	-8.614649	-64.006715	-74.872256
64723		9.736901	-0.733662	4.158996	0.094140	1.171162	0.084557	-0.901367	0.486084	-0.755859	-8.453633	-63.334118	-74.990204
64724		9.869892	-0.609667	4.246149	0.097134	1.216554	0.093346	-0.899658	0.491455	-0.764648	-8.298986	-62.637067	-75.099704
64725		10.151670	-0.626237	4.319145	0.097669	1.278178	0.108155	-0.885254	0.479248	-0.761475	-8.157744	-61.901660	-75.194532
64726		10.207472	-0.904394	4.357961	0.103208	1.355877	0.104869	-0.869385	0.487549	-0.764404	-8.003515	-61.124400	-75.301088
64727		10.261006	-1.115713	4.498212	0.120543	1.434867	0.093470	-0.864990	0.489014	-0.769775	-7.824759	-60.301110	-75.425345
64728		10.195785	-1.154068	4.544470	0.139840	1.516230	0.082095	-0.845703	0.487305	-0.774170	-7.620456	-59.434258	-75.567260
64729		10.055230	-1.160030	4.793019	0.161190	1.594428	0.058964	-0.828857	0.483398	-0.778076	-7.383227	-58.522616	-75.734843
64730		9.843473	-1.262490	4.799430	0.181007	1.658159	0.045344	-0.816406	0.482178	-0.785645	-7.125250	-57.577200	-75.914950
64731		9.578942	-1.124428	4.992452	0.199601	1.717999	0.038709	-0.803467	0.479004	-0.786865	-6.857749	-56.596081	-76.095945
64732		9.295728	-0.747628	5.297536	0.208908	1.755611	0.039647	-0.782959	0.488037	-0.786133	-6.593233	-55.594757	-76.268693
64733		8.993101	-0.687347	5.510397	0.193669	1.771254	0.065495	-0.772217	0.474609	-0.783447	-6.369651	-54.580851	-76.404633
64734		8.683923	-0.786142	5.603442	0.183973	1.768895	0.135003	-0.747314	0.477783	-0.790771	-6.214071	-53.565274	-76.464810
64735		8.466896	-0.783127	6.044036	0.164022	1.751231	0.251778	-0.732666	0.484619	-0.800049	-6.165129	-52.550952	-76.407082
64736		8.133770	-0.837537	6.273725	0.137757	1.687456	0.425719	-0.715576	0.486572	-0.794434	-6.260138	-51.563687	-76.184707
64737		8.185213	-1.002368	6.019990	0.117400	1.626961	0.596440	-0.695801	0.477295	-0.795654	-6.483602	-50.598120	-75.809657
64738		8.165368	-1.047983	6.039488	0.101211	1.572705	0.793960	-0.685791	0.477051	-0.804932	-6.838584	-49.650638	-75.269684
64739		8.129975	-1.228372	6.048947	0.084856	1.524235	0.966144	-0.665039	0.486572	-0.801514	-7.299875	-48.714663	-74.594541
64740		7.813054	-1.487483	6.028431	0.090133	1.468354	1.125254	-0.643799	0.484619	-0.806641	-7.837578	-47.796072	-73.802762
64741		7.516166	-1.648668	6.440595	0.117421	1.411230	1.224388	-0.630127	0.474854	-0.806641	-8.398582	-46.895443	-72.947138
64742		7.653034	-1.637315	6.908161	0.153685	1.346011	1.247020	-0.608887	0.489014	-0.801758	-8.928989	-46.025731	-72.092016
64743		7.237906	-1.863694	6.826309	0.185801	1.284293	1.261436	-0.595947	0.491699	-0.800293	-9.429821	-45.182951	-71.240756
64744		7.383564	-2.009723	6.670717	0.227859	1.198804	1.303912	-0.574951	0.476074	-0.801025	-9.913116	-44.380684	-70.367302
64745		7.816654	-2.085131	6.737289	0.280968	1.136225	1.355085	-0.566406	0.482178	-0.804932	-10.377815	-43.602059	-69.465148
64746		8.050534	-1.951651	6.822168	0.333527	1.110703	1.368053	-0.547363	0.468506	-0.800781	-10.798369	-42.832843	-68.569848
64747		8.258480	-1.871605	6.674115	0.392674	1.112635	1.356475	-0.533691	0.469727	-0.812256	-11.158801	-42.058069	-67.701142
64748		7.738548	-1.707021	6.559527	0.441144	1.118347	1.331469	-0.520752	0.462402	-0.802490	-11.457602	-41.280532	-66.869374
64749		6.573802	-1.725337	6.227008	0.483786	1.110323	1.250416	-0.503174	0.456299	-0.799561	-11.676538	-40.512837	-66.110308
64750		5.415230	-1.718389	6.045717	0.528480	1.049543	1.119264	-0.488525	0.457764	-0.799316	-11.797911	-39.794007	-65.450292
64751		5.245508	-1.916569	6.018186	0.577330	1.002141	0.937740	-0.482666	0.448730	-0.799561	-11.802099	-39.121349	-64.921922
64752		5.451073	-1.711276	5.941102	0.618816	0.995139	0.752804	-0.468994	0.441162	-0.803223	-11.691418	-38.475707	-64.530415
64753		5.318816	-1.607939	5.819315	0.647573	0.993333	0.581026	-0.455078	0.428223	-0.799316	-11.485621	-37.850593	-64.261764
64754		4.805316	-1.456508	4.805063	0.667659	0.945036	0.434137	-0.448975	0.428467	-0.804688	-11.206430	-37.271170	-64.089865
64755		3.388649	-1.204766	4.208579	0.663838	0.736747	0.330417	-0.437012	0.420654	-0.801025	-10.904078	-36.819946	-63.959196
64756		3.883864	-0.908171	3.169502	0.628128	0.462121	0.231024	-0.429932	0.422119	-0.800537	-10.601994	-36.535507	-63.860011
64757		3.051720	-0.892905	4.535621	0.582231	0.155337	0.189547	-0.428711	0.416748	-0.807373	-10.334307	-36.427712	-63.748004
64758		4.339761	-0.709314	3.753936	0.512218	-0.223329	0.170972	-0.429199	0.406250	-0.803711	-10.126671	-36.536611	-63.601207
64759		4.037852	-0.426762	3.301099	0.429758	-0.536498	0.101983	-0.435059	0.406738	-0.812988	-9.962113	-36.828624	-63.463325
64760		5.020564	-0.408724	3.316116	0.348128	-0.757059	-0.029853	-0.444336	0.404541	-0.809326	-9.803855	-37.259253	-63.392540
64761		6.174550	-0.473164	3.424473	0.278488	-0.839640	-0.154960	-0.458984	0.402344	-0.818115	-9.638308	-37.748137	-63.401198
64762		6.764325	-0.583871	3.432906	0.221267	-0.825431	-0.243547	-0.458008	0.409668	-0.817627	-9.463038	-38.238033	-63.477638
64763		6.789538	-0.694489	3.445850	0.169933	-0.786428	-0.278539	-0.471436	0.403564	-0.821289	-9.297711	-38.708663	-63.585722
64764		6.570590	-0.779893	3.332530	0.122789	-0.767083	-0.271807	-0.469238	0.393311	-0.819580	-9.157769	-39.167810	-63.694158
64765		6.306160	-0.782293	3.255749	0.069127	-0.778977	-0.231934	-0.475342	0.404785	-0.833740	-9.067252	-39.629934	-63.773264
64766		6.044679	-0.740216	3.122557	0.016960	-0.839169	-0.171182	-0.488525	0.402588	-0.829834	-9.037455	-40.120537	-63.802341
64767		5.861323	-0.664807	3.077503	-0.037980	-0.938025	-0.120679	-0.491211	0.403076	-0.838379	-9.071899	-40.662859	-63.781722
64768		5.697727	-0.600768	2.962407	-0.093613	-1.072617	-0.076500	-0.504639	0.413086	-0.833008	-9.170156	-41.276954	-63.711477
64769		5.618765	-0.387103	2.937198	-0.157411	-1.233850	-0.049516	-0.522949	0.411133	-0.835205	-9.335295	-41.980218	-63.597650
64770		5.855883	-0.239514	3.036151	-0.215974	-1.399590	-0.040302	-0.534912	0.417725	-0.841553	-9.555890	-42.775401	-63.451830
64771		6.401747	-0.184155	3.264444	-0.278107	-1.520211	-0.059871	-0.551514	0.411377	-0.839600	-9.819920	-43.640982	-63.297930
64772		6.973755	-0.186724	3.460999	-0.333444	-1.595019	-0.097838	-0.568115	0.419678	-0.841309	-10.108192	-44.551144	-63.156160
64773		7.347870	-0.239472	3.620705	-0.375108	-1.623613	-0.152310	-0.579834	0.431152	-0.846436	-10.401581	-45.483572	-63.044208
64774		7.632135	-0.356191	3.703981	-0.409703	-1.625096	-0.198192	-0.593994	0.430420	-0.843994	-10.694559	-46.420117	-62.961195
64775		7.644043	-0.504411	3.686708	-0.430287	-1.624833	-0.223907	-0.610107	0.433350	-0.848145	-10.992178	-47.360364	-62.890193
64776		7.661112	-0.687259	3.583340	-0.439851	-1.644600	-0.219808	-0.621338	0.447266	-0.843994	-11.306310	-48.309611	-62.804461
64777		7.668706	-0.824528	3.542074	-0.437387	-1.684150	-0.196526	-0.647949	0.446533	-0.851807	-11.648717	-49.279706	-62.681427
64778		7.807008	-0.813259	3.535534	-0.429327	-1.729691	-0.171179	-0.650635	0.447998	-0.842529	-12.018779	-50.270201	-62.517051
64779		7.887861	-0.839695	3.432017	-0.422208	-1.780759	-0.170609	-0.682373	0.461670	-0.844482	-12.406612	-51.290371	-62.327719
64780		8.132462	-0.876122	3.454453	-0.408770	-1.831375	-0.198800	-0.690918	0.461670	-0.852539	-12.787649	-52.339674	-62.139106
64781		8.375247	-0.862829	3.566861	-0.395821	-1.863223	-0.227455	-0.714111	0.480713	-0.850098	-13.161839	-53.411741	-61.953297
64782		8.603465	-0.782063	3.596673	-0.393485	-1.888901	-0.237230	-0.727783	0.478027	-0.853760	-13.546137	-54.496567	-61.755074
64783		8.771614	-0.778779	3.568240	-0.397573	-1.913019	-0.212773	-0.753418	0.476807	-0.844727	-13.976026	-55.592912	-61.507579
64784		8.934392	-0.649383	3.597916	-0.405883	-1.925674	-0.178007	-0.776855	0.480469	-0.846191	-14.462133	-56.687944	-61.200534
64785		9.101092	-0.322666	3.737744	-0.429999	-1.932906	-0.154102	-0.789307	0.493408	-0.843750	-15.012056	-57.784374	-60.838652
64786		9.139460	0.070375	3.672761	-0.480359	-1.929569	-0.149094	-0.807861	0.495361	-0.845947	-15.624020	-58.873702	-60.441330
64787		9.016027	0.195018	3.593038	-0.550379	-1.948222	-0.175528	-0.826904	0.503418	-0.837646	-16.293511	-59.977690	-60.029060
64788		9.097064	0.194811	3.553820	-0.615978	-1.982417	-0.228574	-0.853760	0.512939	-0.834229	-16.997045	-61.103948	-59.624775
64789		9.322465	0.066727	3.512916	-0.677980	-2.005072	-0.281043	-0.868408	0.520996	-0.826660	-17.734664	-62.251734	-59.227139
64790		9.530908	-0.145107	3.480816	-0.737773	-2.025251	-0.329408	-0.895508	0.540039	-0.831299	-18.507675	-63.413791	-58.831825
64791		9.694824	-0.460414	3.582758	-0.784200	-2.051823	-0.369430	-0.916748	0.539307	-0.824463	-19.325841	-64.597936	-58.420434
64792		9.863286	-0.755946	3.935620	-0.820355	-2.083752	-0.398417	-0.941650	0.544922	-0.817139	-20.200987	-65.799259	-57.972616
64793		10.124377	-0.825635	4.336494	-0.861977	-2.103324	-0.427816	-0.958008	0.551514	-0.809570	-21.141559	-67.016810	-57.484143
64794		10.587257	-0.984367	4.754449	-0.907158	-2.104668	-0.456781	-0.981445	0.565186	-0.797852	-22.147038	-68.234796	-56.957382
64795		10.951490	-1.047693	5.168590	-0.947741	-2.062529	-0.478345	-1.001221	0.576172	-0.795654	-23.211296	-69.434307	-56.397375
64796		11.167748	-1.224414	5.434268	-0.988044	-1.994623	-0.499192	-1.030273	0.588867	-0.785156	-24.319948	-70.596125	-55.818589
64797		11.264199	-1.418342	5.662499	-1.017588	-1.920281	-0.513252	-1.044678	0.593506	-0.777588	-25.475992	-71.721263	-55.212031
64798		11.404602	-1.535266	5.799180	-1.040978	-1.822962	-0.512357	-1.069336	0.609375	-0.758789	-26.678863	-72.789131	-54.573841
64799		11.542603	-1.726727	5.920914	-1.045854	-1.709818	-0.520418	-1.096191	0.624512	-0.754395	-27.888287	-73.799626	-53.935595
64800		11.536995	-1.980995	5.930147	-1.039599	-1.583661	-0.529185	-1.111816	0.624512	-0.744385	-29.069198	-74.742483	-53.326104
64801		11.333299	-2.328125	5.920960	-1.013424	-1.468229	-0.537639	-1.121826	0.635010	-0.734375	-30.206887	-75.628858	-52.748684
64802		11.165950	-2.703073	5.834988	-0.966774	-1.365662	-0.524831	-1.143311	0.643555	-0.721680	-31.326637	-76.455765	-52.164184
64803		11.119168	-3.062801	5.751010	-0.903542	-1.269123	-0.485703	-1.155518	0.642334	-0.712402	-32.473339	-77.222686	-51.516935
64804		11.051525	-3.296538	5.585839	-0.823971	-1.157876	-0.423511	-1.175781	0.655762	-0.708252	-33.659539	-77.911830	-50.784235
64805		11.046905	-3.477635	5.505729	-0.725548	-1.040556	-0.351743	-1.179688	0.662109	-0.701172	-34.882062	-78.520144	-49.958747
64806		10.972147	-3.573877	5.308425	-0.620361	-0.916590	-0.255925	-1.189941	0.668457	-0.685547	-36.168333	-79.033585	-49.008317
64807		10.906389	-3.556795	5.136040	-0.513147	-0.785382	-0.153345	-1.193115	0.672607	-0.680664	-37.507965	-79.448138	-47.942656
64808		10.680939	-3.334410	5.003403	-0.397248	-0.651947	-0.086909	-1.205078	0.671875	-0.672852	-38.774516	-79.773535	-46.884938
64809		10.245567	-3.176171	4.727542	-0.281722	-0.528182	-0.074590	-1.215088	0.687012	-0.677246	-39.822488	-80.036116	-45.983079
64810		9.884606	-2.954064	4.461515	-0.167014	-0.427975	-0.103622	-1.216553	0.674072	-0.670410	-40.562521	-80.262620	-45.327639
64811		9.503790	-2.937517	4.244255	-0.071797	-0.371040	-0.118150	-1.231934	0.685791	-0.664307	-41.116315	-80.468678	-44.806254
64812		9.054348	-2.880651	3.956779	0.025326	-0.366731	-0.106917	-1.226563	0.671387	-0.656982	-41.655452	-80.667717	-44.243563
64813		8.899425	-2.846760	3.701506	0.103723	-0.393681	-0.072255	-1.220459	0.676270	-0.662109	-42.330011	-80.863684	-43.498519
64814		9.014083	-2.740610	3.615989	0.173057	-0.411746	-0.012852	-1.240479	0.675781	-0.663086	-43.196942	-81.042795	-42.518810
64815		9.157750	-2.624679	3.555609	0.226220	-0.410253	0.053168	-1.239746	0.669678	-0.659424	-44.242381	-81.191961	-41.328052
64816		9.309439	-2.454420	3.499090	0.269773	-0.386149	0.115221	-1.247314	0.679932	-0.658936	-45.399044	-81.303300	-39.999918
64817		9.499156	-2.259867	3.545548	0.305182	-0.329384	0.161191	-1.243896	0.670898	-0.661377	-46.529999	-81.368166	-38.677562
64818		9.607184	-2.015183	3.644044	0.331374	-0.249337	0.189694	-1.249756	0.677734	-0.666016	-47.512295	-81.387000	-37.490549
64819		9.516353	-1.702308	3.721694	0.342127	-0.150900	0.166757	-1.251465	0.679199	-0.669922	-48.155441	-81.374072	-36.640277
64820		16.891022	-2.026855	6.962982	0.409566	0.458888	-0.162396	-1.250732	0.677002	-0.666748	-46.237415	-81.264634	-38.341687
64821		10.577225	-1.623700	3.698843	0.454505	0.768291	-0.207303	-1.240723	0.669434	-0.679443	-43.434086	-81.035661	-40.913632
64822		9.062404	-1.640841	5.405228	0.485314	1.101152	-0.477751	-1.230957	0.654053	-0.685303	-39.268415	-80.743615	-44.849395
64823		9.663234	-1.320273	5.948377	0.506088	1.312483	-0.488340	-1.232910	0.650879	-0.701172	-34.913312	-80.311292	-48.969016
64824		9.392830	-1.799303	5.798837	0.500643	1.525446	-0.507336	-1.216797	0.632813	-0.705566	-30.543051	-79.733581	-53.113564
64825		9.539991	-1.702838	6.162354	0.501738	1.733086	-0.526765	-1.207031	0.638184	-0.724365	-26.314833	-79.002076	-57.121330
64826		9.567196	-1.014530	5.721728	0.480021	1.916222	-0.525141	-1.194580	0.634521	-0.736816	-22.437897	-78.126408	-60.794556
64827		17.782744	4.382057	4.541975	0.260540	1.913449	0.066494	-1.181396	0.637451	-0.746826	-20.612388	-77.090416	-62.508989
64828		-5.965605	-2.088339	7.452773	0.097510	0.534939	0.053006	-1.173584	0.626953	-0.748291	-20.212530	-76.793133	-62.860632
64829		9.753517	-1.540552	1.964350	-0.009283	0.030627	0.049078	-1.182129	0.626709	-0.745117	-20.296772	-76.764527	-62.777724
64830		10.611660	-0.353175	2.053250	0.024271	0.058716	-0.020233	-1.169678	0.631104	-0.745361	-20.181486	-76.737532	-62.880400
64831		9.797477	-0.784261	2.090888	0.028036	0.091673	0.019676	-1.172363	0.628662	-0.748291	-20.126251	-76.681965	-62.918823
64832		9.718257	-0.804045	2.147574	0.030221	0.132494	-0.000680	-1.171387	0.626221	-0.743408	-19.991976	-76.611347	-63.037555
64833		9.730551	-0.736979	2.216042	0.025531	0.144770	0.015413	-1.177002	0.634277	-0.749023	-19.886407	-76.528009	-63.129230
64834		9.170851	-0.767420	2.375703	0.015029	0.103851	0.023314	-1.166260	0.630615	-0.750977	-19.840234	-76.468061	-63.166382
64835		9.370280	-0.807965	2.288186	0.012428	0.065414	0.018308	-1.167969	0.628418	-0.751465	-19.814114	-76.426899	-63.184100
64836		9.401769	-0.822859	2.225531	0.011690	0.055629	0.011246	-1.166016	0.622314	-0.750244	-19.782175	-76.395280	-63.208589
64837		9.445858	-0.821208	2.269610	0.014396	0.053073	0.010782	-1.170898	0.631836	-0.751709	-19.748335	-76.362237	-63.233098
64838		9.398363	-0.774634	2.294977	0.016177	0.048795	0.005872	-1.168213	0.625244	-0.749268	-19.707606	-76.335335	-63.263993
64839		9.408604	-0.796033	2.256804	0.011636	0.042246	0.007691	-1.174805	0.626709	-0.754150	-19.677362	-76.308734	-63.286435
64840		9.334916	-0.795565	2.268588	0.010938	0.032984	0.006656	-1.165039	0.625977	-0.755859	-19.654109	-76.290203	-63.302439
64841		9.457986	-0.804986	2.280955	0.007526	0.026274	0.006077	-1.170410	0.627441	-0.752930	-19.635415	-76.272539	-63.315420
64842		9.400697	-0.786551	2.286933	0.003428	0.023156	0.001981	-1.167480	0.622559	-0.755371	-19.613972	-76.260209	-63.333991
64843		9.440731	-0.823418	2.290050	0.005939	0.022492	0.008378	-1.169922	0.629150	-0.750000	-19.604312	-76.244154	-63.338611
64844		9.443175	-0.772785	2.239670	0.003649	0.021785	0.001146	-1.163574	0.625977	-0.747070	-19.582043	-76.232722	-63.357905
64845		9.477524	-0.799077	2.264066	0.003442	0.023671	0.007994	-1.161621	0.624023	-0.753418	-19.572100	-76.216118	-63.364290
64846		9.443379	-0.804575	2.259729	0.003440	0.023670	0.007993	-1.160645	0.626709	-0.753906	-19.563599	-76.202353	-63.369534
64847		9.426702	-0.822966	2.266415	0.001392	0.022111	0.005944	-1.163086	0.628418	-0.754150	-19.551591	-76.186998	-63.379258
64848		9.458375	-0.787911	2.259462	0.003884	0.020929	0.006326	-1.160156	0.620850	-0.748047	-19.541343	-76.175032	-63.386038
64849		9.492672	-0.814367	2.283917	0.004339	0.024871	0.006422	-1.164063	0.625977	-0.750732	-19.526604	-76.158109	-63.396839
64850		9.435464	-0.795918	2.289463	0.003188	0.017836	0.001044	-1.160400	0.624756	-0.750000	-19.507623	-76.148824	-63.413026
64851		9.468515	-0.791321	2.298041	0.007052	0.022319	0.005971	-1.166504	0.628662	-0.749512	-19.492389	-76.133378	-63.422737
64852		9.417009	-0.783727	2.282298	0.005242	0.019910	0.009106	-1.162109	0.619141	-0.745361	-19.488305	-76.121429	-63.422369
64853		9.467472	-0.792530	2.301916	0.000928	0.018164	0.005840	-1.165283	0.622803	-0.754395	-19.479544	-76.108265	-63.429028
64854		9.455325	-0.790645	2.271243	0.000927	0.018163	0.005840	-1.160400	0.623535	-0.751953	-19.472163	-76.097884	-63.434603
64855		9.409874	-0.774758	2.308758	0.000469	0.017302	0.003615	-1.159180	0.629883	-0.760254	-19.459508	-76.085625	-63.445547
64856		9.432589	-0.798752	2.300298	-0.000662	0.017466	0.006014	-1.168213	0.626953	-0.752930	-19.453977	-76.075587	-63.450155
64857		9.470132	-0.774071	2.271815	0.000691	0.019012	0.000654	-1.159668	0.621582	-0.754639	-19.433466	-76.062980	-63.469062
64858		9.447787	-0.781649	2.299385	0.002965	0.019717	0.007886	-1.159180	0.619385	-0.758057	-19.428229	-76.051368	-63.471227
64859		9.447239	-0.782262	2.301423	-0.001116	0.023282	0.005546	-1.160156	0.625488	-0.751221	-19.416170	-76.035535	-63.482495
64860		9.442185	-0.802815	2.340525	0.005679	0.023326	0.003182	-1.157227	0.624756	-0.759277	-19.396424	-76.022868	-63.498009
64861		9.418321	-0.798135	2.278024	0.004771	0.025202	0.002620	-1.154785	0.624756	-0.747070	-19.373241	-76.006565	-63.517266
64862		9.445486	-0.783087	2.308329	0.006811	0.023677	0.006797	-1.157715	0.626221	-0.749756	-19.360483	-75.993018	-63.524912
64863		9.433272	-0.781127	2.278179	0.004542	0.023489	0.005577	-1.163574	0.624756	-0.759033	-19.345220	-75.977092	-63.536144
64864		9.416613	-0.780902	2.359714	-0.000896	0.022428	0.010721	-1.165039	0.627441	-0.753418	-19.346354	-75.963476	-63.534023
64865		9.426371	-0.772313	2.303459	-0.005205	0.017604	0.009581	-1.158447	0.625488	-0.758301	-19.349822	-75.949983	-63.531706
64866		9.444497	-0.816966	2.332014	-0.002713	0.019501	0.007839	-1.162598	0.627441	-0.761230	-19.347986	-75.938495	-63.533720
64867		9.410479	-0.822686	2.326943	-0.006794	0.016908	0.009753	-1.162598	0.616455	-0.753418	-19.353261	-75.925360	-63.530478
64868		9.425011	-0.775062	2.308097	-0.003397	0.010252	0.006819	-1.162842	0.625488	-0.751221	-19.356619	-75.919066	-63.527541
64869		9.415542	-0.835045	2.308005	-0.000905	0.012667	0.011092	-1.158447	0.626953	-0.752686	-19.364606	-75.907981	-63.518026
64870		9.442933	-0.820543	2.337086	-0.004078	0.010760	0.005425	-1.162842	0.623535	-0.748535	-19.364960	-75.901678	-63.518587
64871		9.425289	-0.808229	2.326759	-0.002493	0.008375	0.007380	-1.157471	0.632324	-0.753662	-19.369116	-75.893630	-63.513960
64872		9.459791	-0.834839	2.349888	0.001133	0.007027	0.005372	-1.159668	0.627197	-0.760742	-19.369192	-75.889354	-63.511730
64873		9.407519	-0.796282	2.316825	-0.002493	0.004778	0.003495	-1.159912	0.622070	-0.754150	-19.367720	-75.884000	-63.512908
64874		9.436364	-0.812099	2.360711	-0.002947	0.000839	0.003401	-1.162598	0.628174	-0.747314	-19.370571	-75.883444	-63.510226
64875		9.397034	-0.825164	2.300332	0.001587	0.000695	-0.000173	-1.158691	0.621582	-0.752441	-19.361967	-75.881005	-63.516350
64876		9.440901	-0.792022	2.323986	0.001587	0.000695	-0.000173	-1.159180	0.624756	-0.762451	-19.354648	-75.881205	-63.521476
64877		9.407401	-0.796800	2.317127	-0.000681	-0.002571	0.000736	-1.160889	0.627686	-0.753906	-19.351773	-75.880372	-63.523032
64878		9.469943	-0.807443	2.367208	0.001359	-0.004613	-0.001098	-1.157959	0.621338	-0.760254	-19.346603	-75.883618	-63.526078
64879		9.384418	-0.772975	2.326542	0.001361	-0.001533	-0.003228	-1.164063	0.621338	-0.753174	-19.333257	-75.882987	-63.537225
64880		9.441194	-0.791415	2.323003	0.002493	-0.004778	-0.003495	-1.158203	0.627686	-0.759766	-19.322402	-75.886776	-63.545463
64881		9.430943	-0.819430	2.305855	0.004532	-0.003224	-0.001445	-1.166748	0.627686	-0.752197	-19.312340	-75.886733	-63.551350
64882		9.458820	-0.803793	2.333364	-0.000455	-0.007536	-0.003979	-1.155762	0.628418	-0.756836	-19.304205	-75.892104	-63.558525
64883		9.374520	-0.799996	2.308308	0.002720	0.000529	-0.002571	-1.157715	0.636230	-0.761230	-19.289940	-75.890257	-63.569818
64884		9.464776	-0.813624	2.311708	0.005666	-0.003389	-0.003843	-1.163574	0.627686	-0.756104	-19.275457	-75.893359	-63.579921
64885		9.385028	-0.770702	2.324833	0.004080	-0.001004	-0.005799	-1.157227	0.621582	-0.753174	-19.254631	-75.892964	-63.597178
64886		9.481119	-0.794718	2.306873	0.001813	-0.004271	-0.004889	-1.157227	0.618164	-0.760010	-19.240757	-75.896738	-63.608929
64887		9.425774	-0.806254	2.325477	0.003852	-0.002715	-0.002839	-1.154785	0.623535	-0.762451	-19.227715	-75.896721	-63.618295
64888		9.442022	-0.788070	2.320773	-0.000680	-0.003089	-0.005278	-1.161133	0.625977	-0.755615	-19.213535	-75.899929	-63.631835
64889		9.392455	-0.810077	2.318238	0.002493	-0.001699	-0.005625	-1.165527	0.624268	-0.757324	-19.194509	-75.899898	-63.648174
64890		9.481493	-0.792720	2.306026	0.001587	0.000177	-0.006188	-1.163086	0.615479	-0.751709	-19.174610	-75.901507	-63.666271
64891		9.420316	-0.793578	2.346097	0.003173	-0.002207	-0.004232	-1.163818	0.627197	-0.758301	-19.158583	-75.901500	-63.679118
64892		9.448061	-0.796700	2.299183	-0.000906	0.001876	-0.000563	-1.164551	0.627441	-0.757324	-19.150959	-75.901130	-63.686032
64893		9.424872	-0.772891	2.309392	0.003626	0.001732	-0.004138	-1.159424	0.631104	-0.749756	-19.131934	-75.898983	-63.701703
64894		9.460831	-0.829236	2.347684	0.004079	0.002593	-0.001915	-1.156006	0.621826	-0.756348	-19.118007	-75.898478	-63.712171
64895		9.413227	-0.769706	2.277463	0.005213	0.002427	-0.004312	-1.158447	0.620850	-0.755615	-19.097193	-75.895997	-63.728751
64896		9.453784	-0.786990	2.353668	0.002266	-0.000331	-0.004795	-1.157959	0.622070	-0.750488	-19.080281	-75.897613	-63.743368
64897		9.424868	-0.771212	2.309970	0.003626	-0.001347	-0.002009	-1.160645	0.633789	-0.754639	-19.068160	-75.896755	-63.751923
64898		9.459631	-0.796924	2.332433	0.002493	0.001898	-0.001741	-1.163818	0.622559	-0.756104	-19.056037	-75.896591	-63.761468
64899		9.426129	-0.801493	2.325684	0.002039	-0.002042	-0.001835	-1.159180	0.625244	-0.754150	-19.045722	-75.896088	-63.769099
64900		9.464197	-0.776285	2.295668	0.007931	0.003475	-0.000870	-1.164063	0.620850	-0.753418	-19.031189	-75.894906	-63.777916
64901		9.424861	-0.770300	2.310305	0.001813	-0.000674	-0.001004	-1.158203	0.615723	-0.759521	-19.021783	-75.893520	-63.784746
64902		9.442209	-0.783229	2.321649	0.005212	0.002946	0.001702	-1.164795	0.620361	-0.751221	-19.014747	-75.892143	-63.787439
64903		9.436358	-0.791348	2.268262	0.004758	0.002085	-0.000522	-1.159912	0.621826	-0.751465	-19.002648	-75.889186	-63.795306
64904		9.464037	-0.775877	2.296462	0.005438	0.001577	0.000871	-1.159912	0.623047	-0.755859	-18.994711	-75.888705	-63.798795
64905		9.459390	-0.796056	2.333709	0.006571	0.005009	0.002357	-1.161377	0.618896	-0.753174	-18.985622	-75.883641	-63.802489
64906		9.475380	-0.778305	2.329863	0.009743	0.006399	0.002009	-1.159424	0.616455	-0.754639	-18.974100	-75.880336	-63.807131
64907		9.437133	-0.822038	2.285849	0.009515	0.007768	0.002839	-1.156006	0.628906	-0.755127	-18.962331	-75.873700	-63.811850
64908		9.453063	-0.804333	2.282254	0.007023	0.008949	0.002449	-1.161865	0.623291	-0.748535	-18.951438	-75.868930	-63.817451
64909		9.425026	-0.801027	2.330311	0.013592	0.013957	0.004805	-1.164307	0.625732	-0.757324	-18.937027	-75.858588	-63.822488
64910		9.456988	-0.765763	2.322647	0.012004	0.010184	0.007110	-1.163330	0.619141	-0.750244	-18.932406	-75.852283	-63.818678
64911		9.424448	-0.801508	2.332483	0.009513	0.007766	0.002838	-1.163330	0.624512	-0.759033	-18.920685	-75.845673	-63.823353
64912		9.469336	-0.818006	2.297763	0.013137	0.010016	0.004712	-1.161865	0.627441	-0.755127	-18.910391	-75.839904	-63.824724
64913		9.445869	-0.794535	2.308919	0.013816	0.012586	0.003973	-1.164551	0.627197	-0.755127	-18.895126	-75.830484	-63.830514
64914		9.439713	-0.784183	2.331455	0.010868	0.013427	0.007373	-1.157959	0.617432	-0.752930	-18.889348	-75.822372	-63.828568
64915		9.449675	-0.756178	2.349623	0.011774	0.014628	0.005804	-1.164063	0.620605	-0.762939	-18.877707	-75.811517	-63.831828
64916		9.427380	-0.782641	2.301926	0.015166	0.015169	0.010640	-1.166748	0.620117	-0.755127	-18.875198	-75.801855	-63.823969
64917		9.399236	-0.779661	2.350070	0.009734	0.009994	0.005887	-1.161865	0.626465	-0.750732	-18.868307	-75.793511	-63.823536
64918		9.460233	-0.778640	2.311154	0.010413	0.012563	0.005147	-1.152832	0.616943	-0.756592	-18.858668	-75.786280	-63.825842
64919		9.420587	-0.773102	2.326740	0.007241	0.011175	0.005495	-1.163574	0.621338	-0.758301	-18.851511	-75.777379	-63.827156
64920		9.420266	-0.773493	2.327912	0.007013	0.012544	0.006323	-1.164551	0.627686	-0.754639	-18.846358	-75.769941	-63.826844
64921		9.476569	-0.792671	2.326193	0.009278	0.015806	0.005408	-1.154297	0.626709	-0.757324	-18.834483	-75.758558	-63.831823
64922		9.436842	-0.786962	2.342119	0.008149	0.015450	0.001791	-1.155273	0.623779	-0.763672	-18.816894	-75.750382	-63.843670
64923		9.493033	-0.805799	2.340986	0.008825	0.024694	0.002794	-1.153809	0.618896	-0.756104	-18.793279	-75.734673	-63.861031
64924		9.492365	-0.805782	2.343697	0.007692	0.031013	0.000920	-1.159180	0.621338	-0.752686	-18.762861	-75.718212	-63.886387
64925		9.458127	-0.810233	2.339943	0.004980	0.033038	-0.004660	-1.156250	0.627197	-0.759766	-18.719662	-75.699356	-63.926236
64926		9.434149	-0.786089	2.353235	0.002937	0.038155	-0.004969	-1.156982	0.619873	-0.758545	-18.674454	-75.680092	-63.969672
64927		9.466779	-0.780743	2.363765	0.004518	0.038846	-0.005145	-1.162354	0.624268	-0.761230	-18.626562	-75.658169	-64.014647
64928		9.426485	-0.774396	2.381949	0.001564	0.042762	-0.003889	-1.154053	0.622070	-0.755615	-18.581394	-75.636188	-64.058860
64929		9.419962	-0.782273	2.332219	0.000204	0.040697	-0.004547	-1.162598	0.611816	-0.760498	-18.536204	-75.613142	-64.103609
64930		9.436356	-0.794834	2.347394	0.002461	0.040881	-0.003327	-1.162842	0.620361	-0.762207	-18.493317	-75.592064	-64.144946
64931		9.457121	-0.768501	2.400479	0.001547	0.039679	-0.001762	-1.162842	0.611572	-0.759766	-18.454243	-75.569063	-64.182595
64932		9.412392	-0.801611	2.380631	-0.004579	0.042208	-0.000165	-1.161133	0.613525	-0.763916	-18.421368	-75.546677	-64.217768
64933		9.565262	-0.875859	2.380481	-0.001645	0.044959	0.000314	-1.156250	0.621826	-0.758789	-18.385034	-75.520428	-64.254485
64934		9.403182	-0.760392	2.394582	0.000381	0.049583	0.000224	-1.153320	0.612305	-0.759521	-18.345220	-75.493950	-64.293897
64935		9.464551	-0.789794	2.375578	0.001498	0.056080	-0.000437	-1.156494	0.615967	-0.760986	-18.298079	-75.461785	-64.339931
64936		9.403249	-0.840560	2.361817	0.004197	0.063268	-0.001271	-1.152100	0.625000	-0.760010	-18.243815	-75.428114	-64.392024
64937		9.509251	-0.866790	2.383479	0.004006	0.063579	-0.012478	-1.153564	0.621582	-0.754150	-18.165386	-75.394012	-64.468921
64938		9.654486	-0.897130	2.392550	-0.002525	0.092356	-0.038387	-1.154297	0.610107	-0.761230	-18.018355	-75.351062	-64.620886
64939		9.585495	-0.902016	2.388593	0.002681	0.119317	-0.059827	-1.154297	0.618896	-0.766113	-17.805805	-75.294830	-64.837251
64940		9.569921	-0.843479	2.427201	0.003576	0.132236	-0.076007	-1.151123	0.622070	-0.760010	-17.553097	-75.236381	-65.094947
64941		9.413244	-0.762088	2.443131	0.005568	0.133224	-0.080011	-1.150391	0.621826	-0.759766	-17.291683	-75.175554	-65.360267
64942		9.471350	-0.734013	2.491029	0.007564	0.128076	-0.079728	-1.148438	0.622314	-0.760010	-17.035728	-75.119423	-65.619098
64943		9.534078	-0.804607	2.420476	0.011666	0.123432	-0.089414	-1.146729	0.620605	-0.765625	-16.761734	-75.064924	-65.893966
64944		9.449070	-0.703927	2.503536	0.011591	0.129522	-0.093751	-1.150635	0.614746	-0.761475	-16.477710	-75.009670	-66.179595
64945		9.505928	-0.762542	2.454443	0.012053	0.126215	-0.101464	-1.147461	0.615479	-0.770264	-16.181206	-74.954895	-66.477688
64946		9.645385	-0.803470	2.507379	0.013126	0.143844	-0.122818	-1.143066	0.608154	-0.768555	-15.832824	-74.895561	-66.829209
64947		9.883433	-0.664595	2.559685	0.019625	0.162500	-0.149310	-1.148682	0.613525	-0.765137	-15.418646	-74.827216	-67.244892
64948		9.818662	-0.769563	2.534934	0.019343	0.193010	-0.170936	-1.147705	0.608887	-0.770020	-14.948135	-74.746607	-67.719516
64949		10.232383	-0.690188	2.566926	0.025844	0.214361	-0.188440	-1.146729	0.612549	-0.764160	-14.432156	-74.653458	-68.237376
64950		12.486051	-0.780395	2.662272	0.022660	0.249704	-0.139936	-1.142334	0.613525	-0.771484	-14.004274	-74.534912	-68.666248
64951		14.153784	-0.560946	2.760679	0.004835	0.490955	-0.042656	-1.144287	0.609619	-0.775391	-13.670193	-74.265929	-69.008516
64952		12.370998	-0.811969	2.662223	0.006016	0.682524	0.011346	-1.135254	0.614502	-0.779541	-13.363349	-73.884618	-69.322525
64953		12.156574	-0.537842	2.777579	0.010022	0.800447	0.058575	-1.123535	0.610840	-0.783691	-13.105871	-73.428870	-69.583158
64954		11.373831	-0.171213	2.861193	-0.002857	0.888227	0.142174	-1.112793	0.609131	-0.790527	-12.985072	-72.915127	-69.709569
64955		10.523728	0.044407	2.930144	-0.022226	0.921513	0.259023	-1.109863	0.611084	-0.795898	-13.074605	-72.365714	-69.627394
64956		10.249639	-0.043498	2.966706	-0.048181	0.919838	0.379776	-1.098389	0.607178	-0.790283	-13.379645	-71.803307	-69.334314
64957		10.086090	-0.347196	2.972920	-0.054788	0.933032	0.450838	-1.086426	0.616699	-0.794434	-13.781628	-71.221508	-68.941806
64958		9.914380	-0.932608	2.888708	-0.052244	0.959617	0.459896	-1.073975	0.617676	-0.795654	-14.162556	-70.624775	-68.568899
64959		9.925727	-1.194739	2.940935	-0.032564	0.996684	0.414738	-1.070557	0.621094	-0.797852	-14.426013	-70.011286	-68.307139
64960		10.074423	-1.381731	2.987925	-0.009226	1.053485	0.337606	-1.049561	0.615479	-0.812744	-14.525384	-69.378947	-68.205289
64961		9.977341	-1.522657	3.102463	0.021099	1.113155	0.248835	-1.035889	0.621582	-0.814941	-14.452597	-68.724386	-68.268519
64962		9.926411	-1.437263	3.155787	0.052316	1.166095	0.173241	-1.021973	0.619873	-0.812256	-14.243293	-68.052955	-68.459858
64963		9.940508	-1.187880	3.335277	0.075660	1.213829	0.115766	-1.005859	0.610840	-0.814453	-13.939780	-67.360921	-68.739300
64964		9.760048	-0.928826	3.433256	0.091894	1.261910	0.095548	-1.002197	0.613770	-0.819336	-13.602900	-66.646090	-69.046498
64965		9.500117	-0.797120	3.535263	0.094641	1.290853	0.102363	-1.001221	0.606201	-0.825684	-13.283373	-65.911821	-69.334553
64966		9.444724	-0.832313	3.641117	0.094343	1.311903	0.115027	-0.983154	0.611572	-0.829102	-12.991044	-65.165275	-69.594738
64967		9.256052	-0.876418	3.749519	0.093824	1.332896	0.120102	-0.969238	0.605225	-0.836670	-12.715349	-64.404164	-69.838314
64968		9.273512	-1.056278	3.853561	0.096057	1.356462	0.110827	-0.948486	0.611572	-0.842529	-12.436586	-63.632205	-70.085589
64969		9.385479	-1.331342	3.943785	0.107564	1.389018	0.094394	-0.936279	0.603516	-0.841553	-12.140434	-62.841878	-70.346510
64970		9.307654	-1.419175	4.021127	0.127275	1.417421	0.066621	-0.930176	0.602539	-0.847412	-11.812618	-62.039916	-70.632397
64971		9.200533	-1.542327	4.169903	0.153012	1.447504	0.036426	-0.913330	0.604492	-0.854004	-11.449968	-61.222226	-70.943195
64972		9.209526	-1.470205	4.340027	0.174323	1.480172	0.008258	-0.893555	0.604004	-0.854492	-11.058768	-60.389924	-71.275247
64973		9.188342	-1.402868	4.567187	0.198283	1.506008	-0.011007	-0.879395	0.605957	-0.861572	-10.650450	-59.542561	-71.613988
64974		9.134708	-1.201472	4.702216	0.211308	1.538263	-0.034466	-0.864258	0.600586	-0.864990	-10.226703	-58.679739	-71.965002
64975		8.972373	-1.203022	4.830229	0.214002	1.558210	-0.032793	-0.849609	0.602539	-0.858887	-9.820445	-57.802781	-72.296943
64976		8.892471	-1.054166	5.083624	0.216972	1.570491	-0.005821	-0.831055	0.593506	-0.869873	-9.452663	-56.916570	-72.584351
64977		8.894317	-0.894641	5.388397	0.204545	1.576366	0.033371	-0.816162	0.596191	-0.871094	-9.141180	-56.021128	-72.815788
64978		8.863875	-1.076213	5.417222	0.189451	1.563703	0.120642	-0.803955	0.589600	-0.870605	-8.923955	-55.125800	-72.945792
64979		8.855540	-1.425487	5.836386	0.174060	1.538939	0.281870	-0.790039	0.596436	-0.872559	-8.854652	-54.228702	-72.906866
64980		8.746248	-1.757603	6.095197	0.176496	1.470314	0.505902	-0.761475	0.593994	-0.881104	-8.963514	-53.351894	-72.644837
64981		8.628014	-1.872731	5.803502	0.185213	1.405228	0.667457	-0.755615	0.590332	-0.877686	-9.186786	-52.495547	-72.230379
64982		8.538181	-2.171050	5.604079	0.206583	1.355653	0.794340	-0.733154	0.585449	-0.881104	-9.480285	-51.655634	-71.706446
64983		8.315180	-2.261792	5.639884	0.244305	1.306714	0.890839	-0.721680	0.582764	-0.879639	-9.808769	-50.831095	-71.104174
64984		8.180357	-2.276242	5.974843	0.292322	1.249146	0.959623	-0.706055	0.581299	-0.887451	-10.143776	-50.031314	-70.450460
64985		8.077490	-1.759659	6.603042	0.340575	1.213563	0.936669	-0.688721	0.578613	-0.882813	-10.422016	-49.250496	-69.827770
64986		7.965238	-1.424496	6.469555	0.367571	1.183578	0.860501	-0.672363	0.571777	-0.882813	-10.622032	-48.494096	-69.280738
64987		7.883569	-1.263053	5.998535	0.403018	1.180220	0.796788	-0.661377	0.564453	-0.886475	-10.749722	-47.744113	-68.797617
64988		8.036242	-1.161466	5.925229	0.418884	1.192751	0.783613	-0.636963	0.567627	-0.887695	-10.847071	-46.989080	-68.337125
64989		7.656286	-1.273300	5.853547	0.428166	1.205832	0.802713	-0.624023	0.560547	-0.890137	-10.939485	-46.222960	-67.870838
64990		6.910083	-1.357871	5.884690	0.439684	1.188459	0.830907	-0.603271	0.554932	-0.890869	-11.032676	-45.464158	-67.387808
64991		5.837958	-1.586475	5.923083	0.450747	1.119887	0.860960	-0.598633	0.552979	-0.891846	-11.134615	-44.738951	-66.877790
64992		5.315018	-1.941382	5.905503	0.473032	1.007259	0.872924	-0.587158	0.545654	-0.895020	-11.232051	-44.076175	-66.349182
64993		5.268149	-2.179084	5.620868	0.501893	0.883014	0.891675	-0.570313	0.541260	-0.894287	-11.328002	-43.479366	-65.793352
64994		4.871923	-2.383631	4.899310	0.539023	0.729613	0.924687	-0.567139	0.535156	-0.890869	-11.427326	-42.965416	-65.195253
64995		4.194286	-2.443214	4.271842	0.581068	0.484453	0.941427	-0.548828	0.533936	-0.900635	-11.530754	-42.585325	-64.551309
64996		4.432542	-2.225691	3.575421	0.617888	0.202773	0.926290	-0.546631	0.527100	-0.901367	-11.628955	-42.365370	-63.879490
64997		5.001823	-2.006614	2.654199	0.653723	-0.034291	0.847474	-0.545654	0.520996	-0.902100	-11.689662	-42.285793	-63.231790
64998		5.695741	-1.758453	2.434752	0.686843	-0.215710	0.713832	-0.551025	0.506104	-0.905762	-11.680993	-42.324388	-62.657859
64999		6.288101	-1.164759	2.190950	0.697823	-0.290150	0.592691	-0.552490	0.504395	-0.905029	-11.613852	-42.418148	-62.163084
65000		4.845712	-0.765176	2.855434	0.675686	-0.475986	0.483589	-0.552979	0.489502	-0.903564	-11.523380	-42.630161	-61.722035
65001		5.655981	-0.337889	1.959092	0.613853	-0.696954	0.366722	-0.560547	0.489990	-0.907471	-11.434675	-42.979394	-61.333901
65002		5.455221	-0.070517	1.796211	0.529854	-0.880041	0.189394	-0.577393	0.484131	-0.912109	-11.322051	-43.452696	-61.052926
65003		6.281190	-0.226615	1.829538	0.464610	-0.991969	-0.003760	-0.585205	0.469238	-0.916748	-11.158457	-44.010536	-60.903414
65004		7.188622	-0.441776	1.864595	0.398308	-1.027281	-0.137458	-0.589600	0.478027	-0.914063	-10.962509	-44.603689	-60.855160
65005		7.538262	-0.721276	1.913802	0.348715	-1.031754	-0.166854	-0.605713	0.476074	-0.911865	-10.778862	-45.202549	-60.831222
65006		7.448323	-0.921404	1.805929	0.302572	-1.050507	-0.112824	-0.613770	0.470947	-0.929932	-10.652203	-45.806350	-60.763732
65007		7.048568	-0.876945	1.695248	0.258391	-1.111745	-0.025269	-0.633301	0.464600	-0.921875	-10.610204	-46.435706	-60.615630
65008		6.660138	-0.610752	1.599951	0.209008	-1.223195	0.034309	-0.645020	0.468994	-0.920410	-10.645949	-47.121278	-60.400271
65009		6.582203	-0.439244	1.536829	0.151616	-1.355307	0.040104	-0.657959	0.469727	-0.930420	-10.739636	-47.881013	-60.154476
65010		6.752415	-0.315075	1.516829	0.089264	-1.497785	0.000207	-0.675049	0.476807	-0.931885	-10.866509	-48.724335	-59.914140
65011		7.043276	-0.307071	1.542098	0.031083	-1.615971	-0.073108	-0.693604	0.468506	-0.926514	-11.003096	-49.642600	-59.709263
65012		7.456782	-0.412554	1.485949	-0.021393	-1.709341	-0.144202	-0.713867	0.468018	-0.927002	-11.140720	-50.620008	-59.544055
65013		7.998184	-0.518037	1.470989	-0.068254	-1.767933	-0.187481	-0.730469	0.466797	-0.923584	-11.292188	-51.636067	-59.398895
65014		8.356367	-0.659578	1.376966	-0.106537	-1.797058	-0.199687	-0.753174	0.467773	-0.923828	-11.467504	-52.668434	-59.252365
