// General information: 
//  MT Manager version: 2022.2.0 
//  XDA version: 2022.2.0 build 7381 rev 124627 built on 2023-07-19
// Device information: 
//  DeviceId: 00B4C223
//  ProductCode: MTW2-3A7G6
//  Firmware Version: 4.6.0
//  Hardware Version: 2.0.0
// Device settings: 
//  Filter Profile: human(46.1)
//  Option Flags: Orientation Smoother Disabled, Position/Velocity Smoother Disabled, Continuous Zero Rotation Update Disabled, AHS Disabled, ICC Disabled
// Coordinate system: ENU
PacketCounter	SampleTimeFine	Acc_X	Acc_Y	Acc_Z	Gyr_X	Gyr_Y	Gyr_Z	Mag_X	Mag_Y	Mag_Z	Roll	Pitch	Yaw
57552		9.440404	-0.793399	2.316419	-0.003320	-0.001235	0.004484	-1.010498	0.468750	-0.629150	-17.560546	-76.260941	-60.127995
57553		9.440390	-0.793867	2.316313	-0.001834	-0.000572	0.004175	-1.005859	0.475098	-0.628418	-17.569912	-76.261387	-60.117878
57554		9.428558	-0.798988	2.284038	-0.004217	-0.003447	0.000215	-0.997314	0.469727	-0.624268	-17.569675	-76.263787	-60.118860
57555		9.428588	-0.799205	2.283838	-0.002524	-0.000219	0.002751	-1.002686	0.479248	-0.632324	-17.576049	-76.264237	-60.112233
57556		9.415850	-0.771014	2.321239	-0.006393	-0.003756	-0.000901	-1.003662	0.469971	-0.628174	-17.574786	-76.266998	-60.115554
57557		9.461821	-0.791345	2.288494	-0.003214	0.000134	0.001328	-1.000977	0.465576	-0.633789	-17.578146	-76.267452	-60.112437
57558		9.455453	-0.777250	2.307195	-0.001245	-0.002122	-0.000403	-1.004395	0.469238	-0.625977	-17.573889	-76.269235	-60.115805
57559		9.443645	-0.782170	2.274872	-0.002041	-0.003138	0.001329	-1.002441	0.471924	-0.627686	-17.578917	-76.271433	-60.110279
57560		9.437288	-0.768258	2.293473	-0.004010	-0.000882	0.003060	-1.001953	0.472412	-0.626953	-17.583107	-76.271939	-60.106581
57561		9.447032	-0.809522	2.295948	-0.003662	-0.000972	-0.000807	-1.000000	0.476074	-0.622070	-17.582772	-76.273285	-60.107534
57562		9.437263	-0.768597	2.293463	-0.002210	0.003715	0.002442	-1.007080	0.474365	-0.634277	-17.581294	-76.271387	-60.108611
57563		9.443627	-0.783010	2.274658	-0.002041	-0.003138	0.001329	-1.005615	0.476807	-0.637451	-17.586367	-76.273503	-60.103042
57564		9.428771	-0.800720	2.282550	-0.004459	-0.001988	0.000925	-0.997314	0.462402	-0.629883	-17.586826	-76.274983	-60.103450
57565		9.464948	-0.780013	2.247441	-0.000483	0.002918	0.001422	-1.002441	0.473633	-0.626465	-17.586959	-76.273736	-60.102048
57566		9.418994	-0.760011	2.280034	-0.002283	-0.001679	0.002040	-1.005127	0.478027	-0.630127	-17.588445	-76.274854	-60.100115
57567		9.446976	-0.810719	2.295757	-0.002524	-0.000220	0.002751	-1.003418	0.473389	-0.625977	-17.594963	-76.275063	-60.093346
57568		9.449099	-0.765137	2.325193	-0.002524	-0.000220	0.002751	-0.997314	0.478760	-0.623291	-17.597144	-76.275261	-60.090841
57569		9.422329	-0.787717	2.301194	-0.002973	-0.001325	0.000617	-0.991943	0.468994	-0.628418	-17.599944	-76.276396	-60.088164
57570		9.440540	-0.797279	2.314531	-0.002210	0.003714	0.002442	-1.010498	0.474854	-0.627686	-17.598463	-76.274499	-60.089243
57571		9.443559	-0.784802	2.274323	-0.002042	-0.003138	0.001329	-1.010254	0.467529	-0.623291	-17.603627	-76.276455	-60.083583
57572		9.437160	-0.770935	2.293101	-0.003007	0.002698	0.004174	-1.005127	0.474121	-0.629639	-17.607196	-76.274813	-60.079934
57573		9.473605	-0.789987	2.319698	-0.003214	0.000134	0.001328	-0.997803	0.476074	-0.623535	-17.610723	-76.274947	-60.076652
57574		9.455323	-0.780863	2.306510	-0.003455	0.001593	0.002039	-0.998291	0.474854	-0.629883	-17.610559	-76.274279	-60.077109
57575		9.418791	-0.762434	2.280064	-0.002524	-0.000220	0.002751	-1.005127	0.476318	-0.628174	-17.617134	-76.274316	-60.070284
57576		9.422133	-0.789606	2.301353	-0.002283	-0.001679	0.002040	-1.000732	0.472168	-0.631348	-17.618622	-76.275434	-60.068349
57577		9.455302	-0.781695	2.306311	-0.004700	-0.000529	0.001636	-1.004883	0.476563	-0.631592	-17.624173	-76.275797	-60.063861
57578		9.458357	-0.769237	2.265964	-0.002283	-0.001679	0.002040	-1.002686	0.476074	-0.626221	-17.625661	-76.276915	-60.061926
57579		9.410250	-0.795282	2.269053	-0.003007	0.002697	0.004174	-0.998047	0.472656	-0.626953	-17.633633	-76.275043	-60.053948
57580		9.455234	-0.782686	2.306257	-0.000107	-0.001371	0.003155	-1.000977	0.474121	-0.617920	-17.636150	-76.275799	-60.049672
57581		9.463789	-0.751223	2.316752	-0.004460	-0.001988	0.000924	-0.995605	0.470215	-0.631348	-17.641038	-76.277014	-60.045724
57582		9.448890	-0.768947	2.324786	-0.003214	0.000134	0.001328	-1.007813	0.469727	-0.628174	-17.640181	-76.277266	-60.046752
57583		9.425138	-0.778828	2.260632	-0.002524	-0.000220	0.002751	-1.000244	0.469727	-0.633789	-17.646750	-76.277157	-60.039931
57584		9.461584	-0.797928	2.287185	-0.005183	0.002389	0.003059	-1.001709	0.472168	-0.635010	-17.649287	-76.275876	-60.038627
57585		9.443288	-0.788980	2.274003	-0.001835	-0.000575	0.004174	-1.000732	0.478027	-0.624023	-17.658923	-76.275683	-60.028244
57586		9.451788	-0.757687	2.284692	-0.002766	0.001238	0.003462	-1.009521	0.469727	-0.628662	-17.661795	-76.274961	-60.025170
57587		9.428323	-0.807327	2.282072	-0.003081	-0.002696	0.003771	-1.002197	0.479736	-0.635010	-17.672763	-76.275972	-60.014152
57588		9.449621	-0.804279	2.254969	0.002866	-0.000046	0.002539	-1.010254	0.477783	-0.623535	-17.671258	-76.276112	-60.012262
57589		9.476402	-0.782257	2.278799	-0.005498	-0.001545	0.003367	-1.003906	0.475098	-0.631836	-17.681938	-76.276533	-60.002969
57590		9.443223	-0.790857	2.273624	-0.004252	0.000576	0.003770	-1.004639	0.474609	-0.629883	-17.686822	-76.276118	-59.998701
57591		9.439861	-0.764250	2.252280	-0.001728	0.000796	0.001020	-0.999756	0.472168	-0.626953	-17.688431	-76.275644	-59.996516
57592		9.455043	-0.786610	2.305703	-0.004011	-0.000883	0.003059	-1.005615	0.472168	-0.628418	-17.692626	-76.276149	-59.992815
57593		9.421862	-0.795135	2.300556	-0.000348	0.000087	0.003866	-1.005127	0.476563	-0.632080	-17.700316	-76.275541	-59.983556
57594		9.464403	-0.788818	2.246661	-0.002766	0.001238	0.003462	-1.003418	0.480225	-0.636230	-17.703186	-76.274818	-59.980484
57595		9.424869	-0.783069	2.260287	-0.002043	-0.003138	0.001327	-1.010986	0.471680	-0.632324	-17.708521	-76.276378	-59.974667
57596		9.458046	-0.775057	2.265276	-0.006321	0.001639	-0.000499	-1.001465	0.470215	-0.625488	-17.704287	-76.276127	-59.981004
57597		9.436709	-0.778651	2.292349	-0.002766	0.001238	0.003462	-1.000488	0.473145	-0.628906	-17.711659	-76.274918	-59.973494
57598		9.481711	-0.765950	2.329565	-0.003904	0.000488	-0.000096	-0.997314	0.478516	-0.628174	-17.707764	-76.275225	-59.978057
57599		9.403478	-0.787324	2.287352	-0.002076	0.000883	0.004885	-1.003906	0.471924	-0.630127	-17.718196	-76.273916	-59.967001
57600		9.476143	-0.785566	2.278739	-0.003215	0.000134	0.001327	-1.001709	0.474609	-0.628174	-17.717340	-76.274168	-59.968029
57601		9.430239	-0.765584	2.311209	-0.002284	-0.001680	0.002039	-0.998779	0.478027	-0.624268	-17.723332	-76.274735	-59.961662
57602		9.442951	-0.794373	2.273525	-0.003804	0.001679	0.005905	-0.998291	0.474854	-0.625000	-17.731938	-76.273345	-59.953297
57603		9.421649	-0.798015	2.300432	-0.003423	-0.002429	-0.001520	-1.000244	0.473633	-0.628906	-17.731204	-76.274910	-59.954529
57604		9.439607	-0.768069	2.252045	-0.001628	0.001986	0.007020	-1.009277	0.474121	-0.631348	-17.740834	-76.273157	-59.943825
57605		9.442889	-0.795333	2.273447	-0.003663	-0.000970	-0.000808	-0.999756	0.474854	-0.627930	-17.740746	-76.273776	-59.944535
57606		9.442898	-0.795377	2.273394	-0.003904	0.000489	-0.000096	-1.003418	0.479980	-0.631348	-17.736852	-76.274083	-59.949097
57607		9.418254	-0.772052	2.279047	-0.002766	0.001237	0.003462	-1.002686	0.473877	-0.626465	-17.744285	-76.272724	-59.941540
57608		9.439508	-0.768960	2.252155	-0.001728	0.000796	0.001019	-1.002441	0.473389	-0.632568	-17.741416	-76.272669	-59.943763
57609		9.436472	-0.781858	2.292235	-0.002044	-0.003138	0.001326	-1.009033	0.475342	-0.632568	-17.746731	-76.274059	-59.937943
57610		9.451376	-0.764561	2.284109	-0.002209	0.003713	0.002443	-1.000977	0.471436	-0.634033	-17.745233	-76.272163	-59.939038
57611		9.418240	-0.772910	2.278813	-0.004536	-0.007380	0.000517	-1.000732	0.472412	-0.634033	-17.753187	-76.275977	-59.931984
57612		9.449319	-0.810808	2.253898	-0.004461	-0.001987	0.000923	-1.004639	0.469971	-0.626465	-17.753659	-76.277457	-59.932381
57613		9.451499	-0.765238	2.283369	-0.002766	0.001237	0.003462	-1.009033	0.470947	-0.632568	-17.761035	-76.276045	-59.924853
57614		9.445116	-0.751389	2.302165	-0.002285	-0.001680	0.002038	-0.994629	0.478271	-0.628906	-17.762533	-76.277162	-59.922909
57615		9.454808	-0.792787	2.304549	-0.004013	-0.000884	0.003058	-1.000244	0.475342	-0.629150	-17.771274	-76.276943	-59.914739
57616		9.476098	-0.789751	2.277476	-0.004702	-0.000529	0.001635	-1.009766	0.469971	-0.630859	-17.772432	-76.277503	-59.914571
57617		9.436575	-0.784026	2.291072	-0.001595	-0.002035	0.003461	-1.003906	0.469727	-0.625732	-17.781471	-76.277830	-59.904658
57618		9.442897	-0.798514	2.272298	-0.002209	0.003713	0.002444	-1.004150	0.466797	-0.621338	-17.779970	-76.275934	-59.905757
57619		9.418220	-0.775258	2.278098	-0.004943	0.000929	0.002347	-1.005371	0.473877	-0.622803	-17.786318	-76.274820	-59.900572
57620		9.406359	-0.780157	2.245926	-0.003423	-0.002428	-0.001520	-1.001709	0.470215	-0.624756	-17.781057	-76.276968	-59.906258
57621		9.461124	-0.808444	2.285396	-0.002285	-0.001680	0.002038	-1.005371	0.473145	-0.631104	-17.787094	-76.277301	-59.899846
57622		9.457816	-0.781742	2.263942	-0.003215	0.000133	0.001327	-0.998779	0.466309	-0.631592	-17.786239	-76.277554	-59.900873
57623		9.451432	-0.767746	2.282807	-0.001728	0.000796	0.001020	-0.998047	0.475830	-0.625244	-17.787896	-76.276687	-59.898641
57624		9.436497	-0.785370	2.290931	-0.001487	-0.000662	0.000307	-1.002686	0.471924	-0.625000	-17.784344	-76.277553	-59.901426
57625		9.476022	-0.791639	2.277138	-0.006430	0.000267	0.002654	-1.005127	0.479248	-0.627686	-17.792761	-76.276677	-59.895006
57626		9.436460	-0.785985	2.290871	-0.000349	0.000085	0.003866	-1.001709	0.472412	-0.625488	-17.795970	-76.276512	-59.890160
57627		9.442823	-0.800546	2.271892	-0.003083	-0.002698	0.003768	-1.003174	0.471680	-0.620117	-17.807076	-76.277035	-59.879005
57628		9.436444	-0.786702	2.290694	-0.001968	0.002254	0.001732	-1.005127	0.472168	-0.623047	-17.804890	-76.276060	-59.880667
57629		9.454701	-0.796261	2.303794	-0.001804	-0.004597	0.000613	-1.001221	0.478027	-0.618896	-17.809567	-76.278156	-59.875362
57630		9.433194	-0.760135	2.268970	-0.002526	-0.000222	0.002750	-1.003906	0.475586	-0.625488	-17.811751	-76.278353	-59.872854
57631		9.469677	-0.779169	2.295326	-0.002975	-0.001325	0.000615	-1.007813	0.475098	-0.628662	-17.814761	-76.278637	-59.869964
57632		9.418254	-0.778137	2.276978	-0.002766	0.001236	0.003462	-1.003174	0.475342	-0.625977	-17.817627	-76.277914	-59.866895
57633		9.436458	-0.787838	2.290243	-0.003215	0.000133	0.001327	-0.997803	0.479004	-0.622559	-17.821288	-76.277256	-59.863478
57634		9.464141	-0.798790	2.244241	-0.004222	-0.003446	0.000209	-1.004639	0.470947	-0.625000	-17.821083	-76.279657	-59.864430
57635		9.436517	-0.788331	2.289830	-0.001147	-0.000934	0.005596	-1.002441	0.468506	-0.622803	-17.833888	-76.278820	-59.850371
57636		9.433206	-0.761707	2.268395	-0.001487	-0.000662	0.000307	-0.998535	0.475342	-0.628906	-17.830337	-76.279686	-59.853154
57637		9.472728	-0.767852	2.254640	-0.001728	0.000796	0.001020	-1.003662	0.475098	-0.627197	-17.831978	-76.278689	-59.850932
57638		9.451430	-0.771376	2.281592	-0.000798	-0.001018	0.001730	-1.006836	0.469727	-0.628174	-17.831467	-76.279499	-59.850179
57639		9.411898	-0.765579	2.295270	-0.002526	-0.000222	0.002750	-1.004395	0.469238	-0.631104	-17.838154	-76.278744	-59.843240
57640		9.430115	-0.775217	2.308503	-0.001728	0.000796	0.001020	-1.004150	0.479980	-0.633057	-17.835285	-76.278690	-59.845463
57641		9.457759	-0.786258	2.262612	-0.001596	-0.002037	0.003460	-1.003662	0.476807	-0.635010	-17.844312	-76.278762	-59.835577
57642		9.436506	-0.789872	2.289348	-0.006640	-0.002294	-0.000194	-1.006592	0.476074	-0.639404	-17.843768	-76.280606	-59.838304
57643		9.451421	-0.772458	2.281262	0.001007	0.003579	0.001118	-1.005615	0.475342	-0.636475	-17.842039	-76.277999	-59.837974
57644		9.385009	-0.789000	2.271236	-0.003564	0.000217	0.005192	-1.003174	0.482666	-0.632080	-17.849957	-76.277527	-59.830175
57645		9.487792	-0.791970	2.307901	-0.001728	0.000796	0.001020	-1.008789	0.473389	-0.633545	-17.851633	-76.276453	-59.827933
57646		9.433055	-0.763859	2.268300	-0.001728	0.000796	0.001020	-1.002441	0.475098	-0.628174	-17.848764	-76.276399	-59.830156
57647		9.454572	-0.800440	2.302874	-0.002526	-0.000223	0.002750	-1.005615	0.482178	-0.626465	-17.855374	-76.275591	-59.823261
57648		9.424412	-0.796082	2.257647	-0.001279	0.001898	0.003155	-1.002197	0.477783	-0.631592	-17.856223	-76.274561	-59.821391
57649		9.424375	-0.796435	2.257674	-0.004014	-0.000885	0.003056	-1.003418	0.474854	-0.621826	-17.865024	-76.274030	-59.813135
57650		9.463046	-0.769637	2.313741	0.001247	0.002120	0.000406	-1.004883	0.468750	-0.628174	-17.858127	-76.273361	-59.817749
57651		9.462987	-0.769747	2.313946	-0.001968	0.002254	0.001732	-0.999512	0.474121	-0.622559	-17.860316	-76.271370	-59.815035
57652		9.417948	-0.782718	2.276671	-0.006400	-0.003752	-0.000908	-1.000488	0.476074	-0.629639	-17.859093	-76.274134	-59.818319
57653		9.457503	-0.788836	2.262787	-0.000240	0.001458	0.000713	-1.006592	0.472168	-0.632324	-17.858671	-76.272696	-59.817313
57654		9.454426	-0.801793	2.303001	-0.004703	-0.000529	0.001633	-1.002441	0.472656	-0.630859	-17.859831	-76.273256	-59.817144
57655		9.448066	-0.787813	2.321816	-0.003905	0.000489	-0.000096	-1.007324	0.474121	-0.628906	-17.860298	-76.272460	-59.817433
57656		9.436147	-0.792687	2.289851	-0.001968	0.002254	0.001732	-1.011230	0.479004	-0.633057	-17.858110	-76.271486	-59.819096
57657		9.432787	-0.765892	2.268726	-0.002658	0.002610	0.000310	-1.001709	0.475586	-0.625977	-17.857374	-76.269450	-59.819901
57658		9.444645	-0.761450	2.300795	-0.000907	-0.002394	0.004882	-1.006104	0.477051	-0.635254	-17.864951	-76.270456	-59.810887
57659		9.451002	-0.775882	2.281834	-0.003905	0.000489	-0.000096	-0.999512	0.474121	-0.630371	-17.865496	-76.269623	-59.811078
57660		9.399543	-0.774825	2.263634	-0.003007	0.002693	0.004175	-1.007324	0.477539	-0.630127	-17.869037	-76.267980	-59.807456
57661		9.457296	-0.790592	2.263040	-0.004223	-0.003445	0.000208	-1.004639	0.476074	-0.625244	-17.873241	-76.269234	-59.804058
57662		9.450947	-0.776665	2.281799	-0.001279	0.001897	0.003155	-1.005615	0.469971	-0.629395	-17.874089	-76.268204	-59.802190
57663		9.460544	-0.818053	2.284378	-0.001039	0.000439	0.002442	-1.005371	0.477539	-0.632813	-17.878591	-76.266972	-59.796571
57664		9.426310	-0.753570	2.287480	-0.002976	-0.001325	0.000613	-1.003906	0.471680	-0.632813	-17.877059	-76.268146	-59.798154
57665		9.450878	-0.777254	2.281882	-0.002658	0.002610	0.000310	-0.999756	0.477539	-0.630371	-17.876168	-76.266035	-59.799117
57666		9.454125	-0.804316	2.303356	-0.001728	0.000795	0.001020	-1.008301	0.471924	-0.624512	-17.873301	-76.265981	-59.801338
57667		9.435868	-0.795233	2.290120	-0.001148	-0.000936	0.005594	-1.002686	0.479004	-0.625977	-17.885960	-76.264908	-59.787380
57668		9.411267	-0.771973	2.295717	-0.003905	0.000490	-0.000097	-1.002930	0.477295	-0.629395	-17.882072	-76.265217	-59.791938
57669		9.457152	-0.792339	2.263030	-0.002287	-0.001681	0.002036	-0.999756	0.478516	-0.625732	-17.888098	-76.265137	-59.785490
57670		9.450804	-0.778413	2.281792	-0.003216	0.000133	0.001326	-0.995605	0.478760	-0.634033	-17.887245	-76.265390	-59.786516
57671		9.487268	-0.797408	2.308182	-0.001488	-0.000662	0.000307	-1.007568	0.471924	-0.635254	-17.888174	-76.265009	-59.784861
57672		9.411277	-0.772618	2.295457	-0.003216	0.000133	0.001326	-1.007080	0.478760	-0.630859	-17.887321	-76.265262	-59.785886
57673		9.438911	-0.783527	2.249633	-0.003905	0.000490	-0.000097	-1.005859	0.475342	-0.624268	-17.887699	-76.264333	-59.786314
57674		9.454070	-0.805986	2.302998	0.002068	-0.001070	0.004268	-1.000244	0.479980	-0.632568	-17.891247	-76.264724	-59.779692
57675		9.438892	-0.783962	2.249564	-0.003905	0.000490	-0.000097	-1.006104	0.481689	-0.625977	-17.891802	-76.263808	-59.779826
57676		9.429464	-0.782825	2.308593	-0.002527	-0.000224	0.002749	-1.003174	0.477295	-0.628662	-17.893984	-76.264006	-59.777320
57677		9.411231	-0.773581	2.295320	-0.001488	-0.000662	0.000307	-0.998779	0.471191	-0.623291	-17.894943	-76.263643	-59.775606
57678		9.435809	-0.797409	2.289604	-0.001838	-0.000580	0.004171	-1.002686	0.480225	-0.626465	-17.900161	-76.263784	-59.769569
57679		9.450712	-0.780211	2.281560	-0.001968	0.002253	0.001733	-1.002441	0.477295	-0.631592	-17.902291	-76.261584	-59.766891
57680		9.420574	-0.775617	2.236333	-0.001488	-0.000662	0.000307	-1.009521	0.475586	-0.635010	-17.898747	-76.262450	-59.769667
57681		9.429385	-0.783764	2.308597	-0.002417	0.001152	-0.000403	-1.005127	0.473877	-0.628906	-17.897102	-76.261155	-59.771309
57682		9.435723	-0.798047	2.289738	-0.004704	-0.000529	0.001632	-1.000244	0.476563	-0.626953	-17.898262	-76.261715	-59.771140
57683		9.450609	-0.780826	2.281778	-0.000031	0.004016	0.003562	-1.001709	0.476563	-0.622803	-17.902047	-76.258193	-59.765667
57684		9.435633	-0.798600	2.289916	-0.002047	-0.003139	0.001322	-0.997803	0.472900	-0.629395	-17.902874	-76.260231	-59.764274
57685		9.435649	-0.798813	2.289777	-0.001039	0.000438	0.002442	-1.005615	0.478516	-0.629150	-17.907317	-76.258851	-59.758683
57686		9.444206	-0.767415	2.300611	-0.003456	0.001591	0.002039	-1.002197	0.471680	-0.627441	-17.907142	-76.258185	-59.759153
57687		9.450522	-0.781792	2.281805	-0.003216	0.000133	0.001326	-1.010498	0.477051	-0.631104	-17.910551	-76.257143	-59.755974
57688		9.423655	-0.804214	2.257925	-0.001968	0.002253	0.001733	-1.004395	0.481201	-0.635742	-17.908363	-76.256169	-59.757638
57689		9.425834	-0.758590	2.287780	-0.000480	0.002915	0.001426	-1.004639	0.473633	-0.626709	-17.908542	-76.253532	-59.756255
57690		9.450360	-0.782313	2.282299	-0.001728	0.000795	0.001019	-1.010010	0.477539	-0.627930	-17.905678	-76.253479	-59.758474
57691		9.438453	-0.786937	2.250363	-0.002308	0.002529	-0.003555	-1.005859	0.469238	-0.625977	-17.895971	-76.252000	-59.768228
57692		9.428971	-0.785710	2.309629	-0.003008	0.002691	0.004175	-1.001953	0.482178	-0.627686	-17.899506	-76.250357	-59.764613
57693		9.417052	-0.790669	2.277630	-0.001488	-0.000662	0.000306	-1.007813	0.477783	-0.626709	-17.900230	-76.249917	-59.763128
57694		9.477030	-0.760514	2.306784	-0.001968	0.002253	0.001733	-0.999268	0.478271	-0.624512	-17.898044	-76.248943	-59.764791
57695		9.450112	-0.782942	2.283109	-0.000720	0.004373	0.002139	-1.003662	0.472656	-0.617920	-17.898864	-76.245422	-59.762729
57696		9.416851	-0.791261	2.278257	-0.003457	0.001590	0.002039	-0.993408	0.469238	-0.631104	-17.898690	-76.244755	-59.763198
57697		9.416768	-0.791446	2.278535	-0.001409	0.004730	0.000717	-1.005127	0.473145	-0.624512	-17.896235	-76.241290	-59.764948
57698		9.483065	-0.775481	2.288948	-0.004705	-0.000530	0.001631	-1.004395	0.472656	-0.623047	-17.897393	-76.241851	-59.764781
57699		9.449842	-0.783726	2.283958	0.001008	0.003577	0.001120	-0.999023	0.474365	-0.622314	-17.895401	-76.238930	-59.764643
57700		9.474376	-0.807503	2.278418	-0.000110	-0.001377	0.003151	-0.998535	0.473145	-0.626953	-17.897920	-76.239686	-59.760366
57701		9.425196	-0.760586	2.289746	-0.001969	0.002253	0.001732	-1.005127	0.480225	-0.634766	-17.899958	-76.237351	-59.757837
57702		9.464652	-0.766890	2.276224	0.000209	0.002558	0.002849	-1.004150	0.470459	-0.623047	-17.898792	-76.236015	-59.757165
57703		9.416474	-0.792710	2.279312	-0.003217	0.000133	0.001325	-1.002441	0.473389	-0.624268	-17.902142	-76.234891	-59.754064
57704		9.437740	-0.789531	2.252446	-0.001969	0.002253	0.001732	-1.005615	0.475098	-0.629150	-17.899957	-76.233917	-59.755725
57705		9.437677	-0.789680	2.252657	-0.002658	0.002610	0.000310	-0.998779	0.479004	-0.626953	-17.898938	-76.231634	-59.756765
57706		9.431255	-0.775720	2.271755	0.000209	0.002558	0.002849	-1.008057	0.478760	-0.631592	-17.897771	-76.230297	-59.756093
57707		9.449378	-0.785543	2.285255	-0.005426	0.003843	0.003770	-0.997803	0.471436	-0.629150	-17.905219	-76.226710	-59.750049
57708		9.457958	-0.754096	2.296061	-0.003426	-0.002425	-0.001524	-0.999512	0.478027	-0.626953	-17.899987	-76.228860	-59.755707
57709		9.442978	-0.771632	2.304242	-0.001409	0.004730	0.000717	-1.004395	0.475830	-0.636230	-17.897573	-76.225334	-59.757447
57710		9.449260	-0.785885	2.285625	-0.001729	0.000795	0.001019	-0.998779	0.468994	-0.628418	-17.894712	-76.225281	-59.759663
57711		9.424640	-0.762528	2.291388	-0.001280	0.001895	0.003155	-1.010742	0.466064	-0.620850	-17.899593	-76.222850	-59.753893
57712		9.434212	-0.803957	2.293893	-0.002528	-0.000225	0.002748	-1.011963	0.475830	-0.625000	-17.901767	-76.223048	-59.751396
57713		9.430912	-0.777188	2.272679	-0.002658	0.002610	0.000310	-1.001221	0.467773	-0.631592	-17.900654	-76.220783	-59.752489
57714		9.449082	-0.787064	2.285954	-0.004368	-0.000807	0.006918	-1.002930	0.478027	-0.629150	-17.913570	-76.220564	-59.740017
57715		9.434138	-0.804926	2.293858	-0.003426	-0.002424	-0.001525	-1.000732	0.474121	-0.627686	-17.912421	-76.221300	-59.741676
57716		9.449138	-0.787407	2.285606	-0.001489	-0.000662	0.000306	-1.008301	0.477051	-0.629150	-17.908885	-76.222167	-59.744445
57717		9.418198	-0.749852	2.310149	-0.003457	0.001590	0.002038	-1.007568	0.463623	-0.634033	-17.912864	-76.220092	-59.740793
57718		9.455428	-0.801969	2.266840	-0.001040	0.000437	0.002442	-1.004150	0.473145	-0.625977	-17.913029	-76.219983	-59.739486
57719		9.442723	-0.773955	2.304505	-0.002288	-0.001682	0.002034	-1.000488	0.470459	-0.631836	-17.918509	-76.219696	-59.733668
57720		9.442709	-0.774213	2.304478	-0.003457	0.001590	0.002038	-1.004639	0.476563	-0.625977	-17.918334	-76.219029	-59.734138
57721		9.409538	-0.782642	2.299187	-0.002160	-0.004517	0.004471	-1.001465	0.475098	-0.627197	-17.931296	-76.219840	-59.720468
57722		9.442536	-0.735136	2.242795	-0.002209	0.003710	0.002446	-1.004395	0.476563	-0.625244	-17.929786	-76.217946	-59.721576
57723		9.452231	-0.816381	2.306883	-0.004946	0.000928	0.002344	-1.002686	0.471191	-0.627930	-17.935726	-76.216174	-59.716723
57724		9.448990	-0.789536	2.285481	-0.003426	-0.002424	-0.001525	-1.004395	0.468018	-0.623535	-17.930502	-76.218324	-59.722374
57725		9.415844	-0.797557	2.280221	-0.000000	0.000000	0.000000	-1.005371	0.474854	-0.628174	-17.928918	-76.217479	-59.722415
57726		9.457636	-0.758047	2.296084	-0.004017	-0.000887	0.003053	-1.004395	0.459229	-0.633789	-17.933100	-76.217984	-59.718729
57727		9.442687	-0.775758	2.304049	-0.003666	-0.000967	-0.000812	-1.008057	0.470703	-0.631348	-17.932409	-76.217778	-59.720122
57728		9.449079	-0.789976	2.284960	-0.002049	-0.003140	0.001320	-1.001221	0.473145	-0.623047	-17.933232	-76.219817	-59.718734
57729		9.430926	-0.780563	2.271464	-0.003426	-0.002424	-0.001525	-1.001709	0.480713	-0.620117	-17.932028	-76.220535	-59.720377
57730		9.434254	-0.807572	2.292450	-0.004226	-0.003444	0.000203	-1.003418	0.484375	-0.621094	-17.931834	-76.222936	-59.721320
57731		9.461173	-0.785410	2.316100	-0.001009	-0.003577	-0.001122	-1.015137	0.470215	-0.623291	-17.931194	-76.224213	-59.720788
57732		9.476187	-0.767882	2.307809	-0.001489	-0.000662	0.000306	-1.001465	0.474854	-0.629639	-17.927658	-76.225080	-59.723557
57733		9.431170	-0.780651	2.270417	-0.002738	-0.002782	-0.000103	-1.004639	0.474609	-0.626709	-17.929388	-76.225725	-59.721832
57734		9.458065	-0.758436	2.294187	-0.001938	-0.001762	-0.001831	-1.005615	0.478516	-0.623779	-17.922149	-76.227568	-59.728678
57735		9.458105	-0.758435	2.294023	-0.002978	-0.001325	0.000611	-1.002197	0.473145	-0.632324	-17.924598	-76.227287	-59.726296
57736		9.449513	-0.790263	2.283065	-0.002289	-0.001683	0.002034	-1.002197	0.477295	-0.630615	-17.926097	-76.228406	-59.724353
57737		9.431323	-0.780882	2.269702	0.000240	-0.001457	-0.000714	-1.011963	0.466797	-0.631836	-17.923777	-76.228410	-59.725048
57738		9.431381	-0.780903	2.269455	-0.004227	-0.003444	0.000203	-1.006104	0.476807	-0.631104	-17.923582	-76.230812	-59.725993
57739		9.431426	-0.780992	2.269239	-0.001489	-0.000662	0.000306	-1.004150	0.467529	-0.624023	-17.923910	-76.230215	-59.725001
57740		9.431424	-0.781181	2.269181	-0.002529	-0.000226	0.002747	-1.002197	0.475586	-0.622314	-17.926086	-76.230413	-59.722503
57741		9.461551	-0.786063	2.314336	-0.004116	-0.002066	-0.002948	-1.007324	0.478271	-0.631836	-17.921715	-76.231184	-59.727790
57742		9.431538	-0.781085	2.268738	-0.003187	-0.003881	-0.002239	-1.004395	0.475830	-0.626465	-17.915804	-76.234255	-59.734006
57743		9.443512	-0.776363	2.300461	-0.004916	-0.003087	-0.001220	-1.003418	0.470215	-0.626465	-17.916534	-76.235235	-59.734540
57744		9.473503	-0.741286	2.284010	-0.003427	-0.002424	-0.001525	-1.003418	0.472412	-0.624268	-17.911298	-76.237385	-59.740202
57745		9.450011	-0.790465	2.280935	-0.001809	-0.004598	0.000605	-1.001465	0.473145	-0.629395	-17.915255	-76.238893	-59.735595
57746		9.428571	-0.754182	2.246187	-0.004706	-0.000531	0.001631	-1.000977	0.474121	-0.631836	-17.916414	-76.239455	-59.735429
57747		9.443788	-0.776861	2.299156	-0.005587	-0.006944	0.002944	-1.002441	0.472412	-0.626953	-17.929439	-76.241796	-59.723762
57748		9.462115	-0.786504	2.311877	-0.003427	-0.002424	-0.001525	-1.003662	0.476563	-0.622803	-17.924202	-76.243946	-59.729425
57749		9.438367	-0.795917	2.247565	-0.002528	-0.000226	0.002747	-1.010254	0.478027	-0.626465	-17.930246	-76.242685	-59.723026
57750		9.446968	-0.764575	2.258352	-0.007124	0.000622	0.001228	-1.008057	0.469482	-0.636963	-17.931064	-76.242689	-59.724637
57751		9.471492	-0.788438	2.252728	-0.003457	0.001589	0.002039	-1.001221	0.476563	-0.629639	-17.934702	-76.240529	-59.721417
57752		9.476926	-0.769917	2.304089	-0.004066	0.007339	0.001032	-1.011230	0.474854	-0.634521	-17.928493	-76.236906	-59.728458
57753		9.456239	-0.806350	2.261894	-0.002577	0.008002	0.000726	-1.009521	0.481445	-0.634521	-17.924119	-76.231473	-59.732930
57754		9.464601	-0.774947	2.273708	0.000371	0.013339	0.003680	-1.004395	0.471436	-0.622070	-17.916952	-76.224112	-59.738341
57755		9.470623	-0.789253	2.256095	-0.003186	0.013751	-0.000282	-0.995117	0.472656	-0.626221	-17.906620	-76.215753	-59.749196
57756		9.463956	-0.775123	2.276330	-0.000208	0.015076	-0.000893	-1.002441	0.473145	-0.627686	-17.888397	-76.208250	-59.766333
57757		9.454991	-0.806747	2.266967	-0.001938	0.015870	0.000126	-1.008301	0.473389	-0.621094	-17.876628	-76.198684	-59.777969
57758		9.430026	-0.783285	2.274260	-0.002419	0.018783	0.001553	-1.003174	0.473145	-0.633545	-17.862485	-76.188727	-59.792210
57759		9.462758	-0.775411	2.281205	-0.000930	0.019445	0.001248	-0.998047	0.480225	-0.629883	-17.850165	-76.177015	-59.803822
57760		9.429101	-0.783659	2.277966	0.001006	0.021205	0.003079	-1.008057	0.473877	-0.638184	-17.835756	-76.165468	-59.816318
57761		9.476755	-0.758424	2.277016	-0.001973	0.019879	0.003688	-1.004883	0.475342	-0.628906	-17.829213	-76.153029	-59.822658
57762		9.428072	-0.784392	2.281967	0.000523	0.024116	0.004505	-1.005127	0.468018	-0.620605	-17.816204	-76.139643	-59.833998
57763		9.460695	-0.776600	2.289345	0.001804	0.022223	0.001350	-1.000977	0.472900	-0.626465	-17.800596	-76.126434	-59.847333
57764		9.430150	-0.811937	2.307742	-0.002139	0.026722	0.004811	-1.005615	0.478027	-0.621826	-17.787989	-76.111571	-59.859831
57765		9.459415	-0.777311	2.294386	0.003575	0.030826	0.004307	-1.003418	0.475830	-0.622070	-17.771982	-76.093133	-59.872443
57766		9.434111	-0.754071	2.302917	0.002084	0.030162	0.004609	-0.995605	0.477051	-0.631592	-17.754149	-76.076427	-59.887835
57767		9.436584	-0.781581	2.326970	-0.000209	0.028478	0.006638	-1.007568	0.470459	-0.631104	-17.747116	-76.058836	-59.893493
57768		9.442284	-0.796232	2.310736	-0.000657	0.027378	0.004500	-1.003174	0.472168	-0.628174	-17.732634	-76.043666	-59.907051
57769		9.453486	-0.752012	2.283847	0.001556	0.023671	0.002057	-1.001221	0.471191	-0.631104	-17.717799	-76.029493	-59.919890
57770		9.383314	-0.781201	2.315927	-0.001347	0.027734	0.003074	-0.998291	0.472168	-0.630371	-17.700397	-76.014377	-59.936867
57771		9.479978	-0.803141	2.304512	-0.001106	0.026277	0.002360	-1.005127	0.479736	-0.632813	-17.685971	-75.998720	-59.950835
57772		9.466532	-0.775041	2.344742	-0.002480	0.026992	-0.000489	-0.998535	0.476807	-0.632324	-17.662013	-75.984626	-59.975240
57773		9.402786	-0.778351	2.296767	0.001384	0.030509	0.003177	-1.003174	0.473633	-0.626709	-17.645257	-75.966488	-59.990022
57774		9.431953	-0.783391	2.345064	-0.001479	0.030562	0.000629	-1.002441	0.477539	-0.628662	-17.620790	-75.950246	-60.014365
57775		9.467669	-0.762505	2.313165	0.001498	0.031883	0.000024	-0.995361	0.479004	-0.631592	-17.596178	-75.931949	-60.037128
57776		9.448797	-0.753108	2.302810	-0.000798	0.030200	0.002050	-1.010010	0.479736	-0.626221	-17.574780	-75.915654	-60.057908
57777		9.426608	-0.756874	2.332532	0.000328	0.030936	0.005609	-0.994629	0.469727	-0.633789	-17.563817	-75.896893	-60.067230
57778		9.417231	-0.789307	2.324639	0.000405	0.032108	0.011607	-1.000977	0.477783	-0.635254	-17.561261	-75.877901	-60.067874
57779		9.464565	-0.764886	2.325050	0.002576	0.032409	0.012728	-1.004639	0.471436	-0.636475	-17.563227	-75.857086	-60.062799
57780		9.457219	-0.752104	2.347087	0.003455	0.034599	0.016998	-1.006348	0.471436	-0.629150	-17.568890	-75.835801	-60.053164
57781		9.452859	-0.766763	2.390612	0.005017	0.036430	0.022693	-1.002441	0.474121	-0.632324	-17.588168	-75.811098	-60.028791
57782		9.388944	-0.772002	2.343003	-0.000701	0.032329	0.023182	-1.000488	0.476318	-0.631348	-17.611033	-75.789980	-60.003867
57783		9.478846	-0.781988	2.351398	0.004081	0.034025	0.027564	-1.006104	0.474121	-0.628174	-17.642900	-75.765735	-59.966913
57784		9.499380	-0.781133	2.327764	0.002832	0.031907	0.027150	-1.003174	0.475586	-0.629150	-17.672399	-75.744152	-59.933051
57785		9.516329	-0.793327	2.344863	0.006834	0.046179	0.031631	-0.998291	0.479248	-0.630371	-17.702867	-75.712590	-59.895851
57786		9.475345	-0.790103	2.362771	0.007265	0.047268	0.033761	-1.004150	0.477783	-0.620605	-17.733244	-75.681461	-59.858454
57787		9.458936	-0.810571	2.375011	0.002595	0.042734	0.031808	-0.996582	0.469482	-0.633301	-17.768642	-75.651748	-59.818552
57788		9.424471	-0.821225	2.373847	0.004770	0.047239	0.027338	-0.989258	0.478516	-0.639893	-17.786500	-75.621749	-59.795543
57789		9.513942	-0.831346	2.384011	0.006138	0.050724	0.024593	-0.996582	0.473389	-0.634521	-17.798615	-75.588873	-59.777885
57790		9.525506	-0.861525	2.351399	0.006389	0.053473	0.018287	-0.993896	0.475830	-0.638916	-17.791968	-75.557056	-59.779214
57791		9.762463	-0.972846	2.269950	0.008390	0.086608	0.011253	-0.998535	0.470215	-0.631836	-17.750299	-75.506950	-59.815710
57792		9.566970	-0.923225	2.396355	0.012878	0.096983	-0.000841	-0.993896	0.473145	-0.638428	-17.670528	-75.454719	-59.888735
57793		9.827254	-1.094950	2.375044	0.021252	0.114097	-0.029998	-0.992676	0.468750	-0.636475	-17.517502	-75.396753	-60.032687
57794		10.502830	-1.442762	2.293272	0.041027	0.171531	-0.149625	-0.993164	0.476807	-0.635498	-17.063408	-75.328944	-60.475961
57795		10.546642	-0.978396	2.475764	0.072274	0.239508	-0.267517	-0.994873	0.470703	-0.634766	-16.311587	-75.240687	-61.208838
57796		17.880821	-1.139707	2.634429	0.032555	0.314338	-0.046345	-0.993164	0.473877	-0.646240	-16.002241	-75.075617	-61.507807
57797		17.651794	-0.867439	2.553547	0.036722	0.878698	0.047594	-0.987549	0.474121	-0.637451	-15.571769	-74.583139	-61.930361
57798		12.848143	-1.408214	2.293309	0.060325	1.131670	0.134651	-0.971436	0.476807	-0.651123	-15.185877	-73.938011	-62.293604
57799		12.462377	-0.586346	2.564800	0.082003	1.234156	0.182786	-0.962402	0.474854	-0.651855	-14.859397	-73.227705	-62.583358
57800		12.862512	-0.501384	2.686926	0.076643	1.346069	0.249312	-0.948730	0.469238	-0.653076	-14.622520	-72.446007	-62.783531
57801		12.780717	-0.336915	2.760260	0.063663	1.465027	0.325715	-0.940186	0.467285	-0.660156	-14.491462	-71.586655	-62.881432
57802		12.024141	-0.355688	2.856922	0.049042	1.591158	0.398737	-0.925781	0.466797	-0.663330	-14.439762	-70.647323	-62.904578
57803		11.583264	-0.363649	3.036663	0.028557	1.638891	0.529745	-0.915283	0.461670	-0.673340	-14.584172	-69.662496	-62.732118
57804		10.754616	-0.316940	3.344543	0.011316	1.683491	0.639165	-0.892578	0.464844	-0.677979	-14.859807	-68.637030	-62.428424
57805		10.269811	-0.086724	3.613203	-0.029932	1.668957	0.671125	-0.876465	0.466553	-0.679199	-15.182960	-67.614289	-62.097128
57806		10.077300	-0.815229	3.649822	-0.061912	1.650054	0.705248	-0.861816	0.469482	-0.683350	-15.543974	-66.596118	-61.741919
57807		9.921658	-0.949230	3.784526	-0.053810	1.599937	0.692245	-0.840332	0.472412	-0.689453	-15.874343	-65.606877	-61.412704
57808		10.972564	-1.610918	3.860276	-0.040905	1.604468	0.606908	-0.831543	0.473877	-0.686768	-16.069410	-64.627914	-61.221647
57809		10.742361	-2.528282	3.504500	-0.000939	1.663113	0.506775	-0.813232	0.476807	-0.691406	-16.098994	-63.632627	-61.187778
57810		10.642226	-3.388480	3.388607	0.079015	1.683694	0.451089	-0.805420	0.478027	-0.694336	-16.013720	-62.634619	-61.230713
57811		10.914925	-4.105154	3.543197	0.170227	1.673214	0.541744	-0.788818	0.471680	-0.697021	-15.979857	-61.628496	-61.157277
57812		11.474297	-4.436041	3.682699	0.286497	1.682865	0.655011	-0.770996	0.467529	-0.699463	-15.984996	-60.598748	-60.961993
57813		10.685197	-4.441424	3.232616	0.406452	1.722374	0.694616	-0.756104	0.473389	-0.703125	-15.945617	-59.541724	-60.737641
57814		9.349957	-4.130721	2.783496	0.533975	1.718362	0.634105	-0.739014	0.467285	-0.708740	-15.770367	-58.495893	-60.583212
57815		5.970989	-3.664628	1.624393	0.652661	1.557488	0.468783	-0.725098	0.459717	-0.722656	-15.428021	-57.565706	-60.545295
57816		4.341647	-3.547152	0.532929	0.792118	1.228896	0.221127	-0.709717	0.449219	-0.711670	-14.875120	-56.853477	-60.661089
57817		5.325729	-3.636404	0.273958	0.984200	0.939250	-0.016051	-0.705322	0.435547	-0.724365	-14.096281	-56.336499	-60.918326
57818		3.462376	-2.924168	0.603982	1.153049	0.596057	-0.058556	-0.692383	0.427246	-0.720703	-13.263285	-56.013095	-61.123740
57819		4.832417	-2.683272	-0.707230	1.258896	0.131521	0.003443	-0.700684	0.421387	-0.726807	-12.523657	-55.941255	-61.146036
57820		5.684487	-2.251787	-1.012599	1.347296	-0.230526	0.115566	-0.698242	0.409668	-0.733398	-11.885880	-56.056815	-60.982149
57821		7.212647	-1.454544	-1.023560	1.402015	-0.398151	0.232247	-0.700439	0.388672	-0.741211	-11.350168	-56.256153	-60.660452
57822		7.663351	-0.564963	-1.007595	1.412137	-0.418626	0.298604	-0.698975	0.378174	-0.744141	-10.859566	-56.459008	-60.275841
57823		7.160244	0.376714	-1.049515	1.363712	-0.401497	0.287897	-0.700684	0.377197	-0.744141	-10.393118	-56.658305	-59.899054
57824		6.648470	1.142851	-1.244926	1.259395	-0.413587	0.245391	-0.712158	0.361572	-0.749268	-9.943317	-56.867156	-59.572085
57825		6.107652	1.448797	-1.421709	1.115012	-0.471539	0.213058	-0.711670	0.347168	-0.763672	-9.565147	-57.117296	-59.261724
57826		5.618341	1.566326	-1.625101	0.953634	-0.580225	0.181828	-0.716309	0.347412	-0.758057	-9.260001	-57.428640	-58.972934
57827		5.418028	1.760580	-1.617341	0.785032	-0.720231	0.141678	-0.711670	0.330322	-0.762451	-9.044801	-57.828583	-58.695496
57828		5.567689	1.916384	-1.428402	0.592928	-0.867874	0.122917	-0.723877	0.323975	-0.766602	-8.938066	-58.309129	-58.418966
57829		5.646702	1.964421	-1.154661	0.385970	-1.015206	0.137494	-0.736084	0.328857	-0.766357	-8.997029	-58.877700	-58.090870
57830		5.748070	1.851216	-0.748810	0.175553	-1.164090	0.173673	-0.750000	0.322021	-0.765869	-9.235116	-59.520897	-57.694612
57831		5.932895	1.944277	-0.129584	-0.045924	-1.314913	0.185655	-0.755127	0.318848	-0.771729	-9.659301	-60.253638	-57.234543
57832		6.266250	2.086050	0.504508	-0.284623	-1.439360	0.192634	-0.771729	0.313965	-0.771729	-10.265945	-61.047231	-56.723725
57833		6.497647	2.103147	1.070288	-0.524161	-1.543858	0.198975	-0.785645	0.323486	-0.772217	-11.077060	-61.902964	-56.142022
57834		6.733282	1.969218	1.544566	-0.756958	-1.625531	0.166144	-0.790771	0.327881	-0.773438	-12.041423	-62.796821	-55.541061
57835		6.904193	1.848681	2.016253	-0.959253	-1.694840	0.103277	-0.803711	0.333496	-0.774902	-13.128625	-63.739615	-54.938596
57836		7.087618	1.645847	2.481974	-1.137805	-1.753747	0.028220	-0.820313	0.347656	-0.772461	-14.302780	-64.712447	-54.356814
57837		7.516933	1.300379	2.814513	-1.290333	-1.809106	-0.039812	-0.842041	0.354492	-0.775391	-15.575522	-65.727976	-53.768556
57838		8.154150	0.935306	3.154951	-1.394338	-1.832766	-0.114155	-0.854736	0.353027	-0.770264	-16.894875	-66.755020	-53.198099
57839		8.821356	0.555740	3.479981	-1.461104	-1.824157	-0.205007	-0.876221	0.372314	-0.757324	-18.219412	-67.795147	-52.668820
57840		9.258376	0.186718	3.943071	-1.498595	-1.792717	-0.314752	-0.889160	0.374268	-0.768311	-19.479288	-68.826050	-52.235218
57841		9.711303	-0.149519	4.523377	-1.522338	-1.759388	-0.430161	-0.906738	0.386963	-0.771240	-20.656714	-69.865643	-51.908063
57842		10.305853	-0.407776	5.050174	-1.545037	-1.715173	-0.528133	-0.922119	0.397217	-0.766602	-21.743220	-70.891889	-51.692619
57843		10.938409	-0.707549	5.592651	-1.564722	-1.665646	-0.587913	-0.946533	0.404297	-0.768555	-22.789223	-71.910614	-51.533765
57844		11.274387	-1.145733	5.942435	-1.579232	-1.615912	-0.609833	-0.958496	0.413574	-0.767578	-23.833052	-72.899791	-51.386194
57845		11.047208	-1.785243	6.040249	-1.562318	-1.600804	-0.649234	-0.986084	0.420410	-0.757813	-24.860393	-73.896197	-51.246995
57846		11.209442	-2.439269	6.032523	-1.500855	-1.611495	-0.668690	-0.999756	0.431396	-0.759766	-25.892945	-74.895292	-51.066029
57847		11.870299	-2.998082	5.959647	-1.407953	-1.575748	-0.676920	-1.018311	0.432617	-0.754883	-26.907515	-75.883161	-50.849888
57848		12.411589	-3.326244	5.794397	-1.287150	-1.456177	-0.662573	-1.039551	0.442627	-0.757568	-27.830921	-76.799322	-50.656827
57849		12.494199	-3.577105	5.582147	-1.145703	-1.259582	-0.633359	-1.060791	0.445068	-0.757324	-28.582347	-77.612783	-50.558040
57850		11.972213	-3.902472	5.442797	-0.987829	-1.054596	-0.599197	-1.073975	0.445557	-0.753662	-29.099385	-78.308407	-50.606355
57851		11.548115	-4.077342	5.505319	-0.824525	-0.849385	-0.538989	-1.092285	0.448730	-0.751465	-29.417291	-78.889036	-50.762542
57852		11.181923	-4.114521	5.673037	-0.659476	-0.668992	-0.455587	-1.104736	0.450684	-0.758057	-29.589350	-79.351926	-50.970370
57853		10.847260	-4.008856	5.991534	-0.518426	-0.494220	-0.335012	-1.112549	0.453613	-0.762695	-29.745377	-79.697130	-51.112291
57854		35.522936	-8.662749	9.350601	-0.316626	0.212581	-0.574824	-1.116699	0.446777	-0.762939	-28.005349	-79.750255	-53.063324
57855		2.859918	-2.560972	11.350150	0.008932	1.480575	-0.395755	-1.111084	0.444580	-0.767090	-24.892899	-79.094541	-56.222775
57856		11.631134	-4.503378	11.961679	0.188802	2.142813	-0.349284	-1.100098	0.437256	-0.784668	-21.477458	-78.044941	-59.595044
57857		26.415610	-4.637356	24.602708	0.239762	2.892809	0.335330	-1.069580	0.434814	-0.793701	-19.569508	-76.426103	-61.408722
57858		-32.330001	4.237604	13.090397	0.065294	0.692535	-0.048147	-1.070557	0.434082	-0.799805	-18.886433	-76.061104	-62.071701
57859		19.209565	-5.087533	-0.879257	-0.027020	-0.138085	0.046331	-1.068604	0.435059	-0.794189	-19.102341	-76.124573	-61.863462
57860		8.837831	-0.647015	2.763910	0.021242	-0.076238	-0.048776	-1.073242	0.438721	-0.790527	-19.035446	-76.175567	-61.918075
57861		12.608183	-1.123192	1.240884	0.018266	-0.010095	-0.122112	-1.076172	0.430420	-0.783203	-18.760376	-76.201356	-62.188867
57862		9.792530	-0.284133	2.289310	0.108132	0.302391	-0.023260	-1.065918	0.430664	-0.794678	-18.418266	-76.041958	-62.475696
57863		9.230707	-0.849591	2.564317	0.103977	0.236013	0.007714	-1.070313	0.430176	-0.797852	-18.202575	-75.910047	-62.634928
57864		9.222633	-0.616901	2.489592	0.063423	0.147520	-0.000242	-1.062988	0.430908	-0.794922	-18.055802	-75.830327	-62.747055
57865		9.052288	-0.511992	2.586756	0.027573	0.082333	0.026826	-1.065186	0.434082	-0.793457	-18.037112	-75.778542	-62.748354
57866		9.057828	-0.600870	2.468581	-0.001413	0.030742	0.046248	-1.062256	0.434814	-0.788574	-18.110278	-75.754139	-62.671953
57867		9.052429	-0.780439	2.431838	-0.015388	-0.010148	0.042364	-1.067627	0.428955	-0.792236	-18.213913	-75.749910	-62.572431
57868		9.297658	-0.827312	2.329547	-0.017183	-0.019697	0.033108	-1.068604	0.435791	-0.793457	-18.303232	-75.755250	-62.488683
57869		9.426506	-0.813897	2.391201	-0.012809	-0.014738	0.029949	-1.065918	0.434082	-0.795410	-18.382014	-75.755679	-62.413275
57870		9.421864	-0.832803	2.337703	-0.009547	-0.014791	0.028673	-1.068604	0.433350	-0.795654	-18.454046	-75.759097	-62.342849
57871		9.497870	-0.860538	2.348848	-0.006691	-0.006166	0.020297	-1.061035	0.437988	-0.796631	-18.502542	-75.756593	-62.295070
57872		9.506053	-0.831318	2.361252	-0.003953	0.000997	0.015037	-1.063232	0.432129	-0.804199	-18.530884	-75.753884	-62.266412
57873		9.511003	-0.773656	2.354343	-0.004901	0.002813	0.014359	-1.066895	0.434326	-0.793457	-18.559189	-75.747589	-62.238403
57874		9.423121	-0.796358	2.368712	-0.007897	-0.002922	0.020365	-1.065918	0.437256	-0.800293	-18.603970	-75.746029	-62.195116
57875		9.447765	-0.821847	2.361728	-0.007837	-0.001912	0.026401	-1.053711	0.427490	-0.797607	-18.663003	-75.740103	-62.137135
57876		9.414557	-0.832249	2.355416	-0.011166	-0.002873	0.021636	-1.071045	0.439941	-0.801270	-18.712300	-75.738263	-62.091117
57877		9.419637	-0.775497	2.347883	-0.011034	-0.005767	0.024001	-1.066650	0.433594	-0.789795	-18.770759	-75.734860	-62.035614
57878		9.404583	-0.796206	2.354199	-0.012358	-0.003985	0.027184	-1.058350	0.438477	-0.800293	-18.833350	-75.732576	-61.976585
57879		9.399289	-0.858018	2.360706	-0.009532	-0.005081	0.023735	-1.061768	0.425049	-0.793701	-18.889795	-75.728841	-61.922267
57880		9.381133	-0.850136	2.347239	-0.006705	-0.006176	0.020287	-1.063477	0.428711	-0.792480	-18.936011	-75.728997	-61.876790
57881		9.379438	-0.895530	2.314432	-0.001059	-0.004006	0.007914	-1.054199	0.429443	-0.798096	-18.953088	-75.727616	-61.858082
57882		9.450470	-0.864520	2.378014	-0.000429	-0.005401	0.003304	-1.068115	0.431396	-0.804199	-18.958959	-75.730505	-61.850524
57883		9.472205	-0.859357	2.351159	-0.001314	-0.003126	-0.006522	-1.067139	0.434082	-0.800049	-18.944810	-75.731346	-61.864187
57884		9.469131	-0.830880	2.331357	-0.000946	0.001818	-0.000677	-1.060303	0.433350	-0.803711	-18.937216	-75.731063	-61.870829
57885		9.465574	-0.845830	2.370898	0.003134	0.002842	-0.003638	-1.061279	0.433350	-0.795898	-18.922305	-75.728152	-61.882648
57886		9.422668	-0.811881	2.365246	0.003124	0.007201	-0.009116	-1.061768	0.436035	-0.799561	-18.890471	-75.726517	-61.911896
57887		9.444213	-0.805874	2.339441	0.003378	0.005771	-0.009865	-1.065674	0.432129	-0.797363	-18.860019	-75.723184	-61.939607
57888		9.447245	-0.833307	2.359794	0.003440	0.006778	-0.003829	-1.062500	0.431396	-0.801270	-18.839594	-75.720793	-61.956896
57889		9.468781	-0.827752	2.333889	0.003948	0.003919	-0.005326	-1.058838	0.434326	-0.793945	-18.819837	-75.717637	-61.973234
57890		9.428975	-0.821893	2.348055	0.000671	0.008328	-0.009531	-1.063721	0.431152	-0.795898	-18.787738	-75.715455	-62.004206
57891		9.446917	-0.831330	2.361802	0.006196	0.009586	-0.003606	-1.069824	0.440674	-0.797363	-18.766266	-75.708923	-62.020985
57892		9.413641	-0.838245	2.356949	0.010520	0.013537	-0.012795	-1.064697	0.437012	-0.800537	-18.717843	-75.704507	-62.062982
57893		9.476442	-0.793044	2.350542	0.006439	0.012512	-0.009834	-1.062256	0.432373	-0.792969	-18.680904	-75.697540	-62.095578
57894		9.479332	-0.820150	2.371589	0.006183	0.013941	-0.009087	-1.063232	0.430420	-0.790283	-18.642627	-75.692210	-62.129670
57895		9.497503	-0.786138	2.327078	0.007360	0.019962	-0.004931	-1.066650	0.429932	-0.796143	-18.610298	-75.680310	-62.156966
57896		9.475373	-0.790650	2.355655	0.006594	0.024250	-0.002688	-1.078369	0.432129	-0.801758	-18.578091	-75.668203	-62.184553
57897		9.448362	-0.810977	2.332761	0.008268	0.031765	-0.005511	-1.070313	0.430908	-0.798096	-18.535672	-75.650013	-62.221730
57898		9.437389	-0.812555	2.394717	0.007196	0.032117	-0.003077	-1.065918	0.436035	-0.804443	-18.496831	-75.633693	-62.255814
57899		9.428796	-0.799731	2.326243	0.012960	0.036299	-0.003379	-1.065918	0.438477	-0.800781	-18.453213	-75.612655	-62.291458
57900		9.384645	-0.809221	2.382443	0.012398	0.033792	-0.002441	-1.065918	0.434326	-0.800537	-18.411740	-75.595298	-62.325188
57901		9.420551	-0.785618	2.352398	0.006498	0.032496	-0.004512	-1.062012	0.438965	-0.801758	-18.372300	-75.576538	-62.360347
57902		9.416186	-0.800208	2.394849	0.008691	0.032796	-0.003349	-1.065430	0.437988	-0.799561	-18.331910	-75.559874	-62.395157
57903		9.412336	-0.771825	2.378176	0.007492	0.031687	0.002199	-1.061523	0.431396	-0.804443	-18.306789	-75.540351	-62.414946
57904		9.363545	-0.797719	2.381905	0.009252	0.030945	0.001190	-1.058594	0.432373	-0.799561	-18.277092	-75.523869	-62.438387
57905		9.369579	-0.810507	2.365185	0.007569	0.027782	-0.001471	-1.061035	0.441650	-0.800293	-18.247006	-75.507142	-62.463261
57906		9.416283	-0.827508	2.426547	0.009115	0.033831	-0.001184	-1.068848	0.431152	-0.797852	-18.210520	-75.489508	-62.493799
57907		9.404260	-0.829586	2.397121	0.010653	0.029603	-0.011147	-1.071777	0.443359	-0.796143	-18.157211	-75.473523	-62.540841
57908		9.392299	-0.831154	2.367700	0.006303	0.034358	-0.012935	-1.051270	0.434570	-0.804199	-18.097481	-75.457684	-62.597059
57909		9.439584	-0.803819	2.370471	0.009052	0.037161	-0.012713	-1.058350	0.438965	-0.804443	-18.036876	-75.437852	-62.652596
57910		9.431989	-0.789265	2.393788	0.007968	0.041861	-0.015770	-1.053955	0.428711	-0.806641	-17.965420	-75.418395	-62.719953
57911		9.432522	-0.743731	2.430020	0.007578	0.041826	-0.011912	-1.060547	0.432617	-0.805176	-17.904494	-75.395866	-62.776704
57912		9.383637	-0.768640	2.434312	0.006333	0.035359	-0.006912	-1.057373	0.430908	-0.795898	-17.857237	-75.378360	-62.820035
57913		9.422637	-0.772974	2.424411	0.004566	0.036097	-0.005910	-1.067871	0.430420	-0.801025	-17.814684	-75.357892	-62.859591
57914		9.403877	-0.762187	2.414474	0.003281	0.028619	-0.006943	-1.067383	0.423828	-0.799561	-17.773834	-75.344052	-62.898113
57915		9.449042	-0.823111	2.443722	0.002799	0.032488	0.000580	-1.061768	0.434082	-0.799316	-17.748397	-75.324422	-62.921028
57916		9.410831	-0.846384	2.388818	0.003311	0.038318	-0.011892	-1.059570	0.435303	-0.786621	-17.690931	-75.306139	-62.976716
57917		9.460935	-0.847111	2.412227	0.005531	0.048321	-0.015672	-1.063477	0.421875	-0.795410	-17.619859	-75.280693	-63.045198
57918		9.435027	-0.821912	2.423558	0.002773	0.054198	-0.026888	-1.057861	0.432617	-0.796631	-17.521464	-75.256293	-63.143538
57919		9.508446	-0.888093	2.409837	0.000993	0.063615	-0.036879	-1.056885	0.427979	-0.799805	-17.399609	-75.226091	-63.267244
57920		9.500234	-0.870851	2.436130	0.000446	0.079484	-0.051885	-1.057129	0.439941	-0.802246	-17.235238	-75.192014	-63.435225
57921		9.497419	-0.909260	2.412283	0.003582	0.096334	-0.065988	-1.057861	0.435059	-0.804688	-17.032153	-75.148648	-63.641472
57922		9.577650	-0.824104	2.460242	-0.002741	0.107993	-0.080735	-1.054443	0.427979	-0.801514	-16.794028	-75.103449	-63.887720
57923		9.485723	-0.764868	2.496917	0.002952	0.120815	-0.092052	-1.046631	0.426270	-0.802979	-16.525246	-75.050512	-64.162426
57924		9.475412	-0.787159	2.495718	-0.002011	0.123009	-0.092967	-1.052002	0.428467	-0.803955	-16.255731	-74.998462	-64.440850
57925		9.415120	-0.763430	2.507223	0.000254	0.124726	-0.094956	-1.049316	0.427979	-0.806885	-15.984057	-74.943184	-64.720294
57926		9.418456	-0.651173	2.543808	0.000461	0.117904	-0.096281	-1.050781	0.420410	-0.802490	-15.713132	-74.893788	-64.998851
57927		9.403436	-0.732689	2.549078	-0.002309	0.116073	-0.090517	-1.052002	0.425049	-0.801025	-15.460716	-74.841944	-65.260006
57928		9.408328	-0.737105	2.540377	0.000644	0.112068	-0.091598	-1.048828	0.429199	-0.803955	-15.205989	-74.794414	-65.521802
57929		9.418021	-0.682013	2.524612	0.003729	0.114863	-0.095269	-1.059570	0.434814	-0.807617	-14.944543	-74.743351	-65.788858
57930		9.404040	-0.718997	2.561357	0.002601	0.103461	-0.099990	-1.047607	0.419434	-0.811035	-14.679549	-74.701196	-66.060254
57931		9.580671	-0.694000	2.566166	-0.000733	0.108805	-0.098258	-1.049805	0.425781	-0.801758	-14.421116	-74.653299	-66.326959
57932		9.570824	-0.715580	2.564234	0.008197	0.118272	-0.099274	-1.049561	0.427246	-0.809082	-14.149856	-74.602163	-66.601651
57933		9.575966	-0.674084	2.588938	0.004278	0.128716	-0.113691	-1.049561	0.422852	-0.813965	-13.850955	-74.544684	-66.907497
57934		9.653811	-0.583629	2.641296	0.006199	0.141505	-0.119945	-1.035889	0.421631	-0.806641	-13.531910	-74.482666	-67.233112
57935		9.461604	-0.547641	2.659002	0.003900	0.147488	-0.114631	-1.047607	0.423828	-0.808105	-13.227108	-74.413991	-67.545500
57936		9.334915	-0.583755	2.625344	-0.001977	0.136433	-0.111837	-1.050537	0.426270	-0.804443	-12.936418	-74.352830	-67.846744
57937		9.354057	-0.480274	2.676443	-0.006114	0.131029	-0.103447	-1.047607	0.432129	-0.811035	-12.672024	-74.291107	-68.123318
57938		9.536293	-0.598690	2.659924	-0.005288	0.119133	-0.088596	-1.038330	0.419922	-0.808594	-12.441333	-74.235986	-68.364375
57939		9.867355	-0.692331	2.685881	-0.005200	0.136946	-0.099405	-1.042236	0.417969	-0.808838	-12.185784	-74.169834	-68.631377
57940		10.486641	-0.739964	2.674645	-0.002545	0.161691	-0.085769	-1.040039	0.428467	-0.807617	-11.944892	-74.089971	-68.881564
57941		11.893928	-0.306784	2.814238	-0.015398	0.230992	-0.005776	-1.035400	0.423828	-0.806396	-11.844524	-73.959550	-68.993475
57942		12.605644	-0.473996	2.842179	-0.028645	0.349201	0.080907	-1.031494	0.422363	-0.806641	-11.870497	-73.754674	-68.981753
57943		13.689094	-1.109436	2.732450	-0.025415	0.522943	0.131745	-1.026611	0.419922	-0.804199	-11.923429	-73.444464	-68.940083
57944		14.056729	-1.581876	2.694495	-0.004709	0.764192	0.106858	-1.018555	0.430420	-0.809082	-11.821064	-73.003841	-69.048040
57945		13.171339	-1.002342	2.774170	0.028678	0.989700	0.097474	-1.013428	0.421875	-0.810059	-11.608070	-72.436011	-69.252247
57946		12.023365	0.239610	3.048313	0.019373	1.106339	0.199217	-1.003662	0.430420	-0.809326	-11.544511	-71.792566	-69.305583
57947		11.819923	0.741440	3.089929	-0.017324	1.163784	0.381674	-0.987305	0.432861	-0.815674	-11.788411	-71.094265	-69.057135
57948		11.686473	0.321847	3.057456	-0.060493	1.240496	0.551078	-0.970459	0.434570	-0.819824	-12.277593	-70.333758	-68.573800
57949		11.998107	-0.137886	3.033557	-0.073702	1.331329	0.683764	-0.966064	0.433105	-0.816406	-12.907859	-69.503038	-67.946015
57950		12.231859	-0.659640	2.998063	-0.075526	1.466044	0.734780	-0.949951	0.441162	-0.817871	-13.515834	-68.589537	-67.339526
57951		12.462218	-1.112855	3.032937	-0.057928	1.619507	0.735348	-0.934570	0.443359	-0.824951	-14.014524	-67.587432	-66.836073
57952		12.688430	-1.250756	3.034956	-0.033798	1.799091	0.698365	-0.917725	0.439941	-0.818604	-14.349455	-66.490503	-66.491523
57953		12.388391	-1.526172	2.995239	0.002903	1.985601	0.648595	-0.889160	0.451660	-0.819824	-14.515700	-65.295854	-66.305863
57954		12.175366	-1.481796	3.052906	0.034419	2.159030	0.604484	-0.865723	0.455322	-0.831787	-14.544804	-64.011995	-66.249961
57955		12.032557	-1.564040	3.299594	0.067406	2.318758	0.556659	-0.853271	0.456055	-0.825684	-14.456328	-62.646009	-66.304061
57956		11.934566	-1.459154	3.523206	0.096080	2.464659	0.531595	-0.823730	0.446045	-0.828369	-14.293612	-61.202957	-66.424147
57957		11.852707	-1.278575	3.927046	0.106886	2.597286	0.519964	-0.798828	0.450684	-0.823486	-14.096115	-59.687681	-66.579116
57958		11.286615	-1.151007	4.319693	0.103016	2.694750	0.545901	-0.774414	0.455322	-0.829590	-13.917350	-58.114400	-66.716953
57959		10.786073	-1.214471	4.652376	0.082850	2.722356	0.631906	-0.746582	0.460449	-0.825439	-13.832792	-56.514126	-66.759362
57960		10.274264	-1.264362	5.236557	0.060752	2.697543	0.792509	-0.719971	0.461670	-0.828369	-13.898174	-54.905260	-66.636048
57961		9.857445	-1.303869	5.826890	0.027915	2.615388	0.934957	-0.692871	0.461914	-0.825195	-14.097759	-53.322755	-66.368316
57962		9.652464	-2.065092	5.227793	0.022976	2.514042	1.083253	-0.669922	0.457764	-0.822021	-14.404060	-51.774345	-65.963796
57963		9.600650	-2.249955	5.081458	0.039935	2.461429	1.152020	-0.644043	0.466553	-0.818604	-14.730466	-50.244635	-65.512787
57964		8.577694	-3.651129	4.552061	0.096347	2.353765	1.385360	-0.625244	0.470947	-0.809570	-15.162961	-48.737420	-64.869155
57965		9.789640	-3.548112	5.595370	0.175865	2.252227	1.666299	-0.596924	0.463867	-0.809814	-15.701483	-47.240960	-64.007374
57966		8.949697	-3.666016	5.514864	0.238447	2.222417	1.857720	-0.571533	0.459473	-0.804199	-16.270484	-45.724195	-63.032064
57967		8.221572	-3.517930	5.145375	0.348807	2.108420	1.947133	-0.546387	0.460938	-0.806396	-16.795376	-44.250361	-62.005818
57968		8.927610	-3.289524	5.113953	0.460662	2.028391	1.920641	-0.523438	0.459961	-0.808838	-17.205859	-42.817716	-61.024266
57969		9.856631	-3.230260	4.817086	0.575611	2.048465	1.853980	-0.492432	0.445801	-0.804932	-17.475922	-41.382787	-60.128767
57970		9.378713	-2.865375	4.411656	0.687131	2.154854	1.795650	-0.474609	0.435791	-0.796387	-17.602370	-39.896024	-59.327563
57971		4.293055	-2.439284	3.066559	0.762459	2.116013	1.620675	-0.457764	0.430420	-0.787109	-17.588277	-38.462233	-58.657966
57972		-0.201197	-2.855293	1.240963	0.848610	1.758111	1.252762	-0.429932	0.415527	-0.788086	-17.396569	-37.286290	-58.175483
57973		-1.134754	-2.940215	-0.846795	0.969342	1.249761	0.818123	-0.420410	0.417480	-0.787598	-17.018632	-36.466108	-57.879815
57974		-0.088837	-3.167533	-1.670883	1.118405	0.665234	0.451470	-0.421631	0.414307	-0.789063	-16.476510	-36.027128	-57.710045
57975		2.866516	-2.433545	0.830013	1.275409	0.247774	0.235474	-0.414795	0.393799	-0.794678	-15.812203	-35.855647	-57.597614
57976		3.081650	-1.699678	1.107731	1.330576	-0.180756	0.218281	-0.419434	0.382080	-0.795654	-15.154658	-35.922585	-57.415909
57977		3.395621	-1.399045	-0.139452	1.352424	-0.585306	0.185065	-0.425537	0.371826	-0.802490	-14.518435	-36.222195	-57.181534
57978		3.546810	-0.781852	0.064498	1.340524	-0.911180	0.040616	-0.436523	0.358643	-0.813477	-13.859220	-36.723126	-56.995558
57979		5.224391	-0.435821	0.588242	1.290776	-1.072291	-0.102198	-0.451416	0.351807	-0.814453	-13.186735	-37.337115	-56.885426
57980		6.039662	0.065688	1.023472	1.211152	-1.120114	-0.197791	-0.462402	0.336426	-0.824463	-12.515222	-37.988493	-56.845929
57981		5.750303	0.423650	1.268400	1.083539	-1.138195	-0.219761	-0.477051	0.334229	-0.826660	-11.907799	-38.656048	-56.825450
57982		5.314407	0.790565	1.546881	0.912691	-1.209039	-0.219685	-0.485352	0.312500	-0.820801	-11.395822	-39.360373	-56.805333
57983		5.016788	1.188621	1.699793	0.703067	-1.327706	-0.212230	-0.506104	0.318359	-0.829102	-11.018210	-40.134276	-56.766748
57984		4.901102	1.320312	1.836278	0.469573	-1.481062	-0.206241	-0.525879	0.302490	-0.835205	-10.784649	-40.990336	-56.709560
57985		5.158914	1.341838	2.073459	0.239527	-1.632563	-0.232771	-0.545410	0.305908	-0.832764	-10.686736	-41.938654	-56.650644
57986		5.753134	1.318883	2.350506	0.014884	-1.763235	-0.265120	-0.564697	0.304443	-0.841064	-10.710612	-42.959989	-56.600119
57987		6.342705	1.150834	2.661307	-0.200948	-1.840206	-0.278100	-0.578613	0.309570	-0.841797	-10.865289	-44.030391	-56.542781
57988		6.701632	0.904759	2.916695	-0.385060	-1.902312	-0.279499	-0.608643	0.309082	-0.846680	-11.133254	-45.131308	-56.472926
57989		7.075969	0.694449	3.144156	-0.541912	-1.941074	-0.290294	-0.630615	0.317383	-0.843506	-11.500763	-46.259745	-56.393077
57990		7.158820	0.453027	3.401879	-0.671514	-1.976901	-0.320772	-0.655029	0.317139	-0.841309	-11.936170	-47.406599	-56.321314
57991		7.373455	0.199605	3.573789	-0.775347	-2.015824	-0.354736	-0.670166	0.326660	-0.834473	-12.430740	-48.584110	-56.253193
57992		7.808072	-0.007573	3.750981	-0.852826	-2.034684	-0.385076	-0.701660	0.335938	-0.835693	-12.964015	-49.770351	-56.191981
57993		8.124960	-0.242179	3.925787	-0.896624	-2.040747	-0.413171	-0.708740	0.333984	-0.841309	-13.523048	-50.968723	-56.132614
57994		8.481453	-0.424924	4.126584	-0.916898	-2.023508	-0.421511	-0.743896	0.340332	-0.839111	-14.098697	-52.152728	-56.066247
57995		8.700380	-0.603649	4.363325	-0.914618	-2.004152	-0.419124	-0.770264	0.348389	-0.821777	-14.692256	-53.330933	-55.978249
57996		8.781751	-0.817738	4.476597	-0.896075	-1.977680	-0.407045	-0.781982	0.366211	-0.819824	-15.295778	-54.486326	-55.864662
57997		8.752544	-1.039369	4.591216	-0.861393	-1.965148	-0.405175	-0.797607	0.369629	-0.819580	-15.902619	-55.639696	-55.725733
57998		8.855017	-1.149787	4.659802	-0.818354	-1.961967	-0.419698	-0.834717	0.369873	-0.804443	-16.491904	-56.786807	-55.578846
57999		8.971586	-1.234084	4.702309	-0.777654	-1.957500	-0.435359	-0.849121	0.379639	-0.801025	-17.070170	-57.939206	-55.420489
58000		9.156534	-1.354713	4.743156	-0.741682	-1.951556	-0.454965	-0.870361	0.385254	-0.797363	-17.630065	-59.084774	-55.260277
58001		9.337563	-1.598889	4.713359	-0.702596	-1.938281	-0.473074	-0.882813	0.393311	-0.787598	-18.175271	-60.231498	-55.094175
58002		9.350273	-1.769771	4.845175	-0.663660	-1.933120	-0.502751	-0.903076	0.391602	-0.776855	-18.689829	-61.373917	-54.938394
58003		9.506961	-1.826610	4.974533	-0.642734	-1.928414	-0.542473	-0.924316	0.400146	-0.778564	-19.179439	-62.526485	-54.800047
58004		9.319216	-1.868927	5.047369	-0.634524	-1.960113	-0.559427	-0.947754	0.401855	-0.760986	-19.680111	-63.692796	-54.644423
58005		9.106945	-1.899031	5.164113	-0.660157	-2.012996	-0.582769	-0.958740	0.415771	-0.762939	-20.224387	-64.897346	-54.459274
58006		9.231839	-1.949003	5.310443	-0.697415	-2.078365	-0.608189	-0.982178	0.417480	-0.741211	-20.820378	-66.135351	-54.241629
58007		9.790957	-2.024616	5.518330	-0.746682	-2.099511	-0.628132	-0.999756	0.428467	-0.737305	-21.478004	-67.393342	-53.990609
58008		10.353860	-2.131394	5.692584	-0.795939	-2.061347	-0.628570	-1.010498	0.441406	-0.724121	-22.190017	-68.624251	-53.712752
58009		10.610177	-2.358920	5.823615	-0.828535	-1.969581	-0.633333	-1.029297	0.436279	-0.717773	-22.923358	-69.811529	-53.435138
58010		10.724251	-2.604186	5.906143	-0.842221	-1.868071	-0.586928	-1.048340	0.447754	-0.702393	-23.724080	-70.928182	-53.095569
58011		10.704396	-2.795097	5.991090	-0.835051	-1.756859	-0.514708	-1.066406	0.454346	-0.687988	-24.630822	-71.972790	-52.642756
58012		10.616900	-3.058827	5.952452	-0.802121	-1.652470	-0.446927	-1.077148	0.461670	-0.681885	-25.624382	-72.939404	-52.080978
58013		10.604685	-3.191123	5.848444	-0.755747	-1.548989	-0.377311	-1.094971	0.460938	-0.683594	-26.721349	-73.836267	-51.386999
58014		10.432234	-3.315113	5.699433	-0.680738	-1.449408	-0.287304	-1.106934	0.471924	-0.672363	-27.939761	-74.650321	-50.524542
58015		10.271038	-3.382434	5.591143	-0.594679	-1.362649	-0.204061	-1.112305	0.479248	-0.664551	-29.297925	-75.396095	-49.470177
58016		10.093333	-3.294571	5.599609	-0.494070	-1.284599	-0.138588	-1.109863	0.493652	-0.656738	-30.754382	-76.073856	-48.257745
58017		9.940898	-2.986328	5.632091	-0.392926	-1.204154	-0.121653	-1.137695	0.498047	-0.653809	-32.226750	-76.702356	-46.973258
58018		9.852418	-2.719072	5.640805	-0.306836	-1.108581	-0.147256	-1.132080	0.496826	-0.638428	-33.584654	-77.282276	-45.758302
58019		9.761048	-2.546194	5.522879	-0.238231	-1.023485	-0.185500	-1.141113	0.493652	-0.629395	-34.821653	-77.830100	-44.630039
58020		9.455115	-2.506581	5.312610	-0.179749	-0.953634	-0.221145	-1.146729	0.505371	-0.631104	-35.929432	-78.349806	-43.601418
58021		9.063466	-2.422204	5.128366	-0.135243	-0.919445	-0.202392	-1.155029	0.504150	-0.624023	-37.104314	-78.844636	-42.480556
58022		8.999432	-2.418927	4.962505	-0.107160	-0.901232	-0.169353	-1.164307	0.510986	-0.606934	-38.401322	-79.313190	-41.220437
58023		9.236127	-2.458569	4.834621	-0.080026	-0.856830	-0.136435	-1.168945	0.514404	-0.614502	-39.799456	-79.745303	-39.843799
58024		28.031226	-4.466695	10.628310	0.112123	0.282378	-0.865703	-1.164307	0.511475	-0.613281	-37.000508	-79.927512	-42.620356
58025		10.914248	-2.302571	7.536694	0.278162	0.968339	-0.888104	-1.161133	0.510498	-0.620361	-32.741033	-79.764263	-46.784058
58026		8.191264	-3.444302	9.012443	0.414514	1.597352	-1.385716	-1.159424	0.501465	-0.629639	-26.296156	-79.359165	-53.093908
58027		14.500488	1.882721	13.200277	0.503505	2.056086	-0.942168	-1.140625	0.495361	-0.643799	-21.062280	-78.496487	-58.131175
58028		12.678652	1.737548	16.992871	0.101651	2.198483	0.172105	-1.116455	0.487549	-0.652100	-19.399245	-77.280936	-59.770663
58029		-15.040067	-1.917861	18.523378	0.015906	1.684664	0.451918	-1.108398	0.488770	-0.658936	-19.072533	-76.282911	-60.095084
58030		14.735008	-0.460123	2.482956	-0.028875	-0.143166	-0.165805	-1.107178	0.497314	-0.654053	-18.823483	-76.391920	-60.366663
58031		11.979303	-0.661675	2.077387	0.020993	-0.161112	-0.059450	-1.107422	0.489990	-0.664551	-18.795337	-76.487441	-60.381325
58032		10.492839	-0.512403	2.062793	-0.001453	-0.043785	-0.011484	-1.106201	0.494873	-0.652588	-18.798307	-76.513885	-60.377379
58033		10.381184	-0.749270	1.765900	0.032727	0.160376	0.034382	-1.108398	0.485107	-0.652588	-18.728345	-76.417818	-60.428136
58034		9.131053	-0.750298	2.481441	0.043737	0.176179	0.053784	-1.102295	0.489502	-0.656982	-18.684600	-76.312897	-60.445615
58035		9.034137	-0.790656	2.458545	0.017972	0.100377	0.035697	-1.103516	0.489014	-0.661621	-18.672398	-76.249189	-60.445659
58036		9.549220	-0.852579	2.248092	0.011131	0.087622	0.025249	-1.113770	0.492188	-0.654541	-18.650893	-76.197568	-60.459486
58037		9.309743	-0.820488	2.338434	0.017813	0.072348	0.023298	-1.102051	0.497803	-0.663818	-18.632471	-76.151351	-60.466028
58038		9.247178	-0.820285	2.384547	0.013518	0.046263	0.011541	-1.106445	0.492188	-0.667969	-18.610331	-76.124692	-60.479105
58039		9.383326	-0.805984	2.299864	0.007522	0.030282	0.004926	-1.098145	0.491211	-0.659912	-18.588726	-76.104679	-60.495002
58040		9.488519	-0.796168	2.300228	0.010075	0.030564	0.002203	-1.106445	0.486328	-0.663574	-18.559775	-76.088248	-60.517129
58041		9.400074	-0.816038	2.318433	0.013119	0.023662	0.003537	-1.102783	0.487793	-0.668701	-18.536915	-76.072102	-60.531018
58042		9.439124	-0.821574	2.307031	0.015917	0.022502	0.000082	-1.097412	0.491455	-0.666504	-18.505996	-76.060432	-60.551727
58043		9.444157	-0.762432	2.300528	0.014539	0.018956	0.002758	-1.100586	0.485352	-0.660400	-18.484174	-76.047000	-60.563710
58044		9.482081	-0.737390	2.359595	0.014537	0.018955	0.002757	-1.102051	0.497559	-0.667236	-18.462562	-76.036768	-60.575646
58045		9.434611	-0.793777	2.292549	0.013923	0.020410	0.007349	-1.099609	0.493896	-0.655762	-18.450100	-76.021732	-60.578348
58046		9.445756	-0.790342	2.326883	0.014290	0.020394	0.003487	-1.105713	0.489990	-0.661865	-18.429221	-76.010583	-60.589675
58047		9.402572	-0.757101	2.322126	0.013232	0.020785	0.005923	-1.100342	0.491455	-0.666504	-18.413828	-75.995622	-60.595807
58048		9.453316	-0.759565	2.342754	0.010919	0.019059	0.007909	-1.107910	0.482910	-0.656494	-18.405528	-75.984398	-60.596162
58049		9.381371	-0.792912	2.281600	0.009097	0.014450	0.008432	-1.101074	0.486816	-0.662354	-18.402570	-75.972447	-60.591917
58050		9.425783	-0.781872	2.320948	0.003347	0.014609	0.003302	-1.095215	0.481689	-0.660645	-18.391816	-75.964475	-60.599274
58051		9.422362	-0.754433	2.301981	0.008533	0.016252	0.003880	-1.110840	0.496826	-0.660645	-18.378006	-75.952390	-60.606550
58052		9.474122	-0.829156	2.311612	0.010965	0.015106	0.004289	-1.107666	0.493408	-0.666016	-18.364698	-75.943969	-60.612040
58053		9.431077	-0.795694	2.306384	0.011901	0.017581	-0.000545	-1.101807	0.487061	-0.667725	-18.338445	-75.931980	-60.630154
58054		9.432776	-0.750592	2.339258	0.016274	0.018174	0.001738	-1.098145	0.488281	-0.662842	-18.314389	-75.922349	-60.643590
58055		9.447424	-0.732806	2.333553	0.012461	0.015777	0.004005	-1.102783	0.487549	-0.663330	-18.299041	-75.910541	-60.650132
58056		9.450027	-0.760778	2.355591	0.006656	0.015592	0.008016	-1.098145	0.492920	-0.661377	-18.295988	-75.901183	-60.647595
58057		9.425952	-0.810191	2.352703	0.007028	0.015575	0.004156	-1.101807	0.492432	-0.665039	-18.284230	-75.889478	-60.653645
58058		9.401041	-0.787110	2.360131	0.006580	0.010216	0.007529	-1.100830	0.493164	-0.669922	-18.284015	-75.883133	-60.648227
58059		9.462000	-0.788921	2.320791	0.004573	0.007394	-0.000358	-1.099365	0.494629	-0.666016	-18.269773	-75.876706	-60.658289
58060		9.433739	-0.779676	2.367479	0.006826	0.008773	0.006798	-1.102539	0.484619	-0.660156	-18.268868	-75.871278	-60.653437
58061		9.443504	-0.779507	2.309257	0.004446	0.005968	0.002770	-1.102783	0.496094	-0.659912	-18.262496	-75.865083	-60.655459
58062		9.451894	-0.748447	2.321824	0.010070	0.008676	0.005504	-1.091309	0.487549	-0.655029	-18.257007	-75.859940	-60.653417
58063		9.472709	-0.786182	2.356349	0.004766	0.009901	0.002525	-1.107178	0.482910	-0.661377	-18.247127	-75.851673	-60.658866
58064		9.429814	-0.752919	2.350428	0.008451	0.010869	0.003386	-1.097900	0.489502	-0.665283	-18.236438	-75.845716	-60.663144
58065		9.442547	-0.780330	2.312892	0.007070	0.007330	0.006066	-1.099854	0.494873	-0.661865	-18.234715	-75.838233	-60.658819
58066		9.399142	-0.788843	2.367105	0.003833	0.011719	0.001830	-1.099854	0.484375	-0.666748	-18.222723	-75.832093	-60.667169
58067		9.414007	-0.771095	2.360582	0.007004	0.006246	0.000053	-1.104004	0.488525	-0.656494	-18.208860	-75.826296	-60.675405
58068		9.410840	-0.743514	2.340816	0.007882	0.008378	0.004360	-1.100342	0.482910	-0.661865	-18.202385	-75.821520	-60.675673
58069		9.420111	-0.784807	2.342882	0.005258	0.007015	0.001064	-1.104004	0.483643	-0.665039	-18.191159	-75.815141	-60.682220
58070		9.441562	-0.780644	2.316805	0.006437	0.003755	0.001029	-1.100098	0.487793	-0.662842	-18.181614	-75.813478	-60.686508
58071		9.434942	-0.767016	2.336532	0.007689	0.005869	0.001477	-1.106689	0.486084	-0.663574	-18.170716	-75.807670	-60.691282
58072		9.423184	-0.770680	2.305014	0.004079	0.010275	0.001098	-1.092529	0.484131	-0.670654	-18.158072	-75.802444	-60.700160
58073		9.431005	-0.781165	2.377860	0.005129	0.005591	0.004193	-1.103027	0.484375	-0.665039	-18.154695	-75.796325	-60.698688
58074		9.434365	-0.767308	2.338765	0.001326	0.007489	0.000930	-1.100586	0.484863	-0.666016	-18.145245	-75.792645	-60.705899
58075		9.430636	-0.781414	2.379241	0.003511	0.007785	0.002073	-1.101563	0.494385	-0.656006	-18.136700	-75.785728	-60.710715
58076		9.422401	-0.771325	2.307996	0.000018	0.009325	0.004094	-1.099854	0.493408	-0.668457	-18.133515	-75.780484	-60.712237
58077		9.466823	-0.759990	2.347094	0.004645	0.012764	0.000121	-1.098389	0.492188	-0.663330	-18.116640	-75.771222	-60.724975
58078		9.421244	-0.813027	2.370518	0.003146	0.012092	0.000401	-1.101318	0.488281	-0.664795	-18.101803	-75.765129	-60.736669
58079		9.444610	-0.763947	2.376203	0.003713	0.014581	-0.000576	-1.100830	0.483398	-0.661621	-18.082738	-75.755017	-60.752220
58080		9.408213	-0.743924	2.351223	0.004206	0.011697	-0.002034	-1.101074	0.486084	-0.657227	-18.062375	-75.749570	-60.768990
58081		9.480104	-0.783288	2.404979	0.001527	0.014285	-0.001720	-1.103760	0.486572	-0.660889	-18.042350	-75.739839	-60.786823
58082		9.438635	-0.780607	2.328713	0.002531	0.017840	-0.000544	-1.102295	0.491699	-0.677979	-18.021890	-75.730777	-60.804684
58083		9.446767	-0.749182	2.342365	0.005282	0.020625	-0.000377	-1.095215	0.492188	-0.661865	-17.998236	-75.717368	-60.824045
58084		9.452788	-0.762750	2.325210	0.001787	0.022164	0.001640	-1.106689	0.489014	-0.669434	-17.979928	-75.705560	-60.840128
58085		9.451581	-0.804292	2.387696	0.003416	0.024258	-0.001771	-1.102539	0.487061	-0.664307	-17.951919	-75.690437	-60.865089
58086		9.420539	-0.725365	2.355199	0.005917	0.028483	-0.000877	-1.099609	0.483643	-0.671631	-17.921574	-75.675625	-60.891154
58087		9.443693	-0.790263	2.412354	0.002303	0.032887	-0.001264	-1.094482	0.487061	-0.666260	-17.889454	-75.655719	-60.921019
58088		9.446544	-0.776083	2.375743	0.002301	0.032885	-0.001266	-1.097900	0.486084	-0.667480	-17.857457	-75.638568	-60.950932
58089		9.493956	-0.750269	2.377561	0.004931	0.038530	-0.003502	-1.094971	0.483643	-0.676270	-17.815382	-75.615983	-60.989527
58090		9.426849	-0.765543	2.369452	0.001363	0.034697	-0.001968	-1.100586	0.484619	-0.666260	-17.781363	-75.597957	-61.022087
58091		9.450542	-0.788637	2.367111	-0.001553	0.043008	-0.006469	-1.102295	0.491211	-0.669678	-17.733894	-75.573454	-61.070095
58092		9.424974	-0.764512	2.377230	0.001441	0.044347	-0.007030	-1.102051	0.478027	-0.671631	-17.682779	-75.551031	-61.120269
58093		9.499622	-0.789300	2.394753	-0.005975	0.050641	-0.010698	-1.090576	0.482910	-0.669678	-17.624094	-75.523093	-61.182488
58094		9.449243	-0.741591	2.411635	-0.002119	0.054110	-0.006954	-1.091797	0.488281	-0.658447	-17.568993	-75.495300	-61.238898
58095		9.414869	-0.749018	2.410810	-0.004009	0.053453	-0.002822	-1.097412	0.486084	-0.667969	-17.524371	-75.464455	-61.285443
58096		9.428733	-0.731409	2.408390	-0.002787	0.051276	0.003158	-1.099365	0.483643	-0.674316	-17.493217	-75.436446	-61.317524
58097		9.436968	-0.773311	2.414393	0.000048	0.046909	0.011266	-1.094238	0.494873	-0.670166	-17.480507	-75.406757	-61.328707
58098		9.382841	-0.816957	2.368605	-0.001749	0.046590	0.006254	-1.092529	0.482422	-0.662109	-17.458544	-75.380771	-61.350683
58099		9.483767	-0.821511	2.411607	-0.004162	0.052012	0.000288	-1.095215	0.486084	-0.667480	-17.422068	-75.350194	-61.388926
58100		9.415313	-0.764481	2.415220	-0.006324	0.055993	-0.006405	-1.083984	0.484863	-0.668701	-17.370336	-75.321228	-61.444389
58101		9.527592	-0.839573	2.389988	-0.007390	0.063859	-0.021069	-1.102295	0.480469	-0.674561	-17.283870	-75.287816	-61.536236
58102		9.552522	-0.815731	2.421845	-0.004041	0.077678	-0.032960	-1.093994	0.493652	-0.670166	-17.162146	-75.251445	-61.662733
58103		9.504229	-0.792888	2.462321	-0.002959	0.095137	-0.042406	-1.097656	0.484619	-0.673096	-17.009917	-75.204418	-61.820004
58104		9.384011	-0.730036	2.450213	0.001204	0.093206	-0.042996	-1.089600	0.475342	-0.678955	-16.856045	-75.161048	-61.976698
58105		9.390961	-0.691644	2.561605	-0.000139	0.081437	-0.038394	-1.101807	0.487061	-0.666748	-16.720901	-75.120682	-62.114688
58106		9.428642	-0.697382	2.464831	0.002416	0.078509	-0.029555	-1.089355	0.489258	-0.674805	-16.604773	-75.082983	-62.231664
58107		9.421400	-0.753503	2.480547	0.003967	0.070950	-0.027900	-1.092041	0.488281	-0.669434	-16.496610	-75.046530	-62.339344
58108		9.499518	-0.762090	2.461540	0.002082	0.074562	-0.029325	-1.093994	0.488770	-0.669434	-16.384667	-75.010846	-62.452227
58109		9.522640	-0.782109	2.463018	0.004511	0.076598	-0.040461	-1.093506	0.478271	-0.670898	-16.248136	-74.973216	-62.588994
58110		9.523638	-0.805144	2.491741	0.006650	0.093640	-0.052355	-1.091553	0.491943	-0.671875	-16.076344	-74.930565	-62.761181
58111		9.521722	-0.799349	2.500915	0.007458	0.097845	-0.065644	-1.092529	0.477539	-0.669678	-15.875901	-74.885013	-62.962455
58112		9.673734	-0.756108	2.509879	0.011853	0.111226	-0.079998	-1.085938	0.477295	-0.675049	-15.636844	-74.836650	-63.201311
58113		9.554448	-0.644012	2.530033	0.012116	0.117195	-0.097877	-1.080322	0.479492	-0.674316	-15.360004	-74.784936	-63.479081
58114		9.609786	-0.649458	2.542602	0.005748	0.128363	-0.103630	-1.087646	0.481934	-0.675781	-15.070364	-74.730064	-63.774107
58115		9.624976	-0.648654	2.568788	0.007351	0.134659	-0.112647	-1.086426	0.480469	-0.674805	-14.760892	-74.670146	-64.088690
58116		9.664815	-0.670045	2.590551	0.010336	0.149819	-0.123904	-1.080322	0.485352	-0.669922	-14.420953	-74.605462	-64.433322
58117		10.071795	-0.705722	2.604033	0.006848	0.157057	-0.101063	-1.084717	0.481934	-0.680908	-14.128770	-74.530569	-64.730476
58118		11.413230	-0.591871	2.646004	0.001593	0.219765	-0.037024	-1.086426	0.477051	-0.679688	-13.938673	-74.414049	-64.925063
58119		10.125736	-0.724425	2.631628	-0.007037	0.303310	-0.020125	-1.084717	0.480469	-0.679688	-13.750051	-74.246165	-65.123272
58120		9.869503	-0.564071	2.705708	-0.007751	0.322470	0.002962	-1.083496	0.472900	-0.686768	-13.601223	-74.066727	-65.280826
58121		9.784992	-0.541299	2.722397	-0.015214	0.329679	0.030745	-1.073975	0.481934	-0.687988	-13.511015	-73.877090	-65.381874
58122		10.218539	-0.584837	2.766677	-0.015881	0.344193	0.064645	-1.075439	0.480713	-0.682861	-13.480645	-73.677169	-65.421209
58123		10.872364	-0.651422	2.823361	-0.018647	0.385335	0.090352	-1.065918	0.486084	-0.689453	-13.483115	-73.448559	-65.427893
58124		11.688338	-0.657675	2.815789	-0.023063	0.460158	0.121682	-1.064941	0.481201	-0.685059	-13.512219	-73.176402	-65.409530
58125		12.536576	-0.964400	2.833411	-0.019114	0.593028	0.135817	-1.060547	0.479492	-0.692383	-13.506727	-72.826083	-65.424842
58126		12.537167	-1.359383	2.756178	-0.006933	0.763406	0.111063	-1.052490	0.486816	-0.694336	-13.378834	-72.386358	-65.561244
58127		11.910217	-1.148934	2.862055	0.013891	0.914824	0.076530	-1.047119	0.482666	-0.696045	-13.126675	-71.864476	-65.815960
58128		11.631980	-0.507089	2.971405	0.023997	1.016514	0.101169	-1.033691	0.484131	-0.704834	-12.884364	-71.284427	-66.055078
58129		11.486518	-0.012794	3.119789	0.014310	1.091544	0.201225	-1.024414	0.485840	-0.711914	-12.795424	-70.647522	-66.138629
58130		11.571081	-0.022494	3.127293	-0.010907	1.164433	0.326618	-1.015869	0.488770	-0.711914	-12.892590	-69.955918	-66.040257
58131		11.637071	-0.340088	3.129389	-0.020427	1.252065	0.420975	-1.006592	0.487061	-0.718506	-13.098411	-69.201302	-65.831243
58132		11.801647	-0.878334	3.091717	-0.016195	1.363495	0.459815	-0.991699	0.496338	-0.719727	-13.304662	-68.381034	-65.618142
58133		11.861518	-1.296453	3.063280	0.002829	1.494381	0.445011	-0.974854	0.496582	-0.737305	-13.423073	-67.487880	-65.486729
58134		12.134861	-1.663496	3.095594	0.040935	1.642653	0.398223	-0.958496	0.502197	-0.738037	-13.404107	-66.519938	-65.480006
58135		12.398634	-1.634332	3.187878	0.084347	1.808587	0.327369	-0.935303	0.500488	-0.742676	-13.226423	-65.467375	-65.619727
58136		12.281284	-1.634428	3.235004	0.121017	1.983600	0.273465	-0.922363	0.502686	-0.751465	-12.930111	-64.325356	-65.868486
58137		12.592737	-1.679389	3.247858	0.158190	2.162016	0.244245	-0.898926	0.493408	-0.744873	-12.559734	-63.085538	-66.178649
58138		12.923486	-1.825578	3.395990	0.192495	2.354595	0.231727	-0.888672	0.496582	-0.771240	-12.141779	-61.739738	-66.523833
58139		12.910947	-1.746438	3.576327	0.234656	2.563068	0.242068	-0.855225	0.493896	-0.763916	-11.702262	-60.273841	-66.870788
58140		12.828863	-1.424585	4.038654	0.253664	2.746506	0.282750	-0.830566	0.500000	-0.771484	-11.290700	-58.699938	-67.177793
58141		12.317686	-1.224615	4.475873	0.251127	2.881461	0.344537	-0.796631	0.503174	-0.782959	-10.946097	-57.041883	-67.413032
58142		11.463723	-1.304516	5.122047	0.225659	2.933242	0.482305	-0.777588	0.494873	-0.780029	-10.746619	-55.339721	-67.495435
58143		10.201659	-2.088632	5.862819	0.201992	2.846669	0.803784	-0.745605	0.498535	-0.789307	-10.834953	-53.651594	-67.243046
58144		9.860444	-2.223519	6.176778	0.188841	2.631418	1.183303	-0.713867	0.502686	-0.796143	-11.221360	-52.042473	-66.620405
58145		9.447966	-3.428523	5.167913	0.177649	2.423043	1.571302	-0.685547	0.505615	-0.795898	-11.871275	-50.502404	-65.655252
58146		9.066289	-4.359041	5.406383	0.262823	2.275696	1.977927	-0.652588	0.490723	-0.794434	-12.698031	-48.987640	-64.372520
58147		7.929333	-4.268492	4.950760	0.398104	2.064609	2.274758	-0.625000	0.502197	-0.793701	-13.590010	-47.539747	-62.870208
58148		8.908615	-3.899292	4.449481	0.547296	1.913551	2.445140	-0.601563	0.489014	-0.798340	-14.440058	-46.137100	-61.272752
58149		11.153719	-3.722660	4.505913	0.722738	1.986297	2.429674	-0.572266	0.493652	-0.796143	-15.096622	-44.682361	-59.768321
58150		10.140680	-2.812068	4.090605	0.859387	2.178734	2.295359	-0.538574	0.479492	-0.808594	-15.505581	-43.131671	-58.466227
58151		4.662048	-2.133581	3.688262	0.937936	2.095713	2.070857	-0.514893	0.474365	-0.809814	-15.716212	-41.657011	-57.356041
58152		0.096719	0.088565	1.542585	0.967469	1.695397	1.701653	-0.503174	0.458740	-0.799561	-15.747384	-40.458155	-56.462066
58153		-6.641021	3.522171	-2.566298	0.842283	0.932608	1.275629	-0.486816	0.454590	-0.802490	-15.734927	-39.746632	-55.731529
58154		-5.314867	4.628037	-2.733356	0.537440	-0.158613	0.772459	-0.484619	0.449219	-0.797119	-15.799022	-39.714352	-55.146833
58155		2.624634	2.744215	-0.255240	0.224042	-0.648500	0.082142	-0.488525	0.445313	-0.814941	-15.792292	-40.059839	-54.956003
58156		4.439474	1.714608	-0.463190	-0.019928	-0.969924	-0.482067	-0.495361	0.452393	-0.812744	-15.703432	-40.670192	-55.108210
58157		5.100950	1.033522	-1.485233	-0.206852	-1.200634	-0.710251	-0.512207	0.450195	-0.813965	-15.641429	-41.443647	-55.381657
58158		4.881193	-0.412308	-1.696782	-0.314203	-1.373280	-0.760292	-0.531738	0.460693	-0.809570	-15.632917	-42.319297	-55.661522
58159		6.499262	-1.620100	-1.613462	-0.312600	-1.441277	-0.693718	-0.541748	0.472412	-0.814453	-15.662896	-43.223488	-55.879801
58160		7.222053	-2.245365	-1.374731	-0.245799	-1.417819	-0.540529	-0.551270	0.462158	-0.818848	-15.726299	-44.089851	-55.989501
58161		6.634100	-2.227063	-1.379679	-0.156962	-1.412257	-0.365759	-0.573975	0.473389	-0.820068	-15.833561	-44.928012	-55.963782
58162		5.875218	-1.844286	-1.286707	-0.072121	-1.482396	-0.252186	-0.585205	0.479492	-0.818115	-15.967117	-45.784977	-55.831766
58163		5.938507	-1.547759	-1.176939	-0.007045	-1.603248	-0.251901	-0.603516	0.474854	-0.822754	-16.090890	-46.710815	-55.665306
58164		6.126747	-1.284477	-0.880560	0.056528	-1.720450	-0.359937	-0.611084	0.475342	-0.827148	-16.137303	-47.715600	-55.555617
58165		6.177648	-1.271825	-0.611174	0.110129	-1.851046	-0.502491	-0.639893	0.477539	-0.829834	-16.094173	-48.818059	-55.528338
58166		6.725343	-1.226440	-0.082280	0.154901	-1.989036	-0.608087	-0.661133	0.471191	-0.834717	-15.979225	-50.010120	-55.560589
58167		7.626147	-1.089776	0.360666	0.172265	-2.093859	-0.641806	-0.679443	0.476563	-0.828369	-15.850738	-51.268810	-55.598686
58168		8.087400	-0.929860	0.784249	0.168192	-2.161281	-0.611968	-0.704346	0.483887	-0.835449	-15.751196	-52.556341	-55.600557
58169		8.564757	-0.641810	1.157543	0.137474	-2.213454	-0.561835	-0.721436	0.476318	-0.836914	-15.718502	-53.868972	-55.542643
58170		9.041585	-0.407952	1.517953	0.075177	-2.228362	-0.513149	-0.745117	0.478027	-0.833252	-15.761284	-55.178135	-55.435134
58171		9.400794	-0.330173	1.823760	-0.003475	-2.231075	-0.488867	-0.757080	0.480713	-0.831055	-15.880326	-56.489487	-55.293271
58172		9.782200	-0.235204	2.057138	-0.098512	-2.224048	-0.464005	-0.787109	0.478516	-0.834961	-16.081040	-57.788249	-55.119509
58173		9.989749	-0.181869	2.281979	-0.203616	-2.216549	-0.445775	-0.807617	0.488525	-0.827393	-16.377004	-59.084521	-54.908648
58174		10.190978	-0.183618	2.387184	-0.323859	-2.221207	-0.442132	-0.828369	0.500732	-0.831055	-16.765137	-60.377108	-54.672153
58175		10.452365	-0.341466	2.560727	-0.444649	-2.223741	-0.456958	-0.859619	0.506348	-0.835938	-17.241452	-61.677942	-54.418442
58176		10.758158	-0.609750	2.738093	-0.556148	-2.223609	-0.482382	-0.870361	0.509277	-0.823730	-17.785106	-62.976646	-54.162489
58177		11.103499	-0.986290	3.094557	-0.653450	-2.206501	-0.515075	-0.902832	0.519775	-0.826904	-18.386256	-64.276165	-53.908888
58178		11.532249	-1.245400	3.418363	-0.737671	-2.168879	-0.555348	-0.926758	0.528809	-0.825684	-19.012488	-65.555830	-53.682269
58179		11.779460	-1.523542	3.861842	-0.821750	-2.116429	-0.587661	-0.947754	0.538818	-0.815430	-19.674902	-66.817833	-53.472309
58180		11.893917	-1.719812	4.355525	-0.890919	-2.055037	-0.616455	-0.983154	0.549072	-0.809570	-20.352555	-68.045650	-53.289443
58181		12.212627	-1.944588	5.076770	-0.973689	-1.976555	-0.635337	-0.997803	0.555420	-0.803955	-21.065542	-69.240018	-53.122301
58182		12.624441	-2.273136	5.825406	-1.056952	-1.859833	-0.632575	-1.025146	0.568359	-0.789063	-21.808594	-70.364980	-52.974049
58183		12.951280	-2.502880	6.656555	-1.137967	-1.710460	-0.590661	-1.038086	0.585938	-0.779541	-22.628059	-71.406361	-52.796135
58184		13.088328	-2.770992	7.486318	-1.210025	-1.530128	-0.504321	-1.057617	0.591064	-0.767090	-23.555258	-72.326785	-52.548241
58185		13.016060	-3.064917	8.272831	-1.269286	-1.332628	-0.372446	-1.085205	0.609131	-0.764893	-24.661508	-73.116637	-52.150546
58186		12.685327	-3.236729	8.801975	-1.291592	-1.127660	-0.214386	-1.087891	0.620605	-0.751709	-25.952151	-73.753921	-51.574335
58187		12.099879	-3.345501	9.050973	-1.294729	-0.935682	-0.069182	-1.103516	0.629150	-0.743164	-27.413132	-74.255835	-50.825327
58188		11.414265	-3.288016	9.015313	-1.245954	-0.758162	0.066412	-1.103516	0.633789	-0.734619	-28.979821	-74.621430	-49.938312
58189		10.839019	-3.191821	8.834611	-1.182377	-0.600632	0.180800	-1.118652	0.657227	-0.726563	-30.617128	-74.872896	-48.942414
58190		10.390780	-3.113303	8.372695	-1.092888	-0.467079	0.250766	-1.119873	0.671875	-0.725586	-32.213500	-75.027162	-47.936006
58191		9.999768	-3.021142	7.926516	-0.982839	-0.333489	0.253679	-1.121582	0.672119	-0.713867	-33.626420	-75.112092	-47.055414
58192		9.507297	-3.062193	7.340118	-0.857828	-0.213955	0.201213	-1.121582	0.698242	-0.704102	-34.732013	-75.149543	-46.418287
58193		9.018796	-3.130332	6.749198	-0.722757	-0.118686	0.115814	-1.126465	0.700195	-0.699707	-35.500848	-75.169845	-46.050112
58194		8.581285	-3.181077	6.278649	-0.592818	-0.070141	0.021502	-1.130127	0.697510	-0.703613	-35.962593	-75.196095	-45.922069
58195		8.109090	-3.076702	5.899427	-0.471947	-0.051871	-0.061533	-1.127930	0.710938	-0.700684	-36.193037	-75.243146	-45.962096
58196		7.638669	-3.030813	5.600672	-0.368598	-0.081174	-0.146465	-1.123535	0.711426	-0.698730	-36.246625	-75.331081	-46.123285
58197		7.227580	-3.003429	5.540615	-0.281182	-0.155181	-0.215948	-1.133301	0.716553	-0.694580	-36.227549	-75.477689	-46.308084
58198		6.998005	-3.058845	5.578492	-0.207492	-0.251354	-0.257888	-1.143066	0.714844	-0.693604	-36.209270	-75.682009	-46.447955
58199		7.120967	-3.148214	5.811557	-0.152600	-0.344270	-0.237031	-1.149902	0.721436	-0.703125	-36.325945	-75.922616	-46.416315
58200		7.432356	-3.118254	5.983724	-0.115726	-0.410517	-0.154842	-1.154785	0.710693	-0.695557	-36.663598	-76.165299	-46.134965
58201		7.779265	-2.987978	6.154569	-0.093733	-0.425564	-0.020556	-1.150391	0.723389	-0.683594	-37.279236	-76.367854	-45.554925
58202		8.205215	-2.702108	6.418950	-0.095915	-0.387399	0.133005	-1.155518	0.721924	-0.682861	-38.142048	-76.497687	-44.722132
58203		25.033869	-5.653421	8.628207	-0.025118	-0.099928	-0.229592	-1.151123	0.725342	-0.687256	-37.869816	-76.623901	-45.015153
58204		5.090911	0.196994	10.995273	0.144189	1.171484	-0.584111	-1.156006	0.723389	-0.692383	-35.010007	-76.283439	-47.870024
58205		-3.421516	-1.263848	6.568460	0.533170	0.794638	-1.906844	-1.159912	0.699951	-0.700195	-29.885814	-76.485005	-52.826084
58206		13.070075	5.115770	14.356170	0.540937	0.771978	-3.099864	-1.167236	0.680176	-0.710449	-22.004106	-76.865873	-60.604877
58207		6.313481	-0.325116	14.664921	-0.099785	0.539928	-0.120654	-1.156982	0.679932	-0.705566	-21.299844	-76.602328	-61.385270
58208		12.382815	-0.851584	7.895656	0.015727	0.157549	-0.090303	-1.166992	0.676514	-0.712402	-20.946978	-76.537382	-61.737045
58209		9.419543	-0.712279	2.134426	0.008172	-0.073388	-0.091613	-1.159668	0.687500	-0.712158	-20.793252	-76.592869	-61.888228
58210		10.094828	-0.565515	2.311532	-0.017759	-0.156431	-0.104868	-1.167236	0.680420	-0.712891	-20.694915	-76.698574	-61.998010
58211		10.581788	-0.613193	1.867725	-0.001874	-0.032650	-0.047255	-1.166504	0.682373	-0.708008	-20.610124	-76.723153	-62.084185
58212		10.322714	-0.730598	1.862863	0.029647	0.120626	0.016729	-1.167969	0.681641	-0.711182	-20.522881	-76.655680	-62.154635
58213		9.564060	-0.753023	2.211112	0.038818	0.155002	0.050587	-1.161133	0.680908	-0.715576	-20.477553	-76.559950	-62.176322
58214		9.417229	-0.721254	2.275341	0.033629	0.122289	0.063171	-1.154785	0.679199	-0.720215	-20.491922	-76.482249	-62.139986
58215		9.791433	-0.762480	2.132403	0.030092	0.114070	0.085074	-1.156738	0.678467	-0.713379	-20.562466	-76.401574	-62.047634
58216		9.493477	-0.958364	2.223637	0.027018	0.126933	0.075434	-1.156738	0.673828	-0.718994	-20.602894	-76.318897	-61.988354
58217		9.132742	-0.849914	2.377512	0.017846	0.110672	0.035217	-1.158691	0.679688	-0.709961	-20.572294	-76.250093	-62.007276
58218		9.239344	-0.779624	2.288520	0.010802	0.082962	0.028306	-1.159912	0.685791	-0.711914	-20.554511	-76.200494	-62.017465
58219		9.281388	-0.887105	2.284743	0.010329	0.068279	0.027058	-1.153320	0.678467	-0.718018	-20.545391	-76.156072	-62.018708
58220		9.204028	-0.862488	2.279318	0.008983	0.043050	0.007872	-1.153320	0.677734	-0.721924	-20.516889	-76.131993	-62.041012
58221		9.371981	-0.808558	2.275111	0.014625	0.040388	0.010092	-1.155273	0.680420	-0.714355	-20.491281	-76.105952	-62.056705
58222		9.369076	-0.851797	2.244767	0.012331	0.034733	0.008242	-1.147217	0.682617	-0.723877	-20.468560	-76.086259	-62.071082
58223		9.391565	-0.848822	2.312858	0.015226	0.029891	0.001037	-1.156982	0.676514	-0.717773	-20.431622	-76.067679	-62.098095
58224		9.445502	-0.835156	2.295529	0.015103	0.028361	0.004116	-1.150635	0.682129	-0.711914	-20.403644	-76.052228	-62.116256
58225		9.506769	-0.719866	2.307146	0.011116	0.024308	0.009337	-1.153320	0.674561	-0.720703	-20.391614	-76.034996	-62.120034
58226		9.393632	-0.719439	2.331373	0.008417	0.027094	0.024891	-1.149170	0.691895	-0.716797	-20.413377	-76.016074	-62.090886
58227		9.466910	-0.790807	2.310115	-0.003813	0.011637	0.031534	-1.153809	0.678223	-0.723633	-20.467802	-76.001223	-62.034991
58228		9.385174	-0.827672	2.304701	-0.006277	0.003819	0.041899	-1.154785	0.685303	-0.718750	-20.553112	-75.991364	-61.949023
58229		9.415859	-0.866643	2.277426	-0.002292	0.007865	0.036675	-1.152588	0.683838	-0.717041	-20.620492	-75.977482	-61.878869
58230		9.415362	-0.869825	2.278268	-0.004267	0.010629	0.029332	-1.161621	0.683594	-0.719482	-20.671930	-75.966461	-61.826618
58231		9.459582	-0.863204	2.318072	-0.001423	0.014088	0.020495	-1.155518	0.678711	-0.722168	-20.698888	-75.952504	-61.797608
58232		9.435927	-0.867911	2.254491	-0.000922	0.015730	0.013559	-1.147461	0.680908	-0.720703	-20.710371	-75.941932	-61.784563
58233		9.495217	-0.841867	2.288420	0.000152	0.015430	0.011124	-1.149658	0.683594	-0.721680	-20.715227	-75.929169	-61.777406
58234		9.443457	-0.839666	2.271664	0.000793	0.023316	0.010902	-1.147949	0.675537	-0.720947	-20.713888	-75.915069	-61.776566
58235		9.512174	-0.854655	2.304749	-0.002000	0.020497	0.010606	-1.152588	0.681152	-0.719971	-20.714764	-75.899715	-61.774783
58236		9.438850	-0.858339	2.314263	-0.003969	0.018794	0.008649	-1.155029	0.677490	-0.723145	-20.714993	-75.888495	-61.775138
58237		9.444898	-0.871322	2.295864	0.003570	0.016945	0.006788	-1.148193	0.677979	-0.719727	-20.707407	-75.875835	-61.778790
58238		9.447990	-0.855233	2.258645	0.000777	0.014127	0.006491	-1.154541	0.678955	-0.718262	-20.704086	-75.867553	-61.780003
58239		9.485776	-0.834485	2.318746	0.000332	0.013127	0.004296	-1.153076	0.676514	-0.721191	-20.696148	-75.857462	-61.785931
58240		9.443741	-0.872726	2.300089	-0.000045	0.017482	0.002764	-1.146729	0.680664	-0.720459	-20.682689	-75.848136	-61.798085
58241		9.476423	-0.865376	2.308108	0.003823	0.019999	0.000626	-1.152100	0.687744	-0.713623	-20.659471	-75.835120	-61.817709
58242		9.439860	-0.843760	2.285056	0.003630	0.017585	-0.002343	-1.147949	0.684814	-0.715088	-20.633025	-75.826769	-61.841088
58243		9.472559	-0.835979	2.293179	0.003950	0.021526	-0.002455	-1.151123	0.685059	-0.717773	-20.602057	-75.813569	-61.868634
58244		9.405787	-0.850498	2.282989	0.005094	0.026581	-0.004227	-1.151611	0.683350	-0.715576	-20.563686	-75.800765	-61.903450
58245		9.423287	-0.860939	2.297851	0.004138	0.023938	0.000511	-1.152832	0.681641	-0.719971	-20.537095	-75.785686	-61.926374
58246		9.422707	-0.860843	2.300264	0.004709	0.026464	-0.000376	-1.151855	0.685303	-0.715820	-20.507316	-75.772162	-61.952559
58247		9.448676	-0.840895	2.329073	0.008953	0.024625	-0.000980	-1.149414	0.682373	-0.720215	-20.474385	-75.757024	-61.979182
58248		9.403499	-0.849791	2.292657	0.008568	0.024510	0.002873	-1.148438	0.688232	-0.717529	-20.450912	-75.743892	-61.996582
58249		9.462587	-0.822623	2.327614	0.008819	0.023095	0.002098	-1.148926	0.683105	-0.721680	-20.425869	-75.728970	-62.015149
58250		9.450557	-0.824229	2.297367	0.007043	0.023807	0.003108	-1.148926	0.679199	-0.718506	-20.404395	-75.716165	-62.031390
58251		9.419763	-0.860729	2.312330	0.014836	0.029723	0.004885	-1.147949	0.684570	-0.718018	-20.376663	-75.697143	-62.049177
58252		9.452090	-0.853701	2.321681	0.014635	0.032021	0.011703	-1.148926	0.678711	-0.715576	-20.362593	-75.678209	-62.053290
58253		9.466316	-0.836050	2.318794	0.015591	0.034658	0.006960	-1.150635	0.683594	-0.717041	-20.335051	-75.656136	-62.070440
58254		9.432344	-0.843811	2.315868	0.015587	0.034655	0.006957	-1.145264	0.679443	-0.721191	-20.308495	-75.636730	-62.086878
58255		9.434369	-0.872726	2.338233	0.014646	0.040943	0.000912	-1.148682	0.683105	-0.720215	-20.264086	-75.612495	-62.122003
58256		9.494759	-0.871243	2.302722	0.016358	0.048516	-0.001755	-1.147461	0.677246	-0.728760	-20.208315	-75.587357	-62.168151
58257		9.478471	-0.888651	2.314089	0.016426	0.058325	-0.006499	-1.149170	0.681396	-0.724609	-20.134378	-75.555239	-62.232722
58258		9.470438	-0.874749	2.340410	0.020056	0.071166	-0.018657	-1.145508	0.686523	-0.721680	-20.024413	-75.521207	-62.332663
58259		9.493557	-0.895016	2.340188	0.014813	0.078387	-0.030173	-1.149658	0.683350	-0.717773	-19.887720	-75.482871	-62.463032
58260		9.476786	-0.909498	2.354524	0.017349	0.091515	-0.039913	-1.149902	0.684082	-0.719238	-19.721044	-75.441876	-62.623197
58261		9.439041	-0.882902	2.338501	0.013277	0.099049	-0.063010	-1.147461	0.677002	-0.726318	-19.503475	-75.398526	-62.838096
58262		9.399083	-0.828848	2.395428	0.011994	0.101364	-0.068972	-1.147949	0.679443	-0.725586	-19.274566	-75.357444	-63.065809
58263		9.410817	-0.846354	2.364940	0.010663	0.098329	-0.075584	-1.145508	0.682129	-0.725586	-19.035580	-75.316433	-63.304482
58264		9.431456	-0.835343	2.439698	0.010205	0.101748	-0.083214	-1.145020	0.671631	-0.732422	-18.780595	-75.277306	-63.560297
58265		9.450133	-0.863460	2.389742	0.008495	0.107497	-0.096791	-1.148682	0.675537	-0.722900	-18.495478	-75.234672	-63.848050
58266		9.398729	-0.807561	2.414834	0.010903	0.114335	-0.113276	-1.143311	0.675537	-0.725586	-18.172502	-75.193469	-64.173870
58267		9.475546	-0.850917	2.456910	0.011406	0.121250	-0.119633	-1.138184	0.671143	-0.727539	-17.833023	-75.146592	-64.516256
58268		9.412766	-0.794958	2.450346	0.012698	0.123924	-0.128300	-1.142578	0.675049	-0.723633	-17.475718	-75.101780	-64.876666
58269		9.465700	-0.768495	2.442901	0.008609	0.123371	-0.134619	-1.141357	0.675293	-0.732178	-17.110073	-75.055226	-65.247944
58270		9.543575	-0.763970	2.428710	0.014859	0.129151	-0.141795	-1.139648	0.673096	-0.725586	-16.725032	-75.008613	-65.635936
58271		9.520259	-0.713129	2.501098	0.016972	0.133817	-0.146089	-1.139893	0.679932	-0.733398	-16.329525	-74.956937	-66.033348
58272		9.475658	-0.623168	2.541891	0.018820	0.131028	-0.138771	-1.137695	0.663574	-0.740234	-15.952264	-74.907456	-66.411115
58273		9.419407	-0.579318	2.515328	0.017813	0.120400	-0.117164	-1.144287	0.666748	-0.726807	-15.628187	-74.857363	-66.734232
58274		9.503268	-0.634479	2.538132	0.014470	0.111493	-0.105136	-1.144043	0.661865	-0.735352	-15.337538	-74.812399	-67.025018
58275		9.511331	-0.665216	2.547829	0.021023	0.112375	-0.101559	-1.142578	0.679199	-0.743164	-15.051709	-74.763544	-67.306743
58276		9.549104	-0.658914	2.546322	0.016254	0.122874	-0.108070	-1.141846	0.666748	-0.738037	-14.751497	-74.711941	-67.606514
58277		9.609176	-0.602621	2.553835	0.016434	0.130249	-0.119766	-1.142822	0.667480	-0.734863	-14.425860	-74.655041	-67.932387
58278		9.569137	-0.658329	2.564834	0.012856	0.143755	-0.119706	-1.135986	0.666992	-0.735107	-14.097742	-74.592608	-68.263284
58279		9.515548	-0.601266	2.592621	0.013288	0.150615	-0.126124	-1.137695	0.663330	-0.728516	-13.756003	-74.524289	-68.607935
58280		9.704480	-0.556973	2.688865	0.009206	0.148357	-0.108845	-1.137939	0.655762	-0.725098	-13.455012	-74.456829	-68.913063
58281		10.498510	-0.560567	2.651433	0.000073	0.171299	-0.057304	-1.141357	0.666260	-0.737305	-13.254269	-74.366975	-69.119445
58282		9.769199	-0.668356	2.616580	-0.005622	0.213944	-0.041075	-1.138184	0.665771	-0.737549	-13.071329	-74.253453	-69.311047
58283		9.760375	-0.592766	2.653006	-0.001995	0.227031	-0.042050	-1.133789	0.664551	-0.739746	-12.881536	-74.130192	-69.507511
58284		9.837455	-0.583231	2.704129	-0.008970	0.244702	-0.025789	-1.129639	0.671387	-0.742188	-12.722258	-73.997219	-69.676732
58285		9.736659	-0.720608	2.657619	-0.004514	0.262196	-0.019430	-1.132813	0.667236	-0.746338	-12.568269	-73.851179	-69.837705
58286		9.751039	-0.626460	2.726110	-0.005498	0.277490	-0.025268	-1.136963	0.660645	-0.740967	-12.399634	-73.699544	-70.014845
58287		9.928985	-0.576538	2.767495	-0.006925	0.296003	-0.018242	-1.122314	0.663330	-0.745117	-12.241144	-73.534211	-70.182209
58288		9.934698	-0.687682	2.782518	-0.009309	0.323084	-0.014458	-1.116699	0.656494	-0.748535	-12.083001	-73.355459	-70.350981
58289		9.871531	-0.613196	2.809337	-0.003094	0.348985	-0.008729	-1.121826	0.660400	-0.747070	-11.925746	-73.159071	-70.515082
58290		9.831672	-0.345792	2.909480	-0.006705	0.365526	0.016730	-1.111816	0.663574	-0.746826	-11.814018	-72.952603	-70.634120
58291		9.906106	-0.298723	2.918285	-0.021437	0.373939	0.070375	-1.107422	0.660400	-0.747559	-11.807623	-72.732814	-70.651700
58292		9.982057	-0.417043	2.937289	-0.028832	0.383454	0.119979	-1.108398	0.661865	-0.749512	-11.890076	-72.504133	-70.580831
58293		10.315905	-0.184985	3.027672	-0.033298	0.407251	0.189896	-1.099121	0.663086	-0.752441	-12.087118	-72.251503	-70.392128
58294		11.114324	-0.120695	3.112782	-0.053763	0.437156	0.280973	-1.098633	0.668945	-0.756836	-12.435748	-71.973018	-70.056374
58295		12.423248	-0.781160	2.987758	-0.061453	0.532086	0.346608	-1.095459	0.665527	-0.757080	-12.852746	-71.630366	-69.652488
58296		12.922417	-1.522456	2.929383	-0.036475	0.716138	0.342620	-1.080811	0.664307	-0.760986	-13.163077	-71.186867	-69.345330
58297		12.391023	-1.294372	2.950783	0.001206	0.900258	0.294941	-1.085449	0.669434	-0.765137	-13.292320	-70.644505	-69.205850
58298		11.370833	-0.352145	3.118293	0.017932	1.023695	0.307817	-1.061279	0.678711	-0.767334	-13.379256	-70.033588	-69.100818
58299		10.635954	0.209092	3.246627	-0.009575	1.085341	0.400869	-1.050293	0.665771	-0.774170	-13.592318	-69.373875	-68.877512
58300		10.538815	0.072906	3.328811	-0.042851	1.126656	0.517118	-1.041016	0.675293	-0.769531	-13.962246	-68.676846	-68.505814
58301		10.628792	-0.334459	3.298443	-0.061195	1.186616	0.608438	-1.028809	0.666504	-0.775391	-14.423425	-67.930912	-68.045181
58302		10.585819	-0.836907	3.271088	-0.069194	1.259793	0.657545	-1.014160	0.679932	-0.780518	-14.898652	-67.137748	-67.572001
58303		10.689179	-1.308977	3.274520	-0.062619	1.352862	0.661015	-1.003418	0.680176	-0.783447	-15.310527	-66.289504	-67.160598
58304		10.816436	-1.586935	3.401452	-0.040399	1.464723	0.638514	-0.977051	0.681396	-0.788086	-15.616996	-65.383630	-66.848216
58305		11.016610	-1.401955	3.531613	-0.024894	1.572417	0.613695	-0.963623	0.681885	-0.791504	-15.828677	-64.420069	-66.628144
58306		11.367005	-1.088558	3.707893	-0.010903	1.687646	0.631625	-0.937012	0.686523	-0.802734	-16.000494	-63.391472	-66.441898
58307		11.613100	-0.887472	3.925802	-0.021229	1.792371	0.662773	-0.924561	0.687988	-0.797607	-16.165627	-62.298627	-66.267891
58308		11.718281	-0.950368	4.102590	-0.031152	1.905927	0.723115	-0.913330	0.684326	-0.802734	-16.351014	-61.134816	-66.075721
58309		11.742416	-1.049496	4.338066	-0.040155	1.992720	0.795620	-0.873535	0.689941	-0.816895	-16.571451	-59.910021	-65.846810
58310		11.655326	-1.071445	4.796194	-0.049697	2.062117	0.891721	-0.850098	0.694824	-0.814697	-16.848349	-58.632039	-65.555851
58311		11.199052	-1.249306	5.036592	-0.077534	2.108988	0.977299	-0.833008	0.693359	-0.822510	-17.180010	-57.312259	-65.214871
58312		10.758450	-2.361247	5.116063	-0.091373	2.069332	1.155180	-0.807373	0.691895	-0.822998	-17.649625	-55.983415	-64.713344
58313		10.552180	-3.560930	5.050101	-0.060478	1.941006	1.481070	-0.785889	0.701416	-0.825195	-18.350800	-54.663196	-63.900668
58314		10.766120	-4.345780	4.892593	0.002485	1.852472	1.842132	-0.753418	0.701904	-0.824707	-19.250560	-53.318802	-62.784604
58315		9.681252	-4.316847	5.223740	0.087523	1.801829	2.079772	-0.731689	0.698486	-0.820068	-20.210068	-51.944580	-61.512128
58316		9.870099	-4.794628	5.389476	0.181161	1.655875	2.356568	-0.701172	0.700439	-0.827637	-21.258883	-50.579761	-60.032400
58317		9.486748	-4.654227	5.066196	0.301857	1.574503	2.586161	-0.667236	0.696045	-0.820557	-22.319373	-49.191972	-58.417629
58318		9.351417	-4.066668	4.714499	0.441573	1.528850	2.574474	-0.642090	0.692871	-0.828125	-23.218024	-47.813929	-56.877877
58319		9.870368	-3.357485	4.464752	0.568258	1.560843	2.428128	-0.620850	0.683350	-0.829102	-23.879428	-46.438386	-55.529240
58320		8.786036	-2.723128	3.776765	0.677300	1.628500	2.216402	-0.588135	0.688232	-0.828613	-24.288156	-45.068939	-54.414630
58321		5.104211	-2.103271	2.528762	0.756153	1.543040	1.825996	-0.563965	0.673340	-0.831787	-24.430463	-43.832485	-53.590910
58322		2.780680	-1.732054	1.081957	0.829539	1.273676	1.270088	-0.547363	0.666748	-0.840820	-24.294260	-42.868176	-53.094466
58323		2.254123	-1.771313	-0.434470	0.902693	0.893993	0.737210	-0.538086	0.654297	-0.839355	-23.937277	-42.228672	-52.855723
58324		3.066424	-2.689918	-2.115224	1.008732	0.499326	0.272127	-0.534912	0.643555	-0.836914	-23.382092	-41.904708	-52.819191
58325		4.368464	-2.726051	-0.934376	1.217304	0.204096	-0.040889	-0.532227	0.632813	-0.849365	-22.623192	-41.807028	-52.909769
58326		3.235598	-1.968615	-0.981413	1.324674	-0.146155	-0.206713	-0.538330	0.622803	-0.851074	-21.791797	-41.929948	-53.015719
58327		4.144390	-2.033434	-1.944626	1.401598	-0.591062	-0.244767	-0.543945	0.614746	-0.853027	-20.981487	-42.297504	-53.025358
58328		4.862549	-1.756238	-1.757755	1.475845	-0.887274	-0.341296	-0.558838	0.593506	-0.862061	-20.129115	-42.842763	-53.032851
58329		6.042516	-1.386145	-1.496390	1.537321	-1.044326	-0.424113	-0.567627	0.586670	-0.870361	-19.222121	-43.489478	-53.070235
58330		6.507491	-0.952181	-1.254935	1.568338	-1.113116	-0.490204	-0.581787	0.572266	-0.876465	-18.262301	-44.184239	-53.156167
58331		6.426625	-0.504218	-1.089289	1.559788	-1.157061	-0.517909	-0.600830	0.556152	-0.883301	-17.289364	-44.908127	-53.268458
58332		6.259088	-0.094758	-0.903333	1.500889	-1.210685	-0.528730	-0.622803	0.541260	-0.890869	-16.336506	-45.660304	-53.396797
58333		6.036694	0.319863	-0.682030	1.400937	-1.304469	-0.539176	-0.630859	0.532959	-0.905029	-15.437528	-46.466235	-53.529936
58334		5.981045	0.658420	-0.545397	1.257931	-1.430069	-0.545602	-0.653320	0.516846	-0.911621	-14.618428	-47.339142	-53.662287
58335		6.092249	0.951637	-0.254759	1.081785	-1.574744	-0.572772	-0.664551	0.510254	-0.916504	-13.892437	-48.297402	-53.804963
58336		6.348763	1.136719	0.022065	0.877291	-1.732279	-0.602565	-0.692627	0.483887	-0.919922	-13.269750	-49.343726	-53.962164
58337		6.918573	1.168207	0.390182	0.654834	-1.876677	-0.622554	-0.711914	0.488525	-0.921631	-12.768929	-50.475107	-54.125698
58338		7.446844	1.021081	0.673722	0.426268	-1.987904	-0.614143	-0.738525	0.489014	-0.920410	-12.403875	-51.663867	-54.278809
58339		8.102291	0.808321	0.934966	0.203804	-2.075900	-0.563520	-0.757568	0.485352	-0.914307	-12.206198	-52.898597	-54.380341
58340		8.766113	0.632957	1.245817	-0.009851	-2.124641	-0.471830	-0.785400	0.493896	-0.920166	-12.199441	-54.146026	-54.393650
58341		9.197857	0.597396	1.548841	-0.215329	-2.150211	-0.373040	-0.818604	0.495850	-0.906738	-12.397768	-55.399536	-54.301134
58342		9.542344	0.636793	1.780465	-0.411866	-2.147441	-0.316013	-0.842285	0.499756	-0.902100	-12.766070	-56.640292	-54.139537
58343		9.767674	0.476000	1.901448	-0.586979	-2.118945	-0.312655	-0.864014	0.501709	-0.895752	-13.254905	-57.868204	-53.957436
58344		9.945744	0.269784	2.031590	-0.724911	-2.092737	-0.346379	-0.893555	0.514404	-0.898926	-13.809811	-59.080888	-53.791743
58345		10.071814	-0.086034	2.092722	-0.830957	-2.069698	-0.424138	-0.917480	0.524902	-0.883057	-14.375442	-60.295266	-53.687275
58346		10.003242	-0.583905	2.153394	-0.906213	-2.077068	-0.460126	-0.942627	0.535156	-0.881348	-14.974724	-61.513805	-53.593736
58347		10.054607	-0.988602	2.272650	-0.950244	-2.135209	-0.446210	-0.974854	0.532715	-0.872314	-15.662943	-62.766620	-53.430384
58348		10.326911	-1.232476	2.336146	-0.983744	-2.204539	-0.368853	-0.999756	0.545654	-0.855225	-16.516603	-64.039349	-53.104192
58349		10.748510	-1.473727	2.509192	-0.988499	-2.254407	-0.303441	-1.017090	0.564453	-0.846191	-17.530040	-65.330929	-52.608979
58350		11.072146	-1.543939	2.751352	-0.986384	-2.260360	-0.284111	-1.052979	0.564209	-0.833008	-18.646289	-66.613131	-52.003806
58351		11.455665	-1.673108	3.053362	-0.973622	-2.225054	-0.310824	-1.071045	0.581543	-0.822510	-19.803693	-67.881306	-51.353070
58352		11.771226	-1.766154	3.376721	-0.966744	-2.157442	-0.353599	-1.092773	0.588867	-0.808838	-20.964414	-69.111202	-50.699091
58353		12.077345	-1.936275	3.791235	-0.963369	-2.053423	-0.395306	-1.119873	0.592529	-0.799805	-22.114872	-70.294555	-50.060421
58354		12.329066	-2.156547	4.255151	-0.971564	-1.916287	-0.431995	-1.141846	0.611084	-0.785400	-23.228285	-71.403716	-49.469304
58355		12.702335	-2.359574	4.908296	-0.987113	-1.746662	-0.457425	-1.162598	0.615723	-0.768799	-24.295081	-72.431025	-48.941458
58356		13.042125	-2.731319	5.521150	-1.012815	-1.536205	-0.457662	-1.178711	0.614014	-0.762695	-25.296624	-73.340702	-48.498948
58357		13.209473	-3.038112	6.218518	-1.023423	-1.294728	-0.446550	-1.206787	0.631592	-0.743896	-26.199086	-74.125582	-48.169036
58358		13.183518	-3.365643	6.975042	-1.033992	-1.049429	-0.395167	-1.199951	0.639404	-0.738281	-27.027226	-74.765275	-47.922616
58359		12.761045	-3.620686	7.689635	-1.031335	-0.806345	-0.298036	-1.200195	0.657227	-0.720215	-27.849087	-75.259163	-47.682799
58360		11.939576	-3.695719	8.316269	-1.018506	-0.606456	-0.178691	-1.213867	0.654541	-0.714844	-28.714442	-75.614387	-47.389898
58361		10.686340	-3.520407	8.860745	-1.001449	-0.493182	-0.074450	-1.219971	0.669434	-0.702148	-29.686443	-75.886446	-46.978204
58362		9.249747	-3.104403	9.248555	-0.980835	-0.469454	-0.022568	-1.227539	0.677734	-0.694824	-30.741818	-76.126139	-46.467966
58363		8.060488	-2.833545	9.481985	-0.960094	-0.525488	-0.051992	-1.220459	0.687500	-0.682617	-31.829132	-76.402761	-45.913952
58364		7.309833	-2.720457	9.644289	-0.926870	-0.623956	-0.113380	-1.235840	0.701172	-0.677979	-32.927307	-76.740249	-45.329151
58365		7.115436	-2.783589	9.678032	-0.882670	-0.720736	-0.182928	-1.231934	0.699463	-0.670898	-34.039387	-77.145540	-44.705563
58366		7.450635	-3.077323	9.547298	-0.809166	-0.757018	-0.221859	-1.250732	0.707520	-0.666260	-35.129200	-77.575599	-44.062081
58367		7.938063	-3.402278	9.386201	-0.703331	-0.719444	-0.231618	-1.253906	0.713867	-0.650879	-36.143174	-77.990164	-43.435597
58368		8.310112	-3.733282	9.273339	-0.567989	-0.606601	-0.196358	-1.257813	0.725098	-0.639893	-37.020798	-78.337138	-42.869679
58369		8.584906	-3.781731	9.151944	-0.422348	-0.436125	-0.123515	-1.264648	0.731689	-0.636719	-37.728970	-78.580088	-42.392368
58370		8.646914	-3.654241	8.898384	-0.292559	-0.225150	-0.031071	-1.269043	0.728516	-0.630127	-38.216575	-78.693582	-42.064257
58371		8.530581	-3.476380	8.545804	-0.178566	-0.010321	0.070473	-1.270996	0.720947	-0.629395	-38.492911	-78.673797	-41.885111
58372		24.066636	-4.892462	10.009479	-0.038661	0.602632	-0.332945	-1.268555	0.737549	-0.631348	-36.716076	-78.517479	-43.718590
58373		6.542347	-0.868890	10.649165	0.149608	1.565300	-0.453709	-1.256592	0.723877	-0.643555	-33.140521	-77.930676	-47.281557
58374		7.640680	-2.191974	9.257439	0.236294	1.997512	-0.907863	-1.250488	0.715576	-0.650146	-28.315854	-77.212794	-52.081392
58375		2.612761	-8.533964	15.509954	0.579823	2.350512	-1.585630	-1.230469	0.707520	-0.671631	-22.029933	-76.378264	-58.194354
58376		5.837477	13.965562	14.807815	0.234343	1.056215	-0.729327	-1.222656	0.708984	-0.684082	-19.432420	-75.960707	-60.729355
58377		14.448028	-5.041167	-0.181184	-0.029421	-0.396933	0.011498	-1.240967	0.706543	-0.677734	-19.774205	-76.170490	-60.392362
58378		5.976349	1.433176	4.485497	0.048572	-0.086886	-0.161420	-1.244385	0.699707	-0.681641	-19.454045	-76.249017	-60.691620
58379		10.286457	-0.787417	2.184216	-0.000306	-0.105894	-0.078558	-1.236572	0.701172	-0.680908	-19.355625	-76.318953	-60.790919
58380		10.819980	-0.647018	1.718114	0.017876	0.069608	-0.002854	-1.246582	0.699951	-0.678223	-19.279425	-76.282439	-60.857058
58381		9.988448	-0.506172	2.188491	0.044809	0.190647	0.072346	-1.247803	0.699219	-0.686523	-19.259141	-76.163471	-60.849329
58382		9.140361	-0.705115	2.454876	0.039442	0.175797	0.112305	-1.229004	0.704834	-0.676758	-19.342011	-76.047721	-60.738931
58383		9.556517	-0.749576	2.265263	0.020420	0.136233	0.097623	-1.222412	0.702881	-0.688965	-19.430831	-75.953371	-60.633147
58384		9.198953	-1.067823	2.338656	0.012197	0.124873	0.074993	-1.234375	0.703125	-0.688477	-19.484923	-75.872181	-60.568421
58385		8.942175	-0.912144	2.463201	0.021369	0.090420	0.031440	-1.227051	0.700684	-0.688232	-19.464443	-75.815189	-60.574726
58386		9.274962	-0.781556	2.339336	0.019178	0.055542	0.016282	-1.229736	0.701660	-0.683350	-19.440978	-75.782659	-60.585844
58387		9.300875	-0.834314	2.357029	0.018166	0.043727	0.016841	-1.231201	0.697266	-0.675537	-19.426533	-75.753676	-60.587817
58388		9.361117	-0.836243	2.320515	0.016029	0.031277	0.013814	-1.229980	0.697510	-0.677734	-19.417929	-75.734727	-60.585466
58389		9.435972	-0.863015	2.335367	0.017091	0.026035	0.001697	-1.223145	0.701904	-0.681885	-19.385251	-75.718198	-60.606891
58390		9.492448	-0.806436	2.350120	0.024294	0.033761	-0.001231	-1.228271	0.701904	-0.681885	-19.338203	-75.700764	-60.639323
58391		9.470889	-0.767291	2.321062	0.019845	0.037085	0.000111	-1.228760	0.706543	-0.679932	-19.292542	-75.678566	-60.672523
58392		9.390797	-0.755834	2.351647	0.016783	0.031352	0.006098	-1.228027	0.700928	-0.681152	-19.267286	-75.661037	-60.686911
58393		9.381301	-0.786889	2.341826	0.014250	0.027132	0.005128	-1.227783	0.700195	-0.687012	-19.242960	-75.643282	-60.701405
58394		9.435483	-0.775241	2.323947	0.013719	0.025620	0.012084	-1.223389	0.693848	-0.675049	-19.236414	-75.627722	-60.698294
58395		9.403948	-0.739579	2.352546	0.005476	0.022621	0.011973	-1.222168	0.700684	-0.673828	-19.234933	-75.611130	-60.694396
58396		9.388123	-0.758493	2.361445	-0.000571	0.019906	0.013022	-1.226074	0.698975	-0.686279	-19.242747	-75.598484	-60.684912
58397		9.442883	-0.819934	2.330225	-0.001980	0.016327	0.015643	-1.222656	0.698242	-0.685059	-19.257852	-75.584618	-60.668299
58398		9.409212	-0.828764	2.325685	-0.002418	0.015292	0.013475	-1.218262	0.698975	-0.677979	-19.271031	-75.574380	-60.654367
58399		9.475124	-0.815162	2.339132	-0.001345	0.014936	0.011045	-1.224609	0.699951	-0.680176	-19.277099	-75.562152	-60.646711
58400		9.426225	-0.841343	2.341539	0.000747	0.018117	0.009844	-1.232666	0.708252	-0.688477	-19.278734	-75.551072	-60.642826
58401		9.471437	-0.788653	2.322836	0.005425	0.021620	0.005952	-1.218994	0.703857	-0.691895	-19.265340	-75.536208	-60.651262
58402		9.425255	-0.842408	2.345059	0.002807	0.012041	0.004432	-1.219971	0.695068	-0.682861	-19.258905	-75.529438	-60.654492
58403		9.464099	-0.776432	2.345590	0.004595	0.020544	0.007634	-1.223633	0.700195	-0.680664	-19.250340	-75.514853	-60.658435
58404		9.451012	-0.823121	2.374005	0.000989	0.016685	0.009095	-1.224854	0.701416	-0.683350	-19.251322	-75.504690	-60.655080
58405		9.509253	-0.796807	2.316038	-0.002383	0.019658	0.008001	-1.226563	0.708740	-0.683350	-19.248184	-75.490532	-60.657548
58406		9.440852	-0.783376	2.377284	-0.002820	0.018624	0.005833	-1.225830	0.699951	-0.689697	-19.243117	-75.479936	-60.662696
58407		9.473867	-0.848771	2.372797	-0.002486	0.022555	0.005638	-1.223877	0.697021	-0.685303	-19.233012	-75.464674	-60.672424
58408		9.430979	-0.815388	2.368587	-0.000729	0.021802	0.004632	-1.228760	0.692139	-0.685547	-19.221952	-75.452585	-60.682526
58409		9.463568	-0.808572	2.376815	-0.002737	0.023983	0.006381	-1.226563	0.693848	-0.685303	-19.212555	-75.436424	-60.691673
58410		9.390049	-0.810567	2.386706	0.000332	0.029705	0.000391	-1.218506	0.702393	-0.679688	-19.186376	-75.420857	-60.716770
58411		9.450842	-0.811782	2.349459	0.001360	0.024979	0.003430	-1.226074	0.697998	-0.679932	-19.167843	-75.404724	-60.732935
58412		9.392606	-0.796015	2.352454	0.000863	0.027836	0.004917	-1.222168	0.707520	-0.685547	-19.152206	-75.389313	-60.746827
58413		9.421219	-0.804202	2.400344	0.002721	0.024184	0.006273	-1.219971	0.694092	-0.686768	-19.139443	-75.373091	-60.756228
58414		9.363048	-0.788451	2.402989	0.002535	0.021721	0.003361	-1.215088	0.697510	-0.686035	-19.124077	-75.361280	-60.768852
58415		9.411355	-0.835813	2.391721	0.000440	0.018541	0.004559	-1.218994	0.698730	-0.686035	-19.113166	-75.348445	-60.777691
58416		9.401701	-0.794870	2.393430	0.000091	0.022868	0.002940	-1.222412	0.697998	-0.688721	-19.097549	-75.336091	-60.792023
58417		9.465304	-0.824553	2.375321	0.002048	0.016318	0.006660	-1.219482	0.701172	-0.686035	-19.091696	-75.324078	-60.794683
58418		9.394103	-0.782775	2.416802	0.002465	0.025608	0.007012	-1.218994	0.704590	-0.686035	-19.081216	-75.309477	-60.802300
58419		9.417928	-0.807019	2.412284	-0.001475	0.017821	0.008664	-1.223389	0.694336	-0.698242	-19.080465	-75.296289	-60.801774
58420		9.348494	-0.794286	2.381990	0.004571	0.020527	0.007626	-1.221191	0.697754	-0.681885	-19.073692	-75.284323	-60.804311
58421		9.445300	-0.816698	2.369953	0.001613	0.015283	0.004490	-1.223389	0.699707	-0.689453	-19.064387	-75.273304	-60.810800
58422		9.365441	-0.805765	2.398209	0.002475	0.017347	0.008823	-1.223145	0.695557	-0.689453	-19.063558	-75.262835	-60.808434
58423		9.471005	-0.797519	2.398848	0.004235	0.016594	0.007820	-1.220459	0.698730	-0.685791	-19.058694	-75.250498	-60.808780
58424		9.388916	-0.830506	2.394909	0.002875	0.017386	0.004973	-1.215088	0.700439	-0.689941	-19.049693	-75.240729	-60.814628
58425		9.436874	-0.805688	2.396202	0.004039	0.022388	0.003093	-1.218018	0.699463	-0.692139	-19.031142	-75.226151	-60.829245
58426		9.374756	-0.804814	2.437860	0.003455	0.019886	0.004032	-1.220459	0.701416	-0.685791	-19.018136	-75.215203	-60.838892
58427		9.411347	-0.782635	2.406957	0.004370	0.026315	0.002894	-1.222900	0.704102	-0.683105	-18.996272	-75.198546	-60.856742
58428		9.362274	-0.807896	2.409832	0.001845	0.022105	0.001925	-1.217041	0.705322	-0.685547	-18.978351	-75.186787	-60.872429
58429		9.456447	-0.801613	2.378800	0.006282	0.027029	-0.001215	-1.224121	0.695801	-0.694824	-18.946556	-75.170518	-60.899422
58430		9.358527	-0.779451	2.394874	0.003257	0.025676	-0.000700	-1.221680	0.702148	-0.691162	-18.920022	-75.157308	-60.923183
58431		9.413958	-0.838594	2.456144	0.004339	0.025318	-0.003126	-1.214844	0.700684	-0.686523	-18.886748	-75.142331	-60.952864
58432		9.346719	-0.780709	2.458402	0.003076	0.023213	-0.003611	-1.224854	0.702881	-0.692627	-18.856187	-75.130989	-60.980901
58433		9.414470	-0.794648	2.401324	0.001910	0.018212	-0.001732	-1.219482	0.696289	-0.699707	-18.832210	-75.119608	-61.002408
58434		9.401212	-0.840147	2.429793	0.000457	0.021900	-0.006947	-1.221924	0.704834	-0.688721	-18.797342	-75.109588	-61.036457
58435		9.462370	-0.840395	2.392561	0.007335	0.025673	-0.009660	-1.211182	0.703369	-0.685547	-18.749014	-75.095629	-61.079950
58436		9.421940	-0.833601	2.408822	0.005051	0.037531	-0.009001	-1.218994	0.701172	-0.689941	-18.696658	-75.077490	-61.129376
58437		9.480804	-0.804527	2.444453	0.007218	0.036815	-0.013852	-1.217041	0.699463	-0.680664	-18.632425	-75.058246	-61.189409
58438		9.382633	-0.781205	2.461455	0.006711	0.039668	-0.012372	-1.213135	0.693359	-0.689941	-18.571071	-75.039536	-61.247174
58439		9.408321	-0.759606	2.490703	0.003199	0.032919	-0.008554	-1.218262	0.687500	-0.683838	-18.522857	-75.021423	-61.293021
58440		9.376607	-0.795380	2.415645	0.002555	0.026058	-0.002140	-1.221191	0.697998	-0.694824	-18.494147	-75.008222	-61.319467
58441		9.438140	-0.795245	2.469936	0.000193	0.023316	-0.006219	-1.224121	0.696777	-0.687988	-18.459068	-74.994902	-61.353507
58442		9.457427	-0.833982	2.414250	0.001176	0.035093	-0.006821	-1.218506	0.701660	-0.686768	-18.415670	-74.977630	-61.395981
58443		9.443368	-0.806533	2.456511	0.000893	0.034531	-0.018114	-1.219727	0.697754	-0.697510	-18.348726	-74.960361	-61.462607
58444		9.424786	-0.794377	2.447015	0.003985	0.041233	-0.018089	-1.218262	0.694824	-0.693359	-18.277051	-74.941753	-61.532703
58445		9.477043	-0.824442	2.399070	0.001442	0.045268	-0.020891	-1.213623	0.703857	-0.696289	-18.197371	-74.919110	-61.612207
58446		9.400859	-0.794997	2.481852	0.004107	0.050935	-0.023035	-1.216553	0.701660	-0.687744	-18.109616	-74.896053	-61.698900
58447		9.448198	-0.767812	2.486321	0.002853	0.049821	-0.017509	-1.216309	0.699219	-0.684814	-18.033459	-74.870284	-61.773938
58448		9.398666	-0.791347	2.491305	0.003523	0.049421	-0.016087	-1.214844	0.696533	-0.699219	-17.961536	-74.846760	-61.844596
58449		9.434951	-0.767467	2.463025	0.001847	0.047275	-0.012728	-1.211426	0.702148	-0.687012	-17.897709	-74.821500	-61.907476
58450		9.409983	-0.814702	2.461456	0.003768	0.047985	-0.016836	-1.212402	0.696289	-0.688232	-17.825505	-74.798847	-61.978297
58451		9.424245	-0.795034	2.459452	0.000803	0.050982	-0.021813	-1.218506	0.692383	-0.688965	-17.742111	-74.773127	-62.062091
58452		9.410294	-0.838666	2.490788	0.000538	0.051407	-0.027097	-1.210938	0.692871	-0.693604	-17.649478	-74.750339	-62.156019
58453		9.408503	-0.763785	2.508297	0.003195	0.057070	-0.029242	-1.217285	0.692627	-0.694824	-17.546583	-74.722524	-62.258631
58454		9.333714	-0.690708	2.532184	0.000522	0.051394	-0.027111	-1.217285	0.694336	-0.697754	-17.454540	-74.699662	-62.351980
58455		9.479281	-0.757221	2.511491	0.000390	0.042684	-0.016150	-1.215820	0.701904	-0.696045	-17.389032	-74.677393	-62.417521
58456		9.403609	-0.801606	2.489949	0.000184	0.049454	-0.014882	-1.209229	0.693115	-0.696777	-17.323270	-74.653440	-62.483838
58457		9.568501	-0.834531	2.515448	0.003422	0.056615	-0.023987	-1.210205	0.703125	-0.697998	-17.232213	-74.624854	-62.574091
58458		9.387478	-0.770780	2.539470	0.001194	0.063561	-0.033031	-1.211914	0.697510	-0.695313	-17.121618	-74.596195	-62.686327
58459		9.452103	-0.752654	2.559074	0.003995	0.071676	-0.032275	-1.219727	0.693115	-0.697754	-17.005363	-74.560676	-62.802409
58460		9.406753	-0.759874	2.526084	0.002780	0.061331	-0.030929	-1.210205	0.697266	-0.698975	-16.900250	-74.532771	-62.908049
58461		9.577437	-0.732579	2.545948	0.002657	0.065206	-0.027294	-1.208740	0.703125	-0.694580	-16.799452	-74.499871	-63.008925
58462		9.509830	-0.745622	2.538992	0.003027	0.068226	-0.013098	-1.216064	0.695313	-0.691895	-16.726102	-74.465144	-63.081487
58463		9.827011	-0.788460	2.535443	0.003146	0.071673	-0.004184	-1.209961	0.698242	-0.696289	-16.667548	-74.424836	-63.138260
58464		10.405402	-0.744503	2.568139	0.001269	0.103538	0.018223	-1.208984	0.701660	-0.697021	-16.636655	-74.365545	-63.167816
58465		10.706508	-0.766288	2.611830	-0.008455	0.174224	0.059040	-1.204346	0.696289	-0.705322	-16.649038	-74.258583	-63.157853
58466		10.372544	-0.689097	2.641563	-0.011555	0.226256	0.088987	-1.199951	0.703369	-0.696533	-16.691751	-74.120307	-63.118575
58467		10.707080	-0.624330	2.677608	-0.014963	0.264190	0.129315	-1.192627	0.698486	-0.691650	-16.789926	-73.952421	-63.023244
58468		11.278167	-0.715107	2.693755	-0.021374	0.328341	0.178649	-1.192383	0.704346	-0.713867	-16.946918	-73.743227	-62.870782
58469		11.864613	-0.895203	2.723861	-0.026170	0.424893	0.210254	-1.194336	0.703125	-0.706299	-17.105205	-73.473647	-62.719279
58470		12.573233	-0.967713	2.742442	-0.025538	0.560543	0.236764	-1.188232	0.701172	-0.699951	-17.231009	-73.127292	-62.601439
58471		12.925548	-1.194935	2.725783	-0.022437	0.726984	0.257220	-1.174072	0.714111	-0.707520	-17.293811	-72.684349	-62.547046
58472		12.682361	-1.132394	2.742445	-0.011639	0.896630	0.262908	-1.156250	0.704346	-0.718506	-17.268107	-72.149608	-62.579222
58473		11.887253	-0.738758	2.796484	-0.010571	1.032322	0.302195	-1.160156	0.713867	-0.723633	-17.238035	-71.532062	-62.615113
58474		11.378501	-0.272964	2.942840	-0.020164	1.113031	0.393494	-1.149414	0.715332	-0.726074	-17.321032	-70.856703	-62.537846
58475		11.276983	-0.094609	3.072458	-0.040191	1.173060	0.522217	-1.128906	0.722412	-0.737549	-17.575636	-70.124578	-62.290019
58476		11.367214	-0.454848	3.090310	-0.060905	1.235380	0.627386	-1.118652	0.718750	-0.739258	-17.948590	-69.341388	-61.927848
58477		11.346028	-0.935094	2.991520	-0.065246	1.322334	0.684310	-1.098877	0.728027	-0.747803	-18.335367	-68.498231	-61.551212
58478		11.343433	-1.338882	3.017106	-0.050212	1.435460	0.678700	-1.078857	0.732422	-0.757813	-18.628280	-67.595483	-61.264595
58479		11.468966	-1.603096	3.019585	-0.027738	1.555805	0.635496	-1.062256	0.729492	-0.753906	-18.779134	-66.633433	-61.115896
58480		11.666973	-1.720333	3.071009	-0.002011	1.691479	0.573982	-1.045166	0.740479	-0.764893	-18.775141	-65.610580	-61.119664
58481		11.931356	-1.809213	3.098709	0.032323	1.840555	0.524103	-1.025635	0.741211	-0.778564	-18.636489	-64.514617	-61.249929
58482		12.357249	-1.767477	3.211445	0.067434	2.008223	0.479065	-0.998291	0.740234	-0.783203	-18.379723	-63.336934	-61.490867
58483		12.717041	-1.778628	3.306680	0.102035	2.192332	0.446745	-0.987061	0.745361	-0.786621	-18.028027	-62.063114	-61.818634
58484		13.084130	-1.704782	3.385534	0.128581	2.393032	0.428379	-0.961182	0.747070	-0.793457	-17.610307	-60.683223	-62.208628
58485		13.503687	-1.674566	3.613687	0.154427	2.606990	0.398936	-0.926758	0.745605	-0.811279	-17.124729	-59.189039	-62.665222
58486		13.611773	-1.734054	3.745911	0.180640	2.836226	0.376095	-0.899658	0.750244	-0.815186	-16.587552	-57.571860	-63.172448
58487		13.324757	-1.670499	4.127870	0.193672	3.046555	0.362792	-0.872559	0.743164	-0.824951	-16.030593	-55.838140	-63.703774
58488		12.633270	-1.638515	4.676616	0.194196	3.199868	0.360112	-0.835449	0.733398	-0.830078	-15.489765	-54.018137	-64.226478
58489		11.705912	-1.547160	5.292171	0.178600	3.276259	0.369081	-0.799072	0.745117	-0.830078	-14.998877	-52.151702	-64.710184
58490		10.872801	-1.925812	6.382614	0.143911	3.245009	0.460278	-0.768555	0.746826	-0.838867	-14.638941	-50.287337	-65.063896
58491		10.170906	-2.928535	6.296292	0.130843	3.076915	0.668248	-0.738525	0.753418	-0.838135	-14.476467	-48.485238	-65.176868
58492		9.797755	-3.461081	5.204163	0.168673	2.922556	0.866502	-0.707275	0.743652	-0.851807	-14.445622	-46.740308	-65.085485
58493		10.256108	-4.246231	5.981967	0.248133	2.809443	1.114226	-0.663818	0.736572	-0.846191	-14.523159	-45.022756	-64.777225
58494		9.301587	-3.678746	6.169515	0.339691	2.731837	1.230235	-0.636230	0.750244	-0.845703	-14.606324	-43.331065	-64.376183
58495		8.862255	-3.713869	5.420403	0.417484	2.632068	1.261711	-0.598389	0.735840	-0.849854	-14.656976	-41.690140	-63.945146
58496		9.723487	-3.919921	4.555696	0.528098	2.555790	1.352250	-0.574707	0.735107	-0.844482	-14.679731	-40.077806	-63.445520
58497		10.875970	-3.733491	4.300032	0.646427	2.569912	1.514007	-0.534424	0.716797	-0.840088	-14.688335	-38.434676	-62.844735
58498		9.920151	-3.240680	3.794232	0.763320	2.616452	1.592615	-0.507324	0.707764	-0.849854	-14.636069	-36.753892	-62.210748
58499		3.679448	-2.356905	3.009114	0.830919	2.532564	1.535599	-0.465088	0.712402	-0.847412	-14.511227	-35.129733	-61.610728
58500		-1.887315	-3.710736	-0.518910	0.925439	2.142500	1.232215	-0.447266	0.696533	-0.844238	-14.238675	-33.765820	-61.152157
58501		-8.752157	-4.478909	-5.477278	1.179185	1.280725	0.769814	-0.431885	0.682861	-0.857178	-13.727031	-32.948720	-60.852610
58502		-4.069742	-3.394597	-2.902066	1.495824	0.127932	0.522381	-0.431152	0.674561	-0.855957	-13.044893	-32.808602	-60.527283
