// General information: 
//  MT Manager version: 2022.2.0 
//  XDA version: 2022.2.0 build 7381 rev 124627 built on 2023-07-19
// Device information: 
//  DeviceId: 00B4BCF6
//  ProductCode: MTW2-3A7G6
//  Firmware Version: 4.6.0
//  Hardware Version: 2.0.0
// Device settings: 
//  Filter Profile: human(46.1)
//  Option Flags: Orientation Smoother Disabled, Position/Velocity Smoother Disabled, Continuous Zero Rotation Update Disabled, AHS Disabled, ICC Disabled
// Coordinate system: ENU
PacketCounter	SampleTimeFine	Acc_X	Acc_Y	Acc_Z	Gyr_X	Gyr_Y	Gyr_Z	Mag_X	Mag_Y	Mag_Z	Roll	Pitch	Yaw
41482		-5.715866	0.536355	8.005740	-0.004923	0.014043	-0.005932	-0.516113	-0.306885	-0.472168	3.894581	35.163228	36.025704
41483		-5.695654	0.508201	8.082220	-0.001952	0.009418	-0.008687	-0.518311	-0.317139	-0.475098	3.892540	35.165157	36.022695
41484		-5.649933	0.517062	8.025978	-0.006398	0.010229	-0.008408	-0.516357	-0.316162	-0.471436	3.887206	35.167733	36.019184
41485		-5.676689	0.534334	8.039078	-0.006265	0.009734	-0.010214	-0.521729	-0.310303	-0.473633	3.882087	35.169902	36.015122
41486		-5.666888	0.519692	8.077150	-0.003272	0.008611	-0.008264	-0.515625	-0.311279	-0.477295	3.878564	35.171539	36.011532
41487		-5.728639	0.511750	8.013740	-0.008004	0.006909	-0.009079	-0.505615	-0.308838	-0.476563	3.872827	35.172048	36.008128
41488		-5.673691	0.485098	8.066107	-0.007432	0.011934	-0.006891	-0.513428	-0.315674	-0.476807	3.867561	35.175558	36.006144
41489		-5.688474	0.510350	8.047761	-0.003271	0.008611	-0.008265	-0.516846	-0.313477	-0.477783	3.864911	35.177009	36.003391
41490		-5.689176	0.509576	8.047314	-0.004592	0.007805	-0.007841	-0.513916	-0.316162	-0.477539	3.860780	35.178182	36.000140
41491		-5.683075	0.484148	8.005386	-0.002922	0.005876	-0.005464	-0.512207	-0.309082	-0.472900	3.859384	35.177960	35.999216
41492		-5.667831	0.502514	8.053670	0.000140	0.009508	-0.007025	-0.516846	-0.311035	-0.472900	3.858341	35.180072	35.996706
41493		-5.713673	0.513703	8.038913	-0.007367	0.006685	-0.005187	-0.510986	-0.313965	-0.474854	3.854531	35.180302	35.996014
41494		-5.665812	0.488958	8.032027	0.000909	0.008791	-0.004934	-0.510986	-0.313232	-0.470703	3.854756	35.181917	35.994903
41495		-5.692505	0.506994	8.045122	-0.001448	0.009689	-0.002990	-0.515625	-0.315918	-0.483154	3.855305	35.183780	35.995889
41496		-5.658758	0.508532	8.020304	-0.000761	0.010719	-0.007312	-0.515381	-0.312256	-0.481201	3.853667	35.186597	35.993152
41497		-5.678725	0.501649	7.991859	-0.001733	0.007176	-0.004086	-0.510010	-0.312256	-0.473633	3.853542	35.187065	35.993253
41498		-5.672153	0.500080	8.050777	0.001677	0.008073	-0.002843	-0.513184	-0.306885	-0.477295	3.855033	35.188198	35.993855
41499		-5.698659	0.518157	8.064000	-0.000697	0.005471	-0.005605	-0.512451	-0.309326	-0.480469	3.854843	35.187750	35.992813
41500		-5.683744	0.513114	8.011518	-0.002785	0.005381	-0.007273	-0.511475	-0.312744	-0.466797	3.851919	35.187514	35.990817
41501		-5.690792	0.537136	8.052894	-0.005847	0.001748	-0.005713	-0.518799	-0.308838	-0.471924	3.848634	35.184942	35.989524
41502		-5.670428	0.485534	8.028978	-0.004106	0.004574	-0.006849	-0.521240	-0.313477	-0.473877	3.845118	35.184193	35.986728
41503		-5.699913	0.515537	8.063281	-0.000229	-0.001259	-0.009314	-0.520264	-0.305664	-0.476318	3.843519	35.180040	35.982776
41504		-5.691336	0.535066	8.052648	-0.004391	0.002061	-0.007944	-0.515869	-0.312500	-0.478516	3.839329	35.177901	35.979857
41505		-5.682802	0.475538	8.060260	-0.004675	-0.000451	-0.009039	-0.513184	-0.304932	-0.478516	3.835316	35.174198	35.976136
41506		-5.670787	0.482494	8.028907	-0.004675	-0.000452	-0.009039	-0.516357	-0.312500	-0.476318	3.830452	35.170690	35.972525
41507		-5.722665	0.518211	8.056195	-0.003908	-0.001169	-0.006947	-0.516113	-0.315430	-0.474609	3.827704	35.166497	35.970234
41508		-5.673925	0.493351	8.049945	-0.003289	-0.004892	-0.007756	-0.521484	-0.315674	-0.477783	3.824039	35.160387	35.966358
41509		-5.651317	0.486659	8.057181	-0.005293	0.003272	-0.008232	-0.513916	-0.305908	-0.471436	3.820100	35.158781	35.963377
41510		-5.688058	0.518110	8.032101	0.002144	0.001345	-0.006553	-0.517578	-0.310547	-0.469238	3.820203	35.156180	35.961089
41511		-5.662275	0.499359	8.018398	-0.004391	0.002060	-0.007946	-0.518555	-0.308594	-0.478027	3.816864	35.153871	35.958253
41512		-5.665985	0.511049	8.038987	-0.004377	0.005560	-0.003239	-0.520752	-0.305664	-0.473389	3.814683	35.153548	35.958595
41513		-5.657776	0.530769	8.028099	-0.002019	0.004664	-0.005183	-0.513184	-0.308350	-0.471191	3.813885	35.152622	35.957812
41514		-5.639094	0.536691	8.055725	-0.002367	0.007399	-0.007986	-0.521729	-0.311279	-0.467285	3.811000	35.153527	35.955143
41515		-5.698745	0.495073	8.041446	-0.001465	0.006188	-0.007700	-0.520752	-0.314697	-0.478760	3.809547	35.153568	35.952671
41516		-5.676797	0.488544	8.048212	-0.003269	0.008610	-0.008274	-0.516357	-0.309570	-0.479980	3.806069	35.155166	35.949132
41517		-5.654931	0.482065	8.054922	-0.002637	0.008386	-0.004375	-0.511230	-0.304199	-0.471680	3.805342	35.156337	35.949087
41518		-5.688680	0.501318	8.008761	0.000624	0.006279	-0.006032	-0.523438	-0.309570	-0.477051	3.804926	35.156547	35.948006
41519		-5.704834	0.505333	8.060446	-0.002985	0.011122	-0.007180	-0.525879	-0.311523	-0.471191	3.802943	35.159389	35.946126
41520		-5.670970	0.506766	8.035742	-0.001599	0.006682	-0.005896	-0.527832	-0.308838	-0.482422	3.801331	35.159785	35.944818
41521		-5.683653	0.498349	8.066709	-0.004860	0.008788	-0.004240	-0.513184	-0.312256	-0.471680	3.799395	35.161181	35.944886
41522		-5.663691	0.525897	8.024247	-0.002637	0.008386	-0.004377	-0.520996	-0.305908	-0.474365	3.797843	35.162518	35.944805
41523		-5.681712	0.484946	8.044961	-0.003539	0.009596	-0.004665	-0.516602	-0.304199	-0.474365	3.796515	35.164392	35.944613
41524		-5.668586	0.537238	8.044045	-0.002636	0.008386	-0.004378	-0.515869	-0.309814	-0.476074	3.794967	35.165720	35.944993
41525		-5.674652	0.503844	8.033327	-0.005701	0.011254	-0.012753	-0.517822	-0.306396	-0.478027	3.789186	35.168848	35.939222
41526		-5.672189	0.490583	8.011930	-0.002984	0.011121	-0.007184	-0.513916	-0.316895	-0.481445	3.786384	35.171863	35.937347
41527		-5.702554	0.520458	8.045665	-0.005343	0.012017	-0.005242	-0.520752	-0.309326	-0.473389	3.783853	35.175142	35.936863
41528		-5.677390	0.501472	8.031541	-0.004586	0.007801	-0.007857	-0.515137	-0.311523	-0.478271	3.779779	35.176284	35.933598
41529		-5.681574	0.513043	8.051833	-0.004304	0.010313	-0.006762	-0.520508	-0.312012	-0.472900	3.777186	35.178646	35.931972
41530		-5.682473	0.512353	8.051243	-0.002983	0.011121	-0.007186	-0.506836	-0.298584	-0.475830	3.774395	35.181649	35.929375
41531		-5.662576	0.460884	8.026877	-0.004303	0.010312	-0.006763	-0.522217	-0.310303	-0.471924	3.771802	35.184011	35.927747
41532		-5.715528	0.496743	8.053402	-0.003393	0.012601	-0.001767	-0.513672	-0.312256	-0.475586	3.770998	35.187654	35.929880
41533		-5.681910	0.498217	8.028546	-0.003884	0.012331	-0.007476	-0.519531	-0.314453	-0.484375	3.768410	35.191198	35.927847
41534		-5.705199	0.503483	8.020866	-0.002014	0.004663	-0.005189	-0.513428	-0.308594	-0.477783	3.766807	35.190451	35.926458
41535		-5.691659	0.476797	8.038414	-0.004100	0.004571	-0.006861	-0.515869	-0.320557	-0.474121	3.764137	35.189534	35.924497
41536		-5.683425	0.496313	8.027591	-0.004099	0.004571	-0.006861	-0.518555	-0.307373	-0.479736	3.760669	35.188787	35.921203
41537		-5.687202	0.507928	8.048183	-0.003059	0.002868	-0.008380	-0.520020	-0.309082	-0.469238	3.757938	35.186953	35.918102
41538		-5.687605	0.507208	8.047944	-0.005139	0.006274	-0.005344	-0.515381	-0.310059	-0.480469	3.754536	35.187099	35.917170
41539		-5.707155	0.500057	8.019690	-0.003197	0.003361	-0.006574	-0.517334	-0.305664	-0.480957	3.752468	35.185479	35.915355
41540		-5.684863	0.493444	8.026750	-0.006741	0.002953	-0.006017	-0.519043	-0.311768	-0.473389	3.747785	35.183786	35.914328
41541		-5.657488	0.519185	8.043967	-0.007087	0.005689	-0.008824	-0.518799	-0.311768	-0.473389	3.742643	35.183582	35.911045
41542		-5.680420	0.524102	8.036560	-0.004379	0.002059	-0.007959	-0.518066	-0.313232	-0.480713	3.738524	35.181411	35.907238
41543		-5.677342	0.510832	8.015569	-0.005628	0.006005	-0.011054	-0.519287	-0.309814	-0.477295	3.733327	35.181470	35.902410
41544		-5.698617	0.481628	8.057162	-0.004307	0.006814	-0.011478	-0.513916	-0.315186	-0.481934	3.727955	35.182172	35.897022
41545		-5.679949	0.487158	8.084907	-0.005281	0.003268	-0.008249	-0.517090	-0.312500	-0.474365	3.724016	35.180561	35.894032
41546		-5.696032	0.467498	8.035862	-0.003542	0.006097	-0.009383	-0.509766	-0.308350	-0.477051	3.719909	35.180779	35.889411
41547		-5.668892	0.493672	8.052914	-0.000413	0.007984	-0.004518	-0.519287	-0.310303	-0.481201	3.720387	35.181725	35.889245
41548		-5.704222	0.491116	8.076606	-0.000900	0.007716	-0.010229	-0.519043	-0.310547	-0.470459	3.717493	35.182904	35.885048
41549		-5.689356	0.486163	8.024010	-0.002636	0.008384	-0.004385	-0.520020	-0.312256	-0.474854	3.716761	35.184074	35.884993
41550		-5.684788	0.518137	8.033858	-0.001179	0.005204	-0.011326	-0.524414	-0.314209	-0.472412	3.713215	35.183810	35.879003
41551		-5.674838	0.503549	8.072111	-0.005903	0.006989	-0.007445	-0.518066	-0.313965	-0.474854	3.709341	35.184296	35.876745
41552		-5.689202	0.528787	8.054089	-0.004376	0.002058	-0.007963	-0.519287	-0.312744	-0.476807	3.705242	35.182106	35.872629
41553		-5.687589	0.470596	8.002205	-0.006322	0.001472	-0.011445	-0.515381	-0.305420	-0.470459	3.699373	35.179585	35.867322
41554		-5.694693	0.494207	8.043739	-0.005696	0.001248	-0.007542	-0.515381	-0.317139	-0.473633	3.694665	35.176930	35.864414
41555		-5.663591	0.507791	8.040398	-0.004794	0.000038	-0.007253	-0.521973	-0.312988	-0.474365	3.691324	35.173435	35.861976
41556		-5.686143	0.512742	8.033245	-0.007434	-0.001582	-0.006409	-0.515137	-0.308838	-0.472168	3.686013	35.169117	35.858486
41557		-5.691214	0.479249	8.023109	-0.006114	-0.000772	-0.006831	-0.520996	-0.318604	-0.477295	3.682065	35.165142	35.856308
41558		-5.668493	0.472535	8.030488	-0.002570	-0.003857	-0.012099	-0.520508	-0.313232	-0.477539	3.677192	35.159740	35.849131
41559		-5.694393	0.489920	8.044214	-0.005489	-0.000997	-0.002927	-0.520752	-0.312500	-0.475586	3.675169	35.155492	35.849673
41560		-5.659780	0.491350	8.020097	-0.005835	0.001740	-0.005735	-0.514404	-0.307129	-0.470459	3.671135	35.153055	35.847683
41561		-5.657970	0.456644	8.069204	-0.004168	-0.000187	-0.003350	-0.516602	-0.317871	-0.475342	3.669720	35.149286	35.847967
41562		-5.659785	0.490252	8.020160	-0.000903	-0.002287	-0.005002	-0.519043	-0.309570	-0.478027	3.668707	35.144520	35.845906
41563		-5.706520	0.479927	8.075655	0.000556	0.001527	-0.002519	-0.518311	-0.321533	-0.473633	3.670377	35.141701	35.846848
41564		-5.673869	0.516282	8.002312	0.003265	0.001396	0.003061	-0.515137	-0.311035	-0.483887	3.675094	35.138747	35.850174
41565		-5.672171	0.482531	8.051281	0.003058	0.003640	-0.001555	-0.517822	-0.314941	-0.479004	3.678640	35.137100	35.851884
41566		-5.649675	0.476787	8.058442	0.001042	-0.001701	-0.001519	-0.518799	-0.312256	-0.473633	3.680152	35.132585	35.853185
41567		-5.672257	0.482478	8.051223	-0.003126	0.001608	-0.000156	-0.528076	-0.308594	-0.479248	3.680665	35.129725	35.855781
41568		-5.686302	0.508435	8.033406	0.000000	0.000000	0.000000	-0.518311	-0.315918	-0.474854	3.682248	35.126060	35.858482
41569		-5.641074	0.496659	8.047912	-0.001042	-0.001795	-0.003194	-0.516113	-0.317139	-0.475342	3.682644	35.121367	35.858801
41570		-5.663528	0.502216	8.040793	-0.001042	-0.001795	-0.003194	-0.516113	-0.310303	-0.471191	3.682305	35.116817	35.857167
41571		-5.671916	0.481688	8.051511	-0.001459	-0.003814	-0.002483	-0.520996	-0.320068	-0.472168	3.682696	35.110943	35.857892
41572		-5.694287	0.487247	8.044451	-0.001042	-0.001795	-0.003194	-0.519043	-0.307861	-0.476318	3.682366	35.106365	35.856324
41573		-5.652424	0.487560	8.079843	-0.002223	-0.003097	-0.004580	-0.511475	-0.312744	-0.479004	3.681495	35.100977	35.855616
41574		-5.652178	0.487126	8.080041	-0.003682	-0.003416	-0.002350	-0.511719	-0.307617	-0.481934	3.679935	35.095494	35.856863
41575		-5.662358	0.500691	8.041712	0.003127	-0.005103	-0.004558	-0.511963	-0.310791	-0.473389	3.682087	35.088959	35.856080
41576		-5.670858	0.480330	8.052337	-0.001806	0.002418	-0.000578	-0.516846	-0.309082	-0.479980	3.682464	35.086761	35.859104
41577		-5.662412	0.500334	8.041697	-0.002987	0.001115	-0.001964	-0.520752	-0.317139	-0.483398	3.682315	35.083686	35.860413
41578		-5.636414	0.481903	8.028091	-0.000625	0.000225	-0.003905	-0.514404	-0.308838	-0.479980	3.681980	35.080345	35.860332
41579		-5.669631	0.524222	8.083159	-0.003334	0.003852	-0.004772	-0.519775	-0.310303	-0.475830	3.680575	35.078938	35.859802
41580		-5.697479	0.497018	8.065609	-0.001945	-0.000586	-0.003483	-0.519043	-0.309326	-0.472168	3.679641	35.075097	35.860539
41581		-5.666438	0.511112	8.062208	-0.001111	0.003454	-0.004905	-0.515625	-0.306641	-0.471924	3.679446	35.073467	35.859899
41582		-5.685626	0.504177	8.034153	-0.003125	-0.001889	-0.004870	-0.519775	-0.310059	-0.479004	3.677260	35.068891	35.859186
41583		-5.680162	0.457243	8.062551	-0.002569	-0.000361	-0.007389	-0.520020	-0.303711	-0.483643	3.675134	35.065171	35.856639
41584		-5.647472	0.516042	8.090235	-0.003891	0.002324	-0.002253	-0.524414	-0.311523	-0.467773	3.673653	35.062958	35.859848
41585		-5.699460	0.449737	8.034445	-0.004168	-0.000188	-0.003351	-0.514648	-0.312988	-0.481445	3.672237	35.059189	35.860130
41586		-5.644121	0.502775	8.069401	-0.002848	0.000623	-0.003773	-0.518311	-0.311523	-0.476318	3.670720	35.056015	35.859334
41587		-5.663322	0.495756	8.041339	-0.003612	0.001340	-0.005870	-0.517822	-0.308594	-0.472168	3.668652	35.053212	35.857925
41588		-5.691093	0.468545	8.023827	-0.000624	0.000225	-0.003906	-0.522461	-0.312744	-0.479248	3.668347	35.049820	35.857518
41589		-5.666835	0.507209	8.062176	-0.004584	-0.002208	-0.002641	-0.513428	-0.310547	-0.482666	3.666925	35.044870	35.858206
41590		-5.649296	0.468217	8.059210	-0.004931	0.000529	-0.005449	-0.519531	-0.311523	-0.483643	3.663531	35.041759	35.857447
41591		-5.644239	0.500255	8.069475	-0.000485	-0.000266	-0.005715	-0.517090	-0.304443	-0.477539	3.663275	35.038031	35.856075
41592		-5.652860	0.479706	8.080008	-0.000764	0.000717	-0.002098	-0.519043	-0.317627	-0.477051	3.663617	35.034895	35.858760
41593		-5.658318	0.525716	8.051699	-0.004167	-0.000188	-0.003352	-0.523682	-0.313232	-0.469238	3.662201	35.031126	35.859042
41594		-5.671991	0.472339	8.052012	-0.004167	-0.000188	-0.003352	-0.520752	-0.311279	-0.477539	3.660101	35.027447	35.857343
41595		-5.644251	0.498448	8.069579	-0.005208	-0.001983	-0.006548	-0.520508	-0.309326	-0.475586	3.656762	35.022768	35.855314
41596		-5.675340	0.483266	8.072997	-0.004028	-0.000680	-0.005161	-0.518555	-0.318115	-0.477295	3.653992	35.018902	35.854537
41597		-5.644045	0.497087	8.069807	-0.004304	-0.003192	-0.006259	-0.518066	-0.314209	-0.475098	3.651257	35.013522	35.852656
41598		-5.640572	0.484008	8.049035	-0.006738	0.002946	-0.006027	-0.511963	-0.307373	-0.474121	3.646686	35.011773	35.849247
41599		-5.632102	0.503580	8.038467	-0.000205	-0.001249	-0.009334	-0.522461	-0.314209	-0.477539	3.645118	35.007615	35.845308
41600		-5.666918	0.500621	8.062529	-0.007642	0.004154	-0.006317	-0.516602	-0.311768	-0.479004	3.639943	35.006567	35.843406
41601		-5.663823	0.487486	8.041491	-0.002639	0.004889	-0.009102	-0.519043	-0.306152	-0.475830	3.637230	35.005911	35.839902
41602		-5.639654	0.446792	8.097596	-0.005278	0.003266	-0.008259	-0.520996	-0.311279	-0.473633	3.632608	35.004433	35.837584
41603		-5.636886	0.512779	8.058569	-0.002015	0.004663	-0.005195	-0.520020	-0.318604	-0.480713	3.631811	35.003505	35.836796
41604		-5.678581	0.432554	8.041082	-0.004098	0.004568	-0.006872	-0.519531	-0.313721	-0.475830	3.628466	35.002701	35.833651
41605		-5.663806	0.529672	8.071652	-0.000555	0.004984	-0.007426	-0.528076	-0.311523	-0.469482	3.627621	35.002037	35.831321
41606		-5.648123	0.446130	8.037330	0.002156	0.001358	-0.006559	-0.517822	-0.313721	-0.473145	3.627919	34.999329	35.828450
41607		-5.683487	0.522482	8.043246	-0.004379	0.005551	-0.003254	-0.516602	-0.306885	-0.476807	3.626568	34.998838	35.829057
41608		-5.674854	0.463160	8.050528	-0.004373	0.002057	-0.007972	-0.519043	-0.316162	-0.477539	3.622563	34.996644	35.825990
41609		-5.670082	0.494973	8.060653	-0.005558	0.004247	-0.004643	-0.521973	-0.307373	-0.473389	3.619947	34.995458	35.825571
41610		-5.639163	0.508769	8.057230	-0.003469	0.000848	-0.007684	-0.522705	-0.312500	-0.478516	3.616552	34.992546	35.822479
41611		-5.656411	0.467510	8.078238	-0.003610	0.001339	-0.005875	-0.519531	-0.309082	-0.471924	3.614486	34.989741	35.821071
41612		-5.670528	0.492879	8.060468	-0.004788	0.000036	-0.007263	-0.530273	-0.315674	-0.473145	3.610487	34.986342	35.818610
41613		-5.644425	0.473986	8.046930	-0.006108	-0.000776	-0.006842	-0.519043	-0.312256	-0.477051	3.606550	34.982362	35.816435
41614		-5.651444	0.497777	8.088605	-0.002565	-0.000360	-0.007396	-0.521729	-0.303223	-0.471680	3.603775	34.978717	35.812967
41615		-5.635795	0.492830	8.036545	-0.005203	-0.001984	-0.006554	-0.522461	-0.310791	-0.478516	3.600441	34.974036	35.810941
41616		-5.647921	0.484179	8.067879	-0.002431	0.002643	-0.004487	-0.523682	-0.310791	-0.468750	3.598975	34.972019	35.812086
41617		-5.648156	0.483599	8.067749	-0.004513	0.002547	-0.006165	-0.516113	-0.307861	-0.468994	3.596307	34.969915	35.810531
41618		-5.651812	0.495242	8.088504	-0.002705	0.000131	-0.005587	-0.521240	-0.315918	-0.474854	3.594202	34.966464	35.808241
41619		-5.639778	0.502483	8.057193	-0.006870	-0.000059	-0.008943	-0.513428	-0.312988	-0.479004	3.589007	34.962969	35.804633
41620		-5.656954	0.460855	8.078240	-0.005551	0.000753	-0.009364	-0.518799	-0.312744	-0.479980	3.583760	34.960099	35.799316
41621		-5.670969	0.486054	8.060572	-0.006662	-0.002307	-0.004325	-0.522217	-0.303223	-0.472168	3.580476	34.955153	35.798834
41622		-5.648325	0.479406	8.067881	-0.007010	0.000431	-0.007134	-0.512451	-0.314697	-0.475586	3.575278	34.951985	35.797790
41623		-5.648264	0.478436	8.067982	-0.004920	-0.002966	-0.010176	-0.517822	-0.311768	-0.468750	3.570637	34.946872	35.793197
41624		-5.670653	0.483105	8.060972	-0.008462	-0.003384	-0.009625	-0.518066	-0.315674	-0.474121	3.563531	34.941617	35.786633
41625		-5.644304	0.463987	8.047598	-0.006379	-0.003288	-0.007947	-0.523193	-0.310059	-0.474854	3.558939	34.936238	35.783584
41626		-5.647567	0.475238	8.068659	-0.007698	-0.004101	-0.007526	-0.525391	-0.306641	-0.477539	3.553096	34.930479	35.779778
41627		-5.624724	0.468465	8.076106	-0.004919	-0.002966	-0.010178	-0.521973	-0.296387	-0.478271	3.548458	34.925364	35.775187
41628		-5.669798	0.479020	8.061817	-0.005964	-0.001268	-0.008657	-0.519043	-0.302734	-0.475342	3.543210	34.921269	35.776467
41629		-5.646985	0.472340	8.069236	-0.006934	-0.004819	-0.005428	-0.521240	-0.312500	-0.479980	3.539270	34.914925	35.775111
41630		-5.651880	0.439110	8.059037	0.000074	0.001268	-0.008241	-0.516113	-0.311768	-0.470459	3.537717	34.912293	35.773699
41631		-5.638282	0.491289	8.058931	-0.007838	-0.003612	-0.005718	-0.528320	-0.303955	-0.475098	3.533174	34.906650	35.772195
41632		-5.646665	0.470052	8.069594	-0.006105	-0.000778	-0.006848	-0.516357	-0.306641	-0.476807	3.528609	34.902739	35.770538
41633		-5.669138	0.475018	8.062517	-0.004296	-0.003193	-0.006271	-0.525635	-0.306152	-0.476318	3.525886	34.897354	35.768667
41634		-5.627098	0.475098	8.098058	-0.003805	-0.006422	-0.005273	-0.520752	-0.310303	-0.468750	3.523115	34.890207	35.769155
41635		-5.637108	0.488111	8.059945	-0.007064	-0.007822	-0.008343	-0.524902	-0.311279	-0.475586	3.517867	34.882248	35.765641
41636		-5.667543	0.472506	8.063786	-0.008937	-0.010166	-0.005403	-0.520508	-0.311035	-0.473877	3.512041	34.872911	35.763309
41637		-5.613035	0.480297	8.068299	-0.007477	-0.009843	-0.007635	-0.518066	-0.308594	-0.470947	3.506792	34.863771	35.760205
41638		-5.643321	0.464510	8.072253	-0.008372	-0.012126	-0.012650	-0.519531	-0.312256	-0.480225	3.498351	34.853598	35.752521
41639		-5.607918	0.465561	8.048725	-0.010745	-0.007752	-0.005982	-0.528809	-0.311523	-0.474609	3.491941	34.845595	35.750662
41640		-5.614268	0.488995	8.090933	-0.005252	-0.010237	-0.007770	-0.519043	-0.319580	-0.479980	3.487275	34.836343	35.747944
41641		-5.660153	0.454656	8.045998	-0.007193	-0.010823	-0.011262	-0.527344	-0.310303	-0.473633	3.480727	34.826768	35.742279
41642		-5.617741	0.454135	8.081783	-0.009144	-0.007918	-0.010027	-0.527344	-0.312744	-0.476807	3.472999	34.818924	35.736647
41643		-5.619202	0.509848	8.134284	-0.009144	-0.007919	-0.010028	-0.533691	-0.307373	-0.471924	3.465897	34.810966	35.731967
41644		-5.607955	0.471828	8.072331	-0.009415	-0.010430	-0.011133	-0.526611	-0.311768	-0.477783	3.457537	34.801644	35.727815
41645		-5.593393	0.444396	8.090394	-0.007907	-0.001854	-0.012153	-0.521973	-0.306152	-0.473145	3.450448	34.797226	35.721914
41646		-5.601740	0.422910	8.101051	-0.004918	-0.002965	-0.010187	-0.516602	-0.302490	-0.475098	3.445206	34.792197	35.718357
41647		-5.603888	0.456188	8.052068	-0.006740	0.002939	-0.006034	-0.518066	-0.313477	-0.475098	3.441333	34.790309	35.716920
41648		-5.645829	0.477298	8.117769	-0.005141	0.002775	-0.010079	-0.520996	-0.307373	-0.471436	3.436131	34.788604	35.712525
41649		-5.611537	0.478842	8.093435	-0.004105	0.004568	-0.006875	-0.519043	-0.308594	-0.472412	3.433473	34.787676	35.710571
41650		-5.639671	0.451242	8.075557	-0.003140	0.008123	-0.010103	-0.522217	-0.308105	-0.476563	3.429558	34.788978	35.706033
41651		-5.643765	0.462597	8.096052	-0.006328	0.004960	-0.006744	-0.529541	-0.313721	-0.473633	3.425687	34.788270	35.704186
41652		-5.601146	0.484547	8.061123	-0.003693	0.006590	-0.007584	-0.526123	-0.312256	-0.475830	3.422425	34.788595	35.702279
41653		-5.627301	0.422856	8.092126	-0.002105	0.009916	-0.006899	-0.518555	-0.311279	-0.471191	3.421030	34.790727	35.700531
41654		-5.606098	0.495392	8.081065	-0.005915	0.006982	-0.007453	-0.524902	-0.309570	-0.477783	3.416558	34.791283	35.697312
41655		-5.597479	0.435899	8.088030	-0.003550	0.006101	-0.009398	-0.519775	-0.311279	-0.475830	3.413251	34.791318	35.693665
41656		-5.630121	0.499571	8.072990	-0.002740	0.013634	-0.006084	-0.518555	-0.312012	-0.472412	3.411289	34.795657	35.693055
41657		-5.623302	0.395605	8.048436	-0.002104	0.009916	-0.006901	-0.521240	-0.304199	-0.477051	3.409894	34.797789	35.691305
41658		-5.617854	0.472595	8.089419	0.001153	0.011317	-0.003828	-0.523438	-0.315918	-0.481201	3.411006	34.800724	35.691980
41659		-5.627339	0.452069	8.099209	0.001707	0.012850	-0.006349	-0.520752	-0.309326	-0.478271	3.412082	34.804514	35.690736
41660		-5.611473	0.492652	8.077501	0.001423	0.013828	-0.002724	-0.515137	-0.318848	-0.481201	3.413843	34.808875	35.692409
41661		-5.652136	0.457532	8.090498	0.000248	0.012523	-0.004118	-0.517334	-0.315430	-0.472168	3.414963	34.812403	35.692706
41662		-5.653187	0.457316	8.089777	0.001708	0.012850	-0.006351	-0.521973	-0.312744	-0.479004	3.415433	34.816341	35.688206
41663		-5.619557	0.459538	8.064968	-0.001212	0.012197	-0.001888	-0.523193	-0.305908	-0.465088	3.416596	34.819606	35.690043
41664		-5.624069	0.471405	8.085169	-0.000783	0.010730	-0.007326	-0.520752	-0.306641	-0.471436	3.415222	34.822269	35.687732
41665		-5.633555	0.450614	8.094968	-0.000514	0.013241	-0.006222	-0.524414	-0.305420	-0.471436	3.415086	34.826279	35.686592
41666		-5.648682	0.476249	8.076605	-0.000783	0.010730	-0.007327	-0.523926	-0.305420	-0.482910	3.413711	34.828935	35.685425
41667		-5.635355	0.449711	8.093765	-0.002655	0.008381	-0.004387	-0.521240	-0.305908	-0.473145	3.412963	34.830103	35.685362
41668		-5.604893	0.463899	8.090108	-0.001606	0.006686	-0.005910	-0.517822	-0.303711	-0.473389	3.411563	34.830459	35.686789
41669		-5.636689	0.448737	8.092890	-0.002100	0.009914	-0.006909	-0.515381	-0.301025	-0.468750	3.410165	34.832590	35.685032
41670		-5.651501	0.474247	8.074751	-0.001462	0.006197	-0.007724	-0.526367	-0.306885	-0.475342	3.408126	34.832705	35.683162
41671		-5.611713	0.429589	8.078499	-0.003542	0.006099	-0.009407	-0.523193	-0.301514	-0.477783	3.404817	34.832738	35.679506
41672		-5.633765	0.479503	8.101994	-0.001069	0.011707	-0.003704	-0.519043	-0.309814	-0.469238	3.404734	34.835856	35.683131
41673		-5.644532	0.414075	8.080571	0.000393	0.012034	-0.005936	-0.521973	-0.304932	-0.473633	3.405202	34.839166	35.682140
41674		-5.632141	0.466704	8.079821	-0.001069	0.011707	-0.003705	-0.513916	-0.307861	-0.484619	3.405136	34.842268	35.681945
41675		-5.614077	0.472997	8.107250	0.001155	0.011316	-0.003835	-0.527588	-0.313232	-0.469727	3.406860	34.845096	35.682389
41676		-5.673611	0.431520	8.092183	0.003090	0.011903	-0.000339	-0.519775	-0.312256	-0.472412	3.410508	34.848247	35.685290
41677		-5.656886	0.393791	8.088322	0.008567	0.012915	0.002609	-0.525879	-0.312744	-0.475830	3.419084	34.851769	35.690292
41678		-5.793165	0.373645	8.162814	0.029587	0.014682	0.009383	-0.520752	-0.308838	-0.473877	3.441871	34.856130	35.698936
41679		-5.765119	0.425990	8.109688	0.040006	0.011684	0.013069	-0.522949	-0.306152	-0.481934	3.472599	34.858584	35.711180
41680		-5.702586	0.381466	8.120575	0.063292	-0.000443	0.020210	-0.519287	-0.314941	-0.477051	3.518615	34.853960	35.729480
41681		-5.796388	0.424162	8.112117	0.087516	-0.002036	0.033552	-0.518555	-0.304932	-0.480957	3.584382	34.847824	35.755408
41682		-5.791622	0.343511	8.109124	0.111956	-0.005879	0.051492	-0.520264	-0.300293	-0.475342	3.670568	34.838970	35.794195
41683		-5.740933	0.378084	8.133743	0.133206	-0.002877	0.067518	-0.521484	-0.313477	-0.478271	3.775986	34.831026	35.843717
41684		-5.746946	0.394874	8.074254	0.141436	-0.012000	0.081207	-0.521484	-0.311279	-0.476318	3.890670	34.817403	35.903965
41685		-5.657636	0.500762	8.036025	0.137376	-0.013958	0.084193	-0.520020	-0.317139	-0.476074	4.004751	34.802308	35.964510
41686		-5.559246	0.571291	8.106245	0.135957	-0.014289	0.086333	-0.520020	-0.312744	-0.481445	4.118192	34.786995	36.025640
41687		-5.597737	0.630794	8.101741	0.127379	-0.013709	0.083164	-0.518311	-0.313232	-0.477783	4.226064	34.771891	36.085387
41688		-5.530113	0.583377	8.092727	0.125885	-0.008792	0.083584	-0.519531	-0.321045	-0.471436	4.332711	34.759697	36.146158
41689		-5.402690	0.700693	8.109483	0.119801	-0.006089	0.081386	-0.523926	-0.311035	-0.480957	4.435697	34.748843	36.204988
41690		-5.468304	0.752019	8.016569	0.097511	0.009613	0.070978	-0.520264	-0.315918	-0.470703	4.521641	34.747498	36.256645
41691		-5.565454	0.732144	8.046479	0.080903	0.003572	0.059328	-0.524658	-0.320068	-0.465332	4.593872	34.743019	36.300631
41692		-5.523653	0.717566	7.980360	0.061993	0.003177	0.046100	-0.528076	-0.315430	-0.473389	4.649448	34.738955	36.331803
41693		-5.516840	0.879775	8.001301	0.032012	0.002495	0.020660	-0.526855	-0.325439	-0.473633	4.678307	34.735596	36.348844
41694		-5.480327	0.850183	8.026535	0.005218	-0.001514	0.001821	-0.518555	-0.319580	-0.469727	4.683675	34.730913	36.350699
41695		-5.585666	0.617279	8.005854	-0.012046	-0.007340	-0.013665	-0.520752	-0.319824	-0.471191	4.673382	34.723539	36.343326
41696		-5.599013	0.641298	7.988295	-0.016920	-0.008548	-0.012667	-0.530029	-0.317871	-0.477539	4.660112	34.715544	36.332981
41697		-5.528897	0.666633	8.041521	-0.026250	-0.012473	-0.016082	-0.524658	-0.315430	-0.469727	4.640565	34.705348	36.323646
41698		-5.573109	0.596126	8.046666	-0.033692	-0.010558	-0.017770	-0.516113	-0.317139	-0.475342	4.615614	34.696403	36.312605
41699		-5.586287	0.618216	8.029399	-0.035777	-0.010658	-0.019443	-0.522217	-0.321777	-0.470947	4.589346	34.687391	36.301049
41700		-5.587102	0.568951	7.999719	-0.041207	-0.013383	-0.015923	-0.522705	-0.312256	-0.479248	4.560731	34.676801	36.289034
41701		-5.608832	0.570851	7.993279	-0.039255	-0.009266	-0.007765	-0.528564	-0.316650	-0.469238	4.537139	34.668044	36.285678
41702		-5.571687	0.638305	8.101341	-0.043360	-0.011187	-0.004678	-0.523193	-0.313965	-0.476318	4.511809	34.658150	36.284367
41703		-5.501548	0.637953	8.053960	-0.049337	-0.008968	-0.008605	-0.527100	-0.315918	-0.471680	4.482125	34.649600	36.280455
41704		-5.530777	0.663857	8.088647	-0.057883	-0.000106	-0.010521	-0.527588	-0.317383	-0.470947	4.446523	34.646289	36.275238
41705		-5.537995	0.604823	8.148871	-0.056480	0.008956	-0.009803	-0.523682	-0.312256	-0.467529	4.412829	34.648026	36.271470
41706		-5.603179	0.604713	8.106035	-0.053550	0.013084	-0.009585	-0.523193	-0.312256	-0.473633	4.380507	34.652145	36.266575
41707		-5.668384	0.526175	8.081620	-0.050277	0.014486	-0.006547	-0.524658	-0.307373	-0.476074	4.351817	34.656896	36.265359
41708		-5.525808	0.586249	8.095458	-0.045682	0.016696	-0.003934	-0.523438	-0.313965	-0.470703	4.326310	34.662895	36.267354
41709		-5.541462	0.632336	8.177473	-0.038928	0.023748	-0.003182	-0.520264	-0.312500	-0.477295	4.305726	34.672792	36.268956
41710		-5.635601	0.607157	8.116238	-0.036345	0.030606	-0.005770	-0.523682	-0.313721	-0.472168	4.285264	34.686811	36.268378
41711		-5.656846	0.597316	8.086934	-0.032728	0.022262	-0.009310	-0.522705	-0.308350	-0.472656	4.265760	34.696122	36.265636
41712		-5.565191	0.558711	8.094136	-0.029523	0.028906	-0.007990	-0.529053	-0.313965	-0.475586	4.248283	34.709232	36.263945
41713		-5.605824	0.566472	8.137460	-0.023749	0.028914	-0.008687	-0.520508	-0.306641	-0.472168	4.234361	34.722315	36.261972
41714		-5.594096	0.514738	8.053015	-0.019579	0.029105	-0.005344	-0.525146	-0.312744	-0.468994	4.223629	34.735418	36.262671
41715		-5.418169	0.500613	8.060428	-0.013453	0.039880	-0.003780	-0.532715	-0.316406	-0.474609	4.217867	34.754560	36.264667
41716		-5.459552	0.735938	8.197528	-0.011275	0.058220	-0.006207	-0.518311	-0.315918	-0.468262	4.212419	34.784270	36.264325
41717		-5.620401	0.717257	8.091356	-0.019517	0.062582	-0.016457	-0.520264	-0.312256	-0.479248	4.198808	34.816918	36.258655
41718		-5.722225	0.502389	8.054105	-0.024019	0.068622	-0.017945	-0.523682	-0.317627	-0.473389	4.181681	34.853142	36.250408
41719		-5.692508	0.423108	8.044931	-0.011783	0.059676	-0.018388	-0.520508	-0.310791	-0.468018	4.171629	34.884207	36.243220
41720		-5.614746	0.659181	8.057721	-0.015120	0.053525	-0.017926	-0.514893	-0.309082	-0.470703	4.159160	34.911742	36.233742
41721		-5.539396	0.646552	8.045682	-0.027784	0.055181	-0.032641	-0.529785	-0.314697	-0.471924	4.134103	34.940826	36.216369
41722		-5.408244	0.730879	8.099508	-0.038768	0.068409	-0.045541	-0.517334	-0.313965	-0.472900	4.097461	34.977985	36.189540
41723		-5.512173	0.772298	8.107578	-0.049887	0.082127	-0.056657	-0.518066	-0.311279	-0.479492	4.050844	35.023429	36.156689
41724		-5.667727	0.588896	8.095444	-0.048159	0.086693	-0.064279	-0.511230	-0.304199	-0.477539	4.001740	35.071814	36.117875
41725		-5.643688	0.370370	7.992107	-0.041783	0.089982	-0.056378	-0.513672	-0.314941	-0.468506	3.959978	35.121692	36.085472
41726		-5.656423	0.400510	8.108446	-0.024401	0.103534	-0.041404	-0.526611	-0.315674	-0.472656	3.934026	35.178750	36.064075
41727		-5.685084	0.345705	8.043211	-0.006370	0.109872	-0.031914	-0.511475	-0.313232	-0.485107	3.922863	35.239013	36.049642
41728		-5.522907	0.210518	7.975180	0.011140	0.124683	-0.007593	-0.516846	-0.314697	-0.475830	3.931452	35.306804	36.051594
41729		-5.551508	0.442678	8.114845	0.036310	0.157089	0.006081	-0.520508	-0.312988	-0.478027	3.961439	35.392562	36.066068
41730		-5.720128	0.497734	8.132470	0.045791	0.175757	0.018227	-0.510498	-0.312012	-0.476807	4.001878	35.488464	36.088624
41731		-5.798875	0.462896	8.047495	0.050693	0.178720	0.028295	-0.507324	-0.304688	-0.481934	4.049940	35.585674	36.119950
41732		-5.866661	0.539053	8.013847	0.055832	0.172452	0.033618	-0.516357	-0.317871	-0.482666	4.102514	35.679115	36.156267
41733		-5.915173	0.622212	8.008753	0.056711	0.162984	0.032685	-0.504883	-0.316162	-0.475098	4.155612	35.767105	36.190172
41734		-5.905599	0.656132	7.957912	0.046309	0.140749	0.023639	-0.514404	-0.305420	-0.483154	4.197944	35.842757	36.213625
41735		-5.956187	0.704547	7.944371	0.031362	0.128050	0.017754	-0.508301	-0.307129	-0.478760	4.229489	35.911374	36.235411
41736		-5.916346	0.683463	7.932346	0.020390	0.100802	0.006625	-0.506836	-0.307861	-0.478027	4.248828	35.964901	36.250543
41737		-5.897083	0.666398	7.914081	0.006259	0.080398	-0.006457	-0.508057	-0.320068	-0.481689	4.254559	36.007307	36.252818
41738		-5.938657	0.540260	7.920737	0.000514	0.058161	-0.008080	-0.506836	-0.310303	-0.480469	4.255144	36.037113	36.251013
41739		-5.943122	0.573461	7.868602	-0.004069	0.037231	-0.008306	-0.504883	-0.315674	-0.476563	4.252859	36.054933	36.249716
41740		-5.859500	0.606602	7.949775	-0.011936	0.025370	-0.015164	-0.502197	-0.317139	-0.477539	4.242350	36.066307	36.241496
41741		-5.829809	0.619045	7.946276	-0.019100	0.011065	-0.013454	-0.504395	-0.318115	-0.479248	4.228498	36.069393	36.235182
41742		-5.848686	0.576153	7.966359	-0.021514	0.017191	-0.013330	-0.506104	-0.303467	-0.487793	4.213020	36.076036	36.225686
41743		-5.850387	0.528625	7.934861	-0.020534	0.007249	-0.015918	-0.508545	-0.316895	-0.479004	4.197202	36.077042	36.217429
41744		-5.908569	0.530040	7.949932	-0.016711	0.003200	-0.007137	-0.508057	-0.312256	-0.473633	4.186601	36.075439	36.216214
41745		-5.891010	0.490252	7.947560	-0.011068	-0.001523	-0.004176	-0.504395	-0.314941	-0.482666	4.180827	36.070940	36.215805
41746		-5.881912	0.509446	7.937448	-0.013593	-0.005376	0.001303	-0.504395	-0.317627	-0.477539	4.175286	36.064046	36.217511
41747		-5.903588	0.514409	7.930156	-0.012103	-0.012035	0.007310	-0.516113	-0.317139	-0.481934	4.173381	36.053061	36.224680
41748		-5.911618	0.448975	7.910687	-0.009254	-0.023122	0.014675	-0.504639	-0.322510	-0.476807	4.175352	36.035458	36.233405
41749		-5.945450	0.436129	7.855721	-0.008247	-0.045277	0.022074	-0.497803	-0.311523	-0.489746	4.180775	36.004860	36.249285
41750		-5.958796	0.396849	7.879674	-0.004957	-0.061329	0.036914	-0.511230	-0.315430	-0.482422	4.193212	35.964634	36.272776
41751		-5.948553	0.465801	7.845213	-0.000380	-0.090053	0.051982	-0.512451	-0.306641	-0.477295	4.214127	35.907188	36.307406
41752		-5.890679	0.568876	7.858786	0.001728	-0.112179	0.051384	-0.509766	-0.308350	-0.489502	4.234749	35.837177	36.340479
41753		-5.840863	0.528120	7.871197	0.003636	-0.130317	0.057241	-0.510742	-0.312744	-0.476807	4.258765	35.756481	36.376594
41754		-5.806421	0.571074	7.917850	0.005684	-0.143715	0.059506	-0.509521	-0.316162	-0.479004	4.283849	35.668168	36.414070
41755		-5.760497	0.645277	8.034641	0.003383	-0.146334	0.056648	-0.499512	-0.307617	-0.476318	4.306800	35.578321	36.448759
41756		-5.718805	0.651887	7.960319	0.000528	-0.153974	0.051632	-0.512207	-0.313232	-0.477295	4.325219	35.484489	36.478799
41757		-5.679077	0.681157	7.986828	-0.005089	-0.147509	0.042191	-0.517334	-0.309082	-0.468506	4.337226	35.394579	36.503139
41758		-5.670733	0.616213	8.034457	-0.010921	-0.154034	0.035184	-0.514404	-0.308838	-0.477539	4.342309	35.301310	36.521175
41759		-5.607840	0.569593	7.936972	-0.018839	-0.158895	0.037601	-0.521973	-0.307373	-0.482422	4.344124	35.205091	36.541620
41760		-5.420138	0.569480	7.977797	-0.013768	-0.159946	0.023632	-0.513916	-0.309082	-0.473389	4.342639	35.109009	36.553144
41761		-5.495960	0.706035	8.118994	-0.019007	-0.147957	0.018199	-0.519775	-0.308594	-0.476074	4.336833	35.019881	36.560585
41762		-5.592370	0.619739	7.986182	-0.023537	-0.134934	0.008465	-0.519775	-0.315186	-0.471924	4.324438	34.938720	36.561941
41763		-5.664045	0.527749	8.090825	-0.016310	-0.129383	0.003781	-0.519775	-0.313965	-0.473877	4.314985	34.860828	36.560339
41764		-5.384338	0.703719	7.982024	-0.008385	-0.119301	-0.000527	-0.524658	-0.303955	-0.469727	4.308195	34.788971	36.553979
41765		-5.300921	0.909834	8.164583	-0.008386	-0.085327	-0.009846	-0.517090	-0.311035	-0.475098	4.299214	34.736835	36.545235
41766		-5.384164	0.818154	8.206254	-0.021788	-0.050689	-0.029499	-0.528320	-0.310303	-0.466553	4.275353	34.705401	36.525171
41767		-5.553600	0.340739	8.116607	-0.015372	-0.033915	-0.022136	-0.514160	-0.303711	-0.473145	4.259060	34.683161	36.510600
41768		-5.663620	0.368634	8.081698	0.002600	-0.032371	-0.009138	-0.524170	-0.308838	-0.477783	4.257797	34.661287	36.505570
41769		-5.702298	0.447210	8.030012	0.011881	-0.038458	-0.000415	-0.515869	-0.308594	-0.476807	4.265579	34.635525	36.505860
41770		-5.598082	0.467065	7.981222	0.018663	-0.046655	0.007340	-0.523926	-0.309326	-0.468750	4.279559	34.604873	36.511740
41771		-5.553230	0.572131	8.101741	0.024576	-0.043646	0.009548	-0.520508	-0.310059	-0.478516	4.298378	34.575720	36.518660
41772		-5.588096	0.584864	8.148674	0.023342	-0.039703	0.006434	-0.528809	-0.311279	-0.477539	4.314880	34.549036	36.523582
41773		-5.545641	0.621648	8.136434	0.025817	-0.022351	0.000417	-0.531006	-0.306885	-0.476807	4.331433	34.532439	36.525260
41774		-5.539334	0.758018	8.230053	0.015907	-0.012546	-0.007502	-0.520996	-0.317871	-0.472656	4.338997	34.521848	36.523001
41775		-5.556507	0.717834	8.251311	0.009145	0.005644	-0.020509	-0.527344	-0.310303	-0.468018	4.338604	34.522153	36.511636
41776		-5.451937	0.610401	8.245918	0.010236	0.023931	-0.032529	-0.514893	-0.307861	-0.464844	4.334203	34.533463	36.491181
41777		-5.503934	0.711782	8.231642	0.002092	0.050054	-0.042151	-0.520996	-0.311279	-0.475586	4.322573	34.560074	36.467133
41778		-5.545164	0.481730	8.156952	0.007206	0.076023	-0.039637	-0.527344	-0.302734	-0.469238	4.315152	34.601473	36.445929
41779		-5.556026	0.336037	8.209272	0.029540	0.104270	-0.026252	-0.524414	-0.313965	-0.470215	4.327094	34.658370	36.435736
41780		-5.519136	0.450269	8.230039	0.046451	0.126274	-0.014093	-0.526123	-0.309082	-0.480957	4.353730	34.727292	36.435725
41781		-5.547766	0.492364	8.225071	0.056283	0.143955	-0.005561	-0.523438	-0.315430	-0.471191	4.390408	34.805964	36.442076
41782		-5.565799	0.700606	8.150673	0.059373	0.166308	-0.009550	-0.515625	-0.311523	-0.473877	4.427512	34.897591	36.447054
41783		-5.620206	0.826778	8.117208	0.041461	0.183439	-0.025037	-0.514648	-0.319824	-0.470459	4.449234	34.999676	36.442093
41784		-5.668952	0.723053	8.048053	0.029209	0.180566	-0.048191	-0.519287	-0.302002	-0.473145	4.454108	35.101172	36.418743
41785		-5.711306	0.695092	8.019892	0.017997	0.181264	-0.057046	-0.520020	-0.313232	-0.468750	4.449438	35.203439	36.391317
41786		-5.740800	0.672300	7.960760	-0.010613	0.173628	-0.082641	-0.516113	-0.308838	-0.482178	4.417274	35.302415	36.346614
41787		-5.762874	0.846772	7.955567	-0.043887	0.162487	-0.120253	-0.508789	-0.311768	-0.477783	4.350749	35.396697	36.273694
41788		-5.776098	0.755986	7.965567	-0.064806	0.147192	-0.144210	-0.512451	-0.311768	-0.475342	4.261333	35.483250	36.184027
41789		-5.767609	0.646179	7.903809	-0.072904	0.138018	-0.154080	-0.507080	-0.308594	-0.472412	4.163173	35.564795	36.085587
41790		-5.712165	0.771822	7.883419	-0.080897	0.118365	-0.160430	-0.512695	-0.315186	-0.478516	4.056574	35.635219	35.981424
41791		-5.708861	0.561210	7.852333	-0.085058	0.101644	-0.166230	-0.510742	-0.312500	-0.470947	3.944908	35.696164	35.872103
41792		-5.738820	0.561820	7.919356	-0.080268	0.103355	-0.165521	-0.509277	-0.310303	-0.486328	3.835710	35.757843	35.762329
41793		-5.773431	0.485470	7.945154	-0.072756	0.094485	-0.155623	-0.511719	-0.316650	-0.476807	3.734821	35.813959	35.659702
41794		-5.785451	0.483802	7.960991	-0.058580	0.084469	-0.145996	-0.504639	-0.313477	-0.481445	3.645171	35.863859	35.563856
41795		-5.789216	0.582090	7.948856	-0.064250	0.079162	-0.143724	-0.504150	-0.312988	-0.480957	3.553324	35.910513	35.468592
41796		-5.786565	0.510101	7.952507	-0.064872	0.074616	-0.144190	-0.511719	-0.315186	-0.481201	3.460255	35.954489	35.372980
41797		-5.793006	0.541746	7.979818	-0.058085	0.068224	-0.142816	-0.512207	-0.310547	-0.478760	3.371759	35.994610	35.277607
41798		-5.803339	0.407030	7.903240	-0.052880	0.073236	-0.133371	-0.510010	-0.312256	-0.485596	3.289797	36.037091	35.190225
41799		-5.764923	0.385168	7.914795	-0.045433	0.079125	-0.114617	-0.505127	-0.309326	-0.480469	3.220296	36.082313	35.115003
41800		-5.691733	0.458434	7.965619	-0.019406	0.076073	-0.092673	-0.505615	-0.307617	-0.473633	3.174291	36.125000	35.057381
41801		-5.742422	0.384362	7.962825	-0.002206	0.094507	-0.081065	-0.500488	-0.314453	-0.482178	3.143732	36.177860	35.006351
41802		-5.764989	0.404916	7.938728	-0.003043	0.112674	-0.095098	-0.503662	-0.312744	-0.482666	3.106767	36.241464	34.946549
41803		-5.723115	0.488309	7.919638	0.002767	0.129219	-0.093539	-0.494385	-0.313965	-0.486084	3.074419	36.314520	34.887835
41804		-5.697246	0.418970	7.986795	0.020608	0.152200	-0.081607	-0.503174	-0.313232	-0.486328	3.057309	36.400348	34.839147
41805		-5.587957	0.514768	7.919539	0.072039	0.178396	-0.022910	-0.503906	-0.313965	-0.480469	3.095382	36.499356	34.832397
41806		-5.667086	0.308249	8.017378	0.078099	0.238847	-0.054290	-0.502441	-0.316406	-0.480225	3.124665	36.633838	34.807183
41807		-5.761231	0.396381	8.109584	0.105019	0.289797	-0.043249	-0.498535	-0.319824	-0.478271	3.175628	36.797225	34.790429
41808		-5.854482	0.417477	8.065991	0.110507	0.349138	-0.070674	-0.497070	-0.315186	-0.481201	3.219082	36.995279	34.755281
41809		-5.842957	0.535355	8.072927	0.116984	0.400275	-0.089690	-0.481689	-0.321533	-0.487549	3.259556	37.223389	34.709932
41810		-5.858259	0.660168	8.068212	0.147906	0.453206	-0.064574	-0.487549	-0.320313	-0.486328	3.329593	37.480905	34.683675
41811		-5.756456	0.466388	8.106210	0.141779	0.525880	-0.096612	-0.484619	-0.317627	-0.482178	3.384310	37.781163	34.638923
41812		-5.735471	0.467556	8.238113	0.150895	0.627179	-0.101349	-0.475098	-0.321777	-0.485840	3.444401	38.139390	34.594197
41813		-5.583163	0.336320	8.335448	0.157555	0.746834	-0.121179	-0.480469	-0.322510	-0.487305	3.502874	38.566937	34.541647
41814		-5.641608	0.129249	8.275361	0.195403	0.902510	-0.120349	-0.471924	-0.314697	-0.496338	3.587389	39.083296	34.495301
41815		-5.291704	-0.391989	8.579626	0.273701	1.065396	-0.099279	-0.460693	-0.319824	-0.496338	3.732170	39.692324	34.475054
41816		-5.391788	-0.213032	8.539951	0.333739	1.255479	-0.043662	-0.461670	-0.330322	-0.498779	3.945026	40.407671	34.509401
41817		-5.633188	-0.623941	8.346329	0.385792	1.446707	0.035013	-0.435059	-0.326172	-0.506104	4.237079	41.229229	34.616790
41818		-5.094227	0.426922	8.497263	0.438462	1.634655	0.062428	-0.440430	-0.325684	-0.503418	4.586353	42.156161	34.762164
41819		-5.346036	-0.290612	8.434666	0.467568	1.895588	0.107692	-0.416748	-0.333496	-0.507813	4.997414	43.229477	34.972087
41820		-5.721880	0.260905	8.559829	0.495358	2.183339	0.128363	-0.415039	-0.336670	-0.513184	5.463253	44.464198	35.233835
41821		-5.391840	0.605067	8.467177	0.498279	2.451956	0.121367	-0.373291	-0.342773	-0.510986	5.961790	45.851310	35.533118
41822		-5.216638	0.541808	8.252791	0.489724	2.698677	0.118779	-0.356689	-0.352783	-0.520996	6.493596	47.376530	35.877998
41823		-4.993214	0.021192	8.099570	0.450689	3.003848	0.053525	-0.336426	-0.352051	-0.523926	7.015564	49.078165	36.230488
41824		-5.615287	0.114904	7.966885	0.343459	3.373538	-0.027866	-0.313232	-0.354248	-0.530029	7.486802	50.992882	36.587794
41825		-5.872782	0.436864	7.787569	0.300184	3.720052	0.008755	-0.281006	-0.351318	-0.520996	8.037526	53.100193	37.066974
41826		-4.936054	0.616529	7.838344	0.195131	4.113581	-0.011135	-0.250488	-0.353760	-0.527100	8.617295	55.428233	37.642658
41827		-5.623053	0.919410	7.608081	0.111120	4.637162	-0.024735	-0.221924	-0.359619	-0.523438	9.293878	58.051029	38.374471
41828		-4.967825	0.678120	7.846625	0.167199	5.054320	-0.118122	-0.176025	-0.361572	-0.520752	10.106805	60.911740	39.205912
41829		-7.433018	2.008379	7.277768	0.167108	5.692685	-0.234919	-0.127197	-0.360352	-0.508789	11.107000	64.138553	40.223989
41830		-8.459220	2.606798	7.755905	0.287660	6.195402	-0.240471	-0.090332	-0.367432	-0.509277	12.602791	67.635512	41.680656
41831		-10.781558	3.718842	8.132141	0.428773	6.620758	-0.331006	-0.036133	-0.359375	-0.498779	14.760932	71.362606	43.720378
41832		-14.477194	4.408917	8.009838	0.516209	6.932597	-0.630918	0.010254	-0.361328	-0.474365	17.594975	75.273136	46.367561
41833		-18.575191	4.084286	8.975352	0.640623	6.921504	-0.924154	0.060547	-0.368408	-0.452881	21.643813	79.184269	50.139502
41834		-20.365584	4.290293	9.279602	0.632674	6.598649	-1.205293	0.097412	-0.364014	-0.439453	28.131222	82.903513	56.335445
41835		-21.006901	4.368271	10.670743	0.687344	6.056281	-1.255599	0.139404	-0.378418	-0.411377	43.769980	86.159477	71.642213
41836		-19.273289	3.942260	10.771956	0.713338	5.420703	-1.304282	0.179932	-0.376221	-0.386475	100.066861	88.049899	127.583286
41837		-16.403215	4.794675	10.981589	0.684724	4.841756	-1.411414	0.211914	-0.371582	-0.369141	160.537017	86.689979	-172.290915
41838		-13.367490	3.577072	10.622981	0.621487	4.183859	-1.547635	0.236816	-0.369873	-0.347168	177.977958	84.482250	-155.160483
41839		-5.916122	0.930235	8.657355	0.672639	3.493319	-1.719331	0.256104	-0.375488	-0.331543	-173.707790	82.444228	-147.182029
41840		-14.002481	-7.209651	14.315689	1.475933	2.936113	-1.831779	0.270752	-0.373779	-0.316895	-167.736052	80.621599	-142.001777
41841		-21.095559	-0.760597	20.894308	2.535182	0.489290	-1.613465	0.275879	-0.385986	-0.308105	-161.477108	80.109623	-137.127611
41842		-9.589393	3.583870	15.281898	2.780886	-0.996404	-1.764723	0.280029	-0.382324	-0.310059	-153.210858	80.257591	-130.357889
41843		-3.158653	5.410487	11.033733	2.150924	-1.555271	-1.913266	0.271240	-0.380371	-0.315186	-143.732456	80.448770	-121.994911
41844		-1.486410	5.997404	9.050493	1.416916	-1.546353	-1.849119	0.262451	-0.387207	-0.334473	-134.685087	80.438209	-113.646489
41845		-0.562678	5.885914	8.030425	0.731398	-1.421713	-1.579846	0.258545	-0.381348	-0.331543	-127.135486	80.291481	-106.415033
41846		-0.619026	5.144798	7.506315	0.224040	-1.323258	-1.162303	0.258545	-0.375977	-0.339355	-121.145419	80.175871	-100.470294
41847		-1.039104	4.197238	7.496082	-0.050358	-1.354670	-0.609565	0.259277	-0.369385	-0.346191	-116.241850	80.246076	-95.465910
41848		-1.546421	3.417814	7.678818	-0.155007	-1.492145	-0.020652	0.245605	-0.365967	-0.351563	-111.616109	80.591700	-90.688078
41849		-2.080052	2.788153	7.790461	-0.177841	-1.702967	0.475786	0.239502	-0.366211	-0.359619	-106.507379	81.172077	-85.411745
41850		-2.901440	2.155461	8.008575	-0.167984	-1.966651	0.849717	0.234131	-0.369873	-0.382813	-99.892667	81.912522	-78.630811
41851		-4.217887	1.177312	8.403392	-0.088364	-2.329818	1.122691	0.221191	-0.376709	-0.391602	-90.509965	82.679483	-69.112976
41852		-5.240758	0.604878	8.609723	0.079109	-2.793960	1.316191	0.211914	-0.381592	-0.417480	-76.738209	83.259059	-55.287340
41853		-5.761657	0.611067	8.472262	0.223634	-3.282219	1.411896	0.199707	-0.382813	-0.441162	-59.129248	83.303638	-37.688349
41854		-5.948853	0.675450	8.020800	0.277211	-3.692609	1.438880	0.173828	-0.390137	-0.458740	-41.397553	82.571584	-19.987327
41855		-6.364339	0.659715	7.498695	0.265086	-4.000387	1.406419	0.144531	-0.402344	-0.486816	-27.491904	81.124976	-6.096476
41856		-7.230821	0.505774	7.435635	0.244360	-4.243117	1.353000	0.109863	-0.409668	-0.511719	-17.774556	79.161099	3.618452
41857		-8.662545	0.173151	7.784577	0.265088	-4.504082	1.359085	0.062988	-0.418701	-0.540283	-11.030893	76.848377	10.354817
41858		-9.378165	0.133113	7.865608	0.333312	-4.814857	1.415675	0.021484	-0.430664	-0.559326	-6.103715	74.224986	15.240643
41859		-9.549008	0.478439	7.674209	0.365391	-5.068192	1.498685	-0.033936	-0.436768	-0.577148	-2.418843	71.388118	18.876621
41860		-9.269258	0.923021	7.218855	0.302423	-5.188893	1.558299	-0.084473	-0.445557	-0.578369	0.358255	68.415626	21.644268
41861		-9.267552	1.109488	6.874620	0.173727	-5.141879	1.603575	-0.135742	-0.448242	-0.585449	2.451527	65.443702	23.809637
41862		-9.678393	1.253017	6.932172	0.029668	-5.003929	1.665362	-0.177246	-0.447266	-0.575439	4.095708	62.510737	25.615727
41863		-10.478058	1.722124	7.458842	-0.124766	-4.845787	1.761654	-0.226074	-0.444336	-0.576660	5.432571	59.655978	27.223242
41864		-11.734587	2.251617	8.363925	-0.288728	-4.721750	1.901436	-0.260010	-0.447266	-0.582031	6.568570	56.835242	28.749276
41865		-12.746337	2.865758	9.204406	-0.467982	-4.686424	2.081786	-0.292236	-0.437012	-0.579590	7.543358	54.019810	30.257363
41866		-13.296031	3.554189	9.825556	-0.679693	-4.699018	2.244442	-0.344971	-0.427734	-0.581299	8.338436	51.159186	31.744252
41867		-13.624725	3.941893	10.240346	-0.906506	-4.715861	2.347376	-0.385742	-0.417725	-0.574463	8.913063	48.281899	33.176889
41868		-13.829280	3.763239	10.367324	-1.085542	-4.736913	2.371079	-0.436035	-0.401611	-0.572754	9.267964	45.370901	34.512229
41869		-13.834619	3.413788	10.421493	-1.172946	-4.750661	2.320584	-0.474854	-0.390625	-0.555664	9.435846	42.464991	35.721800
41870		-13.792068	2.860693	10.432995	-1.148806	-4.754284	2.184662	-0.519775	-0.368408	-0.548340	9.465449	39.556289	36.766104
41871		-13.651587	2.472587	10.285763	-1.012851	-4.727441	1.987482	-0.566406	-0.366943	-0.524658	9.420136	36.693501	37.631298
41872		-13.843939	2.222704	10.201325	-0.789238	-4.670175	1.734710	-0.604248	-0.350830	-0.500244	9.355330	33.875676	38.298291
41873		-14.208275	2.183492	10.080533	-0.508373	-4.618717	1.453533	-0.644531	-0.341553	-0.472168	9.316037	31.125300	38.765728
41874		-14.590800	2.130663	9.937191	-0.181510	-4.565790	1.189795	-0.680420	-0.340332	-0.445801	9.356014	28.418197	39.052054
41875		-14.938769	2.030091	9.708070	0.176595	-4.532340	0.979718	-0.721436	-0.342773	-0.415527	9.524310	25.760466	39.197577
41876		-15.292416	1.655039	9.310874	0.557935	-4.507689	0.871457	-0.760742	-0.355957	-0.382813	9.871673	23.116117	39.260565
41877		-14.914073	1.253306	8.372269	0.929056	-4.475225	0.868901	-0.799072	-0.352783	-0.344971	10.420922	20.500399	39.303721
41878		-13.909133	1.226949	7.141722	1.173719	-4.337340	0.924805	-0.826904	-0.371582	-0.305176	11.114580	17.946504	39.363543
41879		-13.481311	0.969919	5.861061	1.247566	-4.074977	1.019307	-0.852783	-0.367188	-0.262695	11.863063	15.538136	39.477255
41880		-13.861476	0.641195	4.526809	1.188985	-3.744197	1.104658	-0.881104	-0.370117	-0.229004	12.587828	13.294861	39.647108
41881		-14.521834	0.203798	2.856367	1.023338	-3.382111	1.125151	-0.894043	-0.383057	-0.178467	13.217945	11.257949	39.848905
41882		-15.489364	-0.581428	0.757142	0.815336	-2.995380	1.031308	-0.914063	-0.368652	-0.144287	13.718067	9.439742	40.027003
41883		-16.684196	-1.500975	-1.849947	0.666478	-2.593392	0.819553	-0.925537	-0.370605	-0.115723	14.115973	7.880405	40.127998
41884		-18.469214	-2.184868	-4.453329	0.574199	-2.178633	0.515190	-0.937500	-0.378174	-0.073730	14.443003	6.587689	40.106418
41885		-19.840892	-2.491821	-6.976358	0.501099	-1.772458	0.176803	-0.944824	-0.375732	-0.041748	14.714289	5.575213	39.949352
41886		-20.217161	-2.084484	-8.956665	0.300796	-1.282495	-0.106169	-0.948730	-0.380859	-0.026123	14.864801	4.871721	39.702584
41887		-19.552433	-1.264228	-9.584446	-0.139100	-0.712017	-0.350775	-0.952148	-0.380371	-0.008301	14.761486	4.524569	39.404362
41888		-19.378293	-0.340997	-8.990248	-0.753167	0.115248	-0.530555	-0.954590	-0.377686	0.000244	14.308419	4.657985	39.126744
41889		-20.094252	-0.542135	-6.792899	-1.401580	0.695902	-0.694444	-0.958008	-0.380127	0.002197	13.481411	5.136471	38.836641
41890		-17.841118	-2.113339	-3.289478	-1.769891	1.073554	-0.885346	-0.967041	-0.389648	0.001953	12.433999	5.844613	38.479948
41891		-9.623502	-9.077441	4.155703	-0.571750	1.882847	-2.262565	-0.974854	-0.396729	-0.005127	11.988881	7.169164	37.435978
41892		1.928640	3.547115	15.913043	-0.202416	1.328893	-2.443526	-0.980225	-0.413574	-0.010010	11.709651	8.198002	36.212710
41893		10.761468	5.799087	23.141799	-0.536528	1.349246	-2.008095	-0.990967	-0.419434	-0.009033	11.254477	9.180595	35.229414
41894		12.737335	13.494486	13.781348	-0.615216	2.093466	-0.933182	-0.992676	-0.432129	-0.016113	10.851613	10.455697	34.931749
41895		3.027375	13.870245	4.600540	-1.185048	3.345846	0.010622	-0.996338	-0.422119	-0.034180	10.245665	12.335185	35.297561
41896		-6.711027	3.298364	3.397204	-0.869343	4.205963	0.957365	-0.996338	-0.403320	-0.054688	9.980021	14.605891	36.289548
41897		-14.357920	-4.020119	12.964108	-0.336796	4.228808	1.504453	-1.002930	-0.394775	-0.081299	10.146458	16.837016	37.612787
41898		-14.042143	-10.721958	15.129584	0.071355	3.588078	0.946937	-1.013184	-0.380615	-0.100830	10.478608	18.757777	38.561669
41899		-10.710103	-9.011267	11.517790	0.645980	3.324792	0.253380	-1.003906	-0.384766	-0.114258	11.028301	20.598183	39.092372
41900		-13.139490	5.025555	13.878237	0.764491	3.087924	0.217685	-1.015137	-0.380615	-0.129883	11.651834	22.304281	39.598996
41901		-11.723469	11.447930	10.647011	0.167371	2.707917	0.316344	-1.007080	-0.375488	-0.137207	11.959730	23.781852	40.138475
41902		-12.802603	4.554564	11.309136	-0.258090	2.473166	0.180577	-1.007324	-0.375000	-0.158447	11.992986	25.143001	40.574429
41903		-13.019311	-2.422612	11.617502	-0.248443	1.810137	-0.240067	-0.998535	-0.377686	-0.174316	11.890659	26.182086	40.664976
41904		-8.393090	2.408747	9.481647	-0.056979	1.364349	-0.287226	-1.010498	-0.380371	-0.176270	11.859180	26.977959	40.666566
41905		-6.440082	4.794645	9.142651	-0.151261	1.282869	-0.096138	-1.003662	-0.375488	-0.188232	11.824263	27.704589	40.777472
41906		-6.789053	1.410647	9.448392	-0.250389	1.126421	-0.164461	-1.009766	-0.369141	-0.201416	11.703210	28.352844	40.823957
41907		-6.555594	1.910327	9.043049	-0.208173	0.938029	-0.131079	-0.992432	-0.382080	-0.196777	11.604728	28.890330	40.865672
41908		-6.034836	2.748295	8.731015	-0.259421	0.806226	-0.145267	-0.999756	-0.375000	-0.211914	11.463612	29.356909	40.880022
41909		-6.652696	1.490884	8.932365	-0.265089	0.676887	-0.164529	-1.001221	-0.375000	-0.211182	11.304464	29.751666	40.863656
41910		-5.653317	1.309802	8.656097	-0.216831	0.554804	-0.168463	-0.995117	-0.379639	-0.220459	11.162957	30.079686	40.827913
41911		-5.634442	1.710197	8.840724	-0.177164	0.522925	-0.158299	-1.001465	-0.373291	-0.223633	11.044978	30.387119	40.793593
41912		-6.081754	1.386006	8.873678	-0.167732	0.472547	-0.159276	-0.996338	-0.375977	-0.230469	10.928053	30.667765	40.751554
41913		-6.056945	0.955382	8.663900	-0.129482	0.390593	-0.128990	-1.005127	-0.369629	-0.224121	10.837600	30.897453	40.718190
41914		-5.785634	0.737386	8.663850	-0.066106	0.346080	-0.096170	-0.991699	-0.371094	-0.220947	10.791110	31.100087	40.700519
41915		-5.924561	1.096226	8.587133	-0.000624	0.295504	-0.051599	-0.991943	-0.365723	-0.237305	10.794184	31.267909	40.705581
41916		-5.371338	1.331095	8.312911	0.027053	0.272918	-0.025530	-1.002930	-0.380615	-0.243896	10.820283	31.421818	40.725129
41917		-5.134831	1.040129	8.291671	0.056232	0.276219	0.010745	-0.983154	-0.373535	-0.237549	10.876287	31.572060	40.769104
41918		-5.232037	1.093708	8.386183	0.096375	0.278625	0.039691	-0.980957	-0.373535	-0.238525	10.965371	31.722072	40.832880
41919		-5.067232	1.597670	8.252714	0.113692	0.274313	0.043822	-0.994141	-0.375000	-0.239014	11.066241	31.867511	40.899154
41920		-4.929649	1.908252	8.192209	0.082117	0.269487	0.019483	-0.983398	-0.376953	-0.241455	11.140100	32.014432	40.949097
41921		-4.957458	1.896837	8.098639	0.044903	0.269970	-0.017407	-0.994629	-0.375488	-0.246826	11.180305	32.164078	40.974823
41922		-5.084862	2.083273	7.849790	-0.019421	0.247020	-0.068710	-0.989990	-0.373291	-0.246582	11.163599	32.308083	40.963589
41923		-4.951558	1.875618	7.998157	-0.080054	0.235250	-0.122707	-0.988525	-0.372559	-0.241211	11.092337	32.449866	40.914655
41924		-5.318651	1.535387	8.086900	-0.093864	0.226188	-0.127219	-0.983398	-0.374512	-0.239258	11.010325	32.588545	40.861315
41925		-5.107928	1.773801	8.016927	-0.109020	0.216373	-0.131270	-0.987305	-0.375732	-0.248535	10.917522	32.720524	40.803585
41926		-5.238012	1.624578	8.057082	-0.123929	0.217370	-0.148915	-0.986816	-0.375488	-0.251465	10.809225	32.856426	40.733896
41927		-5.448343	1.653890	8.018589	-0.147477	0.222380	-0.155095	-0.982666	-0.379883	-0.257568	10.685471	32.994148	40.660182
41928		-5.460382	1.529253	8.052498	-0.167147	0.211849	-0.179652	-0.988525	-0.371582	-0.254883	10.539991	33.129923	40.568229
41929		-5.569662	1.667595	7.978163	-0.174761	0.195677	-0.188593	-0.982666	-0.385010	-0.258545	10.385580	33.255775	40.467601
41930		-5.419956	1.601645	7.992901	-0.187339	0.184218	-0.196555	-0.992676	-0.376465	-0.262451	10.219446	33.377293	40.359724
41931		-5.428337	1.849326	8.035796	-0.224829	0.191523	-0.234728	-0.981934	-0.379150	-0.253662	10.017866	33.504939	40.226219
41932		-5.627448	1.973458	7.984963	-0.265221	0.179639	-0.250347	-0.979248	-0.379395	-0.256104	9.785563	33.628533	40.080056
41933		-5.554464	2.016528	7.938246	-0.339767	0.178011	-0.307626	-0.980957	-0.375000	-0.255127	9.488397	33.754597	39.893830
41934		-5.746171	1.930646	7.935474	-0.394107	0.159093	-0.348498	-0.985352	-0.385254	-0.265137	9.142259	33.874427	39.676692
41935		-5.803124	1.558693	7.935397	-0.419977	0.145013	-0.342959	-0.983398	-0.379639	-0.262939	8.781782	33.983136	39.460521
41936		-5.790213	1.260162	7.804599	-0.445854	0.142508	-0.364950	-0.984131	-0.382813	-0.264160	8.396751	34.092698	39.228082
41937		-5.745840	1.156207	7.665093	-0.471090	0.177102	-0.365315	-0.986816	-0.377441	-0.257813	7.998156	34.219027	38.997446
41938		-5.613700	1.184650	7.834479	-0.501275	0.189636	-0.402186	-0.979248	-0.379150	-0.260498	7.567195	34.355535	38.741343
41939		-5.350841	1.002670	8.072725	-0.507232	0.192046	-0.427188	-0.987793	-0.380859	-0.266602	7.121964	34.492033	38.466419
41940		-5.265872	1.273544	8.107501	-0.505377	0.190021	-0.430319	-0.984863	-0.371582	-0.267822	6.674737	34.627404	38.187573
41941		-5.288753	1.169119	8.303584	-0.496929	0.201048	-0.448480	-0.984131	-0.375488	-0.266357	6.224366	34.766838	37.895145
41942		-5.624504	0.730760	8.443133	-0.447727	0.226923	-0.427718	-0.984863	-0.380615	-0.271240	5.809659	34.919489	37.617371
41943		-5.977222	0.569077	8.231047	-0.360061	0.237451	-0.366579	-0.983398	-0.375000	-0.272461	5.468612	35.071655	37.381009
41944		-5.921876	-0.026965	8.192971	-0.252817	0.242386	-0.265980	-0.991699	-0.372559	-0.277344	5.228053	35.221806	37.213890
41945		-6.017511	-0.053560	8.244381	-0.215674	0.264979	-0.282250	-0.981934	-0.374512	-0.279053	5.002275	35.383596	37.035631
41946		-5.679894	0.429903	8.048455	-0.164898	0.270688	-0.245292	-0.985596	-0.381104	-0.278320	4.819445	35.547847	36.882613
41947		-5.740200	0.168996	8.110963	-0.093528	0.293432	-0.173102	-0.981201	-0.379883	-0.281982	4.707317	35.719794	36.780744
41948		-5.570756	0.710666	8.030912	-0.089110	0.307033	-0.170865	-0.982910	-0.385254	-0.287109	4.598082	35.900766	36.680625
41949		-5.732346	0.581595	8.080580	-0.079428	0.347033	-0.182190	-0.979004	-0.382568	-0.285156	4.490744	36.103422	36.574062
41950		-5.855567	0.553712	8.016951	-0.084349	0.363860	-0.213518	-0.978027	-0.385742	-0.282959	4.366848	36.318402	36.445473
41951		-5.784175	0.645649	8.011267	-0.061379	0.380380	-0.179063	-0.981689	-0.388672	-0.282227	4.270656	36.539635	36.341344
41952		-5.777199	0.557198	8.044079	0.004166	0.413034	-0.107129	-0.973145	-0.393066	-0.301025	4.242536	36.777861	36.289585
41953		-5.703051	0.802325	8.038301	-0.022904	0.463570	-0.164174	-0.979004	-0.392334	-0.293213	4.175993	37.045843	36.199289
41954		-5.875370	0.623580	7.963405	0.010308	0.515986	-0.143353	-0.965332	-0.396484	-0.299805	4.138010	37.344305	36.126024
41955		-5.907605	0.318956	8.053372	0.025754	0.576352	-0.174920	-0.965332	-0.390625	-0.303467	4.096673	37.677065	36.032574
41956		-5.893674	0.297537	7.983987	0.067660	0.648354	-0.166185	-0.965088	-0.394287	-0.312500	4.084240	38.052016	35.948517
41957		-5.866134	0.489416	8.053937	0.129361	0.729008	-0.101803	-0.959473	-0.390137	-0.312500	4.138580	38.469006	35.915268
41958		-5.880799	0.322569	8.241671	0.163148	0.835261	-0.117609	-0.958984	-0.392334	-0.317383	4.208169	38.948797	35.876454
41959		-5.768504	0.497551	8.167835	0.163363	0.961716	-0.135572	-0.952393	-0.400635	-0.324463	4.274338	39.500243	35.831795
41960		-5.603454	-0.129042	8.303422	0.220363	1.119391	-0.125289	-0.954102	-0.409424	-0.334229	4.383369	40.142713	35.804300
41961		-5.608622	0.200347	8.248731	0.264190	1.351935	-0.020987	-0.947021	-0.399414	-0.340576	4.578837	40.912064	35.870913
41962		-5.819664	0.019912	8.203331	0.311318	1.492685	-0.025909	-0.938232	-0.408691	-0.347168	4.807844	41.763061	35.947037
41963		-5.773547	-0.588950	8.121413	0.352370	1.664609	0.025553	-0.930420	-0.409912	-0.361572	5.100451	42.708145	36.080776
41964		-5.785813	-0.708579	8.076989	0.422490	1.852736	0.115211	-0.919189	-0.409424	-0.376709	5.498547	43.756333	36.308102
41965		-5.630065	-0.569218	8.057961	0.495288	2.060880	0.233988	-0.908203	-0.412598	-0.390625	6.031336	44.913827	36.663222
41966		-5.360632	-0.152089	8.315794	0.572914	2.321587	0.327699	-0.900635	-0.413330	-0.397705	6.702307	46.212100	37.142806
41967		-5.761691	0.180684	8.605503	0.583367	2.663208	0.400493	-0.879639	-0.412842	-0.403564	7.484999	47.694092	37.755259
41968		-4.909690	0.418917	8.617087	0.552450	2.982027	0.424699	-0.865479	-0.412598	-0.430176	8.342213	49.349794	38.476501
41969		-4.999038	0.981038	8.382823	0.508353	3.412213	0.391091	-0.856934	-0.411377	-0.444580	9.263587	51.243597	39.294295
41970		-4.566341	0.387773	8.319427	0.449258	3.864718	0.297737	-0.838135	-0.424072	-0.473389	10.225956	53.393687	40.184483
41971		-5.183488	0.791625	8.221098	0.345488	4.465711	0.166326	-0.800293	-0.420410	-0.488037	11.230391	55.885942	41.172117
41972		-4.726689	0.862898	8.905273	0.394071	5.016496	0.261622	-0.781738	-0.419678	-0.513672	12.610424	58.663577	42.543259
41973		-5.641576	2.225094	8.175268	0.349741	5.702517	0.075832	-0.742920	-0.437744	-0.538574	14.214397	61.827872	44.158355
41974		-6.398573	2.221245	8.432707	0.551196	6.338826	0.150538	-0.710205	-0.433594	-0.566650	16.643550	65.302283	46.516686
41975		-9.276862	2.748226	8.409091	0.709030	7.010141	-0.007064	-0.667969	-0.442383	-0.595703	20.054965	69.113093	49.773398
41976		-12.745675	3.289302	8.201349	0.998276	7.501252	-0.109903	-0.626709	-0.444092	-0.608643	25.303556	73.101723	54.712068
41977		-17.800377	2.305477	8.862020	1.240530	7.760163	-0.328425	-0.561279	-0.465332	-0.633057	33.621739	77.070286	62.577950
41978		-19.026791	4.053369	8.799342	1.404982	7.702168	-0.575957	-0.508057	-0.469238	-0.647705	47.803811	80.650603	76.201756
41979		-19.479091	4.318453	10.417412	1.316100	7.358226	-0.755677	-0.454590	-0.493408	-0.647217	73.019038	83.162653	100.894567
41980		-18.462357	3.574680	10.284763	1.419209	6.819017	-0.851484	-0.404785	-0.502197	-0.648193	108.097935	83.631359	135.374138
41981		-17.744096	5.430165	11.063852	1.428419	6.344173	-1.121469	-0.370605	-0.526123	-0.636475	136.608714	82.186518	163.268403
41982		-15.845014	6.453132	12.580629	1.286128	5.605993	-1.419026	-0.334229	-0.537354	-0.613770	153.377847	80.004408	179.489512
41983		-13.907413	5.627719	12.186333	1.174856	4.592522	-1.638950	-0.316895	-0.543213	-0.589844	163.473398	77.897961	-170.913529
41984		-1.739534	2.871786	9.688956	0.959525	3.642152	-1.858822	-0.307861	-0.549072	-0.567139	170.537422	76.108129	-164.230460
41985		-29.015654	1.092796	25.532296	1.497327	2.276080	-1.330598	-0.316895	-0.564941	-0.529297	174.949937	74.913497	-160.560248
41986		-20.837390	6.496509	25.569471	1.645355	-1.604121	-1.076342	-0.355713	-0.579834	-0.489746	178.025334	75.878390	-158.358003
41987		-5.310721	8.790082	17.437389	0.925137	-3.169031	-1.194460	-0.393066	-0.584717	-0.431641	-178.575024	77.701594	-155.411721
41988		-0.548148	7.489043	11.621514	-0.089203	-3.639117	-1.327483	-0.431396	-0.591797	-0.379639	-174.170950	79.748177	-150.871641
41989		-0.255375	4.802741	8.854987	-0.577624	-3.557968	-1.231415	-0.454102	-0.595703	-0.326904	-168.355422	81.662685	-144.645197
41990		-0.441426	3.249081	7.262089	-0.687244	-3.466240	-0.957998	-0.479492	-0.593262	-0.281494	-160.636706	83.447889	-136.467354
41991		-1.831322	2.257296	7.164393	-0.559474	-3.534657	-0.575820	-0.491943	-0.592285	-0.230713	-149.366628	85.157060	-124.821638
41992		-2.824829	2.320511	7.258767	-0.432757	-3.804617	-0.197355	-0.509033	-0.597656	-0.183838	-127.790312	86.759168	-102.949118
41993		-2.844189	2.452968	7.113405	-0.419005	-4.087802	0.076253	-0.523438	-0.605713	-0.134766	-82.114826	87.464930	-56.982792
41994		-2.888809	2.034904	6.784812	-0.467458	-4.294027	0.222519	-0.529297	-0.611084	-0.091553	-40.355593	86.313272	-14.904134
41995		-3.712823	1.169444	6.777285	-0.440307	-4.478480	0.319386	-0.533203	-0.603760	-0.036865	-22.494078	84.190629	3.267158
41996		-4.717750	0.127507	6.763133	-0.245824	-4.751699	0.386371	-0.518555	-0.609131	0.012451	-13.992139	81.654273	11.970562
41997		-4.859096	-0.281050	6.149378	0.066328	-5.025238	0.431897	-0.485596	-0.598877	0.059570	-9.152728	78.877618	16.839763
41998		-5.087676	-0.445002	5.360569	0.430570	-5.163525	0.460364	-0.453857	-0.602295	0.090576	-5.958519	75.963823	19.855062
41999		-5.452253	-0.105745	4.572653	0.757120	-5.139488	0.489449	-0.392334	-0.608887	0.111816	-3.618693	73.048950	21.831372
42000		-6.637733	0.838093	4.495849	0.977982	-5.028514	0.577050	-0.355713	-0.604248	0.104980	-1.648218	70.170348	23.312948
42001		-8.004194	1.672421	5.199218	1.025766	-4.968369	0.756339	-0.319580	-0.603516	0.081299	0.156422	67.325783	24.617250
42002		-8.626386	2.275959	5.753059	0.945662	-4.806841	1.048220	-0.304199	-0.599854	0.062500	1.942639	64.545008	25.975506
42003		-9.362771	2.000838	6.835468	0.746238	-4.728318	1.376801	-0.294434	-0.613770	0.023926	3.671259	61.796538	27.432069
42004		-10.210706	1.602006	7.827043	0.579973	-4.632588	1.710315	-0.298828	-0.617188	-0.012451	5.365759	59.056727	28.993579
42005		-11.125330	1.594306	8.720215	0.420076	-4.544880	1.977054	-0.301025	-0.611816	-0.039795	6.950378	56.342095	30.582058
42006		-12.548442	1.690753	9.514696	0.253626	-4.499954	2.135491	-0.319336	-0.613037	-0.060547	8.342867	53.607019	32.100435
42007		-13.652919	2.068596	9.777539	0.085409	-4.514328	2.164446	-0.338867	-0.597412	-0.087646	9.459939	50.855616	33.450217
42008		-14.503934	2.573065	9.884548	-0.122224	-4.546649	2.091982	-0.369873	-0.596436	-0.111816	10.253753	48.066917	34.582625
42009		-14.927284	2.911746	9.748055	-0.355425	-4.595297	1.930571	-0.389893	-0.577637	-0.122803	10.698347	45.272677	35.472453
42010		-15.076868	3.121047	9.610763	-0.577782	-4.629198	1.737985	-0.429443	-0.572021	-0.129395	10.834728	42.464360	36.142963
42011		-14.812789	3.269316	9.487066	-0.733875	-4.661798	1.562061	-0.452881	-0.557373	-0.135010	10.746810	39.668963	36.647937
42012		-14.472716	3.392655	9.469980	-0.809538	-4.694857	1.449698	-0.483154	-0.534668	-0.131836	10.537802	36.855695	37.055486
42013		-13.424272	3.718373	9.119255	-0.826820	-4.702805	1.400385	-0.502686	-0.526367	-0.125732	10.281316	34.056534	37.428652
42014		-12.609881	3.804073	8.800809	-0.791624	-4.628256	1.400158	-0.514893	-0.508301	-0.114014	10.036743	31.289175	37.811572
42015		-12.311596	3.776434	8.602200	-0.706214	-4.521380	1.428842	-0.527832	-0.497559	-0.102783	9.840804	28.592176	38.228116
42016		-12.192920	3.521537	8.396346	-0.567779	-4.384775	1.486660	-0.550537	-0.484863	-0.085205	9.730497	25.956614	38.692541
42017		-12.036008	3.211961	7.935276	-0.414716	-4.238828	1.530550	-0.550537	-0.475342	-0.071533	9.703356	23.410757	39.194565
42018		-11.717517	2.624838	7.259099	-0.250022	-4.044735	1.516932	-0.559082	-0.460693	-0.063965	9.751987	20.965417	39.697237
42019		-11.631830	1.709292	6.665815	-0.047857	-3.802402	1.426434	-0.552002	-0.460938	-0.054443	9.882392	18.675332	40.160224
42020		-11.625362	0.879068	6.344318	0.205386	-3.546138	1.251447	-0.554443	-0.450928	-0.043213	10.114185	16.536399	40.531378
42021		-11.671282	-0.109938	5.986056	0.506258	-3.293755	0.998807	-0.556641	-0.454346	-0.038086	10.468455	14.573315	40.767639
42022		-11.963096	-0.944036	5.634962	0.845124	-3.055695	0.712903	-0.556152	-0.455811	-0.035645	10.972764	12.764532	40.845918
42023		-12.231089	-1.282570	5.244757	1.171423	-2.846397	0.411192	-0.550293	-0.465332	-0.037842	11.626423	11.115074	40.757110
42024		-12.134522	-1.205484	4.497487	1.412991	-2.650254	0.121134	-0.550781	-0.474365	-0.035400	12.392036	9.603853	40.505384
42025		-11.739684	-0.881970	3.501816	1.539608	-2.393062	-0.112723	-0.544434	-0.480225	-0.033203	13.217543	8.277057	40.135565
42026		-11.920088	-0.379295	2.838901	1.555204	-2.095329	-0.283537	-0.551025	-0.487793	-0.035645	14.050104	7.138196	39.691174
42027		-12.119909	0.342108	2.238530	1.452579	-1.810816	-0.386917	-0.537842	-0.486572	-0.039063	14.828081	6.184592	39.215991
42028		-12.144072	0.735294	1.386812	1.257725	-1.527125	-0.450909	-0.546875	-0.500732	-0.038086	15.501303	5.398355	38.735853
42029		-12.208833	0.731147	0.443858	1.047003	-1.222946	-0.475634	-0.540283	-0.501465	-0.035156	16.061746	4.794020	38.282561
42030		-12.579394	0.762709	-0.433061	0.876367	-0.905686	-0.483495	-0.542725	-0.515137	-0.037598	16.532075	4.365572	37.870402
42031		-13.482028	0.975886	-1.017082	0.719058	-0.621992	-0.462814	-0.540527	-0.526855	-0.048584	16.918595	4.096398	37.514159
42032		-14.129730	1.371761	-1.935050	0.507014	-0.356295	-0.442210	-0.535645	-0.526611	-0.052979	17.189086	3.968738	37.212131
42033		-14.832934	1.433867	-2.834957	0.247359	-0.048411	-0.407627	-0.527100	-0.527344	-0.060791	17.315583	4.007317	36.981503
42034		-15.381415	3.587805	-2.942751	-0.056947	0.272984	-0.337884	-0.518555	-0.523193	-0.059814	17.274526	4.208896	36.843836
42035		-14.516029	6.844192	-7.813494	-1.892280	1.599898	-0.647859	-0.518066	-0.515869	-0.076904	16.183684	5.189418	36.753150
42036		-14.014518	-6.609685	-4.241610	-1.862154	2.432783	-0.940854	-0.498047	-0.522461	-0.079590	15.104036	6.673294	36.610585
42037		-8.633173	1.409942	14.185651	-1.355219	1.825348	-0.744116	-0.491455	-0.507568	-0.098145	14.309880	7.788966	36.463946
42038		9.360742	6.114849	22.796588	-1.271407	1.586126	-0.532518	-0.471680	-0.506592	-0.099121	13.572099	8.741905	36.387712
42039		14.041431	6.130922	18.416514	-1.730717	2.357753	-0.158291	-0.465088	-0.500000	-0.108154	12.617562	10.074102	36.609924
42040		3.646594	1.609032	5.917425	-1.885119	3.512935	0.094269	-0.445801	-0.486572	-0.131836	11.632378	12.026535	37.096175
42041		-10.281745	-4.401617	5.627951	-1.329560	4.190560	0.376509	-0.425049	-0.481934	-0.133789	11.031721	14.334312	37.799587
42042		-14.705408	-7.265509	13.012797	-0.584861	3.821588	0.602745	-0.408203	-0.483154	-0.149658	10.906414	16.414397	38.585157
42043		-11.398739	-8.540035	13.617460	-0.187549	3.467678	0.106474	-0.393066	-0.483398	-0.156982	10.936880	18.349654	39.044090
42044		-11.232850	-3.922996	13.132083	0.118342	3.241818	-0.456151	-0.375000	-0.487305	-0.159180	11.039847	20.219962	39.149201
42045		-9.662621	5.682464	11.552565	0.050428	3.059009	-0.422211	-0.350098	-0.479492	-0.162598	11.108493	21.982430	39.257345
42046		-10.337557	10.417722	10.158564	-0.409444	2.937693	-0.178534	-0.347412	-0.469238	-0.164795	10.968224	23.651752	39.499938
42047		-9.984985	3.971807	9.842699	-0.798839	2.760680	-0.377095	-0.322510	-0.466797	-0.170410	10.549807	25.241993	39.592962
42048		-12.616304	-0.498781	11.105384	-0.844549	2.248438	-0.728884	-0.316406	-0.473633	-0.168701	9.979491	26.582277	39.393590
42049		-9.380755	4.108742	9.342585	-0.951843	1.719794	-0.946958	-0.305664	-0.466797	-0.180908	9.246172	27.640413	38.979438
42050		-7.845905	5.186827	8.972936	-1.253977	1.521663	-0.927878	-0.292969	-0.454834	-0.184326	8.319938	28.582033	38.537197
42051		-8.497277	1.062147	9.947091	-1.420877	1.296492	-0.972888	-0.276611	-0.455322	-0.181396	7.257479	29.389613	38.023068
42052		-8.140763	-0.370451	9.316621	-1.324839	0.963996	-0.921283	-0.274414	-0.447754	-0.187988	6.238582	29.999287	37.497122
42053		-7.179800	-0.388392	9.143356	-1.177099	0.771240	-0.803202	-0.270996	-0.445557	-0.185791	5.325170	30.481413	37.021005
42054		-6.471707	-1.674917	9.319450	-0.981430	0.601687	-0.699298	-0.269531	-0.438721	-0.186035	4.545700	30.858772	36.594261
42055		-6.493635	-1.697852	9.300943	-0.712221	0.456358	-0.591464	-0.267334	-0.437744	-0.185547	3.948281	31.140804	36.225054
42056		-5.551061	-1.134224	8.628179	-0.497341	0.380889	-0.487150	-0.269775	-0.440186	-0.191406	3.504588	31.376270	35.918654
42057		-5.042927	-1.346223	8.599975	-0.313577	0.400280	-0.322187	-0.259521	-0.433594	-0.186523	3.222406	31.612261	35.720868
42058		-5.319988	-1.117505	8.559274	-0.155008	0.433643	-0.192397	-0.266846	-0.431885	-0.192871	3.075472	31.865974	35.610264
42059		-5.188813	-0.789144	8.424334	-0.009995	0.470577	-0.051580	-0.265869	-0.439941	-0.192871	3.062507	32.133014	35.595075
42060		-5.534348	-0.487937	8.349894	0.076243	0.493466	0.038079	-0.258057	-0.435059	-0.189209	3.130961	32.413727	35.641604
42061		-5.498868	-0.157050	8.325260	0.127973	0.498595	0.107967	-0.252930	-0.427490	-0.184326	3.256078	32.691731	35.736355
42062		-5.649474	0.168676	8.302596	0.143686	0.482296	0.137868	-0.248047	-0.440186	-0.186768	3.400925	32.962591	35.851943
42063		-5.503103	0.525417	8.286330	0.144212	0.462085	0.147307	-0.245605	-0.440186	-0.186035	3.551135	33.217950	35.974244
42064		-5.828412	0.997921	8.517771	0.158651	0.454159	0.151299	-0.255859	-0.428467	-0.190918	3.711110	33.471731	36.100166
42065		-5.631739	1.413505	8.248839	0.157374	0.404326	0.127825	-0.246826	-0.441162	-0.186768	3.862196	33.694247	36.208828
42066		-5.636980	1.323168	8.149083	0.105724	0.369273	0.081674	-0.243408	-0.437256	-0.192383	3.965105	33.901716	36.285051
42067		-5.419108	1.102511	8.166446	0.063233	0.358708	0.030484	-0.248291	-0.435303	-0.184814	4.024997	34.101713	36.325913
42068		-5.810170	1.006722	8.047912	0.022874	0.339467	-0.004322	-0.249756	-0.445068	-0.194092	4.047249	34.295472	36.342182
42069		-5.880603	0.523538	7.958504	0.007710	0.306485	-0.023386	-0.239258	-0.441162	-0.188965	4.053276	34.467770	36.343596
42070		-5.921401	0.402991	7.978870	0.008317	0.289736	-0.022054	-0.234375	-0.433838	-0.198242	4.059013	34.633846	36.345273
42071		-5.935283	0.545201	7.965883	-0.016378	0.268499	-0.032279	-0.236084	-0.436523	-0.191650	4.046668	34.784794	36.338648
42072		-5.809374	0.549957	7.918686	-0.023446	0.251672	-0.049606	-0.243896	-0.432373	-0.190186	4.022122	34.930255	36.319188
42073		-5.868395	0.431205	7.934369	-0.021033	0.235531	-0.044597	-0.238525	-0.443848	-0.189697	4.001138	35.062850	36.302200
42074		-5.726757	0.454905	7.939067	-0.012835	0.232916	-0.040784	-0.236328	-0.437256	-0.191406	3.985496	35.197244	36.287792
42075		-5.714381	0.442798	8.052924	-0.001568	0.239199	-0.040273	-0.235596	-0.433350	-0.189453	3.977369	35.331757	36.273868
42076		-5.805431	0.390992	8.052471	0.012514	0.253098	-0.034810	-0.231201	-0.439453	-0.191162	3.979121	35.477444	36.264529
42077		-5.827360	0.581212	7.953106	0.000640	0.269453	-0.059118	-0.222168	-0.424805	-0.184082	3.965317	35.629995	36.238765
42078		-5.843062	0.842576	7.954502	-0.039504	0.289113	-0.111438	-0.233398	-0.429199	-0.196777	3.906638	35.799275	36.177046
42079		-6.012074	1.167893	7.908178	-0.098803	0.282083	-0.178488	-0.224609	-0.430420	-0.187256	3.786421	35.963589	36.067139
42080		-6.195134	1.231618	7.806617	-0.136824	0.237461	-0.222864	-0.230225	-0.434082	-0.192139	3.623376	36.107262	35.923211
42081		-6.289105	1.155363	7.748302	-0.177678	0.185691	-0.270526	-0.219971	-0.427246	-0.183838	3.415664	36.219178	35.742356
42082		-6.362259	0.809789	7.763313	-0.208569	0.120726	-0.314623	-0.227783	-0.426758	-0.192383	3.168833	36.298289	35.526949
42083		-6.147828	0.743131	7.715149	-0.235250	0.066104	-0.337343	-0.226318	-0.431885	-0.190918	2.896055	36.342562	35.292608
42084		-6.022936	0.881674	7.903388	-0.242554	0.024247	-0.346521	-0.220215	-0.432617	-0.195801	2.613411	36.365740	35.050107
42085		-6.322898	0.427197	7.865057	-0.254923	-0.010930	-0.359670	-0.224365	-0.431885	-0.193115	2.318010	36.364597	34.796870
42086		-6.145141	0.333282	7.795987	-0.288146	-0.056856	-0.416881	-0.223877	-0.430176	-0.194336	1.978178	36.340796	34.501947
42087		-6.088744	0.452797	7.836134	-0.279262	-0.092544	-0.390529	-0.219727	-0.425537	-0.198242	1.655042	36.291167	34.225130
42088		-6.094366	0.351878	7.702385	-0.230685	-0.143857	-0.328167	-0.219238	-0.432373	-0.185059	1.385272	36.213602	33.992332
42089		-5.714756	0.545726	7.791637	-0.231146	-0.168716	-0.347987	-0.230225	-0.425293	-0.196289	1.108093	36.117592	33.745682
42090		-5.435584	0.460936	7.982631	-0.178035	-0.170980	-0.266868	-0.228516	-0.421387	-0.187988	0.895333	36.022185	33.557453
42091		-5.597667	0.419502	7.953008	-0.237078	-0.142929	-0.363492	-0.224121	-0.421875	-0.192871	0.610035	35.939353	33.301676
42092		-5.591190	-0.047027	8.076871	-0.225675	-0.109129	-0.352675	-0.222412	-0.414795	-0.191162	0.335925	35.878347	33.054629
42093		-5.417645	-0.254235	7.959850	-0.181322	-0.056631	-0.318579	-0.223877	-0.422363	-0.190918	0.102536	35.842937	32.832188
42094		-5.360544	-0.338167	8.143626	-0.171124	0.019311	-0.321384	-0.220459	-0.419678	-0.195068	-0.126715	35.853790	32.608072
42095		-5.493718	-0.377906	8.198084	-0.131918	0.098439	-0.267667	-0.220459	-0.418701	-0.196045	-0.310835	35.905964	32.421501
42096		-5.646264	-0.680816	8.132381	-0.060573	0.166258	-0.214075	-0.218262	-0.414551	-0.192383	-0.433160	36.000207	32.272263
42097		-5.547704	-0.469085	8.227709	-0.060382	0.235245	-0.233521	-0.228027	-0.418945	-0.191406	-0.563472	36.130194	32.108299
42098		-5.572884	-0.336206	8.162422	-0.022856	0.292189	-0.183953	-0.215576	-0.415283	-0.182861	-0.653320	36.296223	31.978485
42099		-5.708410	-0.359074	8.289959	-0.015618	0.363971	-0.217036	-0.216797	-0.414063	-0.188477	-0.753215	36.499600	31.823854
42100		-5.642708	-0.192538	8.312986	-0.007534	0.434543	-0.220280	-0.214600	-0.424561	-0.202393	-0.852228	36.746484	31.665266
42101		-5.671037	0.057509	8.321695	0.001815	0.527971	-0.211847	-0.215576	-0.406494	-0.196533	-0.943203	37.043437	31.510648
42102		-5.637274	0.076548	8.296496	0.023343	0.642558	-0.197943	-0.202148	-0.415771	-0.194824	-1.019044	37.409244	31.363328
42103		-5.786414	-0.296799	8.307084	0.040475	0.772257	-0.205779	-0.214355	-0.420654	-0.183594	-1.090298	37.845863	31.207309
42104		-5.838401	-0.506419	8.256014	0.068023	0.886715	-0.205880	-0.204346	-0.422119	-0.191650	-1.149809	38.351087	31.047843
42105		-5.783454	-0.604936	8.292105	0.104961	1.013145	-0.203754	-0.200928	-0.420166	-0.195313	-1.189664	38.925471	30.886404
42106		-5.797985	-0.669123	8.345373	0.138403	1.143180	-0.184204	-0.188965	-0.416748	-0.197021	-1.206006	39.577611	30.735459
42107		-5.910512	-0.882457	8.212676	0.166541	1.294301	-0.161838	-0.181885	-0.407959	-0.190186	-1.198377	40.313483	30.597464
42108		-5.461446	-1.306267	8.335863	0.278931	1.498671	-0.147761	-0.173096	-0.420410	-0.192627	-1.124726	41.169654	30.465728
42109		-5.523752	-0.503891	8.403720	0.260104	1.743638	-0.143839	-0.163574	-0.420166	-0.186768	-1.062994	42.163325	30.333193
42110		-5.321995	-0.886620	8.549154	0.333569	1.962848	-0.098086	-0.162598	-0.425781	-0.185303	-0.940204	43.286005	30.232833
42111		-5.344819	-0.705313	8.776553	0.366862	2.262646	-0.067196	-0.148193	-0.431396	-0.192383	-0.782697	44.578065	30.155714
42112		-5.153103	-0.397769	9.128767	0.383507	2.584500	-0.017253	-0.147461	-0.428467	-0.191895	-0.589134	46.057585	30.119266
42113		-5.374073	-0.505507	9.082729	0.407431	2.955966	-0.014025	-0.125977	-0.431396	-0.172363	-0.376111	47.747470	30.090174
42114		-4.877685	-0.753900	9.032583	0.462192	3.373302	-0.030546	-0.111084	-0.434814	-0.168457	-0.139245	49.678696	30.053262
42115		-4.043328	-0.793983	9.329401	0.531359	3.890369	-0.045323	-0.101074	-0.430176	-0.168213	0.137099	51.904059	30.015905
42116		-3.491681	-0.860236	9.079144	0.560864	4.508225	0.012496	-0.080078	-0.438721	-0.166260	0.488908	54.485050	30.054116
42117		-5.178617	-0.054073	8.898398	0.530958	5.282550	0.019094	-0.053955	-0.437744	-0.153564	0.866801	57.507706	30.141896
42118		-4.789786	0.063029	9.687371	0.400572	5.954600	-0.108321	-0.027832	-0.440918	-0.148193	1.092384	60.917450	30.137353
42119		-6.599842	1.227716	9.290778	0.402444	6.572581	-0.093293	-0.009277	-0.444336	-0.124268	1.382649	64.679834	30.203415
42120		-9.101372	1.338960	9.356536	0.462912	7.156175	-0.147372	0.027100	-0.438721	-0.111084	1.712327	68.777570	30.273248
42121		-15.804917	3.143243	9.423552	0.568211	7.498116	-0.181989	0.062256	-0.451172	-0.092529	2.164313	73.071010	30.405908
42122		-19.541170	2.328988	10.778250	0.862731	7.274198	-0.001123	0.090820	-0.453369	-0.064941	3.429160	77.230174	31.201853
42123		-20.451113	2.805398	11.316023	0.982686	6.775341	-0.093666	0.106934	-0.446045	-0.043945	5.262146	81.101471	32.493065
42124		-18.481493	3.397036	11.163248	0.792218	6.335326	-0.382687	0.129639	-0.460693	-0.024658	7.124231	84.729425	33.910486
42125		-16.581626	2.890049	11.567219	0.561686	5.946473	-0.733039	0.154297	-0.461426	-0.015869	7.986336	88.158247	34.450660
42126		-12.959199	3.134175	11.036249	0.537821	5.436561	-0.955319	0.163330	-0.462402	0.013672	-167.373742	88.682845	-141.220228
42127		-9.802539	2.444477	9.450047	0.711964	4.905803	-1.034672	0.188232	-0.465576	0.023682	-167.617660	85.814388	-141.873516
42128		-4.570666	-5.025242	10.769370	1.227515	4.129818	-1.180269	0.212158	-0.463135	0.031738	-165.732356	83.363183	-140.687848
42129		-30.404987	-3.008521	25.909958	2.457805	2.078551	-0.907877	0.223633	-0.464844	0.044678	-162.930377	82.080128	-139.283732
42130		-14.303158	4.198020	20.001847	2.782505	-0.652230	-1.089482	0.229492	-0.463623	0.031738	-156.135263	82.221636	-134.035432
42131		-4.084597	6.778995	14.399911	2.121945	-1.663967	-1.398029	0.245850	-0.471924	0.014404	-146.149229	82.675719	-125.189696
42132		-0.925313	6.158816	10.285232	1.219276	-1.907628	-1.544029	0.238037	-0.468994	-0.008057	-134.449142	82.963812	-114.104067
42133		-0.178196	4.586112	8.192930	0.611607	-1.810121	-1.417172	0.255615	-0.468506	-0.027832	-123.382011	82.987789	-103.307629
42134		-0.023739	3.014703	6.934081	0.364493	-1.717843	-1.083717	0.259766	-0.471436	-0.047852	-113.690449	82.921791	-93.755838
42135		-1.007069	2.197984	6.936815	0.400455	-1.776321	-0.590072	0.251465	-0.470947	-0.059570	-104.782208	82.941416	-85.011657
42136		-2.023726	2.266328	7.300985	0.507060	-1.984429	-0.085125	0.254639	-0.472168	-0.079834	-95.163828	83.097456	-75.617574
42137		-2.298766	2.713323	7.371975	0.479519	-2.250525	0.305386	0.243164	-0.480225	-0.099365	-84.046143	83.266667	-64.698715
42138		-2.688561	2.636455	7.337815	0.326341	-2.513104	0.588077	0.246338	-0.484863	-0.125977	-71.159880	83.288398	-51.915624
42139		-3.207678	1.999263	7.194503	0.172914	-2.769637	0.787785	0.224121	-0.490967	-0.143555	-57.463793	83.005851	-38.222560
42140		-3.987846	1.139001	7.261060	0.091636	-3.034150	0.920332	0.206055	-0.508301	-0.165039	-44.220903	82.306784	-24.927871
42141		-5.056158	0.289813	7.384484	0.111226	-3.393596	1.011592	0.188721	-0.512695	-0.198730	-32.677523	81.137107	-13.329599
42142		-5.303272	0.110060	7.209339	0.259340	-3.620846	1.093448	0.159668	-0.525391	-0.214355	-23.444542	79.584623	-4.120229
42143		-6.301717	0.252100	7.448139	0.359446	-3.912457	1.141487	0.135254	-0.532959	-0.229492	-16.357012	77.693322	2.896741
42144		-7.104023	0.399092	7.652076	0.447043	-4.176517	1.168659	0.111572	-0.534180	-0.242920	-10.955464	75.508978	8.181137
42145		-7.368551	0.764278	7.439916	0.487927	-4.420981	1.188840	0.081299	-0.546143	-0.256592	-6.870911	73.107439	12.131554
42146		-7.325975	0.994836	7.195775	0.471604	-4.574515	1.214043	0.052490	-0.552734	-0.268311	-3.729418	70.544429	15.148824
42147		-7.682180	1.099577	7.159335	0.440329	-4.624174	1.275338	0.020264	-0.566162	-0.280518	-1.240680	67.925057	17.539057
42148		-8.364497	1.365271	7.324447	0.399544	-4.641021	1.357620	-0.023193	-0.567139	-0.281006	0.822430	65.250775	19.533163
42149		-9.040936	1.787852	7.662887	0.302845	-4.631194	1.488663	-0.055664	-0.574463	-0.283203	2.581923	62.569111	21.297628
42150		-9.811944	2.022726	8.240131	0.170916	-4.616720	1.651702	-0.082520	-0.584961	-0.276611	4.128016	59.854484	22.945411
42151		-10.234578	2.201947	8.513256	0.039508	-4.591749	1.841297	-0.106201	-0.582031	-0.274658	5.509861	57.140199	24.538142
42152		-10.672198	2.487471	8.909203	-0.098713	-4.523981	2.026367	-0.141602	-0.589355	-0.281250	6.751186	54.419943	26.103191
42153		-11.613539	3.051834	9.603782	-0.248671	-4.450797	2.184489	-0.167969	-0.585205	-0.281250	7.833537	51.727441	27.633926
42154		-12.838610	3.608824	10.507921	-0.413265	-4.431604	2.303593	-0.183838	-0.590820	-0.266602	8.737298	49.005341	29.110498
42155		-13.723356	4.086554	11.152054	-0.574943	-4.502939	2.379844	-0.207764	-0.590820	-0.272949	9.439817	46.238192	30.506001
42156		-14.059770	4.444907	11.311529	-0.743344	-4.587953	2.396544	-0.221680	-0.585205	-0.274414	9.923557	43.396741	31.792365
42157		-14.138995	4.602104	11.235985	-0.893121	-4.646572	2.356790	-0.249756	-0.589111	-0.266357	10.191862	40.535412	32.957438
42158		-14.118148	4.512870	10.907016	-0.980494	-4.676630	2.272987	-0.268311	-0.596436	-0.277344	10.287329	37.648117	33.995731
42159		-13.985364	4.365300	10.585467	-0.997513	-4.677846	2.151078	-0.301270	-0.596680	-0.276123	10.255987	34.787010	34.908531
42160		-13.983955	4.088032	10.271952	-0.936556	-4.646965	2.005142	-0.315186	-0.600342	-0.278320	10.155773	31.944701	35.697975
42161		-13.962514	3.735644	9.994330	-0.772406	-4.614998	1.864227	-0.347168	-0.607422	-0.267822	10.061704	29.150026	36.382009
42162		-13.836030	3.472288	9.660731	-0.547805	-4.560153	1.737593	-0.373779	-0.614990	-0.271240	10.026229	26.386137	36.975296
42163		-13.739691	3.298787	9.271874	-0.289106	-4.473581	1.621952	-0.406494	-0.621826	-0.260010	10.080659	23.696056	37.493253
42164		-13.949482	2.756309	8.828017	-0.002008	-4.370792	1.532873	-0.436279	-0.628418	-0.250000	10.255367	21.059578	37.950391
42165		-13.812532	1.966101	8.117351	0.321284	-4.265812	1.474703	-0.462158	-0.637451	-0.248047	10.580829	18.498910	38.365588
42166		-13.501879	1.128280	7.285907	0.642499	-4.131691	1.435853	-0.489990	-0.644775	-0.223877	11.063585	16.004042	38.746632
42167		-12.874448	0.307163	6.245550	0.902810	-3.938184	1.349859	-0.520264	-0.656738	-0.213867	11.665164	13.635413	39.072709
42168		-12.553083	-0.498344	5.156762	1.078192	-3.675792	1.202270	-0.534668	-0.660156	-0.192627	12.336701	11.418322	39.314712
42169		-12.302112	-0.998621	3.936217	1.170397	-3.355394	0.962111	-0.555664	-0.666992	-0.181885	13.029723	9.417619	39.433896
42170		-12.422676	-1.026725	2.747707	1.162237	-2.979710	0.669753	-0.566650	-0.681396	-0.161621	13.693405	7.655570	39.412918
42171		-12.867375	-0.893444	1.519293	1.070260	-2.581480	0.372747	-0.583740	-0.690918	-0.153564	14.289414	6.164615	39.262897
42172		-13.860406	-0.712937	0.357427	0.963041	-2.194373	0.136467	-0.596924	-0.696289	-0.127686	14.818568	4.917306	39.022085
42173		-14.624288	-0.369104	-1.017869	0.862749	-1.868837	-0.028806	-0.604492	-0.701416	-0.117920	15.291187	3.883427	38.728523
42174		-14.646549	0.201458	-2.876826	0.729765	-1.518678	-0.120942	-0.593750	-0.713623	-0.114258	15.691785	3.054554	38.429553
42175		-14.595705	0.604616	-4.699624	0.554651	-1.079039	-0.139619	-0.599609	-0.719727	-0.095703	15.998579	2.477471	38.184812
42176		-14.626540	0.769277	-5.937275	0.349850	-0.529568	-0.107711	-0.596436	-0.717773	-0.101074	16.193958	2.196136	38.042229
42177		-14.965530	1.021077	-6.113490	0.148486	0.063423	-0.028014	-0.598877	-0.721680	-0.092285	16.279692	2.231332	38.038251
42178		-15.985545	1.068011	-5.327955	-0.059421	0.585554	0.052328	-0.607422	-0.729004	-0.096191	16.251864	2.540023	38.162266
42179		-16.533971	1.048839	-4.510593	-0.254561	0.990507	0.094695	-0.600830	-0.728027	-0.092041	16.117179	3.065747	38.374089
42180		-17.071704	0.810061	-3.878006	-0.422060	1.327257	0.044319	-0.590332	-0.728760	-0.098877	15.890795	3.786841	38.609995
42181		-9.749287	3.173066	-0.130438	-0.716067	1.849625	-0.203593	-0.592041	-0.723877	-0.114014	15.494558	4.834478	38.786144
42182		-4.608423	0.282487	7.595542	-0.438255	2.561603	-0.926571	-0.576416	-0.723145	-0.114502	15.233139	6.389146	38.664187
42183		3.685082	8.631046	21.348074	-0.638999	1.959315	-0.817001	-0.558350	-0.722900	-0.119873	14.848274	7.590613	38.503610
42184		14.577140	10.464256	22.333096	-1.228207	1.934921	-0.526903	-0.564697	-0.730225	-0.125977	14.144319	8.738076	38.490448
42185		9.646082	6.233313	10.237669	-1.693567	3.098632	0.043013	-0.549316	-0.711670	-0.139404	13.250081	10.453003	38.942549
42186		-0.074005	2.705820	1.917320	-1.501235	4.478287	0.462274	-0.547852	-0.711426	-0.166016	12.564086	12.891620	39.793100
42187		-15.620264	-4.666439	8.379155	-0.787366	4.817200	0.988434	-0.526611	-0.706787	-0.176025	12.404501	15.459986	40.980286
42188		-14.420573	-8.002864	14.497837	-0.253591	4.226493	0.937002	-0.517822	-0.707031	-0.176514	12.573714	17.705708	42.075537
42189		-12.068098	-10.969000	13.932737	0.179284	3.942398	0.018777	-0.506104	-0.701416	-0.189453	12.850632	19.902721	42.613296
42190		-14.477239	0.691489	14.637383	0.183812	3.668452	-0.713546	-0.482910	-0.712402	-0.193359	12.984339	22.041276	42.691606
42191		-14.389972	13.376398	11.432496	-0.289689	3.193789	-0.708576	-0.474854	-0.709473	-0.204346	12.825288	23.911532	42.707315
42192		-12.439680	9.267832	9.571332	-0.840907	2.985408	-0.542874	-0.458496	-0.713867	-0.211670	12.377258	25.648082	42.786187
42193		-15.195094	-1.614547	12.230088	-0.960454	2.234518	-0.933389	-0.453613	-0.705566	-0.221680	11.701850	27.007676	42.502351
42194		-10.104128	1.458938	9.648779	-0.779647	1.605010	-0.982328	-0.434326	-0.702148	-0.224854	11.064219	28.020488	42.087364
42195		-7.723519	4.945225	8.696571	-0.891014	1.356596	-0.756385	-0.427002	-0.705078	-0.229004	10.403198	28.860835	41.769663
42196		-8.244757	0.612478	9.795393	-0.961822	1.129112	-0.698748	-0.427002	-0.691650	-0.231201	9.696978	29.568226	41.450056
42197		-7.650074	0.853047	9.239897	-0.876573	0.833994	-0.677449	-0.414063	-0.700928	-0.238037	9.021488	30.098833	41.100184
42198		-6.929501	1.499753	8.866241	-0.815530	0.657343	-0.563561	-0.417725	-0.697754	-0.238770	8.403086	30.520712	40.799333
42199		-6.108345	0.470707	8.939688	-0.745725	0.545518	-0.541749	-0.411133	-0.690186	-0.247803	7.821486	30.869986	40.495420
42200		-6.446664	0.568068	8.843012	-0.660495	0.435774	-0.535134	-0.407959	-0.695068	-0.246826	7.282110	31.158496	40.181884
42201		-6.150779	0.008248	8.578172	-0.555254	0.348768	-0.477743	-0.403809	-0.682373	-0.248291	6.815855	31.386483	39.894993
42202		-5.550762	-0.807597	8.722661	-0.401394	0.324478	-0.378196	-0.400879	-0.687500	-0.251709	6.469156	31.596899	39.670633
42203		-5.294051	-0.549334	8.845798	-0.229771	0.360398	-0.262331	-0.398193	-0.689453	-0.250244	6.261400	31.814883	39.524279
42204		-5.462292	-0.159102	8.642585	-0.103693	0.366091	-0.149422	-0.391113	-0.685547	-0.260498	6.164860	32.033233	39.453501
42205		-5.780208	-0.244868	8.451977	-0.018626	0.363800	-0.051575	-0.395264	-0.679688	-0.255127	6.151838	32.239750	39.447559
42206		-5.811944	0.007335	8.338496	0.076307	0.347429	0.017103	-0.393799	-0.683838	-0.260498	6.216938	32.437046	39.487158
42207		-5.569384	0.348057	8.278539	0.132196	0.348217	0.084954	-0.391113	-0.687500	-0.248047	6.339531	32.626143	39.572771
42208		-5.389050	0.418266	8.318375	0.175210	0.360192	0.125562	-0.390869	-0.690674	-0.258057	6.502263	32.823518	39.687817
42209		-5.516570	0.574574	8.230910	0.221782	0.356269	0.168959	-0.388428	-0.688965	-0.258301	6.708866	33.011246	39.832675
42210		-5.289139	0.869759	8.321539	0.261484	0.357649	0.184368	-0.384033	-0.687988	-0.254883	6.944516	33.202354	39.989553
42211		-5.193175	1.637712	8.273266	0.243221	0.365761	0.154120	-0.381592	-0.688965	-0.251465	7.160412	33.395570	40.127493
42212		-5.239176	1.984275	8.048081	0.160591	0.364810	0.095832	-0.380127	-0.686035	-0.251709	7.307513	33.596044	40.226944
42213		-5.433588	1.705195	7.946243	0.082057	0.342011	0.027218	-0.385986	-0.687012	-0.243896	7.383624	33.784467	40.277935
42214		-5.777048	1.612830	7.901420	0.024344	0.315808	-0.013655	-0.373291	-0.699951	-0.260498	7.409763	33.964803	40.299251
42215		-5.907458	1.448864	7.819973	-0.025886	0.276084	-0.052652	-0.377441	-0.688477	-0.250488	7.390581	34.121621	40.290031
42216		-5.741022	1.362629	7.889384	-0.047271	0.254309	-0.068182	-0.374268	-0.693848	-0.251465	7.351724	34.270944	40.268426
42217		-5.892894	1.210079	7.823613	-0.083062	0.226427	-0.095477	-0.375244	-0.689697	-0.250732	7.280469	34.402656	40.225035
42218		-5.719740	1.274357	7.800173	-0.117221	0.200545	-0.131366	-0.374512	-0.693115	-0.254883	7.173883	34.525841	40.154657
42219		-5.561012	1.214971	7.937621	-0.141315	0.192159	-0.141649	-0.375244	-0.688477	-0.256592	7.048926	34.641216	40.075728
42220		-5.709379	1.244779	7.959016	-0.176867	0.178703	-0.166424	-0.374756	-0.689697	-0.249268	6.892615	34.754052	39.978400
42221		-5.753263	1.090576	7.849762	-0.217844	0.193726	-0.187067	-0.374268	-0.685791	-0.253906	6.705093	34.873043	39.867143
42222		-5.695473	1.028689	7.906356	-0.227033	0.162281	-0.187369	-0.374268	-0.690430	-0.257080	6.510019	34.977306	39.752833
42223		-5.760548	0.977882	7.871690	-0.259578	0.177259	-0.241790	-0.373291	-0.686279	-0.256836	6.274892	35.089761	39.600913
42224		-5.776068	1.122742	7.928996	-0.282778	0.185735	-0.266192	-0.374268	-0.688721	-0.266357	6.016150	35.211363	39.432122
42225		-5.998033	1.076160	7.883470	-0.288239	0.171283	-0.269115	-0.362793	-0.683350	-0.259277	5.751882	35.320909	39.259047
42226		-6.063025	1.017298	7.848827	-0.294021	0.156594	-0.277739	-0.363037	-0.687012	-0.271484	5.479300	35.425175	39.078370
42227		-6.118108	0.814412	7.899726	-0.327083	0.119092	-0.338058	-0.363037	-0.682861	-0.257080	5.161276	35.507214	38.851854
42228		-6.248037	0.439434	7.889274	-0.307549	0.077830	-0.334256	-0.363525	-0.682373	-0.265137	4.853685	35.567715	38.625002
42229		-6.038782	0.632110	7.855510	-0.285769	0.041495	-0.309051	-0.359619	-0.686035	-0.273193	4.567377	35.602111	38.412968
42230		-5.862916	0.111090	7.942636	-0.247093	0.041960	-0.283942	-0.358643	-0.684570	-0.272705	4.313034	35.638001	38.218564
42231		-5.696756	0.632234	8.118124	-0.249123	0.047366	-0.338319	-0.359863	-0.683105	-0.262207	4.035347	35.675357	37.985670
42232		-5.635070	0.610905	8.094161	-0.230317	0.048093	-0.317413	-0.348389	-0.673096	-0.271973	3.776464	35.714490	37.767413
42233		-5.695542	0.447216	8.068122	-0.170252	0.064707	-0.242860	-0.356934	-0.686279	-0.261719	3.583076	35.756617	37.601927
42234		-5.855770	0.301351	8.096036	-0.146623	0.084788	-0.232286	-0.351074	-0.679199	-0.262695	3.407541	35.812387	37.444681
42235		-5.720824	0.253840	8.052082	-0.112230	0.109760	-0.212435	-0.353516	-0.672607	-0.265137	3.260481	35.878458	37.301977
42236		-5.741136	0.381509	8.103928	-0.076669	0.136684	-0.183530	-0.347168	-0.678711	-0.268555	3.145748	35.961615	37.180594
42237		-5.827786	0.274546	8.014063	-0.070713	0.164098	-0.183632	-0.346191	-0.680420	-0.272217	3.034963	36.057392	37.059693
42238		-5.867979	0.233481	7.984082	-0.048983	0.174487	-0.157811	-0.361084	-0.675293	-0.271729	2.946918	36.160959	36.957243
42239		-5.905397	0.146956	7.980130	-0.043356	0.194163	-0.157241	-0.351563	-0.679199	-0.278564	2.862737	36.272856	36.855438
42240		-5.881180	0.170357	7.958718	-0.032463	0.204300	-0.149959	-0.345947	-0.680908	-0.271729	2.787340	36.392949	36.758930
42241		-5.787854	0.368871	7.943781	-0.019747	0.222552	-0.145527	-0.348633	-0.669922	-0.276611	2.721469	36.520555	36.665754
42242		-5.870505	0.372542	7.963710	-0.021044	0.240250	-0.153625	-0.341797	-0.681641	-0.281250	2.651005	36.661058	36.567139
42243		-5.733493	0.591781	7.976599	-0.023149	0.264403	-0.163920	-0.336426	-0.669922	-0.272461	2.575340	36.812913	36.461459
42244		-5.851758	0.658987	7.978553	-0.020309	0.291090	-0.159903	-0.341064	-0.669189	-0.277100	2.502651	36.982391	36.359119
42245		-5.880265	0.537246	7.964429	-0.004871	0.314594	-0.145888	-0.341797	-0.680420	-0.272217	2.445142	37.162325	36.267004
42246		-5.959235	0.594349	7.980093	-0.003200	0.352008	-0.165087	-0.338623	-0.679932	-0.271240	2.380038	37.366543	36.161823
42247		-5.914923	0.669073	7.961151	0.022490	0.383071	-0.150489	-0.334961	-0.680908	-0.279785	2.336328	37.585637	36.067470
42248		-6.056016	0.446179	7.996093	0.009617	0.444825	-0.193235	-0.333984	-0.675293	-0.281738	2.266440	37.843402	35.943489
42249		-5.947806	0.562315	8.082204	0.008358	0.505061	-0.224760	-0.328613	-0.682617	-0.273438	2.182072	38.133815	35.797320
42250		-5.853253	0.613567	8.141540	0.014940	0.591964	-0.229341	-0.327148	-0.680176	-0.274902	2.099210	38.476243	35.649085
42251		-5.829576	0.291497	8.185031	0.071982	0.693684	-0.183406	-0.321777	-0.678711	-0.271240	2.070587	38.873515	35.535987
42252		-5.815768	0.313570	8.351757	0.101282	0.824120	-0.221377	-0.320068	-0.678467	-0.278564	2.041695	39.348434	35.397440
42253		-5.674874	-0.065627	8.579124	0.148838	1.008082	-0.178893	-0.311279	-0.677734	-0.284424	2.061936	39.925584	35.294217
42254		-5.403624	-0.257853	8.922189	0.173633	1.257932	-0.255691	-0.304199	-0.680420	-0.276855	2.061700	40.649479	35.139277
42255		-5.175682	-0.425764	8.950017	0.191243	1.560779	-0.216637	-0.293457	-0.687012	-0.278564	2.094142	41.543913	35.020703
42256		-4.979595	-0.616625	8.959492	0.314504	1.896957	-0.191712	-0.290283	-0.696777	-0.272949	2.214537	42.632282	34.930837
42257		-4.539043	-0.985353	9.305153	0.410524	2.302022	-0.137102	-0.262207	-0.683350	-0.281738	2.429079	43.949592	34.899497
42258		-4.651291	-1.436769	9.323894	0.522879	2.775044	-0.011767	-0.263672	-0.696045	-0.278320	2.796286	45.536058	34.994996
42259		-4.378512	-0.807382	9.653212	0.651116	3.286196	0.131116	-0.244385	-0.697266	-0.278076	3.357894	47.408385	35.253846
42260		-3.760452	-0.526055	10.018742	0.745139	3.844549	0.197584	-0.228027	-0.699951	-0.266846	4.076484	49.596615	35.642699
42261		-3.836228	-0.071176	9.773987	0.775408	4.492199	0.178491	-0.203857	-0.707764	-0.263428	4.897156	52.150749	36.126635
42262		-4.818947	0.479846	10.159853	0.709437	5.190758	-0.069595	-0.182373	-0.700195	-0.253662	5.622698	55.112878	36.522234
42263		-6.476142	2.168393	10.589058	0.684890	5.814713	-0.205360	-0.156982	-0.714355	-0.235107	6.371945	58.434651	36.947527
42264		-8.312581	2.491626	9.767420	0.561266	6.384130	-0.320909	-0.117920	-0.722900	-0.225586	7.129920	62.085125	37.449233
42265		-11.640667	2.004722	9.859654	0.655409	6.737912	-0.490338	-0.091553	-0.724121	-0.218994	7.980466	65.945182	37.976316
42266		-14.628774	2.654404	11.826916	0.979076	6.684967	-0.375255	-0.053467	-0.732178	-0.201660	9.449769	69.759773	38.955603
42267		-15.450855	2.090854	11.005412	1.077521	6.455440	-0.476168	-0.031006	-0.735107	-0.175537	11.266153	73.443418	40.217463
42268		-15.334543	2.685580	10.740489	1.015430	6.188917	-0.645261	0.000488	-0.748047	-0.162842	13.348736	76.982335	41.767985
42269		-12.682680	2.563518	9.034878	0.940341	6.062398	-0.845590	0.029053	-0.753906	-0.142822	15.950931	80.461865	43.870057
42270		-11.600106	1.969563	8.426573	1.040294	5.955672	-0.951628	0.051758	-0.750000	-0.109619	20.560361	83.869981	47.918423
42271		-10.039016	1.805098	8.661322	1.310506	5.644037	-1.014673	0.071533	-0.761719	-0.089111	33.198574	87.029922	59.837563
42272		-8.344472	1.664638	8.056924	1.565094	5.310551	-1.111309	0.092529	-0.758301	-0.058594	119.611025	88.842155	145.382080
42273		-3.054689	-1.624234	8.393126	1.850740	4.795012	-1.164488	0.120850	-0.765381	-0.040771	174.741190	86.658120	-160.521821
42274		-23.962213	-1.498899	20.047230	2.575416	3.498622	-0.895945	0.123047	-0.770752	-0.006836	-176.614864	84.664568	-153.335160
42275		-18.167177	3.664216	20.665508	2.736489	0.713655	-0.828864	0.128174	-0.784180	0.012939	-170.683953	84.209233	-148.952380
42276		-8.119580	5.891340	16.428521	2.337798	-0.900157	-0.921404	0.132813	-0.792725	0.016357	-162.900855	84.599948	-142.479189
42277		-3.786494	6.344268	12.988237	1.488383	-1.781354	-1.021243	0.138672	-0.795654	0.019531	-151.434194	85.320959	-131.825410
42278		-1.806667	5.210553	10.196673	0.731535	-2.151343	-0.992922	0.130859	-0.804443	0.015625	-135.239639	85.986055	-116.006810
42279		-0.285727	3.623378	7.865634	0.262659	-2.276424	-0.818586	0.139648	-0.800781	0.010498	-114.970379	86.362284	-95.844954
42280		-0.221754	2.507169	6.840841	0.088689	-2.325766	-0.505384	0.123779	-0.810059	0.008057	-93.059210	86.411282	-73.943855
42281		-0.940820	2.294784	6.635175	0.088879	-2.425250	-0.100926	0.125244	-0.814453	0.005859	-71.704340	86.167423	-52.597043
42282		-1.957825	2.573008	6.788253	0.075281	-2.577858	0.303746	0.118896	-0.819824	-0.009033	-52.122648	85.616241	-33.011273
42283		-3.264737	2.906028	7.388506	-0.035783	-2.785836	0.612582	0.089355	-0.829346	-0.008057	-35.955367	84.702689	-16.767641
42284		-4.745255	2.799943	8.136620	-0.193689	-3.065323	0.836306	0.071777	-0.835693	-0.029541	-23.587499	83.400821	-4.224629
42285		-5.665414	2.348699	8.483490	-0.336349	-3.426974	0.993821	0.054688	-0.840576	-0.025635	-14.690054	81.724528	4.940554
42286		-6.363511	1.717618	8.613283	-0.422771	-3.808529	1.079457	0.031006	-0.841797	-0.022461	-8.499433	79.697331	11.455551
42287		-5.778193	1.135798	7.445024	-0.406299	-4.122947	1.115402	0.015381	-0.838135	-0.030273	-4.279683	77.415719	15.996617
42288		-6.064527	0.677462	7.366237	-0.352100	-4.307454	1.080180	-0.010254	-0.828857	-0.023438	-1.442027	74.968692	19.123486
42289		-6.359293	0.158400	7.099453	-0.214583	-4.397490	1.046520	-0.021973	-0.833496	-0.029297	0.562435	72.449697	21.338503
42290		-7.374893	-0.208720	7.357065	-0.019112	-4.463517	1.037328	-0.025146	-0.825439	-0.017578	2.130461	69.865918	23.004150
42291		-7.769580	-0.059519	7.580962	0.190347	-4.539686	1.057448	-0.039551	-0.823975	-0.028076	3.463410	67.234469	24.317868
42292		-8.352573	0.171830	7.740359	0.364961	-4.579387	1.108101	-0.043701	-0.815430	-0.018799	4.680885	64.558778	25.419891
42293		-9.027087	0.450804	8.022330	0.508750	-4.573608	1.208956	-0.037842	-0.819824	-0.020508	5.866891	61.881765	26.420624
42294		-9.750552	1.139217	8.342425	0.600372	-4.524001	1.363932	-0.029053	-0.815430	-0.024658	7.075143	59.204414	27.410552
42295		-10.756390	2.190499	8.955835	0.562802	-4.418505	1.561053	-0.037842	-0.814209	-0.041016	8.275290	56.571984	28.445457
42296		-12.286774	3.027180	9.800740	0.388839	-4.330908	1.774875	-0.035645	-0.827393	-0.051758	9.402214	53.949814	29.543079
42297		-13.453854	3.460620	10.447653	0.126712	-4.302842	1.961050	-0.038574	-0.826172	-0.075439	10.373338	51.324018	30.672226
42298		-13.943211	3.094799	10.531150	-0.115335	-4.297470	2.074277	-0.041504	-0.827148	-0.092041	11.154260	48.669100	31.775410
42299		-14.242339	2.541383	10.359692	-0.247620	-4.266240	2.096732	-0.062988	-0.833008	-0.111084	11.765997	46.030620	32.798682
42300		-14.981999	2.299370	10.374303	-0.262346	-4.236752	2.010008	-0.065186	-0.837158	-0.145264	12.234089	43.402944	33.675247
42301		-15.875452	2.438602	10.455976	-0.228213	-4.266691	1.854317	-0.076172	-0.835449	-0.177490	12.568706	40.783056	34.368126
42302		-16.516717	2.835569	10.344855	-0.204757	-4.369396	1.640541	-0.091309	-0.845459	-0.208252	12.756566	38.121100	34.846288
42303		-16.828487	3.086351	10.040074	-0.208837	-4.514420	1.411921	-0.112793	-0.856445	-0.242432	12.800885	35.415557	35.118832
42304		-16.412460	2.969790	9.170660	-0.193266	-4.641361	1.228741	-0.146729	-0.852051	-0.274658	12.758342	32.653795	35.238587
42305		-15.698144	2.873989	8.252599	-0.154042	-4.682562	1.094113	-0.184326	-0.861084	-0.304443	12.684373	29.894603	35.264580
42306		-14.849697	2.779709	7.373608	-0.105124	-4.627156	1.018836	-0.212891	-0.862549	-0.322266	12.619766	27.168230	35.253059
42307		-14.226505	2.646022	6.591697	-0.049491	-4.477858	0.994382	-0.243164	-0.866699	-0.343994	12.591068	24.536018	35.250429
42308		-13.895518	2.367259	5.979741	0.015176	-4.280860	1.014008	-0.291016	-0.864990	-0.349854	12.615058	22.004831	35.286205
42309		-13.733136	2.138894	5.352605	0.079142	-4.060727	1.054357	-0.334717	-0.867920	-0.369141	12.692112	19.598288	35.373170
42310		-13.403906	1.960860	4.487212	0.133370	-3.830795	1.121304	-0.369629	-0.883789	-0.368652	12.817462	17.305994	35.524059
42311		-13.189613	1.534252	3.622087	0.167016	-3.578813	1.172117	-0.398926	-0.881348	-0.366943	12.971784	15.153225	35.730853
42312		-12.814667	0.927116	2.632253	0.204804	-3.318692	1.175774	-0.432129	-0.880615	-0.369873	13.147691	13.140084	35.965700
42313		-12.762420	0.145856	1.606185	0.285444	-3.025267	1.109429	-0.459961	-0.883545	-0.367676	13.360329	11.303057	36.193669
42314		-12.758411	-0.567386	0.660054	0.425232	-2.738443	0.983252	-0.493896	-0.879395	-0.355957	13.638835	9.638409	36.379487
42315		-12.393768	-0.816245	-0.358318	0.569204	-2.422609	0.830249	-0.527832	-0.883545	-0.351807	13.986478	8.172802	36.513091
42316		-12.230831	-0.590346	-1.164900	0.636029	-2.071000	0.676844	-0.546631	-0.881592	-0.348145	14.363359	6.921074	36.600506
42317		-11.872583	-0.069032	-1.984987	0.567131	-1.685265	0.537568	-0.557617	-0.879395	-0.340820	14.695562	5.904957	36.658174
42318		-11.572927	0.355172	-2.525518	0.391139	-1.247979	0.441956	-0.574951	-0.884277	-0.342773	14.926747	5.143802	36.721776
42319		-11.580026	0.399169	-2.756052	0.209601	-0.804022	0.373846	-0.585205	-0.885010	-0.333008	15.055277	4.639250	36.811215
42320		-11.866341	0.212814	-2.656813	0.105877	-0.387458	0.337261	-0.585449	-0.888916	-0.330322	15.127235	4.370575	36.941742
42321		-12.109692	0.366528	-2.099029	0.104844	-0.047798	0.305150	-0.597900	-0.884521	-0.324951	15.200461	4.294250	37.105149
42322		-11.967318	0.851685	-1.683596	0.122740	0.224942	0.246189	-0.590088	-0.884033	-0.329590	15.284908	4.378642	37.277048
42323		-11.422357	1.421383	-1.471594	0.102561	0.504421	0.158573	-0.606934	-0.887451	-0.334473	15.357505	4.629215	37.442894
42324		-11.544085	2.012665	-1.126503	0.053559	0.805192	0.091471	-0.596436	-0.880371	-0.329346	15.404243	5.058374	37.617920
42325		-12.115255	2.849163	-0.666873	-0.040356	1.084166	0.055192	-0.598145	-0.882324	-0.342529	15.400367	5.644684	37.815586
42326		-13.047280	3.462606	0.110471	-0.186774	1.317740	0.076384	-0.583252	-0.885986	-0.348145	15.320516	6.360489	38.060724
42327		-3.635923	6.821084	5.922658	-0.534458	1.423922	0.115198	-0.581543	-0.874268	-0.355469	15.048059	7.126408	38.341405
42328		5.062765	5.146140	19.781598	-0.639491	1.647716	-0.109550	-0.576904	-0.869385	-0.363037	14.708049	8.055036	38.526471
42329		12.024231	11.387910	26.388330	-0.462904	0.862317	0.154897	-0.569580	-0.866943	-0.371582	14.474452	8.506671	38.740450
42330		22.269769	11.944005	18.392949	-1.615592	1.535194	0.561160	-0.564697	-0.853027	-0.384033	13.633459	9.280778	39.274045
42331		7.590923	-0.438256	4.856881	-1.996626	3.248517	0.894112	-0.553467	-0.828613	-0.405273	12.655160	10.972684	40.212238
42332		-8.370800	-0.595401	4.915030	-1.475811	4.222336	1.092620	-0.536133	-0.820801	-0.420898	12.054169	13.199235	41.368712
42333		-18.691267	-8.440303	9.888549	-0.976958	3.756975	1.084571	-0.524658	-0.809082	-0.442627	11.761567	15.173259	42.455592
42334		-9.564333	-13.213446	12.947378	-0.230214	3.241773	0.502593	-0.504150	-0.809082	-0.450439	11.822505	16.930982	43.145922
42335		-8.387707	-12.772579	13.901900	0.468428	3.220541	-0.325012	-0.480469	-0.808594	-0.453369	12.157028	18.770571	43.358916
42336		-9.996295	-2.235733	12.223870	0.937396	3.120693	-0.602228	-0.471924	-0.817383	-0.455322	12.712379	20.589805	43.411819
42337		-10.131611	10.256601	11.403931	0.544142	2.998349	-0.451332	-0.441650	-0.821045	-0.451172	13.077183	22.318016	43.554521
42338		-10.042848	13.929784	10.309492	-0.264205	2.876181	-0.268953	-0.424316	-0.822998	-0.462891	13.021927	23.957512	43.797834
42339		-9.490784	5.518240	9.265210	-0.769853	2.680374	-0.446638	-0.415039	-0.813721	-0.474365	12.624389	25.507646	43.900053
42340		-11.876896	0.259681	10.645700	-0.710899	2.197669	-0.822832	-0.395508	-0.810547	-0.473633	12.125563	26.838338	43.689937
42341		-6.407806	4.324814	8.346102	-0.706297	1.777581	-0.974732	-0.369385	-0.803223	-0.487305	11.547516	27.945647	43.311398
42342		-6.213541	4.600243	8.611352	-0.839736	1.744536	-0.888518	-0.355225	-0.797852	-0.493652	10.903305	29.025309	42.967140
42343		-7.711800	1.486301	9.467653	-0.949899	1.537887	-0.860598	-0.348633	-0.799072	-0.492920	10.177716	29.977751	42.597298
42344		-7.197742	2.210494	9.077431	-0.994938	1.254714	-0.820114	-0.340576	-0.792480	-0.499268	9.410489	30.766417	42.205030
42345		-8.599431	2.018975	9.345875	-1.040548	0.991088	-0.767125	-0.328125	-0.783447	-0.498779	8.608120	31.392104	41.804085
42346		-7.288309	0.602563	8.647957	-1.001948	0.731999	-0.773455	-0.313965	-0.768555	-0.510498	7.803397	31.871011	41.362100
42347		-7.047309	-0.175876	8.698138	-0.856193	0.580102	-0.644367	-0.314697	-0.771973	-0.518555	7.112588	32.244557	40.983310
42348		-6.926365	-0.518817	8.826693	-0.669550	0.454230	-0.527609	-0.304932	-0.767334	-0.513916	6.560760	32.539674	40.667465
42349		-6.381286	-0.791133	8.745027	-0.486490	0.361834	-0.384309	-0.303711	-0.761719	-0.529785	6.158575	32.766204	40.437168
42350		-6.235277	-0.713729	8.500273	-0.329560	0.311084	-0.247931	-0.298828	-0.754883	-0.518311	5.892954	32.959199	40.294160
42351		-6.075406	-0.710870	8.375865	-0.192438	0.279120	-0.154700	-0.292236	-0.761230	-0.517334	5.737997	33.123399	40.210697
42352		-5.938579	0.018688	8.408964	-0.098836	0.286330	-0.092107	-0.308105	-0.756592	-0.529541	5.659854	33.292763	40.170254
42353		-5.930490	0.057315	8.340859	-0.033896	0.308156	-0.042656	-0.287598	-0.757080	-0.527344	5.638002	33.466997	40.164362
42354		-5.762424	0.421159	8.174371	-0.000458	0.322167	-0.016282	-0.288574	-0.754395	-0.529541	5.645734	33.652502	40.177818
42355		-5.754364	0.796247	8.230674	0.011249	0.325382	-0.013053	-0.291504	-0.750244	-0.526611	5.661638	33.834887	40.193386
42356		-5.531264	0.996792	8.143636	0.010250	0.327505	-0.010181	-0.290527	-0.750488	-0.525146	5.678188	34.023084	40.211550
42357		-5.610220	1.034598	8.150486	0.011163	0.330814	-0.019382	-0.281006	-0.751709	-0.517822	5.691996	34.208917	40.223320
42358		-5.708133	1.248198	8.136457	-0.009553	0.326085	-0.031651	-0.287842	-0.763672	-0.524170	5.689007	34.397495	40.226736
42359		-5.847261	0.963142	7.972406	-0.026928	0.304338	-0.050113	-0.282959	-0.752686	-0.520508	5.668003	34.569978	40.215455
42360		-5.917433	0.881988	7.874997	-0.042366	0.273951	-0.069687	-0.283936	-0.751221	-0.517578	5.629158	34.730970	40.188795
42361		-5.919410	0.831981	7.916650	-0.057356	0.255881	-0.076099	-0.275879	-0.755127	-0.523193	5.578301	34.877262	40.155849
42362		-5.957008	0.735336	7.949632	-0.059018	0.223765	-0.082782	-0.271729	-0.755615	-0.513428	5.522401	35.010332	40.116262
42363		-5.693973	0.679089	7.881107	-0.054670	0.200929	-0.079574	-0.272705	-0.750000	-0.522705	5.469197	35.125424	40.076768
42364		-5.667928	0.882925	7.928134	-0.062438	0.208957	-0.085624	-0.267822	-0.755615	-0.518799	5.409229	35.250135	40.033779
42365		-5.900597	0.937069	7.890033	-0.070807	0.207419	-0.084631	-0.277344	-0.759521	-0.525391	5.344609	35.369133	39.990767
42366		-5.933713	0.784405	7.812994	-0.088533	0.182551	-0.111552	-0.268066	-0.747070	-0.522461	5.257759	35.480055	39.927430
42367		-6.054121	0.800025	7.819926	-0.102620	0.150031	-0.134298	-0.267334	-0.745117	-0.524902	5.152096	35.568784	39.845377
42368		-6.007501	0.735554	7.768018	-0.097344	0.107650	-0.116854	-0.265381	-0.748047	-0.528564	5.054786	35.637061	39.773026
42369		-6.019113	0.819558	7.848838	-0.109427	0.068816	-0.145303	-0.266846	-0.739258	-0.529053	4.937340	35.679739	39.677720
42370		-6.005557	0.930286	7.693187	-0.098193	0.023062	-0.104099	-0.263672	-0.744385	-0.525146	4.841497	35.698891	39.608872
42371		-5.958049	0.759639	7.792660	-0.118350	0.006486	-0.141327	-0.262695	-0.755371	-0.534180	4.718227	35.705499	39.512447
42372		-6.004945	0.718016	7.824642	-0.134105	-0.021906	-0.176939	-0.266846	-0.740723	-0.528809	4.570353	35.702119	39.389715
42373		-5.819050	0.747144	7.812829	-0.143106	-0.037119	-0.181014	-0.265869	-0.746094	-0.536133	4.415202	35.685208	39.262938
42374		-5.771344	0.708785	7.893107	-0.135637	-0.037918	-0.192999	-0.258789	-0.745605	-0.530273	4.259450	35.672841	39.128140
42375		-5.990271	0.589104	7.899998	-0.145162	-0.051765	-0.191784	-0.256104	-0.738281	-0.532227	4.098425	35.647447	38.993206
42376		-5.911692	0.352284	7.897626	-0.148994	-0.052959	-0.204798	-0.263672	-0.744629	-0.535400	3.929926	35.626330	38.849545
42377		-5.928380	0.587443	8.008611	-0.164119	-0.053946	-0.240235	-0.261230	-0.736572	-0.524902	3.738386	35.600886	38.680706
42378		-6.073325	0.592667	7.932000	-0.176790	-0.072090	-0.245255	-0.261230	-0.732422	-0.531250	3.537150	35.569527	38.508024
42379		-5.914782	0.266980	7.881660	-0.158553	-0.103567	-0.215294	-0.264404	-0.732422	-0.528809	3.358152	35.513919	38.354980
42380		-5.615148	0.524575	8.113997	-0.158512	-0.104192	-0.223091	-0.266357	-0.732910	-0.533691	3.176170	35.462568	38.197057
42381		-5.642023	0.654952	8.112726	-0.164470	-0.091052	-0.234997	-0.264648	-0.734375	-0.539307	2.986628	35.413933	38.031287
42382		-5.731616	0.295459	8.049539	-0.168514	-0.079164	-0.231192	-0.249023	-0.736816	-0.540771	2.796701	35.376255	37.869187
42383		-5.640559	0.371692	8.047539	-0.156085	-0.071694	-0.228954	-0.263916	-0.732422	-0.531494	2.615306	35.337652	37.708862
42384		-5.875048	0.244441	7.966218	-0.146159	-0.064698	-0.210900	-0.270752	-0.734863	-0.533203	2.447082	35.306882	37.561898
42385		-5.844262	-0.076921	7.966652	-0.116437	-0.069582	-0.165101	-0.265869	-0.732178	-0.539795	2.314704	35.267226	37.446824
42386		-5.789091	-0.038930	7.952281	-0.105672	-0.067719	-0.158826	-0.261963	-0.732666	-0.531250	2.190990	35.232966	37.336598
42387		-5.635469	0.158961	8.074440	-0.087376	-0.048454	-0.145076	-0.254883	-0.720947	-0.535645	2.083963	35.204581	37.236415
42388		-5.546164	0.206489	8.176775	-0.075668	-0.017475	-0.134614	-0.253906	-0.730469	-0.537598	1.988109	35.198238	37.144625
42389		-5.554498	0.209144	8.138559	-0.062985	0.016581	-0.134845	-0.261475	-0.726074	-0.539063	1.900183	35.206619	37.053297
42390		-5.626577	0.300626	8.038697	-0.043497	0.040619	-0.109032	-0.257568	-0.726074	-0.536377	1.833831	35.232802	36.980768
42391		-5.776404	0.036054	8.023375	-0.022871	0.056743	-0.092330	-0.256836	-0.729492	-0.530762	1.786505	35.263239	36.920068
42392		-5.786589	-0.039408	8.054441	-0.010397	0.074433	-0.094976	-0.262207	-0.723633	-0.539307	1.745083	35.308412	36.858010
42393		-5.711259	0.224654	8.097030	-0.000916	0.086624	-0.084041	-0.261475	-0.728516	-0.536865	1.713929	35.355748	36.803647
42394		-5.644312	0.302587	8.094215	0.003158	0.110223	-0.091960	-0.256592	-0.727295	-0.538330	1.681729	35.421287	36.744296
42395		-5.651772	0.211812	8.020422	0.010823	0.129555	-0.090995	-0.253906	-0.724121	-0.540283	1.654793	35.493279	36.685776
42396		-5.712726	0.034533	8.091307	0.017634	0.147731	-0.085746	-0.254395	-0.726563	-0.543457	1.633632	35.580120	36.631367
42397		-5.823094	0.034672	8.056793	0.033580	0.172728	-0.073577	-0.249756	-0.713867	-0.545166	1.627140	35.676523	36.585802
42398		-5.781164	0.154802	8.053247	0.045027	0.187363	-0.065562	-0.251953	-0.729248	-0.537598	1.630174	35.785698	36.546247
42399		-5.823181	0.208089	8.007136	0.043624	0.202786	-0.068728	-0.243652	-0.730469	-0.536865	1.631588	35.899237	36.504591
42400		-5.803904	0.212100	7.973501	0.055734	0.221379	-0.067919	-0.255127	-0.730469	-0.536621	1.639977	36.027916	36.463944
42401		-5.727845	0.333273	8.005419	0.060820	0.246676	-0.072850	-0.242188	-0.715332	-0.542480	1.649839	36.166668	36.420160
42402		-5.723756	0.440886	7.997478	0.078751	0.271204	-0.066651	-0.244385	-0.727051	-0.534912	1.672347	36.323848	36.381354
42403		-5.770411	0.414614	8.019101	0.107333	0.301759	-0.035886	-0.242676	-0.735596	-0.538086	1.724962	36.493552	36.365023
42404		-5.911740	0.226086	7.959331	0.115470	0.332958	-0.052936	-0.246582	-0.727051	-0.529785	1.775049	36.685870	36.337472
42405		-5.916797	0.067666	7.975668	0.134493	0.369173	-0.054869	-0.240234	-0.738525	-0.535645	1.836106	36.894548	36.309400
42406		-5.750377	0.180534	8.065278	0.160378	0.413775	-0.034858	-0.236572	-0.729492	-0.527832	1.920915	37.132831	36.297074
42407		-5.790029	0.116328	8.193600	0.179641	0.487432	-0.007128	-0.231201	-0.736084	-0.532959	2.030598	37.408348	36.306891
42408		-5.714793	0.120403	8.259921	0.203615	0.583598	0.002481	-0.221436	-0.732178	-0.532715	2.159876	37.743064	36.327034
42409		-5.601474	0.220179	8.457362	0.226051	0.682737	0.018235	-0.221436	-0.728516	-0.531494	2.311992	38.129793	36.362473
42410		-5.682392	-0.190259	8.387443	0.261846	0.817657	0.020041	-0.209717	-0.736572	-0.531982	2.488764	38.597889	36.405038
42411		-5.760824	-0.592618	8.400695	0.330513	0.981648	0.077022	-0.205811	-0.741455	-0.531494	2.736952	39.153975	36.497457
42412		-5.341284	-1.375254	8.504754	0.484334	1.195358	0.202469	-0.206543	-0.740479	-0.524414	3.140953	39.832392	36.695932
42413		-4.681212	-1.721194	9.025205	0.591809	1.511072	0.397401	-0.194092	-0.753662	-0.515869	3.719005	40.679210	37.064465
42414		-4.753426	-2.096894	9.200410	0.770074	1.883306	0.661541	-0.182129	-0.762695	-0.516357	4.561314	41.728209	37.673121
42415		-4.288192	-1.318657	9.417742	0.922667	2.342288	0.911639	-0.173096	-0.761963	-0.511230	5.676511	43.014456	38.542150
42416		-4.276717	-0.482735	9.989068	1.055117	2.914115	1.105933	-0.154297	-0.779541	-0.497314	7.064571	44.603273	39.673830
42417		-3.890573	0.769812	10.370629	1.019072	3.531116	1.210040	-0.128662	-0.782715	-0.489014	8.633341	46.508980	41.051890
42418		-3.071838	0.546335	11.314976	0.651727	4.184123	0.956262	-0.101074	-0.793213	-0.490723	10.028009	48.785022	42.433408
42419		-4.411321	1.376370	11.238210	0.500960	4.873327	0.992267	-0.078613	-0.796387	-0.470459	11.613025	51.417062	44.123679
42420		-3.525229	-0.008515	11.106952	0.512064	5.404699	0.994862	-0.049072	-0.804199	-0.461182	13.533486	54.314118	46.163645
42421		-6.422674	0.950777	10.501946	0.937809	6.020209	1.328763	-0.009277	-0.815918	-0.437256	16.478121	57.445440	49.069043
42422		-9.917614	0.634200	10.183116	1.333541	6.466472	1.569472	0.010254	-0.833008	-0.417725	20.634154	60.670976	53.021331
42423		-14.747874	-0.426027	10.975165	1.650110	6.551055	1.641982	0.048584	-0.843018	-0.385254	26.045082	63.743018	58.065300
42424		-15.406830	0.105454	9.381441	1.795443	6.420813	1.424788	0.071777	-0.863037	-0.359619	32.498490	66.553813	64.040289
42425		-15.323728	2.469162	10.269897	1.708812	6.177631	1.145393	0.100830	-0.871826	-0.324463	39.899849	69.022423	70.973318
42426		-13.257410	4.158017	9.883210	1.442084	5.809451	0.857792	0.131836	-0.885254	-0.299316	48.071503	71.077994	78.784589
42427		-11.766183	5.692451	9.489889	1.031663	5.447300	0.581040	0.148193	-0.892822	-0.266846	56.859363	72.715834	87.404773
42428		-9.822350	5.548054	8.363659	0.383686	5.082264	0.262375	0.173584	-0.896240	-0.236816	65.865276	73.980920	96.572973
42429		-7.452741	5.574781	6.850200	-0.486200	4.670822	-0.072483	0.196045	-0.903320	-0.221436	74.590590	74.924870	105.916229
42430		-0.491201	4.624011	8.317435	-1.369613	4.287080	-0.093646	0.207764	-0.896729	-0.201904	82.872248	75.457275	115.292458
42431		-27.467265	1.642769	25.126504	-1.822667	2.679436	0.019608	0.223877	-0.881592	-0.207764	87.743725	75.569128	121.401377
42432		-12.231953	0.045797	19.424057	-1.995206	-0.124367	-0.255930	0.217285	-0.877441	-0.222412	86.266846	75.710619	121.056941
42433		-1.662331	-2.084334	13.063024	-1.912328	-1.026013	-0.672248	0.226807	-0.865234	-0.230713	82.686112	76.034758	118.493602
42434		0.175964	-1.667742	9.626293	-1.862357	-1.233168	-1.205181	0.223389	-0.859619	-0.254395	78.252217	76.597196	115.028975
42435		-0.829165	-0.347780	8.724392	-1.883597	-1.217021	-1.672630	0.221191	-0.831543	-0.259766	73.218148	77.351411	110.969061
42436		-1.600477	1.318470	8.459461	-2.007937	-1.287530	-1.960733	0.226563	-0.814697	-0.278076	67.069370	78.154898	105.855205
42437		-2.542126	3.037407	8.794222	-2.214493	-1.503739	-2.022279	0.235352	-0.798584	-0.296143	59.455843	78.799284	99.379599
42438		-2.728878	4.673633	8.959838	-2.498796	-1.770579	-1.922045	0.223877	-0.774170	-0.314941	50.478465	79.113227	91.692484
42439		-2.529744	6.157470	8.817739	-2.829058	-1.990391	-1.699680	0.222168	-0.748291	-0.341553	41.103440	79.011597	83.794649
42440		-2.951338	7.388001	8.710617	-3.194280	-2.159466	-1.388797	0.209473	-0.721436	-0.355225	32.310866	78.484868	76.696469
42441		-3.608293	8.227667	8.657607	-3.559255	-2.309478	-1.005623	0.206299	-0.700684	-0.383545	24.893696	77.593631	71.198886
42442		-4.300556	8.906024	8.569873	-3.912883	-2.491536	-0.597646	0.185303	-0.665771	-0.406494	18.951981	76.384791	67.401781
42443		-4.570306	9.244084	8.207959	-4.250304	-2.646404	-0.218212	0.172363	-0.643555	-0.418213	14.351738	74.963582	65.166802
42444		-4.760944	9.363208	7.861034	-4.558670	-2.724607	0.084272	0.148682	-0.606201	-0.437256	10.703547	73.416130	64.089448
42445		-5.123265	9.207359	7.619653	-4.789012	-2.745904	0.317704	0.130371	-0.572510	-0.452881	7.734679	71.830159	63.853081
42446		-5.574766	9.231735	7.743532	-4.918192	-2.726496	0.478035	0.120850	-0.534424	-0.466553	5.195632	70.233332	64.147122
42447		-6.161438	9.419122	8.252288	-4.963597	-2.694602	0.580398	0.107178	-0.507080	-0.477295	2.950287	68.666039	64.785656
42448		-6.936755	9.960945	9.003031	-4.935926	-2.692606	0.659886	0.086426	-0.457275	-0.488037	0.925618	67.097019	65.651567
