// General information: 
//  MT Manager version: 2022.2.0 
//  XDA version: 2022.2.0 build 7381 rev 124627 built on 2023-07-19
// Device information: 
//  DeviceId: 00B4BCF6
//  ProductCode: MTW2-3A7G6
//  Firmware Version: 4.6.0
//  Hardware Version: 2.0.0
// Device settings: 
//  Filter Profile: human(46.1)
//  Option Flags: Orientation Smoother Disabled, Position/Velocity Smoother Disabled, Continuous Zero Rotation Update Disabled, AHS Disabled, ICC Disabled
// Coordinate system: ENU
PacketCounter	SampleTimeFine	Acc_X	Acc_Y	Acc_Z	Gyr_X	Gyr_Y	Gyr_Z	Mag_X	Mag_Y	Mag_Z	Roll	Pitch	Yaw
46566		-6.441602	-1.721420	7.292683	-0.000111	0.006233	-0.001773	-0.352783	-0.186768	-0.567383	-12.943929	40.114214	-8.262729
46567		-6.429967	-1.681250	7.289887	-0.002653	0.004180	-0.004940	-0.344727	-0.185059	-0.571777	-12.944987	40.114568	-8.263274
46568		-6.387925	-1.723173	7.296942	-0.001732	0.007288	-0.002828	-0.349121	-0.185059	-0.567871	-12.944641	40.115682	-8.262686
46569		-6.428519	-1.668989	7.268480	0.002371	0.003784	-0.003309	-0.347412	-0.184814	-0.577393	-12.942010	40.116021	-8.262313
46570		-6.411712	-1.685982	7.317249	-0.001381	0.005207	-0.003356	-0.341064	-0.188477	-0.576416	-12.941488	40.115905	-8.261762
46571		-6.376961	-1.683536	7.293443	-0.001982	0.007635	-0.008537	-0.346436	-0.182617	-0.574463	-12.944240	40.117756	-8.266520
46572		-6.452988	-1.692186	7.280213	-0.005544	0.004207	-0.007579	-0.342773	-0.195801	-0.574463	-12.947981	40.116540	-8.268885
46573		-6.398955	-1.693870	7.284817	-0.003433	0.006958	-0.003116	-0.351807	-0.188965	-0.575684	-12.948929	40.118693	-8.270054
46574		-6.382149	-1.711216	7.333512	-0.001791	0.002786	-0.007532	-0.347412	-0.183350	-0.575439	-12.950343	40.116689	-8.272146
46575		-6.403779	-1.720463	7.325452	-0.000110	0.006234	-0.001772	-0.347168	-0.182861	-0.576904	-12.948683	40.118597	-8.271083
46576		-6.380583	-1.698979	7.312208	-0.000950	0.004510	-0.004652	-0.342285	-0.180908	-0.574219	-12.948448	40.117925	-8.271362
46577		-6.365118	-1.692333	7.259996	-0.002593	0.008683	-0.000236	-0.343262	-0.172607	-0.571045	-12.947766	40.121405	-8.268928
46578		-6.348853	-1.709392	7.308299	-0.002782	0.013533	-0.001242	-0.345703	-0.183594	-0.566895	-12.947952	40.126210	-8.268230
46579		-6.351822	-1.663234	7.335932	-0.001271	0.018713	-0.001959	-0.344482	-0.184326	-0.572998	-12.948403	40.135037	-8.267676
46580		-6.395902	-1.681402	7.319147	-0.006804	0.018421	-0.001529	-0.343262	-0.183105	-0.571289	-12.951558	40.142533	-8.268010
46581		-6.421088	-1.703643	7.330462	-0.003859	0.027397	-0.002195	-0.347168	-0.186523	-0.569580	-12.954536	40.156179	-8.270703
46582		-6.359109	-1.736997	7.344004	-0.009880	0.023300	-0.005176	-0.343750	-0.178711	-0.573730	-12.961701	40.165931	-8.274523
46583		-6.443246	-1.582780	7.314596	-0.004963	0.029142	-0.005314	-0.353271	-0.186035	-0.573242	-12.966977	40.180132	-8.279336
46584		-6.455405	-1.670758	7.286210	-0.011089	0.031280	-0.010068	-0.334229	-0.181396	-0.576660	-12.978014	40.193711	-8.288079
46585		-6.426661	-1.695115	7.302009	-0.014056	0.029925	-0.011943	-0.352783	-0.178711	-0.574951	-12.991714	40.207511	-8.298356
46586		-6.426738	-1.743136	7.271184	-0.010732	0.029202	-0.010597	-0.340820	-0.177246	-0.564209	-13.002580	40.219858	-8.307146
46587		-6.426434	-1.731545	7.248570	-0.010138	0.026772	-0.005417	-0.351318	-0.179199	-0.580078	-13.010620	40.232705	-8.310311
46588		-6.442072	-1.726488	7.277855	-0.005198	0.024993	-0.003012	-0.340576	-0.189941	-0.571289	-13.014280	40.243680	-8.312851
46589		-6.441492	-1.714179	7.255651	-0.002281	0.021849	-0.005841	-0.347900	-0.180908	-0.570801	-13.017494	40.253744	-8.317292
46590		-6.433042	-1.687095	7.272680	-0.003876	0.015282	-0.004362	-0.347656	-0.174316	-0.575195	-13.019975	40.259123	-8.319179
46591		-6.455447	-1.696189	7.263861	-0.000319	0.014207	0.002697	-0.339355	-0.185303	-0.575928	-13.017201	40.266012	-8.314210
46592		-6.454090	-1.683395	7.242451	-0.002071	0.009375	-0.002300	-0.345703	-0.186035	-0.574463	-13.017028	40.268359	-8.313589
46593		-6.416353	-1.691637	7.298860	-0.001803	0.005908	-0.002062	-0.346436	-0.184082	-0.581543	-13.016438	40.270019	-8.313307
46594		-6.416647	-1.691859	7.298550	0.000680	0.003460	-0.003595	-0.339600	-0.178955	-0.575195	-13.014654	40.268897	-8.312633
46595		-6.437902	-1.641798	7.298575	-0.000505	0.003818	-0.005948	-0.341064	-0.177979	-0.579346	-13.014945	40.268897	-8.313743
46596		-6.436163	-1.688692	7.269547	-0.002123	0.004873	-0.007006	-0.347412	-0.184570	-0.575928	-13.016534	40.268124	-8.315804
46597		-6.469330	-1.679495	7.271836	-0.003905	0.003157	-0.006531	-0.347412	-0.177734	-0.572266	-13.018966	40.267670	-8.317023
46598		-6.450283	-1.684157	7.300082	-0.003988	0.001772	-0.005764	-0.350342	-0.189941	-0.572266	-13.020699	40.265326	-8.317651
46599		-6.436476	-1.690548	7.268838	-0.000587	0.002433	-0.005181	-0.347900	-0.182129	-0.564941	-13.020485	40.264604	-8.317823
46600		-6.429379	-1.735502	7.299434	-0.002205	0.003488	-0.006239	-0.345703	-0.185547	-0.573975	-13.021608	40.263156	-8.319088
46601		-6.415509	-1.741703	7.268286	0.000866	-0.001393	-0.002590	-0.347168	-0.185303	-0.574463	-13.018916	40.260625	-8.317017
46602		-6.429335	-1.735744	7.299416	0.003400	0.000661	0.000583	-0.346191	-0.183350	-0.571289	-13.013293	40.258480	-8.312814
46603		-6.396151	-1.686052	7.304938	0.003400	0.000661	0.000583	-0.343262	-0.189209	-0.568604	-13.007890	40.257515	-8.308882
46604		-6.436850	-1.690492	7.268520	0.005584	0.004797	0.004285	-0.343018	-0.179688	-0.575195	-12.999718	40.258156	-8.302671
46605		-6.431930	-1.687984	7.327913	0.004235	0.002385	0.003465	-0.350586	-0.177979	-0.568604	-12.992662	40.258527	-8.297401
46606		-6.408736	-1.665752	7.314918	0.004482	0.006541	0.001165	-0.342529	-0.184082	-0.572266	-12.986786	40.259738	-8.293766
46607		-6.407042	-1.652811	7.293843	-0.002153	0.007990	-0.001534	-0.341797	-0.192627	-0.573486	-12.986362	40.262574	-8.291757
46608		-6.421855	-1.706223	7.316207	0.002597	0.011064	-0.000131	-0.342529	-0.190186	-0.577881	-12.982672	40.266143	-8.289833
46609		-6.399151	-1.684417	7.302688	-0.001153	0.012485	-0.000186	-0.349121	-0.178467	-0.578613	-12.981518	40.271683	-8.290831
46610		-6.421445	-1.693312	7.293992	0.000114	0.013512	0.001401	-0.348389	-0.174316	-0.572510	-12.978792	40.276816	-8.288198
46611		-6.432175	-1.720875	7.274793	0.000198	0.014898	0.000634	-0.341797	-0.180908	-0.581055	-12.976764	40.283795	-8.284214
46612		-6.442854	-1.689200	7.263500	-0.000502	0.019063	0.001691	-0.341064	-0.182861	-0.579346	-12.974858	40.292065	-8.282304
46613		-6.446383	-1.701978	7.283004	-0.000234	0.015595	0.001929	-0.342773	-0.180420	-0.567871	-12.972550	40.299636	-8.279924
46614		-6.414675	-1.711690	7.279342	-0.001017	0.018375	0.003752	-0.342529	-0.188232	-0.568848	-12.969887	40.307787	-8.276388
46615		-6.406344	-1.683817	7.296516	0.001034	0.016623	0.003516	-0.345703	-0.178467	-0.565918	-12.966171	40.316068	-8.273475
46616		-6.462033	-1.682482	7.290070	0.002385	0.019037	0.004337	-0.345459	-0.177979	-0.571045	-12.961351	40.324663	-8.269620
46617		-6.463473	-1.682218	7.288854	-0.000496	0.019065	0.001690	-0.343506	-0.181152	-0.575195	-12.959653	40.334067	-8.266333
46618		-6.429593	-1.679110	7.264501	-0.000579	0.017680	0.002456	-0.345947	-0.178467	-0.572021	-12.957273	40.341662	-8.263624
46619		-6.411785	-1.683021	7.291919	0.000289	0.016287	-0.000133	-0.346436	-0.177490	-0.571533	-12.955695	40.349304	-8.261873
46620		-6.443763	-1.660355	7.272703	-0.001760	0.018039	0.000101	-0.344727	-0.183350	-0.571289	-12.955147	40.356797	-8.260950
46621		-6.433288	-1.679487	7.261142	-0.005992	0.015655	-0.003368	-0.344727	-0.181641	-0.568848	-12.958621	40.363651	-8.261559
46622		-6.436547	-1.693015	7.280738	-0.002989	0.013895	-0.006959	-0.343262	-0.177490	-0.574707	-12.961676	40.367924	-8.265111
46623		-6.449293	-1.674690	7.290105	-0.001325	0.017344	-0.001193	-0.332520	-0.182373	-0.573975	-12.961632	40.376005	-8.264458
46624		-6.434206	-1.668109	7.237342	-0.003337	0.015979	-0.006431	-0.334229	-0.175049	-0.574951	-12.964864	40.381508	-8.267976
46625		-6.439751	-1.694508	7.277556	-0.005640	0.013573	-0.003898	-0.345703	-0.185059	-0.567139	-12.968186	40.387185	-8.270181
46626		-6.471403	-1.672380	7.258464	-0.003939	0.013904	-0.003604	-0.348389	-0.184814	-0.572021	-12.970195	40.391893	-8.271277
46627		-6.420442	-1.686692	7.283449	-0.004722	0.016684	-0.001781	-0.340332	-0.183350	-0.566650	-12.972277	40.399495	-8.271944
46628		-6.442901	-1.695905	7.274442	-0.003626	0.014939	0.001340	-0.341309	-0.179932	-0.570557	-12.971871	40.405417	-8.269591
46629		-6.446348	-1.708909	7.294007	0.000814	0.016980	-0.002193	-0.349365	-0.177734	-0.576172	-12.971022	40.413149	-8.270629
46630		-6.454978	-1.723507	7.253942	0.000171	0.018022	0.006107	-0.345947	-0.192139	-0.571777	-12.966511	40.421405	-8.265300
46631		-6.406542	-1.690715	7.307483	-0.000837	0.021154	0.002218	-0.338623	-0.183350	-0.571045	-12.964973	40.432028	-8.263636
46632		-6.391869	-1.683530	7.254466	0.000430	0.022182	0.003807	-0.345459	-0.182373	-0.576660	-12.961860	40.442311	-8.260694
46633		-6.442972	-1.680502	7.307010	-0.001532	0.025322	0.003273	-0.347656	-0.186035	-0.575195	-12.960684	40.455410	-8.259186
46634		-6.454657	-1.707955	7.286878	-0.000527	0.029820	0.004623	-0.339844	-0.171143	-0.568848	-12.958566	40.470063	-8.256933
46635		-6.442631	-1.654457	7.262052	-0.003925	0.029160	0.004031	-0.341797	-0.180664	-0.583984	-12.958822	40.485384	-8.253923
46636		-6.447314	-1.667396	7.280562	-0.004097	0.034019	0.003025	-0.343018	-0.177002	-0.576416	-12.959969	40.502175	-8.253551
46637		-6.468956	-1.722761	7.241658	-0.006403	0.031613	0.005555	-0.341797	-0.183350	-0.566406	-12.961208	40.519102	-8.250099
46638		-6.464034	-1.707978	7.278556	0.000006	0.030515	0.002563	-0.331787	-0.180908	-0.569824	-12.959841	40.533878	-8.249475
46639		-6.454357	-1.667093	7.274389	0.000140	0.028778	0.009040	-0.343750	-0.180176	-0.571777	-12.955313	40.549618	-8.245156
46640		-6.456726	-1.666683	7.272380	-0.000771	0.033299	0.004383	-0.342529	-0.182861	-0.566406	-12.953826	40.566182	-8.243663
46641		-6.468662	-1.694017	7.251986	-0.001032	0.029140	0.006682	-0.339355	-0.184814	-0.572266	-12.951125	40.581796	-8.239695
46642		-6.473321	-1.706487	7.270648	0.000758	0.030858	0.006212	-0.339355	-0.188965	-0.571777	-12.947614	40.597232	-8.236441
46643		-6.485052	-1.674429	7.258374	0.000850	0.032247	0.005445	-0.338135	-0.182129	-0.575684	-12.944767	40.614441	-8.236109
46644		-6.454450	-1.683789	7.254004	0.002464	0.031192	0.006509	-0.340820	-0.180420	-0.571533	-12.940170	40.630101	-8.232689
46645		-6.501272	-1.654682	7.264936	-0.000417	0.023589	0.006392	-0.338379	-0.191650	-0.572510	-12.936659	40.642606	-8.228238
46646		-6.503367	-1.713565	7.255229	-0.000326	0.024977	0.005625	-0.348877	-0.184082	-0.577881	-12.933397	40.654682	-8.224415
46647		-6.481097	-1.632429	7.249337	-0.002158	0.018754	0.001388	-0.344238	-0.183594	-0.574951	-12.932728	40.663825	-8.224376
46648		-6.463634	-1.636472	7.276709	0.000068	0.019774	-0.000373	-0.338867	-0.189453	-0.575439	-12.931542	40.672226	-8.224087
46649		-6.493380	-1.660190	7.228475	-0.001284	0.017360	-0.001199	-0.336914	-0.186523	-0.574219	-12.931457	40.680264	-8.225527
46650		-6.473320	-1.651675	7.235345	-0.004156	0.017390	-0.003857	-0.336182	-0.184082	-0.569580	-12.934101	40.686887	-8.227400
46651		-6.476884	-1.665200	7.254773	-0.005419	0.016363	-0.005449	-0.338135	-0.178467	-0.580078	-12.938314	40.693826	-8.231726
46652		-6.487477	-1.693595	7.235258	-0.004981	0.015666	-0.006743	-0.333008	-0.180664	-0.578125	-12.942628	40.699116	-8.235434
46653		-6.483820	-1.668318	7.192879	0.001035	0.019769	-0.003725	-0.347900	-0.184814	-0.580566	-12.942733	40.708225	-8.237460
46654		-6.489796	-1.694159	7.233046	-0.001642	0.011812	0.001866	-0.341309	-0.183105	-0.576416	-12.940572	40.712467	-8.234176
46655		-6.469591	-1.685365	7.240136	-0.001280	0.017362	-0.001199	-0.334229	-0.181396	-0.569824	-12.940495	40.720503	-8.234511
46656		-6.503765	-1.675556	7.241350	0.000239	0.014918	0.000633	-0.333496	-0.185547	-0.565918	-12.938192	40.726322	-8.232660
46657		-6.495143	-1.647910	7.258951	0.001369	0.010051	-0.001712	-0.338135	-0.191406	-0.571045	-12.936024	40.730195	-8.232467
46658		-6.504906	-1.616500	7.248231	-0.003127	0.003502	-0.002899	-0.334961	-0.178467	-0.578613	-12.936086	40.729186	-8.231287
46659		-6.436952	-1.683097	7.214594	-0.002417	0.006968	-0.006491	-0.337646	-0.182861	-0.569824	-12.938049	40.730747	-8.234644
46660		-6.463446	-1.659079	7.255220	-0.003110	0.011138	-0.005438	-0.341309	-0.179443	-0.573242	-12.940166	40.733676	-8.236627
46661		-6.473663	-1.687466	7.236006	-0.008645	0.010844	-0.005047	-0.334961	-0.187256	-0.569824	-12.945428	40.737554	-8.237674
46662		-6.474369	-1.688230	7.235196	-0.003109	0.011139	-0.005438	-0.332764	-0.181885	-0.574707	-12.947545	40.740483	-8.239658
46663		-6.465519	-1.661119	7.252906	-0.001063	0.009384	-0.005664	-0.346436	-0.180176	-0.570801	-12.948602	40.743487	-8.242776
46664		-6.487586	-1.670505	7.243983	-0.003801	0.015309	-0.004386	-0.334229	-0.182617	-0.575928	-12.951071	40.748880	-8.244692
46665		-6.485927	-1.658311	7.222525	-0.003931	0.009414	-0.008325	-0.337402	-0.183105	-0.578857	-12.955055	40.751534	-8.248016
46666		-6.446716	-1.713391	7.250374	-0.003016	0.012527	-0.006205	-0.339600	-0.179443	-0.574707	-12.957643	40.755140	-8.250802
46667		-6.471016	-1.676567	7.270192	-0.002578	0.011831	-0.007498	-0.335205	-0.184326	-0.573975	-12.960736	40.759270	-8.254280
46668		-6.478922	-1.692035	7.230229	-0.004969	0.015670	-0.006746	-0.339111	-0.181152	-0.573242	-12.965052	40.764561	-8.257999
46669		-6.467744	-1.652241	7.227223	-0.002321	0.008358	-0.007258	-0.340332	-0.184326	-0.578857	-12.967487	40.766762	-8.261197
46670		-6.491966	-1.674801	7.239066	-0.003399	0.010107	-0.010384	-0.344482	-0.181885	-0.568115	-12.972039	40.768479	-8.266654
46671		-6.478115	-1.681472	7.207620	-0.003764	0.004554	-0.007320	-0.339844	-0.179932	-0.572754	-12.974896	40.768518	-8.268794
46672		-6.464451	-1.652987	7.285105	-0.006796	0.009446	-0.010988	-0.335205	-0.177002	-0.572021	-12.981612	40.769787	-8.274584
46673		-6.511942	-1.673797	7.208612	-0.006886	0.008058	-0.010222	-0.338379	-0.176270	-0.572998	-12.988061	40.771426	-8.278318
46674		-6.493496	-1.679009	7.236718	-0.006009	0.006664	-0.012807	-0.341797	-0.181885	-0.579590	-12.994894	40.770907	-8.284976
46675		-6.503154	-1.707947	7.217790	-0.007798	0.004945	-0.012343	-0.339355	-0.182617	-0.565918	-13.002546	40.770542	-8.289870
46676		-6.481890	-1.700255	7.225640	-0.003797	0.000049	-0.012027	-0.338867	-0.178223	-0.567383	-13.007000	40.766430	-8.294827
46677		-6.496110	-1.695412	7.256342	-0.002793	0.004551	-0.010672	-0.335449	-0.191650	-0.573730	-13.010904	40.766006	-8.298914
46678		-6.493603	-1.683394	7.235604	-0.002188	-0.001007	-0.010959	-0.335938	-0.184082	-0.579590	-13.013804	40.761440	-8.302903
46679		-6.479097	-1.690076	7.204724	-0.002188	-0.001007	-0.010960	-0.339111	-0.184814	-0.572266	-13.016899	40.757938	-8.309481
46680		-6.441253	-1.758195	7.254038	-0.004069	-0.004116	-0.009730	-0.333496	-0.182617	-0.578125	-13.019937	40.751796	-8.312034
46681		-6.499423	-1.523086	7.221359	-0.002096	0.000382	-0.011725	-0.341064	-0.181641	-0.577881	-13.023516	40.748957	-8.317752
46682		-6.495023	-1.759254	7.248110	-0.005932	0.000415	-0.011037	-0.346680	-0.184082	-0.579102	-13.028754	40.745176	-8.322038
46683		-6.482934	-1.660680	7.254020	-0.005401	0.001108	-0.013095	-0.341553	-0.176025	-0.570801	-13.034956	40.742545	-8.327715
46684		-6.461718	-1.712163	7.253709	-0.004051	0.003525	-0.012266	-0.341309	-0.180908	-0.575195	-13.040052	40.740340	-8.333436
46685		-6.492367	-1.690842	7.234976	-0.008524	0.004611	-0.015996	-0.334717	-0.184570	-0.574707	-13.049828	40.739269	-8.340313
46686		-6.518391	-1.667919	7.275892	-0.006567	0.001470	-0.015456	-0.334229	-0.177002	-0.580566	-13.057669	40.735502	-8.348032
46687		-6.461717	-1.716680	7.252643	-0.008431	0.006000	-0.016762	-0.337402	-0.177490	-0.575439	-13.067933	40.735164	-8.357768
46688		-6.471232	-1.686601	7.241921	-0.005125	0.005276	-0.015393	-0.338379	-0.181641	-0.570557	-13.075341	40.733529	-8.366089
46689		-6.513830	-1.705808	7.225222	-0.005564	0.005972	-0.014100	-0.340820	-0.187256	-0.567383	-13.082660	40.733467	-8.372782
46690		-6.483325	-1.729758	7.243189	-0.005745	0.003195	-0.012569	-0.344238	-0.178711	-0.568359	-13.088833	40.731034	-8.378667
46691		-6.462268	-1.721879	7.250919	-0.003138	0.006640	-0.010144	-0.339111	-0.185547	-0.578857	-13.092897	40.731795	-8.383065
46692		-6.495608	-1.712919	7.252679	-0.004200	0.005253	-0.006027	-0.348389	-0.182373	-0.574951	-13.095270	40.731359	-8.384483
46693		-6.493398	-1.700556	7.231773	-0.000454	0.003833	-0.005950	-0.327393	-0.188721	-0.579346	-13.095501	40.731141	-8.385475
46694		-6.484197	-1.732627	7.241723	-0.002592	0.004196	-0.004960	-0.340332	-0.178467	-0.581787	-13.096322	40.730254	-8.385926
46695		-6.475127	-1.705553	7.259782	-0.002411	0.006975	-0.006490	-0.338135	-0.185303	-0.570801	-13.098324	40.731793	-8.389472
46696		-6.482435	-1.720642	7.220323	0.000363	0.005557	-0.003062	-0.343750	-0.185059	-0.567139	-13.096692	40.731912	-8.388759
46697		-6.475771	-1.706113	7.259076	0.000713	0.003473	-0.003589	-0.341797	-0.181152	-0.568115	-13.095054	40.731754	-8.388828
46698		-6.482845	-1.661771	7.228126	0.001063	0.001388	-0.004117	-0.337646	-0.176270	-0.564209	-13.093062	40.729410	-8.388178
46699		-6.475891	-1.706677	7.258837	-0.001801	0.001417	-0.006780	-0.339600	-0.194092	-0.574219	-13.094182	40.727688	-8.387818
46700		-6.504149	-1.671592	7.219706	-0.000453	0.003834	-0.005950	-0.342773	-0.181641	-0.578613	-13.094213	40.726470	-8.388937
46701		-6.504073	-1.672096	7.219658	-0.001101	-0.002752	-0.007835	-0.338379	-0.186279	-0.581299	-13.094976	40.722327	-8.392098
46702		-6.524916	-1.681828	7.211671	-0.001294	-0.002392	-0.013548	-0.335693	-0.188477	-0.567627	-13.098443	40.716649	-8.397745
46703		-6.505400	-1.686818	7.240806	-0.002122	-0.011756	-0.013902	-0.341309	-0.184570	-0.576172	-13.101699	40.706708	-8.404291
46704		-6.461814	-1.670087	7.257845	-0.002936	-0.013479	-0.016791	-0.339111	-0.181641	-0.578125	-13.106421	40.694421	-8.410423
46705		-6.491010	-1.648944	7.240424	-0.005097	-0.017618	-0.020510	-0.338623	-0.187500	-0.571533	-13.113909	40.680353	-8.418683
46706		-6.543398	-1.591118	7.244034	-0.008886	-0.025203	-0.030007	-0.339600	-0.177490	-0.566650	-13.127059	40.659804	-8.432520
46707		-6.531468	-1.566721	7.264121	-0.018555	-0.031008	-0.038589	-0.335938	-0.179932	-0.582520	-13.149372	40.635868	-8.451367
46708		-6.537705	-1.539804	7.255811	-0.023164	-0.037168	-0.058219	-0.343018	-0.179932	-0.568848	-13.182833	40.604953	-8.483850
46709		-6.524099	-1.577997	7.268302	-0.041760	-0.048442	-0.071728	-0.347412	-0.181396	-0.572021	-13.232282	40.566987	-8.523185
46710		-6.547279	-1.610035	7.223814	-0.040725	-0.052883	-0.092518	-0.335693	-0.181152	-0.572998	-13.290300	40.522760	-8.578017
46711		-6.508281	-1.688236	7.216196	-0.050326	-0.061818	-0.093862	-0.347412	-0.189941	-0.571533	-13.353502	40.474328	-8.631316
46712		-6.499822	-1.625756	7.207559	-0.046361	-0.072561	-0.097516	-0.346191	-0.177979	-0.571777	-13.414695	40.418380	-8.686174
46713		-6.545076	-1.563292	7.193810	-0.054351	-0.079397	-0.105038	-0.339111	-0.188477	-0.574463	-13.483248	40.358545	-8.744543
46714		-6.581969	-1.605688	7.202797	-0.062937	-0.088319	-0.109738	-0.342285	-0.185791	-0.575439	-13.557661	40.292082	-8.805290
46715		-6.527704	-1.704642	7.186766	-0.060424	-0.104233	-0.112718	-0.344727	-0.176270	-0.568848	-13.630172	40.217342	-8.866922
46716		-6.482000	-1.771691	7.161488	-0.058496	-0.117749	-0.108163	-0.353760	-0.180420	-0.576660	-13.697589	40.134592	-8.920957
46717		-6.444898	-1.830919	7.227257	-0.053818	-0.120559	-0.097987	-0.351563	-0.174316	-0.569824	-13.757183	40.052631	-8.963877
46718		-6.415287	-1.844544	7.262669	-0.049141	-0.123374	-0.087814	-0.350098	-0.183350	-0.571289	-13.808742	39.969443	-9.001769
46719		-6.393060	-1.812513	7.268131	-0.040856	-0.134846	-0.080792	-0.354004	-0.179932	-0.570801	-13.850967	39.881817	-9.029416
46720		-6.388777	-1.800733	7.345960	-0.044100	-0.129625	-0.077427	-0.348877	-0.178467	-0.572266	-13.893844	39.796533	-9.058401
46721		-6.332891	-1.836688	7.339969	-0.046462	-0.125780	-0.076657	-0.357666	-0.181396	-0.572021	-13.938187	39.714498	-9.084637
46722		-6.303452	-1.848700	7.375122	-0.047521	-0.115055	-0.070320	-0.351074	-0.172607	-0.573242	-13.981203	39.638264	-9.110867
46723		-6.216984	-1.965455	7.376705	-0.045213	-0.103658	-0.063392	-0.350586	-0.175293	-0.567627	-14.021079	39.570330	-9.129971
46724		-6.153433	-2.031424	7.378223	-0.042187	-0.091954	-0.052808	-0.361084	-0.176514	-0.575439	-14.055486	39.509342	-9.147554
46725		-6.092105	-2.037075	7.387442	-0.032953	-0.070574	-0.042251	-0.349365	-0.173584	-0.571289	-14.082346	39.462693	-9.156809
46726		-6.049128	-2.121901	7.458846	-0.032189	-0.050911	-0.033143	-0.359131	-0.182129	-0.566162	-14.106658	39.427245	-9.167555
46727		-6.052823	-2.139976	7.421785	-0.021502	-0.033379	-0.020011	-0.358887	-0.168701	-0.568115	-14.121034	39.404324	-9.169274
46728		-6.093390	-2.029044	7.404104	-0.011814	-0.006851	-0.006767	-0.353271	-0.173096	-0.573486	-14.126669	39.397040	-9.168996
46729		-6.210244	-1.985426	7.363932	-0.007953	0.003458	0.001229	-0.351074	-0.170410	-0.571533	-14.127878	39.397543	-9.159570
46730		-6.189857	-1.976473	7.370997	-0.005134	0.016918	0.005357	-0.357666	-0.172607	-0.571289	-14.126882	39.405161	-9.154875
46731		-6.225665	-1.907931	7.381293	-0.002518	0.026205	0.011761	-0.351318	-0.177002	-0.572266	-14.122797	39.419772	-9.143309
46732		-6.206251	-1.956977	7.378300	0.001927	0.038617	0.016938	-0.352783	-0.178467	-0.570313	-14.114953	39.441065	-9.134206
46733		-6.195689	-1.960568	7.344786	0.006713	0.038535	0.025583	-0.359375	-0.174316	-0.571289	-14.100650	39.464440	-9.117710
46734		-6.223406	-1.921764	7.363559	0.005432	0.051006	0.025475	-0.354980	-0.175049	-0.568604	-14.088296	39.493807	-9.104681
46735		-6.194995	-1.928708	7.357286	0.005555	0.062713	0.033431	-0.352783	-0.177002	-0.567627	-14.073808	39.531662	-9.084813
46736		-6.163378	-2.005858	7.421544	0.009357	0.076101	0.046922	-0.356689	-0.179199	-0.581299	-14.052210	39.577956	-9.060820
46737		-6.251522	-2.012045	7.344135	0.019200	0.090546	0.057928	-0.350586	-0.174316	-0.563721	-14.021805	39.634683	-9.029112
46738		-6.279639	-1.943516	7.319081	0.023853	0.096731	0.064837	-0.351807	-0.179443	-0.570557	-13.985916	39.694911	-8.995797
46739		-6.303095	-1.872763	7.353118	0.029392	0.106018	0.073881	-0.346680	-0.176025	-0.568115	-13.943923	39.762385	-8.958033
46740		-6.303321	-1.838477	7.365296	0.027237	0.114031	0.072379	-0.348145	-0.176514	-0.574219	-13.904418	39.833237	-8.922190
46741		-6.325402	-1.813555	7.368850	0.024282	0.124808	0.072712	-0.350830	-0.174805	-0.568848	-13.867879	39.910982	-8.888538
46742		-6.307523	-1.842783	7.399267	0.025477	0.141155	0.069294	-0.348877	-0.180176	-0.576172	-13.833733	39.996465	-8.859588
46743		-6.295878	-1.873394	7.369215	0.022475	0.155028	0.075106	-0.348877	-0.171387	-0.567627	-13.800362	40.091291	-8.828347
46744		-6.284348	-1.772557	7.335133	0.020542	0.170328	0.076795	-0.352783	-0.177490	-0.569336	-13.768673	40.194006	-8.798937
46745		-6.200389	-1.760395	7.425532	0.016846	0.208252	0.070660	-0.352539	-0.178955	-0.569580	-13.746512	40.317777	-8.779910
46746		-6.220546	-1.768332	7.432271	0.005238	0.240664	0.068936	-0.343750	-0.175293	-0.571289	-13.735225	40.458552	-8.768600
46747		-6.306736	-1.804121	7.412036	0.002873	0.278289	0.065126	-0.340088	-0.186768	-0.583252	-13.731674	40.620518	-8.766735
46748		-6.325942	-1.798640	7.452620	-0.002948	0.324643	0.064424	-0.332764	-0.178955	-0.571533	-13.736971	40.807418	-8.773733
46749		-6.329902	-1.857176	7.510100	-0.012889	0.374947	0.058427	-0.334717	-0.183105	-0.572510	-13.757127	41.022297	-8.797053
46750		-6.298617	-1.933913	7.411870	-0.014441	0.439480	0.063167	-0.335205	-0.171875	-0.573486	-13.783478	41.272928	-8.825980
46751		-6.187966	-1.820438	7.529667	-0.023810	0.521533	0.077416	-0.324707	-0.176025	-0.572998	-13.818657	41.571870	-8.861346
46752		-6.170577	-2.063440	7.664743	-0.050026	0.641699	0.119462	-0.323486	-0.174072	-0.569580	-13.862870	41.942689	-8.886132
46753		-5.776240	-1.890743	8.204290	-0.095312	0.749089	0.170094	-0.310059	-0.175781	-0.570557	-13.921712	42.380840	-8.896173
46754		-5.480945	-1.760724	8.824095	-0.293940	0.909468	0.239712	-0.308105	-0.169678	-0.575684	-14.079768	42.917137	-8.882294
46755		-4.589521	-2.527872	9.170855	-0.356418	1.309992	0.272982	-0.295410	-0.173096	-0.577148	-14.310982	43.681113	-8.925840
46756		-4.995153	-2.592412	9.574862	-0.354092	1.665797	0.346420	-0.283691	-0.159424	-0.578369	-14.554321	44.652379	-8.985274
46757		-4.949193	-2.056910	9.885164	-0.365269	2.091506	0.414121	-0.268311	-0.167969	-0.577393	-14.835032	45.869361	-9.087950
46758		-5.104974	-2.067693	10.111755	-0.395352	2.526106	0.501392	-0.243164	-0.166748	-0.573242	-15.160024	47.339268	-9.224760
46759		-5.620423	-1.788677	10.155704	-0.385374	2.971117	0.580016	-0.216064	-0.154785	-0.571045	-15.521941	49.066056	-9.415163
46760		-6.536922	-1.433496	10.094035	-0.449353	3.359614	0.671997	-0.188477	-0.153320	-0.574219	-15.955687	51.020800	-9.646324
46761		-7.253080	-1.783488	9.381817	-0.530876	3.703650	0.862590	-0.157715	-0.153809	-0.566162	-16.404869	53.193333	-9.831219
46762		-8.952166	-3.580127	9.583776	-0.582287	3.800138	1.110079	-0.124756	-0.146729	-0.555420	-16.749403	55.459215	-9.845769
46763		-9.676646	-3.674578	9.086291	-0.602741	3.790476	1.226006	-0.093506	-0.142578	-0.553467	-17.026481	57.737937	-9.765121
46764		-10.718207	-2.713573	8.396104	-0.829799	3.639602	1.298447	-0.057861	-0.150391	-0.544922	-17.339169	59.947611	-9.576021
46765		-10.102070	-3.584951	7.429088	-1.039172	3.430340	1.384614	-0.027588	-0.129639	-0.535889	-17.628196	62.056912	-9.226771
46766		-10.543748	-3.904695	6.363026	-1.058588	3.229495	1.400182	-0.007080	-0.133789	-0.521973	-17.832786	64.061368	-8.776979
46767		-9.502606	-3.364527	5.004568	-1.006043	2.928041	1.457194	0.019531	-0.123291	-0.514893	-17.798517	65.910165	-8.103988
46768		-7.628920	-2.591814	3.628765	-0.894936	2.758903	1.516353	0.045410	-0.126465	-0.512939	-17.489295	67.677579	-7.210752
46769		-6.427198	-2.161994	3.776464	-0.788938	2.629072	1.533887	0.068848	-0.125488	-0.501465	-16.932562	69.372600	-6.127546
46770		-5.131848	-1.856251	7.904439	-0.680377	2.276604	1.481205	0.094482	-0.119385	-0.487061	-16.087840	70.862084	-4.815852
46771		-7.998960	-2.751013	14.146082	-0.690457	1.324716	1.201846	0.103271	-0.127197	-0.489990	-15.117320	71.773955	-3.374486
46772		-11.620040	-3.886372	15.188495	-0.776496	-0.070184	0.755529	0.106201	-0.118896	-0.480713	-14.246714	71.842276	-1.990780
46773		-1.328023	-3.393822	12.104695	-0.805614	-1.026526	0.474204	0.098633	-0.118652	-0.477051	-13.484525	71.330633	-0.701736
46774		1.987643	-2.863237	10.449079	-0.742478	-1.277644	0.266241	0.089111	-0.106934	-0.488037	-12.982865	70.650357	0.277780
46775		1.780252	-2.204881	9.905946	-0.681849	-1.408488	0.114236	0.082520	-0.103027	-0.493164	-12.689167	69.871125	1.004128
46776		1.814429	-1.862492	9.620242	-0.682323	-1.480636	-0.020145	0.067871	-0.098633	-0.491455	-12.605721	69.038226	1.509711
46777		0.811859	-1.993413	9.752328	-0.672055	-1.573435	-0.200212	0.069580	-0.095947	-0.494141	-12.765236	68.125573	1.751213
46778		-0.309606	-2.235540	10.206741	-0.634676	-1.728424	-0.398423	0.064453	-0.084717	-0.502686	-13.122319	67.106698	1.757281
46779		-1.344430	-2.506200	10.450865	-0.547959	-1.912426	-0.572069	0.043945	-0.080078	-0.510498	-13.582248	65.955981	1.597322
46780		-2.711615	-2.625150	10.703847	-0.422102	-2.126992	-0.722301	0.031494	-0.082764	-0.514404	-14.057584	64.671177	1.339321
46781		-4.183597	-2.542764	10.962600	-0.318262	-2.378276	-0.879217	0.009766	-0.070801	-0.518066	-14.544487	63.216530	0.999430
46782		-5.748012	-2.394828	11.073490	-0.247886	-2.652179	-1.041788	0.000000	-0.073730	-0.527100	-15.041589	61.592400	0.597748
46783		-7.036563	-2.461178	10.817002	-0.202142	-2.936275	-1.192022	-0.030273	-0.060303	-0.530029	-15.535519	59.778967	0.163118
46784		-8.123922	-2.690047	10.342948	-0.157941	-3.198739	-1.302502	-0.046875	-0.041016	-0.542969	-15.983921	57.809970	-0.256383
46785		-8.999998	-2.827640	9.810532	-0.098326	-3.395916	-1.364828	-0.084229	-0.049072	-0.553955	-16.354649	55.712452	-0.633404
46786		-9.905729	-3.047598	9.348341	-0.038848	-3.516839	-1.384478	-0.116943	-0.038086	-0.566895	-16.637078	53.552737	-0.953567
46787		-10.947301	-3.182521	9.056126	0.009362	-3.566983	-1.368688	-0.146240	-0.038330	-0.569092	-16.838579	51.358544	-1.215720
46788		-11.999894	-3.348147	8.928138	0.049935	-3.577121	-1.349033	-0.186279	-0.041260	-0.578125	-16.977811	49.170415	-1.435189
46789		-12.983843	-3.688462	8.794966	0.080015	-3.570337	-1.334158	-0.212158	-0.037354	-0.583008	-17.074917	46.979454	-1.628621
46790		-13.810420	-3.863419	8.467840	0.112726	-3.540513	-1.335086	-0.258545	-0.037354	-0.582031	-17.144686	44.813244	-1.817036
46791		-14.355042	-4.024962	8.092161	0.146613	-3.497918	-1.332961	-0.292236	-0.035400	-0.584473	-17.189457	42.662144	-2.004540
46792		-14.851488	-4.040594	7.562403	0.175689	-3.417436	-1.336368	-0.320068	-0.028320	-0.580566	-17.220277	40.562865	-2.203956
46793		-15.954753	-3.796993	6.811266	0.166472	-3.382901	-1.389429	-0.351807	-0.034912	-0.580078	-17.275045	38.465511	-2.441024
46794		-16.639180	-3.578025	5.547412	0.132468	-3.382887	-1.494961	-0.398926	-0.038818	-0.576172	-17.379671	36.357748	-2.739705
46795		-16.894700	-3.382126	4.040683	0.125235	-3.368424	-1.612104	-0.431885	-0.046387	-0.567627	-17.519548	34.230372	-3.106857
46796		-16.453228	-3.277793	1.845475	0.198536	-3.299357	-1.652475	-0.462646	-0.041748	-0.564209	-17.619901	32.140004	-3.499736
46797		-15.994278	-2.544624	-0.639539	0.330218	-3.116065	-1.597012	-0.503906	-0.046875	-0.555420	-17.629049	30.153431	-3.883762
46798		-15.271082	-1.189131	-3.166868	0.395787	-2.821271	-1.458003	-0.522461	-0.051514	-0.546631	-17.571784	28.357684	-4.232560
46799		-15.467655	1.193757	-5.434974	0.315643	-2.382183	-1.291470	-0.545654	-0.059814	-0.538574	-17.542900	26.826736	-4.560733
46800		-16.065190	3.922098	-7.533690	-0.050163	-1.937930	-1.153545	-0.562500	-0.063232	-0.533936	-17.713597	25.566021	-4.884448
46801		-16.430209	4.968856	-9.699389	-0.544254	-1.476055	-0.987961	-0.580811	-0.059326	-0.528076	-18.154078	24.582534	-5.188187
46802		-16.316500	4.736580	-12.175500	-0.850186	-0.980467	-0.714518	-0.589844	-0.064453	-0.517090	-18.733689	23.917806	-5.415691
46803		-15.675787	1.849798	-13.909697	-0.803874	-0.359417	-0.281362	-0.591797	-0.053223	-0.514160	-19.230356	23.668239	-5.505635
46804		-7.239110	-5.266879	-11.647499	1.318342	0.773666	0.265840	-0.585449	-0.065918	-0.529541	-18.472208	24.134676	-5.501115
46805		1.379541	1.492042	7.940762	1.383515	1.982661	1.383884	-0.567383	-0.062500	-0.541748	-17.492075	25.459094	-5.053273
46806		-9.665333	-4.081982	28.566458	0.853522	1.971810	0.351404	-0.556885	-0.070068	-0.545898	-17.070538	26.595304	-5.209302
46807		3.679425	-8.389268	22.556077	0.538957	-0.105847	-0.053897	-0.549316	-0.067383	-0.537598	-16.766111	26.526947	-5.219190
46808		3.388835	-0.358640	3.056250	0.572717	0.430380	-0.098726	-0.559570	-0.071777	-0.545654	-16.498025	26.744631	-5.355287
46809		3.815658	1.289367	-0.095351	0.623183	2.141462	0.160781	-0.543701	-0.079590	-0.550781	-16.272682	27.945399	-5.642089
46810		-8.724437	3.769298	8.195590	0.436639	3.070775	0.071562	-0.514648	-0.085938	-0.565674	-16.269147	29.643436	-6.156114
46811		-12.125722	3.563222	13.219496	-0.006684	2.450854	-0.089463	-0.492188	-0.081055	-0.571045	-16.531312	30.973772	-6.668820
46812		-7.543456	5.436564	11.626172	-0.351338	1.902809	0.110476	-0.482666	-0.084717	-0.573975	-16.884693	32.033780	-6.961659
46813		-5.379301	4.835460	9.004268	-0.793511	1.929625	0.373340	-0.466309	-0.069336	-0.577148	-17.413767	33.151340	-7.102152
46814		-8.833819	-2.355854	8.649345	-0.928035	2.057745	0.580341	-0.447510	-0.061279	-0.587158	-17.970188	34.373285	-7.148273
46815		-16.858808	-14.082255	9.604771	-0.226142	1.562484	0.907377	-0.434326	-0.064941	-0.583252	-17.943375	35.383447	-6.877724
46816		-7.957728	-12.891644	4.286711	0.437896	0.745628	0.571383	-0.427734	-0.070313	-0.588623	-17.559103	35.887797	-6.650454
46817		-5.813666	-1.663516	5.761097	0.670072	1.324325	0.683515	-0.407715	-0.061768	-0.590332	-17.063582	36.727361	-6.462896
46818		-14.282773	2.112689	10.570561	0.313216	0.893827	0.679339	-0.407227	-0.067139	-0.587891	-16.712075	37.328090	-6.178795
46819		-8.229591	-1.771835	7.144632	0.105268	0.199132	0.360408	-0.399658	-0.066895	-0.595215	-16.522174	37.495401	-5.966835
46820		-6.659661	-4.142988	6.573169	0.188647	0.382069	0.248188	-0.391602	-0.068848	-0.595459	-16.353358	37.743194	-5.868915
46821		-8.514330	-1.298949	8.179115	0.192179	0.252710	0.210995	-0.401855	-0.068604	-0.594727	-16.181518	37.915096	-5.769448
46822		-7.308161	-1.224615	7.547193	0.088533	0.032660	0.166412	-0.399658	-0.069824	-0.596436	-16.060065	37.957122	-5.655962
46823		-6.991866	-2.877880	7.124699	0.108383	-0.046495	0.122100	-0.402100	-0.077881	-0.596680	-15.936538	37.949955	-5.557431
46824		-7.188731	-1.642542	7.687972	0.102306	-0.117951	0.093693	-0.393555	-0.074951	-0.591553	-15.819917	37.897201	-5.464614
46825		-7.048276	-1.436103	7.673817	0.040415	-0.177942	0.045213	-0.393555	-0.074951	-0.594727	-15.752612	37.805361	-5.394000
46826		-6.694083	-2.115603	7.727234	0.011282	-0.185979	0.010192	-0.395020	-0.076660	-0.604736	-15.716070	37.701933	-5.346439
46827		-6.479980	-2.077206	7.906020	-0.006500	-0.158311	-0.012046	-0.405029	-0.062988	-0.591553	-15.702711	37.612010	-5.319885
46828		-6.021776	-2.040751	7.767382	-0.030836	-0.116949	-0.027076	-0.404785	-0.076904	-0.586914	-15.714577	37.540858	-5.311943
46829		-6.116948	-2.058894	7.845187	-0.044183	-0.059032	-0.042516	-0.404053	-0.070557	-0.595947	-15.747589	37.500947	-5.326019
46830		-6.068438	-1.843303	7.802492	-0.066198	-0.020114	-0.059183	-0.403076	-0.077148	-0.593262	-15.804817	37.478194	-5.359303
46831		-6.056337	-1.828557	7.820844	-0.098585	0.028117	-0.093779	-0.399658	-0.061523	-0.599121	-15.901010	37.478247	-5.426042
46832		-6.241190	-1.787714	7.813371	-0.141215	0.057099	-0.129904	-0.405029	-0.073486	-0.594482	-16.040362	37.486787	-5.523657
46833		-6.154970	-1.981214	7.653972	-0.174053	0.070300	-0.157273	-0.399902	-0.066406	-0.592041	-16.211724	37.499688	-5.642893
46834		-6.068604	-2.340381	7.583721	-0.179509	0.085533	-0.161155	-0.400146	-0.071777	-0.591553	-16.389813	37.518393	-5.768031
46835		-6.069446	-2.565666	7.390368	-0.159660	0.093984	-0.144595	-0.403320	-0.069092	-0.602783	-16.550687	37.545786	-5.883484
46836		-5.929067	-2.834235	7.386848	-0.128568	0.097434	-0.108533	-0.399902	-0.067139	-0.586182	-16.679093	37.579101	-5.974852
46837		-6.098163	-2.712467	7.467783	-0.097309	0.105028	-0.088569	-0.398682	-0.070068	-0.593262	-16.782304	37.621361	-6.054080
46838		-5.939340	-2.362535	7.471094	-0.096770	0.107269	-0.084299	-0.409912	-0.062988	-0.601807	-16.883758	37.663814	-6.130983
46839		-5.761228	-2.637412	7.522083	-0.086538	0.128072	-0.069318	-0.398193	-0.068848	-0.588867	-16.975925	37.721680	-6.202027
46840		-5.877933	-2.420150	7.430301	-0.062066	0.133090	-0.049719	-0.393066	-0.062744	-0.590088	-17.046465	37.783887	-6.260722
46841		-5.987961	-2.369474	7.487152	-0.053185	0.150125	-0.041947	-0.392578	-0.067139	-0.599365	-17.111115	37.858254	-6.317808
46842		-6.153233	-2.195458	7.417215	-0.056778	0.151634	-0.041893	-0.402344	-0.064209	-0.589844	-17.178026	37.931828	-6.375340
46843		-6.289182	-2.019102	7.414204	-0.080826	0.141818	-0.060821	-0.393066	-0.058838	-0.596924	-17.265799	37.998321	-6.444084
46844		-6.157199	-2.202329	7.344958	-0.096570	0.134869	-0.072009	-0.398682	-0.062988	-0.598389	-17.366497	38.057452	-6.519283
46845		-5.901832	-2.132467	7.359209	-0.113037	0.136908	-0.096720	-0.385742	-0.064453	-0.594971	-17.487794	38.114911	-6.612293
46846		-6.085651	-2.146568	7.519408	-0.144336	0.151152	-0.115651	-0.395752	-0.054443	-0.598389	-17.637188	38.175136	-6.721827
46847		-6.038037	-2.088433	7.355176	-0.167177	0.147200	-0.133807	-0.390869	-0.058838	-0.594727	-17.807296	38.231346	-6.843391
46848		-6.109738	-2.176423	7.284378	-0.169411	0.157421	-0.141300	-0.395264	-0.058838	-0.590332	-17.983514	38.289973	-6.972759
46849		-6.253138	-2.125314	7.190928	-0.167449	0.160647	-0.142419	-0.395508	-0.055420	-0.588135	-18.159935	38.351385	-7.103963
46850		-6.280147	-2.240356	7.101871	-0.164377	0.159151	-0.146156	-0.386230	-0.058594	-0.595459	-18.336236	38.409455	-7.237770
46851		-6.252119	-2.305215	7.181438	-0.161715	0.158287	-0.148558	-0.394043	-0.054443	-0.593018	-18.512306	38.467853	-7.373369
46852		-6.103691	-2.332277	7.270986	-0.173850	0.159015	-0.148716	-0.390137	-0.050293	-0.594238	-18.695752	38.524729	-7.509593
46853		-6.076343	-2.456735	7.335091	-0.183747	0.172844	-0.154769	-0.389648	-0.050537	-0.583740	-18.889917	38.589190	-7.653626
46854		-5.953767	-2.631459	7.272844	-0.180091	0.196771	-0.142784	-0.391113	-0.055176	-0.588623	-19.080695	38.666916	-7.795476
46855		-5.926036	-2.846159	7.135110	-0.154045	0.217543	-0.109024	-0.378174	-0.051270	-0.593018	-19.245584	38.763417	-7.919398
46856		-6.106521	-2.946924	7.126841	-0.118528	0.246307	-0.067746	-0.384521	-0.052979	-0.585938	-19.376965	38.881515	-8.022168
46857		-6.190400	-3.018359	6.989468	-0.073561	0.249891	-0.014918	-0.387207	-0.051025	-0.605713	-19.460661	39.012964	-8.089598
46858		-6.305705	-2.921265	6.980558	-0.027072	0.245339	0.028346	-0.378174	-0.053711	-0.581299	-19.498217	39.148663	-8.126085
46859		-6.256778	-2.805939	6.968522	0.012617	0.241724	0.064042	-0.373779	-0.041992	-0.594482	-19.497079	39.290724	-8.136969
46860		-6.172319	-2.961833	6.991137	0.049281	0.238245	0.104150	-0.375000	-0.053955	-0.590088	-19.456413	39.437075	-8.118879
46861		-6.049220	-3.002197	6.950745	0.104229	0.258484	0.153607	-0.363525	-0.039551	-0.592773	-19.365436	39.605251	-8.070945
46862		-6.143663	-2.994450	6.983514	0.158551	0.278676	0.199435	-0.370850	-0.054443	-0.598633	-19.225219	39.791460	-7.995145
46863		-6.190330	-2.925665	6.845312	0.208884	0.316583	0.242440	-0.365723	-0.054199	-0.590576	-19.042173	40.007562	-7.897464
46864		-6.344241	-2.808006	6.977914	0.259544	0.364555	0.269961	-0.364746	-0.052246	-0.592773	-18.823588	40.253053	-7.790535
46865		-6.463772	-2.375163	7.139179	0.272863	0.388366	0.268835	-0.359131	-0.049072	-0.590088	-18.600552	40.512392	-7.688623
46866		-6.445736	-2.378457	7.033041	0.273250	0.404973	0.265799	-0.360107	-0.054443	-0.601074	-18.379467	40.778450	-7.591036
46867		-6.387651	-2.400413	7.042299	0.273670	0.425196	0.280365	-0.347656	-0.055176	-0.606445	-18.153256	41.059280	-7.486099
46868		-6.409644	-2.442681	7.054621	0.282151	0.441883	0.286649	-0.343018	-0.058594	-0.600342	-17.919752	41.348550	-7.378493
46869		-6.504017	-2.382604	6.946136	0.287378	0.485042	0.310384	-0.341797	-0.062744	-0.604492	-17.677018	41.666610	-7.261694
46870		-6.571921	-2.262461	6.977543	0.288971	0.492378	0.337135	-0.332764	-0.065430	-0.612305	-17.418949	41.991486	-7.124431
46871		-6.652345	-2.436675	7.090128	0.269280	0.476157	0.344841	-0.338135	-0.061035	-0.609375	-17.163854	42.309756	-6.975215
46872		-6.555814	-2.583908	7.037937	0.245653	0.464060	0.388421	-0.329834	-0.065674	-0.595703	-16.895776	42.626787	-6.788050
46873		-6.450512	-2.546782	7.127916	0.247975	0.461077	0.456478	-0.319824	-0.072266	-0.601563	-16.588834	42.954107	-6.546324
46874		-6.540898	-2.691177	7.103505	0.236717	0.501393	0.526424	-0.312256	-0.080078	-0.609375	-16.254361	43.312526	-6.256893
46875		-6.426256	-2.596874	7.233292	0.231447	0.541975	0.547996	-0.305908	-0.074219	-0.604980	-15.913605	43.696802	-5.955441
46876		-6.481067	-2.062809	7.374690	0.190662	0.646873	0.589083	-0.300293	-0.075439	-0.609863	-15.584480	44.142686	-5.639830
46877		-6.286003	-1.491239	7.653687	0.065781	0.769176	0.618184	-0.297852	-0.080322	-0.612305	-15.323953	44.660651	-5.322230
46878		-6.097581	-1.491334	7.786048	0.005379	0.971954	0.582611	-0.284180	-0.073730	-0.604248	-15.141253	45.283208	-5.069445
46879		-6.041863	-1.557945	7.775234	-0.050672	1.197221	0.566386	-0.277344	-0.072998	-0.604248	-15.028625	46.028658	-4.872325
46880		-6.087921	-1.650347	7.868749	-0.030904	1.452669	0.555765	-0.261719	-0.071533	-0.611572	-14.944924	46.912524	-4.733781
46881		-6.261681	-0.858840	8.077031	-0.062806	1.716765	0.543402	-0.246338	-0.072998	-0.605957	-14.925414	47.941679	-4.659433
46882		-6.501989	-0.778247	7.877073	-0.086635	1.978824	0.509110	-0.229736	-0.074219	-0.610596	-14.982801	49.109847	-4.671051
46883		-6.348536	-0.640275	8.029330	-0.101134	2.222427	0.462324	-0.215088	-0.071777	-0.604248	-15.124824	50.406652	-4.782321
46884		-6.351394	-0.836126	7.974763	-0.117740	2.498072	0.411698	-0.187500	-0.073486	-0.607422	-15.372194	51.847122	-5.014614
46885		-6.457077	-0.922039	7.831909	-0.105323	2.775120	0.400088	-0.159424	-0.058594	-0.599854	-15.695980	53.438629	-5.347247
46886		-6.511603	-1.006318	7.571009	-0.108159	3.042441	0.441910	-0.134277	-0.074463	-0.594727	-16.078011	55.182117	-5.742444
46887		-6.450220	-0.988226	7.336230	-0.093010	3.301963	0.510925	-0.108398	-0.065186	-0.600098	-16.497337	57.078165	-6.184527
46888		-6.216350	-0.868479	7.306168	-0.041877	3.636837	0.569514	-0.083984	-0.064453	-0.589844	-16.977859	59.165240	-6.723177
46889		-6.288768	-1.337087	7.118622	-0.014494	4.202677	0.597983	-0.048340	-0.065918	-0.583008	-17.664457	61.563831	-7.504724
46890		-7.491179	-2.443221	7.219832	-0.041037	4.767572	0.460453	-0.006592	-0.063721	-0.564941	-18.864466	64.238370	-8.827000
46891		-7.996080	-2.857265	7.718788	-0.156900	5.121217	0.346923	0.037109	-0.069336	-0.557129	-20.728651	67.064517	-10.775168
46892		-7.266972	-3.857048	7.609895	-0.279998	5.512122	0.470481	0.077881	-0.068115	-0.543701	-23.258023	70.092468	-13.319948
46893		-8.474762	-3.749019	7.761316	-0.409568	5.888527	0.726296	0.131104	-0.061768	-0.516357	-26.646236	73.325774	-16.641030
46894		-10.988730	-3.773462	7.061689	-0.517907	6.274086	1.004876	0.167236	-0.071045	-0.488770	-31.595308	76.747640	-21.455209
46895		-13.863656	-3.078002	6.157214	-0.739904	6.646228	1.388850	0.217529	-0.065430	-0.452393	-39.766817	80.311016	-29.357367
46896		-17.691837	-2.873401	5.577430	-1.140989	6.781007	1.640676	0.262207	-0.063965	-0.413818	-56.526359	83.636313	-45.614327
46897		-19.189179	-3.522353	6.266358	-1.436919	6.749324	1.848956	0.314209	-0.062500	-0.380859	-95.529845	85.713630	-83.942949
46898		-19.259570	-5.280452	6.646323	-1.497902	6.332520	1.926165	0.351318	-0.069092	-0.342041	-142.553231	84.851435	-130.247986
46899		-16.842757	-3.896201	6.526224	-1.355474	5.960675	2.091937	0.394287	-0.074951	-0.299316	-166.115083	82.246060	-153.169757
46900		-15.662487	-3.073470	7.529444	-1.428107	5.595063	2.020753	0.420654	-0.084229	-0.250244	-176.890403	79.238575	-163.254833
46901		-11.767147	-2.019213	6.735084	-1.648368	5.360787	1.969724	0.448730	-0.084961	-0.217529	176.969144	76.170749	-168.571801
46902		-8.113861	-1.160059	6.914619	-2.037618	5.215008	1.835925	0.476074	-0.091797	-0.159668	172.935070	73.103824	-171.544204
46903		-4.323022	-0.615375	5.394622	-2.506969	5.058483	1.656386	0.496338	-0.094482	-0.126953	169.966654	70.103131	-173.159277
46904		-1.568501	2.116507	3.865474	-3.216728	5.151500	1.486438	0.511719	-0.101074	-0.079834	167.460379	67.044690	-173.872041
46905		-18.256251	-0.060705	5.242780	-4.106018	5.553004	1.118781	0.527100	-0.086914	-0.019775	165.374238	63.808637	-173.580076
46906		-18.921149	-5.059347	8.161297	-4.642060	4.228409	0.617033	0.540527	-0.083740	0.021484	163.313637	61.383045	-172.906020
46907		-15.104714	-6.338779	6.956792	-4.821137	3.052676	0.134409	0.548828	-0.076660	0.052734	161.357595	59.701272	-171.981808
46908		-14.801966	-10.435400	7.026304	-4.439202	1.740265	-0.332450	0.550781	-0.059082	0.083984	159.670894	58.827103	-170.986091
46909		-13.654772	-13.900796	6.438568	-3.334660	0.325220	-0.733658	0.546631	-0.046143	0.086426	158.517325	58.812349	-170.103623
46910		-11.047705	-14.738490	5.879277	-1.657126	-0.895817	-1.076030	0.542236	-0.035400	0.080811	158.206214	59.518905	-169.361301
46911		-9.555028	-12.640532	5.500098	0.067457	-1.881647	-1.292137	0.534668	-0.024414	0.059570	158.756853	60.804144	-168.774047
46912		-9.336671	-9.331237	5.258163	1.379430	-2.755484	-1.454846	0.515625	-0.010010	0.038330	159.957006	62.577596	-168.309797
46913		-9.645506	-6.308624	5.080832	2.181449	-3.594482	-1.628646	0.515625	0.002930	0.001709	161.621787	64.841352	-167.850365
46914		-9.914892	-3.945389	5.063170	2.538989	-4.405125	-1.788485	0.484375	0.011719	-0.042480	163.576345	67.558558	-167.305585
46915		-10.258588	-2.418011	5.000825	2.600531	-5.140592	-1.936680	0.465576	0.019775	-0.095947	165.841715	70.705237	-166.479334
46916		-10.336759	-1.467577	4.815756	2.543464	-5.769989	-2.052043	0.433838	0.028564	-0.144287	168.605211	74.192104	-165.111481
46917		-10.322841	-0.080874	4.326366	2.339650	-6.280869	-2.094485	0.402588	0.050293	-0.192139	172.325562	77.954393	-162.663911
46918		-9.751372	1.416606	3.340321	1.910239	-6.746845	-2.074568	0.362061	0.057861	-0.258301	178.304822	81.910815	-157.707232
46919		-7.873965	2.182312	2.732387	1.317378	-7.020130	-1.992255	0.310303	0.069092	-0.305420	-166.368992	85.837994	-143.064057
46920		-5.816693	2.768464	2.168072	0.671042	-7.002657	-1.917035	0.262939	0.078125	-0.341797	-90.557611	87.911033	-67.564799
46921		-5.062155	3.019575	1.854230	0.000040	-6.660956	-1.888776	0.207275	0.099121	-0.369873	-39.826637	85.041146	-16.765620
46922		-5.539813	1.730808	1.582851	-0.508376	-6.212200	-1.913097	0.152832	0.121338	-0.394287	-30.344446	81.484195	-6.930101
46923		-6.198683	-0.372922	1.541168	-0.698489	-5.784615	-1.961996	0.100342	0.127686	-0.410645	-27.324793	78.022943	-3.458018
46924		-7.002803	-3.041195	2.036921	-0.474229	-5.434907	-2.040376	0.051758	0.160645	-0.421875	-26.113300	74.713751	-1.933368
46925		-8.068680	-5.310154	2.844609	0.182559	-5.211917	-2.149620	-0.000977	0.178223	-0.440186	-25.379430	71.474586	-1.277495
46926		-8.843087	-5.964665	3.989751	1.016569	-5.081066	-2.275554	-0.059814	0.190186	-0.454102	-24.651183	68.283207	-1.123463
46927		-10.141157	-4.950052	5.359639	1.719410	-5.015012	-2.457291	-0.118652	0.194336	-0.472900	-23.896005	65.070462	-1.375322
46928		-11.103254	-3.084703	6.535022	2.052266	-5.012059	-2.693753	-0.183105	0.191650	-0.481445	-23.245062	61.819192	-1.963338
46929		-11.730449	-2.140242	7.508838	2.052937	-5.036213	-2.948859	-0.255371	0.184814	-0.472656	-22.806120	58.487805	-2.814657
46930		-12.253046	-2.193374	8.311148	1.911605	-5.041686	-3.169332	-0.322510	0.185303	-0.470947	-22.562702	55.120156	-3.833725
46931		-13.322346	-3.037687	9.142310	1.791208	-5.045763	-3.302663	-0.379883	0.182373	-0.454834	-22.397436	51.710295	-4.907583
46932		-14.307111	-4.283459	9.880297	1.802741	-5.054381	-3.303699	-0.450928	0.172852	-0.442139	-22.139561	48.310881	-5.920347
46933		-15.746074	-5.427468	10.596283	1.949621	-5.102824	-3.199478	-0.505127	0.152832	-0.426514	-21.662825	44.899545	-6.803836
46934		-17.445319	-5.898282	11.162354	2.149451	-5.166072	-3.019151	-0.556396	0.142090	-0.396484	-20.931040	41.511324	-7.535433
46935		-19.474287	-6.192576	11.330736	2.298986	-5.251418	-2.772681	-0.605713	0.122559	-0.379639	-19.973514	38.122545	-8.100188
46936		-21.254292	-6.484614	10.518600	2.308045	-5.385292	-2.415452	-0.656738	0.093750	-0.352051	-18.853888	34.750244	-8.443732
46937		-22.735797	-5.955136	8.699136	2.113891	-5.540981	-1.976015	-0.705811	0.057373	-0.322754	-17.690646	31.366885	-8.535091
46938		-22.762482	-4.111625	5.863577	1.597084	-5.609607	-1.562395	-0.748535	0.021484	-0.284668	-16.718071	28.029513	-8.421510
46939		-22.053417	-1.140081	2.387431	0.677108	-5.385459	-1.289812	-0.782471	-0.018555	-0.232666	-16.244353	24.848650	-8.232011
46940		-22.238202	2.482346	-1.391052	-0.582844	-4.863718	-1.225717	-0.810547	-0.032471	-0.192139	-16.527390	21.974601	-8.106164
46941		-22.911453	5.187057	-5.650312	-1.924496	-4.123918	-1.364755	-0.818115	-0.062500	-0.140137	-17.647928	19.476053	-8.159799
46942		-23.736261	5.181262	-10.557286	-2.826192	-3.274407	-1.535521	-0.826904	-0.083252	-0.104004	-19.345142	17.415526	-8.408509
46943		-24.523635	2.616883	-15.549197	-2.699399	-2.444833	-1.429286	-0.830322	-0.106934	-0.067139	-20.974737	15.810783	-8.703644
46944		-25.095294	1.366829	-19.590940	-1.580347	-1.730632	-0.912147	-0.833252	-0.102783	-0.042725	-21.912173	14.694660	-8.828669
46945		-25.439396	3.978326	-21.354243	-0.185115	-1.078632	-0.094169	-0.824463	-0.117188	-0.027832	-21.969903	14.096651	-8.638548
46946		-22.604970	7.622904	-20.399676	0.604193	-0.323347	0.807603	-0.821533	-0.123291	-0.019043	-21.496777	14.093782	-8.121214
46947		-19.886567	13.847578	-16.958012	0.230586	1.634693	2.311685	-0.819092	-0.111816	-0.022461	-21.127389	15.446011	-7.193747
46948		-2.923274	-2.311737	1.763495	0.045063	2.425098	2.246214	-0.813721	-0.086426	-0.024902	-20.893660	17.202413	-6.457559
46949		-9.621379	-12.527524	31.549337	-0.118292	2.102149	1.925829	-0.812012	-0.080566	-0.025635	-20.763752	18.720074	-5.820120
46950		13.015223	-23.950906	25.014948	-0.116591	0.296456	0.820357	-0.805176	-0.069824	-0.010986	-20.698685	19.043145	-5.415594
46951		8.708254	-13.825581	-0.556426	0.669579	1.844631	0.276408	-0.799316	-0.081787	-0.020264	-20.392605	20.086724	-5.648377
46952		-2.048057	-6.015474	-1.784023	1.030158	4.006837	-0.083794	-0.792725	-0.083984	-0.023682	-20.125138	22.221665	-6.545480
46953		-13.277681	0.962169	7.580563	0.914677	4.693214	-0.709773	-0.788818	-0.094971	-0.027100	-20.166704	24.604083	-7.967271
46954		-13.225550	8.052172	14.136361	0.503859	4.210394	-0.514196	-0.783203	-0.098633	-0.032471	-20.410688	26.762524	-9.198394
46955		-10.702883	12.482061	15.302107	-0.038951	3.644708	0.519696	-0.770264	-0.099854	-0.046875	-20.670397	28.821217	-9.707860
46956		-15.679330	2.538881	12.610727	-0.420897	2.957809	1.433382	-0.768555	-0.093750	-0.047607	-20.812760	30.694762	-9.510727
46957		-12.164136	-14.466401	3.152833	-0.280485	2.417656	1.291031	-0.756104	-0.094971	-0.049316	-20.848236	32.251861	-9.273642
46958		-13.229530	-15.866774	3.601400	0.360899	2.664267	1.349953	-0.749268	-0.086914	-0.050293	-20.518082	33.951002	-9.049540
46959		-16.905919	-0.205880	10.545937	0.703157	1.692569	1.203858	-0.740967	-0.080322	-0.053711	-19.898126	35.099323	-8.666769
46960		-12.231655	0.609857	9.289118	0.483405	0.844946	1.025357	-0.744141	-0.078613	-0.055908	-19.339875	35.750362	-8.183168
46961		-9.073291	-5.120522	6.717736	0.524095	0.708247	0.664095	-0.736572	-0.080566	-0.068115	-18.872050	36.258951	-7.899029
46962		-9.433774	-0.816820	9.038521	0.549527	0.594811	0.534666	-0.732178	-0.078125	-0.063232	-18.419863	36.677518	-7.669594
46963		-8.406155	0.196559	9.080434	0.324434	0.339956	0.346121	-0.738037	-0.081299	-0.060059	-18.135971	36.925475	-7.506822
46964		-6.930860	-2.457656	8.007823	0.211631	0.294614	0.187536	-0.737305	-0.079346	-0.056396	-17.973767	37.116944	-7.440406
46965		-6.639578	-1.593739	8.635648	0.137359	0.296753	0.110400	-0.741699	-0.075684	-0.056396	-17.886045	37.299074	-7.426588
46966		-6.055394	-2.052567	8.080740	0.023103	0.262574	0.070479	-0.733887	-0.078857	-0.055664	-17.875351	37.452317	-7.432356
46967		-5.911447	-3.205085	7.642783	0.015109	0.296391	0.076049	-0.729004	-0.080566	-0.069580	-17.871673	37.628177	-7.441761
46968		-6.669795	-2.211273	7.806972	0.002257	0.286379	0.075782	-0.721680	-0.081055	-0.055176	-17.873951	37.795334	-7.449164
46969		-6.889795	-1.724845	8.023968	-0.069868	0.269081	0.036657	-0.730957	-0.079102	-0.063721	-17.932090	37.949350	-7.479850
46970		-6.666634	-1.981511	7.769239	-0.126754	0.262322	-0.023062	-0.721436	-0.082764	-0.059570	-18.047385	38.085894	-7.550685
46971		-6.709733	-2.143762	7.599480	-0.154692	0.278483	-0.067018	-0.726318	-0.074707	-0.066406	-18.200368	38.226486	-7.656128
46972		-6.498493	-1.920151	7.601074	-0.177112	0.294991	-0.111432	-0.731201	-0.085449	-0.059814	-18.388125	38.364610	-7.796897
46973		-6.380398	-1.853320	7.630496	-0.217212	0.324570	-0.165542	-0.720215	-0.076660	-0.063477	-18.627421	38.511787	-7.982955
46974		-6.424770	-2.045916	7.474185	-0.251762	0.333360	-0.213127	-0.724854	-0.084717	-0.062500	-18.909410	38.651060	-8.205361
46975		-6.364212	-2.238608	7.266110	-0.268995	0.348189	-0.248335	-0.724854	-0.088623	-0.064453	-19.220125	38.794116	-8.457066
46976		-6.211183	-2.840195	6.895454	-0.248039	0.336032	-0.241767	-0.726563	-0.078857	-0.072754	-19.515424	38.927565	-8.702736
46977		-6.074899	-3.136972	6.763185	-0.193469	0.310116	-0.201126	-0.727051	-0.076904	-0.060059	-19.758998	39.057205	-8.914998
46978		-6.145684	-3.268754	6.645179	-0.132970	0.273764	-0.135914	-0.728271	-0.077881	-0.062744	-19.934445	39.176083	-9.073848
46979		-6.117005	-3.527222	6.431587	-0.052696	0.221093	-0.049788	-0.722900	-0.089844	-0.076416	-20.018473	39.286426	-9.160145
46980		-5.982614	-3.804241	6.273852	0.047764	0.161343	0.065210	-0.717285	-0.088623	-0.074951	-19.984616	39.383859	-9.151417
46981		-5.788457	-4.260299	6.163576	0.180056	0.108039	0.219965	-0.726074	-0.078857	-0.072754	-19.798071	39.485977	-9.021121
46982		-5.743465	-4.404889	6.190965	0.348516	0.041027	0.400958	-0.719727	-0.080078	-0.062500	-19.422649	39.582988	-8.746546
46983		-6.162701	-4.039452	6.253867	0.516769	-0.018520	0.571165	-0.720215	-0.079346	-0.063232	-18.864637	39.681243	-8.336601
46984		-6.640421	-3.258877	6.437627	0.660234	-0.096215	0.665456	-0.720947	-0.077881	-0.066895	-18.167877	39.747757	-7.839680
46985		-6.933022	-2.169844	6.618629	0.768327	-0.193696	0.676383	-0.719482	-0.078125	-0.059570	-17.389662	39.761328	-7.311680
46986		-6.907540	-1.841102	6.582958	0.831892	-0.259353	0.624820	-0.715088	-0.082275	-0.062256	-16.588690	39.721436	-6.805876
46987		-5.676581	-1.942258	6.805484	0.775591	-0.228103	0.611868	-0.720215	-0.076904	-0.065918	-15.831581	39.694734	-6.316991
46988		-5.817289	-1.722864	7.396600	0.738486	-0.076891	0.540155	-0.712158	-0.078369	-0.070313	-15.147444	39.732468	-5.909987
46989		-6.352214	-1.812392	7.368761	0.726895	-0.023561	0.485444	-0.718750	-0.075439	-0.072754	-14.501460	39.791402	-5.551861
46990		-6.531463	-1.398195	7.716907	0.672133	-0.008499	0.415634	-0.723877	-0.077637	-0.064941	-13.919426	39.842611	-5.245817
46991		-6.163145	-1.427542	7.793310	0.580653	-0.025931	0.420873	-0.713623	-0.079346	-0.066162	-13.385153	39.885843	-4.932120
46992		-6.709054	-1.051991	7.761262	0.482222	0.027256	0.379161	-0.721924	-0.063965	-0.060303	-12.931408	39.947917	-4.657068
46993		-6.683730	-0.913036	7.822574	0.417369	0.032341	0.356656	-0.709473	-0.070313	-0.068115	-12.525485	40.011702	-4.398417
46994		-6.435265	-0.884531	7.902573	0.347891	0.039996	0.329740	-0.710205	-0.076904	-0.063477	-12.171759	40.071864	-4.159913
46995		-6.409473	-1.225464	7.675754	0.299175	0.062423	0.307600	-0.715820	-0.078613	-0.069824	-11.858203	40.144169	-3.940375
46996		-6.241132	-1.259018	7.708996	0.272856	0.106721	0.302826	-0.719238	-0.070557	-0.068848	-11.565416	40.236603	-3.730414
46997		-6.319853	-1.244380	7.678842	0.231942	0.158380	0.277345	-0.712891	-0.072266	-0.068359	-11.312421	40.357633	-3.545897
46998		-6.417277	-1.572625	7.565169	0.221129	0.211211	0.266532	-0.712646	-0.066650	-0.065186	-11.074689	40.503306	-3.376165
46999		-6.171689	-1.707885	7.513607	0.225180	0.258143	0.275577	-0.710449	-0.076904	-0.060547	-10.833589	40.679038	-3.205125
47000		-6.227595	-1.557735	7.541112	0.210924	0.325974	0.294830	-0.703613	-0.071533	-0.070313	-10.596074	40.891248	-3.027994
47001		-6.248907	-1.496668	7.540674	0.197557	0.402612	0.316474	-0.706055	-0.069336	-0.075928	-10.360911	41.151506	-2.843362
47002		-6.379906	-1.276593	7.591112	0.180157	0.467484	0.323670	-0.705811	-0.064697	-0.066650	-10.135786	41.445343	-2.660108
47003		-6.410587	-1.067314	7.589332	0.139416	0.531487	0.312095	-0.699219	-0.061523	-0.064941	-9.943250	41.776753	-2.491676
47004		-6.465815	-1.181597	7.695394	0.107474	0.603653	0.294559	-0.699463	-0.065918	-0.078613	-9.781939	42.143666	-2.343946
47005		-6.411719	-1.452808	7.572623	0.087753	0.678263	0.286148	-0.694336	-0.062988	-0.077393	-9.640593	42.554684	-2.210007
47006		-6.455024	-1.354446	7.695735	0.079735	0.763073	0.287786	-0.695313	-0.067139	-0.081299	-9.508180	43.010462	-2.083730
47007		-6.432579	-1.724721	7.615257	0.094243	0.865701	0.305552	-0.694092	-0.073486	-0.076904	-9.364570	43.528696	-1.954217
47008		-6.279795	-2.215876	7.747667	0.182570	0.994887	0.313246	-0.689209	-0.059326	-0.083252	-9.174447	44.117409	-1.832100
47009		-6.185447	-0.655624	8.199671	0.269169	1.189639	0.269911	-0.678711	-0.066650	-0.092041	-8.972237	44.814992	-1.764710
47010		-5.861012	-0.214687	8.401588	0.034380	1.477352	0.354178	-0.666748	-0.064453	-0.086670	-8.879039	45.679890	-1.662563
47011		-6.386902	-1.157458	7.966444	0.090635	1.697055	0.363844	-0.664551	-0.065186	-0.096436	-8.763933	46.672612	-1.576218
47012		-6.156166	-0.186878	8.176535	0.051606	1.973062	0.359841	-0.663086	-0.071289	-0.103271	-8.695577	47.818482	-1.524701
47013		-5.980984	-0.214552	8.394457	-0.005830	2.277883	0.343301	-0.640625	-0.075195	-0.100830	-8.697960	49.138070	-1.524674
47014		-5.933919	-0.285536	8.367458	-0.046742	2.630439	0.331175	-0.624023	-0.065674	-0.118164	-8.769539	50.653730	-1.584487
47015		-5.653964	-0.561358	8.389247	-0.065464	2.998716	0.376671	-0.627197	-0.073242	-0.125244	-8.865293	52.384095	-1.660201
47016		-5.378991	-0.612698	8.487276	-0.128399	3.232479	0.391705	-0.605469	-0.074219	-0.128418	-9.023113	54.245745	-1.766436
47017		-5.682348	-0.428352	8.847679	-0.159408	3.691883	0.546283	-0.585938	-0.065430	-0.137207	-9.144946	56.383009	-1.804842
47018		-5.082412	-0.237225	9.231703	-0.177906	4.010358	0.657509	-0.569092	-0.069824	-0.139160	-9.233778	58.708663	-1.790439
47019		-4.418802	-0.877421	8.663924	-0.145687	4.623549	0.857872	-0.542725	-0.074951	-0.160889	-9.205167	61.400872	-1.662483
47020		-6.167999	-1.545190	8.660497	-0.098058	5.613532	1.014717	-0.510498	-0.073242	-0.160889	-9.134193	64.665953	-1.520929
47021		-8.384442	-3.069043	9.769028	-0.225716	6.258135	1.040790	-0.479248	-0.080811	-0.169189	-9.216121	68.298800	-1.470525
47022		-9.005209	-4.016223	9.483715	-0.416529	6.672198	1.246306	-0.443604	-0.087402	-0.175049	-9.185366	72.183905	-1.185347
47023		-12.617718	-3.589479	8.037419	-0.547646	6.890431	1.498848	-0.411133	-0.083740	-0.163574	-8.652220	76.214627	-0.306688
47024		-16.894854	-3.823011	6.891484	-0.605401	6.970958	1.732284	-0.372803	-0.083008	-0.155762	-6.842842	80.303917	1.893397
47025		-20.095385	-3.195242	7.218137	-0.555010	6.784701	2.113153	-0.325195	-0.088867	-0.160889	0.095991	84.260337	9.211207
47026		-19.289357	-3.223094	7.723757	-0.443502	6.548775	2.354864	-0.269043	-0.101074	-0.150391	33.919735	87.596849	43.355771
47027		-16.341112	-2.662569	6.925585	-0.528897	6.392187	2.278992	-0.243408	-0.106934	-0.146973	121.963696	86.879274	131.767425
47028		-14.448835	-1.907223	7.461073	-0.819499	6.385331	2.008796	-0.197021	-0.123047	-0.122559	144.021238	83.477375	154.361963
47029		-11.310735	-0.983702	7.149998	-1.331873	6.205398	1.663954	-0.148682	-0.131348	-0.110352	150.865826	79.963247	162.045281
47030		-8.249859	0.490617	7.578902	-1.964534	6.033432	1.421203	-0.105469	-0.135986	-0.084473	153.951356	76.521769	166.344021
47031		-3.905235	1.585848	6.163893	-2.776058	5.797475	1.251720	-0.078613	-0.146973	-0.064209	155.224753	73.217583	169.309008
47032		-1.193923	3.600652	4.098309	-3.674490	5.950487	1.138134	-0.051514	-0.147949	-0.038086	155.583864	69.847431	171.905747
47033		-15.201091	2.323382	4.792106	-4.726786	6.340433	0.840135	-0.010254	-0.149658	-0.002686	155.516786	66.345890	174.750882
47034		-16.855222	-2.063955	7.408859	-5.467550	5.244229	0.438874	0.011230	-0.155273	0.022217	154.598781	63.517038	177.194794
47035		-13.457876	-4.428218	6.341561	-5.891652	4.274835	0.101836	0.032227	-0.159668	0.052246	153.178733	61.298632	179.400198
47036		-14.421861	-9.869219	6.464050	-5.543628	3.174095	-0.191377	0.045166	-0.166748	0.077393	151.658272	59.739224	-178.698725
47037		-13.856390	-14.151536	6.135642	-4.215561	1.858522	-0.649213	0.065674	-0.160889	0.098389	150.656374	58.994034	-177.057778
47038		-12.611738	-15.167565	6.552888	-2.340095	0.538303	-1.128225	0.082031	-0.176270	0.111328	150.500727	59.044581	-175.676561
47039		-12.663036	-13.353666	7.141571	-0.487954	-0.774828	-1.648218	0.090576	-0.172852	0.107910	151.252591	59.902118	-174.481705
47040		-11.966563	-10.425859	6.855695	1.020227	-2.068964	-2.150289	0.098145	-0.183350	0.108887	152.780079	61.528836	-173.401865
47041		-10.583478	-7.071205	6.277748	2.099366	-3.190081	-2.567423	0.113281	-0.188965	0.088379	154.983556	63.829638	-172.278948
47042		-10.258452	-4.030114	5.781590	2.737807	-4.112909	-2.851256	0.117432	-0.182617	0.073975	157.742560	66.645541	-170.969880
47043		-10.178299	-2.121659	5.706080	3.004377	-4.939704	-2.975150	0.128418	-0.173096	0.046143	160.967440	69.908725	-169.355511
47044		-10.943632	-0.869072	5.674561	3.074640	-5.671441	-3.027958	0.120850	-0.169922	0.028564	164.850696	73.527485	-167.123903
47045		-10.889196	-0.271854	5.170851	3.084223	-6.332665	-2.963760	0.115479	-0.173828	-0.005127	169.978618	77.454865	-163.657898
47046		-10.031212	1.393872	4.322850	2.931432	-6.875315	-2.759121	0.099365	-0.162354	-0.040283	177.887779	81.548109	-157.328265
47047		-8.356450	3.003820	3.893268	2.469971	-7.221949	-2.446646	0.088379	-0.160400	-0.058838	-163.786826	85.540561	-140.324956
47048		-7.105785	3.945860	3.651811	1.775715	-7.337990	-2.149196	0.073242	-0.159424	-0.107178	-90.983084	87.489265	-68.447180
47049		-5.517154	4.859344	3.208029	0.932234	-7.199487	-1.942762	0.062256	-0.157227	-0.126953	-41.206368	84.519809	-19.115876
47050		-5.333936	4.558306	2.941974	0.056335	-6.851693	-1.845851	0.038330	-0.152832	-0.152100	-30.108151	80.694314	-7.964916
47051		-5.709425	2.700773	2.558613	-0.571418	-6.447467	-1.799680	0.010742	-0.137451	-0.173340	-26.191971	76.932537	-3.643537
47052		-6.153764	0.158208	2.602785	-0.821468	-6.025890	-1.757656	-0.000732	-0.135254	-0.185303	-24.504830	73.378672	-1.413149
47053		-7.299008	-2.699459	3.341300	-0.651558	-5.673086	-1.709897	-0.032715	-0.121094	-0.196045	-23.568483	69.994976	-0.036199
47054		-9.023471	-4.814815	4.630966	-0.131662	-5.448118	-1.691196	-0.048340	-0.115479	-0.214111	-22.782675	66.741857	0.888910
47055		-10.876153	-5.624499	6.003365	0.501070	-5.381653	-1.774844	-0.063965	-0.114746	-0.226074	-21.983693	63.487286	1.451051
47056		-12.524916	-5.388785	7.322763	1.017225	-5.435593	-1.995339	-0.090820	-0.119141	-0.240234	-21.236473	60.168668	1.636186
47057		-13.466579	-5.039538	8.334508	1.329958	-5.544756	-2.313425	-0.114014	-0.126953	-0.245850	-20.636596	56.711418	1.444183
47058		-14.064255	-5.042500	9.139778	1.506270	-5.603784	-2.643147	-0.135498	-0.139648	-0.260986	-20.194321	53.171905	0.928909
47059		-14.934273	-5.350281	9.903371	1.612106	-5.596339	-2.942977	-0.155518	-0.137939	-0.278809	-19.874257	49.565175	0.154696
47060		-16.305829	-6.077152	10.870449	1.734638	-5.568091	-3.172762	-0.190186	-0.157715	-0.295654	-19.574404	45.946270	-0.784086
47061		-17.895691	-6.533662	11.699492	1.891292	-5.534847	-3.341996	-0.210205	-0.167725	-0.304688	-19.217442	42.302563	-1.829520
47062		-19.876714	-6.694383	12.356336	2.034211	-5.481543	-3.412895	-0.246338	-0.183105	-0.315674	-18.754570	38.694210	-2.913012
47063		-21.678414	-6.577218	11.460980	2.114471	-5.484668	-3.322977	-0.274170	-0.204102	-0.327393	-18.148828	35.094701	-3.924215
47064		-22.431629	-7.249410	8.879739	2.066351	-5.484485	-2.916936	-0.295166	-0.220703	-0.338379	-17.378004	31.589913	-4.677890
47065		-23.638235	-5.450522	6.120134	1.812438	-5.427254	-2.317120	-0.330078	-0.242920	-0.346680	-16.545425	28.213684	-5.093207
47066		-24.272771	-0.869729	3.224404	0.954660	-5.303726	-1.844005	-0.361328	-0.256104	-0.350830	-16.076232	24.998039	-5.269288
47067		-24.299689	4.213647	-0.498207	-0.570152	-5.013987	-1.661446	-0.388184	-0.259277	-0.349365	-16.448613	21.961220	-5.385598
47068		-23.715418	7.044040	-5.318545	-2.312646	-4.490113	-1.694487	-0.415527	-0.241699	-0.354492	-17.835446	19.214386	-5.563253
47069		-23.303610	6.898952	-10.460190	-3.554343	-3.704438	-1.785018	-0.443604	-0.235840	-0.349365	-19.961239	16.865892	-5.854733
47070		-24.197442	3.661229	-15.930626	-3.714341	-2.831134	-1.693761	-0.456543	-0.218750	-0.349854	-22.179734	15.001281	-6.186535
47071		-23.802508	0.473454	-21.149321	-2.604957	-1.930286	-1.355113	-0.463135	-0.216309	-0.337158	-23.742640	13.674373	-6.475741
47072		-23.684233	0.244124	-24.138709	-0.779341	-0.967794	-0.817846	-0.483643	-0.209717	-0.347412	-24.235414	12.975270	-6.680520
47073		-23.735303	3.028583	-22.893087	0.807394	0.015110	-0.119845	-0.478516	-0.218506	-0.349365	-23.787102	12.953090	-6.744996
47074		-21.346727	6.502337	-17.372563	1.371034	0.954170	0.517184	-0.464111	-0.225098	-0.346924	-22.986837	13.570473	-6.685037
47075		-11.604274	6.059221	-3.793081	0.719478	2.668006	1.410793	-0.454834	-0.209473	-0.358887	-22.534390	15.293929	-6.522486
47076		1.913868	-10.791696	14.723562	0.517107	2.668784	1.187305	-0.431152	-0.218262	-0.367432	-22.222603	16.964787	-6.470200
47077		3.525687	-20.004002	36.716315	0.792158	2.042094	1.221299	-0.410889	-0.219238	-0.361084	-21.700755	18.313055	-6.244843
47078		11.146236	-14.772102	14.694325	1.331677	1.162623	0.205955	-0.403809	-0.234619	-0.378662	-20.980380	18.974313	-6.381184
47079		8.192659	-3.204629	-4.351675	1.445888	3.001031	-0.051618	-0.381104	-0.237061	-0.386230	-20.380202	20.571829	-7.052539
47080		-4.596503	1.705326	0.632000	1.411762	5.187644	-0.140365	-0.346191	-0.235352	-0.386719	-20.012973	23.331485	-8.236648
47081		-20.449490	7.010321	12.008045	0.910783	5.104427	-0.505836	-0.322021	-0.251465	-0.397217	-20.076286	25.978746	-9.635950
47082		-11.567554	12.392053	14.940150	0.417984	4.255656	0.124921	-0.286865	-0.250244	-0.407227	-20.230284	28.290269	-10.500692
47083		-8.901897	11.531848	13.942946	-0.113905	4.006305	1.522480	-0.260986	-0.241699	-0.406738	-20.280002	30.746061	-10.469857
47084		-16.325154	-7.224874	10.941192	-0.078798	3.349751	2.646283	-0.242432	-0.245361	-0.404297	-19.845302	33.066836	-9.563972
47085		-13.687088	-23.467027	0.865056	0.635078	2.812397	2.081380	-0.210938	-0.246094	-0.408936	-19.081206	34.984436	-8.851049
47086		-23.819501	-9.600933	4.508149	1.561456	2.419086	1.946555	-0.200195	-0.260498	-0.410156	-17.735364	36.649449	-8.081887
47087		-21.436477	5.487766	11.953397	1.430357	0.621585	1.544162	-0.190918	-0.273926	-0.412842	-16.356619	37.251513	-7.150770
47088		-8.590102	0.250695	8.844796	0.949108	0.050177	1.021790	-0.189209	-0.277100	-0.414795	-15.385821	37.436828	-6.448442
47089		-9.269601	0.810515	9.208173	0.727082	-0.099989	0.553669	-0.188232	-0.283447	-0.414795	-14.720669	37.466845	-6.040094
47090		-7.643228	1.469330	8.735622	0.424249	-0.094507	0.327739	-0.191650	-0.286133	-0.408936	-14.324605	37.458998	-5.790147
47091		-6.626503	-2.225782	8.332743	0.269464	-0.085091	0.199862	-0.197754	-0.282715	-0.407227	-14.072914	37.442934	-5.631292
47092		-6.012338	-2.140851	8.342436	0.241384	-0.010468	0.200910	-0.189941	-0.290283	-0.412354	-13.844664	37.462334	-5.484954
47093		-6.128219	-1.137678	8.150446	0.191214	0.087770	0.176397	-0.193604	-0.292236	-0.409912	-13.665838	37.538262	-5.372342
47094		-6.409193	-0.934561	7.858436	0.106453	0.154311	0.111456	-0.187012	-0.289307	-0.418945	-13.569831	37.636661	-5.316509
47095		-6.004217	-2.245729	7.620743	0.081076	0.198813	0.098794	-0.185303	-0.295166	-0.415039	-13.498158	37.763697	-5.276633
47096		-6.216999	-1.655653	7.843923	0.073302	0.234542	0.090086	-0.178955	-0.281738	-0.403076	-13.438204	37.903833	-5.248922
47097		-6.512406	-1.858408	7.593567	0.063013	0.265387	0.072590	-0.177979	-0.286865	-0.409668	-13.394760	38.064406	-5.238338
47098		-6.267748	-2.431693	7.527012	0.087537	0.288289	0.107853	-0.183838	-0.290527	-0.401367	-13.324055	38.236815	-5.206622
47099		-6.339337	-1.618543	7.641296	0.111860	0.310145	0.131155	-0.181152	-0.287109	-0.403320	-13.231130	38.430049	-5.161403
47100		-6.359656	-1.264546	7.708643	0.080974	0.324915	0.116600	-0.182373	-0.297852	-0.412598	-13.163461	38.623961	-5.128786
47101		-6.212505	-1.809002	7.560869	0.081374	0.364955	0.130795	-0.170898	-0.291504	-0.406738	-13.093018	38.847644	-5.092057
47102		-6.230612	-2.109157	7.382733	0.098344	0.373140	0.159547	-0.175293	-0.292725	-0.406250	-13.000325	39.073961	-5.035778
47103		-6.350133	-2.107751	7.249292	0.120351	0.365294	0.187662	-0.170410	-0.292236	-0.403809	-12.880765	39.305024	-4.956987
47104		-6.287908	-2.174209	7.150942	0.151197	0.331751	0.223275	-0.167236	-0.296631	-0.400146	-12.722848	39.516118	-4.846210
47105		-6.590717	-2.207551	7.116107	0.175206	0.289372	0.240403	-0.164795	-0.288818	-0.410156	-12.537873	39.711018	-4.714754
47106		-6.492764	-1.893250	7.016510	0.189667	0.245690	0.246712	-0.165771	-0.301270	-0.408936	-12.336064	39.876302	-4.570729
47107		-6.679860	-2.003241	7.066918	0.182014	0.190858	0.186642	-0.163086	-0.302002	-0.409180	-12.160379	40.008863	-4.460659
47108		-6.591859	-1.866221	6.972367	0.186052	0.158206	0.142829	-0.161377	-0.299316	-0.407959	-11.999021	40.111983	-4.377067
47109		-6.537286	-1.700790	7.011543	0.200034	0.158451	0.177133	-0.160156	-0.307373	-0.414551	-11.813121	40.224790	-4.267625
47110		-6.452043	-1.558262	7.069069	0.188851	0.128925	0.186695	-0.161377	-0.301758	-0.403564	-11.625474	40.316184	-4.146205
47111		-6.448264	-1.357765	7.213574	0.187869	0.113875	0.149748	-0.163330	-0.309326	-0.402344	-11.454209	40.400320	-4.049022
47112		-6.488291	-1.070295	7.321557	0.183907	0.100556	0.116403	-0.158447	-0.302734	-0.411377	-11.299388	40.467279	-3.974253
47113		-6.481452	-0.917410	7.435445	0.162211	0.107536	0.160444	-0.159912	-0.307617	-0.407959	-11.136306	40.548636	-3.867404
47114		-6.486756	-0.733451	7.479130	0.127030	0.110734	0.137917	-0.165771	-0.302002	-0.407959	-11.004100	40.623380	-3.777539
47115		-6.592521	-0.982366	7.399434	0.107742	0.120085	0.147070	-0.160889	-0.316650	-0.406006	-10.879021	40.709944	-3.681603
47116		-6.539052	-1.138387	7.318879	0.086888	0.125772	0.143396	-0.153320	-0.309326	-0.409424	-10.767933	40.793446	-3.589157
47117		-6.647433	-1.344032	7.268408	0.082535	0.131938	0.138687	-0.152588	-0.308105	-0.408447	-10.661721	40.885507	-3.500410
47118		-6.606623	-1.482994	7.198009	0.080482	0.142179	0.137746	-0.156006	-0.309570	-0.402344	-10.557910	40.977391	-3.413804
47119		-6.661650	-1.495843	7.252615	0.088063	0.137412	0.144372	-0.150879	-0.315674	-0.413086	-10.445569	41.072891	-3.320884
47120		-6.562777	-1.428134	7.268043	0.093576	0.136235	0.144778	-0.155762	-0.301270	-0.411377	-10.329576	41.161897	-3.227485
47121		-6.597064	-1.373459	7.281151	0.096281	0.143167	0.147034	-0.152832	-0.316406	-0.408447	-10.211008	41.260631	-3.132603
47122		-6.578135	-1.322232	7.300408	0.098441	0.159186	0.149408	-0.155762	-0.309570	-0.407959	-10.091226	41.362758	-3.038046
47123		-6.596572	-1.271843	7.340541	0.100652	0.175187	0.164463	-0.154297	-0.313477	-0.410645	-9.963465	41.480987	-2.933465
47124		-6.575531	-1.297149	7.278402	0.109178	0.191662	0.182852	-0.150391	-0.312988	-0.407227	-9.822721	41.604416	-2.817008
47125		-6.564707	-1.314059	7.365366	0.107755	0.211024	0.191315	-0.141113	-0.319092	-0.412354	-9.679361	41.745095	-2.695628
47126		-6.525609	-1.389389	7.360752	0.103105	0.226363	0.186636	-0.144531	-0.319824	-0.410156	-9.541863	41.888058	-2.579445
47127		-6.499425	-1.341681	7.343638	0.095266	0.263852	0.195550	-0.137939	-0.322266	-0.405518	-9.406539	42.058522	-2.460096
47128		-6.502581	-1.327440	7.415561	0.076481	0.296266	0.193298	-0.146240	-0.315918	-0.400146	-9.285265	42.241223	-2.346106
47129		-6.536093	-1.276977	7.385175	0.060494	0.352068	0.209239	-0.135254	-0.318115	-0.404541	-9.168473	42.462405	-2.225563
47130		-6.515027	-1.321419	7.419662	0.057270	0.417207	0.218007	-0.132080	-0.319336	-0.403809	-9.053569	42.715420	-2.105674
47131		-6.511809	-1.150797	7.437278	0.052395	0.484320	0.226917	-0.134033	-0.322021	-0.412842	-8.940851	43.012617	-1.985469
47132		-6.606793	-1.080882	7.424819	0.039239	0.541881	0.247951	-0.122314	-0.316162	-0.400635	-8.828103	43.338507	-1.854948
47133		-6.659140	-1.030188	7.317375	0.035209	0.595628	0.251987	-0.128662	-0.323242	-0.394287	-8.717969	43.700511	-1.725685
47134		-6.706506	-1.010279	7.335685	0.029260	0.655561	0.244521	-0.122314	-0.320313	-0.405518	-8.618796	44.090134	-1.608211
47135		-6.381807	-0.683884	7.400795	0.016861	0.744650	0.196191	-0.110107	-0.328613	-0.405518	-8.558824	44.531429	-1.537584
47136		-6.483387	-0.817163	7.480709	0.010289	0.882538	0.252593	-0.116699	-0.319824	-0.400391	-8.481520	45.050129	-1.437587
47137		-6.497337	-0.836395	7.500370	0.014665	1.002305	0.260719	-0.104004	-0.330566	-0.395752	-8.404700	45.642636	-1.342857
47138		-6.501518	-0.938749	7.583450	0.008110	1.147692	0.265019	-0.096436	-0.332764	-0.400879	-8.339879	46.312491	-1.260507
47139		-6.499908	-0.852875	7.604597	0.002962	1.319452	0.268857	-0.087402	-0.325439	-0.402832	-8.288024	47.085176	-1.193048
47140		-6.429502	-0.816335	7.759404	-0.004735	1.519361	0.280935	-0.083984	-0.326172	-0.385986	-8.249542	47.966975	-1.138496
47141		-6.328720	-0.757367	7.847884	-0.034115	1.716343	0.245009	-0.064697	-0.336182	-0.386719	-8.267031	48.962497	-1.137210
47142		-6.256099	-0.989371	7.804095	-0.075762	1.877054	0.135468	-0.053955	-0.334473	-0.390869	-8.398839	50.035037	-1.254718
47143		-6.145931	-0.630471	8.067084	-0.066310	2.200210	0.254744	-0.037354	-0.328613	-0.384766	-8.481436	51.305327	-1.313815
47144		-5.918095	-0.853057	7.995523	-0.058059	2.548683	0.312748	-0.021484	-0.326904	-0.382568	-8.560407	52.773229	-1.372994
47145		-5.933320	-1.027354	8.166897	-0.025225	2.952933	0.396078	-0.010010	-0.332031	-0.379150	-8.607522	54.481571	-1.414980
47146		-5.710616	-1.030183	8.188759	-0.007453	3.315938	0.516950	0.007324	-0.330566	-0.365967	-8.594151	56.401579	-1.394724
47147		-5.658954	-0.100503	8.811019	-0.072264	3.615554	0.648322	0.031982	-0.332031	-0.356201	-8.537190	58.506372	-1.279426
47148		-4.843040	0.700009	8.938543	-0.152443	4.031332	0.736133	0.053955	-0.327637	-0.340820	-8.490333	60.850327	-1.125087
47149		-4.253925	-0.061222	8.721652	-0.126125	4.893806	0.975015	0.079834	-0.332520	-0.334961	-8.281118	63.706069	-0.808674
47150		-8.465558	-3.059179	9.301175	-0.140391	5.962370	0.866610	0.116699	-0.348877	-0.312012	-8.361394	67.155322	-0.809522
47151		-6.470032	-2.940337	9.993742	-0.313740	6.501875	0.883294	0.157227	-0.339600	-0.289551	-8.663931	70.913982	-0.942204
47152		-9.422740	-2.315939	8.887717	-0.610912	6.923874	1.115086	0.191406	-0.334717	-0.261719	-8.922956	74.929300	-0.847914
47153		-12.989516	-1.438023	6.982823	-0.729980	7.278097	1.157962	0.225342	-0.346436	-0.231689	-9.357876	79.150302	-0.865976
47154		-17.120223	-1.335860	6.216535	-0.990678	7.556735	1.194208	0.251709	-0.342529	-0.197266	-10.343759	83.530477	-1.289446
47155		-19.953693	-1.508250	5.545445	-1.271460	7.560110	1.467978	0.291016	-0.352295	-0.155029	-10.377311	87.940800	-0.593796
47156		-20.228501	-2.279516	6.787456	-1.323516	7.413728	1.589493	0.323486	-0.345947	-0.122803	166.234073	87.716446	176.777195
47157		-17.953457	-3.776266	6.534764	-1.310568	7.100219	1.578898	0.335205	-0.356445	-0.079102	166.488808	83.552247	177.784402
47158		-16.424601	-1.765342	7.251708	-1.379843	6.685486	1.440578	0.358398	-0.358887	-0.046631	166.338849	79.637574	178.430956
47159		-12.626367	-0.795006	7.223148	-1.704586	6.317134	1.274344	0.387695	-0.367188	-0.011475	166.061330	75.952435	179.145181
47160		-9.133104	-0.231815	6.886424	-2.187050	5.996693	1.057142	0.391602	-0.361084	0.015869	165.686770	72.475152	-179.942873
47161		-4.931186	0.262939	5.612102	-2.691002	5.615575	0.888391	0.402344	-0.368652	0.049316	165.057845	69.238780	-178.977612
47162		-1.739614	2.015017	3.701257	-3.295819	5.557658	0.746693	0.410889	-0.366211	0.080566	164.211437	66.057402	-177.851948
47163		-12.111740	1.037826	4.204938	-4.106193	6.061380	0.401943	0.429932	-0.368896	0.108887	163.408429	62.663960	-176.134158
47164		-20.956721	-4.399923	9.001980	-4.656828	4.904741	-0.161679	0.433594	-0.353027	0.141357	162.407970	60.007368	-174.234552
47165		-15.277450	-7.725982	7.057339	-4.679565	3.449239	-0.566605	0.440430	-0.349854	0.166748	161.267802	58.238767	-172.440448
47166		-14.557520	-11.771656	6.931084	-3.935637	2.082308	-0.941842	0.442139	-0.342529	0.162354	160.437587	57.290925	-170.757203
47167		-12.938815	-14.133449	6.432620	-2.442709	0.628635	-1.423419	0.442383	-0.322021	0.151611	160.419172	57.235103	-169.117681
47168		-11.352415	-13.009376	6.076354	-0.681365	-0.664155	-1.759883	0.445313	-0.304688	0.156006	161.328475	57.927330	-167.579210
47169		-10.325153	-9.865004	5.743486	0.857296	-1.782954	-1.987259	0.443604	-0.291504	0.134033	163.086512	59.260661	-166.098689
47170		-10.162188	-6.490254	5.369538	1.946929	-2.763114	-2.165589	0.435303	-0.276123	0.107666	165.535722	61.122931	-164.563086
47171		-9.992037	-3.771695	4.659640	2.584683	-3.724121	-2.289965	0.434326	-0.267822	0.086426	168.548326	63.511157	-162.838198
47172		-9.509279	-1.966693	4.060915	2.855425	-4.583084	-2.318170	0.426025	-0.252197	0.041748	172.030987	66.326559	-160.801436
47173		-10.709761	-0.781229	3.804675	2.949317	-5.331302	-2.345449	0.414307	-0.233887	-0.005371	176.260926	69.518683	-158.066070
47174		-11.578051	-0.418593	3.751655	2.980796	-6.052093	-2.334403	0.387451	-0.236084	-0.059082	-178.270780	73.014250	-154.098938
47175		-12.814249	0.267430	3.440164	2.953405	-6.773655	-2.266616	0.366943	-0.226807	-0.107910	-170.333584	76.768983	-147.638838
47176		-12.731713	0.879818	2.820593	2.806356	-7.467130	-2.108440	0.326172	-0.227783	-0.163330	-156.904893	80.557222	-135.592890
47177		-11.048016	2.148167	2.118328	2.474755	-7.961343	-1.840282	0.298340	-0.232666	-0.208984	-129.291548	83.665560	-109.169683
47178		-8.270473	3.801367	1.359834	1.874324	-8.134741	-1.561563	0.254150	-0.235840	-0.249756	-82.765707	84.132139	-63.487267
47179		-5.224387	5.194964	0.787216	1.018837	-7.883617	-1.352868	0.204834	-0.234131	-0.291504	-51.019707	81.540680	-32.103108
47180		-4.438527	5.182829	0.460044	0.107874	-7.249616	-1.268264	0.172607	-0.236084	-0.324463	-37.666669	78.037477	-18.607193
47181		-4.551071	2.851799	0.459376	-0.514582	-6.500637	-1.191472	0.121094	-0.232910	-0.350830	-31.545509	74.562369	-12.009904
47182		-5.655902	-0.558289	1.017926	-0.711044	-5.870334	-1.117846	0.089600	-0.233154	-0.364014	-28.281158	71.324214	-8.171753
47183		-7.309494	-4.049463	2.077902	-0.372845	-5.437117	-1.067928	0.052246	-0.237793	-0.374512	-26.086852	68.255831	-5.610014
47184		-8.931700	-5.974930	3.627236	0.297085	-5.204080	-1.073038	0.015869	-0.231689	-0.396240	-24.248887	65.293458	-3.796911
47185		-10.926951	-6.273924	5.404157	0.987106	-5.132317	-1.198666	-0.018555	-0.243164	-0.412598	-22.577526	62.304398	-2.567926
47186		-12.432354	-5.399257	6.903071	1.435662	-5.212466	-1.492102	-0.057617	-0.257813	-0.428711	-21.177010	59.212267	-1.907152
47187		-13.424600	-4.577775	8.002134	1.576363	-5.346776	-1.904878	-0.098389	-0.264893	-0.435791	-20.170775	55.942846	-1.787967
47188		-14.003997	-4.427556	8.736031	1.540523	-5.493904	-2.330904	-0.125488	-0.272949	-0.436768	-19.541962	52.526390	-2.102168
47189		-14.067778	-5.039514	8.981443	1.511362	-5.564926	-2.662448	-0.173828	-0.288330	-0.450684	-19.139231	48.994668	-2.703027
47190		-14.502606	-5.834643	9.278179	1.562001	-5.535874	-2.856667	-0.219727	-0.299072	-0.446777	-18.798411	45.460754	-3.459262
47191		-15.904593	-6.470332	9.784389	1.694972	-5.454800	-2.938408	-0.250977	-0.318604	-0.450195	-18.394456	41.943923	-4.283268
47192		-17.863451	-6.932929	10.072975	1.847100	-5.387656	-2.936089	-0.286865	-0.321289	-0.447754	-17.871732	38.484424	-5.114416
47193		-20.132382	-7.376233	9.640295	1.968230	-5.372671	-2.802142	-0.329102	-0.337891	-0.450684	-17.190658	35.048528	-5.864047
47194		-22.076631	-7.088744	8.155412	1.987202	-5.432614	-2.538071	-0.358643	-0.355957	-0.428467	-16.373588	31.646187	-6.451024
47195		-23.272875	-5.734440	5.863052	1.770380	-5.464197	-2.206993	-0.408936	-0.367432	-0.428955	-15.560270	28.273211	-6.856879
47196		-23.309347	-3.325383	2.677137	1.195974	-5.392321	-1.912551	-0.445801	-0.378662	-0.416260	-14.994266	25.001617	-7.125279
47197		-23.083252	0.568777	-1.125693	0.242595	-5.071618	-1.756846	-0.478760	-0.386963	-0.396484	-14.949344	21.922072	-7.363964
47198		-22.671308	4.615715	-5.353888	-1.019496	-4.468194	-1.800250	-0.491455	-0.384766	-0.389893	-15.651220	19.178070	-7.701713
47199		-22.020711	5.937844	-10.072731	-2.156203	-3.585963	-1.931986	-0.521729	-0.370361	-0.387451	-17.042152	16.886447	-8.207466
47200		-22.354149	4.018946	-14.459136	-2.492196	-2.551045	-1.872791	-0.528076	-0.360107	-0.375732	-18.633118	15.164068	-8.801037
47201		-23.358423	2.085555	-18.092491	-1.882528	-1.606091	-1.440571	-0.541748	-0.357178	-0.368652	-19.833451	14.019038	-9.289744
47202		-24.246169	2.216758	-19.939435	-0.724427	-0.821367	-0.711260	-0.545410	-0.355469	-0.371094	-20.300825	13.434957	-9.514195
47203		-24.310100	5.108638	-19.445401	0.250656	-0.128742	0.126488	-0.557129	-0.351563	-0.361572	-20.133438	13.391086	-9.414670
47204		-17.124211	9.204764	-13.564980	0.318092	1.167491	1.158673	-0.551025	-0.361572	-0.364746	-19.852228	14.244462	-9.004382
47205		-4.914699	1.927343	3.629419	-0.474268	2.201513	1.801364	-0.533936	-0.340332	-0.368652	-19.977104	15.786266	-8.441006
47206		-5.045593	-11.863677	27.002776	-0.302731	1.884345	1.699976	-0.525635	-0.337891	-0.371338	-19.987200	17.131561	-7.867839
47207		13.315719	-13.514629	28.317064	-0.461105	0.176591	1.247716	-0.525391	-0.326660	-0.370361	-20.050721	17.475679	-7.196945
47208		9.602786	-12.473492	1.794393	-0.212501	1.152963	0.403391	-0.518799	-0.328613	-0.368164	-20.173723	18.173259	-7.204146
47209		0.612210	-8.993567	-1.744285	0.361698	3.192557	0.198179	-0.509033	-0.331299	-0.376709	-20.146291	19.931107	-7.754907
47210		-10.566577	-4.236744	5.627228	0.451078	4.029468	-0.465119	-0.480225	-0.338867	-0.387207	-20.287215	22.003357	-8.873556
47211		-11.990419	1.497961	11.116284	0.269708	3.818768	-0.763245	-0.459229	-0.331787	-0.389404	-20.629961	23.902617	-10.145827
47212		-8.636498	7.556040	13.140305	-0.091379	3.501806	-0.236668	-0.439453	-0.339600	-0.401611	-21.068659	25.727238	-11.068509
47213		-10.582803	7.782088	13.538130	-0.617102	3.094620	0.598088	-0.427734	-0.336182	-0.398926	-21.583638	27.506505	-11.429151
47214		-13.536940	-2.791188	11.105446	-0.794466	2.542516	1.110511	-0.415283	-0.325439	-0.406738	-22.009252	29.093253	-11.368720
47215		-10.714124	-14.644436	4.585934	-0.373935	2.181726	0.973573	-0.392334	-0.331787	-0.411377	-22.193538	30.465285	-11.311015
47216		-7.793124	-13.957896	2.841290	0.339713	2.492929	0.903295	-0.376953	-0.338623	-0.414307	-22.031171	31.981293	-11.375140
47217		-13.449464	-4.038747	9.428406	0.463014	2.134083	1.303373	-0.375732	-0.322510	-0.413086	-21.611403	33.398545	-11.088114
47218		-13.017916	0.602047	9.735143	0.380475	1.174315	1.144187	-0.360840	-0.330566	-0.410889	-21.145459	34.261922	-10.644497
47219		-9.301482	-5.816961	6.298797	0.418486	0.785913	0.977113	-0.367920	-0.333740	-0.416992	-20.654068	34.887782	-10.200829
47220		-8.015990	-5.007666	6.791044	0.675647	0.743148	0.878100	-0.355225	-0.330811	-0.413818	-20.035559	35.459734	-9.800825
47221		-8.301589	-0.621122	8.830415	0.679437	0.515016	0.912223	-0.356201	-0.343018	-0.418213	-19.362776	35.919561	-9.314060
47222		-7.858070	-2.071862	7.846875	0.629400	0.288228	0.803920	-0.360107	-0.340088	-0.412598	-18.720920	36.223677	-8.838047
47223		-7.161373	-3.122569	7.651455	0.659837	0.231489	0.732289	-0.354736	-0.334961	-0.411865	-18.078654	36.488005	-8.392121
47224		-6.469397	-2.465739	7.791164	0.698883	0.157394	0.756373	-0.349609	-0.348877	-0.423584	-17.388795	36.703560	-7.908252
47225		-6.217650	-3.379153	7.288451	0.769127	0.073955	0.818725	-0.354736	-0.346924	-0.417969	-16.619763	36.887322	-7.359950
47226		-6.399370	-3.721143	7.388202	0.923932	0.004836	0.898990	-0.359619	-0.356445	-0.412842	-15.715428	37.030979	-6.737915
47227		-7.237714	-1.935366	8.059313	1.015470	-0.117376	0.856554	-0.354980	-0.367676	-0.412842	-14.760579	37.101075	-6.118841
47228		-6.906598	-1.043951	8.117768	0.966465	-0.235190	0.699909	-0.362305	-0.364258	-0.419434	-13.884697	37.067186	-5.586200
47229		-6.346811	-1.725183	7.626076	0.902444	-0.157412	0.578960	-0.357178	-0.375977	-0.408691	-13.105819	37.062908	-5.151996
47230		-6.160252	-1.099677	8.024808	0.830457	-0.040267	0.511159	-0.358154	-0.379639	-0.418457	-12.407062	37.102465	-4.783851
47231		-6.064588	-0.933197	8.063508	0.721526	-0.001711	0.486366	-0.365479	-0.384521	-0.409668	-11.784706	37.165853	-4.438165
47232		-6.463813	-0.504932	8.115772	0.600980	0.018776	0.427332	-0.368652	-0.393311	-0.415039	-11.256778	37.222623	-4.136052
47233		-6.505390	-0.186659	8.190860	0.454083	0.028566	0.304747	-0.364014	-0.385010	-0.406006	-10.865929	37.278081	-3.920965
47234		-6.131257	-0.488592	8.026075	0.323180	0.069618	0.217489	-0.369385	-0.393311	-0.410400	-10.589983	37.337755	-3.772772
47235		-5.957663	-0.650635	7.941714	0.230920	0.130586	0.166820	-0.362549	-0.398438	-0.417236	-10.393196	37.434595	-3.667752
47236		-5.992146	-0.497436	8.015215	0.156748	0.175475	0.113530	-0.364502	-0.397217	-0.403809	-10.264991	37.542437	-3.606238
47237		-6.167693	-0.677137	7.803170	0.089635	0.219754	0.067705	-0.358154	-0.394531	-0.414551	-10.198156	37.679041	-3.582295
47238		-6.016693	-0.769159	7.801965	0.028450	0.246608	0.018685	-0.357178	-0.395508	-0.408203	-10.189904	37.817263	-3.597008
47239		-6.067209	-0.836702	7.710165	-0.018870	0.272713	-0.020978	-0.346680	-0.400635	-0.414063	-10.228015	37.974693	-3.643026
47240		-6.196969	-0.882526	7.654416	-0.061823	0.285896	-0.052336	-0.353516	-0.394287	-0.406494	-10.306204	38.127797	-3.713966
47241		-6.234246	-0.945857	7.657698	-0.091161	0.300113	-0.080732	-0.351563	-0.395508	-0.414307	-10.415016	38.294400	-3.807100
47242		-6.300233	-1.107296	7.683699	-0.126177	0.298986	-0.116517	-0.347168	-0.397705	-0.414795	-10.560759	38.447969	-3.926966
47243		-6.377026	-1.052925	7.587834	-0.160435	0.296595	-0.167668	-0.341797	-0.395020	-0.408447	-10.749202	38.602992	-4.083625
47244		-6.335385	-1.068638	7.610981	-0.213099	0.303180	-0.232513	-0.336670	-0.395264	-0.418945	-10.998991	38.745746	-4.289501
47245		-6.305783	-1.177096	7.604918	-0.251594	0.310378	-0.275946	-0.343994	-0.393799	-0.413818	-11.291904	38.895469	-4.528501
47246		-6.157688	-1.372110	7.587644	-0.281483	0.325583	-0.299943	-0.347900	-0.384521	-0.406494	-11.616085	39.041497	-4.789057
47247		-6.263367	-1.595035	7.459541	-0.288805	0.351718	-0.291372	-0.344482	-0.386230	-0.417725	-11.944241	39.210499	-5.048515
47248		-6.479719	-1.722518	7.378032	-0.277720	0.345851	-0.281535	-0.337158	-0.380859	-0.419922	-12.263050	39.367788	-5.302204
47249		-6.419688	-1.757737	7.214794	-0.262652	0.350154	-0.263545	-0.336182	-0.389404	-0.419189	-12.566736	39.537088	-5.544818
47250		-6.435183	-1.954934	7.196450	-0.233340	0.342721	-0.229592	-0.340576	-0.376709	-0.418945	-12.838996	39.697110	-5.763626
47251		-6.426868	-1.903838	7.229181	-0.203171	0.333390	-0.192481	-0.330078	-0.383789	-0.414551	-13.076986	39.864400	-5.955016
47252		-6.409651	-2.087482	7.130265	-0.171614	0.322886	-0.154253	-0.334717	-0.380371	-0.416016	-13.279244	40.021794	-6.118387
47253		-6.316244	-2.258399	7.047785	-0.132653	0.313328	-0.105306	-0.324219	-0.377686	-0.421387	-13.436152	40.188399	-6.245204
47254		-6.375254	-2.288070	7.067680	-0.075886	0.308918	-0.039428	-0.321533	-0.376221	-0.413818	-13.529713	40.352681	-6.324164
47255		-6.415431	-2.404244	6.996109	-0.023861	0.313574	0.027424	-0.327148	-0.372314	-0.420654	-13.562894	40.536892	-6.355294
47256		-6.492491	-2.281743	6.990539	0.028660	0.313427	0.075543	-0.318359	-0.382568	-0.421631	-13.542952	40.719049	-6.351358
47257		-6.573269	-2.226870	6.994560	0.051677	0.310603	0.096554	-0.325928	-0.376709	-0.424316	-13.499603	40.910862	-6.331234
47258		-6.617257	-2.106440	6.988638	0.069910	0.287706	0.114507	-0.314697	-0.383789	-0.412598	-13.433901	41.083881	-6.293601
47259		-6.681357	-1.829697	7.086562	0.089368	0.276528	0.137290	-0.312744	-0.384033	-0.420166	-13.344709	41.262069	-6.236692
47260		-6.657353	-1.724670	7.079513	0.086400	0.258041	0.146478	-0.320068	-0.379639	-0.415771	-13.249682	41.422676	-6.169227
47261		-6.666353	-1.623587	7.154412	0.086467	0.248575	0.155270	-0.316162	-0.377441	-0.420654	-13.149100	41.587479	-6.092998
47262		-6.668299	-1.495280	7.189560	0.073412	0.247659	0.151747	-0.313232	-0.381592	-0.418213	-13.056705	41.742804	-6.018726
47263		-6.681883	-1.527134	7.262528	0.059770	0.264041	0.140311	-0.313965	-0.384766	-0.411865	-12.979604	41.914111	-5.955305
47264		-6.663399	-1.496898	7.204404	0.048428	0.274686	0.134529	-0.313232	-0.391602	-0.416504	-12.912340	42.082165	-5.897679
47265		-6.686996	-1.484074	7.126779	0.040017	0.279855	0.138084	-0.310547	-0.380127	-0.421875	-12.848585	42.261872	-5.837758
47266		-6.618810	-1.632238	6.984712	0.044156	0.300832	0.162111	-0.310059	-0.388184	-0.427979	-12.771900	42.447936	-5.762908
47267		-6.629870	-1.636546	7.014412	0.052129	0.317315	0.180769	-0.299072	-0.386963	-0.412598	-12.682648	42.653820	-5.676017
47268		-6.638170	-1.566787	7.033513	0.057819	0.338187	0.194468	-0.307861	-0.382813	-0.426025	-12.584486	42.864652	-5.581636
47269		-6.603317	-1.644074	7.138948	0.047850	0.365512	0.205094	-0.292236	-0.389404	-0.418213	-12.489055	43.100263	-5.482819
47270		-6.576090	-1.675665	7.212878	0.038951	0.405860	0.216026	-0.293945	-0.381348	-0.423340	-12.396505	43.351388	-5.381668
47271		-6.583293	-1.800736	7.244234	0.030840	0.441655	0.231527	-0.295898	-0.385010	-0.418213	-12.303703	43.632537	-5.273459
47272		-6.587595	-1.735451	7.283635	0.022286	0.500535	0.239387	-0.290527	-0.386230	-0.418457	-12.217069	43.939275	-5.168097
47273		-6.517247	-1.592554	7.389482	0.012798	0.565300	0.267226	-0.282715	-0.386963	-0.424561	-12.127244	44.293629	-5.050533
47274		-6.663480	-1.482317	7.359379	-0.002154	0.649166	0.293433	-0.283203	-0.385986	-0.417236	-12.039629	44.689887	-4.925120
47275		-6.377483	-1.355930	7.467694	-0.003687	0.777837	0.313284	-0.285400	-0.389160	-0.417725	-11.955286	45.168440	-4.803677
47276		-6.555118	-1.061680	7.481081	0.006797	0.944772	0.311755	-0.276855	-0.385742	-0.427734	-11.883501	45.732326	-4.709756
47277		-6.630750	-1.459795	7.432523	-0.020903	1.058609	0.314616	-0.281982	-0.380371	-0.419922	-11.837828	46.368074	-4.630743
47278		-6.570941	-1.106696	7.445164	-0.039446	1.213078	0.306468	-0.264648	-0.378174	-0.412354	-11.825198	47.081699	-4.583670
47279		-6.606176	-1.145872	7.491997	-0.054859	1.384820	0.304027	-0.255615	-0.385010	-0.428467	-11.843942	47.898899	-4.567561
47280		-6.515328	-1.075169	7.618042	-0.059892	1.588023	0.292613	-0.240967	-0.380371	-0.435303	-11.900020	48.821147	-4.597960
47281		-6.393710	-1.279190	7.717817	-0.079202	1.800267	0.278134	-0.234131	-0.383301	-0.425049	-12.008083	49.867891	-4.681733
47282		-6.404643	-1.164479	7.839725	-0.096138	2.036525	0.281955	-0.218750	-0.388184	-0.421631	-12.163236	51.040055	-4.812740
47283		-6.389486	-1.245889	7.896240	-0.131351	2.174472	0.290979	-0.214111	-0.386475	-0.416748	-12.362178	52.297172	-4.971563
47284		-6.434627	-0.804365	7.254711	-0.139417	2.506285	0.343530	-0.201416	-0.382080	-0.414063	-12.594020	53.739157	-5.162973
47285		-6.529837	-0.643884	7.262761	-0.136039	2.775786	0.396358	-0.176758	-0.381104	-0.415283	-12.847122	55.344380	-5.379170
47286		-6.719081	-0.645494	7.552631	-0.106230	3.043286	0.451091	-0.161865	-0.379639	-0.411133	-13.111580	57.098963	-5.625229
47287		-6.027466	-1.050033	7.477386	-0.025326	3.414641	0.555722	-0.143555	-0.380859	-0.406250	-13.340714	59.079771	-5.879264
47288		-5.882920	-1.061988	7.258593	0.020679	3.898108	0.711078	-0.113770	-0.377441	-0.409668	-13.537265	61.344188	-6.120450
47289		-6.932987	-2.062425	7.518849	-0.007753	4.447301	0.826822	-0.073730	-0.380371	-0.393311	-13.808417	63.934857	-6.421901
47290		-8.203419	-2.615662	7.620968	-0.102266	4.919543	0.738287	-0.057617	-0.383545	-0.383545	-14.466030	66.769007	-7.081809
47291		-7.901405	-2.741912	7.913548	-0.190164	5.351133	0.683719	-0.034180	-0.376953	-0.379639	-15.614609	69.833854	-8.201336
47292		-9.305931	-3.382803	7.949906	-0.313630	5.692669	0.874297	0.005615	-0.387207	-0.364502	-17.090002	73.102418	-9.568287
47293		-11.388935	-3.160083	6.966123	-0.447197	5.964838	1.150539	0.036865	-0.380615	-0.341553	-18.918164	76.558064	-11.197042
47294		-14.331531	-2.963534	5.913172	-0.616368	6.168058	1.443818	0.071533	-0.376221	-0.322998	-21.397307	80.159135	-13.367458
47295		-17.834894	-2.711485	5.364891	-0.920184	6.242787	1.577286	0.113037	-0.384277	-0.304199	-26.304114	83.799473	-17.788664
47296		-19.116972	-2.443795	6.519107	-1.113591	6.018185	1.722937	0.122803	-0.388428	-0.278809	-40.734428	87.242936	-31.617342
47297		-18.412226	-2.492440	6.258254	-1.195491	5.697331	1.843881	0.152100	-0.387939	-0.257080	-147.918641	88.597045	-138.149599
47298		-16.110222	-3.552245	6.313519	-1.096809	5.502765	1.835128	0.176025	-0.396484	-0.238281	175.548587	85.646308	-174.086014
47299		-14.478131	-2.562607	6.676610	-1.077068	5.280128	1.742395	0.200195	-0.386963	-0.203857	169.226332	82.513706	-179.820323
47300		-10.860815	-1.038327	5.987004	-1.265490	5.098330	1.643974	0.218018	-0.395752	-0.182129	166.542080	79.462151	178.195923
47301		-8.400897	-0.625383	5.995483	-1.512732	4.885080	1.478866	0.235107	-0.395508	-0.166016	165.031794	76.544227	177.537365
47302		-4.004998	1.351872	4.734487	-1.907744	4.643343	1.271382	0.247314	-0.395264	-0.141846	163.962436	73.788380	177.561101
47303		-1.351738	5.068677	1.863691	-2.653797	4.845192	1.105483	0.265625	-0.388916	-0.114990	163.005256	70.951301	178.151266
47304		-16.381173	3.095531	5.082638	-3.579384	5.152781	0.682601	0.278076	-0.392334	-0.084229	162.301511	68.018940	179.588562
47305		-14.580630	-0.346994	6.312654	-4.276144	4.040097	0.184294	0.279541	-0.365479	-0.062500	161.302627	65.792293	-178.834704
47306		-11.021624	-1.721674	5.158121	-4.677730	3.300310	-0.191047	0.290283	-0.356445	-0.046143	160.170046	64.045571	-177.127040
47307		-11.236283	-5.487037	5.105824	-4.553160	2.462141	-0.470040	0.300781	-0.340820	-0.036865	159.041927	62.824430	-175.472622
47308		-11.002653	-8.918799	4.464024	-3.791841	1.513101	-0.602382	0.296143	-0.325928	-0.035156	158.088850	62.145701	-174.098671
47309		-10.122771	-10.552643	4.047400	-2.450994	0.578431	-0.728115	0.287842	-0.322266	-0.023438	157.645004	62.005230	-173.013327
47310		-9.117643	-9.795325	3.771434	-0.932398	-0.291667	-0.829838	0.278809	-0.309082	-0.026611	157.819039	62.342138	-172.213547
47311		-9.017654	-7.476455	3.784841	0.349444	-1.126445	-0.930378	0.270264	-0.304199	-0.036621	158.513440	63.150925	-171.660216
47312		-9.060512	-4.955083	3.755899	1.214324	-1.906378	-1.050579	0.253906	-0.305664	-0.039551	159.550992	64.388425	-171.280305
47313		-9.234109	-2.783674	3.711468	1.671324	-2.617812	-1.172169	0.235840	-0.308594	-0.043701	160.776346	66.040427	-170.988348
47314		-9.378125	-1.593635	3.623887	1.827824	-3.280783	-1.268752	0.213379	-0.315918	-0.049805	162.028451	68.056123	-170.767091
47315		-10.171874	-0.759784	3.601957	1.821945	-3.879346	-1.389509	0.191650	-0.321045	-0.062500	163.334745	70.429761	-170.489419
47316		-11.161267	0.012145	3.194853	1.714391	-4.511059	-1.534534	0.173340	-0.324219	-0.075439	164.716086	73.158990	-170.070647
47317		-11.435380	0.723819	2.464918	1.503489	-5.149672	-1.633409	0.159668	-0.323975	-0.078613	166.183614	76.266103	-169.445184
47318		-11.359796	1.415400	1.731885	1.201485	-5.719920	-1.676734	0.148438	-0.329346	-0.095703	167.788977	79.678222	-168.509243
47319		-10.548670	2.113968	1.089007	0.819893	-6.160398	-1.614289	0.137695	-0.324707	-0.104004	169.735641	83.337638	-167.018934
47320		-9.234469	2.570312	0.450442	0.358886	-6.384861	-1.492930	0.119385	-0.331543	-0.120850	173.742207	87.085737	-163.207766
47321		-7.268972	2.863740	-0.355398	-0.099051	-6.378026	-1.358686	0.106445	-0.329102	-0.126221	-30.899934	89.097851	-7.785244
47322		-5.602103	2.809287	-0.853315	-0.527224	-6.069204	-1.244507	0.102051	-0.325439	-0.139404	-15.610199	85.586947	7.815052
47323		-5.325602	2.108264	-1.144716	-0.809833	-5.548149	-1.177505	0.090576	-0.326660	-0.164795	-14.434028	82.324791	9.462488
47324		-5.479207	0.940991	-1.080395	-0.881087	-4.967871	-1.129912	0.082275	-0.317139	-0.170898	-14.409593	79.404323	9.997515
47325		-6.148650	-0.538730	-0.561471	-0.740449	-4.410514	-1.102476	0.074951	-0.322510	-0.189453	-14.714243	76.783426	10.118625
47326		-7.547765	-1.888173	0.549773	-0.392940	-3.970655	-1.096975	0.077393	-0.311279	-0.194580	-15.019199	74.420808	10.035280
47327		-9.342183	-2.866274	1.925073	0.053844	-3.739242	-1.143517	0.074219	-0.310059	-0.204834	-15.229534	72.165764	9.782602
47328		-10.696592	-3.390055	3.068587	0.506913	-3.685273	-1.246966	0.064453	-0.310059	-0.209473	-15.316648	69.938145	9.382442
47329		-11.396692	-3.045026	4.087585	0.868186	-3.742446	-1.418023	0.066162	-0.302246	-0.224609	-15.373683	67.639476	8.787130
47330		-11.528511	-2.395951	4.762601	1.062077	-3.826321	-1.644862	0.071289	-0.307617	-0.242920	-15.502681	65.272873	7.981669
47331		-11.345123	-1.895812	5.051889	1.106400	-3.873272	-1.883988	0.057617	-0.311279	-0.258301	-15.773543	62.828897	6.975144
47332		-11.088659	-2.072732	5.168005	1.092807	-3.858469	-2.075775	0.045898	-0.307861	-0.274170	-16.132006	60.373879	5.854915
47333		-10.958225	-2.363892	5.313153	1.112052	-3.793456	-2.185078	0.036133	-0.306152	-0.301758	-16.482239	57.920426	4.704463
47334		-11.129707	-2.596343	5.673624	1.158134	-3.727455	-2.220538	0.033203	-0.309814	-0.319336	-16.740070	55.507678	3.601225
47335		-11.587212	-2.682981	6.185866	1.188374	-3.678597	-2.213824	0.011719	-0.310059	-0.347412	-16.897720	53.107492	2.568336
47336		-11.928872	-2.867675	6.705627	1.196745	-3.663194	-2.166211	0.013672	-0.310547	-0.367676	-16.942971	50.735829	1.638631
47337		-12.422406	-3.032268	7.211108	1.196289	-3.680701	-2.081887	0.003418	-0.330566	-0.396973	-16.873929	48.355896	0.828043
47338		-13.032207	-3.182673	7.706366	1.162693	-3.736406	-1.981615	-0.026123	-0.329346	-0.424072	-16.708746	45.975956	0.143574
47339		-13.514310	-3.303928	8.104827	1.089883	-3.818201	-1.882434	-0.029053	-0.327881	-0.453857	-16.487126	43.556602	-0.429073
47340		-14.020939	-3.348577	8.304932	0.965736	-3.901160	-1.798497	-0.057617	-0.344727	-0.465820	-16.256739	41.119151	-0.910004
47341		-14.180455	-3.259597	8.216974	0.791570	-3.965056	-1.737501	-0.087646	-0.343506	-0.501953	-16.071507	38.646074	-1.328973
47342		-14.329798	-3.266966	7.877634	0.575278	-3.965949	-1.697685	-0.114014	-0.353516	-0.510742	-15.973973	36.191100	-1.712479
47343		-14.596937	-2.982156	7.440179	0.341692	-3.925479	-1.697516	-0.143066	-0.348633	-0.531738	-15.997146	33.748334	-2.094809
47344		-14.658059	-2.519373	6.734268	0.104019	-3.845892	-1.738847	-0.173340	-0.353271	-0.554688	-16.156198	31.352636	-2.502898
47345		-14.282334	-2.058423	5.848025	-0.115633	-3.707110	-1.827549	-0.201416	-0.352539	-0.564453	-16.458607	29.008941	-2.972728
47346		-13.539452	-1.791417	4.828716	-0.265948	-3.503768	-1.933470	-0.238525	-0.359619	-0.566406	-16.865442	26.765667	-3.518647
47347		-12.834301	-1.604322	3.649415	-0.303168	-3.223802	-2.007057	-0.262695	-0.347168	-0.584473	-17.305806	24.653062	-4.133396
47348		-12.614820	-1.275349	2.592535	-0.249366	-2.890801	-2.017121	-0.294922	-0.350342	-0.585449	-17.711318	22.723413	-4.789359
47349		-13.038033	-0.763641	1.428642	-0.175076	-2.592424	-1.905863	-0.314453	-0.355713	-0.592285	-18.044316	20.967496	-5.414737
47350		-13.241699	0.527787	0.106584	-0.120950	-2.348008	-1.673064	-0.343262	-0.356445	-0.590576	-18.292059	19.388030	-5.934776
47351		-13.232507	2.438470	-1.588530	-0.213689	-2.140544	-1.321846	-0.359619	-0.354248	-0.599121	-18.525460	17.980577	-6.281405
47352		-13.127949	4.159844	-3.487915	-0.485520	-1.876700	-0.906950	-0.379883	-0.345215	-0.604980	-18.847953	16.793211	-6.432854
47353		-13.535588	4.755070	-5.160646	-0.808724	-1.532198	-0.471067	-0.400146	-0.343262	-0.604492	-19.300552	15.873517	-6.396425
47354		-13.665917	3.851294	-6.583483	-1.009221	-1.147750	-0.034859	-0.406982	-0.339600	-0.599609	-19.820873	15.244932	-6.184047
47355		-13.566337	1.768643	-7.152480	-0.897037	-0.708970	0.406110	-0.417725	-0.326904	-0.604004	-20.236491	14.944253	-5.810054
47356		-13.413200	-0.043205	-6.729313	-0.485085	-0.252770	0.808902	-0.414795	-0.319336	-0.611572	-20.383061	14.967100	-5.304742
47357		-14.016107	-1.010147	-5.161353	0.038945	0.185749	1.083731	-0.411621	-0.327393	-0.607422	-20.211661	15.286582	-4.736171
47358		-8.685724	-5.191972	-1.068650	0.634542	0.576390	1.243768	-0.413574	-0.331055	-0.614258	-19.691052	15.837959	-4.154418
47359		-7.063724	-0.953960	8.019419	1.026168	1.552653	1.683741	-0.401123	-0.328613	-0.614014	-18.920387	17.002993	-3.508405
47360		0.150337	-5.394165	19.577335	0.547877	1.198787	1.013173	-0.380859	-0.331787	-0.623535	-18.501118	17.837482	-3.159715
47361		3.964131	-11.282943	17.929027	0.446192	0.580074	0.506373	-0.386719	-0.337402	-0.618652	-18.188270	18.250499	-2.976571
47362		4.841561	-6.534526	8.506579	0.669877	1.257345	0.201814	-0.374023	-0.336426	-0.619141	-17.840415	18.969021	-3.092263
47363		-1.599339	-2.621372	5.007604	0.618538	2.233565	-0.193391	-0.348877	-0.343750	-0.630615	-17.661488	20.158373	-3.615101
47364		-5.201697	1.159983	6.704812	0.590334	2.860672	-0.382625	-0.328369	-0.349365	-0.636719	-17.590456	21.651759	-4.366626
47365		-7.409908	5.104432	11.309166	0.229178	3.026557	-0.280360	-0.303955	-0.350586	-0.640137	-17.738998	23.259842	-5.098383
47366		-8.774555	6.709340	13.336803	-0.294731	2.797296	0.042731	-0.285645	-0.348389	-0.649170	-18.115033	24.789976	-5.609504
47367		-8.883381	5.121735	11.679785	-0.806463	2.539358	0.347964	-0.261719	-0.339355	-0.648926	-18.703064	26.238620	-5.905058
47368		-9.188091	-0.189710	9.927438	-1.073494	2.407314	0.491426	-0.233398	-0.325928	-0.646240	-19.409159	27.631980	-6.108041
47369		-10.240287	-7.158114	8.892602	-0.940826	2.274667	0.401334	-0.211670	-0.317139	-0.649170	-20.064026	28.942397	-6.357400
47370		-9.403053	-10.682202	6.917312	-0.409113	2.050432	0.346834	-0.198242	-0.315186	-0.651611	-20.420251	30.111206	-6.606500
47371		-7.760235	-9.130774	5.714137	0.076357	2.013766	0.456780	-0.190674	-0.316406	-0.646729	-20.466805	31.290515	-6.785745
47372		-9.059828	-6.332196	7.079961	0.326230	1.830208	0.759451	-0.161377	-0.327393	-0.655273	-20.250080	32.422828	-6.731097
47373		-9.667013	-4.461591	7.593778	0.313363	1.362968	0.989366	-0.147705	-0.316895	-0.661377	-19.897194	33.358113	-6.412449
47374		-8.394048	-4.650962	7.119763	0.444595	1.024991	0.963678	-0.144531	-0.333496	-0.648926	-19.424117	34.094691	-6.020943
47375		-8.126898	-4.018362	7.393328	0.582173	0.834321	0.930788	-0.137939	-0.327637	-0.651367	-18.850612	34.728870	-5.596524
47376		-8.259802	-2.405218	8.013432	0.658449	0.612052	0.927893	-0.123047	-0.336182	-0.652100	-18.195394	35.227984	-5.113349
47377		-8.240287	-1.885027	8.130500	0.686699	0.397151	0.830848	-0.128662	-0.346191	-0.652832	-17.527143	35.598598	-4.639338
47378		-8.016040	-1.809525	8.035205	0.693237	0.248139	0.729178	-0.125732	-0.351807	-0.652100	-16.869885	35.855576	-4.195615
47379		-7.510075	-1.619153	8.139393	0.667649	0.150457	0.644036	-0.119629	-0.353760	-0.653076	-16.245980	36.051633	-3.785157
47380		-7.109587	-1.417538	8.165854	0.612135	0.076011	0.577081	-0.124512	-0.361328	-0.657227	-15.668808	36.181969	-3.402612
47381		-7.118281	-1.495447	8.165652	0.542085	0.025624	0.508971	-0.117432	-0.372070	-0.652344	-15.152052	36.281970	-3.054887
47382		-6.830636	-1.455609	8.141183	0.468763	-0.010069	0.446997	-0.125977	-0.372803	-0.652832	-14.697319	36.339863	-2.742148
47383		-6.271977	-1.473133	8.169594	0.427199	-0.017716	0.394847	-0.125488	-0.376221	-0.653320	-14.286053	36.395037	-2.462807
47384		-6.154350	-1.220416	8.185636	0.374451	-0.019562	0.335325	-0.123291	-0.391113	-0.652344	-13.928875	36.428459	-2.224129
47385		-6.063222	-1.363382	8.022990	0.330288	0.014157	0.286309	-0.118164	-0.395264	-0.661621	-13.619741	36.483676	-2.024141
47386		-5.915334	-1.272265	8.079251	0.282429	0.050744	0.243656	-0.124756	-0.398438	-0.655029	-13.359272	36.541944	-1.859955
47387		-6.171307	-1.297885	7.915013	0.249579	0.083306	0.204922	-0.121582	-0.400391	-0.652588	-13.135730	36.623435	-1.726850
47388		-6.135824	-1.503780	7.770378	0.218200	0.104307	0.184699	-0.126221	-0.389648	-0.643066	-12.940836	36.702940	-1.611433
47389		-6.030883	-1.590201	7.694624	0.195029	0.116167	0.176418	-0.123779	-0.395264	-0.653076	-12.762565	36.798304	-1.502448
47390		-5.996372	-1.685702	7.666628	0.195013	0.142588	0.155759	-0.120117	-0.397217	-0.652588	-12.595852	36.894986	-1.412365
47391		-5.949438	-1.815719	7.554391	0.198765	0.140856	0.134663	-0.119141	-0.402588	-0.647217	-12.434419	36.998307	-1.335510
47392		-5.831262	-1.379768	7.717451	0.189060	0.164831	0.096942	-0.113281	-0.407959	-0.654785	-12.297230	37.099825	-1.289191
47393		-5.995186	-1.279450	7.752553	0.149263	0.170545	0.078832	-0.121582	-0.402344	-0.654053	-12.189872	37.212497	-1.255311
47394		-6.007941	-1.444281	7.673804	0.116130	0.170760	0.049326	-0.119141	-0.401123	-0.650635	-12.114798	37.311454	-1.242795
47395		-5.963677	-1.379724	7.681176	0.090661	0.173797	0.037867	-0.108643	-0.408936	-0.647705	-12.058408	37.420748	-1.237807
47396		-6.196243	-1.471871	7.540940	0.069495	0.172655	0.031403	-0.113770	-0.405273	-0.650635	-12.017717	37.518606	-1.237947
47397		-6.285005	-1.468538	7.520193	0.059073	0.151110	0.008251	-0.114746	-0.399170	-0.653564	-11.989955	37.611440	-1.250284
47398		-6.329409	-1.347758	7.501858	0.044813	0.128425	-0.006442	-0.109375	-0.414307	-0.652588	-11.975637	37.680006	-1.270449
47399		-6.281460	-1.411609	7.545111	0.025572	0.119034	-0.018749	-0.108887	-0.402588	-0.654541	-11.975822	37.751474	-1.297068
47400		-6.172072	-1.558070	7.567937	0.020492	0.116752	-0.025913	-0.104248	-0.406982	-0.650146	-11.982880	37.811183	-1.329316
47401		-6.126439	-1.562370	7.564868	0.017063	0.121262	-0.020309	-0.110107	-0.409180	-0.648682	-11.988922	37.883490	-1.357452
47402		-6.051681	-1.591963	7.577102	0.015105	0.129634	-0.007515	-0.103760	-0.403320	-0.645508	-11.992335	37.952604	-1.378648
47403		-6.096014	-1.816176	7.491124	0.031398	0.144445	0.015394	-0.101074	-0.402832	-0.646240	-11.976810	38.041894	-1.384970
47404		-6.206032	-1.941734	7.497117	0.046648	0.135634	0.020367	-0.101563	-0.412354	-0.652100	-11.950514	38.117691	-1.387222
47405		-6.077829	-1.773476	7.412963	0.078523	0.149042	0.065725	-0.106201	-0.404053	-0.651367	-11.886287	38.215261	-1.358307
47406		-6.353731	-1.997933	7.440627	0.104160	0.147810	0.090648	-0.102051	-0.405518	-0.656006	-11.796969	38.306153	-1.311990
47407		-6.345534	-1.915225	7.395818	0.119542	0.110423	0.101890	-0.097412	-0.410645	-0.653809	-11.689387	38.385958	-1.251102
47408		-6.365727	-1.879781	7.403713	0.143394	0.094850	0.123331	-0.100098	-0.405762	-0.646240	-11.557756	38.450763	-1.173030
47409		-6.403639	-1.834483	7.385379	0.158453	0.065977	0.140699	-0.103271	-0.410400	-0.651123	-11.406175	38.509587	-1.077356
47410		-6.414164	-1.721593	7.389057	0.186298	0.051189	0.139745	-0.105225	-0.411377	-0.650391	-11.238242	38.551386	-0.980661
47411		-6.494041	-1.506785	7.424892	0.193503	0.027902	0.145092	-0.095459	-0.423584	-0.648193	-11.060877	38.588634	-0.875978
47412		-6.310764	-1.296841	7.496627	0.181925	-0.002736	0.135340	-0.103271	-0.422363	-0.649902	-10.892394	38.599164	-0.774520
47413		-6.148388	-1.245605	7.544682	0.161488	-0.005228	0.126068	-0.097900	-0.421387	-0.654785	-10.738830	38.615018	-0.678701
47414		-6.259926	-1.290641	7.604777	0.171242	0.011272	0.112623	-0.096924	-0.427246	-0.642090	-10.587764	38.630593	-0.595403
47415		-6.247392	-1.231362	7.606377	0.154500	0.004113	0.117484	-0.103516	-0.428711	-0.644287	-10.442702	38.650155	-0.506910
47416		-6.219748	-1.207978	7.525110	0.155997	0.006701	0.125357	-0.106445	-0.435547	-0.652344	-10.294126	38.664132	-0.413676
47417		-6.274704	-1.243736	7.569884	0.147124	0.005204	0.139888	-0.101563	-0.429199	-0.652832	-10.143104	38.685975	-0.309004
47418		-6.284134	-1.372289	7.497455	0.138211	0.001677	0.134159	-0.101318	-0.425293	-0.660156	-10.000208	38.697623	-0.208627
47419		-6.291597	-1.276171	7.522164	0.137737	-0.000597	0.129918	-0.104004	-0.427734	-0.653320	-9.858471	38.714553	-0.110291
47420		-6.347358	-1.252266	7.519232	0.141220	-0.000049	0.130501	-0.106445	-0.428223	-0.648193	-9.715265	38.724481	-0.012234
47421		-6.271085	-1.158345	7.465117	0.135554	0.011524	0.122759	-0.097900	-0.428711	-0.647217	-9.578842	38.746965	0.079527
47422		-6.101775	-1.281029	7.485985	0.130913	0.014748	0.112684	-0.101563	-0.441650	-0.646973	-9.450633	38.763203	0.162985
47423		-5.948131	-1.367588	7.589043	0.133548	0.031526	0.120243	-0.101318	-0.439209	-0.646484	-9.317850	38.796197	0.250669
47424		-6.041037	-1.376655	7.556043	0.139695	0.050711	0.141637	-0.100830	-0.433350	-0.651855	-9.173926	38.835132	0.351059
47425		-6.009311	-1.206301	7.543911	0.140064	0.074661	0.142883	-0.106934	-0.447754	-0.647949	-9.029999	38.893977	0.450418
47426		-5.990606	-1.181161	7.607651	0.144901	0.112151	0.152097	-0.093750	-0.445557	-0.639893	-8.882319	38.968223	0.551789
47427		-5.895704	-1.200941	7.710745	0.132556	0.159016	0.157099	-0.097168	-0.439941	-0.657227	-8.741603	39.075429	0.652534
47428		-5.972491	-1.202892	7.736451	0.118345	0.208044	0.169321	-0.090332	-0.446289	-0.640137	-8.607169	39.205089	0.756570
47429		-5.970628	-1.236768	7.781150	0.107051	0.255265	0.177876	-0.095947	-0.447266	-0.647461	-8.477152	39.367953	0.862927
47430		-6.085721	-1.258678	7.752805	0.090569	0.298458	0.172969	-0.084229	-0.446533	-0.648926	-8.361952	39.548804	0.961036
47431		-6.060994	-1.292494	7.709059	0.076499	0.349775	0.185604	-0.079590	-0.447510	-0.648193	-8.250887	39.765285	1.064312
47432		-6.264577	-1.069968	7.763806	0.066813	0.394482	0.176133	-0.087402	-0.451660	-0.648193	-8.152836	40.000560	1.156030
47433		-6.410319	-0.890802	7.618820	0.043100	0.440131	0.166005	-0.084229	-0.447510	-0.648682	-8.074739	40.266194	1.236842
47434		-6.354636	-0.943196	7.682213	0.036729	0.481603	0.166277	-0.076416	-0.448486	-0.656982	-8.002954	40.549905	1.313640
47435		-6.482164	-1.061433	7.693955	0.029082	0.526012	0.171713	-0.070557	-0.457520	-0.644775	-7.934311	40.864358	1.391302
47436		-6.518984	-1.067126	7.588320	0.014393	0.560206	0.171958	-0.069824	-0.447754	-0.641357	-7.876230	41.192988	1.465758
47437		-6.485886	-1.056093	7.626458	0.007443	0.594014	0.170866	-0.068848	-0.451172	-0.645752	-7.823347	41.545646	1.537322
47438		-6.552171	-1.219640	7.554676	0.011604	0.641817	0.181114	-0.058350	-0.448730	-0.632324	-7.766092	41.921206	1.611906
47439		-6.597840	-1.194417	7.550639	0.011918	0.695697	0.179685	-0.053223	-0.457275	-0.644775	-7.711359	42.331964	1.681382
47440		-6.422078	-1.490586	7.679683	0.041843	0.785955	0.180446	-0.049561	-0.445557	-0.638184	-7.645096	42.789203	1.742488
47441		-6.511402	-1.358322	7.788014	0.069831	0.890230	0.208889	-0.035645	-0.450195	-0.635010	-7.553080	43.312303	1.816833
47442		-6.496926	-1.573077	7.803803	0.136701	0.978004	0.212718	-0.037598	-0.460938	-0.633545	-7.425707	43.880899	1.886571
47443		-6.130140	-0.565551	8.244114	0.163638	1.163414	0.216669	-0.021973	-0.454346	-0.627930	-7.291015	44.559311	1.943545
47444		-5.809447	-0.679964	8.286904	-0.043751	1.428019	0.361449	-0.011963	-0.457275	-0.632324	-7.210341	45.394225	2.091789
47445		-6.209968	-1.259874	8.014060	-0.009692	1.630997	0.413951	-0.000977	-0.449951	-0.631348	-7.088719	46.351995	2.267223
47446		-6.104198	-0.435894	8.401518	-0.038230	1.890048	0.462493	0.020020	-0.453857	-0.618164	-6.967322	47.456314	2.462149
47447		-6.399821	-1.036708	8.671423	-0.099696	2.128610	0.409875	0.032959	-0.461182	-0.615479	-6.924336	48.695992	2.595001
47448		-5.843767	-0.365778	8.207191	-0.129859	2.351019	0.359979	0.045166	-0.460449	-0.610840	-6.945586	50.055184	2.663770
47449		-5.931413	-0.403773	8.320120	-0.155709	2.691142	0.567269	0.072998	-0.456055	-0.604004	-6.860992	51.625149	2.886270
47450		-6.048922	-0.577910	7.999733	-0.200011	3.020565	0.694315	0.095215	-0.454590	-0.596436	-6.723020	53.387815	3.203365
47451		-6.351930	-0.589774	7.975817	-0.207458	3.325200	0.770958	0.117432	-0.465332	-0.584717	-6.530741	55.330924	3.584577
47452		-6.526636	-0.871354	7.940610	-0.222817	3.550774	0.857312	0.149414	-0.467285	-0.567871	-6.260283	57.404523	4.061527
47453		-7.296385	-0.786171	7.875257	-0.257352	3.760722	0.977385	0.175781	-0.466309	-0.549805	-5.863560	59.605489	4.698096
47454		-7.820593	-1.271852	7.588722	-0.327309	3.869941	1.112433	0.202637	-0.466064	-0.537354	-5.298070	61.871382	5.560022
47455		-8.116376	-1.474414	6.889412	-0.339137	4.090411	1.280124	0.231689	-0.469482	-0.522217	-4.437540	64.267474	6.741527
47456		-9.656950	-1.610680	6.488526	-0.347753	4.334615	1.428438	0.255615	-0.469971	-0.500000	-3.198903	66.797206	8.319864
47457		-10.990760	-1.753049	6.239748	-0.420948	4.506286	1.555916	0.289551	-0.482422	-0.483643	-1.476811	69.411796	10.433980
47458		-12.726972	-2.202296	6.228624	-0.531395	4.547882	1.590334	0.315430	-0.482178	-0.460449	0.786378	72.020509	13.152547
47459		-12.698646	-2.108952	5.641230	-0.687335	4.518426	1.613872	0.339111	-0.491699	-0.430908	3.829250	74.568784	16.738656
47460		-12.706170	-1.663946	5.093733	-0.916722	4.490021	1.699353	0.364258	-0.488525	-0.412109	8.206246	77.024040	21.793241
47461		-12.714970	-2.322548	4.511139	-1.168048	4.425919	1.823524	0.388916	-0.482178	-0.382568	14.855892	79.301565	29.268360
47462		-12.070414	-1.214475	3.909384	-1.504388	4.339250	1.868147	0.404297	-0.499023	-0.367188	24.837883	81.281924	40.266451
47463		-11.766499	-0.634013	3.041992	-2.092318	4.252035	1.844204	0.423096	-0.495850	-0.336426	39.348925	82.795241	56.125165
47464		-11.188464	0.079838	2.139570	-2.748100	4.169026	1.783251	0.442871	-0.493896	-0.320801	58.618089	83.601519	77.112137
47465		-10.369518	0.714463	1.880333	-3.469230	4.003091	1.655246	0.458008	-0.486328	-0.290283	78.784811	83.547069	99.402506
47466		-10.335097	1.003383	2.425501	-4.184052	3.721435	1.596027	0.472168	-0.465332	-0.280273	94.589245	82.744736	117.731951
47467		-9.016054	0.852860	2.349172	-4.667738	3.389629	1.657850	0.489014	-0.464111	-0.265625	104.592072	81.475519	130.527931
47468		-7.729398	2.352764	2.514394	-5.045129	3.011538	1.868492	0.498535	-0.454102	-0.237061	109.823035	79.937388	138.755791
47469		-13.226161	4.349945	1.715245	-5.550017	2.893657	1.989228	0.502930	-0.435547	-0.232666	112.518775	78.273317	144.737875
47470		-16.632187	1.455054	4.614206	-5.973529	2.054446	1.737260	0.503662	-0.421875	-0.223633	112.300129	76.903101	148.017439
47471		-12.630782	-0.037329	3.700888	-6.140740	1.126063	1.441533	0.512939	-0.410156	-0.218994	110.018389	75.899868	149.288963
47472		-10.738956	-1.756120	3.789163	-5.898117	0.432365	1.098608	0.507568	-0.387207	-0.227783	106.766935	75.223316	149.420102
47473		-7.898585	-2.634737	3.418272	-5.429362	-0.069824	0.702388	0.505859	-0.368652	-0.228760	103.106199	74.844882	148.850137
47474		-5.521677	-2.949957	3.116865	-4.781106	-0.291006	0.285727	0.500977	-0.347168	-0.225098	99.635212	74.715635	148.090941
47475		-3.637059	-2.042901	3.297555	-4.048229	-0.318866	-0.156925	0.498535	-0.331299	-0.229980	96.680549	74.830803	147.431992
47476		-2.611919	0.009091	4.090992	-3.479576	-0.232499	-0.569837	0.497070	-0.312988	-0.229248	94.296891	75.166533	147.027241
47477		-2.500953	2.032757	5.037349	-3.145805	-0.158178	-0.921662	0.491943	-0.281006	-0.226563	92.242383	75.699075	146.766237
47478		-3.191643	3.647903	6.161782	-3.011985	-0.181359	-1.192815	0.481689	-0.261475	-0.227539	90.143865	76.382260	146.381158
47479		-4.391769	4.589595	7.300200	-2.974194	-0.357018	-1.360687	0.485352	-0.235840	-0.230957	87.476537	77.157045	145.391273
47480		-5.421636	4.990906	8.382688	-2.935401	-0.715907	-1.410747	0.479492	-0.214111	-0.229004	83.647541	77.928743	143.191489
47481		-5.921329	5.545507	9.207969	-2.878427	-1.168366	-1.399996	0.463867	-0.192871	-0.228760	78.171994	78.613727	139.283444
47482		-6.046494	6.109745	9.623279	-2.839011	-1.652350	-1.356118	0.453369	-0.163574	-0.240234	70.844153	79.107155	133.472087
47483		-5.707751	6.347479	9.539177	-2.789369	-2.118119	-1.287207	0.443604	-0.146484	-0.251221	61.827046	79.291834	125.919666
47484		-5.407239	6.962076	9.403816	-2.726772	-2.509965	-1.191958	0.430664	-0.124512	-0.266357	51.993147	79.074624	117.498143
47485		-5.175184	7.638135	9.354974	-2.711904	-2.825842	-1.076272	0.407227	-0.104736	-0.275635	42.331384	78.417101	109.231855
47486		-5.306585	8.146159	9.348239	-2.731702	-3.088579	-0.947393	0.390625	-0.079346	-0.287109	33.692730	77.351130	101.997095
47487		-5.544834	8.239249	9.275150	-2.781051	-3.340669	-0.820588	0.374023	-0.069580	-0.296143	26.340545	75.917492	96.078634
47488		-5.413195	8.026522	9.080402	-2.797281	-3.570021	-0.681949	0.357910	-0.053711	-0.310791	20.359635	74.189297	91.546995
47489		-5.289845	7.620203	8.799343	-2.773341	-3.727614	-0.533466	0.340332	-0.039307	-0.327148	15.617578	72.240463	88.253842
47490		-5.471791	7.459407	8.782660	-2.725755	-3.808254	-0.430456	0.316650	-0.026367	-0.330322	11.834962	70.175329	85.907521
47491		-5.884481	6.879309	8.805757	-2.675469	-3.844536	-0.385285	0.299072	-0.003174	-0.349854	8.707645	68.035055	84.200516
47492		-6.567107	6.003137	8.989586	-2.554498	-3.880320	-0.377280	0.277344	0.012451	-0.361572	6.073469	65.854539	82.927747
47493		-7.593356	5.311908	9.349574	-2.391844	-3.942044	-0.381390	0.260254	0.025879	-0.370605	3.834745	63.610622	81.966597
47494		-8.530658	4.695877	9.705478	-2.186307	-4.062036	-0.387977	0.232666	0.038818	-0.404053	1.936659	61.294086	81.237909
47495		-9.272794	4.399930	10.026579	-1.994413	-4.190991	-0.402006	0.214600	0.056152	-0.406982	0.318776	58.884891	80.688121
47496		-9.759702	4.063004	10.234590	-1.840776	-4.310104	-0.422986	0.182861	0.064209	-0.419434	-1.087907	56.410654	80.270606
47497		-10.276432	3.694434	10.307962	-1.727250	-4.388985	-0.435288	0.163330	0.082275	-0.442871	-2.320386	53.876523	79.972353
47498		-10.900047	3.160157	10.536016	-1.642605	-4.429738	-0.430004	0.136230	0.080811	-0.448486	-3.413340	51.326276	79.780295
47499		-11.705465	2.784808	10.741268	-1.594802	-4.448841	-0.402564	0.106201	0.111084	-0.474365	-4.387036	48.754369	79.698924
47500		-12.648374	2.329454	10.892746	-1.585123	-4.456972	-0.370715	0.083252	0.115967	-0.486572	-5.287607	46.188936	79.708191
47501		-13.306059	1.890951	10.746728	-1.611731	-4.460998	-0.336755	0.045410	0.130127	-0.500000	-6.141176	43.613581	79.803089
47502		-13.567153	1.423416	10.311078	-1.631300	-4.427433	-0.296585	0.010010	0.149414	-0.512939	-6.962670	41.071144	79.969874
47503		-13.701765	1.081576	9.622721	-1.635157	-4.344378	-0.271693	-0.026367	0.156494	-0.518555	-7.755165	38.570229	80.190192
47504		-13.810068	0.988140	8.640954	-1.621624	-4.216808	-0.270641	-0.052979	0.172363	-0.526367	-8.537167	36.153771	80.431220
47505		-14.193464	1.089144	7.685209	-1.603991	-4.067209	-0.341787	-0.090576	0.192627	-0.534668	-9.331369	33.809826	80.642633
47506		-13.952757	0.842572	6.584976	-1.524854	-3.902428	-0.461826	-0.126465	0.196777	-0.535889	-10.127281	31.558606	80.785046
47507		-13.249055	1.081257	5.367039	-1.313079	-3.683589	-0.571348	-0.171631	0.213623	-0.525391	-10.836353	29.413473	80.862564
47508		-12.604533	1.775182	4.452911	-1.046679	-3.421294	-0.629108	-0.197998	0.230469	-0.531250	-11.420250	27.417826	80.893887
47509		-12.163445	2.590762	3.671913	-0.789593	-3.138972	-0.600862	-0.224609	0.229980	-0.536377	-11.853233	25.577933	80.927717
47510		-11.840546	2.623753	2.335517	-0.590728	-2.895000	-0.454151	-0.258789	0.233154	-0.535645	-12.147778	23.898726	81.030420
47511		-10.836029	-0.348927	-0.483803	-0.399856	-2.739551	-0.089815	-0.282959	0.244141	-0.529541	-12.249965	22.346110	81.341443
47512		-12.352980	2.380597	-1.252164	-0.385778	-2.484986	0.365467	-0.294678	0.242676	-0.529541	-12.267437	20.996602	81.890075
47513		-12.180465	8.419419	-1.669941	-1.361415	-2.155777	0.436364	-0.314209	0.253174	-0.516602	-12.850150	19.839305	82.441841
47514		-11.162745	6.122380	-3.814116	-2.492103	-1.643990	0.248254	-0.330566	0.269043	-0.507324	-14.149922	18.954053	82.824753
47515		-11.282905	-0.528027	-5.669305	-2.585946	-1.115051	0.140377	-0.337646	0.294434	-0.488037	-15.542840	18.352839	83.084573
47516		-11.765326	-4.767489	-6.083959	-1.639844	-0.613093	0.116862	-0.335449	0.306885	-0.475586	-16.427483	18.031155	83.257416
47517		-12.042174	-4.179413	-5.388572	-0.489825	-0.153648	0.050725	-0.337891	0.315186	-0.480957	-16.684387	17.952524	83.317857
47518		-12.238687	-2.778854	-3.980945	0.301662	0.260741	0.007973	-0.332031	0.304688	-0.482178	-16.522037	18.094594	83.280857
