// General information: 
//  MT Manager version: 2022.2.0 
//  XDA version: 2022.2.0 build 7381 rev 124627 built on 2023-07-19
// Device information: 
//  DeviceId: 00B4C3A0
//  ProductCode: MTW2-3A7G6
//  Firmware Version: 4.6.0
//  Hardware Version: 2.0.0
// Device settings: 
//  Filter Profile: human(46.1)
//  Option Flags: Orientation Smoother Disabled, Position/Velocity Smoother Disabled, Continuous Zero Rotation Update Disabled, AHS Disabled, ICC Disabled
// Coordinate system: ENU
PacketCounter	SampleTimeFine	Acc_X	Acc_Y	Acc_Z	Gyr_X	Gyr_Y	Gyr_Z	Mag_X	Mag_Y	Mag_Z	Roll	Pitch	Yaw
05548		9.489124	0.131469	-1.300408	-0.213931	-0.084957	0.053101	-0.324707	-0.260254	0.666016	167.950174	-80.006986	26.573367
05549		9.510762	0.114148	-1.381181	-0.220640	-0.103598	0.044808	-0.315430	-0.261475	0.665283	168.045818	-79.953679	26.351617
05550		9.456572	0.052125	-1.461026	-0.202003	-0.113479	0.045952	-0.326660	-0.269043	0.667480	168.185391	-79.901230	26.094469
05551		9.357281	0.015860	-1.470828	-0.177527	-0.128746	0.043363	-0.320557	-0.270264	0.668945	168.313824	-79.833479	25.864426
05552		9.337077	-0.141535	-1.521911	-0.163122	-0.130043	0.037901	-0.320557	-0.261475	0.664551	168.456810	-79.770679	25.625565
05553		9.303893	-0.210081	-1.553956	-0.145475	-0.115208	0.033140	-0.318359	-0.263672	0.674805	168.558799	-79.709180	25.440968
05554		9.313941	-0.246278	-1.610911	-0.125997	-0.099213	0.028353	-0.314941	-0.270996	0.666992	168.670704	-79.662332	25.256923
05555		9.323711	-0.276429	-1.569695	-0.115019	-0.098709	0.026789	-0.319336	-0.276367	0.672119	168.757440	-79.609273	25.105509
05556		9.387068	-0.251145	-1.531548	-0.109814	-0.095428	0.026525	-0.313477	-0.270508	0.663574	168.868216	-79.564199	24.929904
05557		9.374020	-0.218275	-1.517780	-0.092836	-0.084644	0.028397	-0.319824	-0.267822	0.674805	168.961788	-79.519130	24.784419
05558		9.381012	-0.091310	-1.582181	-0.067784	-0.085541	0.024099	-0.322266	-0.272705	0.674316	169.081453	-79.479218	24.625515
05559		9.422607	-0.057747	-1.568216	-0.061120	-0.094024	0.026732	-0.309082	-0.263184	0.666992	169.191453	-79.428590	24.481762
05560		9.474759	-0.000788	-1.531324	-0.050993	-0.089094	0.019988	-0.311523	-0.274170	0.670166	169.308314	-79.386095	24.335905
05561		9.526083	0.108230	-1.544734	-0.050913	-0.062293	0.017953	-0.313232	-0.268555	0.669189	169.377787	-79.352309	24.239298
05562		9.568177	0.139504	-1.576536	-0.042515	-0.053209	0.016257	-0.307617	-0.264648	0.662354	169.466590	-79.329492	24.126062
05563		9.632334	0.161806	-1.583710	-0.041636	-0.066787	0.012751	-0.309570	-0.267822	0.670410	169.527332	-79.292584	24.043730
05564		9.631557	0.165020	-1.517270	-0.042520	-0.073623	0.016753	-0.312988	-0.268311	0.669189	169.627689	-79.258165	23.919521
05565		9.641746	0.128776	-1.571386	-0.056115	-0.074408	0.022115	-0.301270	-0.279541	0.671387	169.710877	-79.217878	23.805877
05566		9.629416	0.100737	-1.675373	-0.069785	-0.087007	0.016282	-0.312988	-0.266602	0.677490	169.799780	-79.175797	23.676028
05567		9.584088	0.060890	-1.803523	-0.077259	-0.086802	0.008727	-0.319580	-0.272461	0.672607	169.836548	-79.127108	23.597280
05568		9.593756	0.027726	-1.835113	-0.076439	-0.097797	0.007649	-0.310791	-0.270752	0.674316	169.900794	-79.078192	23.490573
05569		9.527389	0.008094	-1.793426	-0.076093	-0.086191	0.003502	-0.308838	-0.270020	0.670410	169.921558	-79.029299	23.428781
05570		9.483228	-0.023333	-1.773993	-0.071419	-0.061482	0.006647	-0.314209	-0.275391	0.675537	169.965761	-79.000578	23.344801
05571		9.448870	0.021453	-1.757018	-0.059623	-0.056603	0.006274	-0.303223	-0.265625	0.674805	169.988162	-78.968642	23.290941
05572		9.469291	0.066662	-1.739660	-0.055314	-0.042222	0.014791	-0.313232	-0.270508	0.674072	170.054796	-78.951535	23.193622
05573		9.412859	0.118525	-1.769319	-0.050839	-0.027899	0.015661	-0.309326	-0.276367	0.675049	170.094361	-78.936709	23.127394
05574		9.400568	0.148942	-1.797941	-0.028261	-0.032732	0.019114	-0.306885	-0.271729	0.670654	170.183764	-78.925364	23.022370
05575		9.410469	0.169411	-1.802510	0.000764	-0.039964	0.018655	-0.316162	-0.272705	0.678955	170.267135	-78.903984	22.941623
05576		9.398398	0.200244	-1.807099	0.015269	-0.027086	0.014260	-0.313965	-0.273926	0.674316	170.364174	-78.895256	22.854437
05577		9.376277	0.210330	-1.785169	0.009037	-0.019506	0.015510	-0.307129	-0.273438	0.669189	170.432776	-78.885086	22.793567
05578		9.420898	0.191237	-1.713387	-0.009721	-0.019809	0.017187	-0.306152	-0.269043	0.672607	170.519953	-78.880646	22.701383
05579		9.420590	0.189762	-1.715243	-0.022661	-0.020249	0.020019	-0.306885	-0.277100	0.676270	170.583489	-78.870448	22.627162
05580		9.442601	0.178670	-1.692552	-0.035126	-0.021588	0.026682	-0.307861	-0.277100	0.672607	170.683889	-78.865747	22.506650
05581		9.485346	0.152472	-1.767348	-0.048592	-0.023758	0.023176	-0.308594	-0.275391	0.672119	170.743029	-78.853817	22.421763
05582		9.485534	0.095750	-1.791406	-0.076125	-0.024522	0.022484	-0.307617	-0.278320	0.677246	170.808924	-78.847016	22.312139
05583		9.485035	0.094992	-1.794083	-0.078204	-0.033478	0.022674	-0.310791	-0.268066	0.675781	170.853868	-78.829508	22.224422
05584		9.463695	0.051295	-1.770364	-0.074635	-0.029938	0.023786	-0.306396	-0.268799	0.672852	170.926570	-78.819692	22.109502
05585		9.463214	0.050565	-1.772951	-0.083854	-0.025581	0.021328	-0.305420	-0.271729	0.665039	170.960452	-78.806498	22.029754
05586		9.429910	0.037775	-1.798410	-0.092396	-0.018249	0.018801	-0.301270	-0.279785	0.676025	171.003071	-78.802724	21.935236
05587		9.461859	0.047882	-1.825212	-0.088810	-0.013405	0.021167	-0.302979	-0.269531	0.676514	171.027973	-78.796387	21.861744
05588		9.461339	0.046495	-1.850461	-0.088591	-0.005623	0.021009	-0.307129	-0.272217	0.668945	171.073286	-78.799848	21.766240
05589		9.461699	0.047446	-1.826053	-0.095806	0.005055	0.015858	-0.297852	-0.279541	0.669189	171.070692	-78.803474	21.716691
05590		9.461421	0.046857	-1.850037	-0.089392	0.002650	0.011917	-0.312500	-0.281494	0.666748	171.085886	-78.810771	21.651212
05591		9.484221	0.038735	-1.800638	-0.081576	0.007518	0.009119	-0.298340	-0.273926	0.674805	171.071104	-78.815190	21.622402
05592		9.482950	0.091715	-1.850246	-0.056613	0.018127	0.011015	-0.309326	-0.278809	0.668945	171.095698	-78.831176	21.566646
05593		9.439282	0.112759	-1.848806	-0.037333	0.014938	0.010686	-0.309814	-0.272949	0.671631	171.107498	-78.839932	21.536581
05594		9.427774	0.143877	-1.873131	-0.017598	0.008230	0.011682	-0.312012	-0.269531	0.674805	171.161000	-78.850377	21.474736
05595		9.439110	0.166968	-1.825120	-0.013867	-0.004753	0.009246	-0.310547	-0.278809	0.669189	171.190983	-78.847850	21.439843
05596		9.406409	0.155005	-1.824856	-0.016359	-0.008865	0.009350	-0.311523	-0.279785	0.668701	171.246115	-78.848367	21.377427
05597		9.384264	0.165151	-1.825788	-0.030519	-0.010105	0.009629	-0.310791	-0.275391	0.674316	171.269991	-78.842833	21.339034
05598		9.341291	0.132446	-1.800204	-0.032082	-0.004733	0.008306	-0.306641	-0.278809	0.671143	171.311134	-78.845539	21.281118
05599		9.373817	0.087489	-1.848611	-0.042255	-0.011149	0.006029	-0.303955	-0.281250	0.675537	171.318369	-78.839096	21.252832
05600		9.384679	0.110542	-1.825655	-0.041309	-0.000365	0.005862	-0.318848	-0.271973	0.672363	171.345100	-78.843925	21.203646
05601		9.416622	0.120309	-1.875040	-0.025787	0.005532	0.004221	-0.305664	-0.274170	0.664551	171.349275	-78.846771	21.188096
05602		9.427681	0.143168	-1.851086	-0.019952	0.004096	0.004132	-0.308594	-0.283203	0.662109	171.381461	-78.854028	21.147197
05603		9.428428	0.144874	-1.802063	-0.015939	0.000227	0.002834	-0.310791	-0.290771	0.671875	171.389622	-78.853748	21.133335
05604		9.439430	0.167659	-1.778388	-0.017037	0.003377	0.004087	-0.304199	-0.275146	0.675049	171.423435	-78.860521	21.090082
05605		9.428872	0.145891	-1.777163	-0.022259	0.002584	-0.000906	-0.308105	-0.279053	0.668457	171.416198	-78.861254	21.088223
05606		9.385253	0.168374	-1.752842	-0.020704	-0.002794	0.000407	-0.308350	-0.281494	0.670654	171.439953	-78.864109	21.054760
05607		9.373823	0.145026	-1.801312	-0.016247	-0.010189	0.000419	-0.307617	-0.278320	0.675781	171.445506	-78.857719	21.043377
05608		9.385345	0.113770	-1.776982	-0.025065	-0.011945	-0.003225	-0.315430	-0.278320	0.670410	171.460172	-78.855079	21.016376
05609		9.405990	0.101403	-1.851494	-0.021724	-0.017493	-0.003219	-0.312012	-0.273193	0.668945	171.455264	-78.844240	21.012456
05610		9.374869	0.038851	-1.777471	-0.017076	-0.022283	-0.008343	-0.303711	-0.278320	0.673828	171.464268	-78.835355	20.996845
05611		9.385158	0.061895	-1.780026	-0.015005	-0.013341	-0.008489	-0.307129	-0.275879	0.680176	171.446292	-78.826420	21.010169
05612		9.395883	0.085754	-1.757814	-0.016814	-0.014476	-0.008445	-0.296875	-0.271973	0.664063	171.451586	-78.821790	20.998032
05613		9.427537	0.096594	-1.808461	-0.016548	-0.006665	-0.008543	-0.313477	-0.276367	0.673096	171.429718	-78.816632	21.014423
05614		9.438365	0.120394	-1.785675	-0.014301	-0.009062	-0.007283	-0.310303	-0.284424	0.676514	171.437339	-78.815133	21.001463
05615		9.460144	0.110684	-1.786717	-0.009150	-0.013474	-0.007325	-0.301270	-0.277100	0.674072	171.426153	-78.806221	21.011286
05616		9.449995	0.091287	-1.738627	-0.018207	-0.020447	-0.008358	-0.297363	-0.271240	0.670166	171.433278	-78.798181	20.995835
05617		9.513240	0.111935	-1.840029	-0.014173	-0.023012	-0.008404	-0.313721	-0.277100	0.673828	171.420262	-78.783773	21.004591
05618		9.446455	0.143963	-1.866499	-0.007640	-0.021459	-0.008542	-0.308350	-0.269775	0.669189	171.433265	-78.775107	20.990226
05619		9.456547	0.166884	-1.869848	-0.000283	-0.030870	-0.009849	-0.302002	-0.281738	0.673828	171.427480	-78.756123	20.999724
05620		9.424076	0.158110	-1.823588	0.002320	-0.042006	-0.012328	-0.306152	-0.274414	0.679199	171.444050	-78.735461	20.987176
05621		9.457492	0.173732	-1.731157	-0.000863	-0.047814	-0.010938	-0.313477	-0.280273	0.670166	171.442099	-78.706785	20.992428
05622		9.425004	0.165086	-1.685474	-0.007580	-0.038029	-0.012198	-0.306152	-0.281982	0.679443	171.451567	-78.688432	20.981468
05623		9.412566	0.141732	-1.760725	-0.015523	-0.025097	-0.004540	-0.307617	-0.274902	0.667969	171.449661	-78.673173	20.978108
05624		9.366363	0.216612	-1.813695	-0.008593	-0.029677	-0.005902	-0.311035	-0.284180	0.677490	171.472574	-78.660026	20.952470
05625		9.366151	0.162289	-1.839343	-0.009828	-0.034342	-0.012207	-0.307129	-0.277832	0.674805	171.456179	-78.638875	20.967216
05626		9.366802	0.110038	-1.816423	-0.005616	-0.034297	-0.017392	-0.310547	-0.273193	0.661621	171.450212	-78.622131	20.972687
05627		9.377684	0.079554	-1.818305	-0.004517	-0.023486	-0.025174	-0.296631	-0.287598	0.682617	171.395898	-78.606021	21.029219
05628		9.388788	0.049375	-1.819110	0.002990	-0.011119	-0.025446	-0.301758	-0.280273	0.668945	171.362305	-78.601614	21.067607
05629		9.410649	0.040818	-1.819897	0.020869	-0.003664	-0.022049	-0.303223	-0.280518	0.683350	171.323022	-78.596986	21.123646
05630		9.410557	0.098517	-1.773519	0.028264	-0.010474	-0.020856	-0.305420	-0.273682	0.673584	171.316528	-78.593305	21.149337
05631		9.430907	0.142911	-1.801157	0.031421	-0.018637	-0.015741	-0.308838	-0.281982	0.678223	171.307481	-78.580736	21.180699
05632		9.420554	0.178749	-1.730458	0.036835	-0.015230	-0.015889	-0.302002	-0.277588	0.670410	171.321860	-78.574820	21.190613
05633		9.462936	0.212304	-1.758013	0.037077	-0.008716	-0.017242	-0.305664	-0.283203	0.670654	171.307643	-78.567740	21.230559
05634		9.495159	0.168712	-1.807489	0.030209	-0.020716	-0.019532	-0.297607	-0.282715	0.671875	171.310168	-78.558348	21.247992
05635		9.484139	0.148262	-1.808938	0.029405	-0.028928	-0.024537	-0.302979	-0.279053	0.676514	171.279903	-78.539186	21.299829
05636		9.517652	0.107927	-1.786216	0.021999	-0.022127	-0.025736	-0.300049	-0.278076	0.673584	171.260940	-78.528402	21.334326
05637		9.483249	0.152145	-1.813274	0.024518	-0.016701	-0.024576	-0.303467	-0.276123	0.672363	171.222720	-78.516151	21.391428
05638		9.439355	0.119749	-1.837156	0.025178	-0.015024	-0.025889	-0.298584	-0.285645	0.678467	171.202138	-78.509367	21.429959
05639		9.450075	0.144403	-1.815183	0.033976	-0.014554	-0.023536	-0.303223	-0.278809	0.673340	171.171459	-78.498412	21.484901
05640		9.450409	0.146967	-1.791575	0.045684	-0.000838	-0.027773	-0.304199	-0.278564	0.672363	171.151211	-78.499466	21.534483
05641		9.450984	0.149581	-1.766697	0.054963	0.012668	-0.028136	-0.313965	-0.278320	0.675537	171.107998	-78.503504	21.614487
05642		9.528801	0.143420	-1.717967	0.080316	0.014608	-0.030005	-0.305420	-0.279785	0.677490	171.094561	-78.513161	21.678185
05643		9.583794	0.145931	-1.716648	0.073476	0.039656	-0.028902	-0.305664	-0.282715	0.673828	171.047830	-78.532390	21.772596
05644		9.627523	0.181056	-1.714615	0.058469	0.049343	-0.027438	-0.290771	-0.274658	0.676025	171.013261	-78.561871	21.844418
05645		9.628612	0.183653	-1.686613	0.063029	0.027955	-0.028559	-0.303955	-0.270020	0.684570	170.966185	-78.574483	21.933058
05646		9.596748	0.230892	-1.612338	0.062605	0.018837	-0.022061	-0.299072	-0.277588	0.678467	170.962008	-78.587059	21.977095
05647		9.498266	0.251777	-1.609948	0.041092	0.010425	-0.016375	-0.302490	-0.270996	0.678711	170.944142	-78.590838	22.023107
05648		9.377799	0.226400	-1.654935	0.030790	0.002694	-0.012213	-0.297119	-0.278809	0.677979	170.956351	-78.595211	22.031556
05649		9.289696	0.212528	-1.701895	0.022197	-0.009135	-0.013135	-0.302490	-0.280518	0.671143	170.945468	-78.588214	22.059400
05650		9.235064	0.155813	-1.748704	0.021911	-0.018270	-0.014279	-0.302979	-0.275635	0.675293	170.955987	-78.580519	22.063349
05651		9.214358	0.113883	-1.723453	0.010471	-0.010216	-0.016692	-0.305908	-0.281006	0.679199	170.928952	-78.572590	22.100819
05652		9.225415	0.081996	-1.747052	0.002176	0.003638	-0.020533	-0.293945	-0.269043	0.679443	170.900853	-78.576762	22.133242
05653		9.280355	0.028672	-1.793872	-0.002098	0.014926	-0.024431	-0.305176	-0.271973	0.685303	170.833667	-78.582341	22.204327
05654		9.289927	0.107350	-1.795504	0.001566	0.021128	-0.020773	-0.302490	-0.272949	0.676025	170.796443	-78.596284	22.246789
05655		9.332658	0.141837	-1.820643	0.008247	0.010030	-0.020766	-0.309326	-0.277100	0.677734	170.747531	-78.599408	22.305273
05656		9.344208	0.167199	-1.771852	0.022943	0.014330	-0.013496	-0.304932	-0.272217	0.681885	170.745927	-78.610216	22.323337
05657		9.396859	0.221815	-1.822741	0.021119	0.011879	-0.014700	-0.297119	-0.276611	0.686523	170.720490	-78.614937	22.365395
05658		9.407374	0.244715	-1.823286	0.030736	0.001380	-0.013486	-0.300537	-0.267334	0.672363	170.729103	-78.618340	22.377610
05659		9.440250	0.257903	-1.800307	0.034553	-0.006384	-0.010905	-0.305176	-0.278564	0.680664	170.730379	-78.613084	22.400270
05660		9.417973	0.268609	-1.801358	0.035459	-0.013435	-0.008269	-0.296387	-0.280273	0.676270	170.762977	-78.608578	22.390735
05661		9.386057	0.259376	-1.753247	0.035812	-0.022211	-0.011981	-0.304443	-0.279785	0.682373	170.769186	-78.594274	22.409100
05662		9.407350	0.248261	-1.779249	0.031421	-0.010882	-0.008226	-0.306641	-0.269775	0.680176	170.798230	-78.591177	22.399606
05663		9.374296	0.235829	-1.802980	0.028324	0.002486	-0.008364	-0.299072	-0.274658	0.683350	170.799053	-78.591176	22.419090
05664		9.386421	0.205226	-1.777342	0.020765	0.000095	-0.018374	-0.297363	-0.280762	0.676270	170.788422	-78.593358	22.445354
05665		9.408925	0.197090	-1.753010	0.023037	-0.000982	-0.015858	-0.294678	-0.275635	0.674805	170.766788	-78.590706	22.484656
05666		9.430951	0.187952	-1.753128	0.014262	-0.001470	-0.018202	-0.293701	-0.271973	0.675049	170.753420	-78.591914	22.508203
05667		9.441844	0.212620	-1.729599	0.005783	0.008490	-0.018163	-0.305908	-0.275635	0.678467	170.711115	-78.594399	22.558508
05668		9.463659	0.202664	-1.752710	0.010751	0.018047	-0.017155	-0.295410	-0.274658	0.678223	170.689599	-78.606763	22.589418
05669		9.452261	0.236572	-1.752150	0.009633	0.019893	-0.017161	-0.302979	-0.273193	0.675781	170.646957	-78.615777	22.642314
05670		9.485416	0.250767	-1.727482	0.016972	0.010468	-0.018461	-0.303711	-0.280029	0.671387	170.628590	-78.623703	22.673589
05671		9.453584	0.241217	-1.700765	0.025830	0.016209	-0.011095	-0.305664	-0.284180	0.677734	170.613876	-78.631192	22.707459
05672		9.464262	0.264244	-1.700165	0.011437	0.022334	-0.015976	-0.294434	-0.266113	0.679199	170.593670	-78.646111	22.736267
05673		9.409169	0.262097	-1.745722	0.010318	0.024180	-0.015983	-0.307861	-0.269043	0.681641	170.552470	-78.657641	22.788084
05674		9.431998	0.253954	-1.719477	0.008792	0.014330	-0.011950	-0.300781	-0.275391	0.676514	170.545453	-78.668333	22.804391
05675		9.400196	0.244361	-1.692541	-0.001701	0.016642	-0.010469	-0.302246	-0.271240	0.679932	170.516335	-78.676115	22.836859
05676		9.400075	0.244249	-1.715086	-0.013289	0.022115	-0.007739	-0.308105	-0.270264	0.677979	170.504707	-78.691591	22.843811
05677		9.378235	0.255814	-1.713586	-0.021198	0.010641	-0.011202	-0.294922	-0.272461	0.681152	170.465096	-78.695907	22.875585
05678		9.444240	0.224888	-1.736836	-0.028978	0.007047	-0.007131	-0.297119	-0.270508	0.683350	170.453134	-78.702902	22.874127
05679		9.444300	0.226419	-1.736309	-0.044288	0.002358	-0.011825	-0.302246	-0.266357	0.677734	170.402435	-78.702473	22.903717
05680		9.411036	0.214400	-1.783580	-0.042485	0.004802	-0.010634	-0.302002	-0.270996	0.683594	170.373714	-78.707816	22.911952
05681		9.443136	0.226816	-1.808541	-0.050761	0.003403	-0.009155	-0.303955	-0.280762	0.678467	170.326347	-78.708227	22.934362
05682		9.454568	0.194975	-1.830991	-0.048263	0.010143	-0.006769	-0.305908	-0.277100	0.679199	170.302628	-78.716979	22.933108
05683		9.455109	0.197414	-1.805789	-0.041986	0.005200	-0.005557	-0.302979	-0.277588	0.672119	170.269582	-78.718747	22.946040
05684		9.433526	0.209752	-1.780784	-0.030261	0.007612	-0.000740	-0.307129	-0.283447	0.674316	170.274388	-78.726629	22.925922
05685		9.433634	0.210596	-1.780110	-0.029675	0.005347	-0.005835	-0.297852	-0.271729	0.673340	170.247520	-78.728452	22.939746
05686		9.421194	0.241713	-1.829305	-0.017922	0.009074	0.000246	-0.297852	-0.275146	0.672852	170.261360	-78.737199	22.917454
05687		9.401378	0.199988	-1.777866	-0.019315	0.000479	-0.002151	-0.301270	-0.281982	0.675781	170.253232	-78.736630	22.918222
05688		9.411363	0.221353	-1.803123	-0.008719	0.003431	0.001413	-0.300781	-0.275391	0.677734	170.278290	-78.742237	22.889562
05689		9.411810	0.222555	-1.778492	-0.016383	0.001082	-0.000946	-0.307373	-0.273926	0.672607	170.274967	-78.742125	22.887143
05690		9.433550	0.211619	-1.802560	-0.013936	0.003895	-0.002320	-0.304932	-0.274170	0.682373	170.286160	-78.747660	22.870823
05691		9.443949	0.234138	-1.803356	-0.009903	0.001343	-0.002368	-0.308105	-0.273682	0.672119	170.282390	-78.747558	22.872647
05692		9.391210	0.179681	-1.775605	-0.022215	0.002492	-0.000847	-0.299561	-0.269775	0.676514	170.293640	-78.752448	22.851886
05693		9.434083	0.213792	-1.777348	-0.016346	0.003700	0.001568	-0.299561	-0.269775	0.680176	170.296210	-78.754058	22.843481
05694		9.433396	0.211723	-1.825530	-0.006867	0.008499	0.005133	-0.307861	-0.270020	0.679443	170.330137	-78.762791	22.808941
05695		9.420667	0.240847	-1.898753	-0.002604	0.013763	0.004965	-0.295654	-0.272949	0.677490	170.345386	-78.770410	22.795638
05696		9.388771	0.229800	-1.872557	-0.009358	0.003063	0.003986	-0.309570	-0.271240	0.674805	170.377277	-78.775955	22.761501
05697		9.410276	0.275641	-1.825961	-0.008446	-0.005287	0.005369	-0.302979	-0.270508	0.672852	170.399555	-78.772848	22.737619
05698		9.433126	0.266993	-1.777410	-0.016538	-0.001496	0.004202	-0.304688	-0.277588	0.678223	170.430111	-78.775847	22.700812
05699		9.412826	0.223693	-1.750803	-0.023470	0.003070	0.005556	-0.299072	-0.274414	0.675049	170.440298	-78.777476	22.680481
05700		9.444600	0.233343	-1.800048	-0.027489	0.006928	0.006860	-0.300537	-0.277588	0.669678	170.468023	-78.785408	22.638856
05701		9.420422	0.296132	-1.850575	-0.021215	0.000685	0.006819	-0.298584	-0.269287	0.679199	170.484262	-78.785806	22.613672
05702		9.388317	0.285107	-1.825416	0.002727	-0.005902	0.002586	-0.304443	-0.277100	0.674561	170.523096	-78.786002	22.578653
05703		9.367861	0.241865	-1.799592	0.000404	-0.007450	-0.002459	-0.305664	-0.276367	0.677979	170.529149	-78.780924	22.576482
05704		9.390713	0.233667	-1.750968	0.003084	0.003181	-0.003945	-0.300293	-0.272705	0.678711	170.545252	-78.785696	22.564693
05705		9.434229	0.211418	-1.799028	0.000377	0.010392	-0.005271	-0.299561	-0.277344	0.678467	170.534789	-78.790437	22.579344
05706		9.467274	0.224442	-1.774603	0.001538	0.011166	-0.002750	-0.304932	-0.276367	0.673096	170.549421	-78.799737	22.568260
05707		9.447067	0.181254	-1.747463	-0.002876	0.003324	0.002568	-0.303955	-0.275879	0.675781	170.562820	-78.801221	22.556686
05708		9.435292	0.213375	-1.748785	-0.001497	-0.008547	0.005268	-0.297852	-0.277100	0.679932	170.607962	-78.800164	22.512530
05709		9.423010	0.244562	-1.775112	-0.013858	-0.010021	0.004263	-0.295166	-0.281006	0.675781	170.626205	-78.794260	22.489601
05710		9.411260	0.219620	-1.848265	-0.023306	-0.012202	0.003208	-0.302979	-0.270752	0.670410	170.654457	-78.790804	22.448703
05711		9.434360	0.212262	-1.776064	-0.016165	-0.010262	0.000475	-0.298584	-0.271973	0.677246	170.660648	-78.784408	22.436713
05712		9.488382	0.213283	-1.802086	-0.025912	-0.005035	-0.005793	-0.301270	-0.269043	0.679932	170.658222	-78.784185	22.427768
05713		9.444481	0.235860	-1.778191	-0.026550	-0.005405	-0.003220	-0.302002	-0.279785	0.667969	170.645649	-78.780192	22.428842
05714		9.456064	0.204142	-1.777876	-0.029682	-0.011210	-0.001801	-0.296387	-0.277344	0.675049	170.655292	-78.776845	22.404730
05715		9.434188	0.215986	-1.754414	-0.026726	-0.009299	0.000668	-0.305420	-0.277344	0.680176	170.655517	-78.771011	22.392653
05716		9.433586	0.215318	-1.779799	-0.013913	-0.012652	0.001730	-0.304443	-0.285400	0.676025	170.684832	-78.767158	22.357219
05717		9.388968	0.177773	-1.876117	-0.003087	-0.003187	0.003941	-0.301758	-0.271973	0.666504	170.705039	-78.765082	22.338579
05718		9.366729	0.188286	-1.876802	0.006829	-0.011106	-0.007663	-0.301758	-0.268311	0.678711	170.718725	-78.761222	22.330589
05719		9.378603	0.157431	-1.852747	0.009026	-0.017415	-0.010183	-0.302490	-0.273193	0.675049	170.712296	-78.749794	22.346180
05720		9.390875	0.128173	-1.804432	0.004577	-0.014000	-0.021646	-0.295410	-0.281494	0.675537	170.686087	-78.742964	22.380176
05721		9.413233	0.120500	-1.780804	0.004873	-0.002255	-0.017973	-0.288818	-0.272705	0.678223	170.648148	-78.739380	22.425471
05722		9.390193	0.187764	-1.758070	0.002251	0.010194	-0.014248	-0.306152	-0.270508	0.679688	170.630211	-78.746731	22.446716
05723		9.476920	0.201037	-1.783670	0.006799	0.006742	-0.010460	-0.301025	-0.276855	0.679199	170.610487	-78.748928	22.474562
05724		9.453400	0.266652	-1.785592	0.016465	-0.003721	-0.009242	-0.294189	-0.274414	0.680664	170.621490	-78.749064	22.477088
05725		9.420201	0.311618	-1.738677	0.017887	-0.012979	-0.004033	-0.298584	-0.279297	0.675049	170.635634	-78.740713	22.476881
05726		9.419152	0.309883	-1.788523	0.019214	-0.008317	-0.005403	-0.299561	-0.277588	0.678467	170.661041	-78.738463	22.464355
05727		9.376598	0.277060	-1.763049	0.014987	-0.010969	-0.002723	-0.298096	-0.281006	0.677246	170.676274	-78.731370	22.461342
05728		9.375544	0.275425	-1.812838	0.006844	-0.009803	-0.006406	-0.302734	-0.271729	0.680908	170.692376	-78.728214	22.450537
05729		9.353352	0.228934	-1.884991	0.003250	-0.012087	-0.006300	-0.302979	-0.273193	0.678467	170.691244	-78.720157	22.457355
05730		9.331779	0.241677	-1.837796	0.010625	-0.021483	-0.007608	-0.303711	-0.273193	0.677734	170.711353	-78.710326	22.447400
05731		9.344003	0.211708	-1.790116	0.008803	-0.023938	-0.008818	-0.307617	-0.276855	0.671387	170.711761	-78.695336	22.455892
05732		9.343141	0.211559	-1.816578	0.000703	-0.020153	-0.009977	-0.298828	-0.270508	0.679199	170.718843	-78.686053	22.452449
05733		9.353216	0.234816	-1.818800	-0.005857	-0.005192	-0.013875	-0.299072	-0.272217	0.675049	170.687916	-78.681193	22.484332
05734		9.385056	0.246935	-1.844868	-0.000678	-0.008276	-0.012667	-0.297607	-0.273193	0.675781	170.680844	-78.678235	22.495124
05735		9.407864	0.239548	-1.797065	0.000933	-0.012334	-0.010090	-0.303955	-0.278076	0.674072	170.667844	-78.669686	22.512692
05736		9.438572	0.306955	-1.801411	0.001536	-0.013280	-0.013929	-0.297119	-0.270508	0.677979	170.660830	-78.663791	22.523345
05737		9.460475	0.297775	-1.802372	0.004055	-0.006527	-0.011516	-0.298828	-0.270264	0.674316	170.642941	-78.658391	22.547725
05738		9.459802	0.297824	-1.827715	-0.000867	-0.013480	-0.010038	-0.297852	-0.271729	0.686279	170.645344	-78.652671	22.548887
05739		9.449146	0.276599	-1.828281	0.001840	-0.020695	-0.008723	-0.289551	-0.280762	0.678223	170.640659	-78.639521	22.558506
05740		9.426557	0.287920	-1.830502	-0.001829	-0.026919	-0.012401	-0.301025	-0.279297	0.674805	170.641999	-78.625916	22.558349
05741		9.437995	0.256619	-1.831251	0.001575	-0.010663	-0.011411	-0.305664	-0.276855	0.675293	170.624992	-78.618186	22.580383
05742		9.415664	0.268180	-1.832095	-0.000064	-0.007918	-0.015251	-0.295654	-0.279541	0.677246	170.610677	-78.615197	22.597090
05743		9.438106	0.259987	-1.808415	0.002274	-0.006362	-0.010205	-0.299072	-0.273926	0.680664	170.595499	-78.610009	22.617668
05744		9.427204	0.238168	-1.832206	0.001261	-0.003253	-0.016622	-0.298096	-0.268555	0.672363	170.575686	-78.609403	22.640884
05745		9.437497	0.261636	-1.833109	0.002686	0.006662	-0.012945	-0.295410	-0.269043	0.688232	170.547005	-78.611316	22.675477
05746		9.458658	0.308002	-1.810175	-0.000232	0.007363	-0.012890	-0.303955	-0.279297	0.673828	170.531570	-78.617017	22.696178
05747		9.460159	0.311911	-1.736448	0.003179	0.004450	-0.010368	-0.300293	-0.275146	0.684814	170.511413	-78.617919	22.722363
05748		9.459623	0.311904	-1.760989	0.000478	-0.007509	-0.010151	-0.294189	-0.272461	0.686035	170.511167	-78.615569	22.725577
05749		9.459444	0.312719	-1.761809	-0.005511	-0.009995	-0.006147	-0.302490	-0.276611	0.683350	170.504663	-78.608704	22.732757
05750		9.426819	0.301662	-1.761665	-0.008454	-0.010607	-0.007354	-0.294922	-0.265137	0.678955	170.508331	-78.604793	22.727791
05751		9.394612	0.291818	-1.737440	-0.018606	-0.017112	-0.009606	-0.300049	-0.277100	0.685547	170.487983	-78.593580	22.741440
05752		9.382617	0.267692	-1.810770	-0.017312	-0.009772	-0.000770	-0.301270	-0.276367	0.676758	170.504416	-78.590719	22.719173
05753		9.360371	0.278375	-1.811222	-0.017083	-0.001947	-0.000876	-0.300049	-0.272705	0.683105	170.502288	-78.588901	22.715125
05754		9.338668	0.290084	-1.786988	-0.021824	-0.003706	-0.002030	-0.292480	-0.270752	0.677734	170.509794	-78.589386	22.698310
05755		9.338624	0.290430	-1.787164	-0.022401	-0.001450	0.003073	-0.301270	-0.282959	0.682129	170.515442	-78.588221	22.683220
05756		9.338128	0.289798	-1.811533	-0.021128	0.000594	-0.000822	-0.299561	-0.271973	0.681152	170.524570	-78.591156	22.663935
05757		9.360735	0.280916	-1.787238	-0.026522	-0.002845	-0.000663	-0.298584	-0.277832	0.672607	170.518049	-78.588850	22.658852
05758		9.414790	0.281918	-1.812786	-0.013472	0.001650	0.000275	-0.299072	-0.285400	0.671631	170.534042	-78.592492	22.637768
05759		9.404497	0.260187	-1.811757	-0.020038	-0.002567	-0.002091	-0.289795	-0.279053	0.678223	170.527104	-78.590209	22.636899
05760		9.426577	0.250314	-1.812068	-0.017746	-0.003635	0.000430	-0.294189	-0.271973	0.674072	170.543504	-78.590766	22.609523
05761		9.382767	0.271951	-1.787653	-0.009409	0.000416	0.001480	-0.299805	-0.276855	0.681885	170.551264	-78.590504	22.599873
05762		9.424544	0.304228	-1.838217	-0.004512	0.006067	-0.001254	-0.297607	-0.272461	0.676514	170.565800	-78.596422	22.585824
05763		9.423065	0.358798	-1.839683	0.000702	0.004302	0.001214	-0.297607	-0.277344	0.676025	170.576804	-78.598330	22.578774
05764		9.425213	0.304805	-1.812956	0.005940	0.003848	0.004946	-0.291748	-0.275635	0.682373	170.615659	-78.603554	22.545732
05765		9.415633	0.282686	-1.786563	0.009216	0.017531	0.011111	-0.293213	-0.278076	0.670654	170.653207	-78.613863	22.516580
05766		9.448013	0.292212	-1.809940	0.010639	0.027443	0.014799	-0.295166	-0.277832	0.678955	170.711484	-78.633211	22.465011
05767		9.435946	0.321176	-1.856192	0.005301	0.047107	0.017229	-0.298828	-0.278076	0.679932	170.750612	-78.660799	22.431965
05768		9.469312	0.330936	-1.852823	0.000488	0.046693	0.025007	-0.301270	-0.275146	0.680420	170.823478	-78.692028	22.359943
05769		9.426409	0.350147	-1.824155	-0.000224	0.042385	0.023788	-0.296143	-0.273926	0.683838	170.880631	-78.717529	22.305294
05770		9.418305	0.328668	-1.745797	-0.006568	0.045989	0.021308	-0.300781	-0.276855	0.675049	170.939760	-78.747997	22.244804
05771		9.418873	0.325829	-1.765181	-0.006784	0.059940	0.022404	-0.300781	-0.274658	0.675293	170.981798	-78.783286	22.201746
05772		9.364731	0.320451	-1.806738	-0.009438	0.072371	0.026120	-0.294922	-0.272705	0.677979	171.041702	-78.829080	22.137821
05773		9.342333	0.323614	-1.920526	0.001871	0.102690	0.033147	-0.296875	-0.274658	0.678711	171.100985	-78.889505	22.082254
05774		9.398018	0.318943	-1.984365	0.013316	0.116414	0.036537	-0.301514	-0.280273	0.677002	171.185103	-78.960981	22.007241
05775		9.368475	0.303509	-1.947575	0.047548	0.130678	0.048427	-0.299561	-0.267822	0.673096	171.304165	-79.038556	21.917463
05776		9.417372	0.282454	-1.787945	0.063191	0.150916	0.052881	-0.303711	-0.275391	0.678711	171.452060	-79.130934	21.806408
05777		9.443720	0.269254	-1.674232	0.046276	0.191497	0.065235	-0.302490	-0.275146	0.673340	171.596927	-79.244309	21.689674
05778		9.437212	0.241956	-1.606019	0.022109	0.201840	0.073006	-0.309814	-0.269531	0.674316	171.764113	-79.367110	21.534346
05779		9.384398	0.286874	-1.614317	-0.004197	0.175067	0.081413	-0.302246	-0.270264	0.672119	171.942386	-79.472353	21.354299
05780		9.324873	0.148431	-1.545186	-0.042505	0.142104	0.096511	-0.313965	-0.266602	0.672852	172.177447	-79.562902	21.094082
05781		9.241879	0.013133	-1.649283	-0.083810	0.134158	0.115013	-0.314453	-0.270264	0.670166	172.438984	-79.647228	20.783113
05782		9.191084	-0.117684	-1.948781	-0.128789	0.158132	0.118876	-0.313721	-0.265869	0.664063	172.697049	-79.748217	20.450677
05783		9.192705	-0.081836	-2.229121	-0.076954	0.157440	0.105339	-0.312256	-0.271973	0.669678	172.932688	-79.844584	20.170202
05784		9.163399	-0.099832	-2.190553	-0.013781	0.143193	0.076708	-0.315674	-0.278564	0.666016	173.138928	-79.933497	19.956641
05785		9.166957	-0.153505	-1.980605	0.019554	0.136973	0.052161	-0.306396	-0.274414	0.671875	173.275294	-80.014274	19.833286
05786		9.138626	-0.274516	-1.865806	0.002710	0.147597	0.027831	-0.315430	-0.269287	0.674805	173.336806	-80.102108	19.772852
05787		9.164512	-0.342955	-1.898457	-0.032753	0.154338	0.013924	-0.318359	-0.276367	0.669434	173.314399	-80.190176	19.780294
05788		9.299805	-0.358255	-2.053344	-0.024206	0.169859	0.010920	-0.316406	-0.274170	0.672607	173.297161	-80.289593	19.786492
05789		9.422336	-0.281960	-2.063505	0.007322	0.174540	0.018154	-0.311523	-0.271240	0.665527	173.303547	-80.389438	19.788013
05790		9.577073	-0.245691	-1.949855	0.033822	0.159415	0.022023	-0.322510	-0.275391	0.668457	173.361325	-80.483472	19.750991
05791		9.665770	-0.232630	-1.838451	0.018098	0.116398	0.022945	-0.322266	-0.264404	0.664063	173.414054	-80.550542	19.711785
05792		9.688768	-0.243382	-1.780411	-0.019914	0.061768	0.016628	-0.313721	-0.275146	0.661865	173.462858	-80.588715	19.654340
05793		9.723038	-0.235068	-1.849316	-0.054469	0.028400	0.008573	-0.316650	-0.272217	0.660645	173.460135	-80.604749	19.629208
05794		9.744547	-0.190566	-1.848872	-0.074779	0.009189	0.005233	-0.320313	-0.259033	0.665039	173.459345	-80.612019	19.586951
05795		9.721727	-0.176541	-1.775850	-0.097945	0.003580	0.006699	-0.313721	-0.276123	0.668213	173.435097	-80.613803	19.558390
05796		9.622822	-0.154357	-1.753598	-0.111217	-0.004706	0.009434	-0.315430	-0.276367	0.666504	173.433372	-80.613452	19.499765
05797		9.590196	-0.165144	-1.753919	-0.103709	0.002709	0.016870	-0.317871	-0.273926	0.665039	173.441197	-80.615407	19.435348
05798		9.545937	-0.089446	-1.780111	-0.109538	0.023080	0.007538	-0.327393	-0.277100	0.668701	173.423206	-80.630703	19.391321
05799		9.548016	-0.143992	-1.823942	-0.115462	0.049886	0.004457	-0.320801	-0.274414	0.666748	173.362733	-80.658699	19.389303
05800		9.505865	-0.175354	-1.818322	-0.118577	0.064372	-0.002228	-0.323486	-0.269775	0.669678	173.289310	-80.696969	19.397813
05801		9.485082	-0.215351	-1.763057	-0.134622	0.058048	-0.005976	-0.323730	-0.273193	0.662598	173.177730	-80.728905	19.436458
05802		9.463371	-0.253770	-1.659966	-0.155642	0.047393	-0.005848	-0.324707	-0.273682	0.662354	173.076620	-80.757184	19.453783
05803		9.452713	-0.217696	-1.657233	-0.184857	0.039190	-0.008355	-0.320557	-0.273926	0.667480	172.935017	-80.778205	19.493677
05804		9.420716	-0.225390	-1.654614	-0.182917	0.030256	-0.005771	-0.328369	-0.271973	0.666260	172.825352	-80.796664	19.503392
05805		9.333199	-0.126100	-1.704506	-0.175584	0.026001	-0.001976	-0.325684	-0.273193	0.662598	172.716643	-80.810621	19.515343
05806		9.300271	-0.079889	-1.703515	-0.166241	0.028066	-0.000806	-0.323242	-0.279297	0.657471	172.634716	-80.828238	19.508752
05807		9.224205	-0.013544	-1.752065	-0.166421	0.030536	0.001619	-0.326660	-0.288330	0.657227	172.541525	-80.845031	19.510302
05808		9.201823	0.000853	-1.701531	-0.177307	0.018532	-0.003455	-0.316406	-0.277832	0.650391	172.448284	-80.856922	19.503645
05809		9.191498	-0.017966	-1.699970	-0.186076	0.013084	0.001568	-0.318604	-0.287842	0.656982	172.351523	-80.863800	19.497404
05810		9.213307	-0.025147	-1.673830	-0.199920	0.014579	0.001367	-0.322266	-0.284668	0.650391	172.263704	-80.873598	19.472074
05811		9.247463	-0.065592	-1.695409	-0.208505	0.027103	0.008704	-0.315674	-0.290039	0.666016	172.172434	-80.888991	19.447257
05812		9.281769	-0.106174	-1.716343	-0.218824	0.032100	0.009720	-0.325684	-0.284912	0.659668	172.094838	-80.909396	19.400713
05813		9.315744	-0.146601	-1.712481	-0.208181	0.038785	0.009593	-0.324463	-0.288818	0.661865	172.000935	-80.931500	19.378752
05814		9.359882	-0.165143	-1.684115	-0.193485	0.033992	0.008340	-0.318359	-0.300293	0.657227	171.932064	-80.952972	19.340747
05815		9.425193	-0.194993	-1.605782	-0.169034	0.054495	0.015952	-0.322021	-0.287598	0.646729	171.875081	-80.984508	19.304117
05816		9.447454	-0.149827	-1.599322	-0.137402	0.079423	0.010921	-0.318604	-0.291992	0.651855	171.824366	-81.031800	19.276463
05817		9.438359	-0.115441	-1.640801	-0.120746	0.083434	-0.003016	-0.324707	-0.288574	0.657227	171.711510	-81.078204	19.324411
05818		9.417275	-0.102258	-1.608851	-0.102944	0.088183	-0.014371	-0.317627	-0.294922	0.647949	171.583459	-81.128356	19.397897
05819		9.406280	-0.066490	-1.551775	-0.060998	0.091514	-0.029226	-0.320068	-0.291504	0.662598	171.403060	-81.177081	19.548833
05820		9.371899	0.034858	-1.470024	0.002028	0.097901	-0.043793	-0.316406	-0.295166	0.657715	171.219231	-81.230020	19.738519
05821		9.371419	0.093359	-1.411168	0.034825	0.112107	-0.049854	-0.322754	-0.297363	0.651123	171.001968	-81.288420	19.982257
05822		9.253167	0.128486	-1.426909	0.046528	0.136029	-0.051170	-0.322266	-0.288574	0.649414	170.788412	-81.362037	20.226551
05823		9.169129	0.174432	-1.488863	0.067270	0.156794	-0.040897	-0.324219	-0.295898	0.653809	170.588874	-81.446259	20.471070
05824		9.171081	0.286342	-1.522397	0.113087	0.175401	-0.045581	-0.326660	-0.296631	0.648926	170.401193	-81.542429	20.729241
05825		9.204814	0.354207	-1.479331	0.157972	0.217752	-0.039066	-0.330811	-0.287354	0.651611	170.211221	-81.661009	21.016496
05826		9.330413	0.324624	-1.502513	0.162083	0.265018	-0.035908	-0.328857	-0.285400	0.649170	170.016433	-81.808511	21.310041
05827		9.612159	0.111724	-1.489750	0.155679	0.321033	-0.028082	-0.330078	-0.294189	0.645752	169.779316	-81.986152	21.643374
05828		10.046022	-0.120662	-1.414504	0.187973	0.372085	-0.023560	-0.333984	-0.291504	0.647461	169.548337	-82.194866	21.987702
05829		10.285167	-0.235376	-1.169351	0.244242	0.397269	-0.031154	-0.334473	-0.284912	0.658936	169.260708	-82.414708	22.422880
05830		10.245730	-0.213123	-1.130773	0.267310	0.384706	-0.050301	-0.343018	-0.287109	0.649658	168.914261	-82.627150	22.929527
05831		9.988507	0.023630	-1.207069	0.294501	0.332626	-0.067200	-0.341553	-0.288574	0.643799	168.508243	-82.805908	23.512677
05832		9.602844	0.376227	-1.399320	0.323177	0.253600	-0.073014	-0.331055	-0.286133	0.646484	168.166012	-82.941365	24.045869
05833		9.287190	0.827080	-1.526359	0.379341	0.212876	-0.058541	-0.341553	-0.273926	0.648193	167.923503	-83.053154	24.512898
05834		8.966999	1.221772	-1.561542	0.427774	0.218507	-0.040413	-0.338623	-0.268799	0.655273	167.798595	-83.172096	24.887571
05835		8.778591	1.497164	-1.567268	0.457754	0.194643	-0.021896	-0.340332	-0.273193	0.642578	167.772367	-83.277857	25.181818
05836		8.858355	1.588673	-1.606713	0.474531	0.141328	0.013979	-0.344482	-0.267090	0.645264	168.001265	-83.360083	25.228608
05837		9.196821	1.472474	-1.704825	0.492196	0.018154	0.043616	-0.347168	-0.265625	0.650879	168.488943	-83.374766	25.025267
05838		9.587085	1.275108	-1.891284	0.310462	0.150423	0.061236	-0.350586	-0.258301	0.644043	168.853049	-83.467535	24.841126
05839		9.881957	1.019150	-1.867137	0.133644	0.309742	0.068869	-0.346436	-0.265381	0.646729	168.984196	-83.648674	24.789919
05840		10.128907	0.815245	-1.935596	0.066682	0.296933	0.042185	-0.349609	-0.259033	0.646240	168.977766	-83.821564	24.837915
05841		10.212073	0.665479	-2.046482	0.037906	0.187373	-0.002368	-0.342041	-0.267578	0.647949	168.808639	-83.926044	25.033569
05842		10.115390	0.714422	-2.188482	-0.023751	0.092022	-0.063425	-0.350098	-0.259033	0.646973	168.396477	-83.971603	25.436045
05843		9.905103	0.662672	-2.266467	-0.107314	0.063284	-0.124154	-0.358154	-0.265869	0.647949	167.618041	-83.991703	26.160679
05844		9.672913	0.708981	-2.227750	-0.167421	0.083771	-0.158572	-0.344482	-0.270996	0.648926	166.612450	-84.019399	27.078506
05845		9.488905	0.654219	-2.055587	-0.160457	0.132693	-0.164597	-0.354736	-0.268066	0.645752	165.482219	-84.069898	28.126147
05846		9.436775	0.590251	-1.868100	-0.119759	0.206413	-0.152934	-0.352783	-0.267334	0.645020	164.329273	-84.162331	29.217798
05847		9.456338	0.544046	-1.741938	-0.066348	0.302961	-0.127847	-0.352295	-0.272461	0.645264	163.128389	-84.307946	30.390287
05848		9.453447	0.586411	-1.762580	-0.002102	0.330695	-0.108387	-0.357422	-0.269043	0.642822	161.982243	-84.471220	31.543102
05849		9.346059	0.647577	-1.719859	0.076753	0.304645	-0.097480	-0.352783	-0.272949	0.632568	160.906397	-84.618475	32.671725
05850		9.304630	0.730098	-1.700791	0.098403	0.263422	-0.096463	-0.356934	-0.276855	0.636963	159.897180	-84.743283	33.743952
05851		9.208175	0.810187	-1.690041	0.134925	0.244501	-0.095917	-0.355469	-0.270508	0.641113	158.884700	-84.854658	34.841949
05852		9.088023	0.792427	-1.630612	0.171545	0.238578	-0.093400	-0.354736	-0.264160	0.643799	157.897501	-84.963167	35.933025
05853		9.043994	0.765572	-1.564686	0.193843	0.233866	-0.088857	-0.353027	-0.261719	0.645996	156.897061	-85.066941	37.052453
05854		8.938982	0.792430	-1.458425	0.192269	0.235016	-0.072602	-0.360107	-0.265625	0.631836	155.969019	-85.174778	38.097678
05855		8.892660	0.818337	-1.396579	0.174326	0.216236	-0.064798	-0.367188	-0.270996	0.642090	155.068690	-85.271826	39.105077
05856		8.866868	0.940690	-1.364502	0.151590	0.176394	-0.034060	-0.354980	-0.264648	0.638672	154.453699	-85.356135	39.811439
05857		8.896630	1.008226	-1.328238	0.135233	0.126526	-0.003674	-0.361328	-0.267822	0.633545	154.137044	-85.420243	40.210559
05858		8.899791	1.112125	-1.374117	0.107338	0.091117	0.026837	-0.364014	-0.259766	0.636230	154.125920	-85.474978	40.285335
05859		8.910578	1.237193	-1.398352	0.069343	0.065817	0.055152	-0.363281	-0.266846	0.637451	154.338447	-85.522378	40.115706
05860		8.906381	1.313222	-1.473109	0.034908	0.036512	0.085147	-0.369629	-0.259033	0.632324	154.848429	-85.563212	39.626916
05861		9.000681	1.369267	-1.537982	-0.005716	0.019362	0.105193	-0.368652	-0.263184	0.633301	155.512525	-85.598262	38.961256
05862		9.045468	1.366235	-1.628693	-0.044001	0.048740	0.126348	-0.363770	-0.261230	0.637695	156.241710	-85.654230	38.207744
05863		9.148320	1.255681	-1.704133	-0.088177	0.084712	0.127586	-0.367676	-0.263184	0.636230	156.844860	-85.727506	37.555920
05864		9.225711	1.104283	-1.727538	-0.111933	0.117487	0.114343	-0.366943	-0.259766	0.639160	157.282454	-85.815656	37.055580
05865		9.299255	0.902171	-1.696670	-0.123957	0.147532	0.101682	-0.369141	-0.254883	0.638916	157.526957	-85.915715	36.742931
05866		9.423047	0.758407	-1.634972	-0.130864	0.193763	0.090780	-0.363037	-0.260986	0.631104	157.574918	-86.038657	36.623064
05867		9.519168	0.547233	-1.591545	-0.142219	0.279078	0.095204	-0.373291	-0.262451	0.638916	157.354460	-86.206885	36.766054
05868		9.643089	0.485203	-1.616740	-0.164462	0.379686	0.106983	-0.380127	-0.267090	0.631348	156.868149	-86.431508	37.161794
05869		9.741295	0.542335	-1.618168	-0.159483	0.424766	0.121784	-0.366943	-0.266113	0.621826	156.256140	-86.682208	37.687064
05870		9.754047	0.613500	-1.729251	-0.152117	0.367026	0.126302	-0.372803	-0.263916	0.628662	155.878105	-86.904102	37.980912
05871		9.765392	0.738098	-1.851727	-0.102446	0.238168	0.141390	-0.379883	-0.255859	0.625000	156.199682	-87.061365	37.603806
05872		9.720874	0.855763	-1.822478	-0.037314	0.085821	0.156488	-0.376465	-0.261475	0.619141	157.481471	-87.141985	36.302075
05873		9.637922	0.932342	-1.684548	-0.031721	0.011006	0.171511	-0.383057	-0.260986	0.636230	159.288345	-87.183663	34.478481
05874		9.557820	0.927510	-1.643133	-0.093788	0.047132	0.188927	-0.376465	-0.253418	0.625244	161.199278	-87.245539	32.514463
05875		9.607451	0.943698	-1.651700	-0.192099	0.161091	0.200809	-0.381592	-0.261963	0.631836	162.839278	-87.368396	30.766160
05876		9.643373	1.024064	-1.702271	-0.268667	0.269998	0.198546	-0.383057	-0.264404	0.616211	164.217092	-87.548590	29.235955
05877		9.663799	1.007127	-1.766224	-0.322876	0.346413	0.186383	-0.386475	-0.263672	0.625732	165.308447	-87.767651	27.962235
05878		9.646539	1.062617	-1.708507	-0.345455	0.385211	0.152563	-0.382568	-0.264648	0.621338	165.994043	-88.002503	27.080978
05879		9.618782	1.123198	-1.575467	-0.331783	0.399591	0.121080	-0.393555	-0.261475	0.618164	166.220318	-88.240863	26.668074
05880		9.597305	1.075885	-1.488094	-0.348304	0.377244	0.087343	-0.400879	-0.264160	0.603027	165.993748	-88.461880	26.698082
05881		9.567892	0.931026	-1.500555	-0.393704	0.357857	0.061613	-0.394775	-0.262939	0.612549	165.143180	-88.668710	27.326960
05882		9.513745	0.971978	-1.645617	-0.410656	0.358279	0.050571	-0.396484	-0.267090	0.604736	163.759356	-88.873409	28.478780
05883		9.436320	1.198826	-1.923249	-0.423536	0.300911	0.053246	-0.393311	-0.273438	0.607910	162.432100	-89.046760	29.567236
05884		9.521852	1.277102	-1.982352	-0.400191	0.178131	0.055999	-0.397705	-0.272217	0.603516	162.336871	-89.152765	29.436102
05885		9.983258	0.821853	-1.434010	-0.275300	0.260080	0.072320	-0.406006	-0.274170	0.602783	161.790791	-89.306833	29.828172
05886		10.661140	0.108344	-0.778267	-0.173203	0.592682	0.091276	-0.405762	-0.266113	0.600098	152.992065	-89.640470	38.530971
05887		11.213565	-0.435378	-0.486685	-0.057239	0.716796	0.072538	-0.402344	-0.278809	0.596191	53.417965	-89.849604	138.076431
05888		11.455188	-0.485911	-0.954716	0.068478	0.337929	0.009742	-0.417480	-0.280518	0.592529	21.964499	-89.696642	169.572284
05889		11.319963	-0.148604	-2.128802	0.132611	-0.019538	-0.078678	-0.415283	-0.279785	0.605713	30.404102	-89.687941	161.212231
05890		11.005838	0.071618	-2.534896	0.481024	0.015442	-0.108701	-0.417236	-0.268066	0.600098	38.601798	-89.647936	153.292859
05891		11.022500	-0.157807	-1.872844	1.097682	0.189728	-0.077757	-0.412598	-0.261719	0.603760	35.051302	-89.535390	157.476074
05892		10.778500	-0.241855	-0.611438	1.290287	0.487625	0.012029	-0.412354	-0.251953	0.599121	22.031072	-89.294295	171.239139
05893		10.021165	-0.298100	-1.389368	1.361305	0.634456	0.079606	-0.419678	-0.247559	0.604492	12.760381	-88.960834	-178.705390
05894		9.661198	-0.211733	-2.541757	1.890271	0.224588	0.136949	-0.411865	-0.238281	0.603271	8.483711	-88.851225	-173.341921
05895		10.003059	0.404272	-0.317074	2.224028	-0.547201	0.216391	-0.413086	-0.225098	0.611084	4.627567	-89.178096	-168.207072
05896		10.758972	0.939042	3.343624	1.785080	-0.732377	0.278313	-0.414307	-0.206787	0.622070	-11.964599	-89.593741	-150.588592
05897		11.231093	1.262207	2.723444	0.836751	-0.324387	0.261010	-0.411133	-0.197754	0.621094	-47.590047	-89.685520	-114.479373
05898		10.604489	1.247931	-0.240187	0.345765	-0.002500	0.173270	-0.412842	-0.201660	0.617676	-57.776187	-89.606726	-104.092006
05899		9.547918	1.029966	-1.143973	0.464786	-0.136560	0.042638	-0.414063	-0.197998	0.623047	-69.685911	-89.618984	-91.912013
05900		9.228726	0.427499	0.524195	0.516153	-0.307948	-0.069574	-0.406494	-0.187500	0.632813	-97.921463	-89.677873	-63.377331
05901		9.306835	0.220586	1.467469	0.121654	-0.175392	-0.122770	-0.408447	-0.195068	0.624756	-120.187998	-89.710974	-41.037094
05902		9.075550	0.619873	0.786506	-0.188337	-0.140663	-0.094376	-0.403320	-0.193604	0.633057	-139.173972	-89.698337	-22.155810
05903		8.953820	0.860226	0.368757	-0.202889	-0.251779	-0.028656	-0.401855	-0.204346	0.626709	-154.132409	-89.584677	-7.309650
05904		8.864087	0.830689	0.557467	-0.163684	-0.317717	0.051906	-0.400391	-0.205078	0.631348	-159.201526	-89.403182	-2.331141
05905		8.731895	0.633700	0.958329	-0.189325	-0.257779	0.112485	-0.394531	-0.195068	0.632080	-158.657425	-89.241071	-2.980072
05906		8.646290	0.253004	0.898350	-0.213229	-0.128575	0.145145	-0.399170	-0.204346	0.627686	-155.340734	-89.138435	-6.416207
05907		8.746535	-0.255953	0.718985	-0.181371	-0.024164	0.150114	-0.408936	-0.195801	0.626465	-150.860609	-89.085959	-10.997108
05908		9.000575	-0.773966	0.945933	-0.166570	0.048734	0.138816	-0.395020	-0.193359	0.631836	-145.813854	-89.065673	-16.136858
05909		9.326594	-1.167196	1.126009	-0.194449	0.131225	0.118222	-0.407715	-0.203613	0.630371	-139.745598	-89.083350	-22.313639
05910		9.551142	-1.375911	1.173119	-0.209561	0.165388	0.084323	-0.402588	-0.190186	0.618652	-133.470475	-89.116747	-28.706524
05911		9.816321	-1.470493	1.041734	-0.170782	0.164942	0.047833	-0.402588	-0.198242	0.621582	-127.613604	-89.156117	-34.658230
05912		9.962186	-1.385535	1.094711	-0.095353	0.142728	0.025787	-0.407471	-0.209229	0.624268	-122.451729	-89.188669	-39.872219
05913		9.971315	-1.146295	1.103629	-0.008131	0.058141	0.007355	-0.402588	-0.204102	0.628174	-120.284875	-89.201140	-42.040256
05914		9.974829	-0.981192	1.210446	0.113755	-0.065118	0.011416	-0.402344	-0.200195	0.626221	-122.239170	-89.173852	-40.017603
05915		9.867117	-0.678384	1.250832	0.128037	-0.085795	0.033370	-0.407227	-0.202637	0.621338	-124.240292	-89.129630	-37.939204
05916		9.754554	-0.495141	0.925577	0.171713	-0.148581	0.063789	-0.404785	-0.198486	0.632080	-127.137158	-89.047937	-34.940561
05917		9.706202	-0.399083	0.740552	0.211017	-0.184163	0.099823	-0.404541	-0.186768	0.624512	-129.693178	-88.936245	-32.259534
05918		9.687341	-0.353652	0.438219	0.214354	-0.212923	0.132055	-0.401611	-0.191406	0.633057	-131.725778	-88.797037	-30.100633
05919		9.763630	-0.543106	0.429552	0.259560	-0.169527	0.159465	-0.399414	-0.185547	0.635254	-132.079133	-88.662878	-29.594747
05920		9.785462	-0.765350	0.345807	0.235044	-0.135924	0.173446	-0.396729	-0.188477	0.632813	-131.582846	-88.534661	-29.953424
05921		9.852778	-1.044707	0.180073	0.207769	-0.120150	0.179180	-0.400146	-0.184326	0.635010	-130.863014	-88.410791	-30.550736
05922		9.933765	-1.306761	-0.007678	0.160865	-0.087819	0.178566	-0.398682	-0.186768	0.642578	-129.780096	-88.297974	-31.538894
05923		9.911137	-1.424602	-0.029630	0.142451	-0.094790	0.170835	-0.396729	-0.181641	0.633301	-129.037140	-88.186581	-32.196851
05924		9.849615	-1.491577	-0.015834	0.115404	-0.117537	0.159526	-0.397949	-0.175781	0.644287	-128.797332	-88.070839	-32.367681
05925		9.733609	-1.445060	-0.000521	0.071941	-0.088646	0.143149	-0.402832	-0.178711	0.641113	-128.420059	-87.973769	-32.700243
05926		9.629370	-1.375732	0.014880	0.057807	-0.086026	0.140986	-0.397217	-0.177734	0.633057	-128.055521	-87.877421	-33.028941
05927		9.405827	-1.214269	0.024210	0.030545	-0.093799	0.128154	-0.398926	-0.173096	0.645020	-127.959311	-87.785187	-33.104014
05928		9.266320	-1.047095	-0.079232	0.000751	-0.088872	0.129035	-0.396484	-0.167480	0.637451	-127.807085	-87.693126	-33.253053
05929		9.184627	-0.883751	-0.197617	-0.025671	-0.075237	0.132869	-0.388428	-0.167236	0.639160	-127.517157	-87.605237	-33.554253
05930		9.093393	-0.799366	-0.328946	-0.041883	-0.029934	0.138579	-0.398193	-0.173340	0.640381	-126.716609	-87.529084	-34.376676
05931		9.013159	-0.724525	-0.527701	-0.057973	0.020982	0.137358	-0.402344	-0.174072	0.639160	-125.463325	-87.471281	-35.660708
05932		8.868392	-0.749573	-0.667854	-0.046725	0.077355	0.128861	-0.397217	-0.173584	0.637451	-123.712436	-87.433116	-37.437319
05933		8.793253	-0.827977	-0.611935	-0.014327	0.111051	0.109707	-0.394531	-0.174561	0.640625	-121.775429	-87.413382	-39.380809
05934		8.711880	-0.947103	-0.374507	0.005673	0.129024	0.084315	-0.396729	-0.176514	0.631348	-119.810107	-87.407115	-41.342117
05935		8.757571	-1.139693	-0.254774	0.012942	0.160761	0.058202	-0.402832	-0.170166	0.639893	-117.660830	-87.420895	-43.482468
05936		8.887133	-1.246651	-0.305208	0.027593	0.185239	0.052084	-0.399170	-0.180176	0.642822	-115.224451	-87.438763	-45.902731
05937		8.980728	-1.279550	-0.395259	0.047203	0.166350	0.038418	-0.397461	-0.173584	0.635986	-113.047989	-87.456411	-48.050589
05938		9.090114	-1.293411	-0.512641	0.074349	0.119223	0.025777	-0.405762	-0.168213	0.632324	-111.450416	-87.465859	-49.604427
05939		9.164947	-1.339564	-0.559468	0.096859	0.079884	0.017186	-0.407227	-0.163818	0.634277	-110.353642	-87.471770	-50.643029
05940		9.242502	-1.299789	-0.544351	0.119906	0.076323	0.009571	-0.404541	-0.166748	0.637451	-109.309069	-87.478623	-51.617153
05941		9.233817	-1.219839	-0.673647	0.113207	0.071775	0.004739	-0.397949	-0.165771	0.635986	-108.345153	-87.488119	-52.513381
05942		9.247900	-1.208276	-0.815506	0.108209	0.061564	-0.003145	-0.412109	-0.162354	0.641846	-107.531528	-87.497812	-53.263148
05943		9.203182	-1.102670	-0.856064	0.104085	0.058241	-0.010531	-0.401611	-0.162598	0.638916	-106.788387	-87.512232	-53.943608
05944		9.110233	-1.024133	-0.876044	0.109114	0.054169	-0.027588	-0.404297	-0.156250	0.633057	-106.146094	-87.533243	-54.521381
05945		9.056408	-0.883613	-0.923819	0.130774	0.053852	-0.043213	-0.406250	-0.160400	0.640625	-105.543921	-87.564306	-55.045416
05946		8.968272	-0.726214	-1.030090	0.150830	0.045301	-0.066782	-0.401855	-0.154053	0.633301	-105.111207	-87.605082	-55.389530
05947		8.887870	-0.542398	-1.115081	0.172179	0.033610	-0.091216	-0.408203	-0.160889	0.639648	-104.899009	-87.659376	-55.499481
05948		8.822025	-0.418517	-1.166068	0.195966	-0.002483	-0.120212	-0.402100	-0.162598	0.641846	-105.275301	-87.722495	-55.008069
05949		8.740084	-0.310842	-1.195122	0.199639	-0.030484	-0.139577	-0.399902	-0.154785	0.638428	-106.153046	-87.793571	-54.011487
05950		8.693986	-0.274167	-1.183934	0.184782	-0.035725	-0.161162	-0.405518	-0.154785	0.637939	-107.278073	-87.873085	-52.777298
05951		8.678983	-0.344390	-1.300628	0.145941	-0.017415	-0.172586	-0.405273	-0.159180	0.635010	-108.296000	-87.963001	-51.671334
05952		8.703231	-0.464766	-1.450642	0.116320	0.018694	-0.177026	-0.406982	-0.153076	0.635742	-108.879454	-88.059482	-51.018437
05953		8.664956	-0.630996	-1.550870	0.105027	0.046101	-0.177206	-0.400879	-0.158203	0.640137	-109.072774	-88.162879	-50.761111
05954		8.742203	-0.786194	-1.406783	0.096911	0.051217	-0.178271	-0.401611	-0.156250	0.631104	-109.218032	-88.265871	-50.557874
05955		8.847219	-0.980153	-1.224721	0.108753	0.085802	-0.182411	-0.398926	-0.156250	0.641602	-108.740426	-88.379486	-50.969656
05956		9.077113	-1.068938	-0.983525	0.149348	0.138030	-0.185338	-0.402588	-0.153320	0.640625	-107.115069	-88.501698	-52.507725
05957		9.317132	-1.063757	-0.926237	0.168722	0.161987	-0.199452	-0.397705	-0.157227	0.642578	-104.716843	-88.635892	-54.806306
05958		9.578120	-1.030100	-1.119597	0.175462	0.137643	-0.212849	-0.408447	-0.151855	0.632813	-102.542060	-88.769830	-56.878862
05959		9.740518	-0.994571	-1.258017	0.183310	0.082498	-0.223375	-0.405273	-0.156250	0.641846	-101.498057	-88.903713	-57.814338
05960		9.793617	-0.925640	-1.350522	0.192815	0.028987	-0.228903	-0.414063	-0.150146	0.635742	-102.031668	-89.032275	-57.167974
05961		9.853340	-0.918328	-1.485861	0.192318	0.000433	-0.230454	-0.401123	-0.151123	0.640381	-103.809968	-89.159892	-55.275560
05962		10.027588	-0.884355	-1.580481	0.152283	0.032102	-0.219839	-0.394775	-0.148682	0.637939	-104.779356	-89.283148	-54.216715
05963		10.054912	-0.941979	-1.706654	0.064871	0.092143	-0.217307	-0.402344	-0.142090	0.635254	-102.895185	-89.415524	-56.060145
05964		10.168172	-0.952335	-1.745047	-0.007128	0.144403	-0.219606	-0.401855	-0.149658	0.641846	-96.352162	-89.550312	-62.605489
05965		10.386292	-0.891771	-1.620295	-0.020159	0.196249	-0.221077	-0.402832	-0.152344	0.630615	-79.107264	-89.672849	-79.858627
05966		10.668185	-0.829815	-1.098687	-0.089862	0.279038	-0.262449	-0.403076	-0.155518	0.638672	-38.439474	-89.720001	-120.576485
05967		11.172968	-0.436561	-0.205482	-0.251644	0.290282	-0.322370	-0.398193	-0.153809	0.639404	1.324626	-89.615280	-160.481680
05968		12.154221	0.268843	0.248407	-0.518795	0.141232	-0.405238	-0.399170	-0.154785	0.631104	26.943248	-89.479584	173.603583
05969		13.372485	1.087650	-0.163842	-0.849840	-0.159933	-0.459634	-0.400391	-0.167236	0.633545	52.864042	-89.379559	147.198302
05970		13.953655	1.611249	-1.011290	-0.977334	-0.571606	-0.441012	-0.391357	-0.173340	0.639404	86.083331	-89.256036	113.418763
05971		13.819676	1.857615	-1.262041	-0.742854	-0.770483	-0.312818	-0.391357	-0.181152	0.633057	112.686347	-89.001008	86.390863
05972		13.862393	2.180190	-0.423788	-0.356458	-0.597859	-0.127744	-0.391846	-0.185059	0.644287	126.174611	-88.768596	72.697879
05973		13.439524	2.101744	0.480126	-0.172063	-0.325971	0.074558	-0.389648	-0.177246	0.640869	133.804902	-88.681342	64.970787
05974		12.605621	1.500179	0.276922	-0.183722	-0.271094	0.181794	-0.388428	-0.177002	0.640869	141.616797	-88.636471	57.053649
05975		11.665609	0.478076	-0.097252	-0.183816	-0.465165	0.169328	-0.370361	-0.180420	0.642822	150.641812	-88.468598	47.924114
05976		10.656747	-0.839906	-0.090248	-0.172004	-0.676321	0.105572	-0.373779	-0.182373	0.652832	158.170028	-88.143553	40.296301
05977		9.896758	-1.858910	0.565399	-0.072980	-0.642072	0.029865	-0.374023	-0.182617	0.647461	162.149815	-87.802680	36.275894
05978		9.376344	-2.778637	1.539158	-0.163271	-0.346507	-0.044516	-0.365723	-0.179932	0.644287	163.015586	-87.604251	35.318019
05979		8.714522	-3.207012	1.087422	-0.500849	-0.190701	-0.130192	-0.362549	-0.179932	0.651855	161.871635	-87.477098	36.179486
05980		8.235591	-3.017076	-0.124318	-0.636835	-0.183445	-0.184298	-0.367676	-0.188965	0.646240	160.135852	-87.342265	37.553911
05981		7.776057	-2.413468	-1.198500	-0.473316	-0.275475	-0.208245	-0.366943	-0.190186	0.650391	158.723770	-87.152150	38.699813
05982		7.579130	-1.890607	-1.836496	-0.009152	-0.016543	-0.201670	-0.358887	-0.196045	0.647217	156.737920	-87.098760	40.684905
05983		7.527340	-1.310555	-0.978491	0.428758	0.079743	-0.182236	-0.362305	-0.187012	0.645996	154.763501	-87.097202	42.911528
05984		7.700386	-0.707000	-0.259925	0.683852	0.120975	-0.139715	-0.359131	-0.189453	0.648682	153.208642	-87.123816	44.862569
05985		8.077440	-0.044678	0.208157	0.779169	0.223351	-0.086613	-0.364746	-0.177734	0.647705	151.596002	-87.213992	46.927849
05986		8.465334	0.683771	0.470869	0.830852	0.303138	-0.022044	-0.359619	-0.175049	0.645508	150.141794	-87.359307	48.862131
05987		8.922496	1.492258	0.827943	0.887611	0.347133	0.046989	-0.372559	-0.171875	0.652832	148.938495	-87.544222	50.579380
05988		9.488589	2.135386	1.463212	0.914519	0.337050	0.100052	-0.368164	-0.161621	0.644775	148.305648	-87.738912	51.739115
05989		10.003536	2.619852	2.101728	0.839473	0.220652	0.132125	-0.369385	-0.153564	0.655762	148.787288	-87.886087	51.742149
05990		10.305671	2.829223	2.387236	0.698333	0.115176	0.145699	-0.369873	-0.148926	0.644287	150.359406	-87.985265	50.571473
05991		10.235675	2.819900	2.193975	0.476997	0.039494	0.117559	-0.375244	-0.141357	0.645752	152.059025	-88.037307	49.147985
05992		9.843189	2.752565	1.507725	0.246342	-0.048386	0.061084	-0.375732	-0.130615	0.657227	153.573265	-88.028535	47.776371
05993		9.536417	2.497289	1.264017	0.122104	-0.134314	-0.007989	-0.366943	-0.136719	0.654541	154.526097	-87.957038	46.896649
05994		9.418604	2.092357	1.200565	-0.066193	-0.149660	-0.081095	-0.370605	-0.133301	0.635742	154.436617	-87.859485	46.950710
05995		9.436453	1.664555	0.965824	-0.278818	-0.135679	-0.145731	-0.369873	-0.142578	0.650879	153.251432	-87.752605	47.980588
05996		9.490287	1.182415	0.572813	-0.450657	-0.130276	-0.189448	-0.371338	-0.139893	0.645264	151.536160	-87.636134	49.441441
05997		9.509678	0.801880	0.156782	-0.577100	-0.141362	-0.216480	-0.362793	-0.138428	0.644531	149.630317	-87.504430	51.021738
05998		9.502513	0.494732	-0.254865	-0.630744	-0.190736	-0.222160	-0.364258	-0.145752	0.642822	148.164286	-87.345246	52.130175
05999		9.521801	0.327334	-0.514000	-0.623257	-0.198193	-0.217467	-0.362793	-0.154297	0.646484	146.913134	-87.182400	53.028940
06000		9.461202	0.236604	-0.622948	-0.588373	-0.194025	-0.209449	-0.359863	-0.154297	0.650879	145.873175	-87.023626	53.735386
06001		9.370089	0.215163	-0.696500	-0.531921	-0.193814	-0.188531	-0.359131	-0.150635	0.639404	145.106798	-86.870814	54.201345
06002		9.246377	0.284122	-0.810099	-0.445841	-0.170252	-0.165096	-0.355713	-0.155762	0.644287	144.524813	-86.736863	54.531096
06003		9.063132	0.435441	-0.839107	-0.344855	-0.125982	-0.135203	-0.350098	-0.172607	0.638672	143.995471	-86.632947	54.867102
06004		8.914106	0.510078	-0.923419	-0.223562	-0.059793	-0.096167	-0.356445	-0.165283	0.642090	143.508618	-86.573027	55.229203
06005		8.877316	0.644976	-0.869124	-0.131263	0.028606	-0.059903	-0.351807	-0.164551	0.630127	142.836397	-86.565520	55.830983
06006		8.815921	0.788530	-0.787542	-0.071996	0.110202	-0.031535	-0.360840	-0.170410	0.647461	141.957733	-86.604823	56.672599
06007		8.796969	0.963829	-0.698348	-0.009905	0.169197	-0.002035	-0.360352	-0.170898	0.633301	140.932265	-86.679894	57.697841
06008		8.900420	1.087241	-0.507409	0.047562	0.223900	0.014793	-0.354736	-0.167725	0.635254	139.688290	-86.784378	58.973870
06009		8.925596	1.239890	-0.402666	0.066372	0.236347	0.016537	-0.357422	-0.179932	0.633545	138.273594	-86.892817	60.432502
06010		8.856448	1.375176	-0.408817	0.066170	0.231356	0.019443	-0.360596	-0.171631	0.631592	136.840200	-86.998585	61.908673
06011		8.812192	1.415981	-0.476037	0.038549	0.214597	0.018771	-0.357422	-0.167969	0.638428	135.388915	-87.094771	63.387697
06012		8.697073	1.437219	-0.503446	-0.010330	0.189465	0.020831	-0.355469	-0.175049	0.629639	134.061060	-87.180125	64.714108
06013		8.564170	1.359533	-0.523929	-0.075781	0.162377	0.032822	-0.358643	-0.161377	0.625000	132.924588	-87.257967	65.812142
06014		8.457032	1.268956	-0.564956	-0.164582	0.153702	0.044449	-0.364502	-0.162598	0.623779	131.870241	-87.336653	66.776132
06015		8.380654	1.132294	-0.720381	-0.236353	0.152901	0.062172	-0.359375	-0.165039	0.628906	130.843904	-87.421490	67.671674
06016		8.332365	1.034782	-0.925229	-0.303212	0.164091	0.077303	-0.365723	-0.164307	0.624023	129.752128	-87.516582	68.593527
06017		8.301171	0.984896	-1.106948	-0.360836	0.173847	0.095309	-0.367188	-0.166016	0.620605	128.571753	-87.622090	69.571727
06018		8.284958	0.930600	-1.236327	-0.381901	0.162085	0.113092	-0.372070	-0.169678	0.621826	127.596883	-87.730874	70.331329
06019		8.331525	0.930555	-1.288026	-0.380647	0.147446	0.125667	-0.374756	-0.170654	0.624023	126.800426	-87.839606	70.913815
06020		8.348564	0.944399	-1.297159	-0.368467	0.138168	0.134357	-0.364258	-0.173584	0.614014	126.169802	-87.949033	71.336535
06021		8.390389	1.029810	-1.136888	-0.329397	0.107363	0.141451	-0.366455	-0.174072	0.612305	125.962820	-88.051086	71.358489
06022		8.483074	1.037404	-0.865004	-0.255552	0.064283	0.150404	-0.365234	-0.170898	0.618652	126.529864	-88.142730	70.647566
06023		8.586154	0.954122	-0.711639	-0.235898	0.022973	0.178329	-0.365967	-0.169434	0.608643	128.063624	-88.232296	68.981502
06024		8.695189	0.753237	-0.848480	-0.233343	0.001124	0.214997	-0.370605	-0.178711	0.610840	130.595514	-88.328172	66.317675
06025		8.885418	0.697762	-1.185530	-0.215197	-0.009170	0.255183	-0.368164	-0.169189	0.609375	134.143939	-88.432895	62.648177
06026		9.133574	0.774431	-1.501749	-0.189322	-0.040820	0.275892	-0.383301	-0.171143	0.596924	139.058766	-88.524378	57.626065
06027		9.383836	0.931058	-1.504716	-0.150076	-0.072143	0.278021	-0.366699	-0.166260	0.601318	145.026038	-88.589828	51.574581
06028		9.635766	1.006534	-1.154790	-0.146542	-0.064830	0.263128	-0.375977	-0.172363	0.602051	151.140760	-88.637276	45.377035
06029		10.075278	0.910708	-0.907605	-0.196604	-0.026638	0.241264	-0.369629	-0.169434	0.598633	156.685079	-88.684120	39.722217
06030		10.588130	0.779060	-1.111836	-0.266984	0.038300	0.217172	-0.368652	-0.167725	0.599854	161.462726	-88.747826	34.793329
06031		10.976970	0.765858	-1.935779	-0.310914	0.048656	0.182719	-0.365723	-0.177490	0.596436	165.674742	-88.803720	30.405862
06032		11.050129	0.968553	-3.027870	-0.290041	-0.038680	0.159155	-0.370850	-0.171143	0.592041	170.081517	-88.799508	25.834863
06033		10.742450	1.411701	-3.588457	-0.166909	-0.163161	0.133139	-0.361328	-0.175537	0.590576	174.119259	-88.716672	21.704209
06034		10.337479	1.620290	-3.114908	0.003963	-0.188438	0.128249	-0.364258	-0.176758	0.593506	177.661881	-88.612045	18.165813
06035		10.291937	1.564278	-1.840275	0.139363	0.030143	0.131564	-0.371826	-0.177002	0.588867	-179.090709	-88.629460	15.001025
06036		10.544259	0.984904	-0.823725	0.196174	0.398474	0.132736	-0.383301	-0.174805	0.588623	-174.932624	-88.851166	10.957290
06037		11.309433	-0.033549	-1.365847	0.472942	0.626405	0.174736	-0.378662	-0.170654	0.579102	-165.223504	-89.187617	1.521501
06038		12.390288	-0.552860	-2.964309	1.193570	0.124104	0.263040	-0.376709	-0.168701	0.579346	-152.713607	-89.197251	-10.302787
06039		13.092985	-0.057343	-2.825440	1.772169	-0.994659	0.272472	-0.375488	-0.153320	0.593018	-156.955056	-88.613292	-5.041370
06040		13.550639	0.812583	0.889878	1.435981	-1.338234	0.220278	-0.362305	-0.137207	0.593018	-161.177857	-87.848418	0.009299
06041		13.051639	0.764268	4.654601	0.282454	-0.301035	0.164663	-0.366699	-0.141846	0.593018	-160.181306	-87.653333	-0.822369
06042		11.232118	-0.434037	2.558684	-0.100097	-0.076853	0.073791	-0.367188	-0.145752	0.590088	-159.636731	-87.594822	-1.421854
06043		10.496957	-1.342081	-0.681265	-0.041224	-0.296785	0.046469	-0.359131	-0.139404	0.597656	-160.402211	-87.424805	-0.675602
06044		10.541522	-1.295966	0.155850	-0.169541	-0.282229	0.077737	-0.364502	-0.144775	0.595459	-160.741511	-87.254954	-0.430214
06045		10.310837	-0.674316	3.074142	-0.539130	-0.120311	0.091818	-0.364014	-0.151855	0.593750	-160.483581	-87.171366	-0.994021
06046		9.902340	-0.018816	3.229798	-0.756925	0.038593	0.056700	-0.365723	-0.148438	0.590088	-160.133567	-87.178841	-1.775682
06047		9.809717	0.385472	1.186450	-0.656401	-0.089024	0.042649	-0.365723	-0.156738	0.586182	-160.376783	-87.121474	-1.905027
06048		9.932950	0.529912	0.332136	-0.614774	-0.224193	0.034868	-0.361816	-0.159912	0.585449	-161.171401	-86.991425	-1.458965
06049		10.014608	0.245761	0.626267	-0.635696	-0.142641	0.024348	-0.357178	-0.164551	0.592041	-161.758395	-86.908413	-1.232188
06050		10.207242	-0.182288	0.832994	-0.614623	0.035213	0.007504	-0.351074	-0.168701	0.587646	-161.904794	-86.924167	-1.435079
06051		10.447603	-0.554911	0.927111	-0.506188	0.132434	-0.020210	-0.349121	-0.173096	0.579834	-161.941852	-86.998810	-1.684707
06052		10.814442	-0.577837	0.987692	-0.360391	0.120058	-0.054650	-0.364990	-0.172852	0.577637	-162.301494	-87.071922	-1.528147
06053		11.085559	-0.658112	0.937899	-0.234510	0.039714	-0.072620	-0.368896	-0.174072	0.584717	-163.066070	-87.104956	-0.893427
06054		11.107800	-0.801497	0.852235	-0.191254	-0.027919	-0.059364	-0.355957	-0.188232	0.570068	-163.892574	-87.097444	-0.172351
06055		10.909667	-0.998047	0.930948	-0.152578	-0.097808	-0.022022	-0.361816	-0.183838	0.565186	-164.497598	-87.045904	0.349623
06056		10.882679	-1.095869	0.620586	0.044978	-0.212445	0.031788	-0.357422	-0.187744	0.574463	-164.732821	-86.921973	0.614230
06057		10.040697	-1.768220	0.627291	0.200665	-0.441936	0.098150	-0.351318	-0.181641	0.576172	-164.818993	-86.661833	0.819384
06058		9.628117	-1.979248	0.814436	0.026516	-0.065312	0.165700	-0.361328	-0.188232	0.578369	-163.408214	-86.598167	-0.575386
06059		9.242296	-2.243885	0.506659	0.073339	-0.124726	0.226284	-0.365479	-0.181641	0.570313	-161.658034	-86.489996	-2.282961
06060		8.822405	-2.308400	-0.168869	0.058265	-0.172234	0.273323	-0.359619	-0.180664	0.564697	-159.765711	-86.343413	-4.142356
06061		8.378532	-2.245403	-0.288458	0.062132	-0.123857	0.296146	-0.353027	-0.185059	0.570557	-157.681320	-86.214572	-6.191777
06062		8.138901	-2.143393	0.012388	0.104821	-0.091802	0.293701	-0.361084	-0.182373	0.573242	-155.613652	-86.097767	-8.200817
06063		8.118824	-1.987751	0.340583	0.070554	0.014970	0.274208	-0.361084	-0.176025	0.565918	-153.444560	-86.036770	-10.330810
06064		8.233740	-1.767792	0.389702	-0.002189	0.089087	0.247023	-0.354248	-0.180664	0.560303	-151.282169	-86.014455	-12.496636
06065		8.421451	-1.507333	0.128703	-0.064467	0.164083	0.231458	-0.359619	-0.176270	0.568604	-148.981923	-86.028738	-14.835766
06066		8.601642	-1.213422	-0.129576	-0.109176	0.239769	0.218852	-0.358643	-0.172363	0.567139	-146.427165	-86.075926	-17.456305
06067		8.597951	-0.900987	-0.380603	-0.088970	0.293499	0.202581	-0.363525	-0.188477	0.564453	-143.652269	-86.146016	-20.284999
06068		8.460279	-0.647853	-0.345099	-0.048051	0.285168	0.169151	-0.364258	-0.182373	0.560547	-141.019392	-86.214106	-22.948364
06069		8.383786	-0.396938	-0.353176	-0.011114	0.244190	0.135698	-0.364502	-0.183838	0.564697	-138.740590	-86.269739	-25.234760
06070		8.326833	-0.376045	-0.392192	0.007482	0.238872	0.102676	-0.367676	-0.185547	0.559082	-136.625106	-86.329238	-27.347409
06071		8.198065	-0.368008	-0.391434	0.003886	0.218626	0.063655	-0.371582	-0.182129	0.563721	-134.831432	-86.392200	-29.138779
06072		8.103938	-0.486766	-0.353068	-0.005278	0.206606	0.027573	-0.372559	-0.183838	0.546143	-133.284243	-86.461032	-30.689056
06073		8.113763	-0.687617	-0.367910	-0.023043	0.232572	-0.004341	-0.375977	-0.180176	0.554443	-131.710761	-86.551609	-32.274998
06074		8.286637	-0.808290	-0.264722	-0.003158	0.269315	-0.022894	-0.381104	-0.185303	0.550781	-129.876785	-86.660197	-34.111065
06075		8.510980	-0.983755	-0.145874	0.000295	0.303063	-0.035750	-0.377441	-0.189941	0.546875	-127.734547	-86.783711	-36.252948
06076		8.803976	-1.057052	-0.095505	0.007625	0.321262	-0.035905	-0.379883	-0.192627	0.545898	-125.258450	-86.907542	-38.725505
06077		9.099401	-1.076024	-0.194961	0.025483	0.316525	-0.023597	-0.377686	-0.186768	0.541260	-122.547135	-87.018669	-41.422316
06078		9.227277	-1.003199	-0.476525	0.044711	0.261775	-0.017046	-0.386963	-0.186768	0.544189	-120.119558	-87.102765	-43.824550
06079		9.216419	-0.827328	-0.769341	0.105977	0.160187	-0.010451	-0.388916	-0.187256	0.545898	-118.523305	-87.151668	-45.358321
06080		9.067921	-0.633587	-0.897419	0.139872	0.029728	-0.019021	-0.379639	-0.185791	0.541260	-118.242390	-87.167051	-45.556494
06081		8.892541	-0.619969	-0.976099	0.128520	-0.068953	-0.033872	-0.376221	-0.186279	0.545410	-119.058013	-87.163874	-44.662452
06082		8.768187	-0.660915	-1.048122	0.045600	-0.100410	-0.046891	-0.383057	-0.194092	0.536621	-120.304224	-87.156392	-43.385734
06083		8.730763	-0.803004	-1.272299	-0.046482	-0.072594	-0.054101	-0.378418	-0.189697	0.540039	-121.370597	-87.160413	-42.341021
06084		8.787806	-1.022898	-1.472279	-0.098177	-0.008348	-0.048463	-0.377441	-0.185303	0.538574	-121.799382	-87.179177	-41.965266
06085		8.789526	-1.183835	-1.507572	-0.098411	0.046123	-0.058207	-0.373779	-0.197754	0.542236	-121.755269	-87.220167	-42.062191
06086		8.725661	-1.280103	-1.455628	-0.056381	0.070582	-0.079548	-0.382813	-0.201660	0.536377	-121.566061	-87.277716	-42.281274
06087		8.610937	-1.207659	-1.399518	-0.023079	0.051344	-0.124094	-0.382324	-0.195313	0.532715	-121.842290	-87.352390	-42.014285
06088		8.543597	-0.962642	-1.549152	0.053122	0.024309	-0.175807	-0.379395	-0.192139	0.536133	-122.733920	-87.442420	-41.088669
06089		8.585230	-0.662944	-1.687971	0.161813	-0.010103	-0.231570	-0.376709	-0.199219	0.530518	-124.428553	-87.548486	-39.295923
06090		8.782034	-0.361720	-1.632594	0.276529	-0.056600	-0.279911	-0.378906	-0.199463	0.532959	-127.133835	-87.657020	-36.427167
06091		9.047578	-0.177009	-1.413588	0.314070	-0.117363	-0.308583	-0.372803	-0.196777	0.534912	-131.032821	-87.750639	-32.341268
06092		9.405338	-0.147363	-1.246985	0.246650	-0.157123	-0.312873	-0.376221	-0.198975	0.531494	-135.752736	-87.816447	-27.473904
06093		9.741329	-0.324909	-1.241078	0.158618	-0.141037	-0.287476	-0.375244	-0.202881	0.532227	-140.336044	-87.865239	-22.792707
06094		10.024552	-0.530757	-1.311666	0.098704	-0.073251	-0.242262	-0.367432	-0.198730	0.542480	-143.930992	-87.914704	-19.136259
06095		10.188615	-0.648977	-1.376906	0.055640	-0.000004	-0.207972	-0.377197	-0.204590	0.524170	-146.619225	-87.981360	-16.410711
06096		10.264187	-0.751388	-1.501796	-0.015462	0.031647	-0.177544	-0.364014	-0.207520	0.528809	-148.799354	-88.048424	-14.235715
06097		10.300772	-0.889898	-1.802723	-0.156641	0.021318	-0.178473	-0.363281	-0.208496	0.534912	-151.331824	-88.108846	-11.787930
06098		10.235841	-1.136243	-2.162828	-0.345389	-0.003383	-0.197253	-0.372314	-0.216309	0.535156	-154.605482	-88.155876	-8.708180
06099		10.157173	-1.339392	-2.359959	-0.446520	-0.018648	-0.228298	-0.368896	-0.220703	0.524414	-158.745040	-88.196736	-4.818804
06100		10.125859	-1.448299	-2.140414	-0.524152	-0.037668	-0.293932	-0.375732	-0.224121	0.522705	-164.330066	-88.227047	0.470712
06101		10.189439	-1.541314	-1.814356	-0.703081	-0.076239	-0.394710	-0.364258	-0.224365	0.529297	-172.153461	-88.229371	7.898499
06102		10.452499	-1.425934	-1.283393	-0.839810	-0.165179	-0.498384	-0.372070	-0.234863	0.527588	178.255218	-88.147587	17.015300
06103		11.284892	-0.705176	-1.081120	-0.870132	-0.286188	-0.606777	-0.367676	-0.245117	0.523193	168.232057	-87.942451	26.549108
06104		12.678639	0.154243	-1.467354	-0.901867	-0.290680	-0.648052	-0.369385	-0.255371	0.521729	159.661627	-87.677646	34.610718
06105		13.535061	0.711949	-1.731304	-0.886613	-0.169568	-0.570409	-0.364258	-0.266602	0.516357	153.053700	-87.456923	40.719824
06106		13.499281	1.059399	-1.438445	-0.614865	-0.170461	-0.384341	-0.362793	-0.263184	0.517578	149.598248	-87.264644	43.828343
06107		13.432744	1.640711	-0.279723	0.031041	-0.323914	-0.163931	-0.348877	-0.268799	0.514160	149.894830	-87.056808	43.552896
06108		13.608015	2.178644	1.245011	0.729826	-0.533948	0.016350	-0.355469	-0.262451	0.521240	153.238187	-86.791240	40.625621
06109		13.358097	1.927338	1.936231	0.940214	-0.613041	0.117988	-0.357666	-0.259521	0.520752	157.354742	-86.499927	37.045341
06110		12.297192	1.246008	1.442797	0.751165	-0.535426	0.147827	-0.347168	-0.251221	0.527588	160.807199	-86.242355	34.019525
06111		10.600427	0.176593	1.283646	0.734707	-0.683331	0.119665	-0.347412	-0.259766	0.532715	163.924300	-85.889433	31.320727
06112		9.287798	-0.929445	1.555243	0.844917	-0.975175	0.085346	-0.341797	-0.246094	0.540527	166.902983	-85.359597	28.821323
06113		8.523964	-1.457395	1.168841	0.708099	-0.735759	0.078099	-0.342773	-0.255615	0.538818	168.886055	-84.956171	27.242026
06114		7.942206	-1.579737	0.401726	0.393348	-0.185738	0.090016	-0.332031	-0.248779	0.541504	169.931787	-84.859752	26.420887
06115		7.591766	-1.674549	0.055490	0.302166	0.047496	0.096330	-0.343750	-0.241699	0.542236	170.676885	-84.895237	25.850326
06116		7.741668	-1.597969	-0.169832	0.266175	0.155731	0.084017	-0.339111	-0.248779	0.541992	171.241049	-84.989662	25.439486
06117		8.340510	-1.274582	-0.436949	0.191666	0.264953	0.051315	-0.346680	-0.249023	0.538330	171.439339	-85.143509	25.354386
06118		9.245561	-0.732309	-0.386121	0.146038	0.355730	0.024144	-0.351318	-0.251465	0.547852	171.356798	-85.345879	25.523538
06119		10.270891	-0.075032	-0.024192	0.164588	0.435563	0.043831	-0.351807	-0.238525	0.536865	171.307412	-85.595717	25.671375
06120		11.193303	0.528568	0.686563	0.239260	0.441736	0.108664	-0.349854	-0.247070	0.540283	171.811044	-85.854035	25.306158
06121		11.770815	1.069211	1.315974	0.329590	0.385872	0.185129	-0.347168	-0.244629	0.529297	173.099722	-86.086470	24.207295
06122		11.678500	1.570532	1.063021	0.234720	0.119859	0.217204	-0.352783	-0.241455	0.531982	174.998784	-86.166530	22.441119
06123		10.855466	1.981225	0.500354	0.214782	-0.193329	0.170335	-0.347656	-0.243896	0.540283	176.692394	-86.062372	20.870649
06124		9.839282	2.183372	0.305593	0.189486	-0.381217	0.069605	-0.346924	-0.240234	0.530518	177.556012	-85.845045	20.116301
06125		9.021575	2.231653	0.417841	0.129628	-0.378154	-0.041343	-0.351563	-0.235107	0.536865	177.456855	-85.626782	20.293909
06126		8.533095	2.043939	0.480237	0.053795	-0.205020	-0.107413	-0.345215	-0.245117	0.537109	176.802823	-85.505274	20.983564
06127		8.319241	1.830280	0.448211	-0.029763	0.045325	-0.155288	-0.339600	-0.241943	0.536377	175.649201	-85.524584	22.127324
06128		8.369043	1.558724	0.123899	-0.093970	0.227866	-0.165331	-0.348633	-0.249023	0.535156	174.255072	-85.645360	23.474482
06129		8.486445	1.257858	-0.178653	-0.099202	0.315909	-0.175566	-0.347412	-0.248047	0.537109	172.600846	-85.812981	25.080013
06130		8.776750	1.018935	-0.340177	-0.045720	0.328700	-0.183399	-0.349365	-0.257324	0.528320	170.776967	-85.983366	26.885276
06131		9.025649	0.756150	-0.307603	0.018203	0.274434	-0.199355	-0.350830	-0.252930	0.532471	168.775028	-86.117230	28.906130
06132		9.194435	0.477423	-0.337467	0.058907	0.191125	-0.217164	-0.354492	-0.251221	0.528809	166.685688	-86.197158	31.037018
06133		9.215257	0.298244	-0.350516	0.069352	0.138570	-0.234476	-0.357178	-0.249268	0.526855	164.478939	-86.240069	33.292099
06134		9.143328	0.234180	-0.636552	0.033317	0.103124	-0.244322	-0.355225	-0.251221	0.528809	162.229078	-86.256102	35.568958
06135		8.968230	0.321169	-1.025480	-0.001621	0.105293	-0.227796	-0.348633	-0.252197	0.529541	160.060482	-86.270566	37.744938
06136		8.712459	0.422454	-1.204951	0.032291	0.086643	-0.175106	-0.353516	-0.254639	0.529541	158.402406	-86.281055	39.428098
06137		8.379918	0.455128	-1.094229	0.101824	0.062472	-0.094942	-0.354004	-0.254395	0.537598	157.499346	-86.293429	40.395218
06138		8.216658	0.489110	-0.841078	0.115629	0.064359	-0.013603	-0.355957	-0.259277	0.530762	157.269754	-86.324137	40.694704
06139		8.183822	0.641344	-0.704893	0.080203	0.122275	0.054772	-0.350830	-0.252197	0.525391	157.369366	-86.400512	40.644632
06140		8.211160	0.757735	-0.675480	0.027932	0.215206	0.102603	-0.349365	-0.267822	0.525146	157.535561	-86.536569	40.497191
06141		8.381360	0.940545	-0.651323	0.000007	0.300354	0.118196	-0.357178	-0.256104	0.526611	157.505485	-86.721105	40.531017
06142		8.580682	1.108381	-0.665286	-0.006658	0.334590	0.102896	-0.355225	-0.260254	0.521484	157.191418	-86.920339	40.844808
06143		8.810786	1.237822	-0.642739	-0.025637	0.351166	0.079690	-0.361816	-0.261230	0.523926	156.490177	-87.122933	41.535980
06144		8.974492	1.263560	-0.666056	-0.042144	0.352606	0.056647	-0.359863	-0.252441	0.521484	155.424190	-87.320281	42.582144
06145		9.039108	1.334078	-0.782825	-0.045674	0.309930	0.037007	-0.363037	-0.257813	0.522705	154.184651	-87.489687	43.800450
06146		9.017002	1.285386	-0.880177	-0.063938	0.243756	0.031983	-0.368164	-0.263916	0.526611	153.128374	-87.622620	44.824163
06147		8.996345	1.313855	-1.089873	-0.098501	0.175386	0.045858	-0.364258	-0.267822	0.514160	152.553115	-87.723754	45.347105
06148		8.833487	1.273703	-1.295507	-0.139843	0.104108	0.061011	-0.371338	-0.253174	0.520508	152.614501	-87.792397	45.208663
06149		8.651593	1.269948	-1.463758	-0.159685	0.043101	0.079954	-0.375244	-0.260254	0.519775	153.334700	-87.834940	44.400071
06150		8.534936	1.238306	-1.474683	-0.132245	0.020110	0.099982	-0.374512	-0.263184	0.514893	154.547423	-87.869911	43.113869
06151		8.429697	1.178574	-1.185293	-0.070984	0.027896	0.122546	-0.369873	-0.264893	0.511475	156.096174	-87.913430	41.527062
06152		8.394026	1.057592	-0.830717	0.004427	0.034684	0.148444	-0.375000	-0.268799	0.510498	158.111905	-87.964098	39.515780
06153		8.380598	0.891843	-0.692168	0.034169	0.038361	0.177624	-0.367676	-0.261230	0.520996	160.666594	-88.020097	36.982802
06154		8.499964	0.736680	-0.783227	0.008803	0.017772	0.211609	-0.365967	-0.257568	0.515381	164.012372	-88.065666	33.643361
06155		8.631134	0.462684	-0.938451	-0.021305	-0.024471	0.251192	-0.377197	-0.261230	0.517822	168.298845	-88.085952	29.345949
06156		8.697657	0.349026	-1.222252	-0.060473	-0.089742	0.269368	-0.379883	-0.261719	0.510498	173.083271	-88.058956	24.527396
06157		8.832080	0.522643	-1.725480	-0.061891	-0.131270	0.258826	-0.374268	-0.265137	0.513672	177.552468	-87.995320	20.023760
06158		9.116563	0.819490	-1.997339	0.007896	-0.144116	0.213046	-0.368408	-0.261230	0.513184	-178.961006	-87.912749	16.542761
06159		9.501074	1.001177	-1.650034	0.025925	-0.130818	0.179214	-0.376221	-0.259521	0.514648	-176.238848	-87.832682	13.837283
06160		9.954351	0.749123	-1.026730	0.006078	-0.071597	0.166407	-0.376709	-0.264160	0.515381	-173.818889	-87.781875	11.422251
06161		10.467901	0.432900	-0.729166	-0.033084	0.006430	0.156220	-0.375244	-0.263672	0.516602	-171.511554	-87.773164	9.097900
06162		10.800180	0.292414	-1.481960	-0.135644	0.081167	0.137233	-0.384033	-0.261475	0.510498	-169.357665	-87.804206	6.867857
06163		10.637700	0.606955	-2.967071	-0.227929	0.006197	0.097787	-0.377197	-0.269531	0.512695	-168.015003	-87.795700	5.397205
06164		10.221005	1.114665	-4.122560	-0.086538	-0.198990	0.071316	-0.367432	-0.264404	0.511475	-167.643237	-87.673739	4.978711
06165		9.872420	1.530525	-3.565916	0.244653	-0.268518	0.073761	-0.372314	-0.259521	0.515137	-167.293058	-87.513372	4.772215
06166		10.050044	1.464560	-1.723551	0.540157	-0.011258	0.089125	-0.374756	-0.259033	0.520264	-165.865145	-87.493135	3.655852
06167		10.739556	0.905641	-0.043322	0.750484	0.508768	0.114186	-0.376465	-0.250488	0.520752	-161.951548	-87.754142	0.172956
06168		11.990609	-0.006391	0.139811	0.869286	0.930586	0.155615	-0.387451	-0.249023	0.516602	-153.341970	-88.212354	-7.940328
06169		12.898250	-0.382917	-1.945545	1.190414	0.608541	0.194717	-0.382568	-0.245117	0.512939	-143.072243	-88.449538	-17.528337
06170		12.877444	0.877516	-3.640328	1.843338	-0.552645	0.163616	-0.385986	-0.234863	0.520264	-145.660642	-88.135274	-13.879026
06171		13.368996	2.100560	-0.569149	1.984613	-1.517103	0.084861	-0.374756	-0.219238	0.526855	-154.464568	-87.353617	-3.926848
06172		13.864592	1.801926	6.417766	0.676952	-0.711532	0.032635	-0.374023	-0.219238	0.531982	-157.106031	-86.971746	-0.890643
06173		12.309831	0.712516	5.284503	-0.220549	0.239500	-0.003965	-0.362793	-0.217773	0.531982	-156.207869	-87.097498	-1.912851
06174		11.227659	-0.961579	-1.092005	-0.261392	-0.142152	-0.006509	-0.374268	-0.222168	0.530518	-157.050207	-87.022400	-1.215884
06175		11.007086	-1.349406	-2.530156	-0.170597	-0.284940	0.055677	-0.373047	-0.223145	0.534912	-157.755504	-86.858278	-0.603772
06176		10.538940	-0.447541	1.721975	-0.313855	-0.184330	0.111097	-0.375732	-0.228760	0.531738	-157.595776	-86.734494	-0.940468
06177		9.894932	0.112320	3.781880	-0.630055	0.088031	0.098519	-0.379395	-0.234131	0.535645	-156.682862	-86.757903	-2.212740
06178		9.450739	0.283209	1.310719	-0.637724	0.066689	0.043565	-0.383545	-0.232666	0.538330	-156.367868	-86.781316	-2.890697
06179		9.335771	0.094282	0.079323	-0.536381	-0.075380	0.003307	-0.379150	-0.236816	0.535645	-156.932722	-86.739768	-2.629062
06180		9.422423	-0.266783	0.959944	-0.597431	0.010210	-0.033908	-0.376465	-0.245605	0.530029	-157.544778	-86.751082	-2.355301
06181		9.604202	-0.658319	1.443681	-0.680531	0.226328	-0.069417	-0.379395	-0.244873	0.525635	-157.693354	-86.885000	-2.593320
06182		10.027348	-0.824064	0.996420	-0.674385	0.305820	-0.088233	-0.382324	-0.247314	0.519531	-157.699490	-87.064812	-2.970487
06183		10.562986	-0.700760	0.704467	-0.587176	0.235758	-0.079980	-0.381104	-0.250732	0.513184	-157.846505	-87.206055	-3.156443
06184		10.842600	-0.454915	0.754295	-0.441224	0.111716	-0.044680	-0.383789	-0.257080	0.515381	-158.084572	-87.273581	-3.167552
06185		10.791543	-0.380250	0.644238	-0.324088	0.007258	0.008582	-0.384521	-0.259521	0.522217	-158.125112	-87.274477	-3.309173
06186		10.477531	-0.420116	0.600943	-0.244490	-0.054929	0.068030	-0.387451	-0.252441	0.524170	-157.749104	-87.229328	-3.822179
06187		10.349336	-0.585910	0.566493	-0.129911	-0.099246	0.116842	-0.384277	-0.259033	0.515625	-156.994375	-87.149945	-4.648647
06188		10.108235	-1.056543	0.459897	0.148737	-0.375647	0.167780	-0.389160	-0.250244	0.515625	-156.821939	-86.912970	-4.732277
06189		9.689797	-1.616053	0.762168	-0.029391	-0.109269	0.203715	-0.386719	-0.256348	0.519043	-155.342117	-86.807258	-6.227495
06190		9.378694	-1.998781	0.829414	-0.045777	-0.004439	0.250268	-0.379639	-0.251953	0.518066	-153.086836	-86.741312	-8.508936
06191		8.990518	-2.290840	0.207559	-0.070925	-0.113907	0.274737	-0.377197	-0.257324	0.521973	-151.243550	-86.608894	-10.392340
06192		8.596389	-2.406741	-0.215580	-0.066897	-0.109368	0.296956	-0.379395	-0.260986	0.518066	-149.341286	-86.468833	-12.332846
06193		8.331689	-2.378427	-0.190530	0.004791	-0.119696	0.303603	-0.382813	-0.247803	0.520020	-147.545743	-86.318121	-14.125505
06194		8.261224	-2.269264	0.224713	0.007554	-0.067631	0.301113	-0.387451	-0.258545	0.521484	-145.656643	-86.189400	-16.010775
06195		8.288920	-2.078830	0.499081	-0.036667	-0.006446	0.293905	-0.378174	-0.248535	0.515625	-143.665271	-86.087727	-18.024036
06196		8.406771	-1.728124	0.449344	-0.078886	0.047067	0.286224	-0.384277	-0.250977	0.518555	-141.576278	-86.008138	-20.159835
06197		8.521973	-1.299886	0.195826	-0.115511	0.070711	0.273864	-0.389404	-0.253174	0.515869	-139.547952	-85.938474	-22.255829
06198		8.656101	-0.940737	-0.195078	-0.162564	0.068412	0.266052	-0.392578	-0.253418	0.522949	-137.672646	-85.865595	-24.225867
06199		8.746572	-0.715996	-0.428490	-0.187533	0.057242	0.250869	-0.387451	-0.258301	0.520020	-136.028968	-85.789934	-25.977948
06200		8.762463	-0.669795	-0.627039	-0.184984	0.069416	0.243270	-0.387695	-0.253418	0.528076	-134.415538	-85.718458	-27.698655
06201		8.662881	-0.749402	-0.726849	-0.159494	0.080860	0.216410	-0.398193	-0.241699	0.522461	-132.921586	-85.659466	-29.284789
06202		8.464531	-0.880702	-0.758360	-0.108828	0.098033	0.186218	-0.392334	-0.252686	0.513428	-131.490724	-85.616599	-30.778919
06203		8.226778	-1.039003	-0.668552	-0.072717	0.076967	0.147716	-0.398438	-0.256836	0.521240	-130.374976	-85.580261	-31.936055
06204		8.130390	-1.219306	-0.658684	-0.062088	0.062031	0.106632	-0.396973	-0.249512	0.508301	-129.545699	-85.554646	-32.800113
06205		8.115559	-1.414920	-0.685167	-0.048487	0.099096	0.066155	-0.394287	-0.247314	0.512695	-128.695080	-85.559774	-33.677461
06206		8.281082	-1.567113	-0.639362	-0.010437	0.140218	0.037493	-0.396484	-0.253174	0.505371	-127.706646	-85.590904	-34.671511
06207		8.453714	-1.639732	-0.694951	0.064105	0.176171	0.006831	-0.403320	-0.251709	0.518066	-126.585742	-85.647450	-35.755164
06208		8.722922	-1.679484	-0.712618	0.122230	0.180313	-0.019118	-0.400635	-0.250977	0.510010	-125.488374	-85.715344	-36.782154
06209		8.993735	-1.610192	-0.863118	0.170294	0.176273	-0.028407	-0.396729	-0.246338	0.510742	-124.399735	-85.785251	-37.772255
06210		9.207808	-1.536371	-0.996319	0.208524	0.169419	-0.032806	-0.402100	-0.246338	0.507568	-123.314939	-85.853118	-38.736953
06211		9.261627	-1.370859	-1.063344	0.248598	0.139878	-0.036293	-0.401367	-0.244873	0.506836	-122.392182	-85.912785	-39.515595
06212		9.212351	-1.313323	-1.062327	0.267668	0.094615	-0.049105	-0.397705	-0.247070	0.509277	-121.797579	-85.963528	-39.954821
06213		9.120721	-1.231496	-1.073956	0.254356	0.059363	-0.060259	-0.397949	-0.251953	0.512207	-121.496097	-86.009487	-40.107254
06214		9.076126	-1.206941	-1.199266	0.212531	0.047703	-0.069663	-0.402344	-0.250000	0.515381	-121.333454	-86.055839	-40.145163
06215		8.937657	-1.188710	-1.436713	0.185089	0.067479	-0.087865	-0.404785	-0.249512	0.514160	-121.124607	-86.117656	-40.244505
06216		8.878164	-1.185783	-1.686156	0.167888	0.050162	-0.109531	-0.401367	-0.253174	0.515625	-121.141102	-86.184211	-40.128576
06217		8.731867	-1.189850	-1.949469	0.192042	0.016494	-0.135572	-0.409668	-0.249268	0.513672	-121.519112	-86.254199	-39.635774
06218		8.623553	-1.150453	-2.015691	0.225970	-0.001743	-0.165394	-0.406494	-0.251709	0.514648	-122.171071	-86.332067	-38.849812
06219		8.447192	-1.096080	-1.995619	0.253196	-0.025837	-0.201240	-0.403809	-0.247803	0.507813	-123.204536	-86.419836	-37.665219
06220		8.434968	-0.989673	-1.959689	0.272013	-0.042727	-0.240755	-0.407959	-0.244629	0.509033	-124.621720	-86.518465	-36.086398
06221		8.468405	-0.817906	-1.851251	0.271716	-0.033031	-0.278793	-0.402100	-0.257324	0.516846	-126.270594	-86.636349	-34.274924
06222		8.629481	-0.687185	-1.792785	0.271091	-0.013946	-0.297741	-0.402344	-0.250244	0.513672	-128.007898	-86.765259	-32.376445
06223		8.839810	-0.582391	-1.771677	0.248901	0.016962	-0.309884	-0.408936	-0.254883	0.510986	-129.741299	-86.908315	-30.493880
06224		9.074931	-0.601415	-1.777293	0.233486	0.052709	-0.303385	-0.403564	-0.256348	0.517090	-131.308877	-87.057749	-28.787518
06225		9.308669	-0.563252	-1.763405	0.261746	0.068802	-0.278128	-0.407715	-0.247559	0.508789	-132.696492	-87.201272	-27.244311
06226		9.477476	-0.650638	-1.616237	0.301529	0.067447	-0.245483	-0.403809	-0.254395	0.512695	-133.947314	-87.327727	-25.816517
06227		9.541792	-0.733156	-1.360358	0.319304	0.061257	-0.216769	-0.406250	-0.244873	0.512695	-135.116721	-87.439601	-24.459060
06228		9.646058	-0.823101	-1.296103	0.306541	0.074035	-0.182256	-0.405762	-0.250488	0.513428	-135.953899	-87.540578	-23.442750
06229		9.794472	-0.925470	-1.445683	0.260675	0.104731	-0.148238	-0.401855	-0.246582	0.512451	-136.263228	-87.641427	-22.979967
06230		9.951702	-0.984075	-1.649683	0.239545	0.089090	-0.118026	-0.410889	-0.247803	0.510742	-136.454148	-87.722526	-22.649069
06231		9.968861	-1.035296	-1.955236	0.212521	0.026545	-0.098721	-0.408447	-0.255859	0.509033	-137.107312	-87.771065	-21.869849
06232		9.972683	-1.196216	-2.327223	0.168940	-0.034884	-0.101531	-0.402100	-0.246582	0.512451	-138.457864	-87.792755	-20.419044
06233		9.879205	-1.269557	-2.582410	0.166103	-0.076388	-0.134835	-0.397949	-0.251221	0.503418	-140.623102	-87.808320	-18.153280
06234		9.635872	-1.372644	-2.508297	0.133195	-0.102494	-0.212984	-0.401367	-0.249023	0.512939	-144.012577	-87.833746	-14.682734
06235		9.804899	-1.646493	-2.068782	-0.014670	-0.075832	-0.300943	-0.408691	-0.247803	0.513428	-148.497430	-87.892213	-10.199485
06236		10.219173	-1.862547	-1.246338	-0.146059	0.020109	-0.384499	-0.404297	-0.262695	0.508057	-153.786686	-88.006007	-4.988463
06237		11.045339	-1.514970	-0.910109	-0.324077	0.185379	-0.478489	-0.400391	-0.260986	0.508789	-160.343696	-88.209833	1.390012
06238		12.443952	-0.762446	-1.554537	-0.771511	0.186351	-0.603062	-0.398438	-0.265869	0.514160	-171.159444	-88.396636	11.770255
06239		13.642842	-0.069963	-2.332079	-1.016469	-0.263591	-0.702634	-0.395264	-0.280029	0.518066	174.349052	-88.254986	25.688923
06240		14.384446	0.679470	-1.970034	-0.671357	-0.766161	-0.623580	-0.394531	-0.288086	0.515381	166.062991	-87.758726	33.596999
06241		15.134136	1.333658	0.298420	0.185846	-0.762582	-0.340239	-0.389648	-0.287842	0.514404	164.416295	-87.285960	35.355494
06242		15.507564	2.405367	3.320704	0.822161	-0.177811	-0.013325	-0.391846	-0.278076	0.512451	165.342774	-87.184115	34.901599
06243		14.502917	3.501291	3.982475	0.752574	0.190640	0.241885	-0.391602	-0.278564	0.510010	168.089997	-87.321728	32.586600
06244		12.591728	4.029946	2.433666	0.601838	0.104933	0.345017	-0.385254	-0.267578	0.516357	172.505330	-87.412890	28.514153
06245		9.969448	2.436924	1.612340	0.872506	-0.741502	0.284982	-0.383789	-0.261719	0.524658	177.151781	-87.003498	24.366409
06246		8.595145	0.338134	3.223005	1.334295	-1.159192	0.193250	-0.386475	-0.261475	0.525391	-179.874018	-86.340428	22.155640
06247		8.349783	-1.171133	3.602326	0.705527	-0.574203	0.046153	-0.384521	-0.265137	0.534424	-179.099777	-86.010384	21.788510
06248		7.866517	-2.122211	1.513877	-0.171951	-0.201485	-0.089856	-0.384033	-0.256836	0.536621	-179.911008	-85.893994	22.505760
06249		7.920390	-2.802500	-0.650291	-0.487668	-0.103252	-0.135237	-0.382813	-0.264160	0.531494	178.763985	-85.833254	23.557781
06250		8.595929	-2.979360	-1.924658	-0.404625	0.081403	-0.141201	-0.377930	-0.262207	0.526123	177.426203	-85.875926	24.669307
06251		9.167866	-2.585606	-1.991921	-0.164652	0.197854	-0.146573	-0.392334	-0.262451	0.535156	176.081707	-85.983599	25.926322
06252		9.782213	-1.628207	-1.628880	0.133524	0.303731	-0.133086	-0.386963	-0.267334	0.525391	174.889326	-86.149859	27.200689
06253		10.516040	-0.564534	-0.931956	0.437142	0.352434	-0.069113	-0.384277	-0.269287	0.528564	174.267717	-86.346432	28.078330
06254		11.207261	0.456506	-0.009531	0.667251	0.326975	0.023348	-0.387939	-0.264160	0.533691	174.613173	-86.532979	28.117658
06255		11.669207	1.538214	1.182851	0.799351	0.248934	0.101871	-0.388184	-0.259033	0.532227	175.874200	-86.679228	27.316910
06256		11.651404	2.307104	2.496510	0.751168	0.107341	0.111841	-0.394287	-0.256592	0.534912	177.396974	-86.743188	26.225221
06257		11.020239	2.674699	3.754031	0.468951	-0.174089	0.079499	-0.391113	-0.245850	0.531006	178.536398	-86.644338	25.356729
06258		9.941126	2.914842	2.436659	0.108437	-0.168622	0.004162	-0.386475	-0.252197	0.532959	178.714666	-86.546782	25.243150
06259		8.744402	2.855948	0.782213	-0.051174	0.028574	-0.078772	-0.387695	-0.251221	0.533447	177.948920	-86.561046	25.984605
06260		8.022048	2.568913	0.095678	-0.028075	-0.067218	-0.141615	-0.390381	-0.259033	0.532715	176.656193	-86.517903	27.266574
06261		7.776998	2.106154	0.349082	0.015014	-0.202274	-0.179835	-0.396484	-0.262451	0.526611	175.159543	-86.394198	28.778404
06262		7.811345	1.659127	0.855914	-0.012527	-0.197766	-0.215556	-0.396973	-0.262695	0.536621	173.441371	-86.268442	30.496058
06263		8.016097	1.317386	0.918579	-0.118852	-0.055199	-0.240422	-0.389893	-0.260742	0.536865	171.377658	-86.218212	32.499665
06264		8.292107	1.031287	0.639532	-0.223791	0.065281	-0.244164	-0.388184	-0.269531	0.528320	169.092496	-86.230817	34.664568
06265		8.641746	0.736875	0.125011	-0.330938	0.036482	-0.260188	-0.382568	-0.269043	0.533691	166.648297	-86.219338	36.927750
06266		8.972191	0.493877	-0.331095	-0.375011	-0.037219	-0.278210	-0.385010	-0.272217	0.529785	164.225750	-86.158253	39.143669
06267		9.180230	0.273399	-0.686207	-0.404036	-0.046949	-0.297209	-0.389160	-0.275146	0.528809	161.730588	-86.082179	41.416229
06268		9.198731	0.218889	-1.093894	-0.395075	0.011892	-0.308241	-0.385498	-0.287842	0.533936	159.085051	-86.029151	43.844510
06269		8.971589	0.227987	-1.218768	-0.292284	-0.024199	-0.264756	-0.388184	-0.284180	0.537598	157.003756	-85.959182	45.766721
06270		8.699170	0.183808	-1.221159	-0.187133	-0.086557	-0.185117	-0.380127	-0.280762	0.521240	155.839854	-85.871162	46.829441
06271		8.390133	0.208801	-1.143758	-0.110689	-0.067322	-0.080676	-0.388428	-0.296387	0.526611	155.436771	-85.816626	47.173697
06272		8.174176	0.217370	-1.000126	-0.078422	-0.010122	0.009764	-0.383789	-0.282959	0.525635	155.520753	-85.813525	47.047765
06273		8.075790	0.401442	-0.916532	-0.052927	0.076221	0.078384	-0.384766	-0.283691	0.522949	155.826773	-85.871487	46.714230
06274		8.093564	0.614607	-0.791799	-0.026977	0.167150	0.108729	-0.379883	-0.294189	0.524658	156.089536	-85.984143	46.438622
06275		8.228766	0.772047	-0.686276	-0.009656	0.232490	0.094072	-0.388428	-0.278320	0.520020	156.036376	-86.127421	46.490058
06276		8.486059	1.005870	-0.622683	-0.015386	0.260995	0.061677	-0.390137	-0.285400	0.529785	155.619196	-86.278112	46.902652
06277		8.669990	1.210225	-0.659012	-0.031267	0.300136	0.022565	-0.396729	-0.284180	0.517578	154.673193	-86.439269	47.836313
06278		8.932540	1.391659	-0.601002	-0.046204	0.327912	0.001653	-0.396729	-0.291504	0.521973	153.335131	-86.608379	49.153688
06279		9.069064	1.435197	-0.609983	-0.077493	0.307021	-0.001669	-0.401855	-0.284424	0.518311	151.904360	-86.763889	50.546073
06280		9.170905	1.401163	-0.738370	-0.133956	0.245880	0.021819	-0.391846	-0.284912	0.520752	150.839010	-86.893383	51.539613
06281		9.185562	1.438781	-1.070886	-0.190573	0.188194	0.052594	-0.392822	-0.301270	0.509277	150.255145	-87.001874	52.018654
06282		9.137526	1.449896	-1.412395	-0.229193	0.146123	0.082900	-0.405029	-0.290039	0.511963	150.149066	-87.097944	51.996852
06283		9.039884	1.500837	-1.571890	-0.265955	0.090088	0.105835	-0.401855	-0.298340	0.517334	150.568892	-87.172581	51.427622
06284		8.858811	1.494576	-1.589028	-0.293606	0.044238	0.131418	-0.405762	-0.294434	0.506592	151.531198	-87.230905	50.299239
06285		8.688930	1.384473	-1.491942	-0.329724	0.011416	0.160172	-0.409424	-0.296631	0.516357	153.003126	-87.279148	48.640177
06286		8.480084	1.233876	-1.422474	-0.356790	-0.011310	0.191577	-0.408936	-0.299316	0.512207	154.984404	-87.320983	46.455566
06287		8.338029	0.998490	-1.333998	-0.359766	-0.046447	0.215893	-0.410889	-0.302002	0.513428	157.469976	-87.346156	43.764638
06288		8.192919	0.710401	-1.217546	-0.364476	-0.070500	0.245150	-0.410400	-0.304443	0.509033	160.442063	-87.358223	40.583855
06289		8.166742	0.328453	-1.222723	-0.401043	-0.065688	0.277719	-0.416504	-0.301270	0.510986	163.783586	-87.370815	37.012463
06290		8.261922	-0.086228	-1.231735	-0.400326	-0.024757	0.304445	-0.408936	-0.298828	0.507324	167.361845	-87.399677	33.204388
06291		8.399480	-0.236543	-1.393702	-0.262870	0.027112	0.292862	-0.412598	-0.300537	0.499023	170.836261	-87.446074	29.579382
06292		8.776721	-0.007863	-1.467419	-0.063119	0.089108	0.249031	-0.406494	-0.297852	0.508789	173.889279	-87.514596	26.490681
06293		9.121080	0.221362	-1.367041	0.060932	0.118285	0.195334	-0.421631	-0.301270	0.502441	176.428479	-87.590860	23.987799
06294		9.488116	0.238200	-1.057185	0.130428	0.151558	0.156282	-0.412598	-0.299072	0.505615	178.607354	-87.680282	21.885293
06295		9.961881	0.025210	-0.596758	0.125373	0.171126	0.130617	-0.416992	-0.290039	0.511719	-179.422038	-87.778064	19.988718
06296		10.413058	-0.053451	-0.777393	-0.015108	0.167864	0.093162	-0.421631	-0.299561	0.493408	-177.939033	-87.871682	18.499402
06297		10.621003	0.125840	-1.825333	-0.225861	0.167885	0.056821	-0.423584	-0.291992	0.504639	-177.027090	-87.965495	17.461054
06298		10.466976	0.516181	-2.906697	-0.337689	0.125386	0.055070	-0.422363	-0.305176	0.505615	-176.167794	-88.033941	16.411023
06299		9.957861	1.063195	-3.422879	-0.359472	-0.045152	0.096194	-0.425293	-0.308350	0.501709	-174.813800	-88.002922	14.853823
06300		9.419493	1.523061	-3.247278	-0.323184	-0.201613	0.154053	-0.426514	-0.300293	0.507568	-172.879110	-87.876991	12.735914
06301		8.944243	2.031923	-2.448882	-0.246622	-0.148085	0.215771	-0.428467	-0.308838	0.501465	-170.104250	-87.773798	9.821340
06302		8.975004	2.337775	-1.167379	-0.122858	0.047098	0.251407	-0.428467	-0.307129	0.505127	-166.393811	-87.769098	6.040963
06303		9.807782	2.159622	-0.427890	0.121560	0.492154	0.260777	-0.432861	-0.311768	0.497559	-160.238091	-87.995565	-0.045559
06304		11.599999	1.429999	-0.467480	0.253716	0.903104	0.263921	-0.436768	-0.299072	0.492676	-148.653042	-88.397364	-11.487388
06305		13.213215	0.756282	-2.107925	0.557957	0.602824	0.260410	-0.433105	-0.291992	0.505859	-135.810208	-88.578836	-24.011158
06306		13.851875	1.152653	-3.073186	1.298484	-0.635919	0.192636	-0.433594	-0.287109	0.507324	-140.831141	-88.231188	-18.240603
06307		14.678496	1.268116	1.277631	1.182621	-1.363947	0.080003	-0.434570	-0.288574	0.514648	-151.022357	-87.553905	-7.360972
06308		14.846666	0.936747	5.184156	0.175059	-0.748810	0.024367	-0.432373	-0.283447	0.506592	-154.885764	-87.163393	-3.389589
06309		13.202287	-0.714250	2.087363	-0.434309	-0.356012	0.030315	-0.427490	-0.285645	0.516846	-156.450869	-86.969206	-2.067906
06310		11.824758	-2.383058	-2.084438	-0.304619	-0.432491	0.052519	-0.424805	-0.288086	0.515625	-157.867337	-86.727566	-0.820428
06311		11.068279	-2.755757	-0.594192	-0.045852	-0.560934	0.114609	-0.430176	-0.294922	0.518555	-158.837977	-86.403479	0.129331
06312		10.326113	-1.681283	2.835146	-0.387145	-0.177806	0.138723	-0.427002	-0.297119	0.523682	-158.477743	-86.277993	-0.450392
06313		9.582093	-0.683115	2.997239	-0.723753	-0.028982	0.104164	-0.428955	-0.300049	0.519775	-158.125024	-86.239369	-1.215734
06314		9.254740	-0.118456	1.323843	-0.635961	-0.130138	0.056583	-0.435547	-0.312744	0.516602	-158.445344	-86.156618	-1.256282
06315		9.023618	-0.075289	0.775094	-0.414970	-0.232023	0.030989	-0.416504	-0.306641	0.515869	-159.131759	-86.025137	-0.802885
06316		8.911077	-0.259622	0.891239	-0.393955	-0.144830	-0.002198	-0.424072	-0.304932	0.515625	-159.782562	-85.946493	-0.373077
06317		8.828745	-0.441114	0.847711	-0.489063	0.026455	-0.044511	-0.428711	-0.310303	0.514404	-160.315754	-85.968334	-0.115769
06318		9.228867	-0.349203	0.717447	-0.493241	0.160180	-0.095141	-0.430176	-0.312012	0.511475	-160.891693	-86.071713	0.182004
06319		9.812091	-0.127758	0.530671	-0.406442	0.188895	-0.142317	-0.434570	-0.310059	0.511475	-161.740992	-86.199268	0.803529
06320		10.410788	0.281556	0.301017	-0.263059	0.086567	-0.142274	-0.436523	-0.313721	0.506348	-162.833537	-86.270111	1.751171
06321		10.785581	0.392305	0.018260	-0.158728	-0.031180	-0.103357	-0.431885	-0.313965	0.507813	-163.858385	-86.268898	2.690754
06322		10.902612	0.237331	0.142072	-0.121838	-0.104174	-0.037249	-0.432861	-0.325439	0.509277	-164.479589	-86.216157	3.247178
06323		10.820568	-0.206102	0.291159	-0.071164	-0.110206	0.028270	-0.430664	-0.319092	0.517578	-164.524450	-86.149928	3.254970
06324		10.731976	-0.759765	0.501217	-0.040875	-0.069844	0.085262	-0.433105	-0.320313	0.512451	-164.004989	-86.097079	2.714733
06325		10.670664	-1.398145	0.478335	-0.012269	-0.061279	0.125938	-0.427490	-0.319336	0.512695	-163.134949	-86.041926	1.839291
06326		10.619128	-1.910285	0.442824	-0.000276	-0.079472	0.167211	-0.432373	-0.314941	0.515381	-162.011880	-85.968746	0.717223
06327		9.902315	-2.402325	0.141098	0.053829	-0.337119	0.211412	-0.425537	-0.325928	0.515625	-161.221775	-85.746152	-0.040330
06328		9.395535	-2.631089	0.179717	0.024310	-0.195808	0.233507	-0.434326	-0.318115	0.513184	-160.022101	-85.594880	-1.225625
06329		8.971963	-2.626708	0.262311	0.070483	-0.180565	0.258336	-0.430176	-0.325684	0.525391	-158.667853	-85.444736	-2.539816
06330		8.597094	-2.438943	0.111385	0.092234	-0.178840	0.271013	-0.437012	-0.322510	0.522461	-157.301187	-85.290455	-3.854173
06331		8.240509	-2.058030	0.119041	0.097085	-0.097492	0.268827	-0.439209	-0.319336	0.518555	-155.806560	-85.176767	-5.294467
06332		8.036239	-1.640962	0.169470	0.065108	-0.030675	0.255824	-0.427979	-0.311035	0.520264	-154.282650	-85.097875	-6.782735
06333		8.050351	-1.235171	0.051252	-0.019404	0.049161	0.249581	-0.434570	-0.317139	0.530762	-152.652152	-85.058016	-8.426725
06334		8.059189	-0.888494	-0.203862	-0.092411	0.128157	0.254967	-0.434082	-0.314941	0.522949	-150.804252	-85.052349	-10.330987
06335		8.154455	-0.640875	-0.433784	-0.133518	0.176865	0.257178	-0.446289	-0.313721	0.522705	-148.809199	-85.064625	-12.406566
06336		8.222796	-0.453086	-0.508946	-0.152841	0.187844	0.255454	-0.445557	-0.316406	0.517090	-146.784538	-85.076511	-14.522960
06337		8.287636	-0.396020	-0.470764	-0.158427	0.182702	0.249099	-0.445068	-0.313965	0.523926	-144.812811	-85.081628	-16.589387
06338		8.347825	-0.478420	-0.516788	-0.173540	0.185845	0.229208	-0.445801	-0.311279	0.521484	-142.938244	-85.088992	-18.566988
06339		8.312412	-0.648012	-0.614430	-0.188401	0.171015	0.203325	-0.453613	-0.312744	0.509521	-141.267918	-85.093498	-20.348103
06340		8.250542	-0.854903	-0.687907	-0.185914	0.164706	0.170915	-0.447998	-0.312744	0.511963	-139.783993	-85.102829	-21.940713
06341		8.215898	-1.043951	-0.710837	-0.150384	0.175223	0.135553	-0.449463	-0.310547	0.515625	-138.407942	-85.126584	-23.404557
06342		8.306230	-1.322968	-0.610254	-0.112855	0.185548	0.099121	-0.454834	-0.310059	0.515137	-137.126955	-85.165819	-24.751403
06343		8.434703	-1.537902	-0.533663	-0.052129	0.218147	0.060337	-0.452881	-0.317139	0.516357	-135.828042	-85.231366	-26.081161
06344		8.634506	-1.652949	-0.552491	0.019082	0.255525	0.020274	-0.460449	-0.309082	0.513672	-134.458287	-85.325591	-27.441014
06345		8.864583	-1.696297	-0.521790	0.070201	0.246107	-0.016394	-0.450684	-0.311523	0.515625	-133.235880	-85.428766	-28.623356
06346		9.148948	-1.661965	-0.714803	0.106351	0.202623	-0.039222	-0.464111	-0.308838	0.503418	-132.281682	-85.522648	-29.515875
06347		9.400528	-1.579438	-0.894905	0.135291	0.151899	-0.052761	-0.462158	-0.308594	0.508301	-131.626104	-85.602025	-30.091976
06348		9.547216	-1.495118	-1.118651	0.137616	0.079580	-0.061429	-0.460449	-0.313721	0.510010	-131.396769	-85.657095	-30.239432
06349		9.501677	-1.417469	-1.397426	0.121088	0.034005	-0.068036	-0.466064	-0.319580	0.509033	-131.471094	-85.697923	-30.091620
06350		9.290208	-1.356833	-1.601793	0.094768	-0.006929	-0.084159	-0.468262	-0.314453	0.511475	-131.875011	-85.729730	-29.628729
06351		9.035196	-1.215394	-1.799086	0.098268	-0.036637	-0.101517	-0.467529	-0.320557	0.509521	-132.548113	-85.757418	-28.893608
06352		8.748013	-1.046692	-1.757768	0.076434	-0.048890	-0.135197	-0.461182	-0.314941	0.511963	-133.487638	-85.793302	-27.904309
06353		8.481633	-0.911451	-1.637595	0.035663	-0.079430	-0.176678	-0.460693	-0.314941	0.516357	-134.871572	-85.832900	-26.492487
06354		8.289117	-0.678500	-1.643257	-0.011175	-0.084768	-0.219468	-0.455566	-0.317139	0.517822	-136.579607	-85.884220	-24.783177
06355		8.195592	-0.426197	-1.984844	0.015405	-0.096722	-0.247943	-0.461182	-0.317871	0.511230	-138.554354	-85.937902	-22.790847
06356		8.258135	-0.253888	-2.198171	0.100387	-0.084052	-0.265491	-0.462402	-0.320068	0.517578	-140.571414	-85.998200	-20.707964
06357		8.406926	-0.097810	-2.324556	0.189529	-0.097695	-0.281906	-0.459717	-0.319092	0.516357	-142.778760	-86.053200	-18.382748
06358		8.565515	-0.017299	-2.120850	0.272545	-0.100092	-0.288385	-0.462402	-0.327393	0.523926	-145.050763	-86.102435	-15.945795
06359		8.702064	0.004754	-1.666431	0.278383	-0.101852	-0.291090	-0.456543	-0.323975	0.517578	-147.407234	-86.145411	-13.420359
06360		8.915549	-0.179566	-1.301041	0.223738	-0.065429	-0.278843	-0.458008	-0.318604	0.518555	-149.593099	-86.195181	-11.098068
06361		9.225099	-0.397964	-1.235778	0.139518	0.016581	-0.264021	-0.453125	-0.329590	0.518555	-151.432875	-86.276720	-9.170511
06362		9.465193	-0.640335	-1.293318	0.116461	0.080893	-0.240666	-0.452393	-0.327148	0.514160	-152.913962	-86.380346	-7.616484
06363		9.794177	-0.960199	-1.425095	0.076829	0.100175	-0.210847	-0.463379	-0.324707	0.520264	-154.182480	-86.484376	-6.297704
06364		10.088791	-1.219982	-1.791450	-0.006417	0.079105	-0.176986	-0.457275	-0.337158	0.518311	-155.361332	-86.566848	-5.117392
06365		10.313614	-1.451997	-2.297594	-0.050853	0.042295	-0.144238	-0.463379	-0.331543	0.517578	-156.478727	-86.621540	-4.023514
06366		10.228416	-1.692599	-2.799055	-0.042207	-0.014063	-0.111806	-0.466309	-0.332275	0.511719	-157.538120	-86.637324	-2.983647
06367		9.979863	-1.832878	-2.920793	-0.023647	-0.131910	-0.132882	-0.458008	-0.331299	0.519287	-159.205291	-86.593997	-1.323443
06368		9.640636	-1.931443	-2.622195	-0.011323	-0.226308	-0.187161	-0.451904	-0.330322	0.518311	-161.587643	-86.505893	1.059434
06369		9.626180	-1.902090	-2.099884	-0.036660	-0.181274	-0.257457	-0.457764	-0.338135	0.521484	-164.378633	-86.448658	3.838355
06370		9.916121	-1.715660	-1.593918	-0.159831	0.059102	-0.316096	-0.454102	-0.337646	0.524414	-167.168911	-86.524085	6.544690
06371		10.690348	-1.261058	-1.501310	-0.383168	0.338148	-0.372804	-0.463867	-0.344238	0.522217	-170.293892	-86.754912	9.458822
06372		11.927736	-0.363237	-2.033520	-0.647713	0.467297	-0.446321	-0.456787	-0.347656	0.507813	-174.671751	-87.052167	13.473861
06373		13.101781	0.481434	-2.747154	-0.899103	0.280249	-0.529363	-0.462891	-0.362549	0.502197	178.889619	-87.223165	19.408413
06374		13.604123	1.127897	-2.416930	-0.873378	-0.178050	-0.556304	-0.458740	-0.363037	0.498047	172.185028	-87.094909	25.622608
06375		13.656435	1.534404	-0.726500	-0.571284	-0.653858	-0.478425	-0.448486	-0.369629	0.503662	168.095768	-86.678012	29.393771
06376		14.171118	1.626058	1.740210	-0.054672	-0.744275	-0.272747	-0.451172	-0.371094	0.506836	167.115584	-86.226606	30.346890
06377		14.916886	2.209508	3.777672	0.319858	-0.383498	-0.016610	-0.450439	-0.374268	0.515381	167.883485	-86.009443	29.764607
06378		14.676979	2.693135	3.277614	0.510631	0.015177	0.188385	-0.453125	-0.365479	0.513428	169.705621	-86.037755	28.234044
06379		12.983158	3.043670	1.516652	0.586581	-0.089423	0.231517	-0.453613	-0.363525	0.515381	172.062024	-86.007530	26.212547
06380		10.138218	1.992411	-0.025677	0.577672	-0.784712	0.114346	-0.448242	-0.361328	0.523926	174.040123	-85.567959	24.563944
06381		8.599657	-0.159948	0.790973	0.974279	-1.385950	0.007603	-0.443359	-0.361572	0.541992	175.521391	-84.776812	23.641343
06382		8.477171	-1.865405	3.292767	0.906401	-0.761368	-0.032938	-0.442871	-0.356201	0.550293	176.193349	-84.339203	23.491093
06383		8.077916	-2.554607	1.606933	-0.087187	-0.054304	-0.103975	-0.440918	-0.357910	0.544922	175.582587	-84.303153	24.058372
06384		7.707665	-2.919861	-0.415914	-0.486610	0.036379	-0.110374	-0.443604	-0.358398	0.538330	174.673558	-84.317611	24.694813
06385		7.837390	-2.919139	-1.774029	-0.438168	-0.073233	-0.118275	-0.435547	-0.369385	0.547363	173.804443	-84.268348	25.319661
06386		8.441070	-2.322278	-2.255056	-0.202941	0.127721	-0.101278	-0.444092	-0.365479	0.543701	173.048510	-84.333508	25.965447
06387		9.183056	-1.473371	-1.860653	0.084986	0.325833	-0.062234	-0.448242	-0.366455	0.543213	172.509446	-84.513551	26.559704
06388		9.984279	-0.504570	-1.081441	0.382655	0.456322	-0.001219	-0.449219	-0.365967	0.533691	172.379237	-84.771730	26.913502
06389		10.869494	0.550512	0.103721	0.588448	0.534872	0.079822	-0.453125	-0.349854	0.535889	172.798005	-85.080846	26.835272
06390		11.596338	1.504474	1.924402	0.680280	0.468397	0.158315	-0.457520	-0.359619	0.539063	173.920820	-85.357004	26.102490
06391		11.764774	2.158013	2.904199	0.547490	0.166334	0.200805	-0.460205	-0.356201	0.531738	175.569734	-85.461727	24.766667
06392		10.964933	2.692459	1.880296	0.399359	0.006577	0.178507	-0.465088	-0.352051	0.540039	177.108847	-85.471205	23.455292
06393		9.818472	3.054965	0.351956	0.310946	-0.137451	0.058786	-0.458008	-0.348145	0.548828	177.768879	-85.393263	22.975583
06394		8.830675	3.053726	-0.106209	0.343473	-0.278174	-0.065934	-0.460449	-0.350098	0.547852	177.606720	-85.231739	23.338992
06395		8.301517	2.690577	0.206048	0.263816	-0.201282	-0.149511	-0.456787	-0.353027	0.540283	176.827209	-85.111618	24.276672
06396		8.086944	2.308008	0.697505	0.108586	0.018857	-0.193986	-0.457031	-0.349854	0.549316	175.604397	-85.114392	25.569808
06397		8.076088	1.860180	0.620688	-0.047016	0.193840	-0.212030	-0.456787	-0.351563	0.546143	174.045341	-85.213329	27.111099
06398		8.210577	1.546166	0.379094	-0.141650	0.254967	-0.215643	-0.453857	-0.355713	0.546387	172.288340	-85.343158	28.796213
06399		8.487081	1.269217	0.050186	-0.191623	0.202389	-0.213745	-0.466553	-0.357910	0.542480	170.478468	-85.438814	30.505507
06400		8.755338	1.007352	-0.187925	-0.213766	0.116251	-0.210685	-0.461914	-0.354736	0.547607	168.728979	-85.482135	32.141300
06401		8.926938	0.694871	-0.313576	-0.236858	0.043175	-0.224514	-0.458984	-0.366943	0.546143	166.954673	-85.478636	33.788706
06402		8.998270	0.561338	-0.504025	-0.297308	0.009619	-0.245666	-0.457031	-0.365234	0.540283	165.065435	-85.449632	35.516713
06403		8.944788	0.513936	-0.696858	-0.373313	0.000078	-0.247795	-0.450439	-0.379150	0.535156	163.161475	-85.410295	37.215868
06404		8.759908	0.504377	-0.811795	-0.397814	-0.019580	-0.219828	-0.458984	-0.380371	0.541504	161.508023	-85.361139	38.649758
06405		8.475133	0.502068	-0.619533	-0.407693	-0.036661	-0.155684	-0.460205	-0.378418	0.541748	160.343682	-85.311690	39.587299
06406		8.315064	0.565802	-0.494209	-0.451733	0.008352	-0.072216	-0.453369	-0.376465	0.542969	159.610372	-85.301820	40.067127
06407		8.263178	0.700993	-0.482500	-0.511269	0.090651	0.008706	-0.461182	-0.380371	0.533936	159.169550	-85.351778	40.219207
06408		8.262468	0.857607	-0.534747	-0.530454	0.143990	0.080115	-0.466064	-0.395752	0.532471	159.052047	-85.445040	40.035948
06409		8.391965	0.977288	-0.637122	-0.497866	0.187826	0.116219	-0.466553	-0.388428	0.531494	159.088350	-85.568937	39.717096
06410		8.644721	0.963128	-0.683443	-0.425320	0.225076	0.119400	-0.467041	-0.389404	0.527344	159.098846	-85.713624	39.465973
06411		8.898655	1.001581	-0.754828	-0.357922	0.274522	0.093371	-0.477783	-0.396973	0.532959	158.825263	-85.879230	39.538364
06412		9.094099	0.961181	-0.847179	-0.322097	0.293568	0.057498	-0.472656	-0.389893	0.523193	158.222772	-86.047612	39.961175
06413		8.958891	0.912444	-0.930769	-0.341708	0.271394	0.020584	-0.471436	-0.394043	0.529297	157.342648	-86.195649	40.650780
06414		8.831515	0.943519	-1.023503	-0.338867	0.221691	0.004812	-0.478516	-0.393066	0.519043	156.447038	-86.313362	41.357583
06415		8.636428	0.955240	-0.932035	-0.315580	0.147275	0.013850	-0.478516	-0.396240	0.513184	155.868134	-86.393408	41.760175
06416		8.564941	0.960824	-0.953562	-0.315002	0.090161	0.052835	-0.473145	-0.394775	0.511963	155.812983	-86.452711	41.638460
06417		8.556729	0.905806	-1.188216	-0.330432	0.071554	0.107366	-0.478027	-0.404297	0.515869	156.291753	-86.514808	40.972800
06418		8.668192	0.900914	-1.510993	-0.331058	0.051811	0.157383	-0.477051	-0.409912	0.517334	157.303415	-86.577339	39.773140
06419		8.761125	0.928669	-1.793682	-0.287741	-0.031610	0.199992	-0.481445	-0.397949	0.511963	159.061291	-86.602728	37.850684
06420		8.823217	0.966474	-1.869665	-0.204024	-0.181350	0.229960	-0.480957	-0.402344	0.515869	161.623931	-86.548760	35.170208
06421		8.839473	1.097785	-1.758081	0.063804	-0.511909	0.266739	-0.484619	-0.405273	0.509033	165.367693	-86.310335	31.459502
06422		8.812284	0.972825	-1.810633	0.146985	-0.736070	0.283324	-0.475830	-0.399658	0.512451	169.177342	-85.933894	27.729383
06423		8.822766	1.018727	-1.934293	-0.137717	-0.338576	0.310039	-0.478516	-0.398926	0.523438	171.972543	-85.770919	24.851432
06424		8.821101	1.049425	-1.952337	-0.345847	-0.048886	0.335773	-0.480469	-0.399414	0.524902	174.416441	-85.765101	22.205977
06425		8.729255	0.962288	-1.888946	-0.308088	-0.103491	0.347745	-0.485596	-0.397949	0.527832	176.986750	-85.720153	19.455247
06426		8.689487	0.711939	-1.794017	-0.234815	-0.211949	0.366973	-0.481934	-0.396973	0.524658	179.683102	-85.603896	16.620033
06427		8.849073	0.390052	-1.824706	-0.270970	-0.164168	0.370838	-0.479004	-0.393555	0.523438	-177.743327	-85.505389	13.886676
06428		9.137483	0.196328	-1.937717	-0.367705	0.018056	0.356755	-0.492188	-0.400391	0.524414	-175.339545	-85.502319	11.267925
06429		9.401412	0.044041	-1.891085	-0.398340	0.227633	0.323427	-0.490479	-0.395020	0.522461	-173.008961	-85.612373	8.705099
06430		9.585686	0.204111	-1.703965	-0.297523	0.347540	0.277943	-0.489990	-0.396729	0.520020	-170.697382	-85.785792	6.219779
06431		9.700475	0.453951	-1.469970	-0.200641	0.384592	0.231034	-0.488525	-0.402344	0.521240	-168.434571	-85.977586	3.839555
06432		9.640446	0.465686	-1.243678	-0.196563	0.392585	0.191936	-0.497803	-0.389648	0.514404	-166.255811	-86.171757	1.546500
06433		9.634361	0.509538	-1.109973	-0.216774	0.393467	0.157176	-0.509521	-0.397705	0.507813	-164.146491	-86.365707	-0.688069
06434		9.631424	0.470638	-0.921915	-0.220811	0.420979	0.125498	-0.507813	-0.392090	0.512207	-162.011895	-86.574294	-2.949761
06435		9.569044	0.464970	-0.787840	-0.222974	0.482043	0.105861	-0.513184	-0.401123	0.495605	-159.558804	-86.814096	-5.531208
06436		9.341053	0.528947	-0.972536	-0.236520	0.473470	0.099605	-0.514648	-0.396973	0.498047	-156.822391	-87.043525	-8.403533
06437		9.152786	0.757628	-1.585698	-0.248164	0.304288	0.102867	-0.522705	-0.406982	0.499268	-154.461186	-87.176916	-10.906418
06438		9.005311	1.077393	-2.193147	-0.259830	-0.023465	0.104045	-0.507568	-0.400146	0.506592	-153.646267	-87.137419	-11.867670
06439		8.993793	1.339902	-2.507995	-0.295671	-0.292688	0.121478	-0.520752	-0.404541	0.501465	-154.024015	-86.955039	-11.655361
06440		9.004964	1.762265	-2.467323	-0.319879	-0.396879	0.152680	-0.513428	-0.408203	0.504395	-154.564424	-86.710824	-11.293989
06441		9.222864	2.217604	-1.980615	-0.325887	-0.347697	0.194544	-0.514404	-0.411377	0.500244	-154.486912	-86.481865	-11.554993
06442		9.881714	2.065446	-1.656772	-0.285703	-0.047669	0.218645	-0.518066	-0.407959	0.500732	-153.039288	-86.400575	-13.165722
06443		11.051943	0.961500	-1.899530	-0.188596	0.560688	0.214466	-0.526367	-0.399658	0.505615	-148.813465	-86.620592	-17.503942
06444		12.791127	-0.256596	-2.273338	-0.082376	1.298631	0.140298	-0.531494	-0.404785	0.492188	-139.624509	-87.177706	-26.749742
06445		15.020970	-1.327062	-1.713996	0.106480	1.756237	-0.044719	-0.532227	-0.411865	0.481445	-122.338781	-87.863411	-43.986364
06446		17.086750	-2.421037	-0.077599	0.423164	1.450137	-0.244079	-0.543701	-0.392334	0.477295	-100.403324	-88.303471	-65.687398
06447		16.887524	-2.675038	0.747629	1.198067	0.209571	-0.294692	-0.539795	-0.392578	0.479736	-96.375587	-88.486998	-69.026310
06448		15.318303	-1.305121	1.843692	2.485047	-1.473129	-0.045136	-0.539307	-0.387207	0.496094	-123.184473	-88.216642	-40.778834
06449		13.505385	-1.470217	6.658509	1.820397	-1.162921	0.248061	-0.539795	-0.378906	0.517578	-134.210459	-87.684902	-28.698599
06450		10.930559	-1.425026	5.023012	-0.121548	-0.213181	0.276832	-0.533447	-0.374268	0.518799	-133.762492	-87.484708	-29.212927
06451		9.114992	-1.387261	-2.500639	-0.376916	-0.247789	0.245612	-0.531982	-0.366211	0.514893	-134.074361	-87.283575	-29.113225
06452		8.331421	-0.896182	-3.299861	0.543574	-1.000170	0.280134	-0.537598	-0.376221	0.530273	-139.094483	-86.755182	-23.770746
06453		7.933002	1.119901	5.878587	-0.348040	-0.593179	0.318376	-0.521973	-0.365479	0.524902	-140.614135	-86.376481	-22.444445
06454		7.738149	3.005346	5.014830	-0.998422	-0.014535	0.232476	-0.534180	-0.376465	0.525146	-139.676357	-86.283534	-23.953537
06455		7.538435	2.685745	-1.103141	-0.593036	-0.184936	0.234878	-0.528320	-0.377441	0.524658	-139.500607	-86.114341	-24.466512
06456		7.730100	2.682417	-1.036071	-0.497466	-0.385515	0.224144	-0.533203	-0.371582	0.525635	-140.411501	-85.861644	-23.835020
06457		8.430305	2.135714	-0.190298	-0.434903	-0.184068	0.190812	-0.529785	-0.380859	0.522705	-140.422130	-85.709433	-24.070522
06458		8.870529	0.918177	-0.365412	-0.460364	0.239165	0.136608	-0.536865	-0.378174	0.520996	-138.697520	-85.762092	-26.060218
06459		9.391559	-0.134168	0.046300	-0.594641	0.369012	0.041419	-0.534424	-0.382813	0.513184	-136.840776	-85.901440	-28.259794
06460		10.448236	-0.964846	0.838550	-0.527154	0.279673	-0.023816	-0.547363	-0.379150	0.508545	-135.716981	-86.025896	-29.684914
06461		11.620106	-1.843720	1.787651	-0.392971	0.227329	-0.022538	-0.541260	-0.393066	0.505615	-134.732692	-86.126174	-30.893504
06462		12.137013	-2.605965	2.294961	-0.454572	0.272525	0.022021	-0.552979	-0.389893	0.503418	-133.183824	-86.224756	-32.702554
06463		12.035312	-2.947485	1.581785	-0.586106	0.115681	0.096234	-0.544189	-0.390869	0.507080	-132.209345	-86.227889	-34.011997
06464		11.328028	-3.183015	0.409163	-0.614982	-0.048339	0.195600	-0.550293	-0.398682	0.503418	-131.748860	-86.125334	-34.822324
06465		10.336944	-3.202035	-0.373341	-0.411281	-0.109916	0.255401	-0.552246	-0.399414	0.505371	-131.258950	-85.972717	-35.545913
06466		10.066512	-3.175341	0.053736	-0.045303	-0.310973	0.319064	-0.551025	-0.400146	0.506348	-131.461748	-85.716965	-35.364367
06467		9.630044	-2.980667	0.550656	0.180496	-0.419892	0.363300	-0.551514	-0.388184	0.513672	-131.885670	-85.400232	-34.831743
06468		9.110429	-2.659293	0.766987	0.274967	-0.399015	0.379974	-0.552734	-0.397705	0.511230	-132.019236	-85.084603	-34.535458
06469		8.804250	-2.259380	0.597274	0.306307	-0.364962	0.368097	-0.547607	-0.390869	0.515625	-131.999878	-84.786658	-34.375002
06470		8.695300	-1.934333	0.334012	0.334786	-0.321201	0.333127	-0.544434	-0.386963	0.531006	-131.902826	-84.520761	-34.275673
06471		8.686900	-1.611986	0.158184	0.350695	-0.306389	0.290029	-0.552246	-0.377441	0.525391	-131.898336	-84.278549	-34.074583
06472		8.742822	-1.387253	0.139194	0.290667	-0.276519	0.251036	-0.553955	-0.376953	0.529297	-131.940353	-84.064739	-33.860801
06473		8.809917	-1.169627	0.221293	0.188235	-0.212041	0.219870	-0.546631	-0.379395	0.528809	-131.887514	-83.888547	-33.801775
06474		8.812989	-0.880727	0.249107	0.086696	-0.124179	0.198010	-0.550781	-0.368164	0.530518	-131.624845	-83.755594	-34.011860
06475		8.796843	-0.688772	0.209387	0.015985	-0.053423	0.178677	-0.543945	-0.369141	0.526123	-131.205649	-83.657281	-34.420674
06476		8.682897	-0.545497	0.041080	-0.005365	-0.024101	0.161263	-0.550537	-0.370850	0.531006	-130.754729	-83.577556	-34.873302
06477		8.547359	-0.474208	-0.076638	0.004928	-0.014206	0.141339	-0.552246	-0.361328	0.538330	-130.337442	-83.509437	-35.286700
06478		8.432703	-0.524700	-0.261272	0.004061	-0.006540	0.129703	-0.556885	-0.364014	0.526855	-129.935589	-83.449318	-35.684591
06479		8.316254	-0.771451	-0.462692	0.003455	0.034910	0.120237	-0.555176	-0.371582	0.539307	-129.414414	-83.407773	-36.203509
06480		8.256365	-1.115797	-0.454169	0.009336	0.087338	0.108076	-0.554932	-0.359131	0.526855	-128.730695	-83.390357	-36.882154
06481		8.275138	-1.452422	-0.359605	0.062245	0.108798	0.087212	-0.553467	-0.363037	0.538330	-128.002153	-83.388579	-37.575958
06482		8.431870	-1.817983	-0.146570	0.117703	0.132838	0.065093	-0.554932	-0.359131	0.535156	-127.211878	-83.404573	-38.299383
06483		8.652613	-2.101755	-0.047279	0.127284	0.168057	0.040150	-0.550537	-0.367188	0.529785	-126.347315	-83.442511	-39.092550
06484		8.782211	-2.181207	-0.059862	0.189414	0.181740	0.010109	-0.567139	-0.369873	0.529053	-125.466606	-83.497941	-39.865563
06485		8.955466	-2.110038	-0.145471	0.298766	0.133599	-0.025658	-0.562256	-0.356689	0.526367	-124.815560	-83.552735	-40.344798
06486		9.142217	-1.897726	-0.336312	0.391168	0.073093	-0.066639	-0.562988	-0.352783	0.536133	-124.472135	-83.606957	-40.460678
06487		9.232657	-1.597131	-0.498649	0.458880	0.019263	-0.115520	-0.562500	-0.351318	0.536865	-124.460789	-83.666486	-40.203835
06488		9.254925	-1.371651	-0.523931	0.510567	-0.023372	-0.134901	-0.559570	-0.354980	0.540771	-124.658523	-83.721513	-39.706443
06489		9.194725	-1.181254	-0.537354	0.494435	-0.041281	-0.157719	-0.556641	-0.357910	0.540039	-125.021223	-83.780883	-39.052882
06490		9.176874	-1.100690	-0.516791	0.456372	-0.029848	-0.167076	-0.558105	-0.350342	0.546631	-125.391353	-83.848199	-38.413453
06491		9.138615	-0.978343	-0.574369	0.429584	-0.000168	-0.165823	-0.566406	-0.346436	0.541504	-125.658455	-83.924181	-37.893573
06492		9.132255	-0.903688	-0.649218	0.392578	0.004830	-0.167037	-0.562012	-0.352783	0.547363	-125.934884	-84.002380	-37.385312
06493		9.137356	-0.836422	-0.822932	0.355316	-0.028531	-0.161767	-0.558594	-0.344482	0.546387	-126.377896	-84.066283	-36.731491
06494		9.183271	-0.822403	-0.918016	0.313740	-0.071393	-0.167047	-0.557861	-0.349609	0.546875	-127.061083	-84.117497	-35.859847
06495		9.216715	-0.801999	-1.091583	0.323187	-0.078202	-0.164080	-0.560547	-0.346436	0.548828	-127.776033	-84.163648	-34.951289
06496		9.175338	-0.738161	-1.180444	0.336409	-0.102820	-0.178419	-0.558838	-0.350342	0.550781	-128.651736	-84.206472	-33.873251
06497		9.159342	-0.719268	-1.413291	0.364409	-0.136330	-0.191624	-0.556885	-0.348389	0.552002	-129.723592	-84.240926	-32.582362
06498		9.121795	-0.715956	-1.574968	0.397576	-0.143551	-0.210511	-0.552490	-0.352295	0.560547	-130.888842	-84.278638	-31.178275
