// General information: 
//  MT Manager version: 2022.2.0 
//  XDA version: 2022.2.0 build 7381 rev 124627 built on 2023-07-19
// Device information: 
//  DeviceId: 00B4C3A0
//  ProductCode: MTW2-3A7G6
//  Firmware Version: 4.6.0
//  Hardware Version: 2.0.0
// Device settings: 
//  Filter Profile: human(46.1)
//  Option Flags: Orientation Smoother Disabled, Position/Velocity Smoother Disabled, Continuous Zero Rotation Update Disabled, AHS Disabled, ICC Disabled
// Coordinate system: ENU
PacketCounter	SampleTimeFine	Acc_X	Acc_Y	Acc_Z	Gyr_X	Gyr_Y	Gyr_Z	Mag_X	Mag_Y	Mag_Z	Roll	Pitch	Yaw
06206		9.473329	0.251324	-1.697730	0.078667	-0.111332	0.015159	-0.302734	-0.217773	0.685547	169.701625	-77.329055	-29.303916
06207		9.440659	0.220337	-1.707220	0.055382	-0.097010	0.006116	-0.305908	-0.214355	0.691406	169.810156	-77.282077	-29.378508
06208		9.411410	0.228633	-1.685760	0.049175	-0.092954	0.002260	-0.297363	-0.220459	0.700928	169.894210	-77.228592	-29.431580
06209		9.409947	0.228306	-1.693950	0.035440	-0.079047	-0.010511	-0.296387	-0.208496	0.689941	169.940904	-77.190001	-29.454466
06210		9.441941	0.314808	-1.814450	0.021266	-0.058257	-0.014106	-0.302490	-0.209473	0.698975	169.952446	-77.154434	-29.449587
06211		9.461341	0.353826	-1.910455	0.021134	-0.047158	-0.016094	-0.295166	-0.207275	0.698486	169.963170	-77.133245	-29.443662
06212		9.432909	0.364448	-1.883978	0.033303	-0.037923	-0.016304	-0.305908	-0.219727	0.697021	169.967274	-77.108932	-29.424077
06213		9.506677	0.389940	-1.847682	0.041887	-0.036340	-0.020623	-0.298340	-0.206055	0.699219	169.973758	-77.093419	-29.401811
06214		9.485649	0.353196	-1.760259	0.044167	-0.035945	-0.020255	-0.309326	-0.216309	0.697510	169.973555	-77.069829	-29.371418
06215		9.569381	0.344571	-1.839937	0.026398	-0.019570	-0.014241	-0.303711	-0.208008	0.700928	169.979597	-77.064489	-29.357728
06216		9.594858	0.316593	-1.887258	0.009144	-0.016414	-0.011494	-0.305664	-0.209229	0.700195	169.972413	-77.052792	-29.340759
06217		9.624249	0.202413	-1.904193	0.016201	-0.024445	-0.007752	-0.299561	-0.210693	0.694092	169.990661	-77.045331	-29.345507
06218		9.685616	0.178810	-1.844249	0.048602	-0.037230	0.002697	-0.300293	-0.202148	0.694336	170.049836	-77.023300	-29.373432
06219		9.686603	0.196262	-1.833217	0.075020	-0.040341	0.011214	-0.300049	-0.212158	0.694824	170.154803	-77.008620	-29.432644
06220		9.645663	0.236147	-1.847616	0.085259	-0.030427	0.019036	-0.300537	-0.209961	0.702881	170.271676	-76.992000	-29.498232
06221		9.580667	0.323629	-1.801782	0.087393	-0.041986	0.023391	-0.300293	-0.207031	0.701172	170.413558	-76.977520	-29.588243
06222		9.473935	0.273001	-1.653557	0.083647	-0.061622	0.023297	-0.301270	-0.213379	0.701172	170.552125	-76.943608	-29.677059
06223		9.474700	0.295119	-1.451540	0.068218	-0.038151	0.034200	-0.291748	-0.201904	0.697266	170.707083	-76.932224	-29.791769
06224		9.390636	0.301325	-1.375312	0.024575	0.022330	0.034021	-0.297607	-0.210938	0.704590	170.803795	-76.946679	-29.872370
06225		9.396755	0.393449	-1.454259	-0.010713	0.086986	0.022318	-0.297119	-0.200684	0.697510	170.835113	-77.004827	-29.906482
06226		9.456900	0.527887	-1.669445	0.008949	0.122347	0.023556	-0.298584	-0.203369	0.698486	170.858270	-77.074875	-29.920760
06227		9.541675	0.576905	-1.814197	0.000601	0.129720	0.020596	-0.296875	-0.214844	0.698730	170.875338	-77.157103	-29.933481
06228		9.588266	0.526636	-1.824313	-0.000609	0.137547	0.026539	-0.299072	-0.214355	0.704590	170.894754	-77.236019	-29.949531
06229		9.612251	0.462880	-1.693718	-0.000891	0.143301	0.033030	-0.300781	-0.209961	0.690430	170.936593	-77.327011	-29.988963
06230		9.664347	0.345163	-1.655595	-0.015390	0.168015	0.035225	-0.304199	-0.210693	0.695313	170.957832	-77.423945	-30.015547
06231		9.644556	0.302433	-1.704657	-0.027946	0.203668	0.048165	-0.305176	-0.213135	0.691406	170.999414	-77.550503	-30.070444
06232		9.690497	0.247761	-1.865944	0.021501	0.200375	0.054627	-0.305664	-0.213135	0.697998	171.079846	-77.667474	-30.135969
06233		9.713278	0.194946	-2.031508	0.128618	0.189395	0.073938	-0.308838	-0.199951	0.693359	171.287033	-77.788156	-30.268529
06234		9.697794	0.182179	-2.050981	0.264753	0.189921	0.096951	-0.312012	-0.202393	0.693115	171.627555	-77.902701	-30.457478
06235		9.623189	0.193048	-1.818786	0.359101	0.181332	0.117102	-0.312500	-0.203369	0.690918	172.094072	-78.021961	-30.719695
06236		9.454460	0.181417	-1.510252	0.359805	0.125160	0.122680	-0.310547	-0.189453	0.696289	172.593337	-78.101066	-31.015082
06237		9.411835	0.092822	-1.320294	0.302191	0.040490	0.119303	-0.308594	-0.194580	0.687256	173.093822	-78.139426	-31.345216
06238		9.384747	-0.079868	-1.347766	0.219102	0.011880	0.105203	-0.312012	-0.191895	0.694824	173.509531	-78.151869	-31.637507
06239		9.359077	-0.111533	-1.523217	0.172886	0.007306	0.105391	-0.311279	-0.196289	0.699463	173.911665	-78.169414	-31.942903
06240		9.350821	-0.161642	-1.676736	0.151163	-0.014464	0.100442	-0.310059	-0.189453	0.693115	174.284249	-78.165726	-32.230881
06241		9.266656	-0.081393	-1.670965	0.138041	-0.053924	0.098742	-0.313721	-0.194336	0.698730	174.665391	-78.147147	-32.535272
06242		9.232546	-0.030743	-1.550556	0.100765	-0.075218	0.100229	-0.310059	-0.182617	0.697754	175.022171	-78.108011	-32.836651
06243		9.100008	0.046552	-1.412012	0.040387	-0.059334	0.098569	-0.317139	-0.181885	0.703369	175.345576	-78.085587	-33.139163
06244		9.079396	0.081689	-1.390767	-0.031222	-0.023839	0.098548	-0.306885	-0.189697	0.696533	175.607919	-78.075039	-33.421365
06245		9.027017	0.084516	-1.524159	-0.087806	-0.007989	0.093875	-0.306641	-0.188477	0.695068	175.833347	-78.081182	-33.698736
06246		9.086514	0.154776	-1.637047	-0.110861	-0.012516	0.092107	-0.310791	-0.193115	0.692871	176.030003	-78.076382	-33.960440
06247		9.159348	0.212980	-1.693871	-0.143990	-0.029369	0.089785	-0.310059	-0.186279	0.702148	176.215871	-78.069648	-34.230575
06248		9.184362	0.117938	-1.660450	-0.196038	-0.041920	0.075280	-0.313965	-0.185791	0.694092	176.322830	-78.047090	-34.450500
06249		9.211507	-0.000246	-1.675738	-0.230765	-0.030335	0.055710	-0.316162	-0.190430	0.688721	176.366743	-78.038386	-34.625989
06250		9.266482	-0.127245	-1.720242	-0.241595	-0.011606	0.042322	-0.318359	-0.195557	0.693115	176.352868	-78.031890	-34.749097
06251		9.294432	-0.181609	-1.814088	-0.249526	0.004627	0.031896	-0.313721	-0.199707	0.696289	176.315698	-78.042410	-34.853011
06252		9.308593	-0.281866	-1.883731	-0.260305	0.007814	0.027178	-0.309082	-0.195557	0.697754	176.246941	-78.046490	-34.930974
06253		9.416262	-0.313368	-1.813130	-0.270489	-0.009551	0.022603	-0.309814	-0.191406	0.688477	176.175418	-78.048388	-35.012001
06254		9.433616	-0.329617	-1.791906	-0.276943	-0.004621	0.021255	-0.311279	-0.193848	0.691406	176.083371	-78.045173	-35.075901
06255		9.474680	-0.351254	-1.766380	-0.281380	0.006434	0.026778	-0.312012	-0.197754	0.692383	176.014503	-78.056345	-35.165622
06256		9.471189	-0.282145	-1.812252	-0.277796	0.010784	0.027525	-0.315430	-0.202881	0.701416	175.936093	-78.062223	-35.243957
06257		9.463528	-0.207893	-1.824284	-0.279303	-0.003052	0.029613	-0.307617	-0.203857	0.692627	175.878304	-78.068183	-35.343880
06258		9.329660	-0.141384	-1.852141	-0.274691	-0.032165	0.037536	-0.310791	-0.201172	0.688477	175.837072	-78.049965	-35.458397
06259		9.292972	-0.120392	-1.758113	-0.265511	-0.049430	0.044219	-0.314209	-0.197998	0.684082	175.835583	-78.029876	-35.607814
06260		9.215235	-0.118292	-1.755178	-0.272982	-0.055401	0.043674	-0.308105	-0.205078	0.692139	175.816033	-77.998648	-35.743515
06261		9.202152	-0.145851	-1.722969	-0.286218	-0.054536	0.037924	-0.313721	-0.205566	0.693848	175.786629	-77.975416	-35.876305
06262		9.209329	-0.153405	-1.795889	-0.301555	-0.043871	0.037628	-0.314697	-0.202148	0.688232	175.731804	-77.950554	-35.992703
06263		9.240173	-0.165444	-1.864582	-0.305197	-0.036988	0.032737	-0.309082	-0.219482	0.696045	175.674311	-77.937230	-36.107753
06264		9.290611	-0.177167	-1.895522	-0.309603	-0.035561	0.020109	-0.304688	-0.208008	0.691162	175.566314	-77.916408	-36.174507
06265		9.317649	-0.182547	-1.929125	-0.304139	-0.017824	0.014276	-0.309326	-0.224365	0.691895	175.456029	-77.913040	-36.235294
06266		9.394268	-0.220898	-2.003203	-0.302161	0.011888	0.007674	-0.315918	-0.214844	0.696289	175.309246	-77.918800	-36.258024
06267		9.414314	-0.216999	-1.964033	-0.275512	0.037792	0.004804	-0.308105	-0.220215	0.685791	175.178314	-77.946912	-36.281003
06268		9.468273	-0.208378	-1.972477	-0.238135	0.042776	0.003814	-0.310303	-0.218750	0.686523	175.050774	-77.970139	-36.285897
06269		9.533664	-0.234997	-1.940725	-0.201476	0.031341	-0.003101	-0.314209	-0.232666	0.685303	174.942279	-77.994000	-36.288351
06270		9.592670	-0.277047	-1.892117	-0.166790	0.009342	-0.000158	-0.310547	-0.219482	0.682373	174.852570	-77.997948	-36.290129
06271		9.576621	-0.340869	-1.886752	-0.146883	-0.003652	-0.002591	-0.312256	-0.229248	0.686035	174.785085	-78.001906	-36.302826
06272		9.548730	-0.328530	-1.858068	-0.126258	-0.028818	-0.010485	-0.310791	-0.229736	0.684082	174.700265	-77.983540	-36.285860
06273		9.465314	-0.338693	-1.835253	-0.109717	-0.043759	-0.015177	-0.316650	-0.221680	0.685547	174.630581	-77.963901	-36.274570
06274		9.338682	-0.300536	-1.788355	-0.102921	-0.044407	-0.025066	-0.309082	-0.229248	0.675537	174.524437	-77.935844	-36.222125
06275		9.249695	-0.259677	-1.824417	-0.095238	-0.042472	-0.030457	-0.302246	-0.231201	0.686279	174.422714	-77.916081	-36.169294
06276		9.184310	-0.183052	-1.791293	-0.085126	-0.042918	-0.038759	-0.305420	-0.229492	0.690918	174.290663	-77.888060	-36.079916
06277		9.187657	-0.140592	-1.763780	-0.083060	-0.041550	-0.046134	-0.310059	-0.231201	0.682373	174.154703	-77.867653	-35.984968
06278		9.265681	-0.076596	-1.695328	-0.083481	-0.055407	-0.053512	-0.305664	-0.232178	0.695801	173.989014	-77.831549	-35.860200
06279		9.357221	-0.069905	-1.637481	-0.081693	-0.054951	-0.048516	-0.303223	-0.224854	0.686768	173.852536	-77.803371	-35.763883
06280		9.451022	-0.020013	-1.705354	-0.087287	-0.037975	-0.047581	-0.309814	-0.229736	0.681885	173.696748	-77.777429	-35.651449
06281		9.497633	0.040900	-1.779092	-0.095622	-0.041745	-0.048692	-0.307373	-0.237549	0.680420	173.549130	-77.756598	-35.551617
06282		9.496618	0.047038	-1.784348	-0.086748	-0.069790	-0.046365	-0.307129	-0.233887	0.691895	173.407494	-77.712501	-35.453325
06283		9.485457	0.041259	-1.739234	-0.081114	-0.085038	-0.046683	-0.304199	-0.227539	0.691895	173.287646	-77.667107	-35.373830
06284		9.490068	0.036277	-1.624013	-0.078675	-0.098700	-0.037506	-0.307617	-0.234863	0.683350	173.184168	-77.607070	-35.309830
06285		9.473186	0.054148	-1.496894	-0.076044	-0.102167	-0.032695	-0.313232	-0.241699	0.687012	173.110274	-77.552811	-35.273938
06286		9.506468	0.043053	-1.606563	-0.096539	-0.116389	-0.026157	-0.308350	-0.236328	0.685303	173.032637	-77.483459	-35.246858
06287		9.466664	0.070064	-1.677157	-0.120986	-0.137191	-0.031703	-0.303711	-0.233643	0.693115	172.947600	-77.409500	-35.226424
06288		9.452039	0.005037	-1.721426	-0.134535	-0.175375	-0.034369	-0.302246	-0.227051	0.687500	172.847293	-77.306011	-35.198405
06289		9.496082	0.000622	-1.733151	-0.140163	-0.199498	-0.046115	-0.298096	-0.242188	0.682617	172.736498	-77.195414	-35.161972
06290		9.550216	-0.056856	-1.722239	-0.150208	-0.187299	-0.051892	-0.299072	-0.245850	0.691162	172.589750	-77.083844	-35.095504
06291		9.530464	-0.049927	-1.810732	-0.149601	-0.170865	-0.056171	-0.302246	-0.237305	0.687988	172.442197	-76.988681	-35.027830
06292		9.596426	-0.076254	-1.833588	-0.135439	-0.149881	-0.052765	-0.290771	-0.241699	0.690430	172.292985	-76.898218	-34.950094
06293		9.557400	-0.027587	-1.890338	-0.127925	-0.156365	-0.053245	-0.288574	-0.246826	0.696777	172.163454	-76.811433	-34.887557
06294		9.572843	0.043646	-1.945417	-0.077826	-0.190699	-0.051771	-0.292725	-0.255371	0.683594	172.066096	-76.697806	-34.829119
06295		9.481936	0.043464	-2.093182	-0.017619	-0.188806	-0.049835	-0.290527	-0.248779	0.687988	172.020795	-76.592763	-34.788833
06296		9.531394	0.074567	-2.066262	-0.047626	-0.034523	-0.042920	-0.290771	-0.254639	0.682129	171.911370	-76.568415	-34.700161
06297		9.471021	0.101296	-1.934693	-0.032805	0.031606	-0.040098	-0.296875	-0.241943	0.692383	171.807203	-76.589140	-34.608395
06298		9.486221	0.087313	-1.878576	0.010481	-0.010447	-0.034195	-0.290771	-0.244385	0.691162	171.743858	-76.579090	-34.532869
06299		9.483926	0.072013	-1.895020	0.009091	0.002941	-0.031666	-0.295898	-0.242432	0.693604	171.693721	-76.584293	-34.471095
06300		9.451941	0.067504	-1.843231	-0.011329	0.040032	-0.026781	-0.293457	-0.252930	0.688232	171.617937	-76.603440	-34.395631
06301		9.470867	0.049595	-1.818928	-0.012150	0.032694	-0.024951	-0.289307	-0.242432	0.690674	171.560880	-76.626047	-34.339629
06302		9.462809	0.124200	-1.823381	0.011731	0.018232	-0.021080	-0.294434	-0.238281	0.693848	171.519266	-76.633284	-34.285717
06303		9.424220	0.149277	-1.880396	0.006150	-0.001140	-0.028826	-0.294434	-0.244629	0.697021	171.475325	-76.636276	-34.231877
06304		9.392873	0.123864	-1.881069	-0.002337	-0.000239	-0.036264	-0.292236	-0.246094	0.687744	171.396007	-76.631730	-34.147497
06305		9.369012	0.132896	-1.884264	-0.018957	-0.010738	-0.041766	-0.295410	-0.238037	0.692627	171.310240	-76.628173	-34.065837
06306		9.370852	0.155380	-1.869385	-0.026547	-0.015707	-0.039703	-0.285889	-0.239746	0.691406	171.214660	-76.614509	-33.978997
06307		9.380158	0.126241	-1.797541	-0.031802	-0.015579	-0.033199	-0.297852	-0.244873	0.693604	171.143871	-76.608815	-33.919859
06308		9.421974	0.188941	-1.834103	-0.026608	-0.003603	-0.028239	-0.290771	-0.248291	0.691895	171.071264	-76.602964	-33.856663
06309		9.434917	0.240869	-1.853834	-0.028099	0.012589	-0.022345	-0.289795	-0.244385	0.685059	171.017887	-76.614254	-33.813752
06310		9.449155	0.186529	-1.864074	-0.042465	0.009975	-0.020052	-0.286377	-0.241211	0.693848	170.950550	-76.616791	-33.765315
06311		9.447192	0.171348	-1.879093	-0.053457	0.011364	-0.025222	-0.293457	-0.250244	0.688477	170.875976	-76.626916	-33.715377
06312		9.447387	0.174617	-1.877815	-0.055867	0.013707	-0.022254	-0.290771	-0.256348	0.696289	170.794209	-76.631333	-33.660003
06313		9.421751	0.164742	-1.895378	-0.059581	0.010725	-0.022562	-0.288818	-0.250977	0.690186	170.722551	-76.641435	-33.617253
06314		9.397210	0.133958	-1.963838	-0.066236	0.003657	-0.020039	-0.295654	-0.253662	0.691162	170.643944	-76.640341	-33.571237
06315		9.368112	0.126527	-1.948195	-0.054142	-0.000774	-0.017062	-0.295410	-0.239502	0.696533	170.592927	-76.644392	-33.546390
06316		9.357176	0.183008	-1.971042	-0.039892	-0.003792	-0.011030	-0.290771	-0.247559	0.691650	170.553809	-76.639913	-33.525447
06317		9.355957	0.205483	-1.920595	-0.042118	0.002249	-0.006654	-0.287109	-0.251221	0.685059	170.533400	-76.646633	-33.524214
06318		9.398212	0.181140	-1.896119	-0.043192	0.018363	-0.005349	-0.284668	-0.260254	0.688232	170.497110	-76.655205	-33.508120
06319		9.411473	0.231190	-1.913939	-0.029250	0.025709	0.001063	-0.295654	-0.253174	0.685059	170.492754	-76.675719	-33.516862
06320		9.457279	0.203358	-1.922516	-0.033051	0.020884	0.000048	-0.295654	-0.247559	0.692871	170.474091	-76.686225	-33.512914
06321		9.455703	0.185551	-1.936210	-0.039919	0.030661	0.007712	-0.291992	-0.242432	0.687744	170.477743	-76.710354	-33.535638
06322		9.430524	0.172693	-1.952079	-0.045511	0.031815	0.006451	-0.292480	-0.246826	0.689941	170.462855	-76.727644	-33.542905
06323		9.420268	0.141802	-1.913326	-0.031087	0.023215	0.005759	-0.296631	-0.251465	0.685547	170.469922	-76.747254	-33.563533
06324		9.407034	0.139223	-2.016499	-0.019033	0.025416	0.003101	-0.296875	-0.253174	0.687988	170.464760	-76.760610	-33.565206
06325		9.358214	0.131192	-2.034981	-0.009879	0.041257	0.006468	-0.288086	-0.247314	0.683350	170.478470	-76.790547	-33.580735
06326		9.354419	0.154294	-1.946213	-0.013909	0.043984	0.002463	-0.292236	-0.251465	0.681152	170.467208	-76.814334	-33.573127
06327		9.368038	0.117821	-1.903771	-0.010686	0.033913	0.008270	-0.291504	-0.248047	0.696045	170.487716	-76.840074	-33.596039
06328		9.365288	0.120154	-1.866380	-0.017216	0.032501	0.002460	-0.298096	-0.246094	0.693115	170.479200	-76.857373	-33.593197
06329		9.415492	0.127883	-1.840962	-0.015303	0.046079	0.006606	-0.300781	-0.254883	0.692383	170.488442	-76.889977	-33.606724
06330		9.383347	0.166177	-1.911946	-0.007719	0.055695	0.008650	-0.288086	-0.262207	0.691162	170.490963	-76.920969	-33.609629
06331		9.410180	0.178323	-1.887620	0.001566	0.057487	0.010234	-0.295654	-0.243408	0.684326	170.514054	-76.960331	-33.628322
06332		9.391015	0.179940	-1.919334	0.001471	0.055631	0.009525	-0.300781	-0.257080	0.683594	170.524089	-76.991369	-33.633533
06333		9.397872	0.148149	-1.806772	0.003210	0.056241	0.004119	-0.290283	-0.251465	0.689453	170.533788	-77.029405	-33.637133
06334		9.373132	0.135130	-1.820793	-0.010637	0.050736	-0.001645	-0.290527	-0.258301	0.686035	170.511493	-77.056623	-33.616287
06335		9.361251	0.171697	-1.855427	-0.016528	0.037928	-0.000090	-0.290527	-0.248291	0.684570	170.506911	-77.083771	-33.617069
06336		9.369389	0.205868	-1.853916	-0.017903	0.030779	-0.004087	-0.299805	-0.254395	0.682129	170.482533	-77.099478	-33.598360
06337		9.373426	0.204139	-1.885517	-0.025315	0.024842	-0.004740	-0.292480	-0.253418	0.692383	170.466799	-77.118818	-33.592701
06338		9.351814	0.189604	-1.936138	-0.029350	0.032193	-0.004685	-0.296387	-0.250488	0.692139	170.433692	-77.135264	-33.571769
06339		9.367042	0.172275	-1.878048	-0.021445	0.031478	-0.003008	-0.290527	-0.249512	0.690674	170.421683	-77.158534	-33.567429
06340		9.373250	0.188338	-1.892609	-0.008013	0.040820	-0.001624	-0.294434	-0.250977	0.686279	170.404664	-77.180143	-33.550462
06341		9.360957	0.139680	-1.869181	-0.013502	0.039189	-0.006274	-0.299072	-0.252930	0.685303	170.385679	-77.207356	-33.534290
06342		9.372708	0.171852	-1.901720	-0.018404	0.032760	-0.009195	-0.300537	-0.251709	0.691895	170.347123	-77.223683	-33.501347
06343		9.378645	0.188707	-1.917644	-0.024981	0.009872	-0.009220	-0.293701	-0.252930	0.689209	170.326591	-77.234161	-33.490445
06344		9.409474	0.133070	-1.857529	-0.023352	0.000228	-0.010384	-0.296143	-0.252197	0.685303	170.295966	-77.231992	-33.468543
06345		9.429572	0.131776	-1.820309	-0.024566	0.001390	-0.008903	-0.299561	-0.243164	0.686035	170.279945	-77.237575	-33.462075
06346		9.393285	0.174406	-1.861759	-0.021219	0.001618	-0.007319	-0.298096	-0.250732	0.684326	170.257590	-77.236485	-33.447400
06347		9.420539	0.168009	-1.893253	-0.017937	-0.004612	-0.010516	-0.302246	-0.246582	0.690674	170.243934	-77.238541	-33.439104
06348		9.352909	0.182348	-1.936627	-0.016809	-0.007617	-0.012705	-0.291992	-0.257324	0.694092	170.214652	-77.231710	-33.414735
06349		9.348859	0.147906	-1.969911	-0.014030	-0.007209	-0.016923	-0.299072	-0.251465	0.685547	170.188436	-77.231681	-33.391409
06350		9.319792	0.177961	-1.888336	-0.006167	-0.001318	-0.020878	-0.295410	-0.255859	0.683350	170.142218	-77.227600	-33.343423
06351		9.337958	0.159027	-1.867400	-0.001541	0.004210	-0.015994	-0.300781	-0.258057	0.684082	170.120430	-77.234015	-33.317651
06352		9.389313	0.186407	-1.828465	-0.000077	0.008563	-0.015359	-0.297852	-0.256592	0.691650	170.087158	-77.236043	-33.279362
06353		9.407604	0.167190	-1.806920	0.001135	0.007399	-0.016842	-0.304688	-0.260498	0.689209	170.063405	-77.244222	-33.250146
06354		9.444097	0.174291	-1.890068	0.005260	0.001892	-0.016196	-0.303223	-0.258057	0.695313	170.033990	-77.242395	-33.212677
06355		9.480645	0.219910	-1.907243	0.002924	-0.011615	-0.015742	-0.292969	-0.245605	0.689209	170.022398	-77.240047	-33.194857
06356		9.498487	0.200572	-1.888006	0.007910	-0.021022	-0.015327	-0.293945	-0.252441	0.696289	170.006746	-77.225371	-33.169943
06357		9.448852	0.193971	-1.911409	0.016101	-0.007769	-0.016459	-0.288818	-0.250000	0.693359	169.999046	-77.224867	-33.147660
06358		9.370153	0.176685	-1.918962	0.020828	-0.005021	-0.014946	-0.295654	-0.254883	0.685059	169.984766	-77.219256	-33.116561
06359		9.397552	0.208787	-1.884091	0.027897	-0.006442	-0.017107	-0.297607	-0.249756	0.690918	169.981564	-77.219375	-33.092366
06360		9.368242	0.199268	-1.869375	0.022286	-0.000671	-0.014314	-0.292480	-0.246582	0.692139	169.967797	-77.216278	-33.060936
06361		9.391936	0.195066	-1.866506	0.018832	0.001876	-0.012529	-0.294678	-0.245605	0.687744	169.967135	-77.221583	-33.044332
06362		9.393852	0.214085	-1.850075	0.022635	0.002059	-0.015569	-0.293213	-0.242676	0.684814	169.949241	-77.219899	-33.008466
06363		9.406591	0.178824	-1.811074	0.028572	0.003642	-0.015542	-0.293701	-0.263428	0.689697	169.945743	-77.225805	-32.983175
06364		9.370183	0.221018	-1.852501	0.025980	0.002288	-0.013987	-0.293213	-0.246582	0.690186	169.933590	-77.224407	-32.951231
06365		9.379278	0.235084	-1.904560	0.021603	0.002267	-0.016753	-0.297363	-0.250488	0.690674	169.923704	-77.229454	-32.924185
06366		9.366458	0.187178	-1.884445	0.008269	0.007787	-0.018311	-0.291992	-0.248535	0.691895	169.888197	-77.230720	-32.878701
06367		9.404887	0.165482	-1.825902	0.003089	0.005087	-0.015198	-0.292480	-0.246338	0.684570	169.870253	-77.237497	-32.853861
06368		9.436018	0.195328	-1.824416	-0.008214	0.001748	-0.009449	-0.295166	-0.253174	0.687012	169.850029	-77.236242	-32.833730
06369		9.412330	0.201247	-1.827049	-0.013230	0.002730	-0.004927	-0.295410	-0.249512	0.684082	169.849259	-77.242651	-32.836279
06370		9.419590	0.197000	-1.895179	-0.016497	0.004332	-0.005807	-0.297607	-0.251221	0.692627	169.832201	-77.243220	-32.824261
06371		9.384977	0.257193	-1.920660	-0.011585	-0.006913	-0.006089	-0.293701	-0.249756	0.684326	169.833823	-77.244117	-32.828242
06372		9.380970	0.221832	-1.954281	-0.002788	-0.016132	-0.008707	-0.293701	-0.255859	0.687012	169.826543	-77.232852	-32.818196
06373		9.395309	0.204522	-1.900579	0.000909	-0.013160	-0.008378	-0.293701	-0.252686	0.695068	169.832331	-77.229903	-32.819356
06374		9.386089	0.192260	-1.849023	0.004441	-0.000817	-0.010328	-0.284912	-0.245605	0.686279	169.818335	-77.227110	-32.798176
06375		9.371498	0.211060	-1.903733	0.007170	0.008846	-0.006400	-0.293945	-0.250732	0.693115	169.822753	-77.236711	-32.793870
06376		9.411749	0.253352	-1.954194	0.003391	0.004030	-0.007435	-0.293701	-0.251953	0.692139	169.813178	-77.236944	-32.777841
06377		9.426429	0.235683	-1.898896	0.005096	0.000860	-0.003818	-0.293701	-0.249023	0.691162	169.826452	-77.242369	-32.783929
06378		9.452125	0.287715	-1.813228	0.003291	-0.006232	-0.003195	-0.297607	-0.247070	0.686768	169.831960	-77.237244	-32.783424
06379		9.444696	0.254308	-1.811893	-0.002136	-0.001406	-0.003067	-0.298096	-0.249756	0.682129	169.843888	-77.241433	-32.792266
06380		9.450236	0.270192	-1.829477	-0.013175	0.009196	-0.000147	-0.294922	-0.249756	0.684326	169.840663	-77.245317	-32.792480
06381		9.421233	0.260129	-1.813312	-0.023060	0.012157	-0.003490	-0.292236	-0.248047	0.683838	169.833406	-77.257065	-32.794249
06382		9.386667	0.281626	-1.904404	-0.032615	0.009429	-0.003145	-0.294678	-0.248291	0.690674	169.811456	-77.260777	-32.786685
06383		9.405052	0.261890	-1.882744	-0.028136	0.006659	-0.003750	-0.292236	-0.252441	0.686279	169.803028	-77.269350	-32.789987
06384		9.394152	0.231733	-1.846423	-0.025872	0.000645	-0.008129	-0.286621	-0.256592	0.690186	169.776436	-77.267602	-32.773702
06385		9.419765	0.245827	-1.826992	-0.023657	0.003888	-0.004356	-0.301758	-0.250244	0.689209	169.770257	-77.274489	-32.777110
06386		9.377849	0.272339	-1.850312	-0.028570	0.002073	-0.003206	-0.289551	-0.250977	0.689209	169.753764	-77.274046	-32.772765
06387		9.375916	0.254983	-1.866857	-0.026161	-0.008680	-0.001236	-0.291016	-0.245605	0.684082	169.759621	-77.274243	-32.789600
06388		9.373916	0.237365	-1.883776	-0.019114	-0.005465	0.000683	-0.284668	-0.248535	0.682861	169.761653	-77.269946	-32.798692
06389		9.346622	0.245038	-1.852190	-0.019309	0.008530	0.002490	-0.292480	-0.251221	0.679199	169.772771	-77.280005	-32.816827
06390		9.359667	0.209130	-1.812002	-0.024724	0.021772	-0.002316	-0.287842	-0.253906	0.691162	169.751813	-77.290759	-32.805645
06391		9.380091	0.168712	-1.839510	-0.026620	0.025883	-0.003266	-0.294434	-0.253906	0.684326	169.736566	-77.310071	-32.801398
06392		9.411495	0.198350	-1.836375	-0.026158	0.012781	-0.007038	-0.296875	-0.243408	0.688477	169.706986	-77.315272	-32.782222
06393		9.380529	0.170840	-1.837076	-0.024935	-0.001431	-0.007671	-0.293945	-0.253662	0.687744	169.694083	-77.318803	-32.778978
06394		9.389602	0.223683	-1.822794	-0.016314	-0.009686	-0.007630	-0.303711	-0.253418	0.691162	169.678882	-77.311276	-32.768759
06395		9.367515	0.247815	-1.810319	-0.020014	-0.012667	-0.007968	-0.299316	-0.253174	0.683350	169.673269	-77.308522	-32.770354
06396		9.369093	0.228694	-1.861722	-0.022590	-0.005600	-0.011347	-0.292236	-0.249756	0.693115	169.643329	-77.302915	-32.748713
06397		9.348906	0.232751	-1.899095	-0.025969	-0.001224	-0.008852	-0.300293	-0.257080	0.679199	169.626761	-77.306421	-32.742443
06398		9.388993	0.189937	-1.891887	-0.014888	-0.000712	-0.002908	-0.293457	-0.256348	0.683350	169.620124	-77.304437	-32.740166
06399		9.392704	0.226479	-1.859080	0.001830	0.002474	-0.004691	-0.299316	-0.249512	0.690918	169.628169	-77.310400	-32.743465
06400		9.445691	0.232474	-1.870854	-0.003872	0.006389	-0.002600	-0.298584	-0.255615	0.693359	169.625360	-77.312450	-32.738641
06401		9.420171	0.219902	-1.889763	-0.007731	-0.000271	-0.004358	-0.293945	-0.250244	0.691650	169.630090	-77.317003	-32.743384
06402		9.377967	0.246177	-1.914440	-0.006063	-0.022954	-0.004696	-0.290039	-0.252441	0.678955	169.634218	-77.302298	-32.746958
06403		9.397482	0.244097	-1.880195	-0.008456	-0.038311	-0.004971	-0.296387	-0.254883	0.695313	169.654167	-77.285118	-32.767915
06404		9.371315	0.269953	-1.835870	-0.015721	-0.035979	-0.000147	-0.285889	-0.257568	0.687500	169.670003	-77.263540	-32.789166
06405		9.401832	0.298972	-1.837190	-0.021517	-0.020854	0.000397	-0.300049	-0.256592	0.690918	169.687887	-77.256795	-32.815887
06406		9.375888	0.286174	-1.858143	-0.021623	-0.018075	0.003773	-0.298584	-0.248535	0.692139	169.701903	-77.245708	-32.838740
06407		9.381003	0.301697	-1.877723	-0.012675	-0.018965	0.006639	-0.296387	-0.249023	0.685791	169.739508	-77.240782	-32.880092
06408		9.364123	0.301780	-1.950555	0.001039	-0.013276	0.002015	-0.292480	-0.256836	0.693359	169.759901	-77.232217	-32.896173
06409		9.349365	0.272886	-1.881999	0.000215	-0.018624	-0.005921	-0.293701	-0.253662	0.683838	169.773276	-77.226055	-32.905252
06410		9.380149	0.216378	-1.824440	-0.000815	-0.018408	-0.007102	-0.288818	-0.246338	0.688477	169.772209	-77.213668	-32.900417
06411		9.396302	0.178524	-1.821372	-0.007880	-0.008579	-0.009859	-0.293701	-0.260498	0.680908	169.766490	-77.212644	-32.894568
06412		9.384929	0.195372	-1.911398	0.005720	-0.008540	-0.006187	-0.293945	-0.249268	0.686523	169.767026	-77.205914	-32.887536
06413		9.441330	0.237200	-1.892156	0.016219	-0.016284	-0.001136	-0.290527	-0.253418	0.688232	169.800268	-77.201458	-32.908030
06414		9.426435	0.293593	-1.881933	0.017849	-0.021303	0.001761	-0.297852	-0.249756	0.688721	169.833144	-77.188336	-32.927036
06415		9.428157	0.225399	-1.809255	0.011467	-0.014431	0.001432	-0.299316	-0.253662	0.694092	169.869127	-77.185205	-32.952650
06416		9.406096	0.248113	-1.796864	0.004739	-0.010296	0.002352	-0.283691	-0.253906	0.686768	169.891003	-77.178346	-32.968080
06417		9.420298	0.276831	-1.867799	0.013271	-0.007329	0.000827	-0.292236	-0.243164	0.687500	169.923313	-77.179120	-32.989050
06418		9.425480	0.292073	-1.886947	0.015685	-0.018091	0.002775	-0.290771	-0.243408	0.688965	169.955895	-77.167903	-33.009029
06419		9.441724	0.291114	-1.818053	0.020256	-0.032077	0.003707	-0.287109	-0.249268	0.691650	170.009929	-77.154910	-33.047274
06420		9.418958	0.274798	-1.874844	0.025155	-0.038700	0.007475	-0.286865	-0.241699	0.688965	170.068376	-77.132521	-33.088220
06421		9.387495	0.283223	-1.813078	0.036175	-0.044667	0.008600	-0.286621	-0.250732	0.689941	170.148699	-77.112817	-33.144310
06422		9.424396	0.266810	-1.951387	0.047775	-0.037741	0.014686	-0.289795	-0.261719	0.693359	170.237081	-77.091650	-33.202676
06423		9.382139	0.290659	-1.975971	0.031925	0.015896	0.007969	-0.293457	-0.253662	0.685059	170.287533	-77.106122	-33.231727
06424		9.386116	0.286711	-2.008076	0.034148	0.032211	0.010897	-0.283691	-0.248535	0.705566	170.329130	-77.124070	-33.250106
06425		9.427167	0.279522	-1.931695	0.053860	0.019808	0.012750	-0.286377	-0.248779	0.689941	170.402429	-77.141191	-33.289087
06426		9.405903	0.214688	-1.858351	0.061602	0.015425	0.013003	-0.290283	-0.256592	0.694092	170.472192	-77.149846	-33.320220
06427		9.448455	0.186537	-1.832497	0.058392	0.036554	0.016054	-0.292725	-0.253906	0.695801	170.549517	-77.176660	-33.361063
06428		9.427196	0.168276	-1.881622	0.059658	0.054907	0.018485	-0.288086	-0.253418	0.690674	170.615726	-77.208128	-33.389688
06429		9.438998	0.157521	-1.978641	0.067187	0.069145	0.024614	-0.295166	-0.242432	0.693359	170.706598	-77.254175	-33.439370
06430		9.398385	0.140193	-2.061725	0.096130	0.089256	0.030421	-0.287354	-0.241943	0.689453	170.810235	-77.306147	-33.484932
06431		9.360235	0.139467	-2.126757	0.119766	0.109404	0.042698	-0.287842	-0.242920	0.686768	170.961563	-77.376472	-33.564726
06432		9.342609	0.173520	-2.087464	0.162673	0.103222	0.049295	-0.298340	-0.244629	0.698242	171.147238	-77.437978	-33.655258
06433		9.291686	0.198140	-2.000812	0.208690	0.072060	0.061940	-0.305420	-0.243408	0.682373	171.416049	-77.488690	-33.803518
06434		9.223357	0.175221	-1.863356	0.219698	0.035044	0.071246	-0.297363	-0.235352	0.693604	171.719528	-77.513219	-33.981215
06435		9.214825	0.151978	-1.808437	0.197737	0.029119	0.076118	-0.291504	-0.231934	0.688721	172.037172	-77.540438	-34.185938
06436		9.084123	0.117877	-1.799858	0.158022	0.049314	0.083113	-0.290527	-0.232178	0.687744	172.332798	-77.573576	-34.391743
06437		9.034184	0.041860	-1.898239	0.108595	0.087474	0.086479	-0.292236	-0.233887	0.694824	172.608415	-77.634012	-34.605354
06438		8.955561	-0.043735	-1.978604	0.064191	0.111621	0.086264	-0.302979	-0.240967	0.696533	172.841082	-77.702372	-34.801656
06439		8.944431	-0.180503	-2.080770	0.027250	0.112839	0.085233	-0.301514	-0.230469	0.691162	173.063614	-77.776912	-35.008951
06440		8.992178	-0.296537	-2.212562	0.004443	0.122213	0.088666	-0.297852	-0.228516	0.688965	173.269836	-77.851136	-35.213112
06441		9.156718	-0.377234	-2.210372	-0.006595	0.152335	0.084769	-0.304932	-0.233887	0.691650	173.464853	-77.947670	-35.411507
06442		9.334930	-0.369126	-2.159817	0.010286	0.162586	0.075287	-0.295898	-0.232666	0.689697	173.631809	-78.043729	-35.571964
06443		9.506253	-0.230347	-2.034770	0.048546	0.130273	0.060437	-0.303467	-0.234863	0.692871	173.805466	-78.125850	-35.716486
06444		9.610456	-0.223777	-2.014001	0.058402	0.076252	0.044966	-0.307861	-0.231934	0.692139	173.947522	-78.170680	-35.823240
06445		9.625265	-0.219336	-2.095570	0.029613	0.023110	0.033789	-0.301270	-0.233398	0.691406	174.071772	-78.190034	-35.928317
06446		9.545050	-0.298395	-2.185131	0.001598	-0.018122	0.024784	-0.304688	-0.239990	0.691895	174.154026	-78.179800	-36.007212
06447		9.493405	-0.326707	-2.226197	-0.015928	-0.034764	0.023694	-0.308838	-0.237305	0.683105	174.241049	-78.165396	-36.101337
06448		9.429895	-0.385239	-2.231331	-0.023397	-0.024835	0.025404	-0.300049	-0.237793	0.691895	174.312178	-78.151324	-36.183505
06449		9.466910	-0.370363	-2.106618	-0.017589	0.021191	0.029149	-0.305664	-0.231201	0.689209	174.397950	-78.169009	-36.277542
06450		9.461715	-0.348276	-2.017682	-0.019767	0.077292	0.028809	-0.305420	-0.237305	0.684814	174.453316	-78.213320	-36.341471
06451		9.510333	-0.254586	-2.012691	-0.047888	0.093532	0.022501	-0.303711	-0.231689	0.695313	174.485322	-78.271805	-36.397953
06452		9.562986	-0.163133	-2.042123	-0.045915	0.069011	0.017109	-0.302490	-0.234131	0.689209	174.496501	-78.310735	-36.432033
06453		9.580064	-0.136208	-2.107201	-0.057502	0.042736	0.017701	-0.310303	-0.233643	0.687744	174.523939	-78.339911	-36.489080
06454		9.582477	-0.118265	-2.088601	-0.059866	0.011744	0.015218	-0.297119	-0.237549	0.685303	174.537339	-78.346071	-36.533583
06455		9.492317	-0.166938	-2.058568	-0.070932	0.026995	0.021999	-0.313721	-0.234619	0.684326	174.573435	-78.366397	-36.607730
06456		9.412432	-0.269544	-2.003032	-0.087077	0.061034	0.015485	-0.307617	-0.231689	0.687500	174.559153	-78.400680	-36.639883
06457		9.352862	-0.307216	-1.982992	-0.093659	0.086506	0.010326	-0.308105	-0.236328	0.687012	174.534575	-78.454368	-36.665009
06458		9.337318	-0.391587	-1.986223	-0.087383	0.114753	0.006472	-0.298340	-0.235352	0.689209	174.480537	-78.518801	-36.656757
06459		9.335620	-0.387327	-1.940498	-0.080984	0.140204	-0.000718	-0.302246	-0.234131	0.682373	174.417316	-78.602333	-36.635124
06460		9.342685	-0.388006	-1.961534	-0.095753	0.147924	-0.008762	-0.304688	-0.239990	0.682129	174.305002	-78.684818	-36.572327
06461		9.359188	-0.336239	-1.969434	-0.102119	0.113120	-0.009734	-0.301514	-0.235352	0.683594	174.210122	-78.752262	-36.530987
06462		9.366399	-0.278571	-1.911992	-0.111341	0.082681	-0.012902	-0.312256	-0.236816	0.679688	174.093922	-78.797272	-36.473363
06463		9.408153	-0.156301	-1.821309	-0.137136	0.089748	-0.006179	-0.316895	-0.236816	0.684570	173.994832	-78.851564	-36.447923
06464		9.390342	-0.044578	-1.860065	-0.146582	0.066629	-0.002006	-0.301025	-0.238037	0.681885	173.893605	-78.888046	-36.426157
06465		9.338869	0.020736	-1.919676	-0.145482	0.026600	-0.000715	-0.319092	-0.244141	0.683105	173.824416	-78.906680	-36.435912
06466		9.327067	0.098546	-1.889483	-0.147060	0.026776	0.002672	-0.312500	-0.236572	0.689209	173.748527	-78.920740	-36.440247
06467		9.243190	0.068001	-1.876470	-0.170608	0.058206	0.007273	-0.308594	-0.249756	0.675537	173.678103	-78.957975	-36.463313
06468		9.230635	0.021881	-1.850093	-0.203132	0.095252	0.002532	-0.309814	-0.245605	0.683350	173.547064	-79.011019	-36.444192
06469		9.256070	-0.085766	-1.829943	-0.232502	0.104755	0.000479	-0.320801	-0.244141	0.684326	173.404835	-79.074100	-36.431062
06470		9.308021	-0.218455	-1.856816	-0.248359	0.107748	-0.002507	-0.303223	-0.243408	0.684082	173.227019	-79.133900	-36.390701
06471		9.355856	-0.292505	-1.766280	-0.260276	0.107965	-0.001441	-0.310059	-0.243164	0.675293	173.060193	-79.198664	-36.367718
06472		9.362758	-0.340293	-1.699996	-0.263690	0.122145	-0.003326	-0.309326	-0.251709	0.677490	172.863402	-79.266544	-36.317002
06473		9.338478	-0.310046	-1.640910	-0.244263	0.149366	-0.011472	-0.320313	-0.250000	0.676514	172.657230	-79.353922	-36.244991
06474		9.339639	-0.267435	-1.558740	-0.208264	0.180644	-0.018383	-0.308350	-0.254639	0.675293	172.419701	-79.453844	-36.120552
06475		9.413399	-0.172173	-1.535548	-0.174402	0.221679	-0.029856	-0.319092	-0.249268	0.672363	172.162172	-79.580799	-35.955745
06476		9.448591	-0.138438	-1.509510	-0.160433	0.274613	-0.033121	-0.319092	-0.252441	0.667480	171.857117	-79.732650	-35.734907
06477		9.530752	-0.166269	-1.381826	-0.183687	0.307357	-0.042901	-0.321045	-0.261963	0.665039	171.501175	-79.906742	-35.475451
06478		9.577273	-0.168442	-1.309053	-0.205613	0.352276	-0.046532	-0.320068	-0.251953	0.671875	171.070319	-80.100900	-35.153399
06479		9.595205	-0.163010	-1.202056	-0.211602	0.384905	-0.055367	-0.321777	-0.263428	0.668213	170.591397	-80.316988	-34.786042
06480		9.664883	-0.063434	-1.123727	-0.184419	0.399986	-0.059940	-0.328369	-0.260498	0.668457	170.067105	-80.535844	-34.357329
06481		9.584237	0.017028	-1.085320	-0.148329	0.383290	-0.061917	-0.322754	-0.259033	0.657471	169.562905	-80.749247	-33.928165
06482		9.552059	0.121858	-1.008344	-0.142161	0.335296	-0.068518	-0.328369	-0.255859	0.660889	169.031789	-80.929449	-33.468523
06483		9.511111	0.193239	-0.936267	-0.156087	0.277494	-0.069995	-0.329590	-0.265381	0.655762	168.527086	-81.081054	-33.043432
06484		9.564210	0.154202	-0.970473	-0.139661	0.250418	-0.069276	-0.333252	-0.260986	0.658203	168.021523	-81.212216	-32.608593
06485		9.725462	0.018900	-1.016594	-0.063165	0.293411	-0.055806	-0.325928	-0.259521	0.661621	167.578418	-81.373380	-32.192645
06486		9.930671	0.031505	-0.966313	0.028956	0.373521	-0.050967	-0.344482	-0.273193	0.656738	167.103687	-81.574552	-31.691673
06487		9.890613	0.116572	-0.867181	0.086872	0.430819	-0.050422	-0.339600	-0.266357	0.659912	166.606232	-81.812079	-31.134382
06488		9.689864	0.291058	-0.888350	0.113989	0.398146	-0.053904	-0.338135	-0.267334	0.662354	166.093162	-82.025251	-30.546045
06489		9.433409	0.601549	-1.128313	0.171644	0.278865	-0.050344	-0.342773	-0.267822	0.655029	165.740224	-82.177000	-30.086155
06490		9.210674	0.954636	-1.502014	0.227867	0.136258	-0.030367	-0.344238	-0.262451	0.649902	165.618890	-82.247135	-29.827764
06491		9.066157	1.232477	-1.853521	0.240281	0.035780	-0.003082	-0.345215	-0.261719	0.659424	165.736915	-82.270318	-29.804082
06492		8.932384	1.415555	-2.119109	0.203231	-0.025055	0.028400	-0.335938	-0.257324	0.663574	166.007913	-82.259158	-29.955903
06493		9.015081	1.371653	-2.193633	0.140853	-0.013405	0.051159	-0.333008	-0.261963	0.654053	166.341217	-82.262241	-30.206334
06494		9.312784	1.262245	-2.129995	0.090182	0.085543	0.059820	-0.340576	-0.263672	0.659912	166.566727	-82.316696	-30.377606
06495		9.656008	1.004365	-1.931715	0.000688	0.230450	0.034158	-0.337646	-0.251221	0.646973	166.508713	-82.452933	-30.315074
06496		9.923589	0.769874	-1.699321	-0.129105	0.339552	-0.023385	-0.343994	-0.259033	0.654541	165.994773	-82.637507	-29.867205
06497		10.113088	0.631759	-1.724853	-0.289041	0.358557	-0.103739	-0.345947	-0.251953	0.646973	165.004274	-82.824758	-29.031461
06498		10.254930	0.621553	-1.766416	-0.435035	0.286588	-0.178734	-0.355713	-0.260742	0.646484	163.622344	-82.953985	-27.885863
06499		10.137594	0.766318	-1.892393	-0.510233	0.176908	-0.217575	-0.351074	-0.264893	0.649414	162.148687	-83.017599	-26.691188
06500		9.845737	1.007462	-2.440354	-0.316252	0.031134	-0.204183	-0.345459	-0.272461	0.647461	161.030811	-82.996456	-25.743345
06501		9.536308	1.064710	-2.649375	-0.057697	-0.142476	-0.174038	-0.342285	-0.273193	0.641357	160.482732	-82.889849	-25.220268
06502		9.431816	1.081701	-2.563633	0.075695	-0.223487	-0.140246	-0.349365	-0.265137	0.656006	160.280829	-82.741160	-24.968907
06503		9.383015	1.185642	-2.399461	0.131370	-0.131372	-0.094460	-0.341553	-0.270996	0.645508	160.184164	-82.655192	-24.791309
06504		9.420013	1.160067	-2.130582	0.182854	0.080506	-0.047718	-0.345703	-0.272461	0.646973	159.980838	-82.688157	-24.476529
06505		9.530896	1.081205	-1.863318	0.200030	0.247024	-0.021061	-0.344971	-0.262451	0.641846	159.648473	-82.819873	-24.022095
06506		9.596439	1.028725	-1.577399	0.242553	0.316353	-0.010188	-0.345703	-0.270508	0.654297	159.246827	-82.986471	-23.473156
06507		9.689160	0.953844	-1.440939	0.269181	0.294334	-0.018607	-0.342773	-0.262451	0.645752	158.849817	-83.143114	-22.913742
06508		9.601202	0.936814	-1.365249	0.259312	0.250570	-0.035326	-0.357910	-0.265869	0.651367	158.416127	-83.268383	-22.323215
06509		9.403144	0.875111	-1.420545	0.204617	0.223135	-0.059300	-0.345459	-0.265381	0.644531	157.883754	-83.377363	-21.665092
06510		9.221405	0.759156	-1.488310	0.136545	0.232585	-0.072925	-0.355957	-0.256348	0.654297	157.200185	-83.483528	-20.894112
06511		9.025840	0.629736	-1.502972	0.082523	0.280853	-0.071296	-0.349854	-0.258789	0.645508	156.380322	-83.618231	-20.017313
06512		8.862891	0.493257	-1.435354	0.052228	0.335885	-0.053962	-0.351318	-0.257080	0.642578	155.459710	-83.780329	-19.056860
06513		8.705988	0.459694	-1.405239	0.049706	0.339672	-0.030472	-0.355713	-0.261230	0.640381	154.602709	-83.952252	-18.162184
06514		8.624760	0.495920	-1.417206	0.072156	0.294805	-0.003662	-0.353516	-0.259521	0.645996	153.942356	-84.102556	-17.452521
06515		8.634456	0.598286	-1.434409	0.091664	0.229324	0.027422	-0.362793	-0.251953	0.641113	153.591081	-84.230205	-17.042652
06516		8.649922	0.802408	-1.495405	0.113191	0.201722	0.051643	-0.360840	-0.261230	0.643066	153.423186	-84.345910	-16.804606
06517		8.689410	1.015933	-1.642590	0.155873	0.192246	0.081847	-0.355957	-0.255127	0.640381	153.465404	-84.468216	-16.753197
06518		8.691616	1.199232	-1.763077	0.178649	0.195337	0.100921	-0.370361	-0.253418	0.648682	153.606048	-84.593240	-16.787524
06519		8.795810	1.306314	-1.838047	0.151602	0.182766	0.117375	-0.372314	-0.252197	0.639404	153.870545	-84.719539	-16.961826
06520		8.829970	1.410605	-1.842168	0.094966	0.157416	0.123847	-0.372559	-0.247803	0.635986	154.210051	-84.830745	-17.243978
06521		8.802429	1.476190	-1.843633	0.019947	0.108548	0.120265	-0.376709	-0.254150	0.636719	154.643994	-84.919100	-17.664118
06522		8.796831	1.486184	-1.786597	-0.057540	0.042799	0.111898	-0.366699	-0.248535	0.633789	155.169159	-84.967530	-18.220300
06523		8.804605	1.442251	-1.638007	-0.123707	-0.015436	0.108352	-0.358887	-0.247314	0.632813	155.811789	-84.987489	-18.932594
06524		8.908122	1.342265	-1.713913	-0.215528	-0.032097	0.102811	-0.361084	-0.249268	0.637207	156.407117	-84.993534	-19.650036
06525		9.060435	1.180394	-1.933147	-0.307504	-0.003230	0.098840	-0.363525	-0.254883	0.638428	156.863338	-85.016234	-20.280786
06526		9.243752	1.049949	-2.142785	-0.357803	0.048711	0.092287	-0.371094	-0.251709	0.636719	157.112689	-85.061576	-20.732721
06527		9.473012	0.981524	-2.268070	-0.332665	0.118405	0.091507	-0.370361	-0.261719	0.637939	157.208484	-85.146254	-21.016086
06528		9.587541	0.920034	-2.325908	-0.268204	0.220293	0.099872	-0.375000	-0.255127	0.643066	157.119547	-85.283765	-21.076915
06529		9.663235	0.846094	-2.223377	-0.235248	0.333499	0.117099	-0.375732	-0.260010	0.628906	156.855708	-85.487498	-20.943346
06530		9.588301	0.711736	-1.880702	-0.228141	0.408866	0.133621	-0.375732	-0.253174	0.631592	156.452830	-85.731911	-20.666256
06531		9.487106	0.614961	-1.508959	-0.214147	0.385777	0.144466	-0.375244	-0.252930	0.623779	156.185678	-85.969065	-20.517324
06532		9.572298	0.541260	-1.062732	-0.173345	0.220180	0.150323	-0.372803	-0.260742	0.627930	156.518896	-86.118170	-20.946770
06533		9.681476	0.531581	-0.770672	-0.051747	0.057625	0.169419	-0.380859	-0.266357	0.633057	157.664833	-86.187684	-22.120917
06534		9.826382	0.709031	-0.644342	0.070912	0.078090	0.178544	-0.379883	-0.267090	0.628174	158.919561	-86.266047	-23.333529
06535		9.984488	0.979543	-0.849337	0.013992	0.236299	0.166776	-0.387695	-0.261963	0.626465	159.615135	-86.427705	-24.018512
06536		10.054241	1.337809	-1.478901	-0.129522	0.339872	0.136916	-0.382324	-0.256348	0.627197	159.661633	-86.636487	-24.135319
06537		10.047417	1.555687	-1.852701	-0.184351	0.258374	0.083948	-0.378418	-0.256592	0.628174	159.482673	-86.793108	-24.057788
06538		10.181893	1.451352	-1.828457	-0.172109	0.096554	0.026771	-0.390137	-0.246094	0.620850	159.319310	-86.849216	-23.988814
06539		10.403344	0.959446	-1.271769	-0.192339	0.112730	-0.018943	-0.388428	-0.262207	0.619141	158.640905	-86.906537	-23.415590
06540		10.705160	0.194232	-0.492678	-0.264976	0.340129	-0.032138	-0.397461	-0.264648	0.619629	156.787044	-87.078861	-21.707083
06541		11.073184	-0.583486	0.139256	-0.152639	0.374313	-0.045415	-0.395752	-0.258057	0.615967	154.472429	-87.264523	-19.473205
06542		11.428218	-0.912297	-0.179792	-0.060265	-0.013382	-0.106187	-0.394287	-0.261230	0.622803	153.404006	-87.229958	-18.433997
06543		11.343117	-0.426859	-1.667010	-0.252248	-0.220019	-0.188424	-0.400391	-0.263916	0.625000	152.523476	-87.069752	-17.692987
06544		11.162240	0.583017	-3.499832	-0.090557	-0.095714	-0.212891	-0.394775	-0.260742	0.616211	150.939955	-86.962781	-16.155153
06545		11.086926	1.007523	-4.221355	0.754449	0.345192	-0.113220	-0.392090	-0.254639	0.620605	148.409253	-87.101898	-13.184102
06546		11.014275	0.868954	-3.133367	1.542848	0.782406	0.031379	-0.397461	-0.248535	0.617432	144.397054	-87.484836	-8.278358
06547		10.513496	0.766961	-1.489701	1.983662	0.676503	0.121737	-0.401123	-0.243408	0.622314	141.209598	-87.837016	-3.946642
06548		10.272405	0.592596	-0.539282	2.219680	0.006839	0.146498	-0.401123	-0.223389	0.620605	144.253724	-87.890308	-5.716100
06549		10.440080	0.539304	0.427882	2.156945	-0.628193	0.166400	-0.394287	-0.208496	0.635010	152.457110	-87.634151	-12.685027
06550		10.984178	0.739262	1.340102	1.853489	-0.843238	0.183862	-0.387207	-0.195068	0.646484	160.048151	-87.232696	-19.216473
06551		11.125717	0.733433	1.577176	1.370486	-0.587724	0.161669	-0.393311	-0.185303	0.645020	164.620076	-86.939867	-23.003886
06552		10.513050	0.707746	-0.370281	0.926362	-0.326255	0.105928	-0.385742	-0.175537	0.650391	167.079417	-86.772213	-24.931244
06553		9.462385	0.515270	-1.773688	0.945848	-0.281739	0.047415	-0.389648	-0.176270	0.648682	168.706170	-86.620413	-26.013661
06554		8.664991	0.413944	-1.325348	1.148814	-0.442503	-0.010183	-0.379150	-0.170898	0.659424	170.055186	-86.368863	-26.701623
06555		8.553899	0.576539	0.200152	1.016737	-0.555391	-0.058580	-0.375977	-0.157471	0.664307	170.960852	-86.049544	-27.021525
06556		8.548091	0.687696	0.675246	0.466925	-0.465619	-0.093353	-0.363525	-0.160400	0.652588	171.090061	-85.776378	-26.878726
06557		8.587874	0.616131	-0.332618	0.064388	-0.335125	-0.100800	-0.370361	-0.154541	0.653809	170.799309	-85.577646	-26.546083
06558		8.668109	0.698195	-0.589363	0.005542	-0.302261	-0.045104	-0.373291	-0.157715	0.663330	170.846552	-85.401253	-26.586159
06559		8.767631	0.895010	0.240990	-0.046028	-0.315049	0.036252	-0.363037	-0.160645	0.655029	171.434614	-85.226329	-27.198547
06560		8.872816	1.083612	0.531702	-0.223240	-0.250511	0.115572	-0.369873	-0.156738	0.661865	172.336180	-85.092251	-28.227574
06561		8.888093	0.883599	0.065531	-0.246896	-0.173263	0.168893	-0.371094	-0.156006	0.662109	173.467327	-85.005901	-29.500883
06562		8.972184	0.238703	0.047111	-0.143692	-0.100367	0.199697	-0.369385	-0.159180	0.664063	174.763657	-84.959063	-30.880715
06563		9.127229	-0.413036	0.412907	-0.098856	-0.020500	0.197649	-0.363281	-0.156250	0.658203	176.019100	-84.956679	-32.193747
06564		9.443052	-0.987216	0.720303	-0.117124	0.073928	0.172491	-0.360596	-0.157959	0.658203	177.060443	-85.003525	-33.302334
06565		9.821769	-1.406218	0.823746	-0.153451	0.150608	0.146555	-0.369385	-0.165771	0.663330	177.920151	-85.093632	-34.249390
06566		10.186755	-1.655312	0.825348	-0.162413	0.166048	0.122470	-0.363281	-0.166992	0.664063	178.632888	-85.189411	-35.053958
06567		10.385358	-1.673368	0.762475	-0.152426	0.139306	0.108483	-0.375000	-0.162109	0.656250	179.298211	-85.270667	-35.805192
06568		10.353329	-1.530829	0.808257	-0.097017	0.066859	0.110274	-0.378418	-0.165039	0.665283	-179.979204	-85.307900	-36.581872
06569		10.140146	-1.204433	0.805512	-0.004464	-0.018808	0.112950	-0.370361	-0.148682	0.655518	-179.167230	-85.297137	-37.395036
06570		9.980577	-0.979276	0.807908	0.069015	-0.110150	0.136997	-0.375000	-0.157471	0.662354	-178.184468	-85.230753	-38.337357
06571		9.747973	-0.681840	0.663680	0.122906	-0.171494	0.157209	-0.369873	-0.152100	0.665039	-177.066014	-85.129376	-39.384873
06572		9.598790	-0.517342	0.488396	0.186133	-0.180687	0.174297	-0.364258	-0.158447	0.665039	-175.864351	-85.018382	-40.479819
06573		9.448828	-0.412775	0.268184	0.229430	-0.208414	0.179574	-0.371582	-0.156738	0.666504	-174.654931	-84.891396	-41.557810
06574		9.450321	-0.417191	0.065527	0.255763	-0.244533	0.186150	-0.369873	-0.157715	0.663330	-173.487228	-84.739484	-42.579033
06575		9.395313	-0.471593	-0.070381	0.255127	-0.244069	0.188545	-0.366211	-0.148926	0.673584	-172.350579	-84.587968	-43.569737
06576		9.462281	-0.558173	-0.207145	0.236825	-0.242027	0.180417	-0.367188	-0.140137	0.674316	-171.344202	-84.434478	-44.440299
06577		9.479142	-0.753885	-0.440379	0.206072	-0.207159	0.184202	-0.363770	-0.131592	0.667236	-170.334334	-84.301007	-45.332158
06578		9.584566	-0.785882	-0.484519	0.164800	-0.186542	0.177045	-0.364502	-0.141846	0.670654	-169.426664	-84.176387	-46.145397
06579		9.750941	-0.851699	-0.400351	0.120476	-0.201356	0.174177	-0.362549	-0.138916	0.670166	-168.594482	-84.044600	-46.908298
06580		9.843204	-0.835505	-0.261517	0.042468	-0.214428	0.174369	-0.367676	-0.133057	0.672852	-167.872090	-83.902355	-47.606099
06581		9.912676	-0.808993	-0.220016	-0.060976	-0.177969	0.175810	-0.360840	-0.132813	0.676270	-167.173374	-83.781520	-48.339743
06582		9.843642	-0.746088	-0.304470	-0.156112	-0.159384	0.189090	-0.364258	-0.143311	0.678955	-166.484442	-83.666309	-49.118672
06583		9.714977	-0.804979	-0.466592	-0.231454	-0.155906	0.200880	-0.352539	-0.147705	0.675293	-165.784616	-83.552442	-49.952071
06584		9.472294	-0.821594	-0.553031	-0.275163	-0.150311	0.202478	-0.361084	-0.151611	0.671143	-165.139068	-83.438339	-50.756338
06585		9.193449	-0.798408	-0.562787	-0.306338	-0.123086	0.200435	-0.355469	-0.141846	0.679443	-164.492501	-83.340585	-51.579918
06586		9.030701	-0.899583	-0.734114	-0.333498	-0.047935	0.182315	-0.359863	-0.140137	0.682861	-163.882761	-83.284071	-52.382081
06587		8.910648	-0.969503	-0.733062	-0.341123	0.053503	0.163313	-0.362305	-0.144531	0.679932	-163.216146	-83.287261	-53.245732
06588		8.873834	-1.119146	-0.620339	-0.320385	0.128690	0.134782	-0.355957	-0.140381	0.675293	-162.578374	-83.333393	-54.068557
06589		8.968280	-1.268879	-0.510698	-0.292749	0.177119	0.107956	-0.356445	-0.147705	0.674316	-161.945861	-83.411431	-54.869793
06590		9.145650	-1.446564	-0.446061	-0.299397	0.221077	0.084471	-0.353271	-0.148682	0.676758	-161.361625	-83.514790	-55.626374
06591		9.326543	-1.530006	-0.502139	-0.274607	0.234579	0.065414	-0.359131	-0.152100	0.668213	-160.789116	-83.629862	-56.356531
06592		9.404490	-1.503445	-0.653127	-0.245837	0.210593	0.060002	-0.355713	-0.151123	0.663086	-160.267400	-83.730519	-57.019012
06593		9.461120	-1.467018	-0.615590	-0.213940	0.167232	0.061346	-0.354492	-0.149658	0.668945	-159.757359	-83.808603	-57.651153
06594		9.416650	-1.283261	-0.646913	-0.198357	0.121937	0.069655	-0.364502	-0.155518	0.671143	-159.292225	-83.858444	-58.229166
06595		9.356656	-1.099748	-0.720274	-0.197314	0.093792	0.076590	-0.362549	-0.154785	0.657959	-158.812883	-83.892895	-58.820640
06596		9.363734	-0.964285	-0.897420	-0.199193	0.083342	0.082024	-0.360840	-0.153809	0.670410	-158.347594	-83.918531	-59.399212
06597		9.394708	-0.824189	-0.963268	-0.191295	0.066839	0.088234	-0.362549	-0.157715	0.677246	-157.849846	-83.935116	-60.005706
06598		9.310488	-0.811845	-1.017106	-0.194884	0.047083	0.085570	-0.365234	-0.150391	0.666504	-157.431899	-83.939755	-60.534154
06599		9.277266	-0.854182	-1.123397	-0.209280	0.042624	0.072331	-0.363525	-0.160889	0.668701	-157.070083	-83.946057	-61.014215
06600		9.296705	-0.921300	-1.161050	-0.214504	0.029648	0.055436	-0.361084	-0.164063	0.659912	-156.848771	-83.947597	-61.356220
06601		9.268200	-1.012775	-1.242635	-0.203630	0.014426	0.038207	-0.363281	-0.161865	0.667725	-156.712482	-83.946305	-61.606395
06602		9.193991	-1.089802	-1.337997	-0.185380	-0.001595	0.011517	-0.360352	-0.154053	0.669189	-156.759135	-83.941198	-61.662153
06603		9.090161	-1.143316	-1.498053	-0.157521	-0.010182	-0.013300	-0.368652	-0.162109	0.662354	-156.904084	-83.938482	-61.602805
06604		9.047185	-1.217714	-1.515661	-0.134752	0.000408	-0.039352	-0.366211	-0.160400	0.659668	-157.170145	-83.945834	-61.408751
06605		9.001063	-1.218336	-1.543918	-0.101888	0.010192	-0.056982	-0.360352	-0.163818	0.659668	-157.458281	-83.963427	-61.173423
06606		8.969841	-1.237848	-1.545831	-0.072349	0.042268	-0.077899	-0.365723	-0.159180	0.663574	-157.797737	-84.001153	-60.869631
06607		8.904835	-1.182088	-1.635000	-0.035815	0.071560	-0.086955	-0.364258	-0.162109	0.661621	-158.078534	-84.057386	-60.603642
06608		8.880658	-1.095236	-1.645404	0.005469	0.095271	-0.099438	-0.363281	-0.157471	0.665039	-158.384825	-84.127553	-60.288428
06609		8.902481	-1.020059	-1.641726	0.023320	0.108702	-0.109085	-0.365723	-0.164063	0.664063	-158.682847	-84.207833	-59.971114
06610		8.915940	-0.949178	-1.513222	0.012674	0.110492	-0.120747	-0.368408	-0.158691	0.665771	-159.083389	-84.290161	-59.557111
06611		8.918787	-0.929212	-1.397048	-0.005055	0.115747	-0.130113	-0.362061	-0.164307	0.665283	-159.516926	-84.377950	-59.120074
06612		8.892482	-0.896029	-1.448302	0.006348	0.161788	-0.141111	-0.365234	-0.160400	0.668213	-159.955320	-84.491264	-58.671815
06613		8.860765	-0.819196	-1.432329	0.029166	0.190756	-0.152560	-0.368408	-0.162354	0.657959	-160.374975	-84.623090	-58.229214
06614		8.952496	-0.766300	-1.507998	0.060251	0.186585	-0.160151	-0.369629	-0.155518	0.663574	-160.882825	-84.752735	-57.680370
06615		9.087916	-0.753808	-1.495323	0.079721	0.185217	-0.166465	-0.375977	-0.162842	0.663330	-161.415052	-84.883326	-57.095841
06616		9.206671	-0.749795	-1.431612	0.087059	0.169936	-0.169302	-0.371582	-0.165527	0.656494	-162.053602	-85.004552	-56.400590
06617		9.314186	-0.835760	-1.411801	0.075755	0.155577	-0.164667	-0.378418	-0.160400	0.663818	-162.697310	-85.117413	-55.706722
06618		9.361891	-0.890216	-1.429540	0.047062	0.156914	-0.159994	-0.364746	-0.164063	0.650635	-163.389770	-85.228516	-54.980607
06619		9.317107	-0.979105	-1.518635	0.011240	0.159944	-0.153697	-0.372314	-0.172119	0.661133	-164.053542	-85.340492	-54.303925
06620		9.293269	-0.972896	-1.690200	0.019605	0.132194	-0.153709	-0.380615	-0.166016	0.653076	-164.833127	-85.435458	-53.506409
06621		9.273668	-0.972998	-1.699733	0.050150	0.122970	-0.146784	-0.373047	-0.162598	0.662109	-165.559872	-85.524377	-52.744425
06622		9.252047	-0.964348	-1.603213	0.065245	0.129826	-0.150963	-0.371094	-0.164551	0.662109	-166.362860	-85.615913	-51.897409
06623		9.254041	-0.793113	-1.632317	0.085236	0.138149	-0.156064	-0.377197	-0.158447	0.659424	-167.175496	-85.712707	-51.029264
06624		9.200321	-0.739610	-1.746766	0.077455	0.154740	-0.158653	-0.373779	-0.167480	0.658691	-168.062663	-85.817201	-50.091042
06625		9.220953	-0.682582	-2.022461	0.061804	0.152987	-0.176007	-0.364990	-0.159424	0.663330	-169.105547	-85.922369	-49.005761
06626		9.139383	-0.703158	-2.276051	0.088704	0.170186	-0.190675	-0.372070	-0.152100	0.659424	-170.324400	-86.036247	-47.728827
06627		9.155945	-0.701548	-2.399756	0.076704	0.151680	-0.208542	-0.369629	-0.154785	0.660156	-171.755165	-86.139977	-46.246492
06628		9.080574	-0.714440	-2.585369	0.017964	0.074799	-0.231962	-0.374512	-0.156738	0.655273	-173.618486	-86.197863	-44.364558
06629		9.106396	-0.832113	-2.681871	0.028810	-0.024335	-0.262027	-0.376221	-0.163818	0.651123	-175.815008	-86.197115	-42.142503
06630		9.101973	-0.980169	-2.626740	0.035199	-0.106741	-0.287106	-0.370605	-0.168213	0.653564	-178.280784	-86.143003	-39.646873
06631		9.205507	-1.079553	-2.555496	0.057572	-0.143035	-0.321145	-0.378418	-0.158203	0.658691	179.098588	-86.061754	-36.982976
06632		9.269335	-1.147427	-2.680711	0.086762	-0.138926	-0.348082	-0.365723	-0.162598	0.657959	176.347956	-85.972848	-34.171732
06633		9.330472	-1.227640	-2.985221	0.058825	-0.153536	-0.373148	-0.362793	-0.160889	0.660156	173.560050	-85.865951	-31.338791
06634		9.380105	-1.269213	-3.137085	0.006567	-0.156884	-0.414782	-0.362305	-0.167480	0.661377	170.542441	-85.742693	-28.305180
06635		9.653294	-1.072043	-2.905672	-0.065684	-0.128310	-0.478888	-0.364746	-0.162354	0.659424	167.183295	-85.617265	-24.970046
06636		10.477509	-0.927539	-2.374683	-0.167517	-0.024389	-0.532250	-0.357422	-0.175293	0.661377	163.343922	-85.524931	-21.211322
06637		11.576413	-0.757202	-1.600688	-0.282865	0.125087	-0.550956	-0.359131	-0.173584	0.659424	159.137327	-85.491371	-17.150175
06638		12.497053	-0.370434	-0.695291	-0.428986	0.082972	-0.525854	-0.361816	-0.175781	0.655762	155.187036	-85.417186	-13.429865
06639		12.799979	0.398239	-0.404657	-0.524110	-0.363801	-0.467938	-0.356934	-0.179443	0.662109	153.122912	-85.113264	-11.655826
06640		13.188118	1.525506	-0.624565	-0.298489	-0.860654	-0.320091	-0.356689	-0.180664	0.657715	153.605555	-84.589318	-12.308001
06641		13.763720	2.647325	-0.356925	0.089836	-0.915610	-0.100647	-0.352295	-0.181396	0.663330	155.452141	-84.091401	-14.107664
06642		13.654320	3.130408	-0.210233	0.383816	-0.549213	0.081781	-0.344238	-0.178955	0.672363	157.285643	-83.820866	-15.726130
06643		12.626585	3.198885	-0.685832	0.524757	-0.187044	0.159407	-0.345215	-0.168701	0.666992	158.771062	-83.755979	-16.913640
06644		11.725581	3.121433	-1.228230	0.521005	-0.148192	0.139000	-0.332275	-0.165527	0.668457	160.035721	-83.703442	-17.881459
06645		11.293795	2.421736	-1.359685	0.400635	-0.281807	0.083072	-0.339600	-0.164063	0.676514	161.183327	-83.567052	-18.800972
06646		11.122050	1.364815	-0.659580	0.093587	-0.268638	0.084293	-0.332764	-0.162598	0.682617	162.080100	-83.435071	-19.645434
06647		10.903591	0.200101	0.267968	-0.191193	-0.260089	0.106127	-0.328369	-0.162354	0.673828	162.888157	-83.311233	-20.564962
06648		10.341402	-0.848320	0.405246	-0.426232	-0.254294	0.102580	-0.333984	-0.162842	0.677246	163.489599	-83.187601	-21.412376
06649		9.750943	-1.720688	0.045746	-0.597949	-0.193850	0.038968	-0.331543	-0.172852	0.669434	163.617775	-83.087437	-21.882296
06650		9.393071	-2.237073	-0.276153	-0.627849	-0.141917	-0.050052	-0.336670	-0.177002	0.675781	163.236843	-83.000163	-21.856792
06651		9.053065	-2.375246	-0.160201	-0.501083	-0.121919	-0.129339	-0.328369	-0.175049	0.677734	162.574931	-82.911798	-21.474861
06652		8.604631	-2.503275	0.220876	-0.320725	-0.096275	-0.175682	-0.333496	-0.175537	0.676514	161.774079	-82.827338	-20.848815
06653		8.164380	-2.417047	0.425355	-0.296617	-0.022881	-0.205957	-0.329590	-0.181152	0.669189	160.785638	-82.777473	-20.019541
06654		8.072847	-1.946264	0.095763	-0.335201	-0.035052	-0.185834	-0.328125	-0.187744	0.669922	159.872710	-82.721628	-19.288710
06655		7.418123	-1.385974	-1.373212	-0.287545	-0.106302	-0.172265	-0.327637	-0.185303	0.675781	159.188088	-82.630741	-18.760277
06656		7.589546	-0.631343	-2.176896	0.105280	0.210455	-0.103960	-0.325439	-0.186279	0.674561	158.491772	-82.720634	-17.993266
06657		7.892481	-0.083679	-1.479205	0.630701	0.255327	0.004299	-0.327881	-0.177246	0.672119	158.482365	-82.858362	-17.615251
06658		8.406128	0.537511	-0.337860	0.988957	0.268663	0.093384	-0.320557	-0.174072	0.676025	159.015721	-83.020163	-17.577575
06659		9.078755	1.273990	1.144568	1.065319	0.423532	0.157822	-0.329346	-0.158691	0.667725	159.654035	-83.279835	-17.601441
06660		9.831808	1.996114	2.239878	0.897730	0.434837	0.193326	-0.331543	-0.159180	0.673096	160.347074	-83.550751	-17.777161
06661		10.446791	2.740144	1.958493	0.744372	0.443467	0.199470	-0.332520	-0.146240	0.672119	161.026218	-83.829181	-18.027133
06662		10.534323	3.111376	1.207824	0.659665	0.353644	0.162670	-0.335693	-0.141602	0.671875	161.640896	-84.049862	-18.261042
06663		10.169411	3.269228	0.575660	0.536882	0.036606	0.089377	-0.337158	-0.147705	0.668457	162.391239	-84.086547	-18.701982
06664		9.655235	3.212613	0.527281	0.341969	-0.265882	-0.001182	-0.333008	-0.132568	0.668457	163.028487	-83.939746	-19.141577
06665		9.216228	2.894096	0.874206	0.091473	-0.360288	-0.082290	-0.333740	-0.135010	0.669678	163.249695	-83.729427	-19.307188
06666		8.998337	2.361135	1.121618	-0.168073	-0.268807	-0.141702	-0.329102	-0.136963	0.672119	162.873998	-83.557287	-19.021920
06667		9.086549	1.786527	0.959804	-0.403469	-0.110983	-0.190933	-0.328125	-0.143311	0.665283	161.923535	-83.464626	-18.293831
06668		9.340338	1.199841	0.347098	-0.573035	-0.008778	-0.222844	-0.326904	-0.149170	0.672363	160.572682	-83.417704	-17.260424
06669		9.608878	0.709432	-0.258119	-0.659025	-0.002136	-0.235922	-0.326904	-0.146973	0.661621	159.129272	-83.371216	-16.183346
06670		9.822745	0.388264	-0.638060	-0.671788	-0.026834	-0.255430	-0.331055	-0.154297	0.661133	157.643443	-83.301962	-15.070793
06671		9.950950	0.201351	-0.793271	-0.644507	-0.030186	-0.259278	-0.326172	-0.150146	0.670898	156.199496	-83.229180	-13.984526
06672		9.923655	0.116491	-0.768999	-0.591675	-0.054535	-0.268968	-0.326660	-0.158936	0.660156	154.811252	-83.135866	-12.923672
06673		9.839263	0.110528	-0.771490	-0.505675	-0.082986	-0.268333	-0.323975	-0.164795	0.669189	153.575838	-83.027613	-11.966929
06674		9.804643	0.196326	-0.811323	-0.408799	-0.084291	-0.254269	-0.321777	-0.160400	0.665283	152.481431	-82.917570	-11.096091
06675		9.741286	0.361613	-0.989977	-0.299871	-0.054934	-0.218260	-0.320068	-0.174561	0.665283	151.567807	-82.832696	-10.344388
06676		9.588361	0.450734	-1.157821	-0.183169	0.006687	-0.162551	-0.317871	-0.179443	0.666016	150.816581	-82.790297	-9.688841
06677		9.442374	0.725098	-1.322849	-0.046420	0.057015	-0.103294	-0.320313	-0.173340	0.662109	150.278757	-82.791274	-9.169425
06678		9.201658	0.938783	-1.234265	0.131052	0.075010	-0.045058	-0.322266	-0.174072	0.662354	150.022638	-82.814849	-8.831439
06679		8.945954	1.180235	-0.958632	0.257265	0.072984	-0.006239	-0.323486	-0.169922	0.660645	150.002188	-82.850888	-8.658155
06680		8.743410	1.322511	-0.449810	0.325217	0.043312	0.011714	-0.323730	-0.166016	0.659668	150.151739	-82.874894	-8.616934
06681		8.675762	1.391383	0.076590	0.320061	0.006105	0.020801	-0.327148	-0.166992	0.659424	150.426579	-82.885409	-8.704998
06682		8.739868	1.399860	0.338356	0.197512	0.049835	0.021651	-0.323975	-0.161865	0.661377	150.529083	-82.915508	-8.690107
06683		8.778033	1.377650	0.179256	0.052477	0.172375	0.021604	-0.329346	-0.154297	0.665283	150.272815	-83.009097	-8.397507
06684		8.809348	1.331550	-0.057268	-0.047489	0.248029	0.018448	-0.326904	-0.160645	0.661377	149.752317	-83.136620	-7.896445
06685		8.911005	1.285162	-0.363671	-0.095289	0.218107	0.013334	-0.335205	-0.154053	0.655029	149.242546	-83.249822	-7.433967
06686		8.975241	1.249277	-0.415638	-0.112618	0.159804	0.022366	-0.318115	-0.158936	0.661133	148.887780	-83.334123	-7.137581
06687		9.031737	1.216745	-0.437176	-0.156856	0.141174	0.034431	-0.337158	-0.159912	0.656250	148.602477	-83.415169	-6.936775
06688		9.029791	1.281109	-0.466356	-0.221093	0.148491	0.053812	-0.324951	-0.161865	0.651611	148.333826	-83.503002	-6.789729
06689		9.028094	1.355010	-0.584139	-0.270380	0.165117	0.075342	-0.332520	-0.172607	0.652588	148.082934	-83.607814	-6.689091
06690		9.004806	1.412953	-0.722169	-0.318323	0.154013	0.096363	-0.333740	-0.159180	0.649902	147.918456	-83.711110	-6.702968
06691		9.020810	1.477637	-0.906374	-0.345277	0.122089	0.118898	-0.333496	-0.165771	0.645996	147.929148	-83.808183	-6.908685
06692		9.031043	1.496211	-0.999685	-0.355136	0.096421	0.137061	-0.326172	-0.164551	0.637695	148.090059	-83.895845	-7.271043
06693		9.026615	1.459220	-0.877972	-0.386020	0.079914	0.157537	-0.338135	-0.176025	0.642822	148.385157	-83.983828	-7.786168
06694		8.986350	1.368350	-0.850348	-0.416807	0.065031	0.184415	-0.339355	-0.172363	0.639404	148.841055	-84.069855	-8.480533
06695		9.002949	1.194793	-0.802151	-0.458091	0.059830	0.220170	-0.331055	-0.162109	0.652344	149.479986	-84.165404	-9.382654
06696		9.030675	0.940726	-0.852034	-0.489951	0.066589	0.257247	-0.337646	-0.164551	0.644531	150.287791	-84.271521	-10.472608
06697		9.129839	0.615883	-0.931572	-0.491657	0.109582	0.289513	-0.329590	-0.174805	0.640381	151.177974	-84.408743	-11.646175
06698		9.281204	0.313950	-0.998465	-0.478913	0.165519	0.308144	-0.341309	-0.177734	0.634033	152.065860	-84.575217	-12.809714
06699		9.410512	0.209962	-1.030311	-0.440213	0.222846	0.304841	-0.342529	-0.169434	0.632324	152.864848	-84.770447	-13.861424
06700		9.528946	0.129801	-0.900829	-0.303324	0.286953	0.284323	-0.344971	-0.167725	0.628662	153.505612	-84.989746	-14.675109
06701		9.681879	0.218554	-0.772224	-0.163343	0.286985	0.250518	-0.336426	-0.174316	0.624512	154.092514	-85.201851	-15.354038
06702		9.808001	0.117921	-0.691500	-0.094290	0.228272	0.239648	-0.348633	-0.174805	0.631836	154.879519	-85.378077	-16.193788
06703		9.760534	-0.107770	-0.739471	-0.048789	0.195818	0.237298	-0.341797	-0.173584	0.623291	155.846468	-85.537872	-17.187761
06704		9.647297	-0.282372	-0.703032	0.020067	0.191352	0.236965	-0.346680	-0.170898	0.616943	156.929159	-85.691716	-18.257972
06705		9.534477	-0.246903	-0.791648	0.077001	0.162207	0.223942	-0.357910	-0.161865	0.620117	158.123972	-85.827704	-19.407760
06706		9.396878	-0.032298	-1.118608	0.073868	0.139231	0.207507	-0.354248	-0.165771	0.621094	159.326339	-85.944130	-20.566674
06707		9.241669	0.361587	-1.611720	0.034189	0.100394	0.200788	-0.366455	-0.167236	0.615723	160.640756	-86.038501	-21.860609
06708		9.038825	0.769730	-2.016278	-0.015305	0.044990	0.204691	-0.343262	-0.170898	0.622559	162.152093	-86.099236	-23.380174
06709		8.858567	1.161478	-2.151055	-0.068214	-0.043373	0.230481	-0.348633	-0.171143	0.619873	164.110868	-86.114477	-25.378576
06710		8.700839	1.535339	-2.015307	-0.087950	-0.098957	0.257209	-0.358154	-0.162109	0.617188	166.387230	-86.095971	-27.706589
06711		8.611097	1.858727	-1.790245	-0.083048	-0.153196	0.277125	-0.348145	-0.160400	0.609863	168.905216	-86.044559	-30.274111
06712		8.669340	2.157623	-1.837154	-0.016092	-0.279543	0.306161	-0.347900	-0.168213	0.620850	171.758597	-85.914792	-33.139644
06713		8.743736	2.336851	-2.235941	-0.025579	-0.317260	0.318177	-0.353271	-0.153564	0.611328	174.558079	-85.756018	-35.957118
06714		8.868701	2.400154	-2.535999	-0.115032	-0.187421	0.304269	-0.350098	-0.165283	0.612549	176.931674	-85.660454	-38.399351
06715		9.052308	2.297225	-2.704635	-0.291265	-0.064694	0.268852	-0.351563	-0.160400	0.614746	178.830891	-85.628816	-40.467312
06716		9.206962	2.089792	-2.664004	-0.507932	-0.012971	0.202501	-0.340576	-0.167480	0.610596	-179.927636	-85.621047	-42.000159
06717		9.191666	1.845548	-2.709900	-0.698640	0.018986	0.131952	-0.343262	-0.166748	0.604492	-179.314438	-85.630882	-43.012483
06718		9.085541	1.474368	-3.035909	-0.836534	0.017798	0.078985	-0.345947	-0.168213	0.611328	-179.184481	-85.639021	-43.619383
06719		8.961864	1.262308	-3.558641	-0.804761	-0.005334	0.042633	-0.350342	-0.165283	0.600098	-179.303635	-85.634892	-43.958190
06720		8.948191	1.217918	-3.768164	-0.567696	-0.095056	0.042876	-0.347412	-0.185059	0.605957	-179.303151	-85.578670	-44.280772
06721		9.446651	0.931157	-3.295877	-0.179008	-0.106079	0.071876	-0.340820	-0.183350	0.607422	-178.868828	-85.516227	-44.815154
06722		10.476983	0.326572	-2.550232	0.326509	0.091890	0.084498	-0.350098	-0.175781	0.606934	-178.028651	-85.566071	-45.466110
06723		12.047159	-0.565554	-1.914784	0.941441	0.296050	0.062502	-0.350098	-0.178467	0.598389	-176.900730	-85.732719	-46.052196
06724		14.107011	-2.165717	-0.546621	1.360450	0.376814	-0.006695	-0.348145	-0.167969	0.600342	-175.975268	-85.946935	-46.194435
06725		15.048517	-3.210573	0.449356	1.108501	0.174446	-0.122840	-0.361816	-0.159668	0.600830	-176.224783	-86.050167	-45.303508
06726		14.552503	-1.629258	0.188541	1.048801	-0.345700	-0.054263	-0.352051	-0.154297	0.600342	-176.231882	-85.853063	-44.689844
06727		13.915261	-1.746259	1.956247	1.311361	-0.853474	0.140821	-0.352783	-0.142090	0.603271	-174.902755	-85.358106	-45.265178
06728		13.210412	-1.996528	4.301269	0.470320	-0.513508	0.227404	-0.341309	-0.145264	0.599854	-173.432486	-85.050623	-46.466058
06729		11.266957	-1.930183	1.651407	-0.286441	0.105672	0.219230	-0.344971	-0.148926	0.602051	-172.040383	-85.093894	-48.023907
06730		9.556702	-1.769070	-2.453970	-0.128540	0.115218	0.167399	-0.348389	-0.152832	0.593018	-170.877448	-85.143374	-49.260860
06731		8.789498	-0.886114	-3.048538	0.588044	-0.349448	0.139669	-0.348145	-0.139893	0.598389	-169.991616	-84.931676	-49.807681
06732		9.029675	0.360564	1.542508	0.563214	-0.924377	0.147646	-0.342773	-0.142090	0.601318	-169.763776	-84.393847	-49.708275
06733		9.665768	1.771995	4.854751	-0.444546	-0.202477	0.092416	-0.335693	-0.145508	0.602051	-169.681349	-84.269271	-50.042896
06734		9.532761	2.454727	1.736007	-0.483306	0.098920	0.053837	-0.346924	-0.152588	0.598877	-169.542744	-84.317878	-50.456349
06735		9.452596	2.262176	-0.551506	-0.210362	-0.102202	0.072703	-0.344482	-0.152344	0.595947	-169.341956	-84.252058	-50.775103
06736		9.369931	2.061895	-0.224820	-0.190492	-0.278543	0.081043	-0.333740	-0.146973	0.603027	-169.284683	-84.085040	-50.938247
06737		9.112972	1.470904	0.295673	-0.186336	-0.175567	0.033471	-0.331055	-0.150146	0.598389	-169.372462	-83.982082	-50.953166
06738		8.822860	0.681566	0.129171	-0.160295	-0.014725	-0.019305	-0.341309	-0.156494	0.599121	-169.572708	-83.974227	-50.840022
06739		8.817492	0.065590	0.247783	-0.190392	0.060532	-0.062904	-0.338379	-0.164307	0.597656	-169.944288	-84.014322	-50.571914
06740		9.128400	-0.370758	0.635579	-0.172685	0.106661	-0.077790	-0.343750	-0.155273	0.596191	-170.354589	-84.080584	-50.254729
06741		9.599537	-0.838623	0.871489	-0.148048	0.174404	-0.061176	-0.340820	-0.162842	0.595947	-170.598400	-84.184604	-50.090742
06742		10.145892	-1.334181	0.992150	-0.192900	0.257356	-0.021183	-0.336914	-0.164063	0.590820	-170.578357	-84.330488	-50.217831
06743		10.592395	-1.779116	0.949738	-0.216830	0.306686	0.030832	-0.345215	-0.160400	0.591064	-170.206336	-84.500594	-50.712292
06744		10.826108	-2.082307	0.970988	-0.208469	0.285099	0.080362	-0.347900	-0.167236	0.587402	-169.535848	-84.651728	-51.501641
06745		10.768428	-2.296126	0.997335	-0.190565	0.173651	0.136144	-0.354980	-0.163818	0.579834	-168.596603	-84.734508	-52.550422
06746		10.077235	-2.353587	0.706234	-0.121806	0.081112	0.177387	-0.349609	-0.167236	0.584473	-167.470761	-84.757307	-53.746964
06747		9.473929	-2.365042	0.311120	0.121661	-0.157471	0.206349	-0.350098	-0.172607	0.586426	-166.357044	-84.642568	-54.791283
06748		8.952935	-2.197352	0.067474	0.284416	-0.298409	0.222180	-0.352051	-0.162354	0.589355	-165.330879	-84.444033	-55.654284
06749		8.716875	-1.828395	0.132846	0.367427	-0.352256	0.222130	-0.331543	-0.169922	0.582520	-164.390587	-84.215852	-56.383448
06750		8.840444	-1.414138	0.166147	0.362368	-0.330861	0.217712	-0.340088	-0.161621	0.588623	-163.521229	-83.997562	-57.044562
06751		9.188946	-1.016106	0.019015	0.286620	-0.268712	0.223432	-0.337891	-0.155273	0.587891	-162.607153	-83.812854	-57.794459
06752		9.539006	-0.631021	0.068092	0.187484	-0.228871	0.247230	-0.340088	-0.147949	0.590820	-161.632267	-83.642920	-58.663008
06753		9.835864	-0.270715	0.107370	0.075981	-0.191237	0.275122	-0.336670	-0.163330	0.587891	-160.558819	-83.488041	-59.695211
06754		9.918509	-0.037201	0.041853	-0.011447	-0.200661	0.295557	-0.344482	-0.157715	0.583008	-159.521676	-83.320514	-60.741723
06755		9.850744	0.057312	-0.418900	-0.063934	-0.292189	0.306836	-0.333252	-0.156006	0.583008	-158.659336	-83.101246	-61.642779
06756		9.685127	-0.018172	-0.905500	-0.109518	-0.352761	0.299211	-0.332275	-0.153320	0.592529	-158.028382	-82.848469	-62.337582
06757		9.404316	-0.208002	-1.171618	-0.193067	-0.309698	0.275669	-0.338623	-0.156982	0.584473	-157.498822	-82.624299	-62.978656
06758		9.173083	-0.505725	-1.229549	-0.276051	-0.185196	0.240332	-0.341309	-0.158936	0.587891	-156.994284	-82.471526	-63.642854
06759		8.968541	-0.847147	-0.997968	-0.356225	0.014138	0.191261	-0.331055	-0.163574	0.590332	-156.395266	-82.435400	-64.448692
06760		8.720335	-1.233612	-0.509091	-0.426888	0.185825	0.146609	-0.338867	-0.168945	0.594971	-155.727309	-82.496965	-65.365032
06761		8.743487	-1.610392	0.058307	-0.400238	0.251571	0.121915	-0.339355	-0.161621	0.588623	-154.992039	-82.598581	-66.333537
06762		8.757912	-2.072944	0.209670	-0.314370	0.276221	0.104613	-0.336182	-0.172607	0.572998	-154.220308	-82.714185	-67.289110
06763		8.971392	-2.338818	-0.128993	-0.213234	0.256761	0.096733	-0.345947	-0.176514	0.573242	-153.417813	-82.821433	-68.216887
06764		9.111291	-2.454907	-0.515617	-0.133940	0.203857	0.094801	-0.343018	-0.167725	0.577148	-152.680651	-82.899264	-69.033003
06765		9.136484	-2.293610	-0.619437	-0.029244	0.100082	0.100147	-0.353760	-0.178467	0.585205	-152.052057	-82.923038	-69.679013
06766		9.063961	-2.009560	-0.599994	0.092535	0.049174	0.099285	-0.345703	-0.169678	0.580811	-151.483677	-82.919279	-70.194185
06767		9.040477	-1.703766	-0.536740	0.171992	0.068039	0.099027	-0.354492	-0.163086	0.576660	-150.809816	-82.925539	-70.769600
06768		9.022214	-1.421625	-0.627780	0.236935	0.092000	0.097071	-0.347900	-0.172852	0.582275	-150.069852	-82.942280	-71.374287
06769		9.017120	-1.179875	-0.712836	0.300874	0.066914	0.091659	-0.349121	-0.166504	0.572998	-149.350765	-82.948321	-71.920833
06770		9.009816	-1.065697	-0.842749	0.350664	0.027184	0.084228	-0.341553	-0.170166	0.577148	-148.747088	-82.935187	-72.322523
06771		9.102712	-1.055921	-0.979143	0.371186	0.002629	0.071630	-0.356445	-0.165283	0.571533	-148.222174	-82.914387	-72.632831
06772		9.136056	-1.116216	-1.069051	0.393398	-0.007176	0.057865	-0.347900	-0.152100	0.579834	-147.784877	-82.891662	-72.842217
06773		9.153027	-1.095877	-1.100569	0.418637	-0.016772	0.040065	-0.345703	-0.163818	0.577393	-147.407243	-82.870567	-72.976729
06774		9.165852	-1.137792	-0.984139	0.432706	-0.023104	0.007516	-0.349609	-0.155029	0.575684	-147.184104	-82.855431	-72.947603
06775		9.137869	-1.098336	-1.028943	0.439379	-0.044454	-0.031774	-0.352783	-0.150146	0.573242	-147.140666	-82.843191	-72.733332
06776		9.135645	-0.934252	-1.032047	0.430766	-0.060202	-0.073953	-0.354736	-0.163086	0.583496	-147.322671	-82.835450	-72.296997
06777		9.197272	-0.830172	-1.158211	0.408096	-0.067323	-0.110731	-0.339355	-0.151611	0.582764	-147.655780	-82.836315	-71.721276
06778		9.186523	-0.661295	-1.238325	0.380233	-0.067798	-0.147150	-0.344971	-0.153076	0.579102	-148.167421	-82.846522	-70.981899
06779		9.256188	-0.549603	-1.294191	0.347530	-0.060302	-0.171042	-0.344971	-0.149170	0.571533	-148.755439	-82.867665	-70.184282
06780		9.255447	-0.457347	-1.201739	0.311494	-0.046646	-0.192151	-0.353516	-0.157227	0.580811	-149.439751	-82.899604	-69.310652
06781		9.291831	-0.389461	-1.077608	0.277282	0.000542	-0.211586	-0.347900	-0.150146	0.572021	-150.100609	-82.960287	-68.480330
06782		9.279672	-0.365543	-0.811336	0.205272	0.035623	-0.220881	-0.343750	-0.150635	0.585205	-150.793444	-83.038792	-67.659649
06783		9.467417	-0.451483	-0.734675	0.115932	0.027526	-0.220412	-0.347656	-0.147705	0.584473	-151.551661	-83.112952	-66.824651
06784		9.622049	-0.670311	-0.876984	0.011553	0.053413	-0.208291	-0.345215	-0.157959	0.574463	-152.297626	-83.194451	-66.062516
06785		9.715337	-0.904720	-0.990924	-0.046054	0.117388	-0.191085	-0.338867	-0.158203	0.572266	-152.859038	-83.304088	-65.519469
06786		9.687467	-1.122589	-1.111482	-0.067688	0.160571	-0.171493	-0.342529	-0.155029	0.570557	-153.288086	-83.428940	-65.122430
06787		9.650903	-1.256924	-1.101518	-0.086009	0.171676	-0.154441	-0.351807	-0.158447	0.575439	-153.620692	-83.555998	-64.832993
06788		9.696298	-1.451226	-1.064279	-0.075399	0.188004	-0.134045	-0.346191	-0.157227	0.567139	-153.848546	-83.684913	-64.643047
06789		9.657550	-1.637657	-0.992111	-0.042358	0.201822	-0.130399	-0.339355	-0.159424	0.572998	-153.994931	-83.821107	-64.515942
06790		9.610988	-1.691377	-0.850484	0.005152	0.193443	-0.127388	-0.351318	-0.164063	0.570801	-154.147218	-83.951030	-64.355677
06791		9.560611	-1.688648	-0.932662	0.014245	0.183099	-0.131757	-0.349121	-0.163818	0.566162	-154.324362	-84.077775	-64.165108
06792		9.508407	-1.610294	-1.223427	0.043148	0.173278	-0.135950	-0.353760	-0.157227	0.569092	-154.561670	-84.199278	-63.897565
06793		9.367388	-1.470664	-1.508691	0.105420	0.158794	-0.133565	-0.348877	-0.166992	0.561035	-154.772052	-84.313665	-63.621181
06794		9.245661	-1.267150	-1.799826	0.203096	0.143742	-0.134379	-0.346924	-0.169922	0.564697	-155.002650	-84.419247	-63.268399
06795		9.076079	-1.084228	-2.029180	0.312718	0.133718	-0.141689	-0.348877	-0.153320	0.568115	-155.220044	-84.522255	-62.865757
06796		8.956740	-0.941920	-2.098666	0.397540	0.132091	-0.150364	-0.354492	-0.155029	0.557861	-155.478625	-84.625308	-62.373079
06797		8.782525	-0.850911	-2.301017	0.487690	0.110310	-0.166194	-0.350830	-0.157959	0.559570	-155.818194	-84.721419	-61.747196
06798		8.688032	-0.799889	-2.263670	0.585322	0.122524	-0.190842	-0.347168	-0.166504	0.564941	-156.257768	-84.828316	-60.964890
06799		8.644241	-0.831591	-2.198026	0.628653	0.174870	-0.220642	-0.355469	-0.153076	0.562012	-156.715612	-84.969828	-60.139416
06800		8.698726	-0.896936	-2.044788	0.648579	0.189278	-0.259490	-0.360840	-0.152832	0.559326	-157.430413	-85.125974	-59.044807
06801		8.752390	-1.015255	-1.933659	0.598506	0.204059	-0.288811	-0.348877	-0.150635	0.555908	-158.357755	-85.295745	-57.765930
06802		8.896768	-1.161937	-2.062263	0.551744	0.224259	-0.314640	-0.358887	-0.160156	0.570313	-159.547835	-85.478769	-56.250704
06803		9.015281	-1.249532	-2.222803	0.527138	0.248741	-0.327025	-0.365234	-0.153564	0.558350	-160.863826	-85.675508	-54.623712
06804		9.024950	-1.305002	-2.504323	0.563491	0.290410	-0.338904	-0.355713	-0.145752	0.553223	-162.319157	-85.893091	-52.836576
06805		8.988492	-1.281431	-2.648127	0.676008	0.283809	-0.343372	-0.357178	-0.153320	0.555908	-163.906473	-86.105041	-50.852998
06806		8.917267	-1.276216	-2.690882	0.807474	0.230475	-0.354632	-0.360840	-0.146484	0.555664	-165.864968	-86.283926	-48.422383
06807		9.032342	-1.284809	-2.593728	0.922446	0.162296	-0.357190	-0.359863	-0.154053	0.554688	-168.089100	-86.419880	-45.660049
06808		9.083338	-1.202614	-2.242223	0.988452	0.161344	-0.369166	-0.363281	-0.148193	0.548096	-170.615433	-86.548279	-42.557423
06809		9.121477	-1.052752	-1.982510	0.996796	0.149970	-0.383478	-0.358154	-0.137451	0.549316	-173.461980	-86.663180	-39.129676
06810		9.101392	-0.898680	-2.036124	0.954793	0.140999	-0.397148	-0.361084	-0.138672	0.558594	-176.725888	-86.761667	-35.308313
06811		9.007666	-0.618973	-2.200554	0.892717	0.130446	-0.412707	-0.366211	-0.139648	0.548340	179.643696	-86.842010	-31.155892
06812		8.931624	-0.417472	-2.478630	0.776672	0.041236	-0.441965	-0.359375	-0.143555	0.547607	175.495624	-86.853469	-26.551744
06813		8.950424	-0.402891	-2.692347	0.604544	-0.082097	-0.479736	-0.362305	-0.132813	0.553711	171.091815	-86.774436	-21.790160
06814		8.969207	-0.479106	-2.571939	0.513299	-0.095005	-0.511481	-0.359131	-0.136475	0.556641	166.576762	-86.662919	-16.969000
06815		9.141066	-0.381458	-1.724990	0.545590	-0.005657	-0.552959	-0.353516	-0.139404	0.549072	161.798266	-86.573557	-11.864985
06816		9.917077	-0.126426	-0.441099	0.486311	-0.025533	-0.629574	-0.354492	-0.143066	0.546143	156.667019	-86.430751	-6.440900
06817		11.477643	0.499874	0.239277	0.114712	-0.231973	-0.733863	-0.347168	-0.141602	0.550293	151.843297	-86.128781	-1.537112
06818		13.010208	1.414060	-0.206657	-0.331630	-0.419847	-0.764642	-0.344727	-0.147705	0.555664	148.054403	-85.700113	2.075035
06819		13.542679	2.136731	-1.230902	-0.431196	-0.467719	-0.707924	-0.347900	-0.155762	0.555420	145.416504	-85.254505	4.477374
06820		13.756322	2.709145	-1.435845	-0.052588	-0.411750	-0.595219	-0.349609	-0.158203	0.556885	143.773550	-84.863892	6.100333
06821		13.921764	3.251721	-0.168483	0.450689	-0.206866	-0.432525	-0.342285	-0.162109	0.559082	142.677588	-84.621663	7.464303
06822		13.673741	3.808773	0.828046	0.565955	0.109171	-0.248512	-0.339355	-0.158203	0.563477	141.426894	-84.582788	9.050414
06823		12.919490	4.325815	0.592340	0.402678	0.387897	-0.142766	-0.339844	-0.153320	0.561035	139.504171	-84.703298	11.217349
06824		11.949486	3.893612	0.179771	0.175958	0.164596	-0.108253	-0.344727	-0.158691	0.558105	138.450411	-84.733186	12.380981
06825		11.023219	2.184168	0.497506	0.096411	-0.320825	-0.106017	-0.343750	-0.154053	0.548828	139.331637	-84.555848	11.555417
06826		10.807370	0.435637	0.912919	0.067392	-0.387676	-0.132858	-0.351807	-0.169678	0.557861	140.267054	-84.336477	10.658519
06827		10.681690	-1.024653	0.905385	0.003178	-0.347825	-0.176595	-0.341553	-0.164063	0.562988	140.772410	-84.119417	10.156462
06828		10.436550	-2.209371	1.141401	-0.024363	-0.394674	-0.205427	-0.342285	-0.166748	0.566162	141.259932	-83.868983	9.656353
06829		10.220403	-2.814819	1.656764	-0.101081	-0.271758	-0.233432	-0.337891	-0.161865	0.560059	141.162382	-83.665108	9.700264
06830		9.973254	-2.830282	1.367580	-0.441104	-0.067435	-0.257709	-0.339600	-0.166748	0.556885	140.127861	-83.540999	10.491090
06831		9.273535	-2.375740	-0.438360	-0.637986	-0.068758	-0.234814	-0.325928	-0.175781	0.559082	139.110180	-83.425445	11.151499
06832		8.538046	-1.631789	-2.028546	-0.264902	0.209461	-0.180688	-0.336426	-0.172363	0.562256	137.610952	-83.445814	12.511983
06833		8.113409	-0.982759	-1.666003	0.324170	0.187722	-0.081008	-0.338867	-0.184570	0.568604	136.883539	-83.495078	13.435115
06834		8.116147	-0.354526	-0.705279	0.749008	0.098762	0.005621	-0.343018	-0.175781	0.564209	137.011647	-83.538130	13.742237
06835		8.477145	0.348504	0.090922	0.885529	0.210015	0.067736	-0.341064	-0.170166	0.565918	137.064794	-83.654467	14.203332
06836		8.954459	1.080918	0.675366	0.875458	0.392211	0.115273	-0.348145	-0.173340	0.571777	136.620158	-83.863085	15.159349
06837		9.589825	1.952657	1.847086	0.771602	0.429514	0.154895	-0.343506	-0.158691	0.550781	136.083287	-84.104322	16.147734
06838		10.265008	2.786800	2.048201	0.674350	0.376615	0.149602	-0.352295	-0.160156	0.555908	135.613614	-84.318393	17.012304
06839		10.847483	3.418082	1.526770	0.668290	0.404478	0.112977	-0.344238	-0.155029	0.567383	134.816606	-84.530471	18.201790
06840		10.693575	3.659153	1.115741	0.622802	0.209422	0.039906	-0.348877	-0.147705	0.562744	134.464007	-84.630621	18.918547
06841		10.062556	3.717428	0.832424	0.514753	-0.170510	-0.051110	-0.343506	-0.160156	0.569824	135.290628	-84.542869	18.388430
06842		9.276842	3.448749	1.078464	0.338535	-0.360307	-0.134694	-0.347412	-0.155762	0.560303	136.413741	-84.340514	17.459031
06843		8.659763	2.934215	1.312645	0.092807	-0.302864	-0.198392	-0.349854	-0.153809	0.563232	136.845343	-84.138118	17.082637
06844		8.428305	2.342639	0.989185	-0.157677	-0.168290	-0.228371	-0.350098	-0.161377	0.567383	136.495712	-83.977703	17.347465
06845		8.450695	1.832487	0.464514	-0.353404	-0.078756	-0.227672	-0.335938	-0.165771	0.565186	135.718335	-83.856537	17.929552
06846		8.694865	1.528454	0.020884	-0.459047	-0.039194	-0.219060	-0.348633	-0.162598	0.565186	134.798686	-83.751787	18.594184
06847		9.017589	1.434006	-0.218260	-0.485367	-0.017343	-0.226755	-0.345215	-0.171631	0.557617	133.775069	-83.653648	19.348163
06848		9.277382	1.466401	-0.230614	-0.469587	0.010389	-0.244073	-0.341797	-0.168213	0.557129	132.631816	-83.555393	20.231977
06849		9.396570	1.556145	-0.112040	-0.442328	0.008494	-0.281940	-0.345459	-0.166260	0.563232	131.408752	-83.440453	21.211804
06850		9.480507	1.637191	-0.132683	-0.413604	-0.027501	-0.312839	-0.345459	-0.174316	0.555176	130.284331	-83.294229	22.109368
06851		9.391635	1.572374	-0.127938	-0.395170	-0.066880	-0.321553	-0.337402	-0.189453	0.567871	129.323950	-83.129977	22.852422
06852		9.136168	1.499668	-0.249232	-0.390066	-0.093802	-0.304268	-0.344971	-0.182861	0.559082	128.562498	-82.960335	23.398516
06853		8.905465	1.363575	-0.460687	-0.356984	-0.100770	-0.257872	-0.348389	-0.191650	0.552979	127.996381	-82.810396	23.766799
06854		8.644138	1.345591	-0.547068	-0.326448	-0.060222	-0.198848	-0.338379	-0.197754	0.562256	127.492525	-82.698949	24.090313
06855		8.444190	1.326858	-0.576441	-0.299265	-0.018730	-0.146807	-0.341309	-0.194824	0.554688	127.000154	-82.627290	24.417761
06856		8.354459	1.471202	-0.429697	-0.293746	0.011370	-0.085434	-0.342285	-0.197510	0.561768	126.582527	-82.591785	24.673323
06857		8.389684	1.558634	-0.358652	-0.336523	0.053167	-0.035189	-0.340088	-0.203857	0.551758	126.116832	-82.595372	24.952392
06858		8.476466	1.654361	-0.197052	-0.378413	0.090379	0.009453	-0.337158	-0.207275	0.552490	125.617773	-82.629922	25.241149
06859		8.671700	1.690216	-0.060462	-0.415449	0.090876	0.047924	-0.341064	-0.198730	0.556152	125.181172	-82.684211	25.445246
06860		8.879509	1.693246	0.032540	-0.456264	0.087085	0.074344	-0.340576	-0.208252	0.563721	124.808234	-82.747567	25.561821
06861		9.160209	1.687222	0.056692	-0.497561	0.080038	0.096323	-0.342773	-0.213623	0.548096	124.479847	-82.820768	25.609360
06862		9.358606	1.582039	0.078098	-0.549547	0.037392	0.123238	-0.343750	-0.213135	0.547607	124.359833	-82.890988	25.417129
06863		9.421981	1.517391	0.045803	-0.606932	0.007332	0.139205	-0.338623	-0.217529	0.552002	124.353382	-82.960924	25.077104
06864		9.423045	1.490332	-0.107655	-0.657957	-0.001923	0.155466	-0.341064	-0.216797	0.549561	124.411010	-83.033679	24.643374
06865		9.258224	1.454526	-0.144721	-0.681652	-0.047950	0.166243	-0.341553	-0.215332	0.552246	124.656956	-83.098288	24.006072
06866		9.072301	1.378544	-0.129344	-0.683015	-0.110547	0.180055	-0.343750	-0.219727	0.552490	125.203802	-83.146450	23.065233
06867		9.005612	1.316352	-0.248879	-0.679266	-0.071415	0.192699	-0.339600	-0.222412	0.549072	125.635059	-83.214421	22.242837
06868		9.067401	1.338033	-0.507358	-0.661468	0.019456	0.195302	-0.349365	-0.226563	0.543945	125.750303	-83.311632	21.749307
06869		9.245538	1.402580	-0.623394	-0.604104	0.082564	0.195954	-0.340332	-0.232422	0.541748	125.644040	-83.432107	21.511736
06870		9.483516	1.419458	-0.527765	-0.527237	0.074002	0.199029	-0.334473	-0.233643	0.537598	125.641059	-83.549315	21.214835
06871		9.706954	1.331634	-0.419907	-0.463878	0.042616	0.215523	-0.343018	-0.236572	0.548096	125.849112	-83.665469	20.741949
06872		9.818151	1.138722	-0.403220	-0.420811	0.016113	0.230200	-0.350098	-0.239990	0.538330	126.264998	-83.777348	20.085131
06873		9.912701	0.959966	-0.414557	-0.412778	0.033942	0.248835	-0.344727	-0.247070	0.545654	126.676059	-83.905207	19.437731
06874		9.919645	0.705014	-0.418240	-0.423791	0.078581	0.265058	-0.345703	-0.242188	0.543457	126.974447	-84.053553	18.897664
06875		10.024475	0.497294	-0.473286	-0.421730	0.096150	0.278107	-0.350830	-0.239746	0.538086	127.248640	-84.215515	18.383056
06876		10.010391	0.369353	-0.449655	-0.408574	0.088738	0.285950	-0.345459	-0.255371	0.537842	127.628220	-84.376288	17.770463
06877		10.064341	0.325043	-0.365255	-0.390461	0.116276	0.286723	-0.352539	-0.243164	0.535889	127.907450	-84.548627	17.269098
06878		10.022918	0.357355	-0.353669	-0.319111	0.168306	0.274958	-0.348633	-0.242188	0.534424	127.968099	-84.731923	17.028676
06879		10.002297	0.499695	-0.440111	-0.234805	0.202895	0.255093	-0.352783	-0.250244	0.529541	127.820838	-84.920360	17.045402
06880		9.842418	0.635685	-0.491283	-0.198769	0.213004	0.246352	-0.358398	-0.249756	0.528809	127.613256	-85.106444	17.143585
06881		9.600807	0.780835	-0.606617	-0.215157	0.162043	0.242342	-0.354736	-0.249268	0.533936	127.632924	-85.274798	17.004089
06882		9.305772	0.873549	-0.662118	-0.234105	0.102465	0.245280	-0.360107	-0.248047	0.532959	128.012449	-85.421576	16.492864
06883		9.051961	1.065815	-0.725509	-0.241104	0.054549	0.253109	-0.363770	-0.254639	0.529541	128.714898	-85.556352	15.653624
06884		8.773647	1.190161	-0.825334	-0.240570	0.021194	0.252194	-0.374268	-0.249023	0.526611	129.671026	-85.675744	14.560578
06885		8.729553	1.356084	-0.989558	-0.250474	0.028826	0.255362	-0.362793	-0.252686	0.528076	130.635630	-85.799821	13.453367
06886		8.742271	1.511466	-1.169972	-0.282035	0.036968	0.250164	-0.369629	-0.250488	0.525879	131.582487	-85.921419	12.346144
06887		8.834464	1.652988	-1.360519	-0.285865	0.014519	0.241704	-0.363037	-0.249512	0.520996	132.664368	-86.031202	11.101389
06888		8.957074	1.804238	-1.397882	-0.283374	0.015511	0.220489	-0.364990	-0.245117	0.520508	133.696923	-86.129021	9.907796
06889		8.908678	1.873687	-1.345310	-0.311793	0.029726	0.205202	-0.367920	-0.246826	0.522461	134.574955	-86.226602	8.852772
06890		8.910912	1.836373	-1.423973	-0.396594	0.031759	0.191567	-0.366699	-0.253174	0.521240	135.369513	-86.316676	7.832940
06891		8.914715	1.715458	-1.470267	-0.473578	0.050327	0.187494	-0.359863	-0.257080	0.517578	136.006258	-86.413547	6.927047
06892		8.946356	1.577585	-1.449561	-0.517670	0.074322	0.187934	-0.365723	-0.258301	0.524658	136.522817	-86.518284	6.116461
06893		8.987527	1.435607	-1.461029	-0.549443	0.081987	0.194155	-0.363770	-0.261230	0.516846	137.041186	-86.629753	5.285829
06894		9.010467	1.309461	-1.570025	-0.619930	0.097707	0.196097	-0.366455	-0.260254	0.524170	137.487270	-86.746617	4.487333
06895		9.060465	1.096795	-1.570161	-0.690267	0.098427	0.218277	-0.363770	-0.262939	0.518066	138.092031	-86.873350	3.489576
06896		9.044583	0.926996	-1.670745	-0.727389	0.060399	0.241769	-0.375000	-0.264160	0.516846	139.222733	-86.990303	1.944011
06897		8.912820	0.779458	-1.815567	-0.721435	-0.025728	0.262402	-0.369385	-0.258301	0.523438	141.241914	-87.075964	-0.487723
06898		8.825264	0.749376	-1.875444	-0.711834	-0.077353	0.288255	-0.370117	-0.274170	0.510742	143.999780	-87.140385	-3.653353
06899		8.618913	0.797502	-1.925976	-0.721518	-0.088299	0.299976	-0.376221	-0.270996	0.513672	147.054693	-87.196593	-7.121828
06900		8.519783	0.877251	-1.965386	-0.726681	-0.105196	0.298514	-0.374756	-0.281982	0.504395	150.320792	-87.233197	-10.804516
06901		8.391624	0.911401	-2.027886	-0.715116	-0.122574	0.295292	-0.372070	-0.278076	0.502930	153.723991	-87.250923	-14.617778
06902		8.376241	0.940225	-2.039641	-0.695898	-0.140170	0.282778	-0.370850	-0.279785	0.497803	157.117949	-87.244302	-18.410712
06903		8.429339	0.954453	-2.030512	-0.672475	-0.128001	0.268594	-0.374023	-0.274658	0.499512	160.285135	-87.231965	-21.963227
06904		8.570892	0.931722	-2.083912	-0.672319	-0.143574	0.257831	-0.368652	-0.289551	0.501465	163.343392	-87.198782	-25.406642
06905		8.691867	0.844684	-2.215442	-0.673358	-0.204844	0.246135	-0.373535	-0.291992	0.500488	166.347831	-87.122174	-28.796942
06906		8.707948	0.817586	-2.314801	-0.646931	-0.291472	0.243364	-0.371338	-0.284668	0.495850	169.336274	-86.986983	-32.156368
06907		8.709399	0.884741	-2.482993	-0.655819	-0.379973	0.243566	-0.370605	-0.283691	0.502686	172.164632	-86.794046	-35.361081
06908		8.731366	0.931230	-2.668092	-0.675347	-0.456695	0.245239	-0.366455	-0.299561	0.504883	174.713309	-86.548720	-38.297534
06909		8.652608	1.040739	-2.923477	-0.627232	-0.540730	0.249120	-0.370850	-0.296387	0.497559	176.992364	-86.249291	-40.937049
06910		8.777342	1.353034	-3.275062	-0.489383	-0.561510	0.246866	-0.368164	-0.298340	0.501465	178.963527	-85.931278	-43.189726
06911		9.219772	1.741437	-2.777737	-0.348881	-0.495776	0.252583	-0.366211	-0.297607	0.501221	-179.245277	-85.646614	-45.182065
06912		10.420972	1.619748	-1.351563	-0.196010	-0.428017	0.273016	-0.368408	-0.296143	0.508789	-177.437808	-85.395443	-47.103586
06913		12.704150	0.302791	0.059067	0.210389	-0.201257	0.276946	-0.361816	-0.297363	0.507813	-175.452425	-85.269435	-48.970489
06914		15.272719	-1.938558	0.939836	0.609666	0.201457	0.196449	-0.369141	-0.291504	0.507324	-173.587004	-85.372069	-50.487536
06915		16.552206	-4.076982	0.395545	0.406625	0.597644	0.022050	-0.364990	-0.296875	0.508301	-172.654325	-85.709524	-51.185215
06916		16.370096	-3.912455	-2.354283	-0.064217	0.784002	-0.113796	-0.366943	-0.296143	0.504639	-172.787200	-86.161820	-51.084765
06917		14.833935	-2.156962	-4.329272	0.573007	0.326876	0.070304	-0.383545	-0.286865	0.496582	-171.439280	-86.340781	-52.102431
06918		14.153644	-2.122984	-0.466702	1.769650	-0.600883	0.299946	-0.373291	-0.280762	0.507568	-168.773585	-85.970486	-53.753777
06919		13.010646	-2.050768	4.211386	1.331453	-0.438198	0.451410	-0.377686	-0.274902	0.506104	-165.315787	-85.666508	-56.451756
06920		10.792919	-2.018839	4.225667	0.239668	0.479969	0.368063	-0.377197	-0.272217	0.510010	-161.373676	-85.868013	-60.262812
06921		10.076751	-1.461244	0.531755	-0.233713	0.892684	0.145257	-0.374023	-0.265625	0.510986	-157.730087	-86.317365	-64.044936
06922		10.213624	-0.314521	-1.944547	0.222331	0.641114	-0.022699	-0.385986	-0.271484	0.507324	-155.410196	-86.657981	-66.237432
06923		10.409981	0.898984	-0.749448	0.848157	-0.089950	-0.085360	-0.387451	-0.270264	0.509277	-156.025311	-86.629966	-65.130338
06924		10.478270	1.803928	1.985145	0.835146	-0.676762	-0.107602	-0.390381	-0.266602	0.514648	-158.865984	-86.293715	-61.800715
06925		10.352405	2.380627	2.782412	0.462169	-0.721998	-0.103826	-0.378906	-0.259521	0.516357	-161.469236	-85.923695	-58.921906
06926		10.041122	2.684921	2.095681	0.179842	-0.554717	-0.054784	-0.374756	-0.261719	0.521240	-163.072779	-85.628850	-57.206553
06927		9.403255	2.768048	1.160918	0.016890	-0.326536	-0.011889	-0.372803	-0.263672	0.519775	-163.814846	-85.450822	-56.448366
06928		8.486935	2.577436	0.223216	-0.100762	-0.251631	0.012840	-0.379150	-0.263916	0.528320	-164.266524	-85.308558	-56.049007
06929		7.827324	2.038815	-0.460089	-0.235466	-0.161045	-0.003958	-0.373535	-0.265381	0.516357	-164.712761	-85.219775	-55.732446
06930		7.533870	1.293592	-0.577429	-0.312252	-0.056362	0.002285	-0.371094	-0.262695	0.528809	-164.968106	-85.186646	-55.651610
06931		7.738077	0.320289	-0.046064	-0.294038	0.091935	0.047163	-0.372803	-0.265625	0.523682	-164.649386	-85.229957	-56.136336
06932		8.174957	-0.737622	0.608994	-0.221090	0.208759	0.081790	-0.374268	-0.268311	0.520020	-163.827230	-85.330721	-57.084266
06933		8.919846	-1.870297	1.012730	-0.169129	0.240531	0.105859	-0.381348	-0.273193	0.517578	-162.700315	-85.444830	-58.307884
06934		9.775327	-2.896552	1.297148	-0.267593	0.304673	0.103389	-0.381592	-0.269287	0.513184	-161.440534	-85.591056	-59.721189
06935		10.546660	-3.476984	1.457309	-0.510405	0.397464	0.076045	-0.384277	-0.268311	0.510010	-160.178538	-85.791453	-61.275850
06936		10.174677	-3.247878	0.869623	-0.672166	0.490599	0.008353	-0.390381	-0.281494	0.508545	-159.121813	-86.051708	-62.717229
06937		9.917648	-2.910399	0.179106	-0.481887	0.391004	-0.006798	-0.387695	-0.282227	0.512451	-158.219365	-86.261439	-63.894260
06938		9.639044	-2.512955	-0.011522	-0.213562	0.142422	0.035080	-0.394531	-0.279053	0.511475	-157.572476	-86.327825	-64.660997
06939		9.310624	-2.215212	-0.044334	0.077469	-0.055187	0.086236	-0.390381	-0.276367	0.495605	-156.988891	-86.279134	-65.197152
06940		9.122629	-1.963659	0.206945	0.247590	-0.125713	0.139142	-0.387939	-0.278320	0.506104	-156.164582	-86.179686	-65.876957
06941		9.102864	-1.490465	0.361632	0.369698	-0.138583	0.168068	-0.393555	-0.271973	0.506592	-155.117962	-86.067140	-66.709498
06942		9.234040	-1.040453	0.428280	0.470016	-0.177422	0.181373	-0.387207	-0.269531	0.511230	-154.123455	-85.929085	-67.432352
06943		9.425421	-0.696822	0.456143	0.503126	-0.236809	0.190411	-0.393555	-0.267334	0.517090	-153.293234	-85.758610	-67.971550
06944		9.616181	-0.498832	0.342812	0.470336	-0.276988	0.212288	-0.389648	-0.270020	0.510254	-152.543704	-85.560262	-68.448849
06945		9.689095	-0.449797	0.313259	0.406355	-0.283039	0.233350	-0.389404	-0.264893	0.509766	-151.755022	-85.353930	-69.002262
06946		9.733308	-0.414581	0.187534	0.306321	-0.259382	0.247320	-0.392334	-0.263428	0.513184	-150.935629	-85.153891	-69.644230
06947		9.624424	-0.518218	0.002509	0.217843	-0.215101	0.247798	-0.385010	-0.264893	0.515625	-150.062341	-84.976237	-70.391274
06948		9.446263	-0.602605	-0.197788	0.155601	-0.193637	0.243264	-0.381348	-0.251709	0.529541	-149.250563	-84.808402	-71.112647
06949		9.352262	-0.798818	-0.344344	0.095695	-0.149469	0.218393	-0.385742	-0.258789	0.521973	-148.493980	-84.669924	-71.813141
06950		9.168435	-1.017835	-0.381628	0.075680	-0.121420	0.199488	-0.386475	-0.252930	0.524170	-147.807280	-84.548843	-72.455203
06951		9.073548	-1.238730	-0.268635	0.074539	-0.104392	0.175199	-0.386963	-0.253662	0.520752	-147.200614	-84.443950	-73.017534
06952		9.111721	-1.464168	-0.261942	0.094734	-0.064379	0.161165	-0.396973	-0.258545	0.517822	-146.559750	-84.360933	-73.602794
06953		9.110385	-1.547347	-0.149886	0.109055	-0.021884	0.142257	-0.395020	-0.257813	0.524170	-145.866128	-84.304625	-74.232786
06954		9.082989	-1.567141	-0.066736	0.111623	-0.032932	0.116290	-0.387939	-0.252441	0.524170	-145.357074	-84.249755	-74.675977
06955		9.154725	-1.527596	-0.090767	0.118127	-0.029194	0.095434	-0.388428	-0.258545	0.523438	-144.921086	-84.204181	-75.041907
06956		9.151782	-1.444364	-0.081710	0.134787	0.015637	0.071889	-0.393555	-0.251465	0.521484	-144.459763	-84.186021	-75.423846
06957		9.219277	-1.255802	-0.117349	0.165600	0.035594	0.054564	-0.385742	-0.256348	0.522949	-143.979245	-84.183664	-75.807219
06958		9.309833	-1.072959	-0.145255	0.201416	0.051255	0.045955	-0.385986	-0.250244	0.526123	-143.482420	-84.190104	-76.186476
06959		9.324257	-0.993826	-0.196611	0.239139	0.071473	0.041747	-0.396484	-0.250000	0.524170	-142.895523	-84.207917	-76.634411
06960		9.326321	-0.875192	-0.255204	0.247467	0.063010	0.042545	-0.387207	-0.247314	0.531494	-142.344336	-84.220149	-77.041769
06961		9.298199	-0.856196	-0.310902	0.249993	0.054789	0.049392	-0.388916	-0.243652	0.530273	-141.769651	-84.226847	-77.471158
06962		9.257130	-0.926468	-0.413243	0.250408	0.056898	0.053789	-0.397217	-0.237793	0.531250	-141.185087	-84.231505	-77.910359
06963		9.161702	-0.998588	-0.510647	0.248920	0.056080	0.054412	-0.398193	-0.240723	0.530762	-140.582117	-84.236084	-78.368785
06964		9.123911	-1.123770	-0.587511	0.228706	0.044998	0.050108	-0.396484	-0.244141	0.526855	-140.067825	-84.235952	-78.749848
06965		9.123055	-1.257491	-0.618148	0.204256	0.051145	0.039561	-0.391113	-0.249023	0.531494	-139.571621	-84.242994	-79.126682
06966		9.077083	-1.376759	-0.662203	0.177057	0.030800	0.024736	-0.393311	-0.234619	0.523682	-139.248477	-84.245532	-79.345367
06967		9.033102	-1.391314	-0.793522	0.144280	-0.000465	0.009600	-0.393555	-0.237061	0.526855	-139.106009	-84.240966	-79.401208
06968		8.976790	-1.364639	-0.936125	0.115152	-0.025178	-0.015325	-0.392334	-0.234619	0.528320	-139.198407	-84.234156	-79.237893
06969		8.884474	-1.308633	-1.112330	0.108820	-0.061810	-0.036694	-0.396729	-0.238037	0.530518	-139.501656	-84.220175	-78.866170
06970		8.853319	-1.229191	-1.207002	0.122184	-0.081356	-0.055196	-0.391846	-0.230713	0.530029	-139.965804	-84.203404	-78.325142
06971		8.876303	-1.103016	-1.169643	0.143120	-0.079882	-0.072906	-0.402832	-0.238037	0.527344	-140.467618	-84.194124	-77.734064
06972		8.951880	-1.011717	-1.167946	0.160060	-0.073017	-0.091777	-0.393799	-0.238525	0.532715	-141.035258	-84.193346	-77.067180
06973		9.053748	-0.978611	-1.132259	0.179919	-0.047287	-0.117385	-0.396729	-0.236816	0.535889	-141.595686	-84.213385	-76.396006
06974		9.172576	-0.907518	-1.021964	0.214303	0.010823	-0.136951	-0.395996	-0.240967	0.517334	-142.044607	-84.265110	-75.817260
06975		9.359848	-0.853050	-0.887484	0.229856	0.055089	-0.162644	-0.387451	-0.240234	0.525146	-142.437170	-84.346273	-75.286159
06976		9.491356	-0.834674	-0.774456	0.222294	0.111759	-0.177803	-0.396484	-0.233154	0.525391	-142.736560	-84.457371	-74.853224
06977		9.606304	-0.868955	-0.743444	0.178701	0.137609	-0.195448	-0.395020	-0.241943	0.515869	-143.047957	-84.586963	-74.433311
06978		9.870195	-0.978040	-0.663835	0.100024	0.110954	-0.198544	-0.394775	-0.236084	0.530029	-143.556506	-84.704257	-73.860838
06979		9.956626	-1.173710	-0.778929	0.019746	0.118860	-0.189825	-0.389404	-0.233398	0.525635	-144.041476	-84.822613	-73.358258
06980		9.817567	-1.140777	-0.892762	0.026509	0.167990	-0.186417	-0.395020	-0.241455	0.521240	-144.363455	-84.961494	-73.015614
06981		9.586040	-1.057206	-0.909714	0.069607	0.171163	-0.179494	-0.397461	-0.234131	0.528320	-144.607391	-85.100210	-72.726523
06982		9.390238	-0.919566	-1.000863	0.087149	0.111848	-0.162053	-0.395020	-0.236816	0.527832	-145.014470	-85.204426	-72.263740
06983		9.278695	-0.894591	-1.041619	0.084956	0.052285	-0.150749	-0.393799	-0.250244	0.526123	-145.589151	-85.277359	-71.634035
06984		9.194095	-0.911566	-1.034882	0.090660	0.080337	-0.132835	-0.393066	-0.243896	0.519775	-145.987050	-85.356551	-71.178556
06985		9.145379	-0.994133	-1.023281	0.100455	0.140005	-0.124035	-0.405518	-0.248047	0.522461	-146.079753	-85.461900	-71.023632
06986		9.054506	-1.131658	-1.172392	0.119855	0.181614	-0.124399	-0.401123	-0.242676	0.524902	-146.021450	-85.586356	-71.009103
06987		9.019479	-1.248550	-1.308006	0.143490	0.181836	-0.126779	-0.400391	-0.244629	0.520508	-145.937595	-85.712408	-71.006582
06988		8.912672	-1.396522	-1.403969	0.159489	0.177723	-0.127457	-0.397217	-0.242432	0.527100	-145.889970	-85.836002	-70.958580
06989		8.875014	-1.505426	-1.433713	0.193382	0.162300	-0.128625	-0.399658	-0.238770	0.521484	-145.874279	-85.953304	-70.859075
06990		8.851833	-1.558295	-1.377244	0.261769	0.170883	-0.131060	-0.407715	-0.244141	0.525391	-145.825045	-86.074818	-70.753956
06991		8.807019	-1.428140	-1.354292	0.306247	0.173802	-0.144675	-0.402100	-0.247070	0.520020	-145.806604	-86.202659	-70.592437
06992		8.857243	-1.369002	-1.438198	0.349323	0.182975	-0.155199	-0.403564	-0.234619	0.513428	-145.829190	-86.337679	-70.365106
06993		8.862645	-1.298020	-1.536193	0.364085	0.178838	-0.180411	-0.400146	-0.245850	0.521240	-146.038315	-86.479278	-69.942435
06994		8.899960	-1.217499	-1.647006	0.396806	0.137137	-0.209096	-0.397949	-0.241455	0.520508	-146.740689	-86.609368	-69.006891
06995		8.945925	-1.043806	-1.718513	0.386875	0.143052	-0.241459	-0.407959	-0.236572	0.517822	-147.725244	-86.751942	-67.794546
06996		9.032805	-0.943195	-1.897489	0.417716	0.045041	-0.271902	-0.405762	-0.241211	0.517578	-149.624794	-86.853327	-65.648206
06997		9.163905	-0.910714	-2.114780	0.416977	-0.049755	-0.293331	-0.400146	-0.242432	0.524658	-152.299063	-86.908795	-62.726622
06998		9.214028	-0.875923	-2.015620	0.399508	-0.097892	-0.303434	-0.400879	-0.240234	0.521240	-155.425519	-86.933373	-59.362296
06999		9.160030	-0.878945	-2.035289	0.376967	-0.160354	-0.302959	-0.402344	-0.243408	0.520020	-158.811125	-86.915106	-55.751435
07000		9.119162	-0.864421	-2.332739	0.396263	-0.206748	-0.292486	-0.399414	-0.238770	0.527832	-162.205887	-86.857680	-52.120159
07001		9.058492	-0.861746	-2.745860	0.374651	-0.227015	-0.296235	-0.410889	-0.237793	0.522949	-165.534102	-86.778863	-48.567749
07002		8.989157	-0.990221	-3.065677	0.325740	-0.279368	-0.316670	-0.389648	-0.237305	0.519775	-169.038337	-86.660994	-44.866706
07003		9.026473	-1.247792	-3.078876	0.300082	-0.351808	-0.349450	-0.396484	-0.241455	0.529053	-172.667372	-86.492834	-41.054886
07004		8.964178	-1.389812	-2.285121	0.382866	-0.309418	-0.378031	-0.387695	-0.240723	0.527832	-176.149329	-86.335893	-37.342187
07005		9.505712	-1.118312	-0.891204	0.426805	-0.218649	-0.435244	-0.393311	-0.244385	0.538086	-179.764852	-86.218768	-33.469904
07006		10.963186	-0.872413	-0.116533	0.072510	-0.217576	-0.501068	-0.392090	-0.237305	0.536621	176.087271	-86.083445	-29.266897
07007		12.711762	-0.428678	-0.694979	-0.499894	-0.241018	-0.523277	-0.387695	-0.238525	0.530518	171.785476	-85.913944	-25.237660
07008		13.459432	0.485820	-1.576946	-0.780500	-0.200256	-0.481374	-0.378662	-0.249023	0.535645	167.908327	-85.751030	-21.794494
07009		13.312847	1.651751	-1.791867	-0.736386	-0.352477	-0.433284	-0.374512	-0.267822	0.528320	164.987737	-85.496343	-19.284461
07010		13.793592	2.648834	-0.871499	-0.535549	-0.706504	-0.307957	-0.374268	-0.258057	0.543457	163.953451	-85.057901	-18.550421
07011		14.514011	3.211976	1.222201	-0.225164	-0.830858	-0.113786	-0.375244	-0.264160	0.542236	164.586307	-84.581900	-19.311316
07012		14.065670	3.621014	2.567128	0.077515	-0.526390	0.046688	-0.367920	-0.268311	0.542480	165.706569	-84.296035	-20.388113
07013		13.129566	3.905381	2.126220	0.323262	-0.129055	0.111566	-0.372314	-0.265137	0.539307	166.711171	-84.239430	-21.207510
07014		12.051716	3.299184	0.610803	0.172344	-0.096920	0.084182	-0.372559	-0.258301	0.539307	167.412189	-84.194881	-21.808726
07015		10.489059	1.648336	-0.852821	-0.313033	-0.327958	-0.019196	-0.365234	-0.254639	0.541016	167.545511	-84.009093	-22.118952
07016		9.473102	0.005556	-0.874608	-0.429473	-0.655608	-0.108254	-0.365723	-0.271240	0.541748	167.503988	-83.627691	-22.320556
07017		9.278706	-1.435579	0.505657	-0.046231	-0.882569	-0.156667	-0.356445	-0.268311	0.549805	167.678103	-83.114559	-22.518377
07018		9.185048	-2.617416	2.079006	0.209340	-0.667686	-0.195909	-0.354980	-0.268066	0.548828	167.588240	-82.715601	-22.302811
07019		8.863057	-3.680921	3.204386	-0.288068	-0.091421	-0.304631	-0.358643	-0.276123	0.549072	166.213040	-82.625235	-21.078551
07020		8.753640	-3.425597	1.108432	-1.136015	-0.004649	-0.393091	-0.353516	-0.279297	0.552979	163.906349	-82.563403	-19.404673
07021		8.255444	-2.385217	-2.996469	-1.036802	0.130474	-0.403792	-0.355225	-0.287842	0.538818	161.469599	-82.566529	-17.542213
07022		8.050509	-1.426477	-3.682325	-0.284101	0.333547	-0.314150	-0.353760	-0.290039	0.541992	159.516567	-82.685490	-15.732883
07023		8.072064	-0.772764	-2.337870	0.536765	0.143537	-0.186637	-0.351807	-0.292725	0.538330	158.836778	-82.724970	-14.733372
07024		8.591849	-0.227105	-0.856348	0.949871	0.152755	-0.067509	-0.356445	-0.282959	0.551758	158.862938	-82.791589	-14.206982
07025		9.256758	0.419392	0.077867	0.964264	0.407397	0.031917	-0.366455	-0.275146	0.546387	158.899440	-83.016548	-13.682905
07026		9.854157	1.318141	0.618255	0.880915	0.711126	0.113558	-0.356934	-0.278076	0.545166	158.690052	-83.418896	-12.959615
07027		10.540405	2.343254	1.468660	0.877984	0.978806	0.180091	-0.380615	-0.276123	0.538818	158.221147	-83.979161	-11.977677
07028		11.288571	3.454766	2.748498	0.732941	0.658359	0.214726	-0.371338	-0.271973	0.545166	158.412458	-84.374098	-11.743721
07029		11.543925	4.150531	2.051679	0.769218	0.218740	0.212118	-0.376221	-0.263428	0.545166	159.583321	-84.535496	-12.473221
07030		10.912736	4.136948	1.022710	0.595274	0.005714	0.095459	-0.378418	-0.265625	0.540283	160.468538	-84.556178	-13.015711
07031		9.719347	4.064226	0.380931	0.225519	-0.154668	-0.056531	-0.367920	-0.264160	0.542725	160.608543	-84.462680	-13.022484
07032		8.842214	3.671974	0.330684	-0.139507	-0.229654	-0.191898	-0.368408	-0.249023	0.547607	159.944965	-84.300626	-12.431885
07033		8.554797	2.902006	0.629851	-0.428780	-0.141851	-0.250852	-0.371094	-0.263916	0.539795	158.669438	-84.174664	-11.392730
07034		8.553133	1.883091	0.714817	-0.677051	-0.016010	-0.255168	-0.373779	-0.264893	0.539307	157.012381	-84.109992	-10.112797
07035		8.830788	1.038577	0.274001	-0.829134	0.054588	-0.237177	-0.375244	-0.278320	0.543213	155.228791	-84.084539	-8.793227
07036		9.138515	0.499580	-0.293683	-0.888924	0.071009	-0.227471	-0.370117	-0.289063	0.536377	153.435314	-84.063809	-7.498030
07037		9.366066	0.217554	-0.715807	-0.860053	0.057135	-0.231943	-0.370361	-0.292725	0.537354	151.681551	-84.032677	-6.226153
07038		9.623460	0.222983	-0.820783	-0.782665	0.035683	-0.252038	-0.366943	-0.298096	0.533447	149.955158	-83.979254	-4.937031
07039		9.659903	0.272040	-0.757042	-0.709509	-0.010558	-0.276785	-0.376709	-0.299561	0.528564	148.310967	-83.893828	-3.688351
07040		9.582534	0.411127	-0.701604	-0.626554	-0.028696	-0.291718	-0.371094	-0.302490	0.531738	146.744741	-83.789439	-2.469968
07041		9.359416	0.543554	-0.770594	-0.541076	-0.003200	-0.270424	-0.374756	-0.312012	0.524414	145.285719	-83.702505	-1.310044
07042		9.006229	0.629834	-0.755224	-0.443176	0.047040	-0.219945	-0.377197	-0.309814	0.526123	143.981451	-83.650842	-0.249128
07043		8.718409	0.674550	-0.805636	-0.349116	0.071992	-0.154588	-0.367432	-0.313477	0.529297	142.935892	-83.632485	0.605666
07044		8.442304	0.780133	-0.860246	-0.250621	0.094004	-0.087177	-0.370850	-0.312500	0.522217	142.160814	-83.644225	1.245203
07045		8.310975	0.912608	-0.861313	-0.162264	0.150979	-0.030801	-0.374756	-0.314941	0.524414	141.473688	-83.702563	1.847026
07046		8.332011	1.139401	-0.615933	-0.102682	0.193494	0.007831	-0.375244	-0.328613	0.518311	140.830430	-83.791115	2.439090
07047		8.434779	1.281956	-0.336985	-0.081498	0.210813	0.022085	-0.373779	-0.316895	0.519531	140.175280	-83.893613	3.055100
07048		8.663153	1.413433	-0.146396	-0.098598	0.246868	0.024183	-0.382568	-0.323730	0.517822	139.375480	-84.009990	3.806707
07049		8.900499	1.431059	-0.042437	-0.160061	0.293287	0.021645	-0.375488	-0.319336	0.522949	138.320411	-84.145935	4.779257
07050		9.164115	1.437012	-0.033468	-0.239733	0.292471	0.024544	-0.378174	-0.330811	0.518066	137.194093	-84.278936	5.777422
07051		9.371902	1.362068	-0.048778	-0.311908	0.238304	0.038261	-0.378662	-0.319824	0.516602	136.244433	-84.394635	6.556171
07052		9.497807	1.336893	-0.024770	-0.393041	0.160636	0.060356	-0.385498	-0.334473	0.509766	135.637693	-84.484362	6.943654
07053		9.488906	1.322809	-0.153236	-0.471865	0.086920	0.095728	-0.385986	-0.318359	0.514160	135.423329	-84.559600	6.891421
07054		9.354658	1.297235	-0.212753	-0.519403	0.034001	0.119431	-0.375977	-0.333984	0.516602	135.517718	-84.621027	6.501817
07055		9.264690	1.192189	-0.292032	-0.550219	0.013439	0.143903	-0.385254	-0.336426	0.502441	135.786513	-84.685431	5.919241
07056		9.169070	1.134522	-0.502966	-0.572956	0.050988	0.162349	-0.385498	-0.331299	0.513428	135.983115	-84.770696	5.396264
07057		9.213662	1.005433	-0.610662	-0.589371	0.126149	0.169351	-0.387939	-0.342285	0.506836	135.872108	-84.891360	5.172690
07058		9.269449	0.856317	-0.762522	-0.553085	0.192198	0.168084	-0.388672	-0.341064	0.501709	135.486352	-85.036976	5.245950
07059		9.488490	0.821767	-0.872603	-0.469272	0.262499	0.151114	-0.387451	-0.339844	0.500000	134.704231	-85.205857	5.765099
07060		9.838802	0.804121	-0.796187	-0.364579	0.334788	0.130615	-0.386963	-0.342041	0.494629	133.476901	-85.392672	6.791106
07061		10.193499	0.770774	-0.477041	-0.233964	0.370082	0.125226	-0.393799	-0.344727	0.488037	131.997667	-85.590516	8.144498
07062		10.562936	0.696850	-0.147899	-0.112147	0.357797	0.123446	-0.400635	-0.342041	0.498779	130.535432	-85.778577	9.550577
07063		10.811338	0.640791	0.072267	-0.044789	0.324431	0.134340	-0.405029	-0.343750	0.486816	129.230658	-85.958104	10.837057
07064		10.789777	0.559352	0.138292	-0.005661	0.269078	0.155087	-0.404053	-0.341309	0.485840	128.322861	-86.123680	11.747898
07065		10.602157	0.522563	0.089510	0.048505	0.185466	0.179362	-0.405518	-0.340332	0.483887	128.062211	-86.271439	12.041014
07066		10.437465	0.549151	-0.003152	0.112942	0.096647	0.210668	-0.407715	-0.339844	0.486816	128.648379	-86.400210	11.522613
07067		10.171970	0.453094	-0.017606	0.129600	0.044316	0.232144	-0.412109	-0.342041	0.494141	129.776800	-86.520606	10.470477
07068		9.940778	0.332143	-0.077575	0.118854	0.029503	0.236121	-0.408203	-0.337646	0.482910	131.129125	-86.634220	9.188080
07069		9.684669	0.304366	-0.169895	0.062116	0.037386	0.232051	-0.405762	-0.335205	0.485352	132.436429	-86.748915	7.920781
07070		9.420586	0.332420	-0.285942	-0.025402	0.043923	0.222781	-0.416504	-0.339844	0.493896	133.686657	-86.858984	6.658152
07071		9.151620	0.537828	-0.524185	-0.071358	0.055266	0.218492	-0.409912	-0.336426	0.486572	134.864303	-86.971970	5.444444
07072		8.953827	0.750241	-0.649657	-0.097626	0.073453	0.217052	-0.407227	-0.334961	0.487305	135.981735	-87.088793	4.273620
07073		8.867225	0.959194	-0.793032	-0.113653	0.107050	0.214142	-0.415039	-0.337158	0.482422	136.872377	-87.218979	3.320749
07074		8.783250	1.187844	-0.843334	-0.114971	0.145894	0.203152	-0.423096	-0.336670	0.489258	137.446397	-87.358925	2.684260
07075		8.727530	1.395418	-0.825961	-0.123242	0.177391	0.190317	-0.413574	-0.332764	0.488770	137.662212	-87.508616	2.403929
07076		8.774622	1.547148	-0.914696	-0.129685	0.208606	0.174192	-0.426758	-0.342773	0.480957	137.463902	-87.663666	2.532165
07077		8.809294	1.685354	-1.130276	-0.170914	0.223797	0.152045	-0.414551	-0.336426	0.474854	136.796238	-87.817931	3.108709
07078		8.921895	1.739528	-1.313464	-0.227617	0.228610	0.140399	-0.422363	-0.338135	0.484619	135.835753	-87.967746	3.943458
07079		8.897377	1.789928	-1.322850	-0.229073	0.176534	0.124325	-0.428467	-0.338623	0.482178	135.142910	-88.090735	4.509485
07080		8.918824	1.813927	-1.340259	-0.235016	0.075507	0.115086	-0.421387	-0.342041	0.472900	135.567196	-88.167408	3.954365
07081		8.988010	1.598684	-1.350629	-0.330368	0.031053	0.120851	-0.421875	-0.338135	0.473877	136.597665	-88.229051	2.740168
07082		9.047698	1.368069	-1.346159	-0.466329	0.033379	0.137008	-0.425049	-0.342041	0.472168	137.858686	-88.295907	1.215375
07083		9.033771	1.173186	-1.494578	-0.567203	0.024527	0.156949	-0.426025	-0.337158	0.474121	139.562228	-88.366472	-0.809884
07084		8.869923	1.047033	-1.623693	-0.615257	0.007464	0.181883	-0.427979	-0.343750	0.471680	142.066388	-88.435056	-3.663555
07085		8.734531	0.982784	-1.640792	-0.587849	-0.018141	0.194898	-0.419678	-0.349609	0.476563	145.351901	-88.493288	-7.280382
07086		8.720936	1.012964	-1.644438	-0.540189	-0.047597	0.218711	-0.431152	-0.349609	0.471436	149.748546	-88.536774	-11.983994
07087		8.637788	0.968862	-1.650620	-0.504855	-0.043662	0.218103	-0.435303	-0.349854	0.459717	154.341944	-88.573544	-16.861498
07088		8.589573	0.915444	-1.608261	-0.462517	-0.007956	0.197635	-0.434570	-0.350342	0.467285	158.437507	-88.613756	-21.219259
07089		8.608404	0.876903	-1.435661	-0.396560	-0.003961	0.171140	-0.434814	-0.356689	0.466309	162.143204	-88.644727	-25.146920
07090		8.730164	0.780424	-1.303433	-0.349189	-0.033842	0.151599	-0.438232	-0.359375	0.467041	165.759573	-88.648947	-28.960306
07091		8.865846	0.725389	-1.350931	-0.375421	-0.040610	0.142202	-0.440674	-0.349365	0.464355	169.166264	-88.643737	-32.576768
07092		8.890478	0.747338	-1.652212	-0.423583	-0.040418	0.147981	-0.433105	-0.353516	0.459473	172.648717	-88.632965	-36.298851
07093		8.803632	0.795383	-1.917337	-0.426435	-0.073433	0.162036	-0.437256	-0.360107	0.456299	176.435986	-88.599504	-40.324720
07094		8.716241	0.883679	-1.988300	-0.362887	-0.152833	0.188891	-0.432861	-0.360107	0.459961	-179.350778	-88.513229	-44.743158
07095		8.712926	1.057577	-1.840668	-0.330001	-0.224556	0.227007	-0.439697	-0.364258	0.460205	-174.956881	-88.377558	-49.321553
07096		8.773005	1.126030	-1.730461	-0.387140	-0.250323	0.249766	-0.445068	-0.361572	0.461670	-170.966425	-88.216032	-53.531562
07097		8.858670	1.221006	-1.846756	-0.429346	-0.227935	0.272590	-0.442627	-0.367188	0.463623	-167.235313	-88.057380	-57.504365
07098		9.011529	1.338854	-2.247270	-0.405848	-0.213865	0.282425	-0.444580	-0.364502	0.459961	-163.879342	-87.896669	-61.090984
07099		9.147684	1.530110	-2.617113	-0.310352	-0.241775	0.278817	-0.439697	-0.365967	0.456787	-161.152542	-87.715564	-63.991291
07100		9.270553	1.771065	-2.903320	-0.241024	-0.271868	0.261626	-0.433350	-0.365723	0.465088	-159.162558	-87.516483	-66.117091
07101		9.501415	1.961506	-2.079583	-0.241837	-0.274373	0.232777	-0.440674	-0.357178	0.462891	-157.820244	-87.320263	-67.592994
07102		10.035769	1.561542	0.046686	-0.286498	-0.289068	0.219790	-0.436768	-0.353760	0.459717	-156.895938	-87.117259	-68.678612
07103		11.673641	0.078038	1.494896	-0.027362	-0.038615	0.211998	-0.442871	-0.360596	0.464600	-154.909817	-87.046392	-70.675635
07104		14.325087	-2.439008	1.674153	0.498460	0.413345	0.142580	-0.441406	-0.361572	0.461182	-151.015849	-87.218622	-74.284401
07105		15.922292	-4.404571	0.175763	0.314853	0.431868	-0.040179	-0.442139	-0.363770	0.459961	-148.588857	-87.443151	-76.526771
07106		15.156305	-3.382214	-3.471766	-0.373539	0.295800	-0.161397	-0.451660	-0.357666	0.461182	-148.580573	-87.634319	-76.745161
07107		13.017083	-1.816742	-4.848573	0.356165	-0.046090	-0.040967	-0.441162	-0.359863	0.458496	-149.184656	-87.622726	-75.930041
07108		12.244546	-2.424930	0.668408	1.807113	-0.355122	0.126385	-0.451660	-0.352539	0.464844	-149.117733	-87.409236	-74.956533
07109		12.212134	-2.337061	4.963107	1.309573	0.291762	0.187598	-0.444092	-0.341797	0.472168	-144.284154	-87.488743	-79.037884
07110		11.370765	-1.642451	1.383818	0.205736	0.456962	0.178876	-0.459717	-0.347412	0.468262	-138.454999	-87.627812	-84.750217
07111		10.758357	-0.507772	-1.421942	0.261045	0.101954	0.141478	-0.456299	-0.341797	0.468262	-135.911931	-87.614404	-87.139817
07112		10.715471	0.411915	-0.948777	0.799249	-0.202995	0.071449	-0.448975	-0.343262	0.472900	-136.650023	-87.500424	-85.938580
07113		10.670228	0.992496	1.200690	0.907630	-0.308283	0.049508	-0.451172	-0.332275	0.477539	-138.314611	-87.349860	-83.746083
07114		10.655857	1.567813	3.166453	0.393045	-0.274210	0.065551	-0.455566	-0.333984	0.480469	-139.664114	-87.205008	-82.165482
07115		10.600254	2.140067	2.935627	-0.221984	-0.053543	0.089523	-0.449463	-0.343262	0.472656	-139.397620	-87.147377	-82.553787
07116		10.287246	2.136238	1.159803	-0.379325	-0.139610	0.111377	-0.454834	-0.338623	0.481934	-139.682937	-87.043464	-82.481597
07117		9.593210	2.013771	0.479187	-0.317423	-0.227138	0.100195	-0.459717	-0.337891	0.472656	-140.603151	-86.905990	-81.737022
07118		8.723011	1.547536	0.463704	-0.319442	-0.219048	0.053191	-0.452881	-0.337402	0.488281	-141.783368	-86.787434	-80.734197
07119		8.034708	1.015989	0.037423	-0.352058	-0.234604	-0.005009	-0.454346	-0.334473	0.479492	-143.450182	-86.681676	-79.260854
07120		7.717409	0.415726	-0.208104	-0.306079	-0.241124	-0.036491	-0.454834	-0.339600	0.480713	-145.280173	-86.579901	-77.599244
07121		7.650782	-0.311557	0.090137	-0.206224	-0.157850	-0.027096	-0.450195	-0.344238	0.481934	-146.446932	-86.513103	-76.542578
07122		8.026187	-1.051210	0.682622	-0.082989	0.003813	0.011268	-0.449219	-0.346924	0.482178	-146.384059	-86.509686	-76.649080
07123		8.645854	-1.786385	1.179004	-0.055168	0.197682	0.051275	-0.453857	-0.343750	0.482422	-144.948436	-86.586030	-78.113146
07124		9.395831	-2.378949	1.200559	-0.137220	0.281381	0.071024	-0.457520	-0.353516	0.474854	-142.848910	-86.690673	-80.290921
07125		10.330116	-2.708122	1.308824	-0.278445	0.310025	0.077201	-0.460693	-0.340088	0.479004	-140.451404	-86.801944	-82.846591
07126		10.376980	-2.749543	0.953907	-0.354642	0.334570	0.060132	-0.462158	-0.353271	0.473877	-137.894085	-86.922866	-85.607122
07127		10.625897	-2.596165	0.654707	-0.279356	0.328078	0.072967	-0.469971	-0.349121	0.477295	-135.018224	-87.029668	-88.641354
07128		10.436197	-2.359870	0.395256	-0.061695	0.104009	0.135501	-0.470947	-0.350342	0.466797	-133.197156	-87.013793	-90.496159
07129		10.018943	-2.292225	0.615916	0.144965	-0.040151	0.213079	-0.462158	-0.349365	0.468506	-131.867326	-86.907505	-91.738962
07130		9.597877	-2.171988	0.809698	0.242756	-0.091286	0.268098	-0.464600	-0.350586	0.483643	-130.614938	-86.755934	-92.849840
07131		9.426510	-1.964672	1.057829	0.296400	-0.064014	0.289694	-0.464111	-0.334473	0.480225	-129.084733	-86.604166	-94.206790
07132		9.401607	-1.664727	1.186381	0.345247	-0.037605	0.276425	-0.463623	-0.337402	0.486328	-127.550546	-86.464985	-95.541487
07133		9.437968	-1.404177	1.080480	0.366488	-0.061272	0.260316	-0.468750	-0.333984	0.470459	-126.350307	-86.323796	-96.527000
07134		9.463578	-1.189309	0.878369	0.366565	-0.091313	0.245547	-0.468018	-0.338867	0.478271	-125.532807	-86.177658	-97.131650
07135		9.457855	-1.070584	0.594140	0.335358	-0.127909	0.240661	-0.474854	-0.321533	0.480469	-125.036995	-86.021914	-97.430621
07136		9.383387	-1.045795	0.435512	0.317129	-0.132509	0.238603	-0.464600	-0.328369	0.480957	-124.638684	-85.864825	-97.643646
07137		9.290066	-0.948398	0.411239	0.275209	-0.125441	0.241119	-0.471191	-0.327637	0.486328	-124.212893	-85.709364	-97.906405
07138		9.315619	-0.867541	0.332462	0.227513	-0.114023	0.239407	-0.471924	-0.330078	0.487793	-123.792694	-85.557613	-98.192962
07139		9.344228	-0.807733	0.309687	0.210855	-0.110935	0.239605	-0.470947	-0.324463	0.484863	-123.368632	-85.407227	-98.491556
07140		9.388313	-0.784492	0.113105	0.217893	-0.116157	0.236645	-0.467529	-0.323730	0.494629	-123.021861	-85.255839	-98.710090
07141		9.402736	-0.790598	-0.019474	0.242900	-0.139483	0.236123	-0.473633	-0.317871	0.489990	-122.794707	-85.097987	-98.792705
07142		9.236228	-0.850564	-0.056655	0.262322	-0.134604	0.235072	-0.479004	-0.319092	0.499512	-122.559568	-84.941497	-98.873731
07143		8.982103	-0.974855	0.119968	0.263242	-0.160301	0.206087	-0.474609	-0.312744	0.490479	-122.551537	-84.791695	-98.724504
07144		8.780999	-1.147199	0.243824	0.261394	-0.158527	0.180356	-0.474121	-0.315186	0.497314	-122.631881	-84.654224	-98.489278
07145		8.629804	-1.240439	0.288568	0.248297	-0.126178	0.154873	-0.477783	-0.311768	0.497559	-122.615984	-84.539671	-98.356735
07146		8.666907	-1.318336	0.173646	0.247572	-0.068837	0.133445	-0.481934	-0.309326	0.505615	-122.396805	-84.452516	-98.430287
07147		8.907337	-1.425190	-0.021334	0.242436	-0.027626	0.120114	-0.474609	-0.303223	0.493652	-122.007966	-84.384989	-98.675551
07148		9.144418	-1.477784	-0.056759	0.232945	0.002543	0.116916	-0.476318	-0.312500	0.501709	-121.509065	-84.327328	-99.038627
07149		9.441369	-1.495948	0.014001	0.232056	0.028346	0.110215	-0.480713	-0.307861	0.502930	-120.897112	-84.280851	-99.514552
07150		9.687542	-1.515437	0.162761	0.212302	0.045002	0.110212	-0.477051	-0.300537	0.504883	-120.239224	-84.238139	-100.049364
07151		9.837257	-1.503003	0.138483	0.188266	0.048411	0.101801	-0.474854	-0.301514	0.513916	-119.594770	-84.200499	-100.582901
07152		9.830778	-1.456887	0.048600	0.189720	0.035773	0.099632	-0.484863	-0.307617	0.505371	-119.040764	-84.159327	-101.026373
07153		9.689080	-1.493263	-0.127688	0.185180	-0.003003	0.090921	-0.484863	-0.296875	0.508789	-118.692660	-84.111930	-101.263812
