// General information: 
//  MT Manager version: 2022.2.0 
//  XDA version: 2022.2.0 build 7381 rev 124627 built on 2023-07-19
// Device information: 
//  DeviceId: 00B4BCF6
//  ProductCode: MTW2-3A7G6
//  Firmware Version: 4.6.0
//  Hardware Version: 2.0.0
// Device settings: 
//  Filter Profile: human(46.1)
//  Option Flags: Orientation Smoother Disabled, Position/Velocity Smoother Disabled, Continuous Zero Rotation Update Disabled, AHS Disabled, ICC Disabled
// Coordinate system: ENU
PacketCounter	SampleTimeFine	Acc_X	Acc_Y	Acc_Z	Gyr_X	Gyr_Y	Gyr_Z	Mag_X	Mag_Y	Mag_Z	Roll	Pitch	Yaw
09397		-6.252794	-1.809377	7.378978	-0.003941	-0.002794	-0.011347	-0.371094	-0.147217	-0.559326	-13.584773	39.547638	9.744430
09398		-6.263923	-1.804997	7.437425	-0.006850	-0.000524	-0.010607	-0.366943	-0.149658	-0.560791	-13.589856	39.543598	9.740917
09399		-6.251159	-1.832834	7.391244	-0.007468	-0.000143	-0.015675	-0.368408	-0.150879	-0.554443	-13.598125	39.539080	9.733382
09400		-6.284298	-1.854788	7.406882	-0.005543	0.001724	-0.008361	-0.368408	-0.156006	-0.555176	-13.601675	39.536595	9.731099
09401		-6.213555	-1.817865	7.416927	-0.007689	0.003364	-0.009557	-0.374756	-0.146729	-0.563965	-13.607638	39.534836	9.726887
09402		-6.250997	-1.836298	7.390521	-0.006887	0.001104	-0.011050	-0.365723	-0.148682	-0.567139	-13.613125	39.531643	9.722773
09403		-6.232402	-1.828750	7.403207	-0.006421	0.007242	-0.007755	-0.360596	-0.153809	-0.560791	-13.617983	39.532313	9.719817
09404		-6.228684	-1.833309	7.444504	-0.008566	0.008881	-0.008951	-0.370605	-0.154785	-0.558105	-13.624332	39.533732	9.715858
09405		-6.249031	-1.822018	7.418329	-0.006496	0.010500	-0.008642	-0.361816	-0.149414	-0.564697	-13.629993	39.536085	9.711060
09406		-6.284064	-1.822774	7.420929	-0.006534	0.012129	-0.009085	-0.364014	-0.155762	-0.562744	-13.635603	39.539294	9.706435
09407		-6.253565	-1.841715	7.387000	-0.009406	0.012768	-0.007901	-0.364502	-0.145752	-0.560059	-13.642853	39.543030	9.702008
09408		-6.266849	-1.816311	7.432204	-0.005824	0.010808	-0.007297	-0.367676	-0.145996	-0.563232	-13.647087	39.545745	9.698904
09409		-6.253015	-1.805124	7.402493	-0.007298	0.012756	-0.007148	-0.367676	-0.143555	-0.560547	-13.652786	39.549558	9.695586
09410		-6.254742	-1.865739	7.396712	-0.006532	0.012127	-0.009084	-0.364014	-0.147705	-0.563477	-13.658396	39.552765	9.690959
09411		-6.254563	-1.807163	7.400687	-0.007297	0.012755	-0.007148	-0.369873	-0.148682	-0.562012	-13.664097	39.556576	9.687636
09412		-6.241765	-1.855440	7.366042	-0.004519	0.013055	-0.005049	-0.357422	-0.145996	-0.559082	-13.666803	39.560845	9.685759
09413		-6.222992	-1.868304	7.390528	-0.002544	0.015612	-0.001458	-0.368408	-0.149170	-0.566162	-13.667481	39.567015	9.685830
09414		-6.255464	-1.850761	7.422463	-0.003309	0.016240	0.000479	-0.362061	-0.150635	-0.556641	-13.667308	39.573806	9.687386
09415		-6.221430	-1.791762	7.422823	-0.005454	0.017878	-0.000718	-0.365967	-0.160645	-0.562500	-13.669564	39.581326	9.687369
09416		-6.242513	-1.860502	7.403483	-0.006965	0.021454	-0.001012	-0.366699	-0.154785	-0.557129	-13.672755	39.590817	9.686931
09417		-6.298192	-1.848413	7.379926	-0.006964	0.021453	-0.001012	-0.369873	-0.146484	-0.560547	-13.676396	39.600263	9.685319
09418		-6.260406	-1.793121	7.421925	-0.004128	0.022443	-0.002635	-0.355957	-0.148926	-0.564697	-13.678822	39.610086	9.683533
09419		-6.282678	-1.840994	7.390031	-0.006175	0.023143	-0.007113	-0.364990	-0.152832	-0.567383	-13.685035	39.619678	9.678245
09420		-6.299820	-1.832967	7.405042	-0.008265	0.019201	-0.003259	-0.368408	-0.147705	-0.561279	-13.689757	39.627610	9.676575
09421		-6.287734	-1.800454	7.362437	-0.005563	0.022758	-0.002043	-0.366943	-0.146973	-0.563721	-13.693235	39.637658	9.674780
09422		-6.285984	-1.864081	7.398164	-0.004646	0.015614	-0.002210	-0.365234	-0.155273	-0.563965	-13.694998	39.643736	9.674500
09423		-6.289290	-1.822515	7.372311	-0.004720	0.018871	-0.003094	-0.360107	-0.143799	-0.563965	-13.698040	39.651476	9.672527
09424		-6.253892	-1.865179	7.392695	-0.000991	0.010399	-0.000717	-0.362305	-0.142822	-0.558350	-13.696434	39.654854	9.674244
09425		-6.306890	-1.814098	7.387027	-0.003232	0.012973	0.001366	-0.361572	-0.144775	-0.563232	-13.695920	39.659934	9.677277
09426		-6.254780	-1.805772	7.396050	0.001079	0.012018	-0.000403	-0.367188	-0.147217	-0.568359	-13.693164	39.664256	9.678937
09427		-6.272229	-1.856447	7.406879	-0.000321	0.010708	0.000629	-0.365234	-0.144043	-0.561523	-13.691061	39.667970	9.681634
09428		-6.309456	-1.813947	7.384873	0.001054	0.009697	0.003762	-0.364258	-0.149902	-0.568359	-13.686134	39.671564	9.686715
09429		-6.292495	-1.784082	7.385150	-0.000247	0.007450	0.001513	-0.365723	-0.146973	-0.568604	-13.683209	39.673576	9.690495
09430		-6.278203	-1.852396	7.363393	0.002664	0.005185	0.000776	-0.367188	-0.143799	-0.562012	-13.678231	39.674253	9.694212
09431		-6.311200	-1.813260	7.383551	0.000323	0.008696	0.006140	-0.357910	-0.135986	-0.560059	-13.672981	39.677579	9.701316
09432		-6.292928	-1.804374	7.396429	0.002837	0.000992	-0.001621	-0.368896	-0.141846	-0.557373	-13.668539	39.675596	9.704037
09433		-6.280264	-1.830698	7.350335	0.001400	0.001310	-0.001032	-0.368896	-0.147461	-0.568115	-13.665158	39.673836	9.707662
09434		-6.273427	-1.816689	7.421783	0.001363	0.002938	-0.001474	-0.369629	-0.155029	-0.562500	-13.661711	39.672957	9.710147
09435		-6.275616	-1.774586	7.396989	0.001400	0.001310	-0.001032	-0.365479	-0.152588	-0.568848	-13.658306	39.671175	9.712788
09436		-6.278537	-1.872909	7.374707	-0.000643	0.002011	-0.005511	-0.361816	-0.150635	-0.563232	-13.657770	39.669233	9.712515
09437		-6.275835	-1.775025	7.396697	-0.001511	0.003575	-0.000295	-0.364502	-0.142334	-0.561035	-13.655956	39.668842	9.715147
09438		-6.293870	-1.804801	7.395523	0.001253	0.007823	-0.002800	-0.362549	-0.152832	-0.566650	-13.653734	39.670503	9.715814
09439		-6.260846	-1.864721	7.386922	-0.002279	0.004202	0.001640	-0.364502	-0.149414	-0.564209	-13.651537	39.670718	9.720108
09440		-6.275913	-1.796424	7.408017	-0.000011	0.003948	-0.004608	-0.357422	-0.144531	-0.559570	-13.650439	39.669977	9.720149
09441		-6.301726	-1.819196	7.323094	0.003532	0.003621	-0.004440	-0.355225	-0.145020	-0.560791	-13.647657	39.669050	9.720081
09442		-6.278258	-1.835068	7.390382	0.002032	0.003247	-0.000128	-0.368408	-0.150391	-0.567383	-13.643241	39.668525	9.723485
09443		-6.276499	-1.796471	7.407509	0.002132	0.002311	-0.003409	-0.364502	-0.148682	-0.560059	-13.640640	39.667011	9.724420
09444		-6.280469	-1.873636	7.372878	0.002132	0.002311	-0.003409	-0.355469	-0.145508	-0.566162	-13.637577	39.665521	9.725615
09445		-6.245138	-1.814303	7.374558	0.002243	-0.002574	-0.002082	-0.366943	-0.148438	-0.567139	-13.633758	39.661471	9.728362
09446		-6.278306	-1.835072	7.390339	0.002206	-0.000946	-0.002524	-0.364014	-0.146484	-0.560547	-13.629880	39.658287	9.730768
09447		-6.280202	-1.793127	7.365756	0.000869	-0.001564	-0.005216	-0.365479	-0.146484	-0.559814	-13.628398	39.654344	9.731177
09448		-6.277117	-1.775820	7.395419	0.001500	0.000373	-0.004312	-0.363037	-0.156982	-0.552734	-13.625898	39.651652	9.732057
09449		-6.243407	-1.835986	7.387336	-0.000431	-0.003812	-0.007466	-0.363281	-0.146729	-0.557617	-13.625920	39.646120	9.730325
09450		-6.296051	-1.844966	7.377649	-0.001137	-0.002493	-0.009254	-0.367188	-0.150391	-0.559814	-13.626890	39.641165	9.728134
09451		-6.278040	-1.815872	7.378645	-0.000431	-0.003812	-0.007466	-0.361816	-0.148682	-0.566650	-13.626926	39.635643	9.726991
09452		-6.296179	-1.824883	7.365842	0.001749	-0.007077	-0.005824	-0.363281	-0.149414	-0.558838	-13.624148	39.628599	9.728084
09453		-6.258492	-1.807862	7.392398	0.000832	0.000063	-0.005658	-0.356445	-0.145020	-0.564697	-13.623072	39.625516	9.727634
09454		-6.275797	-1.837673	7.391825	0.003087	-0.006458	-0.003133	-0.364990	-0.145508	-0.566650	-13.618358	39.619179	9.730563
09455		-6.276516	-1.816870	7.379695	-0.001274	0.000071	-0.006415	-0.366455	-0.147949	-0.558350	-13.618858	39.616029	9.730186
09456		-6.290944	-1.829362	7.408609	0.002344	-0.003511	-0.005363	-0.364746	-0.147217	-0.565186	-13.615927	39.611033	9.730986
09457		-6.272994	-1.799774	7.409675	0.003012	-0.003202	-0.004017	-0.366211	-0.146973	-0.560791	-13.612475	39.606327	9.732500
09458		-6.240201	-1.838653	7.389381	0.002344	-0.003511	-0.005363	-0.367432	-0.146973	-0.561523	-13.609545	39.601330	9.733299
09459		-6.292816	-1.847227	7.379843	0.002381	-0.005140	-0.004921	-0.360107	-0.152588	-0.557617	-13.606653	39.595411	9.734589
09460		-6.272982	-1.779113	7.398136	0.001538	-0.001256	-0.003870	-0.363281	-0.152100	-0.567627	-13.603749	39.591872	9.736072
09461		-6.270688	-1.821480	7.422923	-0.001237	-0.001558	-0.005972	-0.364502	-0.139404	-0.559326	-13.603814	39.587841	9.735163
09462		-6.254923	-1.830613	7.406457	0.002131	0.002311	-0.003409	-0.366699	-0.151855	-0.558594	-13.600756	39.586349	9.736355
09463		-6.257093	-1.788983	7.381598	-0.002687	0.002706	-0.009991	-0.361084	-0.146240	-0.554199	-13.603978	39.584114	9.732726
09464		-6.289242	-1.831599	7.409501	-0.001174	-0.000868	-0.009696	-0.367188	-0.147217	-0.560547	-13.605353	39.580005	9.729932
09465		-6.268451	-1.785078	7.439940	-0.001174	-0.000868	-0.009695	-0.368408	-0.148438	-0.558838	-13.607169	39.575819	9.726866
09466		-6.254408	-1.833233	7.406244	-0.002611	-0.000551	-0.009106	-0.366943	-0.146484	-0.569092	-13.609130	39.571966	9.724443
09467		-6.255358	-1.812944	7.393806	-0.003418	0.001705	-0.007613	-0.362305	-0.142334	-0.562256	-13.611563	39.569499	9.722713
09468		-6.271065	-1.804709	7.410108	-0.001312	0.001698	-0.006857	-0.358398	-0.148438	-0.561523	-13.611995	39.567201	9.721522
09469		-6.257998	-1.912134	7.371429	0.000832	0.000062	-0.005658	-0.366699	-0.146729	-0.563965	-13.610927	39.564128	9.721548
09470		-6.269341	-1.686442	7.419794	-0.003418	0.001704	-0.007613	-0.362061	-0.146729	-0.561035	-13.612914	39.561733	9.719810
09471		-6.239263	-1.904708	7.384330	-0.003418	0.001704	-0.007613	-0.368408	-0.145752	-0.552246	-13.615347	39.559280	9.718050
09472		-6.267799	-1.789455	7.439437	-0.000428	-0.003815	-0.007465	-0.371338	-0.142822	-0.564941	-13.614938	39.553830	9.717385
09473		-6.269356	-1.828645	7.422287	-0.002610	-0.000552	-0.009106	-0.366943	-0.143311	-0.572021	-13.617328	39.549857	9.715262
09474		-6.238732	-1.826064	7.377076	-0.002571	-0.002180	-0.008664	-0.364258	-0.145996	-0.567139	-13.618880	39.545156	9.713445
09475		-6.235445	-1.809192	7.406818	-0.001865	-0.003498	-0.006876	-0.366455	-0.146973	-0.565430	-13.619529	39.539938	9.713924
09476		-6.252646	-1.839615	7.406149	-0.003239	-0.002491	-0.010009	-0.370850	-0.150635	-0.560303	-13.622047	39.534883	9.711190
09477		-6.253476	-1.819360	7.393822	-0.003379	0.000075	-0.007171	-0.367432	-0.143799	-0.557617	-13.624056	39.531540	9.709861
09478		-6.271961	-1.828763	7.380630	-0.002610	-0.000553	-0.009106	-0.364258	-0.148193	-0.567139	-13.626013	39.527685	9.707441
09479		-6.233359	-1.833419	7.419224	-0.006821	-0.000541	-0.010618	-0.364014	-0.139160	-0.563477	-13.631525	39.523560	9.704033
09480		-6.267408	-1.834234	7.422552	-0.001801	-0.002809	-0.010599	-0.363525	-0.149414	-0.558838	-13.633452	39.518248	9.700931
09481		-6.234656	-1.873681	7.401989	-0.001980	0.001385	-0.008202	-0.371582	-0.148193	-0.562988	-13.635302	39.515532	9.699023
09482		-6.232741	-1.835600	7.419203	0.000832	0.000062	-0.005658	-0.357178	-0.144531	-0.558594	-13.633771	39.512485	9.698986
09483		-6.269999	-1.853165	7.392877	0.002899	0.001685	-0.005344	-0.363770	-0.145020	-0.570313	-13.631540	39.510307	9.698730
09484		-6.249545	-1.806036	7.423248	0.000731	0.001001	-0.002377	-0.364502	-0.144775	-0.564209	-13.628665	39.508226	9.700896
09485		-6.252580	-1.823597	7.393536	0.001360	0.002940	-0.001473	-0.365967	-0.144531	-0.563965	-13.625703	39.507314	9.703975
09486		-6.247564	-1.848263	7.447724	0.000063	0.000690	-0.003723	-0.367432	-0.146240	-0.562500	-13.623795	39.504878	9.705223
09487		-6.234230	-1.815313	7.406343	-0.000093	0.007202	-0.005491	-0.365479	-0.146729	-0.561035	-13.623962	39.505744	9.704374
09488		-6.232393	-1.857640	7.430671	0.000653	0.004257	-0.003261	-0.367920	-0.143311	-0.564697	-13.621901	39.505357	9.705332
09489		-6.234855	-1.815654	7.405733	0.001321	0.004568	-0.001915	-0.366699	-0.151855	-0.566406	-13.619325	39.505234	9.707554
09490		-6.252807	-1.845380	7.404579	0.000511	0.006823	-0.000422	-0.371582	-0.145996	-0.562012	-13.616327	39.506658	9.710112
09491		-6.220040	-1.824529	7.388504	0.001243	0.007823	-0.002799	-0.362793	-0.147461	-0.561035	-13.614546	39.508205	9.710739
09492		-6.250939	-1.827966	7.433281	-0.000926	0.007139	0.000167	-0.370117	-0.144531	-0.558838	-13.612136	39.509885	9.713667
09493		-6.220132	-1.845612	7.399841	-0.001068	0.009705	0.003006	-0.368896	-0.149414	-0.556396	-13.609227	39.513261	9.718068
09494		-6.286747	-1.827579	7.435412	0.001038	0.009700	0.003762	-0.367188	-0.146973	-0.561768	-13.604324	39.516851	9.723145
09495		-6.219849	-1.806714	7.415903	0.000434	0.010078	-0.001306	-0.366943	-0.143311	-0.565918	-13.602560	39.519825	9.723987
09496		-6.239289	-1.815384	7.402064	-0.001106	0.011333	0.002564	-0.366211	-0.145020	-0.561768	-13.599617	39.524163	9.727915
09497		-6.274585	-1.815134	7.404580	0.000293	0.012643	0.001533	-0.364990	-0.154053	-0.559326	-13.596948	39.529001	9.731470
09498		-6.244111	-1.832657	7.370888	-0.000477	0.013271	0.003468	-0.366699	-0.146729	-0.558594	-13.593443	39.534539	9.735713
09499		-6.274855	-1.776327	7.420146	-0.001183	0.014587	0.001680	-0.369629	-0.151123	-0.564453	-13.591729	39.540435	9.737316
09500		-6.259772	-1.865747	7.410291	-0.001106	0.011331	0.002564	-0.371338	-0.145752	-0.561768	-13.588782	39.544771	9.741246
09501		-6.266845	-1.819935	7.342887	0.003799	0.013947	0.001261	-0.375732	-0.152100	-0.563965	-13.584339	39.550241	9.743748
09502		-6.256007	-1.830135	7.467975	0.000229	0.011952	0.005256	-0.364014	-0.155762	-0.563965	-13.579457	39.555285	9.749515
09503		-6.264272	-1.763238	7.388121	0.000885	0.016207	0.001996	-0.365234	-0.149170	-0.568848	-13.576577	39.562108	9.751139
09504		-6.264993	-1.843598	7.394715	0.002438	0.011008	0.002733	-0.374268	-0.138916	-0.560791	-13.571483	39.566286	9.755251
09505		-6.264095	-1.804907	7.411249	-0.001810	0.012646	0.000775	-0.366211	-0.136719	-0.551514	-13.570354	39.570993	9.758591
09506		-6.249320	-1.813677	7.394016	0.003134	0.013634	-0.000084	-0.366943	-0.148438	-0.565186	-13.566449	39.576254	9.760210
09507		-6.263982	-1.846706	7.434308	-0.000476	0.013267	0.003468	-0.361816	-0.145508	-0.562012	-13.563377	39.581653	9.764818
09508		-6.268142	-1.783512	7.396465	-0.000370	0.012328	0.000187	-0.359375	-0.146973	-0.564209	-13.561209	39.586223	9.766862
09509		-6.268054	-1.804329	7.408042	0.003067	0.012944	0.003639	-0.359619	-0.143066	-0.567627	-13.556013	39.591552	9.770985
09510		-6.269752	-1.863657	7.402375	-0.001104	0.011328	0.002563	-0.361084	-0.145264	-0.565674	-13.553059	39.595884	9.774922
09511		-6.268258	-1.765322	7.423728	0.000154	0.015203	0.004373	-0.361328	-0.151611	-0.566162	-13.549466	39.602600	9.779970
09512		-6.270050	-1.824734	7.417963	-0.001103	0.011327	0.002563	-0.364990	-0.145020	-0.568848	-13.546510	39.606932	9.783908
09513		-6.254615	-1.773884	7.405593	-0.000550	0.016518	0.002584	-0.364258	-0.148438	-0.562744	-13.544259	39.614101	9.786877
09514		-6.302801	-1.827879	7.461262	0.000261	0.014264	0.001092	-0.362305	-0.153076	-0.562500	-13.541525	39.619871	9.789241
09515		-6.240146	-1.803806	7.399542	-0.004023	0.017529	-0.001311	-0.363770	-0.143555	-0.558105	-13.543138	39.627029	9.788159
09516		-6.275755	-1.803800	7.401648	0.000224	0.015889	0.000651	-0.371338	-0.149902	-0.562012	-13.540808	39.633645	9.789921
09517		-6.262902	-1.851263	7.366993	-0.003282	0.014584	0.000920	-0.368164	-0.152100	-0.559570	-13.540630	39.639401	9.791833
09518		-6.260453	-1.774281	7.400563	-0.000441	0.015578	-0.000695	-0.369873	-0.144287	-0.564941	-13.539267	39.645663	9.792677
09519		-6.280871	-1.842713	7.381455	-0.002508	0.013956	-0.001014	-0.367188	-0.146973	-0.562012	-13.539463	39.650806	9.793315
09520		-6.266412	-1.771105	7.356726	-0.001842	0.014266	0.000333	-0.362549	-0.149414	-0.562744	-13.538282	39.656475	9.795131
09521		-6.267177	-1.851852	7.363209	-0.001842	0.014266	0.000334	-0.360596	-0.148926	-0.562012	-13.537524	39.662017	9.796415
09522		-6.264578	-1.774839	7.396938	0.000407	0.011696	-0.001745	-0.361572	-0.142090	-0.565430	-13.535728	39.665976	9.797176
09523		-6.269062	-1.852046	7.361555	-0.001842	0.014265	0.000334	-0.368652	-0.147461	-0.563721	-13.535002	39.671576	9.798942
09524		-6.282347	-1.766141	7.411614	0.001036	0.013632	-0.000839	-0.364502	-0.145020	-0.573486	-13.532641	39.676734	9.800022
09525		-6.289356	-1.860734	7.346857	0.000555	0.005189	0.000022	-0.359131	-0.142578	-0.564453	-13.529668	39.677210	9.803852
09526		-6.300461	-1.736097	7.414594	0.001775	0.010689	0.001392	-0.363525	-0.148926	-0.566650	-13.525526	39.681028	9.807059
09527		-6.288907	-1.822098	7.363033	-0.000885	0.009447	-0.003997	-0.362549	-0.145264	-0.562744	-13.525718	39.683373	9.806649
09528		-6.284992	-1.766330	7.409326	-0.003061	0.008764	-0.001036	-0.365723	-0.147217	-0.566406	-13.525254	39.685793	9.808434
09529		-6.268741	-1.796485	7.404740	-0.003024	0.007137	-0.000595	-0.360840	-0.146973	-0.559570	-13.524822	39.687262	9.810867
09530		-6.271036	-1.835246	7.386951	-0.000183	0.008131	-0.002208	-0.364258	-0.137451	-0.567139	-13.523181	39.689173	9.811915
09531		-6.288447	-1.805453	7.390465	0.000482	0.008441	-0.000861	-0.360840	-0.146729	-0.562256	-13.521029	39.691350	9.814549
09532		-6.270509	-1.796877	7.403148	-0.000219	0.009757	-0.002650	-0.367920	-0.150635	-0.553467	-13.519793	39.694107	9.814995
09533		-6.291379	-1.844226	7.372122	0.001293	0.006188	-0.002352	-0.364014	-0.145020	-0.566895	-13.517551	39.694737	9.814922
09534		-6.271464	-1.797148	7.402273	-0.000810	0.006194	-0.003114	-0.361328	-0.147217	-0.563232	-13.516472	39.695447	9.815651
09535		-6.275553	-1.793897	7.359979	0.000001	0.003941	-0.004606	-0.360840	-0.148193	-0.559082	-13.515814	39.694616	9.815712
09536		-6.256329	-1.806680	7.385161	-0.004389	0.008141	-0.003732	-0.360596	-0.149658	-0.560059	-13.517288	39.696328	9.815654
09537		-6.306016	-1.819114	7.416457	0.000592	0.007503	-0.004141	-0.364014	-0.145752	-0.561768	-13.516443	39.697508	9.813972
09538		-6.273124	-1.798549	7.400526	-0.001511	0.007509	-0.004903	-0.365723	-0.147705	-0.559814	-13.516739	39.698711	9.813177
09539		-6.252982	-1.832367	7.437975	-0.001511	0.007508	-0.004903	-0.370605	-0.145020	-0.572754	-13.517449	39.699756	9.811954
09540		-6.273103	-1.820329	7.411842	-0.001622	0.008445	-0.001622	-0.360596	-0.152100	-0.565186	-13.516395	39.701920	9.813371
09541		-6.274775	-1.799526	7.398889	-0.001658	0.010071	-0.002064	-0.360107	-0.147461	-0.557373	-13.516184	39.704828	9.814264
09542		-6.313432	-1.796236	7.359488	-0.002138	0.005572	-0.005809	-0.353027	-0.154297	-0.562012	-13.517043	39.704830	9.813150
09543		-6.277310	-1.838739	7.380752	0.001330	0.004561	-0.001910	-0.355469	-0.145264	-0.567871	-13.514423	39.704711	9.812918
09544		-6.277056	-1.779267	7.385286	-0.001621	0.008445	-0.001622	-0.360596	-0.149414	-0.553467	-13.513368	39.706875	9.814336
09545		-6.276536	-1.800546	7.397147	-0.000810	0.006192	-0.003114	-0.359375	-0.145264	-0.567383	-13.512728	39.707503	9.814185
09546		-6.262202	-1.788640	7.367970	-0.002285	0.008134	-0.002970	-0.368408	-0.148193	-0.562256	-13.512643	39.709313	9.814681
09547		-6.277510	-1.801090	7.396188	-0.000146	0.006503	-0.001766	-0.362305	-0.145508	-0.556641	-13.511026	39.710256	9.816314
09548		-6.296341	-1.809964	7.382636	0.000039	0.002314	-0.004164	-0.362549	-0.148438	-0.562988	-13.509515	39.708665	9.816958
09549		-6.262257	-1.810379	7.379229	-0.000846	0.007818	-0.003555	-0.363770	-0.138184	-0.561768	-13.509255	39.710071	9.816453
09550		-6.275614	-1.784548	7.424879	-0.003391	0.001698	-0.007622	-0.360107	-0.148438	-0.562500	-13.511241	39.707673	9.814700
09551		-6.297011	-1.811277	7.381742	-0.003615	0.003572	-0.001061	-0.367676	-0.148438	-0.561035	-13.510974	39.707085	9.817903
09552		-6.245130	-1.782169	7.379448	-0.001915	-0.000243	-0.007766	-0.360352	-0.140381	-0.562012	-13.511964	39.703586	9.816383
09553		-6.297009	-1.812407	7.381467	-0.004167	0.002324	-0.005689	-0.366699	-0.145264	-0.564209	-13.513995	39.701646	9.816167
09554		-6.299706	-1.830496	7.351709	-0.001251	0.000067	-0.006418	-0.372559	-0.146484	-0.561523	-13.514016	39.698501	9.815570
09555		-6.261502	-1.834637	7.390549	0.000152	0.001377	-0.007444	-0.357910	-0.138672	-0.562988	-13.514253	39.695734	9.814296
09556		-6.294190	-1.796347	7.410833	0.000815	0.001688	-0.006096	-0.365723	-0.146729	-0.557373	-13.513122	39.693534	9.813650
09557		-6.262427	-1.814424	7.378091	-0.000475	-0.000559	-0.008351	-0.363037	-0.147461	-0.561768	-13.513964	39.689656	9.812144
09558		-6.278257	-1.805983	7.394360	-0.000737	0.002940	-0.002230	-0.366699	-0.147705	-0.558350	-13.512074	39.688672	9.814079
09559		-6.275594	-1.788866	7.423857	-0.000511	0.001066	-0.008792	-0.366943	-0.147461	-0.560791	-13.513280	39.685582	9.810866
09560		-6.296912	-1.815611	7.380762	-0.002100	0.003944	-0.005368	-0.365479	-0.145752	-0.556641	-13.513732	39.684736	9.810355
09561		-6.262716	-1.816222	7.377403	-0.002100	0.003944	-0.005367	-0.364014	-0.139160	-0.560547	-13.514577	39.683680	9.809330
09562		-6.260188	-1.799170	7.406776	-0.000661	0.003628	-0.005952	-0.355713	-0.148682	-0.562500	-13.514440	39.682580	9.808451
09563		-6.278823	-1.808239	7.393329	0.000816	0.001688	-0.006096	-0.374512	-0.149170	-0.556396	-13.513759	39.680292	9.807948
09564		-6.297512	-1.817325	7.379829	-0.000698	0.005254	-0.006393	-0.364990	-0.145020	-0.561279	-13.514028	39.680039	9.806466
09565		-6.279040	-1.809202	7.392908	-0.003353	0.000070	-0.007181	-0.365234	-0.147217	-0.561523	-13.515978	39.676530	9.804903
09566		-6.279035	-1.809830	7.392759	-0.001324	0.003317	-0.007300	-0.365479	-0.150391	-0.567871	-13.516809	39.675077	9.803103
09567		-6.279020	-1.810308	7.392655	-0.001989	-0.000933	-0.004044	-0.367432	-0.150391	-0.562012	-13.516457	39.671545	9.803917
09568		-6.277262	-1.772391	7.409887	-0.004052	0.001384	-0.008970	-0.364990	-0.142578	-0.566650	-13.519408	39.668791	9.801244
09569		-6.277826	-1.832744	7.404780	-0.001950	0.001380	-0.008207	-0.363525	-0.148926	-0.563477	-13.521220	39.665982	9.799269
09570		-6.263971	-1.800138	7.363665	-0.003352	0.000069	-0.007181	-0.361572	-0.143311	-0.565430	-13.522796	39.662735	9.798121
09571		-6.294408	-1.804297	7.408716	-0.002538	-0.002182	-0.008673	-0.363770	-0.155029	-0.565674	-13.524785	39.657934	9.796333
09572		-6.282029	-1.810303	7.350431	-0.002575	-0.000557	-0.009114	-0.362061	-0.146729	-0.565918	-13.526739	39.654079	9.793895
09573		-6.277936	-1.814607	7.392521	-0.001723	-0.004434	-0.010164	-0.363037	-0.150635	-0.562988	-13.528676	39.647817	9.790312
09574		-6.261629	-1.824181	7.376363	-0.001761	-0.002809	-0.010605	-0.368896	-0.140869	-0.558838	-13.530601	39.642508	9.787188
09575		-6.258638	-1.807455	7.406068	-0.002575	-0.000558	-0.009113	-0.365967	-0.150879	-0.563721	-13.532963	39.638469	9.784742
09576		-6.259260	-1.787123	7.393928	-0.000245	-0.006374	-0.010308	-0.368164	-0.142822	-0.562500	-13.533485	39.631213	9.782455
09577		-6.292083	-1.808858	7.409579	-0.003200	-0.002495	-0.010020	-0.370361	-0.142090	-0.561035	-13.536405	39.625977	9.779699
09578		-6.257174	-1.809796	7.406734	-0.002347	-0.006372	-0.011071	-0.364502	-0.146973	-0.561768	-13.538483	39.618620	9.776861
09579		-6.277221	-1.777307	7.369096	-0.002385	-0.004747	-0.011512	-0.360596	-0.152588	-0.559570	-13.541377	39.611915	9.773906
09580		-6.273339	-1.841275	7.406466	-0.000869	-0.008313	-0.011215	-0.360840	-0.148926	-0.566895	-13.542457	39.603458	9.771303
09581		-6.307805	-1.680965	7.395426	-0.003481	-0.011186	-0.016165	-0.366455	-0.143066	-0.559570	-13.547413	39.592642	9.764179
09582		-6.236683	-1.843822	7.404680	-0.006832	-0.015060	-0.018742	-0.364502	-0.151367	-0.572998	-13.554625	39.579415	9.757314
09583		-6.304458	-1.764788	7.404416	-0.006016	-0.017313	-0.020233	-0.366455	-0.149658	-0.558350	-13.562228	39.564616	9.749975
09584		-6.268408	-1.766612	7.402308	-0.006678	-0.017627	-0.021581	-0.372559	-0.137451	-0.569580	-13.570366	39.549577	9.741513
09585		-6.284429	-1.718024	7.395205	-0.011199	-0.024693	-0.029691	-0.370117	-0.147949	-0.563721	-13.584444	39.529327	9.729686
09586		-6.282907	-1.700059	7.384402	-0.016496	-0.031136	-0.035868	-0.369873	-0.152832	-0.561523	-13.603256	39.504838	9.713284
09587		-6.298313	-1.712828	7.372878	-0.023195	-0.034957	-0.045619	-0.364258	-0.143311	-0.561035	-13.630287	39.476680	9.689801
09588		-6.343691	-1.730238	7.406713	-0.028372	-0.042348	-0.055073	-0.371826	-0.149170	-0.558594	-13.663418	39.443339	9.661555
09589		-6.236428	-1.795630	7.394675	-0.032137	-0.052372	-0.060952	-0.357910	-0.143799	-0.559814	-13.700606	39.403417	9.630864
09590		-6.286530	-1.768869	7.362784	-0.040412	-0.057277	-0.062669	-0.375000	-0.152344	-0.563232	-13.742354	39.360706	9.599861
09591		-6.291322	-1.732691	7.441552	-0.053580	-0.064824	-0.063088	-0.364990	-0.149902	-0.559082	-13.791307	39.313578	9.569543
09592		-6.285729	-1.720811	7.432891	-0.078051	-0.086297	-0.073475	-0.369141	-0.137207	-0.560791	-13.856159	39.253200	9.536047
09593		-6.348283	-1.770578	7.425894	-0.091415	-0.085748	-0.076076	-0.374023	-0.141602	-0.564453	-13.930183	39.192603	9.501422
09594		-6.340393	-1.842221	7.424678	-0.095119	-0.093506	-0.086109	-0.377441	-0.143799	-0.565430	-14.009504	39.126403	9.460411
09595		-6.302564	-1.829995	7.371574	-0.096096	-0.099324	-0.094477	-0.371094	-0.133545	-0.553223	-14.092726	39.055574	9.416684
09596		-6.286506	-1.948815	7.437216	-0.096357	-0.106463	-0.101064	-0.371094	-0.145996	-0.560791	-14.177734	38.979992	9.367640
09597		-6.150866	-1.956330	7.486942	-0.092158	-0.104886	-0.099979	-0.379150	-0.139160	-0.562744	-14.260223	38.905215	9.320629
09598		-6.115408	-2.020046	7.398877	-0.077717	-0.099749	-0.089008	-0.368408	-0.143799	-0.562256	-14.329589	38.834959	9.279335
09599		-6.034173	-1.974484	7.443301	-0.073699	-0.078731	-0.081079	-0.380615	-0.140137	-0.563721	-14.395773	38.777323	9.241811
09600		-5.940182	-2.034177	7.446734	-0.064775	-0.058985	-0.069872	-0.382813	-0.146729	-0.558594	-14.453636	38.732345	9.206944
09601		-5.995209	-2.050891	7.539310	-0.051555	-0.042454	-0.056300	-0.380127	-0.146729	-0.561279	-14.500047	38.698179	9.180708
09602		-6.011663	-2.045219	7.515139	-0.042497	-0.025239	-0.047942	-0.379883	-0.142822	-0.562012	-14.539175	38.675024	9.155342
09603		-6.027622	-2.178384	7.491111	-0.030519	-0.012576	-0.036195	-0.383545	-0.142578	-0.558350	-14.568001	38.660318	9.137486
09604		-6.050633	-2.225049	7.418349	-0.014234	-0.003137	-0.022087	-0.371826	-0.146729	-0.562012	-14.581981	38.653127	9.126438
09605		-6.064982	-2.120181	7.458208	0.001437	0.004361	-0.008892	-0.383789	-0.135010	-0.558594	-14.582360	38.651760	9.124278
09606		-6.055037	-2.221863	7.376180	0.016550	0.005952	0.007972	-0.373047	-0.144043	-0.556885	-14.566418	38.653944	9.132896
09607		-6.070521	-2.112670	7.416356	0.037362	0.007973	0.022020	-0.380615	-0.139648	-0.563477	-14.532956	38.659010	9.152936
09608		-6.033400	-2.052041	7.460526	0.044734	0.014470	0.028940	-0.376709	-0.141357	-0.552490	-14.492535	38.668921	9.174889
09609		-5.942808	-2.002412	7.525865	0.049632	0.030033	0.036231	-0.373047	-0.143311	-0.559082	-14.448252	38.688237	9.200822
09610		-5.818777	-2.070942	7.575838	0.048332	0.042287	0.042140	-0.377197	-0.138916	-0.564453	-14.403051	38.715442	9.227103
09611		-5.765396	-2.139683	7.631684	0.047517	0.071941	0.060399	-0.378662	-0.141602	-0.563232	-14.353989	38.761498	9.262685
09612		-5.880869	-2.069648	7.601609	0.050979	0.102300	0.076439	-0.377197	-0.145996	-0.551025	-14.298713	38.826846	9.302574
09613		-5.926066	-2.001658	7.604475	0.051545	0.137190	0.089080	-0.374756	-0.144287	-0.562256	-14.241709	38.912991	9.345813
09614		-5.848736	-1.986937	7.644352	0.041889	0.183006	0.099978	-0.376221	-0.135254	-0.555908	-14.189992	39.026416	9.388173
09615		-5.807598	-2.074142	7.703552	0.038810	0.241432	0.114720	-0.373779	-0.142822	-0.559082	-14.140282	39.174028	9.432101
09616		-5.812718	-1.995796	7.706964	0.034695	0.309435	0.132513	-0.369385	-0.142090	-0.558105	-14.091904	39.362192	9.475428
09617		-5.728885	-1.975620	7.791794	0.014424	0.382417	0.144280	-0.369141	-0.144043	-0.560547	-14.058245	39.592177	9.514196
09618		-5.751779	-1.960991	7.923057	-0.007372	0.469202	0.149434	-0.364014	-0.138428	-0.559326	-14.043992	39.871458	9.541420
09619		-5.529185	-1.973570	7.983013	-0.038898	0.576935	0.158528	-0.352783	-0.138184	-0.562744	-14.056384	40.211477	9.555186
09620		-5.709834	-2.043429	8.118690	-0.063355	0.715858	0.171446	-0.346924	-0.140381	-0.557861	-14.092725	40.630915	9.553463
09621		-5.812360	-2.001466	8.090312	-0.093995	0.908667	0.172496	-0.343994	-0.137695	-0.558105	-14.170342	41.157275	9.513220
09622		-5.242839	-1.805620	8.675559	-0.149665	1.192675	0.217372	-0.332764	-0.139648	-0.564453	-14.294062	41.847988	9.454301
09623		-4.032821	-2.491635	9.628665	-0.273944	1.546684	0.324337	-0.322266	-0.132813	-0.556152	-14.484095	42.749771	9.400196
09624		-4.848394	-2.461541	9.721700	-0.268955	2.028883	0.432659	-0.308594	-0.134766	-0.572998	-14.683965	43.934934	9.331955
09625		-5.076014	-2.585967	9.393960	-0.351046	2.393651	0.549318	-0.281738	-0.140137	-0.560791	-14.926923	45.338282	9.268819
09626		-5.040826	-2.303462	9.428249	-0.395740	2.846864	0.639591	-0.259277	-0.118896	-0.558105	-15.222605	47.006351	9.171800
09627		-5.412918	-2.251354	9.602640	-0.398489	3.286073	0.724930	-0.227783	-0.129639	-0.567871	-15.556826	48.928584	9.027941
09628		-6.113259	-1.890435	9.791002	-0.383635	3.665984	0.815327	-0.198730	-0.128662	-0.564453	-15.914796	51.074809	8.846248
09629		-6.558801	-2.091943	9.379830	-0.373653	4.000801	0.925729	-0.164063	-0.124512	-0.567383	-16.286971	53.420783	8.645069
09630		-7.878583	-2.675611	9.145862	-0.350069	4.193519	1.079531	-0.134766	-0.123291	-0.554443	-16.604648	55.898140	8.500267
09631		-8.800170	-3.274534	8.251796	-0.279939	4.258976	1.203105	-0.088135	-0.121338	-0.543457	-16.823815	58.429797	8.429058
09632		-10.120646	-2.897341	7.700101	-0.253034	4.265642	1.275521	-0.054443	-0.116943	-0.534668	-16.981589	60.978594	8.413024
09633		-10.913420	-2.493136	6.782744	-0.323447	4.126899	1.313591	-0.024170	-0.118408	-0.527100	-17.110041	63.456031	8.476056
09634		-10.624659	-2.804443	5.820891	-0.358161	3.998078	1.364387	0.015625	-0.124756	-0.520508	-17.154693	65.873275	8.652506
09635		-10.193061	-2.134479	4.911054	-0.347940	3.857621	1.424686	0.038818	-0.121826	-0.499268	-17.038049	68.221912	8.994397
09636		-10.643060	-1.791501	4.493144	-0.399912	3.663741	1.400112	0.069580	-0.133057	-0.499023	-16.844438	70.461622	9.444985
09637		-9.709332	-1.319056	3.530029	-0.502656	3.471013	1.353441	0.098389	-0.137207	-0.483887	-16.613460	72.585437	9.990890
09638		-9.231832	-1.350712	2.699095	-0.580377	3.319310	1.311114	0.127197	-0.122314	-0.470459	-16.317558	74.620059	10.644778
09639		-8.987458	-0.859069	2.462884	-0.681924	3.132355	1.223994	0.152100	-0.120850	-0.457275	-16.020699	76.535071	11.353449
09640		-8.733807	-0.352657	2.264044	-0.843604	2.945965	1.129400	0.172363	-0.126221	-0.448975	-15.770406	78.333513	12.103940
09641		-8.491006	-0.245404	2.036040	-0.992940	2.759393	1.039913	0.187744	-0.123535	-0.428711	-15.556190	80.012660	12.899996
09642		-8.094872	0.202505	1.835422	-1.102398	2.565782	0.959658	0.218750	-0.116211	-0.418213	-15.310624	81.573876	13.787505
09643		-6.293405	0.639169	2.639702	-1.194419	2.344817	0.865664	0.233154	-0.109131	-0.397461	-15.036236	82.996303	14.753731
09644		-7.019190	-0.711874	10.203916	-1.384944	1.696983	0.578120	0.237793	-0.113281	-0.378906	-15.220636	84.019123	15.365691
09645		-18.419975	-4.465161	15.619110	-1.622904	0.093946	-0.020921	0.252441	-0.101563	-0.393311	-16.373489	84.063232	15.140222
09646		-10.277179	-6.480349	12.862833	-1.456128	-1.608917	-0.310581	0.229004	-0.090576	-0.389893	-16.383178	83.126437	15.968922
09647		-2.050915	-5.850133	10.156515	-1.036921	-2.364285	-0.370699	0.222900	-0.078125	-0.397217	-15.675408	81.760349	17.280831
09648		-0.613933	-4.685283	9.017618	-0.568877	-2.626662	-0.383683	0.211670	-0.080078	-0.408203	-14.819652	80.248235	18.476070
09649		-0.103161	-3.223780	8.282224	-0.285435	-2.660723	-0.415109	0.197021	-0.078369	-0.419922	-14.156456	78.706499	19.315573
09650		-0.006239	-2.124864	7.840420	-0.184688	-2.559406	-0.494533	0.175781	-0.072754	-0.426758	-13.870501	77.212791	19.715031
09651		-0.990371	-1.701313	7.608214	-0.205402	-2.421646	-0.639719	0.162354	-0.065918	-0.447510	-14.064862	75.771052	19.634895
09652		-2.481216	-1.860910	7.686255	-0.261123	-2.348127	-0.837246	0.151367	-0.061279	-0.445801	-14.691004	74.346402	19.140624
09653		-3.981322	-2.194623	7.993619	-0.276938	-2.360394	-1.051067	0.133301	-0.049316	-0.451416	-15.615438	72.876323	18.341200
09654		-5.264783	-2.707540	8.362535	-0.242343	-2.478996	-1.282766	0.111084	-0.041016	-0.471191	-16.704460	71.305290	17.341620
09655		-6.302747	-3.395084	8.536573	-0.116812	-2.660061	-1.484763	0.088623	-0.037842	-0.473877	-17.779082	69.589834	16.271021
09656		-7.430051	-3.876172	8.610141	0.100937	-2.891219	-1.637705	0.059082	-0.034668	-0.494385	-18.666930	67.720804	15.254676
09657		-8.325637	-3.933259	8.473320	0.359523	-3.146426	-1.741929	0.047119	-0.029541	-0.505127	-19.284133	65.683445	14.357071
09658		-8.995971	-3.568225	8.203230	0.592118	-3.370630	-1.813567	0.019531	-0.012939	-0.520020	-19.644754	63.514305	13.581194
09659		-9.495955	-3.167278	7.874053	0.763815	-3.527553	-1.846220	-0.011230	-0.020264	-0.532715	-19.800191	61.246480	12.910383
09660		-10.127247	-2.791664	7.606344	0.872897	-3.617892	-1.826023	-0.055420	-0.023682	-0.548828	-19.784321	58.939779	12.350521
09661		-10.886939	-2.577300	7.555602	0.924152	-3.643436	-1.766705	-0.081787	-0.025146	-0.559814	-19.643774	56.624732	11.889162
09662		-11.903742	-2.382337	7.688773	0.906797	-3.647440	-1.688409	-0.116455	-0.031494	-0.570801	-19.427701	54.329729	11.519496
09663		-13.002528	-2.325680	7.828633	0.834896	-3.661601	-1.626384	-0.156494	-0.027588	-0.575928	-19.192221	52.033248	11.214346
09664		-13.815455	-2.384379	7.846289	0.714622	-3.684847	-1.579492	-0.193604	-0.039307	-0.587402	-18.980336	49.740114	10.958314
09665		-14.288530	-2.346242	7.643374	0.589669	-3.718506	-1.543913	-0.229736	-0.029785	-0.586426	-18.804602	47.429648	10.740267
09666		-14.681645	-2.129006	7.315911	0.440337	-3.728066	-1.532074	-0.264648	-0.035889	-0.587646	-18.698883	45.122780	10.535950
09667		-14.685923	-2.055676	6.684910	0.286743	-3.719223	-1.542618	-0.306152	-0.037598	-0.587402	-18.679400	42.813022	10.325401
09668		-14.549420	-2.312621	5.906423	0.186548	-3.680300	-1.544105	-0.337158	-0.037598	-0.587402	-18.712764	40.530005	10.112859
09669		-14.406688	-2.690096	4.864208	0.159170	-3.631081	-1.482905	-0.378662	-0.038574	-0.584229	-18.730334	38.279465	9.939421
09670		-13.886931	-2.930872	3.835239	0.215047	-3.549428	-1.356894	-0.416504	-0.044922	-0.580566	-18.667572	36.101857	9.837629
09671		-13.113376	-2.771279	2.848189	0.281596	-3.442901	-1.182526	-0.450684	-0.046143	-0.562256	-18.512327	34.009311	9.824856
09672		-12.417329	-2.195153	2.091556	0.247498	-3.269345	-1.007610	-0.472656	-0.045898	-0.560791	-18.338449	32.047617	9.881691
09673		-12.014992	-1.510088	1.461610	0.064111	-3.050483	-0.884919	-0.502686	-0.059814	-0.547363	-18.258248	30.222830	9.963682
09674		-11.727980	-1.235070	0.706003	-0.237250	-2.822918	-0.824216	-0.523682	-0.059326	-0.538574	-18.357621	28.536887	10.036025
09675		-11.381098	-0.871951	-0.281309	-0.552892	-2.560104	-0.797397	-0.546631	-0.043213	-0.535400	-18.654962	26.995449	10.075775
09676		-11.377149	-0.400105	-1.599416	-0.839525	-2.255853	-0.762560	-0.581787	-0.052490	-0.525391	-19.130733	25.629080	10.085222
09677		-11.580144	-0.111618	-3.257203	-1.013131	-1.899869	-0.680135	-0.593506	-0.041992	-0.510254	-19.711644	24.468301	10.082285
09678		-12.822417	0.187830	-4.966833	-1.050618	-1.503644	-0.567997	-0.597900	-0.034180	-0.503418	-20.315909	23.545468	10.074007
09679		-14.475308	0.051677	-6.679003	-0.908736	-1.148802	-0.423761	-0.613525	-0.026855	-0.493408	-20.832891	22.840327	10.081597
09680		-13.970108	-2.661639	-8.830599	-0.486486	-0.827639	-0.228180	-0.618164	-0.028076	-0.488281	-21.089348	22.348833	10.136788
09681		-8.998206	-2.193978	-10.845175	1.122912	0.354652	0.469661	-0.623291	-0.041260	-0.493896	-20.369928	22.631715	10.334503
09682		2.095158	3.335010	5.701508	0.871406	1.500831	0.583278	-0.605713	-0.033691	-0.508545	-19.860416	23.552151	10.357822
09683		-5.362396	-8.010864	21.231231	0.342497	1.269498	-0.183152	-0.589600	-0.041260	-0.512939	-19.815464	24.198589	9.983101
09684		1.945309	-8.748706	18.919277	0.639832	0.776257	-0.079924	-0.591064	-0.046143	-0.516602	-19.533749	24.599989	9.775014
09685		0.238398	0.253411	7.319706	0.470807	1.174785	-0.146748	-0.584717	-0.043945	-0.524658	-19.403292	25.203862	9.443355
09686		-3.440598	2.733741	5.332402	0.246839	2.071690	-0.235476	-0.572510	-0.052979	-0.527832	-19.511137	26.276141	8.866912
09687		-11.139452	4.014496	10.802963	-0.124763	2.193896	-0.382995	-0.555908	-0.049072	-0.535400	-19.899411	27.382782	8.163722
09688		-9.216216	4.443311	12.852542	-0.516519	1.745415	-0.315693	-0.549072	-0.051758	-0.542725	-20.464158	28.257085	7.585478
09689		-6.383042	4.821649	11.414100	-0.932762	1.547083	0.004257	-0.536133	-0.041260	-0.542969	-21.166684	29.084134	7.232885
09690		-7.470561	0.339714	9.571459	-1.240185	1.493581	0.236929	-0.519531	-0.019775	-0.540283	-21.980890	29.927986	7.020319
09691		-8.517215	-6.801341	7.971685	-1.216668	1.400952	0.191007	-0.506592	-0.018066	-0.541260	-22.794000	30.709706	6.787679
09692		-7.893149	-11.777528	6.613349	-0.755820	1.307700	0.028568	-0.500732	-0.005127	-0.546631	-23.391802	31.403570	6.466260
09693		-6.128987	-9.986366	5.653289	-0.198978	1.306493	-0.010900	-0.494141	-0.003662	-0.545654	-23.691074	32.085398	6.112042
09694		-6.467474	-4.343965	6.894176	0.048965	1.314881	0.147671	-0.478027	-0.011719	-0.546631	-23.803367	32.807319	5.848446
09695		-7.401317	-2.121811	8.089172	-0.015646	1.096722	0.242412	-0.469971	-0.014893	-0.546631	-23.892178	33.436331	5.700717
09696		-5.887510	-4.271168	6.741563	-0.069735	0.896670	0.258978	-0.462646	-0.011719	-0.556152	-23.977281	33.964379	5.617409
09697		-6.584028	-6.093155	6.363361	0.027133	0.864869	0.257083	-0.459229	-0.002441	-0.550293	-24.004103	34.475213	5.540501
09698		-7.837774	-4.257962	7.167175	0.137307	0.677235	0.278419	-0.456543	-0.004150	-0.549561	-23.930139	34.892861	5.530339
09699		-8.167344	-3.543144	7.655996	0.157644	0.430700	0.319003	-0.445557	-0.016602	-0.561523	-23.789567	35.190780	5.616506
09700		-7.465592	-4.012786	7.428176	0.206992	0.256741	0.292451	-0.443604	-0.008789	-0.555664	-23.600663	35.391079	5.736336
09701		-7.093857	-3.375375	7.694269	0.250799	0.169246	0.279696	-0.437744	-0.006104	-0.555908	-23.376772	35.542282	5.873256
09702		-6.973788	-2.939076	7.830141	0.241308	0.081639	0.275269	-0.437500	-0.018311	-0.568848	-23.144458	35.645775	6.033004
09703		-6.481120	-3.363176	7.648619	0.233662	0.046223	0.264735	-0.436768	-0.016357	-0.555664	-22.914710	35.727918	6.196045
09704		-6.050321	-3.183127	7.663632	0.233812	0.047667	0.257426	-0.441162	-0.013916	-0.562744	-22.686852	35.808460	6.354841
09705		-5.933048	-2.878229	7.762789	0.213883	0.067133	0.250314	-0.442139	-0.014893	-0.562256	-22.476231	35.897470	6.503921
09706		-6.078300	-2.811971	7.703031	0.183356	0.081879	0.228611	-0.431641	-0.013184	-0.562988	-22.292741	35.988911	6.635712
09707		-6.313243	-2.703754	7.648442	0.160892	0.091901	0.202415	-0.429443	-0.020508	-0.564697	-22.133835	36.079906	6.747807
09708		-6.025391	-2.863036	7.568502	0.151178	0.096688	0.185183	-0.433594	-0.007324	-0.561523	-21.987047	36.169261	6.848044
09709		-5.983160	-3.105601	7.434171	0.164960	0.101879	0.180840	-0.424805	-0.010010	-0.568848	-21.834953	36.260483	6.944151
09710		-5.549857	-3.108869	7.367405	0.189918	0.111986	0.199414	-0.433105	-0.013916	-0.569580	-21.662030	36.360558	7.050597
09711		-5.528431	-3.193227	7.470296	0.214317	0.142925	0.218521	-0.434082	-0.017822	-0.570068	-21.472398	36.481111	7.161836
09712		-5.708732	-2.860974	7.591887	0.208609	0.171364	0.214518	-0.431885	-0.022949	-0.567871	-21.290963	36.615469	7.263995
09713		-6.052421	-2.534639	7.802149	0.166353	0.189512	0.181912	-0.424316	-0.018555	-0.569580	-21.149398	36.752745	7.340085
09714		-6.050503	-2.546758	7.655178	0.114804	0.188430	0.146161	-0.415527	-0.016113	-0.574463	-21.050603	36.881721	7.393386
09715		-5.986792	-2.897551	7.407764	0.095103	0.185453	0.130297	-0.427490	-0.026367	-0.568604	-20.969145	37.005995	7.436893
09716		-5.973314	-2.967806	7.321777	0.104169	0.186729	0.130900	-0.416504	-0.033691	-0.579102	-20.881760	37.130807	7.481062
09717		-6.014767	-3.024948	7.216566	0.119738	0.179901	0.142468	-0.419189	-0.023438	-0.570313	-20.779858	37.254478	7.534795
09718		-6.054664	-3.006744	7.155450	0.148815	0.155383	0.155351	-0.416260	-0.031250	-0.573486	-20.651483	37.367316	7.604143
09719		-6.019697	-2.953326	7.151304	0.170229	0.140984	0.172908	-0.416504	-0.027344	-0.570313	-20.501494	37.476055	7.689139
09720		-5.917800	-2.871837	7.131196	0.197026	0.132229	0.186601	-0.405518	-0.033936	-0.578369	-20.328265	37.582416	7.786430
09721		-5.821791	-2.796769	7.212515	0.215579	0.118203	0.205454	-0.405762	-0.036377	-0.575439	-20.134438	37.684950	7.900273
09722		-5.793758	-2.854537	7.249304	0.236875	0.117081	0.228577	-0.414551	-0.036133	-0.572510	-19.917582	37.790865	8.031079
09723		-6.025954	-2.832171	7.329557	0.259326	0.107149	0.251570	-0.411621	-0.032471	-0.575195	-19.676593	37.895690	8.180411
09724		-6.047646	-2.672857	7.310136	0.268385	0.099657	0.245720	-0.409912	-0.037354	-0.581543	-19.430582	37.994629	8.328663
09725		-6.198837	-2.415990	7.407320	0.257852	0.098857	0.226701	-0.406250	-0.037109	-0.574219	-19.198394	38.089256	8.464426
09726		-6.178164	-2.420476	7.382649	0.232209	0.113411	0.195462	-0.398193	-0.038086	-0.586182	-18.995251	38.185286	8.576191
09727		-6.126265	-2.346331	7.352891	0.211267	0.124270	0.178454	-0.400146	-0.035645	-0.575439	-18.812947	38.283968	8.673883
09728		-6.094742	-2.451886	7.237221	0.205835	0.133529	0.187406	-0.403809	-0.040039	-0.579834	-18.630307	38.388856	8.776464
09729		-6.183296	-2.648682	7.118803	0.225566	0.138290	0.206442	-0.398193	-0.045898	-0.581787	-18.428788	38.499748	8.891420
09730		-6.278334	-2.678715	7.172381	0.253697	0.128072	0.223524	-0.399414	-0.045166	-0.583984	-18.201197	38.607596	9.021637
09731		-6.273139	-2.504566	7.235214	0.262027	0.112844	0.228626	-0.399170	-0.050293	-0.577637	-17.964286	38.707876	9.159289
09732		-6.258598	-2.343470	7.381084	0.248670	0.106065	0.219285	-0.390381	-0.041748	-0.586914	-17.737043	38.802150	9.292981
09733		-6.230202	-2.147421	7.487399	0.230890	0.109925	0.202443	-0.392090	-0.045166	-0.585205	-17.527860	38.895448	9.414298
09734		-6.222943	-2.133397	7.509591	0.197837	0.117487	0.174477	-0.389160	-0.052246	-0.585938	-17.350015	38.987519	9.515197
09735		-6.129389	-2.113701	7.537879	0.174227	0.144917	0.159630	-0.392822	-0.056885	-0.593750	-17.196103	39.092079	9.599786
09736		-6.020761	-2.322075	7.328942	0.171444	0.172115	0.178383	-0.383789	-0.048828	-0.585938	-17.038239	39.214279	9.692531
09737		-6.202634	-2.648060	7.184673	0.209227	0.194475	0.233144	-0.384033	-0.059814	-0.588379	-16.837097	39.357872	9.819580
09738		-6.186268	-2.797470	6.978170	0.263585	0.182631	0.288832	-0.381836	-0.046143	-0.586426	-16.576723	39.503518	9.990054
09739		-6.424257	-2.718555	7.071009	0.322575	0.142865	0.359832	-0.385010	-0.062988	-0.588623	-16.244333	39.638339	10.220459
09740		-6.579019	-2.612207	7.092173	0.346076	0.077989	0.374069	-0.385986	-0.061035	-0.586182	-15.881634	39.738394	10.476227
09741		-6.583072	-2.072863	7.192228	0.346565	0.017130	0.375496	-0.383545	-0.066162	-0.586426	-15.509702	39.804076	10.746029
09742		-6.413236	-1.911501	7.242884	0.344306	-0.018374	0.373550	-0.383301	-0.057861	-0.599121	-15.134223	39.848249	11.022596
09743		-6.204934	-1.796066	7.313750	0.322719	-0.024363	0.357475	-0.373047	-0.063721	-0.596436	-14.777875	39.885628	11.288855
09744		-6.023912	-1.920005	7.512400	0.305773	-0.009141	0.358095	-0.380371	-0.059570	-0.598633	-14.431794	39.930026	11.553541
09745		-6.062502	-1.735731	7.523368	0.284712	0.017539	0.347269	-0.378174	-0.071533	-0.593994	-14.105998	39.986761	11.805613
09746		-5.991042	-1.946403	7.517488	0.265775	0.058635	0.352555	-0.384766	-0.068359	-0.595703	-13.792153	40.065755	12.055156
09747		-5.909077	-1.807558	7.592984	0.243869	0.109406	0.360185	-0.371582	-0.071777	-0.593750	-13.492712	40.173243	12.301791
09748		-6.050537	-1.811422	7.564600	0.217240	0.170555	0.358635	-0.371094	-0.075928	-0.605469	-13.214417	40.313443	12.538231
09749		-5.976797	-1.740303	7.666339	0.188835	0.248516	0.367449	-0.366699	-0.071777	-0.594727	-12.955914	40.497635	12.768895
09750		-6.079261	-1.884926	7.679426	0.162061	0.326102	0.375606	-0.366699	-0.080078	-0.598877	-12.715000	40.725251	12.994703
09751		-5.985387	-1.991027	7.607458	0.142347	0.406188	0.390289	-0.359131	-0.080078	-0.602051	-12.485359	40.998928	13.219822
09752		-6.177914	-1.794666	7.822905	0.114344	0.496140	0.406295	-0.352539	-0.080322	-0.592773	-12.270564	41.324099	13.444994
09753		-6.444039	-1.796400	7.670997	0.083014	0.583828	0.426197	-0.344971	-0.084473	-0.604492	-12.070901	41.700276	13.673274
09754		-6.439434	-1.617654	7.644592	0.062657	0.678468	0.425535	-0.346436	-0.076904	-0.614258	-11.889507	42.128741	13.889462
09755		-6.388641	-1.770720	7.672776	0.064889	0.790443	0.438098	-0.339355	-0.080811	-0.596680	-11.709353	42.621048	14.100403
09756		-6.346390	-1.638312	7.754427	0.078505	0.907808	0.446196	-0.328125	-0.086670	-0.595703	-11.525094	43.179579	14.303423
09757		-6.283510	-1.350220	7.959193	0.079039	1.033702	0.463487	-0.316162	-0.075195	-0.607666	-11.340854	43.810326	14.504124
09758		-6.266070	-0.983691	7.994980	0.034407	1.197018	0.477834	-0.307617	-0.086914	-0.607666	-11.186406	44.533983	14.695934
09759		-5.808523	-1.018720	8.220093	0.012957	1.438383	0.465047	-0.292725	-0.080566	-0.608887	-11.073206	45.391551	14.844422
09760		-6.273337	-0.628613	8.075446	-0.026061	1.665182	0.431591	-0.281250	-0.079346	-0.607666	-11.022196	46.372874	14.934773
09761		-6.181782	-1.034980	8.038319	-0.060028	1.921338	0.439481	-0.257813	-0.076904	-0.610352	-11.013415	47.498933	14.992640
09762		-6.080991	-0.512682	8.263098	-0.059695	2.206837	0.397160	-0.242676	-0.075928	-0.606201	-11.064105	48.781072	14.969061
09763		-6.194674	-0.884000	7.939760	-0.078279	2.502597	0.363630	-0.212646	-0.078125	-0.602539	-11.189399	50.225458	14.862035
09764		-6.090781	-1.009885	7.807357	-0.096438	2.761430	0.360749	-0.188721	-0.066895	-0.600830	-11.371820	51.815059	14.697086
09765		-6.063499	-1.193625	7.813728	-0.105168	3.008641	0.275108	-0.173096	-0.078369	-0.596191	-11.676493	53.532741	14.388501
09766		-6.170021	-0.626797	7.761505	-0.073619	3.297608	0.341096	-0.146729	-0.077393	-0.594482	-11.988073	55.419646	14.056220
09767		-6.127893	-0.661131	7.835110	-0.056110	3.587522	0.428002	-0.109375	-0.076416	-0.588379	-12.305530	57.477686	13.712661
09768		-5.894400	-1.398127	8.318849	0.004767	3.903363	0.547407	-0.083984	-0.071045	-0.587158	-12.584567	59.726811	13.381360
09769		-6.041222	-1.456530	8.204955	0.012586	4.401189	0.686613	-0.049316	-0.076172	-0.580566	-12.881361	62.269933	13.032570
09770		-6.687237	-2.346687	8.033868	-0.068001	4.984904	0.810298	0.000000	-0.078857	-0.557373	-13.307577	65.154657	12.599595
09771		-8.285859	-3.177889	8.027506	-0.165476	5.485709	0.902950	0.041748	-0.072754	-0.553711	-13.947551	68.327631	12.005185
09772		-8.709297	-3.470962	7.724382	-0.346206	5.840153	1.068151	0.093262	-0.082764	-0.531738	-14.789805	71.718771	11.319288
09773		-10.957756	-3.775051	6.785738	-0.449481	6.072202	1.361057	0.134277	-0.083252	-0.508545	-15.571000	75.276918	10.772209
09774		-13.437365	-2.908127	5.972618	-0.543738	6.199065	1.618882	0.189697	-0.075928	-0.474854	-16.220302	78.944765	10.424899
09775		-16.344411	-2.736603	5.698716	-0.685295	6.211381	1.796818	0.227539	-0.081787	-0.449219	-16.729542	82.645460	10.305694
09776		-16.676633	-2.005053	6.089818	-0.703170	6.114743	1.995880	0.277344	-0.087158	-0.412842	-15.935260	86.327171	11.506866
09777		-16.413122	-2.466363	5.837885	-0.743326	5.926253	1.979281	0.317871	-0.101318	-0.387695	39.491072	89.821443	67.362629
09778		-14.460760	-2.210781	5.826377	-0.828648	5.804113	1.828882	0.357178	-0.100098	-0.343994	159.692049	86.609905	-171.957999
09779		-13.703998	-1.014116	6.126757	-1.148935	5.644007	1.616989	0.388428	-0.095947	-0.308838	161.321061	83.256260	-169.663955
09780		-10.627954	-0.030592	5.383529	-1.598528	5.480847	1.419636	0.425049	-0.105713	-0.263428	161.877166	80.021586	-168.177582
09781		-8.435815	-0.384022	4.915288	-2.138247	5.308786	1.217177	0.454102	-0.104980	-0.222168	162.009931	76.918505	-166.793469
09782		-5.335265	-0.068281	3.852961	-2.641743	5.160929	1.107325	0.472656	-0.094971	-0.183838	161.706112	73.912940	-165.544583
09783		-4.253799	0.416287	3.717928	-3.154055	5.235096	1.072542	0.494385	-0.098145	-0.130371	161.072164	70.879650	-164.315398
09784		-7.285713	1.466922	5.717110	-3.701892	5.268659	1.010549	0.516602	-0.096924	-0.086182	160.153428	67.841890	-163.031714
09785		-23.517750	-3.751390	11.691659	-4.107902	4.312295	0.561820	0.533203	-0.083984	-0.044678	159.086682	65.419494	-161.631486
09786		-18.946131	-7.762980	11.436091	-4.012672	2.128264	0.089770	0.533936	-0.069092	-0.018066	157.636937	64.268959	-160.694286
09787		-16.328291	-10.620002	10.924359	-3.421949	0.265623	-0.367684	0.540527	-0.063232	-0.008545	156.196973	64.218683	-160.118261
09788		-14.148449	-12.818969	9.691276	-2.291553	-1.501538	-0.798476	0.522461	-0.039551	-0.018799	155.007272	65.192828	-159.983088
09789		-11.311888	-12.377770	7.982116	-0.901452	-2.823355	-1.131274	0.522461	-0.032959	-0.039307	154.244281	66.940605	-160.255164
09790		-9.451881	-10.091798	6.780340	0.368482	-3.749536	-1.392326	0.501953	-0.030273	-0.072754	153.895949	69.223122	-160.859279
09791		-8.571866	-7.702707	5.909658	1.291687	-4.439988	-1.611409	0.482422	-0.007568	-0.109131	153.802320	71.923092	-161.745846
09792		-7.841124	-5.478052	5.138682	1.868302	-4.976824	-1.772412	0.454102	0.005127	-0.157227	153.683128	74.931353	-162.988010
09793		-7.267500	-3.211505	4.621398	2.108536	-5.368492	-1.851458	0.419189	0.014893	-0.201416	153.086868	78.167172	-164.845342
09794		-6.892595	-1.077622	4.336250	2.012979	-5.633219	-1.906301	0.385010	0.015137	-0.250977	151.188152	81.533701	-167.946009
09795		-6.514447	0.612374	3.990984	1.646378	-5.776020	-2.004790	0.344238	0.024658	-0.286621	145.743910	84.970999	-174.377652
09796		-6.002685	2.072543	3.696387	1.079446	-5.770201	-2.129310	0.307129	0.035400	-0.324219	118.827057	88.190813	158.048990
09797		-6.056261	2.809250	3.466316	0.387352	-5.622268	-2.297128	0.255859	0.056641	-0.359619	6.531937	87.628417	45.495290
09798		-6.137804	2.109978	3.212084	-0.231221	-5.392526	-2.437978	0.218506	0.076660	-0.378418	-11.736909	84.435592	27.321970
09799		-6.452006	0.342589	3.093508	-0.555080	-5.144160	-2.494237	0.170410	0.092285	-0.391846	-17.192915	81.209861	22.143731
09800		-6.928206	-1.780431	3.353402	-0.486431	-4.929406	-2.455470	0.134521	0.105713	-0.416016	-19.844905	78.082183	19.731048
09801		-7.703112	-3.246297	3.809997	-0.106906	-4.811374	-2.348805	0.077881	0.124756	-0.427002	-21.133483	75.017101	18.467707
09802		-8.230126	-3.825834	4.222229	0.404437	-4.739723	-2.242843	0.038574	0.143066	-0.449463	-21.590740	72.017979	17.748269
09803		-8.756999	-3.553493	4.758952	0.868223	-4.672302	-2.165066	-0.006348	0.149902	-0.461914	-21.564615	69.060642	17.246596
09804		-9.240181	-2.676515	5.503879	1.139228	-4.589039	-2.148872	-0.063477	0.157715	-0.476074	-21.349289	66.161281	16.772369
09805		-9.899150	-2.014578	6.291079	1.183683	-4.494224	-2.219422	-0.109375	0.166504	-0.489746	-21.196459	63.288465	16.189595
09806		-10.577584	-2.098987	6.990841	1.100403	-4.406106	-2.342346	-0.167480	0.172607	-0.503906	-21.191818	60.447581	15.478764
09807		-11.415383	-2.717858	7.633324	1.022170	-4.342585	-2.464446	-0.217529	0.175293	-0.498535	-21.291831	57.604853	14.677252
09808		-12.024569	-3.604983	8.058577	1.030947	-4.308128	-2.553748	-0.272217	0.186035	-0.501465	-21.388704	54.771316	13.848544
09809		-12.588042	-4.228848	8.383323	1.113523	-4.277642	-2.591743	-0.335205	0.189697	-0.493652	-21.402634	51.935463	13.033995
09810		-13.248393	-4.591280	8.763826	1.219960	-4.263447	-2.583853	-0.379639	0.170410	-0.479980	-21.292943	49.119447	12.269243
09811		-13.894640	-4.840353	9.194174	1.304227	-4.266990	-2.522069	-0.434814	0.168701	-0.457764	-21.052027	46.305673	11.582491
09812		-14.661599	-5.099156	9.667198	1.331374	-4.286954	-2.415471	-0.485107	0.161865	-0.442383	-20.701174	43.515573	10.997402
09813		-15.625664	-5.421390	9.963481	1.280859	-4.359609	-2.275263	-0.529785	0.148682	-0.433350	-20.276930	40.707488	10.533099
09814		-16.473246	-6.128904	9.750104	1.147708	-4.462004	-2.088523	-0.561768	0.140381	-0.396973	-19.818195	37.893689	10.217333
09815		-17.689125	-6.687668	9.063181	0.958584	-4.578083	-1.868033	-0.614258	0.132080	-0.381836	-19.360978	35.052033	10.059880
09816		-18.450360	-6.267715	7.754200	0.659539	-4.686892	-1.658019	-0.658203	0.110107	-0.354980	-18.989839	32.201593	10.045614
09817		-18.702376	-4.373333	5.839624	0.169409	-4.697546	-1.552179	-0.688721	0.100098	-0.318359	-18.871301	29.356239	10.085276
09818		-18.511020	-1.649716	3.513712	-0.556064	-4.536819	-1.585361	-0.728271	0.077148	-0.285400	-19.192975	26.600697	10.076566
09819		-18.529921	0.478377	0.735198	-1.377966	-4.174345	-1.754722	-0.761475	0.056641	-0.245605	-20.048702	24.000464	9.919884
09820		-19.183064	1.232297	-2.346808	-1.968080	-3.660878	-2.002965	-0.788330	0.042725	-0.194336	-21.314042	21.630901	9.562465
09821		-19.447192	0.070228	-5.669919	-1.994424	-3.080440	-2.143703	-0.807861	0.019043	-0.157227	-22.634797	19.526310	9.053976
09822		-20.135633	-0.957134	-8.768848	-1.340316	-2.477788	-2.018887	-0.823975	-0.008545	-0.127686	-23.571614	17.764827	8.522680
09823		-20.265854	1.174200	-11.473711	-0.399964	-1.984917	-1.628061	-0.827881	-0.031006	-0.100342	-23.920804	16.341687	8.111427
09824		-19.967081	5.309612	-13.238501	0.217116	-1.482810	-1.017817	-0.833984	-0.038818	-0.086670	-23.848007	15.326999	7.918364
09825		-19.929800	8.509615	-13.697176	0.242625	-0.928313	-0.315224	-0.844238	-0.054443	-0.080322	-23.694636	14.762749	7.972182
09826		-19.530627	8.219983	-13.075318	-0.063698	-0.297409	0.382100	-0.842773	-0.058105	-0.063232	-23.658447	14.692856	8.253854
09827		-15.852329	-0.797542	-11.815194	-0.071202	0.346639	0.989506	-0.838135	-0.052734	-0.063477	-23.580915	15.099148	8.712265
09828		-11.017400	-1.036925	-6.374418	1.351819	1.759126	1.990135	-0.838379	-0.048096	-0.062500	-22.619554	16.471834	9.394853
09829		-1.669920	-1.612636	14.509566	1.030945	2.122133	1.681508	-0.833252	-0.027100	-0.070068	-21.894164	17.960363	9.849389
09830		0.203636	-16.560728	25.820213	0.580716	1.408637	0.569681	-0.833008	-0.028076	-0.068115	-21.557733	18.829077	9.857699
09831		8.808284	-13.389664	13.419201	0.985278	1.630772	0.258109	-0.833252	-0.033447	-0.067871	-21.062715	19.751059	9.646999
09832		2.481084	-2.157600	2.286482	1.007917	3.011462	-0.134077	-0.823486	-0.037354	-0.077881	-20.740411	21.333651	8.916643
09833		-6.068470	2.622455	4.149908	0.912825	4.226681	-0.301305	-0.821777	-0.040039	-0.086670	-20.636367	23.535255	7.819203
09834		-15.916351	7.957645	13.440849	0.380163	4.118129	-0.273144	-0.820557	-0.042969	-0.105713	-20.865909	25.684397	6.742506
09835		-11.875947	9.854788	15.150366	-0.182650	3.362813	0.250616	-0.816406	-0.041016	-0.105957	-21.248306	27.531677	6.121441
09836		-9.625453	6.695256	13.062990	-0.720086	2.934664	1.047301	-0.808350	-0.033203	-0.112061	-21.688824	29.314186	6.060559
09837		-12.480240	-7.488996	9.546740	-0.664510	2.551832	1.425008	-0.805176	-0.041504	-0.117676	-21.941494	30.973014	6.312947
09838		-8.613545	-17.947604	2.412763	0.054803	2.290239	1.279145	-0.790527	-0.021484	-0.122070	-21.788548	32.461920	6.542072
09839		-8.981355	-12.598014	3.129498	0.917390	2.581341	1.537186	-0.793457	-0.021484	-0.130127	-21.076513	34.158791	6.880150
09840		-15.943650	-1.773036	10.425883	1.184560	1.794506	1.617526	-0.782227	-0.015137	-0.134521	-20.042157	35.445015	7.501306
09841		-12.474087	-2.355169	7.743711	1.165398	0.787485	1.520187	-0.777100	-0.009033	-0.140625	-18.888043	36.159336	8.332012
09842		-10.394355	-6.237472	6.478640	1.386027	0.476997	1.249667	-0.777832	-0.005859	-0.135742	-17.652266	36.641260	9.074394
09843		-9.906143	0.386552	10.025785	1.364425	0.207018	1.131554	-0.779053	-0.006104	-0.145996	-16.430564	36.943581	9.808439
09844		-11.234596	2.282323	9.872945	0.866266	-0.283226	0.829752	-0.776855	-0.010498	-0.137695	-15.553612	36.916364	10.440118
09845		-7.044773	-2.291234	7.488061	0.715375	-0.333429	0.649289	-0.772217	-0.008545	-0.139648	-14.834134	36.828572	10.955144
09846		-6.066019	-1.368750	8.479829	0.688686	-0.302114	0.582693	-0.778320	-0.001953	-0.140625	-14.162023	36.742284	11.416793
09847		-6.000725	-1.237886	8.216722	0.607187	-0.221984	0.520950	-0.775146	-0.000977	-0.137451	-13.572512	36.689376	11.819947
09848		-6.020981	-1.896918	7.913272	0.553045	-0.167276	0.462928	-0.773682	-0.004150	-0.136719	-13.043617	36.654814	12.173152
09849		-6.108175	-1.335691	8.124896	0.492259	-0.109381	0.412435	-0.771973	-0.002930	-0.147705	-12.577009	36.645074	12.481289
09850		-6.436356	-0.768688	8.074402	0.409763	-0.059683	0.341350	-0.780762	-0.007080	-0.136475	-12.191290	36.651221	12.732363
09851		-6.307073	-0.738867	8.132301	0.319490	-0.016471	0.274009	-0.771240	-0.001709	-0.138672	-11.889625	36.673692	12.929859
09852		-6.033622	-0.952652	8.158893	0.245119	0.032947	0.233970	-0.774170	0.000488	-0.144775	-11.650897	36.717088	13.092536
09853		-6.076399	-1.121613	8.057108	0.186864	0.085513	0.204374	-0.778320	0.006348	-0.146729	-11.462539	36.787482	13.227149
09854		-6.081368	-1.119529	7.964340	0.139713	0.117003	0.166223	-0.774902	-0.004150	-0.143311	-11.319138	36.869559	13.331042
09855		-6.094612	-1.322903	7.865730	0.099011	0.143709	0.138504	-0.776611	0.005127	-0.145264	-11.213012	36.964736	13.411977
09856		-6.033621	-1.212932	7.871559	0.067093	0.156232	0.113860	-0.769531	-0.001221	-0.141113	-11.136039	37.062734	13.474194
09857		-6.082532	-1.181133	7.854520	0.026808	0.165476	0.080146	-0.772461	0.004150	-0.145020	-11.097361	37.163537	13.511509
09858		-5.993736	-1.443795	7.764279	-0.002209	0.174289	0.062111	-0.766357	0.002686	-0.148438	-11.083320	37.265912	13.535038
09859		-5.882245	-1.803216	7.605217	0.000560	0.178651	0.066606	-0.766846	-0.005371	-0.142090	-11.066341	37.372612	13.561165
09860		-5.903212	-1.896143	7.572294	0.013975	0.176405	0.083536	-0.767822	0.002197	-0.145996	-11.033822	37.478515	13.599729
09861		-5.981456	-1.866818	7.458284	0.035430	0.158727	0.099013	-0.767090	0.004150	-0.155762	-10.981012	37.577524	13.651790
09862		-6.153846	-1.754766	7.392503	0.052090	0.134105	0.106444	-0.772461	-0.001465	-0.143555	-10.912865	37.662070	13.712774
09863		-6.165593	-1.701366	7.361915	0.068210	0.098446	0.111903	-0.767334	0.002686	-0.157227	-10.830300	37.728467	13.782620
09864		-6.118217	-1.439280	7.446374	0.077553	0.051539	0.099149	-0.771240	0.002197	-0.154297	-10.743533	37.765625	13.850013
09865		-6.056216	-1.105143	7.608884	0.066638	0.037060	0.080338	-0.769775	0.000244	-0.150146	-10.670316	37.793962	13.905952
09866		-5.928176	-1.121474	7.704148	0.048391	0.043055	0.055948	-0.769287	0.004150	-0.142578	-10.618274	37.821638	13.943862
09867		-5.906047	-1.339175	7.707266	0.013247	0.054935	0.013560	-0.764648	-0.001953	-0.145508	-10.606178	37.852920	13.949920
09868		-5.850074	-1.274825	7.759530	0.010105	0.070725	0.024821	-0.774902	0.002441	-0.152344	-10.591903	37.892876	13.961990
09869		-5.936054	-1.363722	7.698774	0.009894	0.081641	0.032474	-0.762207	-0.001465	-0.149658	-10.575580	37.941170	13.978024
09870		-6.087899	-1.411135	7.662189	0.005500	0.091741	0.035359	-0.767822	-0.002686	-0.150391	-10.560993	37.994065	13.994864
09871		-6.044744	-1.602648	7.562713	0.015208	0.092446	0.055059	-0.768555	-0.001953	-0.145264	-10.532497	38.050799	14.025672
09872		-5.971271	-1.732226	7.564848	0.029026	0.104502	0.073151	-0.769531	0.003418	-0.146729	-10.488708	38.114818	14.067960
09873		-5.957414	-1.720723	7.613698	0.039405	0.115107	0.084532	-0.767090	0.009521	-0.157959	-10.435030	38.187345	14.117028
09874		-5.945216	-1.686812	7.649643	0.047637	0.130658	0.093847	-0.762695	0.004150	-0.141602	-10.373292	38.268184	14.170953
09875		-5.935104	-1.609719	7.660113	0.052345	0.146581	0.103021	-0.765869	0.003906	-0.147461	-10.306255	38.360254	14.229458
09876		-5.960423	-1.571776	7.697691	0.060366	0.172256	0.123732	-0.763428	0.007813	-0.148682	-10.226854	38.467495	14.299851
09877		-5.918942	-1.577760	7.751401	0.060703	0.197491	0.139511	-0.760986	-0.006104	-0.146240	-10.142290	38.591827	14.378542
09878		-6.087993	-1.382831	7.712813	0.067304	0.234842	0.157733	-0.761230	0.001465	-0.150391	-10.047946	38.737622	14.466105
09879		-6.159614	-1.294251	7.680838	0.050206	0.271436	0.156001	-0.751953	0.001953	-0.153320	-9.967020	38.905106	14.548089
09880		-6.141956	-1.206150	7.694794	0.038146	0.302329	0.155166	-0.764648	0.002930	-0.152588	-9.894964	39.088539	14.626154
09881		-6.103428	-1.341625	7.714077	0.025464	0.336152	0.152085	-0.756836	0.016357	-0.160889	-9.834161	39.291999	14.698060
09882		-6.052764	-1.466376	7.702850	0.019670	0.371059	0.162961	-0.749023	0.008789	-0.156250	-9.773533	39.514861	14.774123
09883		-6.082048	-1.458788	7.721248	0.006896	0.413219	0.171703	-0.747803	0.007568	-0.155273	-9.719310	39.763602	14.851706
09884		-6.211690	-1.423092	7.590401	-0.003080	0.454732	0.186320	-0.750488	0.010254	-0.159424	-9.666215	40.035860	14.935555
09885		-6.314544	-1.326829	7.558438	-0.007197	0.490564	0.196244	-0.753662	0.014648	-0.157227	-9.613285	40.330508	15.022779
09886		-6.341778	-1.387854	7.546910	-0.021248	0.536096	0.211743	-0.745361	0.005859	-0.162109	-9.563405	40.651042	15.116689
09887		-6.431294	-1.467488	7.449304	-0.015181	0.574933	0.219715	-0.734375	0.010742	-0.164063	-9.508770	40.995454	15.212385
09888		-6.387534	-1.595932	7.365178	-0.006625	0.616446	0.265982	-0.740967	0.015381	-0.165527	-9.428231	41.366359	15.338834
09889		-6.505248	-1.967969	7.534883	-0.047320	0.645859	0.155368	-0.735352	0.012207	-0.168213	-9.427974	41.744671	15.378945
09890		-6.177984	-1.647329	7.416836	0.005382	0.720493	0.280667	-0.735107	0.022217	-0.169434	-9.339024	42.175624	15.505761
09891		-6.364629	-2.039747	7.621248	0.046404	0.798733	0.309848	-0.732666	0.018066	-0.168701	-9.216509	42.654533	15.646893
09892		-6.141444	-1.404624	7.671493	0.058501	0.875613	0.359530	-0.722900	0.016846	-0.174805	-9.064177	43.180008	15.819795
09893		-6.284104	-1.388109	7.826896	0.077247	0.986841	0.407991	-0.716797	0.012695	-0.169678	-8.881300	43.773520	16.020210
09894		-6.079656	-0.406745	8.067071	0.032517	1.151382	0.374145	-0.714600	0.015381	-0.171631	-8.751402	44.455692	16.178508
09895		-6.262768	-0.504267	8.106248	0.019511	1.356821	0.395919	-0.714844	0.019043	-0.180176	-8.630525	45.256884	16.332960
09896		-6.342019	-0.409486	8.092088	-0.036909	1.549529	0.414203	-0.705078	0.016602	-0.192139	-8.542933	46.167586	16.483356
09897		-6.340330	-0.387818	8.062604	-0.054972	1.758265	0.370295	-0.692383	0.006348	-0.192871	-8.506551	47.193627	16.575525
09898		-6.133453	-0.110127	8.227250	-0.089102	2.008010	0.344526	-0.685547	0.016846	-0.199951	-8.525945	48.358081	16.616823
09899		-6.191146	-0.472285	8.312234	-0.105410	2.290447	0.308679	-0.672607	0.024658	-0.196777	-8.605913	49.680264	16.589717
09900		-5.829567	-1.041739	8.012913	-0.118359	2.572566	0.144928	-0.662598	0.009766	-0.202393	-8.840218	51.147194	16.372310
09901		-5.825400	-0.863888	8.023388	-0.079750	2.919737	0.334455	-0.640869	0.006836	-0.219727	-8.970461	52.827523	16.263815
09902		-5.831321	-0.799261	8.013738	-0.098363	3.241211	0.457209	-0.625977	0.013672	-0.227539	-9.065920	54.700134	16.214017
09903		-6.105799	-0.661942	8.065142	-0.046617	3.585852	0.555810	-0.605957	0.007324	-0.230713	-9.102011	56.776865	16.201470
09904		-5.840155	-0.730022	8.323874	0.022524	3.927672	0.644365	-0.592285	0.013916	-0.243896	-9.068646	59.054750	16.224342
09905		-5.337310	-0.692122	8.998117	0.017869	4.315973	0.770516	-0.572998	0.007813	-0.246582	-8.967399	61.563589	16.327862
09906		-5.832740	-1.231764	8.231590	-0.046888	4.840594	0.876488	-0.544434	0.003906	-0.262207	-8.857157	64.378785	16.480531
09907		-8.497200	-2.131184	8.688262	-0.249733	5.668970	0.853233	-0.506104	0.005371	-0.256836	-9.043058	67.660234	16.432508
09908		-7.516244	-2.787685	8.153358	-0.411649	6.075569	1.026525	-0.488770	0.000488	-0.266113	-9.192543	71.187927	16.523654
09909		-10.725139	-4.467971	7.020228	-0.462360	6.406293	1.345459	-0.444824	0.012451	-0.263916	-8.835524	74.930358	17.172352
09910		-13.937421	-3.794613	6.326597	-0.466000	6.523580	1.635622	-0.399170	-0.003174	-0.258545	-7.373317	78.760709	18.946154
09911		-16.495745	-3.220154	5.908018	-0.558944	6.547890	1.891207	-0.368408	-0.013672	-0.245117	-3.211323	82.595181	23.484736
09912		-17.974934	-2.601786	6.127134	-0.506208	6.461665	2.172104	-0.319336	-0.009277	-0.244629	12.215688	86.219359	39.267246
09913		-17.054247	-2.693836	6.850397	-0.542772	6.325781	2.234481	-0.273682	-0.024658	-0.229492	87.672122	87.928200	115.099855
09914		-15.470967	-2.576641	6.587205	-0.683157	6.212222	2.111942	-0.231445	-0.039551	-0.210205	136.328609	85.227667	164.212069
09915		-14.074104	-1.223631	6.544790	-0.992346	6.056254	1.892663	-0.193848	-0.037109	-0.184082	147.167884	81.817712	175.686515
09916		-11.038117	-0.063463	6.200427	-1.501844	5.922308	1.629702	-0.153076	-0.060059	-0.170166	151.598394	78.419622	-178.946101
09917		-9.172469	0.351644	6.194910	-2.188612	5.641489	1.368427	-0.126221	-0.065918	-0.134033	153.695613	75.191934	-175.506575
09918		-6.309197	0.620953	5.295024	-2.961694	5.464794	1.173116	-0.082031	-0.076416	-0.107910	154.579813	72.082129	-172.818182
09919		-5.675536	1.881634	6.639829	-3.636260	5.329562	1.112704	-0.059814	-0.082520	-0.077393	154.571679	69.055800	-170.619408
09920		-21.337750	1.390916	10.734124	-4.389761	4.591232	0.893933	-0.038818	-0.091553	-0.041748	153.726632	66.466643	-168.816242
09921		-23.506180	-5.351569	14.200857	-4.608314	2.122778	0.422354	-0.014404	-0.093994	-0.014160	151.840285	65.281090	-167.991628
09922		-16.879155	-8.441284	12.391385	-4.357145	-0.072367	0.040115	-0.000732	-0.108887	0.012939	149.249163	65.307277	-168.097011
09923		-13.514429	-11.388536	10.920157	-3.445535	-1.822547	-0.311038	0.012451	-0.119385	0.023682	146.364846	66.294387	-169.096612
09924		-10.101563	-11.917861	8.864498	-2.129377	-2.968568	-0.643759	0.023193	-0.127197	0.029541	143.539541	67.899825	-170.840127
09925		-8.070975	-10.317078	7.447259	-0.817387	-3.650273	-0.976777	0.029785	-0.138184	0.026367	140.885849	69.905878	-173.184040
09926		-7.092685	-8.021912	6.576385	0.161600	-4.127136	-1.275419	0.046631	-0.158447	0.019775	138.114360	72.180015	-176.212850
09927		-6.145386	-5.827834	6.045437	0.773889	-4.489848	-1.575008	0.045410	-0.167236	0.010010	134.781698	74.678352	179.846521
09928		-5.100222	-4.064034	5.479879	1.079713	-4.790721	-1.829316	0.052734	-0.174072	-0.007568	130.097909	77.307243	174.382036
09929		-4.053238	-2.212269	4.705093	1.139234	-4.947772	-2.057943	0.051758	-0.178711	-0.026123	122.855764	79.957579	166.330029
09930		-3.317905	-0.754258	4.124992	0.990119	-4.928279	-2.244232	0.058594	-0.174072	-0.054199	110.890291	82.394840	153.649988
09931		-3.718759	0.549805	4.097029	0.681277	-4.742847	-2.447876	0.051270	-0.177734	-0.066406	90.356971	84.312784	132.589290
09932		-5.227432	1.301874	4.226921	0.255450	-4.573261	-2.701395	0.045166	-0.162354	-0.083740	58.234432	85.122402	100.189615
09933		-6.161457	0.738192	4.434666	-0.123681	-4.489251	-2.935473	0.040283	-0.168945	-0.099854	25.544597	84.289724	67.437871
09934		-6.976954	-0.799229	4.608323	-0.256727	-4.456682	-3.052329	0.034424	-0.151611	-0.112793	5.258260	82.257248	47.164002
09935		-7.919611	-2.164907	5.031992	-0.112596	-4.493889	-3.027400	0.022705	-0.139160	-0.134033	-5.683732	79.650523	36.151793
09936		-8.545906	-2.659940	5.348295	0.218212	-4.579944	-2.924238	0.010742	-0.133057	-0.159668	-11.601979	76.797751	29.979623
09937		-9.112405	-2.413040	5.587259	0.549904	-4.696600	-2.784121	-0.006836	-0.130371	-0.177246	-14.861160	73.797069	26.284174
09938		-9.496876	-1.585232	5.778676	0.759950	-4.807576	-2.670224	-0.023682	-0.119873	-0.194580	-16.677874	70.727578	23.919268
09939		-9.399281	-0.893280	5.946130	0.806147	-4.842901	-2.604798	-0.043945	-0.112549	-0.208252	-17.799903	67.619926	22.223664
09940		-9.514701	-0.814449	6.188801	0.747400	-4.777143	-2.557682	-0.072998	-0.116455	-0.218506	-18.576543	64.559896	20.904879
09941		-10.022174	-1.310215	6.770029	0.698060	-4.659543	-2.524138	-0.084229	-0.111816	-0.235352	-19.167066	61.550645	19.792511
09942		-11.010475	-2.113922	7.466707	0.697895	-4.561246	-2.521161	-0.111572	-0.111572	-0.247803	-19.620046	58.603766	18.807482
09943		-12.027398	-2.762492	8.172712	0.739019	-4.488903	-2.548666	-0.133301	-0.110596	-0.260498	-19.971817	55.673894	17.883113
09944		-13.024880	-3.480289	8.812117	0.859269	-4.469006	-2.565213	-0.150635	-0.119629	-0.263916	-20.169959	52.762421	17.030816
09945		-13.732992	-3.877563	9.209035	1.008617	-4.477433	-2.563730	-0.173828	-0.125977	-0.268799	-20.204393	49.832351	16.244407
09946		-14.175463	-4.063128	9.587405	1.141661	-4.489956	-2.525181	-0.196533	-0.136475	-0.285156	-20.077134	46.916932	15.538174
09947		-14.648150	-4.093911	9.993310	1.202275	-4.481881	-2.437533	-0.213135	-0.143555	-0.297119	-19.828552	44.011303	14.918458
09948		-15.307360	-4.259221	10.334432	1.167689	-4.475567	-2.292674	-0.235107	-0.160156	-0.302246	-19.499076	41.152506	14.414988
09949		-16.125506	-4.518619	10.577344	1.044255	-4.488010	-2.095647	-0.258301	-0.164795	-0.312256	-19.132576	38.313690	14.050038
09950		-17.219804	-5.209833	10.388089	0.836178	-4.537325	-1.817180	-0.282471	-0.179199	-0.320557	-18.755593	35.514765	13.878128
09951		-18.383823	-5.685081	9.328105	0.537549	-4.639333	-1.501946	-0.301270	-0.186279	-0.329590	-18.423600	32.706606	13.918678
09952		-19.070454	-5.028412	7.294549	0.118085	-4.714263	-1.243649	-0.335205	-0.187744	-0.327393	-18.247388	29.916433	14.125402
09953		-18.910690	-2.369294	4.757577	-0.508084	-4.621190	-1.145214	-0.357422	-0.197266	-0.332764	-18.422568	27.183430	14.366540
09954		-18.565213	0.870489	1.794184	-1.374116	-4.316815	-1.267332	-0.376221	-0.192871	-0.335205	-19.154314	24.605978	14.491580
09955		-18.749223	2.313417	-1.746934	-2.187496	-3.820808	-1.516683	-0.408447	-0.189209	-0.331299	-20.439470	22.240363	14.410752
09956		-19.243123	1.263422	-5.531269	-2.451579	-3.200712	-1.726269	-0.426025	-0.179199	-0.328125	-21.942489	20.171108	14.136305
09957		-20.490273	-0.628383	-8.966243	-1.909569	-2.556160	-1.731541	-0.442139	-0.176758	-0.326416	-23.159576	18.428699	13.763180
09958		-21.698541	0.187441	-12.262585	-0.849948	-1.990690	-1.504277	-0.456299	-0.175049	-0.334473	-23.752060	17.037531	13.413383
09959		-22.154504	4.336007	-14.909338	0.064677	-1.467807	-1.156024	-0.461426	-0.177246	-0.328369	-23.793514	15.994070	13.137450
09960		-22.033107	7.888254	-16.266498	0.438425	-0.853333	-0.713210	-0.470947	-0.186279	-0.337891	-23.590175	15.380401	12.956457
09961		-22.173301	8.790823	-15.803241	0.400816	-0.168010	-0.194545	-0.467773	-0.182861	-0.333496	-23.377441	15.243644	12.893204
09962		-20.504739	0.778924	-16.759190	0.832376	0.966363	0.501320	-0.458984	-0.193115	-0.340820	-22.885498	15.863864	12.945212
09963		-8.404655	5.892477	-9.162975	1.500236	2.300450	1.702089	-0.442139	-0.198486	-0.349121	-21.905918	17.452683	13.365314
09964		-7.742358	-1.141955	19.556148	0.846614	2.875612	0.927025	-0.424072	-0.197754	-0.353027	-21.456708	19.178073	13.247657
09965		2.404626	-16.189932	30.482005	0.675330	1.557738	0.376796	-0.400146	-0.190430	-0.364746	-21.112544	20.087324	13.120554
09966		6.207584	-6.579393	12.300990	0.882982	1.874075	0.163164	-0.398193	-0.199707	-0.364746	-20.715541	21.121797	12.807993
09967		1.427943	2.398122	1.417935	0.641745	3.569792	-0.111711	-0.372559	-0.206055	-0.373291	-20.664218	23.010488	11.966680
09968		-10.387836	6.472875	6.521723	0.269090	4.646411	-0.346757	-0.344238	-0.200684	-0.386230	-21.017039	25.426000	10.728366
09969		-16.276283	6.875538	15.479535	-0.267445	4.318757	-0.210554	-0.316650	-0.205811	-0.383545	-21.674904	27.685079	9.599270
09970		-13.776607	5.381122	15.287870	-0.620425	3.517908	0.479949	-0.293701	-0.199219	-0.393799	-22.300718	29.655200	9.033716
09971		-14.839476	-4.860872	10.119539	-0.654265	2.852855	1.103344	-0.264160	-0.195068	-0.387939	-22.696512	31.406390	8.989940
09972		-13.231789	-15.108245	2.983524	-0.300379	2.440518	0.934007	-0.250488	-0.192139	-0.396240	-22.895823	32.901016	8.936819
09973		-14.923998	-9.897884	5.814666	0.244425	2.204439	0.779894	-0.238770	-0.190674	-0.396973	-22.805088	34.238382	8.846443
09974		-14.165174	-1.633880	9.740990	0.387350	1.259670	0.810873	-0.225098	-0.197510	-0.397705	-22.475303	35.081528	9.034181
09975		-9.245572	-4.675933	6.746433	0.378475	0.754412	0.663541	-0.218262	-0.205078	-0.391357	-22.122514	35.626350	9.268390
09976		-8.504140	-4.770186	6.635213	0.547316	0.723011	0.570075	-0.217041	-0.195801	-0.395264	-21.697984	36.130704	9.455846
09977		-8.772044	-1.546769	8.486802	0.552661	0.498422	0.539751	-0.209717	-0.208740	-0.398193	-21.244041	36.510547	9.687216
09978		-7.966341	-3.037103	7.856137	0.488088	0.248190	0.465773	-0.209473	-0.208740	-0.394287	-20.813555	36.737127	9.938249
09979		-7.080103	-3.204365	7.737540	0.504385	0.176011	0.420304	-0.205078	-0.204102	-0.398682	-20.379589	36.917281	10.179554
09980		-6.572817	-1.926278	8.323998	0.451959	0.115063	0.399950	-0.209717	-0.212158	-0.404297	-19.972137	37.056233	10.424591
09981		-6.164780	-2.321833	8.122438	0.373962	0.082292	0.373543	-0.201416	-0.224121	-0.399902	-19.614742	37.174112	10.661145
09982		-6.309681	-2.944518	7.751557	0.339924	0.070606	0.368208	-0.201660	-0.219482	-0.406982	-19.275442	37.280484	10.898280
09983		-6.553731	-2.780202	7.748222	0.328248	0.053342	0.367290	-0.200928	-0.218506	-0.404297	-18.940471	37.379243	11.139821
09984		-6.364107	-2.069003	7.781214	0.290302	0.041497	0.343139	-0.199463	-0.227051	-0.402344	-18.633962	37.463024	11.368731
09985		-6.320938	-1.881088	7.807825	0.236710	0.050412	0.297630	-0.196777	-0.218994	-0.398926	-18.378323	37.545524	11.565090
09986		-6.312127	-1.997805	7.645602	0.195241	0.073711	0.250035	-0.193848	-0.229980	-0.398438	-18.168317	37.628471	11.724222
09987		-6.198635	-2.186564	7.500826	0.172788	0.100420	0.223702	-0.198730	-0.217285	-0.403320	-17.985954	37.723916	11.859738
09988		-6.075326	-2.138397	7.473587	0.163619	0.125041	0.200142	-0.197510	-0.231934	-0.394775	-17.821082	37.825245	11.974094
09989		-5.926139	-2.101964	7.541433	0.154427	0.148772	0.180233	-0.192139	-0.224365	-0.399170	-17.673181	37.938873	12.069939
09990		-5.970527	-2.133076	7.599537	0.141583	0.178463	0.162439	-0.193359	-0.229980	-0.407471	-17.543276	38.062376	12.147428
09991		-6.113313	-2.134630	7.555531	0.124656	0.206511	0.143478	-0.196289	-0.230469	-0.407959	-17.435032	38.200867	12.206084
09992		-6.282374	-2.151173	7.423187	0.115893	0.207900	0.131797	-0.197021	-0.229492	-0.400146	-17.336200	38.334981	12.256710
09993		-6.299025	-2.235106	7.249272	0.112363	0.200363	0.143809	-0.188721	-0.230957	-0.403809	-17.233254	38.470003	12.317789
09994		-6.315188	-2.501810	7.085335	0.132815	0.167507	0.167476	-0.191895	-0.232178	-0.395752	-17.103034	38.587887	12.402948
09995		-6.382589	-2.771411	6.914566	0.178496	0.117261	0.200482	-0.191895	-0.235107	-0.405029	-16.925431	38.686680	12.522605
09996		-6.395502	-2.824144	6.914357	0.237760	0.050005	0.232719	-0.193848	-0.238281	-0.405029	-16.689833	38.750505	12.679754
09997		-6.346759	-2.666695	6.952763	0.284036	-0.009929	0.247031	-0.188965	-0.243896	-0.396973	-16.413666	38.786322	12.859987
09998		-6.290826	-2.513005	7.036000	0.322947	-0.045633	0.259376	-0.189941	-0.251465	-0.401123	-16.104391	38.800641	13.056574
09999		-6.193134	-2.239355	7.138770	0.359478	-0.074004	0.250488	-0.187012	-0.240234	-0.394531	-15.775007	38.800229	13.252678
10000		-6.267745	-1.995704	7.235981	0.384514	-0.073302	0.266305	-0.185059	-0.243164	-0.401611	-15.423804	38.798581	13.459856
10001		-6.326287	-1.906318	7.347243	0.357476	-0.080783	0.239362	-0.184570	-0.240479	-0.395020	-15.099740	38.790953	13.649309
10002		-6.305885	-1.475166	7.436881	0.327530	-0.081140	0.241560	-0.180908	-0.249756	-0.404785	-14.791354	38.779467	13.840320
10003		-6.340587	-1.516555	7.450692	0.295418	-0.073124	0.241107	-0.185059	-0.249268	-0.400391	-14.503063	38.774773	14.029432
10004		-6.359889	-1.592017	7.457812	0.245869	-0.073061	0.205705	-0.192139	-0.255859	-0.400879	-14.258540	38.761202	14.193245
10005		-6.325111	-1.775201	7.529568	0.220870	-0.073619	0.200410	-0.187988	-0.255127	-0.399902	-14.031127	38.749263	14.353350
10006		-6.331516	-1.969028	7.532986	0.190995	-0.088195	0.162566	-0.193848	-0.254395	-0.399902	-13.835823	38.720327	14.488870
10007		-5.890748	-1.750879	7.490957	0.157031	-0.086942	0.145487	-0.195313	-0.253662	-0.404785	-13.668265	38.692642	14.611899
10008		-6.081941	-1.875151	7.535485	0.163247	-0.055213	0.180187	-0.195801	-0.267822	-0.403320	-13.484839	38.683788	14.753987
10009		-6.031965	-1.926724	7.554159	0.180758	-0.036605	0.179602	-0.197021	-0.261475	-0.395020	-13.294000	38.688056	14.892543
10010		-6.110425	-1.750382	7.588779	0.174905	-0.012616	0.190626	-0.193115	-0.266113	-0.412598	-13.103719	38.703598	15.034888
10011		-6.065148	-1.600004	7.677297	0.164953	0.027159	0.192878	-0.187256	-0.258545	-0.405762	-12.922456	38.744444	15.172485
10012		-6.056296	-1.585347	7.660094	0.143274	0.062681	0.186088	-0.195801	-0.266113	-0.409668	-12.759715	38.800778	15.299555
10013		-6.080801	-1.576783	7.685359	0.132891	0.099842	0.176967	-0.188232	-0.267578	-0.396240	-12.610772	38.879609	15.414515
10014		-5.944427	-1.631708	7.641987	0.114504	0.143962	0.185653	-0.187744	-0.270508	-0.402588	-12.472194	38.980829	15.528932
10015		-5.851626	-1.896634	7.669562	0.113775	0.185346	0.191780	-0.185791	-0.258545	-0.406738	-12.335153	39.108855	15.641841
10016		-5.914162	-1.970326	7.634919	0.114866	0.236327	0.217362	-0.175049	-0.268555	-0.400879	-12.189995	39.265213	15.765713
10017		-5.913872	-1.795375	7.598614	0.116134	0.289677	0.238835	-0.185547	-0.264893	-0.406738	-12.038974	39.456843	15.897791
10018		-5.932207	-1.883065	7.579823	0.118895	0.339295	0.260523	-0.185303	-0.271240	-0.405518	-11.879873	39.675532	16.038932
10019		-6.029531	-1.815976	7.585022	0.117604	0.390563	0.280290	-0.177246	-0.263428	-0.394531	-11.716314	39.927980	16.188068
10020		-6.181492	-1.665387	7.529673	0.110958	0.444635	0.295000	-0.173340	-0.267822	-0.399658	-11.553067	40.209147	16.341240
10021		-6.130188	-1.877906	7.577509	0.109332	0.500226	0.312243	-0.172119	-0.274414	-0.398926	-11.386480	40.526111	16.500630
10022		-6.228965	-2.040165	7.495072	0.109185	0.560130	0.334770	-0.171387	-0.270020	-0.400146	-11.212537	40.875944	16.669785
10023		-6.328280	-2.153895	7.671583	0.023007	0.612345	0.180733	-0.171387	-0.271973	-0.405273	-11.166830	41.240656	16.718267
10024		-6.118205	-2.071555	7.670021	0.081486	0.737670	0.340964	-0.156738	-0.267090	-0.401611	-11.018849	41.690530	16.869614
10025		-6.184750	-2.052857	7.706158	0.112555	0.875506	0.395294	-0.146973	-0.274170	-0.398926	-10.836584	42.226346	17.044810
10026		-6.133441	-1.808355	7.958689	0.136809	1.041945	0.439543	-0.145996	-0.275635	-0.395752	-10.629323	42.857305	17.233823
10027		-6.234688	-1.497768	8.140824	0.175348	1.221724	0.459382	-0.141113	-0.283203	-0.398926	-10.402314	43.593796	17.417676
10028		-5.707517	0.072292	8.702463	0.167687	1.467820	0.438643	-0.133545	-0.281006	-0.393555	-10.208679	44.463677	17.556489
10029		-5.793780	-0.717097	8.530670	0.020974	1.785230	0.474415	-0.115479	-0.273193	-0.398438	-10.105812	45.518447	17.683964
10030		-6.099622	-0.497236	8.536051	0.016304	2.077689	0.464952	-0.109131	-0.280762	-0.390625	-10.035996	46.734593	17.766357
10031		-5.509544	-0.217721	8.977915	-0.033950	2.419516	0.446367	-0.083008	-0.272949	-0.392090	-10.040219	48.143978	17.785915
10032		-5.514104	-0.524951	8.751920	-0.060476	2.803968	0.412951	-0.076172	-0.282715	-0.380371	-10.125874	49.764621	17.716870
10033		-5.230673	-1.029447	8.623809	-0.092923	3.170022	0.360134	-0.054199	-0.285400	-0.385986	-10.320009	51.588082	17.533548
10034		-5.009039	-0.555774	8.941661	-0.109256	3.605682	0.530226	-0.025879	-0.274170	-0.369873	-10.474564	53.672384	17.416515
10035		-5.420623	-0.503121	9.051719	-0.100818	4.067461	0.677382	-0.002441	-0.282471	-0.365234	-10.589907	56.033466	17.344866
10036		-4.996212	-1.485158	9.310027	-0.006137	4.563597	0.839226	0.032227	-0.290527	-0.354492	-10.600349	58.689550	17.335368
10037		-4.597692	-2.560180	9.726334	0.057279	5.059819	1.092082	0.062500	-0.292480	-0.340576	-10.409631	61.652411	17.516033
10038		-5.755426	-3.499721	9.598237	0.028998	5.843494	1.344059	0.087158	-0.291504	-0.324219	-10.061029	65.081545	17.886052
10039		-7.936074	-3.707396	9.442178	-0.171904	6.579519	1.523366	0.131104	-0.293457	-0.304443	-9.644687	68.942568	18.443833
10040		-9.387335	-3.407925	8.959228	-0.394022	7.019221	1.794239	0.159424	-0.310303	-0.279297	-8.783020	73.074631	19.592072
10041		-13.726866	-3.186556	7.404333	-0.662130	7.304128	2.039124	0.203613	-0.309570	-0.239258	-6.931099	77.377434	21.897076
10042		-18.278457	-3.467717	5.736839	-0.804466	7.279789	2.204066	0.238525	-0.326416	-0.211426	-2.410034	81.638733	26.959303
10043		-20.541361	-3.114513	6.313095	-0.663314	6.975534	2.454323	0.264404	-0.337891	-0.182617	13.002714	85.521361	42.840559
10044		-18.597051	-1.811187	6.471236	-0.565600	6.623461	2.467449	0.291260	-0.339600	-0.159668	76.382968	87.522900	106.630822
10045		-15.313689	-1.928243	6.418292	-0.634525	6.338886	2.341100	0.321533	-0.361328	-0.116455	128.791901	85.177117	159.485389
10046		-13.049933	-1.909775	6.507873	-0.827540	6.110001	2.089163	0.335938	-0.364502	-0.084961	142.327506	81.814650	173.578059
10047		-9.908283	-0.425915	7.345100	-1.227635	5.945227	1.785879	0.347168	-0.370117	-0.057373	147.965677	78.433414	-179.989084
10048		-6.816788	0.804496	6.838573	-1.876493	5.642947	1.523801	0.368408	-0.373047	-0.028320	150.711120	75.206526	-176.067551
10049		-3.365585	1.123990	5.271507	-2.561680	5.528144	1.359377	0.393066	-0.374756	0.009766	152.067953	72.057510	-173.125856
10050		-3.997681	3.176280	5.951232	-3.217253	5.584226	1.279418	0.400391	-0.376465	0.041016	152.575621	68.884516	-170.632941
10051		-21.857351	-0.661852	10.586262	-3.889900	5.157764	0.854366	0.409180	-0.382080	0.057617	152.571439	66.041853	-168.226143
10052		-21.026941	-6.201604	12.246146	-4.083207	3.032437	0.266828	0.418457	-0.376709	0.074219	151.692827	64.435886	-166.618503
10053		-17.751897	-10.242652	11.462403	-3.643425	0.937444	-0.196818	0.425049	-0.369629	0.073730	150.341552	64.029426	-165.802675
10054		-14.821516	-13.176853	10.530755	-2.413118	-1.025107	-0.695614	0.422852	-0.353516	0.060059	149.051918	64.738943	-165.700734
10055		-11.776758	-12.070489	9.017619	-0.901840	-2.507757	-1.105043	0.422607	-0.339600	0.034424	148.069251	66.306450	-166.214876
10056		-9.475921	-9.256803	7.887413	0.364308	-3.525795	-1.448066	0.413330	-0.335938	0.007080	147.363842	68.458729	-167.206194
10057		-8.022107	-6.698772	6.882479	1.220557	-4.245813	-1.763666	0.408447	-0.321289	-0.027344	146.768777	71.063414	-168.587985
10058		-7.459455	-4.646432	6.140972	1.701048	-4.766641	-2.016556	0.384766	-0.312500	-0.069580	145.985223	73.978817	-170.432022
10059		-6.570189	-2.782689	5.170363	1.865678	-5.191587	-2.167515	0.373535	-0.297119	-0.091553	144.405362	77.145615	-173.168722
10060		-6.022302	-1.555332	4.418344	1.799995	-5.517242	-2.234833	0.353516	-0.285400	-0.144287	140.871356	80.438720	-177.822199
10061		-5.550579	-0.677905	3.661470	1.632027	-5.746954	-2.251214	0.327637	-0.277832	-0.185791	132.172484	83.742000	172.453479
10062		-4.735425	0.883960	3.297937	1.306182	-5.759508	-2.261343	0.304199	-0.271484	-0.217773	106.089672	86.556617	145.535849
10063		-4.993937	2.056794	3.222238	0.793504	-5.602031	-2.323331	0.276367	-0.254639	-0.258057	41.349558	87.005410	80.257462
10064		-5.744515	2.190709	3.068367	0.231603	-5.386814	-2.431104	0.243652	-0.251709	-0.282715	6.422760	84.633091	45.116126
10065		-6.067424	1.151178	3.023042	-0.192673	-5.162263	-2.521639	0.214355	-0.241211	-0.316895	-5.877682	81.648700	32.841363
10066		-6.409161	-0.787487	3.176899	-0.305102	-4.964237	-2.534716	0.170654	-0.227783	-0.342529	-11.777234	78.608768	27.031737
10067		-7.132293	-2.613833	3.558931	-0.085256	-4.822654	-2.439503	0.138672	-0.228271	-0.356201	-14.972685	75.578696	23.803035
10068		-8.044953	-3.544421	4.133784	0.333177	-4.744801	-2.304600	0.102295	-0.226318	-0.372314	-16.630131	72.600671	21.880564
10069		-9.169570	-3.572623	4.912732	0.751581	-4.735015	-2.202071	0.062500	-0.226318	-0.393311	-17.402563	69.619420	20.607675
10070		-9.904616	-3.005270	5.697846	1.034139	-4.749456	-2.185543	0.026367	-0.227783	-0.413086	-17.729148	66.644938	19.616344
10071		-10.625315	-2.055686	6.562483	1.090147	-4.760266	-2.280158	-0.004395	-0.235352	-0.418457	-17.980503	63.630225	18.649472
10072		-10.986863	-1.992970	7.139175	0.990842	-4.746816	-2.432134	-0.045410	-0.239258	-0.423828	-18.307730	60.609602	17.636006
10073		-11.456922	-2.770225	7.637659	0.907744	-4.701985	-2.579782	-0.087158	-0.251465	-0.437256	-18.697353	57.567420	16.574156
10074		-12.128168	-3.671061	8.197493	0.924901	-4.634797	-2.681653	-0.114258	-0.262695	-0.450439	-19.045594	54.555507	15.514582
10075		-13.105011	-4.316871	8.773169	1.037342	-4.575741	-2.736377	-0.148926	-0.255127	-0.447998	-19.272576	51.546050	14.485029
10076		-14.107280	-4.715660	9.331599	1.189916	-4.541361	-2.754525	-0.183838	-0.265381	-0.451416	-19.337192	48.566498	13.510218
10077		-15.066241	-4.883674	9.923406	1.327850	-4.537935	-2.724561	-0.223633	-0.280273	-0.459473	-19.233591	45.578490	12.610473
10078		-16.024460	-4.845089	10.531544	1.385997	-4.548894	-2.652889	-0.248535	-0.297119	-0.453613	-18.999652	42.616042	11.803945
10079		-17.270457	-4.779949	10.992834	1.333454	-4.603587	-2.543223	-0.285400	-0.295898	-0.447998	-18.692251	39.631220	11.107099
10080		-17.860250	-5.208883	10.853900	1.197355	-4.706671	-2.369441	-0.316650	-0.306396	-0.449707	-18.340755	36.640886	10.563554
10081		-18.187424	-6.120255	9.940819	1.029227	-4.801215	-2.081692	-0.354980	-0.320313	-0.438477	-17.942811	33.638340	10.227538
10082		-18.524981	-6.429883	8.296297	0.806477	-4.864654	-1.677075	-0.372070	-0.337646	-0.427734	-17.519249	30.688760	10.152998
10083		-19.162516	-4.682260	6.203261	0.378594	-4.846164	-1.315909	-0.418457	-0.325195	-0.426758	-17.238684	27.797951	10.281053
10084		-19.621191	-0.350036	4.035400	-0.486155	-4.715091	-1.176653	-0.446777	-0.338379	-0.412598	-17.434388	25.016106	10.464973
10085		-19.581497	3.433830	1.142688	-1.768567	-4.451779	-1.308662	-0.467773	-0.321045	-0.398438	-18.414927	22.344907	10.545401
10086		-18.935306	4.030833	-3.144736	-2.880914	-3.998746	-1.573317	-0.502930	-0.303955	-0.393066	-20.100283	19.882743	10.446775
10087		-18.275882	1.659942	-7.377361	-3.147366	-3.310295	-1.723233	-0.519775	-0.288818	-0.371338	-21.983939	17.747406	10.195445
10088		-18.619233	-0.658538	-10.762666	-2.424030	-2.538801	-1.567710	-0.536377	-0.277588	-0.374756	-23.451850	16.056962	9.920256
10089		-19.733077	0.255514	-13.235770	-1.164128	-1.853031	-1.185264	-0.553223	-0.274658	-0.365479	-24.170807	14.803808	9.723342
10090		-20.354751	4.022395	-14.781155	-0.108324	-1.277473	-0.700129	-0.552979	-0.287598	-0.356445	-24.247756	13.970016	9.659115
10091		-19.099400	6.698547	-14.982845	0.356451	-0.658218	-0.112320	-0.553223	-0.274902	-0.348389	-24.019507	13.595219	9.760544
10092		-18.347823	6.946195	-13.110599	0.306349	0.055150	0.537946	-0.560059	-0.281738	-0.357666	-23.776625	13.747227	10.040980
10093		-19.229477	4.669457	-10.050126	0.028153	0.659726	1.064641	-0.560303	-0.285889	-0.344238	-23.658149	14.337509	10.463337
10094		-10.324484	-8.233357	-5.301719	0.661466	1.431580	1.405814	-0.559814	-0.283936	-0.358154	-23.167397	15.408494	10.894488
10095		-2.575654	-5.275555	9.668618	1.381433	2.277059	1.978865	-0.541260	-0.280762	-0.361816	-22.217705	17.050694	11.463108
10096		-1.388186	-9.612709	25.015853	0.966753	1.979606	0.769874	-0.540039	-0.283691	-0.366699	-21.666278	18.265721	11.451314
10097		9.788651	-16.797877	16.059165	1.038231	1.612585	0.145578	-0.520752	-0.293213	-0.367676	-21.159130	19.156848	11.180427
10098		4.830713	-2.814159	2.757406	1.312894	3.031012	-0.065247	-0.504395	-0.302002	-0.370361	-20.642241	20.763965	10.487774
10099		-2.745783	2.543191	2.992919	1.085020	4.617445	-0.306475	-0.482910	-0.311768	-0.388916	-20.462109	23.178396	9.311808
10100		-16.833455	8.135429	11.790803	0.574035	4.733876	-0.396720	-0.460205	-0.316406	-0.394775	-20.659461	25.636264	8.035862
10101		-12.594834	11.113317	14.520525	0.022720	3.987256	0.120995	-0.435791	-0.311279	-0.398682	-21.022050	27.795762	7.201721
10102		-8.914731	10.181541	13.504227	-0.527781	3.600361	1.186098	-0.419189	-0.312012	-0.406982	-21.383580	29.962849	7.077153
10103		-13.569187	-4.569589	11.571159	-0.522117	3.204364	2.082205	-0.392334	-0.305908	-0.410889	-21.413690	32.108077	7.596168
10104		-11.429551	-21.634510	3.104708	0.197275	2.632790	2.035651	-0.382324	-0.308594	-0.411621	-20.944692	33.934160	8.247302
10105		-14.616041	-16.158707	1.933784	1.203043	2.650750	1.827222	-0.365723	-0.298096	-0.417480	-19.939422	35.724079	8.799993
10106		-23.330494	1.360511	10.824510	1.580126	1.377230	1.789045	-0.362549	-0.319092	-0.411865	-18.511057	36.804686	9.682266
10107		-13.228989	0.584089	8.687066	1.179052	0.099675	1.378208	-0.364990	-0.318848	-0.417480	-17.281613	37.104283	10.604165
10108		-9.812343	-2.738876	9.072620	1.048565	0.030657	0.953939	-0.359131	-0.323486	-0.408203	-16.284068	37.276755	11.258755
10109		-8.012105	2.793361	8.694354	0.757740	-0.351239	0.677144	-0.371826	-0.336426	-0.408936	-15.522240	37.192599	11.800408
10110		-7.543159	-2.298755	7.703384	0.609410	-0.317080	0.491449	-0.370850	-0.331787	-0.413818	-14.927657	37.088994	12.205096
10111		-6.429610	-2.668514	8.143665	0.627210	-0.295811	0.450167	-0.372803	-0.337891	-0.411621	-14.344931	36.993406	12.575406
10112		-6.155222	-1.166519	8.577726	0.544780	-0.195457	0.388234	-0.367920	-0.348633	-0.410645	-13.846455	36.936648	12.883497
10113		-5.926865	-0.704595	8.493917	0.409489	-0.089088	0.313387	-0.378906	-0.343506	-0.419189	-13.468824	36.932590	13.120881
10114		-5.965420	-0.499524	8.280426	0.268166	0.035526	0.222644	-0.376465	-0.345703	-0.409180	-13.221908	36.979484	13.274228
10115		-6.399880	-0.988960	8.111508	0.149291	0.117852	0.150873	-0.365723	-0.339600	-0.410889	-13.081398	37.067976	13.364580
10116		-6.204312	-0.887540	8.249357	0.068820	0.176000	0.087593	-0.374268	-0.346924	-0.411621	-13.018772	37.175173	13.401233
10117		-6.336207	-0.651431	8.264287	-0.034954	0.248431	0.016134	-0.367676	-0.342773	-0.413818	-13.053086	37.318995	13.376485
10118		-6.391508	-1.235588	8.044594	-0.124300	0.312026	-0.056547	-0.369385	-0.348389	-0.412354	-13.175994	37.483390	13.289613
10119		-6.225859	-1.627716	7.924065	-0.165723	0.352536	-0.097498	-0.361816	-0.346924	-0.400879	-13.344962	37.670260	13.166936
10120		-6.165081	-1.334931	7.860316	-0.198950	0.396180	-0.122233	-0.365479	-0.338623	-0.413330	-13.549143	37.872395	13.017934
10121		-6.248332	-1.266361	7.806771	-0.252365	0.429860	-0.173110	-0.360352	-0.334961	-0.411133	-13.810901	38.091332	12.826218
10122		-6.100074	-1.730464	7.728044	-0.291871	0.463796	-0.209744	-0.354980	-0.337646	-0.411377	-14.116841	38.317893	12.600201
10123		-6.066608	-2.236598	7.520939	-0.295660	0.499293	-0.211440	-0.356689	-0.334961	-0.417480	-14.431789	38.568369	12.364759
10124		-6.177028	-2.397690	7.399749	-0.274975	0.513058	-0.193114	-0.347168	-0.333984	-0.419922	-14.730782	38.822718	12.136796
10125		-6.292046	-2.461978	7.191650	-0.237025	0.501453	-0.173015	-0.350586	-0.335693	-0.419922	-15.000042	39.078091	11.923308
10126		-6.340709	-2.436463	7.149809	-0.203344	0.481041	-0.148776	-0.340332	-0.339355	-0.418457	-15.238616	39.319675	11.728468
10127		-6.440384	-2.414379	7.098535	-0.165877	0.440129	-0.122984	-0.334473	-0.328613	-0.414063	-15.440915	39.547364	11.558567
10128		-6.404790	-2.456647	6.960347	-0.126359	0.401842	-0.100478	-0.343506	-0.328125	-0.419434	-15.606619	39.751561	11.410657
10129		-6.449642	-2.550936	6.879185	-0.078651	0.355036	-0.053805	-0.330566	-0.337402	-0.413818	-15.718882	39.942279	11.304878
10130		-6.454452	-2.424501	6.847452	-0.029317	0.304858	-0.013912	-0.340820	-0.326660	-0.420898	-15.778163	40.106008	11.237146
10131		-6.403544	-2.247764	6.852567	0.004969	0.266174	0.024782	-0.334473	-0.334473	-0.420654	-15.795503	40.259830	11.205087
10132		-6.400513	-2.205436	6.913373	0.034672	0.232158	0.052393	-0.335938	-0.326904	-0.412598	-15.778032	40.393776	11.199725
10133		-6.414147	-2.005870	6.958098	0.046841	0.211722	0.072509	-0.324463	-0.340820	-0.417725	-15.741912	40.525028	11.213315
10134		-6.393587	-1.901511	6.973625	0.047090	0.190518	0.077505	-0.329346	-0.333740	-0.418457	-15.699825	40.639912	11.234884
10135		-6.404946	-1.803395	7.033114	0.038571	0.185571	0.082455	-0.330566	-0.333008	-0.424316	-15.660009	40.758271	11.261334
10136		-6.452102	-1.926345	7.088721	0.026960	0.185233	0.091073	-0.332520	-0.340088	-0.417725	-15.622031	40.872312	11.294160
10137		-6.550062	-1.879961	7.157517	0.016059	0.184904	0.085673	-0.325439	-0.337158	-0.418945	-15.593189	40.990772	11.323393
10138		-6.569499	-2.059589	7.046309	0.011652	0.178346	0.092606	-0.320557	-0.330322	-0.419189	-15.562037	41.101221	11.359028
10139		-6.605743	-2.311115	6.953814	0.025651	0.166045	0.111696	-0.327393	-0.344482	-0.412354	-15.512326	41.213237	11.411476
10140		-6.671666	-2.182830	6.906542	0.050393	0.151519	0.140329	-0.313721	-0.332764	-0.411621	-15.431899	41.316117	11.488014
10141		-6.739618	-2.331487	6.847046	0.069520	0.126489	0.158523	-0.320801	-0.330322	-0.416504	-15.328520	41.413302	11.583465
10142		-6.595651	-2.220865	6.808411	0.101442	0.095957	0.187873	-0.322021	-0.340576	-0.420166	-15.187556	41.492422	11.706979
10143		-6.513536	-2.180994	7.005192	0.124266	0.075688	0.213609	-0.326416	-0.336182	-0.428223	-15.018394	41.569403	11.854072
10144		-6.487152	-2.076978	7.000491	0.139213	0.055449	0.229089	-0.328613	-0.340576	-0.422363	-14.829388	41.631638	12.016991
10145		-6.258223	-2.369274	7.075689	0.158406	0.053436	0.265756	-0.319580	-0.341064	-0.417236	-14.611182	41.703127	12.208045
10146		-6.313742	-2.235984	7.276849	0.185392	0.076303	0.310235	-0.321289	-0.338867	-0.416992	-14.357238	41.787623	12.428294
10147		-6.545941	-1.918773	7.235097	0.180430	0.108402	0.321896	-0.313232	-0.334229	-0.421631	-14.104181	41.896256	12.652051
10148		-6.431544	-1.698732	7.381703	0.165508	0.148989	0.335844	-0.311035	-0.337646	-0.421143	-13.856103	42.023260	12.879648
10149		-6.468180	-1.695060	7.369420	0.139737	0.196494	0.330589	-0.318115	-0.338135	-0.413330	-13.630607	42.180634	13.095888
10150		-6.844821	-2.062576	7.535561	0.072156	0.244867	0.243937	-0.317139	-0.338623	-0.416260	-13.491770	42.347452	13.239252
10151		-6.242803	-1.338085	7.266663	0.027679	0.274060	0.223708	-0.314941	-0.338623	-0.421143	-13.391906	42.532912	13.363039
10152		-6.349540	-1.628985	7.333375	0.048542	0.358184	0.316203	-0.314453	-0.345703	-0.419922	-13.241280	42.771993	13.542712
10153		-6.316973	-1.689906	7.467357	0.044848	0.442070	0.339049	-0.310547	-0.346436	-0.420654	-13.089818	43.065712	13.726621
10154		-6.430236	-1.721142	7.429951	0.019275	0.512300	0.365995	-0.312256	-0.340332	-0.418701	-12.944866	43.396558	13.920553
10155		-6.467705	-1.486656	7.479576	0.011959	0.612379	0.378256	-0.300293	-0.343018	-0.423340	-12.807681	43.789615	14.108748
10156		-6.506360	-1.449417	7.565990	0.007081	0.729647	0.394176	-0.304199	-0.344971	-0.425293	-12.675802	44.244803	14.291151
10157		-6.262962	-1.437127	7.633056	-0.003091	0.855163	0.393604	-0.293213	-0.348877	-0.415771	-12.562657	44.774790	14.454183
10158		-6.325142	-1.064604	7.820466	0.032175	1.051794	0.354853	-0.285400	-0.336914	-0.422607	-12.471969	45.404766	14.554684
10159		-6.443219	-1.156733	7.788534	-0.016317	1.213345	0.340248	-0.285889	-0.342529	-0.419434	-12.435718	46.128026	14.617348
10160		-6.350342	-1.221324	7.788782	-0.024735	1.399738	0.329711	-0.273926	-0.339111	-0.425049	-12.433122	46.949479	14.638968
10161		-6.336933	-1.149968	7.822772	-0.057372	1.621061	0.323256	-0.258545	-0.338867	-0.422363	-12.482854	47.898522	14.615022
10162		-6.243430	-1.271399	7.927015	-0.071434	1.868587	0.311426	-0.245361	-0.345215	-0.421631	-12.584832	48.979954	14.532002
10163		-6.095402	-1.201458	8.041614	-0.093760	2.158300	0.345083	-0.243164	-0.342529	-0.417480	-12.725465	50.231715	14.416795
10164		-6.091159	-0.922793	8.204337	-0.123292	2.474803	0.373764	-0.218018	-0.341797	-0.425781	-12.921757	51.659457	14.253621
10165		-5.979218	-1.168198	8.012904	-0.122542	2.844429	0.419315	-0.209717	-0.337402	-0.418457	-13.160756	53.302856	14.039682
10166		-5.835367	-1.480472	7.857415	-0.085966	3.151821	0.518338	-0.190918	-0.341553	-0.414795	-13.378672	55.126315	13.830476
10167		-5.958799	-1.000070	8.193952	-0.082876	3.468733	0.635831	-0.160889	-0.340088	-0.412598	-13.582569	57.144931	13.640972
10168		-5.670909	-0.274347	8.594962	-0.034564	3.942441	0.707819	-0.138916	-0.340820	-0.407715	-13.824649	59.433230	13.378481
10169		-5.387777	-0.923835	8.409000	-0.003616	4.550462	0.764498	-0.112793	-0.343750	-0.390869	-14.187145	62.069359	12.964236
10170		-6.656063	-2.826769	9.162390	-0.001522	5.301213	0.844700	-0.084473	-0.342285	-0.394531	-14.766284	65.129034	12.317667
10171		-7.494679	-4.269226	9.197906	-0.193438	5.937884	0.838328	-0.048828	-0.341797	-0.373779	-15.886809	68.536908	11.218714
10172		-9.164073	-5.004311	8.757273	-0.317085	6.299269	1.164262	-0.006592	-0.344238	-0.370117	-17.141485	72.184853	10.078947
10173		-11.798570	-4.410562	7.395099	-0.364227	6.499982	1.491654	0.025146	-0.344727	-0.346436	-18.479480	75.990897	8.904307
10174		-15.239750	-3.037075	6.420505	-0.463445	6.581421	1.765985	0.058594	-0.352539	-0.329834	-20.086936	79.882619	7.531883
10175		-18.861673	-2.419362	5.484391	-0.665951	6.504402	1.915119	0.098633	-0.342285	-0.302734	-22.824133	83.751491	5.152493
10176		-19.371190	-2.632602	6.868154	-0.707410	6.229432	2.061938	0.119629	-0.354736	-0.284668	-30.163948	87.478143	-1.799580
10177		-16.646799	-3.487466	5.960405	-0.620460	6.024029	2.071328	0.154053	-0.352783	-0.265625	-176.351927	88.725774	-147.648800
10178		-14.040497	-1.720557	6.547471	-0.689859	5.889082	1.840069	0.178955	-0.361816	-0.237061	167.889632	85.254622	-163.026928
10179		-12.062424	-0.633481	6.524263	-1.130716	5.714366	1.571056	0.201904	-0.360107	-0.206299	166.002284	81.865799	-164.274812
10180		-9.146025	0.017543	6.467106	-1.667955	5.533825	1.334658	0.218750	-0.361572	-0.172119	165.291577	78.606878	-164.027180
10181		-5.845980	0.104041	5.646677	-2.329329	5.399238	1.150403	0.249023	-0.356201	-0.148682	164.662896	75.453576	-163.304113
10182		-4.068806	-0.193659	5.088113	-2.863224	5.395049	1.040838	0.261475	-0.352539	-0.122070	163.921724	72.318654	-162.369042
10183		-9.680441	2.841556	8.049802	-3.522749	5.293533	1.004859	0.280518	-0.338135	-0.091553	162.804183	69.254153	-161.416429
10184		-24.250632	-2.702937	13.231356	-3.923189	3.768065	0.669963	0.290039	-0.334961	-0.081055	161.298207	67.084172	-160.618281
10185		-17.767909	-5.851974	12.246737	-4.017158	1.537182	0.248716	0.291016	-0.319824	-0.067383	159.365066	66.215637	-160.218521
10186		-15.002918	-8.283675	11.498577	-3.640882	-0.304175	-0.117532	0.280273	-0.314941	-0.072266	157.268121	66.404331	-160.231566
10187		-12.338219	-10.611763	9.832970	-2.791598	-1.917811	-0.426309	0.264404	-0.299561	-0.072021	155.145002	67.519960	-160.802601
10188		-9.808862	-11.023027	7.883067	-1.652112	-3.080514	-0.662961	0.245605	-0.290527	-0.084961	153.108338	69.275491	-161.975952
10189		-8.047138	-9.995532	6.337686	-0.454636	-3.867314	-0.927416	0.226074	-0.275146	-0.108398	151.257834	71.497551	-163.665945
10190		-7.118539	-8.611077	5.115000	0.570586	-4.440638	-1.153188	0.203613	-0.284668	-0.114258	149.361160	74.036972	-165.994637
10191		-6.254399	-6.822843	4.237302	1.336501	-4.857551	-1.339954	0.177734	-0.284424	-0.136963	146.976665	76.823388	-169.251048
10192		-5.754281	-4.889601	3.577085	1.813630	-5.144787	-1.482727	0.150146	-0.287109	-0.149658	143.227085	79.730696	-174.141431
10193		-4.768984	-3.033808	3.004746	1.998354	-5.303276	-1.599465	0.124268	-0.302002	-0.154785	136.143692	82.664541	177.532938
10194		-4.221751	-0.930342	2.785481	1.849164	-5.253263	-1.739859	0.094971	-0.298584	-0.151855	120.512680	85.341609	160.755056
10195		-4.553893	0.676030	2.740046	1.445914	-5.052991	-1.963393	0.084961	-0.311279	-0.166016	80.222712	87.089790	119.556954
10196		-5.011332	1.111552	2.761464	0.934675	-4.801469	-2.209031	0.071045	-0.315674	-0.165039	26.722768	86.389017	65.445979
10197		-5.735935	0.903272	2.914152	0.451898	-4.556071	-2.419568	0.065918	-0.318604	-0.166260	2.511548	84.146024	40.897733
10198		-6.512727	-0.209141	3.282770	0.138343	-4.369156	-2.546692	0.061768	-0.315430	-0.166260	-8.061956	81.560806	30.163658
10199		-7.376063	-1.632566	3.665367	0.086517	-4.260642	-2.566527	0.053223	-0.312012	-0.173828	-13.722405	78.863534	24.369484
10200		-8.302712	-2.509265	4.104752	0.266561	-4.248741	-2.500687	0.048828	-0.311523	-0.179199	-16.889948	76.133880	20.968460
10201		-8.950898	-2.892593	4.488256	0.550609	-4.296220	-2.398187	0.049316	-0.303467	-0.194336	-18.618267	73.350798	18.848931
10202		-9.590169	-2.872695	4.962788	0.838028	-4.338852	-2.288821	0.042725	-0.302734	-0.208252	-19.444477	70.570853	17.474211
10203		-9.999359	-2.496798	5.465376	1.044994	-4.362277	-2.210823	0.039307	-0.299072	-0.200439	-19.773622	67.771521	16.479979
10204		-10.658105	-2.002999	6.157116	1.119799	-4.362050	-2.198312	0.038086	-0.299805	-0.220947	-19.893617	64.991110	15.647691
10205		-11.160047	-2.112894	6.706548	1.095375	-4.356849	-2.237167	0.031250	-0.294189	-0.237305	-19.974465	62.187346	14.855065
10206		-11.614873	-2.554526	7.205251	1.073895	-4.339903	-2.281006	0.025635	-0.289551	-0.254639	-20.027550	59.401700	14.088197
10207		-12.328657	-3.151278	7.662084	1.097952	-4.308762	-2.321793	0.015381	-0.293701	-0.273926	-20.040792	56.606446	13.328987
10208		-12.826081	-3.776564	7.949366	1.188139	-4.283772	-2.330921	0.008545	-0.284912	-0.300537	-19.952702	53.841282	12.606188
10209		-13.258018	-4.273068	8.235421	1.336536	-4.238682	-2.310246	-0.006836	-0.294434	-0.331787	-19.730306	51.087447	11.918852
10210		-14.117658	-4.403469	8.692957	1.482839	-4.205352	-2.255527	-0.007813	-0.300781	-0.357666	-19.361682	48.382428	11.287081
10211		-14.837275	-4.514701	9.178912	1.575324	-4.208364	-2.173698	-0.021240	-0.308350	-0.388916	-18.870715	45.676439	10.722227
10212		-15.865747	-4.504649	9.625603	1.580374	-4.244552	-2.068816	-0.041504	-0.323486	-0.418457	-18.301190	42.991468	10.239838
10213		-16.803423	-4.374617	9.942017	1.466673	-4.345426	-1.957007	-0.058350	-0.329834	-0.444336	-17.720848	40.257751	9.846007
10214		-17.261501	-4.506761	9.684254	1.244824	-4.465686	-1.812793	-0.094482	-0.345947	-0.479980	-17.183983	37.503262	9.563182
10215		-16.988832	-4.712750	8.993161	0.966266	-4.585470	-1.588585	-0.115723	-0.354004	-0.504883	-16.704049	34.706572	9.435787
10216		-16.489512	-4.125910	8.006182	0.575679	-4.594446	-1.327406	-0.153564	-0.356201	-0.528809	-16.357846	31.964377	9.463485
10217		-16.478349	-2.965947	6.756831	0.023179	-4.512148	-1.150005	-0.196777	-0.368652	-0.544434	-16.286785	29.281436	9.575257
10218		-16.192437	-1.139872	5.429084	-0.670138	-4.341951	-1.118123	-0.229004	-0.358398	-0.560791	-16.620042	26.711920	9.681091
10219		-15.527319	1.145279	3.944925	-1.440355	-4.057595	-1.301876	-0.265137	-0.352051	-0.571533	-17.459050	24.255967	9.648088
10220		-15.046133	1.247366	1.726299	-2.062880	-3.682790	-1.524094	-0.304199	-0.335938	-0.585449	-18.713387	21.976992	9.461388
10221		-15.205819	-0.221237	-1.241384	-2.148589	-3.245368	-1.602879	-0.328369	-0.327881	-0.587402	-20.038244	19.906067	9.197017
10222		-15.483740	-1.208500	-4.416290	-1.596146	-2.813862	-1.468289	-0.362793	-0.318359	-0.595215	-21.027181	18.099262	8.965447
10223		-15.668442	0.932500	-7.081161	-0.803537	-2.393483	-1.191360	-0.387451	-0.311523	-0.590820	-21.529434	16.564406	8.823363
10224		-15.402373	4.013887	-8.889459	-0.268195	-1.923331	-0.904336	-0.410645	-0.310791	-0.594727	-21.702709	15.347154	8.748139
10225		-14.666797	5.418446	-9.718893	-0.060000	-1.361992	-0.594986	-0.417480	-0.314209	-0.600098	-21.743389	14.489908	8.722404
10226		-14.189856	4.976167	-9.265997	-0.027701	-0.760764	-0.243177	-0.439209	-0.301270	-0.592529	-21.749161	14.031543	8.759040
10227		-14.567650	3.330308	-7.537017	-0.041774	-0.260428	0.087637	-0.434570	-0.313965	-0.609863	-21.746431	13.908437	8.867419
10228		-15.442591	0.989600	-5.546722	0.024467	0.027415	0.312428	-0.444580	-0.306641	-0.611084	-21.690627	13.987391	9.036314
10229		-14.781715	-1.617632	-4.337165	0.337121	0.157163	0.445773	-0.436523	-0.312500	-0.616211	-21.444970	14.164820	9.250597
10230		-9.829923	-2.541377	-3.424935	0.839259	0.661738	0.744377	-0.430908	-0.311279	-0.611084	-20.895109	14.670491	9.523384
10231		-4.843474	1.075167	-1.786485	0.591268	1.674520	1.577796	-0.407471	-0.315186	-0.614746	-20.416959	15.889169	10.052976
10232		0.396229	-6.918595	12.022812	0.530231	2.460820	1.099133	-0.393066	-0.317383	-0.628418	-20.080273	17.427966	10.163867
10233		1.687969	-10.780258	21.330815	0.500441	2.028140	0.830108	-0.381104	-0.324951	-0.637939	-19.776149	18.684584	10.221065
10234		5.050583	-8.971409	10.314259	0.559896	2.638188	0.375980	-0.352051	-0.328125	-0.643799	-19.560998	20.178469	9.900246
10235		0.969410	-1.814851	3.774210	0.624891	4.189835	0.215744	-0.314453	-0.316406	-0.639648	-19.470486	22.482836	9.167556
10236		-12.984978	4.938997	7.331995	0.173334	4.865870	-0.192102	-0.276611	-0.329590	-0.644287	-19.827362	25.069512	8.033642
10237		-12.086515	6.741300	12.398093	-0.107640	4.662969	0.141694	-0.239258	-0.322998	-0.653564	-20.304191	27.607925	7.099283
10238		-9.785551	5.924870	13.958921	-0.420446	4.255999	1.221063	-0.202881	-0.336670	-0.661133	-20.651204	30.135144	6.877420
10239		-14.064824	-6.118022	11.143369	-0.315669	3.837670	2.060895	-0.165527	-0.328369	-0.655273	-20.627354	32.610971	7.268248
10240		-18.232991	-20.614388	4.792257	0.342907	3.050710	1.842394	-0.138916	-0.326660	-0.659180	-20.174855	34.615291	7.728690
10241		-21.988458	-9.077838	4.744888	1.297786	2.233705	1.590012	-0.121582	-0.340332	-0.653564	-19.125898	36.130064	8.256637
10242		-22.987295	1.553285	9.706194	1.269439	0.644310	1.396991	-0.114746	-0.348145	-0.661865	-17.921400	36.732329	9.058281
10243		-9.446786	-2.352872	8.209311	0.932408	0.105561	0.957949	-0.118896	-0.356445	-0.653076	-17.006682	36.960226	9.693514
10244		-8.473657	0.362847	9.250737	0.739493	-0.060434	0.617505	-0.107666	-0.370361	-0.659912	-16.316627	37.026322	10.134383
10245		-7.517197	1.583369	8.402107	0.485814	-0.078722	0.373536	-0.120117	-0.383057	-0.665527	-15.871424	37.048063	10.411569
10246		-7.611437	-1.028442	8.019959	0.296880	-0.085473	0.175973	-0.115479	-0.378418	-0.660889	-15.614573	37.026058	10.553809
10247		-6.633286	-2.088899	8.334312	0.214119	-0.061447	0.116703	-0.121582	-0.373779	-0.659912	-15.433323	37.015957	10.650552
10248		-6.192617	-1.443982	8.372768	0.132280	-0.011267	0.084946	-0.112061	-0.382568	-0.657715	-15.317368	37.020390	10.715476
10249		-5.763324	-1.732458	8.102322	0.044052	0.062146	0.046743	-0.118652	-0.381836	-0.658447	-15.276702	37.067671	10.740385
10250		-6.236817	-1.420447	8.013620	-0.032664	0.129392	0.008183	-0.120605	-0.377197	-0.659424	-15.303293	37.138168	10.725549
10251		-6.068977	-1.923608	7.758426	-0.106636	0.163534	-0.030153	-0.109375	-0.380371	-0.657959	-15.392674	37.229755	10.677898
10252		-5.579528	-2.132937	8.098482	-0.141000	0.225834	-0.040402	-0.114258	-0.379883	-0.657959	-15.513191	37.346061	10.610543
10253		-6.075784	-1.761670	7.879543	-0.182421	0.280734	-0.061046	-0.108154	-0.376465	-0.658203	-15.673362	37.497304	10.518090
10254		-6.206104	-2.104552	7.719196	-0.202968	0.326413	-0.083781	-0.107422	-0.377930	-0.661377	-15.860764	37.662021	10.399728
10255		-6.263117	-2.146691	7.493147	-0.207537	0.353682	-0.098824	-0.093018	-0.370361	-0.652588	-16.061718	37.846974	10.264840
10256		-6.126222	-1.880696	7.639856	-0.215714	0.364515	-0.111520	-0.093262	-0.375244	-0.656494	-16.274895	38.027571	10.117383
10257		-6.221506	-1.907405	7.617369	-0.235186	0.390309	-0.136565	-0.093506	-0.365967	-0.656494	-16.514803	38.225712	9.946191
10258		-6.231883	-2.245677	7.452365	-0.240049	0.406516	-0.146889	-0.096680	-0.361084	-0.654541	-16.765158	38.422600	9.762527
10259		-6.314996	-2.497184	7.246989	-0.215541	0.406131	-0.138811	-0.088135	-0.367432	-0.656006	-16.999724	38.627853	9.583363
10260		-6.363595	-2.329825	7.220108	-0.193806	0.389732	-0.134121	-0.080322	-0.360352	-0.652344	-17.218634	38.816516	9.409207
10261		-6.377500	-2.396911	7.040580	-0.170858	0.368316	-0.121876	-0.081543	-0.365967	-0.650635	-17.417778	39.002890	9.247276
10262		-6.398250	-2.563169	6.933247	-0.136862	0.325282	-0.104121	-0.082031	-0.357910	-0.642334	-17.584182	39.160571	9.106003
10263		-6.364068	-2.679093	6.862141	-0.104343	0.291040	-0.079289	-0.070068	-0.365234	-0.648438	-17.717417	39.311428	8.989266
10264		-6.307136	-2.825427	6.830881	-0.049762	0.240882	-0.036338	-0.067139	-0.363525	-0.655273	-17.792965	39.434410	8.913425
10265		-6.220444	-2.817109	6.770132	0.002729	0.197561	0.012727	-0.071289	-0.358154	-0.654297	-17.811135	39.550150	8.881941
10266		-6.179109	-2.794899	6.845646	0.059109	0.169249	0.068464	-0.072510	-0.360107	-0.650635	-17.767080	39.652362	8.896236
10267		-6.228758	-2.724881	6.849602	0.116251	0.143110	0.133623	-0.075928	-0.362061	-0.653076	-17.657681	39.759471	8.962899
10268		-6.369688	-2.444342	6.893589	0.163566	0.118020	0.172103	-0.067871	-0.356934	-0.644775	-17.498837	39.851594	9.062952
10269		-6.470320	-2.208830	7.000485	0.182082	0.096875	0.182875	-0.073486	-0.364014	-0.655273	-17.321913	39.941585	9.175875
10270		-6.551162	-2.126489	7.010813	0.189536	0.082826	0.198441	-0.065674	-0.369629	-0.654053	-17.130225	40.018442	9.303524
10271		-6.542318	-2.039305	7.076126	0.196707	0.060072	0.199180	-0.069580	-0.366943	-0.650146	-16.931304	40.090442	9.437185
10272		-6.428955	-2.038674	7.067502	0.196218	0.049102	0.203796	-0.061279	-0.369141	-0.649902	-16.727745	40.149014	9.576944
10273		-6.327540	-2.140392	7.129942	0.192878	0.045914	0.204341	-0.063965	-0.371338	-0.653076	-16.525818	40.213364	9.718237
10274		-6.312950	-2.236131	7.211132	0.199324	0.059863	0.208435	-0.067139	-0.367432	-0.647949	-16.319045	40.277842	9.859854
10275		-6.392062	-2.336735	7.123683	0.207583	0.067377	0.221861	-0.057373	-0.379883	-0.649170	-16.102603	40.355971	10.010125
10276		-6.471917	-2.211651	7.155078	0.216745	0.071083	0.234125	-0.068359	-0.374512	-0.652588	-15.874425	40.429862	10.168943
10277		-6.586930	-2.042438	7.165353	0.215220	0.057074	0.233146	-0.064209	-0.371826	-0.650635	-15.645938	40.503130	10.330560
10278		-6.559320	-2.017969	7.206851	0.203493	0.047021	0.223638	-0.065186	-0.388184	-0.644043	-15.426142	40.561172	10.487711
10279		-6.654008	-1.821044	7.220826	0.180263	0.029917	0.208868	-0.058350	-0.384033	-0.647949	-15.224726	40.614806	10.638054
10280		-6.640528	-1.830659	7.259548	0.164154	0.016362	0.190139	-0.064697	-0.383789	-0.655029	-15.038722	40.650036	10.777605
10281		-6.645811	-1.704954	7.247217	0.142983	0.009851	0.170138	-0.070068	-0.392578	-0.649170	-14.873920	40.686090	10.904213
10282		-6.439605	-1.793320	7.298329	0.105815	0.005676	0.132510	-0.061279	-0.389160	-0.655029	-14.747075	40.706367	11.004116
10283		-6.337391	-1.825776	7.360258	0.100138	0.024834	0.138778	-0.062500	-0.395996	-0.656982	-14.623290	40.745686	11.105252
10284		-6.463721	-1.818158	7.348361	0.089907	0.044485	0.138331	-0.058838	-0.390625	-0.652344	-14.507362	40.787999	11.202254
10285		-6.525125	-1.778046	7.237945	0.082021	0.055230	0.137372	-0.063721	-0.388184	-0.644775	-14.398004	40.843606	11.296953
10286		-6.463782	-1.860706	7.206135	0.070843	0.063808	0.133237	-0.069092	-0.401123	-0.646240	-14.297451	40.895641	11.386950
10287		-6.454518	-1.833827	7.175939	0.065457	0.069654	0.127275	-0.068115	-0.392090	-0.656006	-14.203780	40.957543	11.471940
10288		-6.460796	-1.826874	7.214280	0.058629	0.075789	0.121862	-0.066895	-0.393066	-0.646240	-14.116784	41.014417	11.551724
10289		-6.433290	-1.799313	7.239629	0.051789	0.085158	0.115646	-0.054199	-0.396729	-0.651611	-14.038043	41.083075	11.625667
10290		-6.542696	-1.593989	7.291360	0.043505	0.096430	0.109579	-0.064453	-0.401367	-0.651855	-13.967795	41.149556	11.692954
10291		-6.466737	-1.673664	7.271185	0.035013	0.113385	0.105609	-0.059082	-0.398682	-0.641846	-13.906531	41.232339	11.754691
10292		-6.478682	-1.782974	7.248470	0.028212	0.127171	0.110258	-0.065186	-0.388672	-0.654541	-13.848046	41.315901	11.817216
10293		-6.506390	-1.706452	7.263640	0.021626	0.140108	0.111602	-0.065430	-0.400146	-0.649658	-13.794314	41.414220	11.878908
10294		-6.555401	-1.708190	7.182566	0.015872	0.158918	0.109421	-0.061768	-0.394287	-0.649414	-13.746723	41.515248	11.935425
10295		-6.516846	-1.757471	7.220433	0.008075	0.168062	0.108805	-0.058350	-0.396729	-0.651611	-13.705039	41.628619	11.990373
10296		-6.568559	-1.883438	7.164048	0.015769	0.180094	0.119656	-0.051758	-0.393066	-0.648193	-13.654554	41.742755	12.051085
10297		-6.567451	-1.903293	7.148151	0.025728	0.189203	0.140530	-0.059570	-0.392334	-0.650635	-13.589030	41.872048	12.126364
10298		-6.551873	-2.032072	7.131524	0.035290	0.198776	0.156341	-0.053223	-0.399414	-0.647949	-13.510664	42.001412	12.211760
10299		-6.432100	-2.042277	7.128361	0.043005	0.213496	0.178513	-0.052490	-0.396973	-0.644531	-13.418316	42.149096	12.311930
10300		-6.402609	-2.164721	7.167463	0.058640	0.244216	0.207065	-0.054199	-0.399414	-0.636719	-13.305393	42.310298	12.428356
10301		-6.352640	-2.007757	7.311388	0.059932	0.279837	0.228558	-0.049805	-0.398438	-0.644531	-13.184599	42.501172	12.555740
10302		-6.424991	-1.726012	7.369080	0.048903	0.337247	0.243098	-0.042969	-0.404541	-0.653809	-13.068237	42.718617	12.684644
10303		-6.797220	-2.225023	7.606614	0.015899	0.395261	0.229217	-0.035889	-0.406250	-0.639893	-12.984170	42.973522	12.794051
10304		-6.050826	-1.392233	7.444799	-0.032144	0.458926	0.189572	-0.040039	-0.399658	-0.649902	-12.954765	43.251762	12.862452
10305		-6.449135	-1.733948	7.562948	-0.048204	0.574868	0.198906	-0.022949	-0.396973	-0.643066	-12.943430	43.602799	12.918294
10306		-6.447576	-1.575029	7.696740	-0.039043	0.708993	0.283771	-0.025146	-0.396240	-0.639648	-12.896842	44.032714	13.016338
10307		-6.162397	-1.211414	7.968580	-0.068252	0.883982	0.303385	-0.026367	-0.405029	-0.652588	-12.876994	44.569521	13.099883
10308		-6.085171	-1.388518	8.086526	-0.076050	1.103486	0.297296	-0.009277	-0.408691	-0.636230	-12.891429	45.221457	13.139644
10309		-6.261621	-1.390632	8.133888	-0.100802	1.310137	0.305031	-0.002197	-0.405762	-0.631836	-12.942461	45.996192	13.148077
10310		-6.138180	-1.720638	8.055816	-0.086517	1.544473	0.344009	0.020508	-0.403564	-0.630371	-12.994547	46.900396	13.143124
10311		-6.174017	-1.544584	8.066366	-0.100521	1.779105	0.362772	0.029785	-0.405762	-0.629639	-13.077586	47.944019	13.107553
10312		-6.109536	-1.421241	8.039791	-0.120096	2.029066	0.374439	0.050781	-0.400146	-0.625732	-13.204488	49.122555	13.028602
10313		-5.983214	-1.590926	8.046088	-0.148940	2.285895	0.407561	0.066406	-0.398438	-0.609863	-13.372295	50.454132	12.919567
10314		-6.043155	-1.741648	8.036256	-0.122479	2.657778	0.492456	0.091797	-0.409912	-0.610840	-13.536994	51.998437	12.796962
10315		-5.925343	-1.801526	8.128211	-0.102521	3.008757	0.583591	0.107910	-0.408936	-0.593506	-13.697309	53.755336	12.668540
10316		-6.035242	-1.764407	8.390594	-0.101992	3.315190	0.683452	0.135010	-0.401855	-0.589111	-13.851951	55.691080	12.549403
10317		-6.556913	-1.779788	8.257707	-0.122506	3.641161	0.819826	0.160645	-0.414795	-0.572998	-13.986201	57.831133	12.471787
10318		-6.787332	-1.854842	8.647162	-0.152297	3.980283	0.964336	0.196777	-0.414307	-0.554688	-14.095932	60.175266	12.444339
10319		-6.843420	-2.164176	8.397636	-0.206662	4.249474	1.125985	0.226074	-0.419922	-0.539551	-14.149234	62.695196	12.517410
10320		-8.637714	-2.412489	7.166941	-0.210405	4.641916	1.262404	0.261475	-0.418701	-0.517822	-14.157281	65.448637	12.641302
10321		-9.602627	-1.984686	6.532188	-0.223129	4.860175	1.355795	0.287354	-0.427002	-0.485596	-14.104252	68.339303	12.836902
10322		-11.903268	-1.754183	6.014460	-0.275568	4.948714	1.359351	0.323242	-0.427979	-0.464844	-14.075320	71.276701	13.034783
10323		-13.919485	-1.469892	5.890041	-0.433687	4.855316	1.288245	0.351074	-0.437256	-0.444092	-14.195564	74.154782	13.168124
10324		-14.274342	-1.740040	5.497113	-0.592393	4.652847	1.306278	0.373291	-0.434814	-0.414307	-14.248129	76.920537	13.463236
10325		-13.482266	-2.386292	4.961294	-0.646888	4.467394	1.382347	0.397949	-0.438721	-0.395264	-13.900873	79.595771	14.195379
10326		-13.096080	-2.515592	3.897624	-0.705243	4.268427	1.398142	0.418701	-0.442871	-0.365234	-12.970990	82.158422	15.545067
10327		-11.251101	-2.399462	2.557652	-0.712148	4.175236	1.383136	0.447754	-0.442871	-0.330078	-10.928295	84.662673	18.010625
10328		-10.642945	-0.468163	2.376568	-0.909806	4.067416	1.263928	0.460449	-0.453125	-0.308350	-6.335498	87.075221	23.135874
10329		-9.859379	0.511461	1.813521	-1.292018	3.886751	1.148425	0.468506	-0.450684	-0.283203	24.762292	89.249420	54.983190
10330		-8.483962	0.561428	0.950782	-1.685938	3.707999	1.024187	0.490479	-0.458740	-0.258057	147.520752	88.305301	178.715898
10331		-7.505432	0.431093	0.378568	-2.016946	3.543459	0.948109	0.505371	-0.449463	-0.238281	156.328418	86.251032	-171.312084
10332		-7.026741	0.390441	0.104952	-2.235274	3.388440	0.908713	0.516113	-0.448975	-0.212891	158.251639	84.260184	-168.098568
10333		-6.489294	1.186153	0.243964	-2.453415	3.181673	0.891940	0.524414	-0.440674	-0.198486	158.498610	82.377981	-166.435714
10334		-6.640602	2.616907	0.549532	-2.796850	3.017601	0.874914	0.532227	-0.441162	-0.177490	158.039401	80.588136	-165.280794
10335		-13.855826	1.395673	1.732690	-3.183176	2.762050	0.713597	0.535400	-0.435547	-0.154297	157.423474	78.969683	-164.054423
10336		-12.581660	-0.187320	1.718335	-3.428329	1.933241	0.484522	0.548584	-0.423096	-0.147461	156.319643	77.843813	-163.177121
10337		-10.959780	-0.861147	0.831268	-3.477379	1.258323	0.330874	0.546387	-0.412842	-0.143066	154.873911	77.110614	-162.618147
10338		-11.136333	-1.715640	0.424456	-3.277873	0.568862	0.228211	0.544922	-0.403320	-0.140625	153.091305	76.761983	-162.521231
10339		-10.569623	-1.996277	-0.232357	-2.908962	-0.100515	0.176031	0.550049	-0.389404	-0.137451	150.915259	76.767610	-163.045559
10340		-9.546285	-1.940680	-0.813440	-2.419745	-0.648074	0.155130	0.542480	-0.381592	-0.153076	148.377677	77.044461	-164.228552
10341		-8.676246	-1.396763	-1.492747	-1.906431	-1.070777	0.125599	0.538086	-0.375000	-0.164063	145.519872	77.521831	-166.039598
10342		-7.615891	-0.638033	-1.930196	-1.440143	-1.323848	0.099897	0.520752	-0.364014	-0.166504	142.397560	78.102565	-168.390782
10343		-6.544806	0.477649	-2.117484	-1.081087	-1.414946	0.080280	0.513672	-0.366455	-0.185547	139.088045	78.703481	-171.138081
10344		-5.574354	1.906024	-2.182266	-0.904186	-1.353183	0.036650	0.509766	-0.363037	-0.196289	135.777757	79.260986	-173.983774
10345		-5.059051	3.021329	-2.143251	-0.917847	-1.183221	-0.033215	0.514160	-0.361084	-0.203369	132.682327	79.749099	-176.598164
10346		-5.055526	3.794644	-2.073674	-1.073069	-0.970497	-0.144208	0.502686	-0.351807	-0.215332	129.995752	80.178604	-178.703175
10347		-5.366796	4.352558	-1.825158	-1.322056	-0.749102	-0.286595	0.500488	-0.337158	-0.212646	127.855503	80.576573	179.893222
10348		-5.902651	4.487385	-1.486258	-1.617135	-0.549897	-0.438590	0.487793	-0.339844	-0.223633	126.291181	80.966836	179.246006
10349		-6.278623	4.220870	-1.077591	-1.882307	-0.404629	-0.556629	0.480713	-0.321777	-0.227051	125.174592	81.360720	179.206379
10350		-6.708582	3.680983	-0.517339	-2.065993	-0.306610	-0.624617	0.490723	-0.304932	-0.219971	124.368586	81.754548	179.587154
10351		-7.569477	3.137477	-0.025395	-2.179381	-0.296493	-0.664534	0.481201	-0.281982	-0.219971	123.598728	82.164190	-179.930285
10352		-8.062342	2.591697	0.517564	-2.197502	-0.349163	-0.681337	0.486328	-0.280762	-0.227295	122.654117	82.599999	-179.614100
