// General information: 
//  MT Manager version: 2022.2.0 
//  XDA version: 2022.2.0 build 7381 rev 124627 built on 2023-07-19
// Device information: 
//  DeviceId: 00B4BCF6
//  ProductCode: MTW2-3A7G6
//  Firmware Version: 4.6.0
//  Hardware Version: 2.0.0
// Device settings: 
//  Filter Profile: human(46.1)
//  Option Flags: Orientation Smoother Disabled, Position/Velocity Smoother Disabled, Continuous Zero Rotation Update Disabled, AHS Disabled, ICC Disabled
// Coordinate system: ENU
PacketCounter	SampleTimeFine	Acc_X	Acc_Y	Acc_Z	Gyr_X	Gyr_Y	Gyr_Z	Mag_X	Mag_Y	Mag_Z	Roll	Pitch	Yaw
54760		-6.715200	-1.295079	7.048397	-0.000085	0.003223	-0.007711	0.199463	0.091553	-0.738770	-10.037699	42.941493	141.012354
54761		-6.720024	-1.289230	7.089697	0.001803	0.004949	-0.006396	0.207031	0.082520	-0.736572	-10.037118	42.940434	141.010962
54762		-6.719349	-1.274131	7.058444	0.001678	0.006533	-0.006029	0.206055	0.087891	-0.737061	-10.037155	42.940587	141.009298
54763		-6.703928	-1.295564	7.106158	0.000164	0.000054	-0.008445	0.204590	0.087158	-0.741943	-10.038135	42.936561	141.006994
54764		-6.703026	-1.280868	7.075047	-0.005235	0.005575	-0.006973	0.211670	0.087891	-0.732666	-10.042543	42.936096	141.004745
54765		-6.686622	-1.287174	7.091806	0.000039	0.001638	-0.008078	0.205322	0.090332	-0.739502	-10.043548	42.933001	141.002508
54766		-6.685691	-1.272309	7.060755	-0.000086	0.003222	-0.007711	0.192139	0.089111	-0.740479	-10.045199	42.931178	141.000046
54767		-6.703378	-1.282577	7.074404	-0.000960	0.002693	-0.005810	0.196289	0.085205	-0.732666	-10.045684	42.928904	140.999414
54768		-6.699903	-1.304783	7.063475	-0.003098	0.004133	-0.006392	0.206299	0.088379	-0.742920	-10.048413	42.927557	140.997837
54769		-6.700081	-1.305265	7.063216	0.001927	0.003365	-0.006763	0.206543	0.081787	-0.735596	-10.047806	42.925567	140.996379
54770		-6.707433	-1.262322	7.084434	-0.001708	0.000579	-0.004276	0.205811	0.081543	-0.733154	-10.048270	42.922566	140.996772
54771		-6.721399	-1.294158	7.087496	-0.001834	0.002163	-0.003909	0.200439	0.085693	-0.742432	-10.048209	42.920183	140.997677
54772		-6.686399	-1.274944	7.059609	0.001927	0.003365	-0.006763	0.198730	0.084473	-0.739258	-10.048130	42.918469	140.995729
54773		-6.725404	-1.273304	7.097684	-0.004097	0.005187	-0.004124	0.210449	0.087891	-0.738037	-10.049760	42.917771	140.996056
54774		-6.701758	-1.322698	7.093087	-0.001834	0.002163	-0.003909	0.203369	0.083252	-0.738525	-10.050263	42.915678	140.996575
54775		-6.708211	-1.264450	7.083318	-0.002529	0.003939	-0.004967	0.206055	0.082031	-0.737305	-10.051320	42.914192	140.996423
54776		-6.653170	-1.272431	7.061653	0.001371	0.005811	-0.002702	0.201172	0.091309	-0.740723	-10.049639	42.914281	140.997222
54777		-6.705155	-1.286629	7.071984	-0.001959	0.003746	-0.003542	0.203857	0.086182	-0.739990	-10.049605	42.912828	140.998194
54778		-6.701751	-1.308483	7.061037	0.002940	0.004563	-0.003545	0.203369	0.081299	-0.738281	-10.047438	42.912090	140.998795
54779		-6.709294	-1.265487	7.082106	-0.003972	0.003602	-0.004491	0.206299	0.083496	-0.736328	-10.049041	42.910461	140.999054
54780		-6.702198	-1.309131	7.060492	-0.000821	0.003360	-0.000691	0.202881	0.091553	-0.740234	-10.047328	42.909370	141.001723
54781		-6.740334	-1.291820	7.067599	0.000676	0.007587	-0.003760	0.208008	0.080811	-0.743164	-10.046255	42.910063	141.002002
54782		-6.726732	-1.260574	7.064104	0.000179	0.002306	-0.002960	0.201660	0.085693	-0.740967	-10.045113	42.908143	141.003243
54783		-6.719536	-1.304196	7.042581	-0.000959	0.002692	-0.005811	0.203369	0.083984	-0.740967	-10.045598	42.905868	141.002610
54784		-6.719634	-1.304892	7.042359	-0.004111	0.002933	-0.009611	0.208252	0.086670	-0.743896	-10.050438	42.903603	140.998598
54785		-6.723333	-1.284016	7.052857	-0.001403	0.001300	-0.007603	0.207275	0.084229	-0.734863	-10.051987	42.900364	140.996775
54786		-6.723305	-1.284832	7.052735	-0.005428	0.001012	-0.009502	0.198242	0.084473	-0.740234	-10.057359	42.897101	140.993101
54787		-6.702956	-1.312776	7.059095	0.002305	-0.001386	-0.007864	0.200684	0.088867	-0.744141	-10.056670	42.892321	140.991445
54788		-6.719396	-1.307832	7.042041	-0.003985	0.001348	-0.009978	0.204834	0.082764	-0.735352	-10.061506	42.889080	140.987467
54789		-6.689966	-1.298297	7.086623	-0.004985	0.002402	-0.007710	0.201416	0.074463	-0.735596	-10.065265	42.886452	140.985413
54790		-6.724047	-1.303353	7.083297	-0.003290	-0.000428	-0.008920	0.207520	0.090088	-0.738037	-10.068860	42.882392	140.982080
54791		-6.692522	-1.262881	7.066231	-0.001973	0.001492	-0.009029	0.209229	0.088379	-0.740234	-10.071499	42.879118	140.979135
54792		-6.731241	-1.261644	7.104517	-0.003290	-0.000429	-0.008920	0.196777	0.083984	-0.735352	-10.075267	42.875114	140.976282
54793		-6.723687	-1.305875	7.083175	-0.002859	-0.001291	-0.012615	0.198486	0.093994	-0.739746	-10.080032	42.869910	140.970959
54794		-6.726168	-1.269832	7.062983	-0.003860	-0.000237	-0.010346	0.205566	0.086914	-0.747070	-10.084878	42.865726	140.967026
54795		-6.739746	-1.302110	7.066271	0.001419	-0.004168	-0.011450	0.199707	0.088867	-0.739746	-10.086311	42.859016	140.962995
54796		-6.653533	-1.284775	7.059075	-0.005619	-0.003550	-0.012031	0.205566	0.090576	-0.739990	-10.092709	42.852848	140.958150
54797		-6.661508	-1.258033	7.111482	-0.002733	-0.002875	-0.012982	0.202881	0.090576	-0.736328	-10.097441	42.846712	140.952765
54798		-6.700854	-1.322646	7.059249	-0.005304	-0.000576	-0.009871	0.205811	0.085449	-0.738037	-10.102854	42.842478	140.949278
54799		-6.704433	-1.302035	7.069849	-0.005431	0.001007	-0.009503	0.201660	0.082520	-0.739746	-10.107672	42.838882	140.946039
54800		-6.673865	-1.276986	7.083724	-0.001151	-0.001869	-0.008339	0.204102	0.081299	-0.742188	-10.109662	42.834068	140.943580
54801		-6.626815	-1.257306	7.114604	-0.001533	0.002882	-0.007236	0.203369	0.084473	-0.734375	-10.111236	42.831757	140.941829
54802		-6.708018	-1.282474	7.080259	-0.002976	0.002544	-0.006761	0.199219	0.080811	-0.734619	-10.113834	42.829590	140.939924
54803		-6.691568	-1.288517	7.097107	0.001050	0.002836	-0.004861	0.198242	0.083008	-0.736572	-10.112681	42.827492	140.940006
54804		-6.708360	-1.283342	7.079778	-0.004104	0.005181	-0.004124	0.199951	0.089111	-0.737061	-10.114775	42.827013	140.939745
54805		-6.690971	-1.274195	7.065669	-0.001102	0.002021	-0.010931	0.198486	0.079346	-0.738525	-10.117952	42.823844	140.935271
54806		-6.708515	-1.284809	7.079365	-0.001975	0.001490	-0.009030	0.209961	0.087158	-0.747314	-10.121083	42.820788	140.931870
54807		-6.709615	-1.300789	7.110026	0.000352	0.004612	-0.005919	0.204346	0.083008	-0.738037	-10.121048	42.819585	140.930895
54808		-6.675745	-1.296936	7.112935	-0.001091	0.004273	-0.005443	0.201172	0.084229	-0.743408	-10.122068	42.818565	140.929878
54809		-6.688766	-1.313475	7.084959	-0.002406	0.002351	-0.005335	0.205078	0.084473	-0.733887	-10.123098	42.816146	140.929663
54810		-6.675952	-1.297888	7.112566	-0.001709	0.000576	-0.004277	0.205566	0.084229	-0.742676	-10.123508	42.813107	140.930027
54811		-6.706596	-1.324125	7.098372	0.001540	0.008117	-0.005660	0.195801	0.086182	-0.739258	-10.122984	42.813908	140.928771
54812		-6.726298	-1.281909	7.060676	-0.004105	0.005179	-0.004125	0.205811	0.084717	-0.739990	-10.125127	42.813431	140.928689
54813		-6.689675	-1.315075	7.083804	0.000176	0.002306	-0.002960	0.200439	0.087646	-0.743652	-10.123432	42.811226	140.930307
54814		-6.727625	-1.298134	7.091079	-0.000659	0.003411	-0.009138	0.209473	0.082764	-0.738525	-10.126073	42.809284	140.926653
54815		-6.676094	-1.284606	7.080245	-0.000090	0.003220	-0.007713	0.194824	0.083496	-0.736084	-10.127099	42.807115	140.924491
54816		-6.659604	-1.290641	7.097140	0.000608	0.001444	-0.006654	0.198730	0.086182	-0.742920	-10.127478	42.804318	140.922842
54817		-6.680064	-1.263883	7.090535	-0.002662	0.005517	-0.004601	0.204346	0.087158	-0.742920	-10.128566	42.803759	140.922757
54818		-6.690366	-1.317613	7.082679	-0.004419	0.002203	-0.006286	0.197754	0.093018	-0.737061	-10.131762	42.801390	140.921509
54819		-6.728370	-1.300781	7.089886	0.001794	0.004950	-0.006395	0.204346	0.079590	-0.739258	-10.131180	42.800330	140.920123
54820		-6.707469	-1.312948	7.064948	-0.000475	0.007969	-0.006610	0.200684	0.082275	-0.735840	-10.132823	42.801193	140.917801
54821		-6.681164	-1.265964	7.089127	-0.003104	0.004125	-0.006395	0.201660	0.078857	-0.736816	-10.134971	42.799668	140.916528
54822		-6.674968	-1.325187	7.098261	-0.001220	0.005855	-0.005076	0.193115	0.089111	-0.737061	-10.135925	42.799506	140.915340
54823		-6.661508	-1.293989	7.094744	-0.000081	0.005472	-0.002224	0.204590	0.089600	-0.742432	-10.134288	42.799161	140.917088
54824		-6.742948	-1.318946	7.060091	-0.002791	0.007099	-0.004234	0.200195	0.089111	-0.734375	-10.135997	42.799724	140.916917
54825		-6.695441	-1.283451	7.059757	0.001362	0.005811	-0.002700	0.201172	0.090088	-0.743652	-10.133814	42.799522	140.918253
54826		-6.709683	-1.315085	7.062449	0.000664	0.007586	-0.003758	0.198486	0.090576	-0.737061	-10.133346	42.800444	140.918378
54827		-6.683367	-1.267761	7.086729	0.001049	0.002836	-0.004861	0.204102	0.079346	-0.736572	-10.132193	42.798346	140.918461
54828		-6.679919	-1.289824	7.075687	-0.003361	0.007290	-0.005660	0.207520	0.087158	-0.745117	-10.134899	42.798934	140.916877
54829		-6.685151	-1.284200	7.116676	-0.004364	0.008343	-0.003392	0.197021	0.088623	-0.734619	-10.136594	42.800090	140.917333
54830		-6.684540	-1.269227	7.085360	-0.001965	0.003741	-0.003543	0.203613	0.089844	-0.736572	-10.137120	42.798890	140.918045
54831		-6.698633	-1.301053	7.088150	-0.000651	0.005663	-0.003651	0.201904	0.085449	-0.733398	-10.136573	42.798508	140.918670
54832		-6.716546	-1.311174	7.101569	0.000792	0.006002	-0.004126	0.197266	0.083008	-0.738281	-10.136037	42.798556	140.918587
54833		-6.700410	-1.316954	7.118199	-0.001654	0.006715	-0.001382	0.192383	0.087891	-0.746826	-10.134978	42.798997	140.920811
54834		-6.716317	-1.296182	7.069887	0.000921	0.004419	-0.004493	0.204346	0.095459	-0.734863	-10.134339	42.797930	140.920614
54835		-6.721270	-1.290093	7.111236	0.002188	0.002453	-0.002008	0.194580	0.083008	-0.734375	-10.131008	42.795904	140.922943
54836		-6.670850	-1.291626	7.131291	-0.004106	0.005175	-0.004128	0.202637	0.089111	-0.739746	-10.133236	42.795426	140.923097
54837		-6.686682	-1.271033	7.083015	0.000921	0.004419	-0.004493	0.200684	0.082520	-0.746582	-10.132113	42.794258	140.923246
54838		-6.699665	-1.287376	7.055032	-0.000393	0.002496	-0.004386	0.206299	0.088867	-0.739746	-10.131998	42.792245	140.923366
54839		-6.688106	-1.287253	7.113347	-0.002359	0.006236	-0.007930	0.201172	0.082520	-0.734375	-10.134717	42.791756	140.920624
54840		-6.684588	-1.309353	7.102347	0.001050	0.002836	-0.004861	0.192627	0.086914	-0.735840	-10.134065	42.789956	140.920287
54841		-6.670094	-1.262685	7.068029	-0.000781	0.007245	-0.003284	0.194092	0.087891	-0.740723	-10.133549	42.790504	140.920976
54842		-6.650203	-1.290252	7.073948	-0.000347	0.006384	-0.006978	0.203857	0.088135	-0.735840	-10.135162	42.790283	140.918725
54843		-6.702210	-1.304731	7.084091	-0.000957	0.004940	-0.000324	0.197510	0.083008	-0.739990	-10.132986	42.789829	140.922006
54844		-6.689723	-1.288962	7.111517	-0.000217	0.004801	-0.007346	0.199219	0.082764	-0.738281	-10.134530	42.788825	140.919508
54845		-6.690139	-1.289413	7.111043	-0.001480	0.009019	-0.004343	0.200195	0.081787	-0.732422	-10.135133	42.790266	140.919140
54846		-6.655439	-1.270078	7.082991	-0.001091	0.004270	-0.005445	0.200928	0.080322	-0.745117	-10.136060	42.789149	140.917963
54847		-6.673398	-1.280273	7.096349	-0.001786	0.008297	-0.001016	0.196777	0.087891	-0.735596	-10.135034	42.790519	140.920251
54848		-6.674982	-1.296105	7.126610	-0.003492	0.008870	-0.005295	0.200195	0.091553	-0.739014	-10.137717	42.791966	140.918708
54849		-6.721402	-1.301629	7.064052	-0.002049	0.009209	-0.005769	0.193115	0.087891	-0.732910	-10.139409	42.793370	140.917217
54850		-6.671246	-1.303266	7.083887	0.001665	0.006532	-0.006026	0.199463	0.093750	-0.736572	-10.139446	42.793399	140.915807
54851		-6.726068	-1.280699	7.073766	-0.003100	0.006374	-0.000909	0.200195	0.080322	-0.748047	-10.138937	42.793694	140.918441
54852		-6.692389	-1.276519	7.076636	0.002803	0.006150	-0.003173	0.202637	0.079834	-0.740234	-10.136714	42.793830	140.919092
54853		-6.711395	-1.302018	7.120856	-0.002225	0.006904	-0.002810	0.204346	0.088135	-0.742188	-10.136747	42.794233	140.920192
54854		-6.688592	-1.283212	7.034036	-0.000168	0.010940	-0.004450	0.207275	0.094482	-0.732910	-10.137268	42.797024	140.918966
54855		-6.707662	-1.308805	7.078177	0.000921	0.004418	-0.004493	0.205322	0.078857	-0.737305	-10.136145	42.795855	140.919115
54856		-6.711700	-1.287419	7.088579	0.000921	0.004418	-0.004493	0.202393	0.082520	-0.743652	-10.135541	42.795049	140.918890
54857		-6.695532	-1.293395	7.105242	-0.001045	0.008156	-0.008039	0.200439	0.083496	-0.742676	-10.137745	42.795631	140.915800
54858		-6.694745	-1.278365	7.074074	0.000306	0.000721	-0.003327	0.199951	0.092041	-0.746582	-10.136421	42.792715	140.916805
54859		-6.691119	-1.300539	7.063133	-0.004369	0.006083	-0.008885	0.197510	0.092285	-0.730713	-10.140777	42.792043	140.913349
54860		-6.712698	-1.289554	7.087246	0.000789	0.003747	-0.009615	0.198242	0.084473	-0.734863	-10.142982	42.790162	140.909735
54861		-6.679820	-1.300994	7.121184	-0.000829	0.003356	-0.000692	0.199463	0.077881	-0.737549	-10.140778	42.788778	140.912951
54862		-6.681911	-1.248720	7.069763	0.000091	0.007774	-0.005185	0.199219	0.081787	-0.747803	-10.141168	42.789639	140.911422
54863		-6.697117	-1.296090	7.103257	-0.002665	0.005511	-0.004605	0.210205	0.083008	-0.739014	-10.142260	42.789075	140.911334
54864		-6.697408	-1.296524	7.102903	0.000352	0.004608	-0.005920	0.200928	0.087646	-0.738525	-10.142606	42.788161	140.909746
54865		-6.696677	-1.281417	7.071692	-0.000653	0.005660	-0.003652	0.201172	0.084229	-0.735107	-10.142062	42.787777	140.910370
54866		-6.697998	-1.297190	7.102226	-0.001966	0.003737	-0.003546	0.189941	0.080566	-0.746582	-10.142521	42.786565	140.910984
54867		-6.680680	-1.287632	7.088162	0.001795	0.004948	-0.006393	0.196777	0.087158	-0.740723	-10.141938	42.785503	140.909599
54868		-6.681087	-1.288051	7.087701	-0.004370	0.008335	-0.003398	0.198486	0.088379	-0.741211	-10.144046	42.786702	140.909637
54869		-6.681558	-1.288326	7.087207	0.002801	0.006149	-0.003172	0.200928	0.080566	-0.742188	-10.141318	42.786643	140.910563
54870		-6.678258	-1.310078	7.076019	0.001403	0.009695	-0.005291	0.197021	0.082764	-0.748779	-10.141261	42.788566	140.908946
54871		-6.716754	-1.293144	7.082748	-0.001484	0.009015	-0.004345	0.207031	0.081543	-0.732666	-10.141867	42.790004	140.908577
54872		-6.699779	-1.283605	7.068356	-0.000041	0.009355	-0.004818	0.204834	0.075439	-0.740234	-10.142304	42.791839	140.907196
54873		-6.717837	-1.293812	7.081598	0.001665	0.006530	-0.006026	0.211670	0.088623	-0.739258	-10.141752	42.791706	140.905876
54874		-6.667618	-1.295204	7.101633	0.002232	0.006339	-0.004599	0.202393	0.087646	-0.737793	-10.140498	42.791998	140.905030
54875		-6.718733	-1.294438	7.080634	-0.007388	0.009234	-0.002086	0.203125	0.087646	-0.744873	-10.143328	42.793788	140.906366
54876		-6.664752	-1.317676	7.089898	0.000920	0.004417	-0.004493	0.202637	0.087402	-0.739502	-10.142727	42.792872	140.906303
54877		-6.681570	-1.312469	7.072449	-0.001222	0.005849	-0.005080	0.205566	0.082031	-0.734863	-10.143271	42.792451	140.905804
54878		-6.703482	-1.301161	7.096322	-0.001616	0.010596	-0.003978	0.199463	0.085693	-0.740479	-10.144367	42.795122	140.905063
54879		-6.686439	-1.291591	7.082008	-0.000654	0.005658	-0.003653	0.206299	0.081055	-0.733154	-10.143823	42.794737	140.905686
54880		-6.708203	-1.280170	7.106045	0.001665	0.006530	-0.006026	0.202637	0.085205	-0.742188	-10.143693	42.794882	140.903851
54881		-6.687245	-1.292124	7.081150	0.000657	0.007581	-0.003759	0.201416	0.082764	-0.737793	-10.142632	42.795571	140.904129
54882		-6.674912	-1.276399	7.108548	-0.002534	0.003925	-0.004975	0.209961	0.086914	-0.734619	-10.144122	42.794315	140.903523
54883		-6.739607	-1.307161	7.090734	0.001533	0.008111	-0.005659	0.199219	0.083496	-0.730225	-10.143601	42.795112	140.902268
54884		-6.688477	-1.293276	7.079776	-0.004372	0.008331	-0.003401	0.195313	0.085205	-0.750732	-10.145787	42.796592	140.902318
54885		-6.723065	-1.298300	7.075813	-0.001613	0.008341	-0.009468	0.202637	0.084717	-0.740967	-10.149080	42.797134	140.898102
54886		-6.706979	-1.304248	7.092451	0.001356	0.005808	-0.002698	0.202393	0.086670	-0.744385	-10.147332	42.797070	140.899093
54887		-6.689786	-1.294520	7.078312	0.001664	0.006529	-0.006026	0.205566	0.086426	-0.742188	-10.146780	42.796937	140.897773
54888		-6.690146	-1.294843	7.077912	-0.002098	0.005316	-0.003181	0.199463	0.083008	-0.740234	-10.147270	42.796667	140.898528
54889		-6.677890	-1.279108	7.105263	0.000089	0.007770	-0.005186	0.202881	0.084473	-0.737549	-10.147298	42.797319	140.897682
54890		-6.707538	-1.289907	7.059845	-0.000220	0.007049	-0.001859	0.196533	0.083740	-0.736572	-10.146118	42.798124	140.899035
54891		-6.696348	-1.289652	7.118061	-0.003233	0.005696	-0.006037	0.204834	0.086670	-0.737061	-10.148299	42.797521	140.897821
54892		-6.695602	-1.274672	7.086809	-0.002974	0.004785	-0.001281	0.192871	0.081299	-0.744629	-10.148226	42.797106	140.900032
54893		-6.726287	-1.301024	7.072250	-0.001487	0.009011	-0.004347	0.198975	0.081787	-0.734619	-10.148835	42.798543	140.899661
54894		-6.713990	-1.285330	7.099646	0.000486	0.003024	-0.006288	0.200439	0.087402	-0.740723	-10.149120	42.796516	140.898056
54895		-6.696576	-1.275963	7.085656	-0.004544	0.003772	-0.005932	0.197998	0.083252	-0.739746	-10.151818	42.794838	140.897187
54896		-6.667704	-1.266007	7.130218	-0.000346	0.006377	-0.006981	0.198486	0.083008	-0.737061	-10.153355	42.794700	140.894830
54897		-6.694488	-1.314148	7.104977	-0.001922	0.007618	-0.006142	0.202881	0.075928	-0.735107	-10.155020	42.795170	140.893271
54898		-6.677301	-1.304880	7.090755	-0.003800	0.005885	-0.007465	0.202148	0.083984	-0.738770	-10.158600	42.794763	140.890190
54899		-6.711834	-1.309900	7.086814	-0.000612	0.009541	-0.006247	0.196533	0.091797	-0.731934	-10.159749	42.796306	140.888285
54900		-6.712305	-1.310345	7.086285	-0.001223	0.005846	-0.005082	0.198486	0.087402	-0.739502	-10.160827	42.796085	140.887637
54901		-6.698895	-1.279002	7.082915	0.002054	0.004036	-0.001637	0.199707	0.081055	-0.737793	-10.157527	42.794990	140.890034
54902		-6.729512	-1.305272	7.068398	-0.004375	0.008327	-0.003404	0.203125	0.086670	-0.741211	-10.159658	42.796318	140.890084
54903		-6.683204	-1.285228	7.099159	0.000353	0.004605	-0.005921	0.202637	0.093506	-0.734619	-10.159622	42.795111	140.889110
54904		-6.699938	-1.280183	7.081716	-0.001657	0.004453	-0.006877	0.197998	0.079346	-0.742188	-10.161808	42.793987	140.887406
54905		-6.666150	-1.276338	7.084752	-0.001790	0.006035	-0.006510	0.197266	0.088379	-0.734619	-10.163442	42.793526	140.885782
54906		-6.684009	-1.286809	7.098115	-0.002534	0.003922	-0.004977	0.210205	0.095947	-0.741211	-10.164910	42.792180	140.885209
54907		-6.714433	-1.313312	7.083720	-0.001090	0.004263	-0.005449	0.202637	0.089111	-0.742188	-10.165422	42.790827	140.884644
54908		-6.714722	-1.313748	7.083366	-0.001223	0.005845	-0.005082	0.199463	0.088867	-0.734619	-10.166605	42.790726	140.884277
54909		-6.717786	-1.277225	7.062833	-0.003100	0.004111	-0.006406	0.202148	0.083252	-0.738037	-10.168755	42.789191	140.882998
54910		-6.684974	-1.288775	7.096849	0.000486	0.003023	-0.006288	0.205566	0.083740	-0.736572	-10.169153	42.787286	140.881655
54911		-6.663754	-1.300914	7.072135	-0.001791	0.006034	-0.006510	0.202637	0.083740	-0.737549	-10.170787	42.786825	140.880031
54912		-6.705743	-1.262818	7.089813	-0.003401	0.001137	-0.008569	0.204590	0.083008	-0.736816	-10.174362	42.783696	140.877007
54913		-6.698128	-1.306685	7.068179	-0.002667	0.005503	-0.004611	0.203857	0.086182	-0.743408	-10.175457	42.783127	140.876916
54914		-6.669378	-1.296600	7.112726	-0.000348	0.006376	-0.006981	0.206787	0.080811	-0.736816	-10.176957	42.783098	140.874458
54915		-6.716347	-1.317593	7.081110	-0.001091	0.004263	-0.005449	0.199951	0.084473	-0.735596	-10.177470	42.781745	140.873894
54916		-6.704100	-1.301961	7.108517	-0.000482	0.007957	-0.006614	0.203369	0.093018	-0.749756	-10.178960	42.782647	140.871358
54917		-6.685656	-1.277132	7.063631	-0.002833	0.000947	-0.007141	0.201416	0.089844	-0.738037	-10.181043	42.779253	140.869952
54918		-6.699455	-1.309209	7.066454	0.000352	0.004604	-0.005921	0.202393	0.078857	-0.741455	-10.181598	42.778260	140.869076
54919		-6.664542	-1.289746	7.038720	-0.000214	0.004794	-0.007349	0.200439	0.087646	-0.737549	-10.182650	42.777015	140.866979
54920		-6.691197	-1.272498	7.104374	0.000796	0.003743	-0.009616	0.202881	0.081055	-0.740723	-10.184578	42.775172	140.862779
54921		-6.716618	-1.305267	7.048380	-0.001792	0.006033	-0.006511	0.205078	0.079346	-0.736084	-10.186212	42.774710	140.861156
54922		-6.683877	-1.316819	7.082347	-0.000081	0.003212	-0.007716	0.203857	0.086426	-0.739502	-10.187521	42.772830	140.858246
54923		-6.675375	-1.279601	7.120608	-0.001091	0.004262	-0.005450	0.205078	0.085205	-0.737793	-10.188034	42.771477	140.857682
54924		-6.688243	-1.296269	7.092403	-0.002359	0.006221	-0.007939	0.202881	0.087891	-0.742188	-10.191206	42.771275	140.854605
54925		-6.637933	-1.297954	7.112648	0.000796	0.003743	-0.009616	0.201416	0.091553	-0.746582	-10.192763	42.769207	140.850912
54926		-6.705247	-1.292118	7.074519	-0.005380	0.007117	-0.006630	0.199951	0.094971	-0.738770	-10.197155	42.769548	140.849035
54927		-6.671632	-1.288305	7.077422	-0.000484	0.007955	-0.006615	0.195068	0.088867	-0.736816	-10.198275	42.770160	140.847065
54928		-6.701155	-1.299350	7.031911	-0.001361	0.007424	-0.004716	0.202393	0.075195	-0.747559	-10.199469	42.770797	140.846798
54929		-6.707737	-1.309055	7.103781	0.000082	0.007766	-0.005186	0.201416	0.093994	-0.742432	-10.199501	42.771446	140.845952
54930		-6.708097	-1.309380	7.103381	-0.000525	0.004072	-0.004022	0.199951	0.085693	-0.742432	-10.199307	42.770332	140.846106
54931		-6.690854	-1.299708	7.089310	-0.003115	0.006360	-0.000917	0.200928	0.096436	-0.733154	-10.198812	42.770622	140.848734
54932		-6.690263	-1.284582	7.057917	-0.001496	0.009005	-0.004348	0.207764	0.090820	-0.736572	-10.200016	42.772260	140.848437
54933		-6.694583	-1.263371	7.068156	-0.001968	0.003729	-0.003551	0.202881	0.091797	-0.737305	-10.199992	42.770799	140.849405
54934		-6.692057	-1.300801	7.087975	0.000217	0.006184	-0.005554	0.196289	0.081055	-0.743164	-10.200587	42.770847	140.848537
54935		-6.678765	-1.269590	7.084558	0.000217	0.006184	-0.005554	0.205322	0.086670	-0.735596	-10.200586	42.770567	140.847627
54936		-6.675125	-1.291756	7.073499	-0.003667	0.004295	-0.007837	0.205811	0.092285	-0.738525	-10.204184	42.769198	140.844743
54937		-6.692985	-1.302266	7.086829	-0.000660	0.005653	-0.003655	0.198730	0.081787	-0.738281	-10.203645	42.768811	140.845366
54938		-6.659400	-1.298161	7.089783	-0.000620	0.009535	-0.006248	0.205566	0.082764	-0.738281	-10.205257	42.770597	140.843206
54939		-6.685332	-1.265285	7.124328	0.000783	0.005995	-0.004125	0.203857	0.077881	-0.740723	-10.204169	42.770356	140.843420
54940		-6.672829	-1.315022	7.060960	-0.003371	0.007268	-0.005675	0.205078	0.084229	-0.739014	-10.206643	42.770976	140.841484
54941		-6.677227	-1.293838	7.071134	0.000647	0.007576	-0.003758	0.196533	0.083008	-0.746582	-10.205589	42.771663	140.841762
54942		-6.728281	-1.293103	7.049942	-0.002375	0.008471	-0.002450	0.206543	0.095703	-0.735840	-10.206010	42.773169	140.842443
54943		-6.699860	-1.282888	7.094335	-0.000620	0.009534	-0.006248	0.209229	0.092285	-0.743896	-10.207165	42.774708	140.840537
54944		-6.692450	-1.326521	7.072434	-0.001227	0.005841	-0.005084	0.206787	0.090332	-0.740234	-10.208379	42.774646	140.840289
54945		-6.713206	-1.299865	7.065546	-0.001227	0.005840	-0.005084	0.202393	0.088135	-0.738770	-10.208928	42.774221	140.839788
54946		-6.684523	-1.289613	7.110211	0.001795	0.004945	-0.006391	0.204346	0.083984	-0.740234	-10.208858	42.773444	140.838307
54947		-6.701358	-1.284481	7.092631	-0.001363	0.007421	-0.004717	0.202881	0.086670	-0.739258	-10.209442	42.773947	140.837869
54948		-6.681299	-1.312021	7.098696	-0.000214	0.004791	-0.007350	0.206299	0.089600	-0.735596	-10.210886	42.772961	140.835378
54949		-6.698124	-1.307027	7.081095	-0.000485	0.007952	-0.006616	0.198242	0.086914	-0.737061	-10.212008	42.773571	140.833408
54950		-6.668376	-1.281460	7.094850	-0.001657	0.004447	-0.006881	0.195313	0.082764	-0.746582	-10.214099	42.772423	140.831556
54951		-6.686259	-1.291982	7.108149	-0.000350	0.006371	-0.006983	0.204102	0.092773	-0.738525	-10.215186	42.772104	140.829523
54952		-6.677572	-1.320221	7.055503	-0.001793	0.006028	-0.006514	0.204346	0.083252	-0.732666	-10.217271	42.771781	140.827738
54953		-6.687018	-1.292997	7.107251	-0.001364	0.007420	-0.004717	0.197266	0.083496	-0.738037	-10.217856	42.772283	140.827299
54954		-6.687538	-1.293538	7.106663	-0.002631	0.009377	-0.007208	0.201172	0.087402	-0.732422	-10.220987	42.773855	140.824136
54955		-6.687992	-1.294053	7.106142	-0.002105	0.005307	-0.003186	0.198242	0.082520	-0.731689	-10.220999	42.773322	140.825167
54956		-6.684528	-1.316255	7.094872	-0.004776	0.010803	-0.007801	0.202637	0.077881	-0.737305	-10.225860	42.775627	140.821481
54957		-6.683989	-1.301242	7.063383	0.003531	0.008262	-0.004697	0.200928	0.086182	-0.741455	-10.223708	42.776607	140.820942
54958		-6.688374	-1.280204	7.073575	-0.004933	0.006248	-0.010332	0.204346	0.091064	-0.741455	-10.229439	42.776093	140.815717
54959		-6.672308	-1.286508	7.090238	-0.001052	0.008139	-0.008046	0.199463	0.081543	-0.742676	-10.231649	42.776662	140.812622
54960		-6.690362	-1.297224	7.103332	-0.003061	0.007983	-0.009006	0.201172	0.084961	-0.736816	-10.235900	42.777242	140.808522
54961		-6.707262	-1.292468	7.085596	-0.003374	0.007263	-0.005678	0.197998	0.085938	-0.738525	-10.238123	42.777558	140.807368
54962		-6.703849	-1.314624	7.074268	-0.002204	0.010768	-0.005413	0.208740	0.084717	-0.728027	-10.240253	42.780044	140.805582
54963		-6.675504	-1.304453	7.118697	-0.001365	0.007418	-0.004718	0.208740	0.083252	-0.746338	-10.240839	42.780546	140.805143
54964		-6.708884	-1.293814	7.083814	0.000643	0.007574	-0.003758	0.207520	0.088623	-0.738525	-10.240139	42.781635	140.804872
54965		-6.709349	-1.294227	7.083299	-0.003374	0.007262	-0.005679	0.204346	0.084473	-0.734131	-10.242362	42.781951	140.803717
54966		-6.693294	-1.300224	7.100021	-0.001228	0.005837	-0.005085	0.199463	0.092285	-0.742676	-10.243342	42.781854	140.802902
54967		-6.692551	-1.285230	7.068710	-0.001931	0.007606	-0.006148	0.202881	0.088379	-0.750000	-10.245015	42.782316	140.801338
54968		-6.710491	-1.295736	7.081941	-0.001091	0.004257	-0.005453	0.199951	0.092529	-0.741455	-10.246035	42.781097	140.800827
54969		-6.672751	-1.313247	7.074435	-0.000350	0.006369	-0.006984	0.208984	0.087891	-0.744385	-10.247123	42.780776	140.798793
54970		-6.673166	-1.313798	7.073942	-0.001053	0.008137	-0.008046	0.208740	0.086914	-0.741943	-10.249848	42.781590	140.795695
54971		-6.699060	-1.281076	7.108594	0.001054	0.002832	-0.004859	0.203857	0.078369	-0.733154	-10.248689	42.779492	140.795784
54972		-6.691306	-1.324582	7.086928	-0.001229	0.005837	-0.005086	0.197754	0.080322	-0.738770	-10.249531	42.779397	140.794636
54973		-6.681960	-1.271771	7.094357	0.001933	0.003364	-0.006758	0.205078	0.084717	-0.747314	-10.248909	42.777405	140.793193
54974		-6.694589	-1.288402	7.066203	-0.002222	0.004632	-0.008312	0.204590	0.081787	-0.739990	-10.251863	42.776137	140.789794
54975		-6.692010	-1.326074	7.085984	-0.002673	0.005492	-0.004617	0.207031	0.079834	-0.742188	-10.252964	42.775563	140.789700
54976		-6.700426	-1.283398	7.106888	-0.000489	0.007948	-0.006617	0.198486	0.090332	-0.734131	-10.254312	42.776468	140.786965
54977		-6.691619	-1.311501	7.054255	0.000352	0.004600	-0.005922	0.205811	0.083740	-0.737793	-10.254277	42.775258	140.785993
54978		-6.679496	-1.295678	7.081796	0.000779	0.005992	-0.004125	0.195068	0.084717	-0.738281	-10.253628	42.775246	140.785982
54979		-6.714016	-1.300582	7.077711	-0.000627	0.009528	-0.006250	0.198486	0.084229	-0.751709	-10.254789	42.776781	140.784072
54980		-6.684341	-1.275033	7.091527	-0.002083	0.003050	-0.008680	0.195313	0.080811	-0.727295	-10.257757	42.774447	140.780824
54981		-6.698214	-1.307243	7.094090	-0.000489	0.007948	-0.006617	0.198486	0.080322	-0.747803	-10.258882	42.775053	140.778852
54982		-6.684992	-1.276028	7.090735	-0.000527	0.004067	-0.004024	0.204834	0.090820	-0.740479	-10.258527	42.773828	140.778715
54983		-6.664824	-1.303500	7.096903	-0.001795	0.006023	-0.006516	0.196289	0.085205	-0.742920	-10.260166	42.773359	140.777089
54984		-6.681548	-1.298544	7.079334	-0.001092	0.004255	-0.005454	0.199219	0.080566	-0.742676	-10.261126	42.772158	140.776410
54985		-6.699502	-1.308966	7.092555	0.000075	0.007760	-0.005188	0.202881	0.087158	-0.737549	-10.261164	42.772804	140.775563
54986		-6.682211	-1.299299	7.078570	0.000490	0.003019	-0.006289	0.206299	0.090820	-0.741211	-10.261410	42.770849	140.774074
54987		-6.699990	-1.309746	7.091950	-0.001092	0.004254	-0.005454	0.202393	0.086182	-0.740967	-10.261924	42.769491	140.773510
54988		-6.704425	-1.288588	7.102175	-0.001507	0.008995	-0.004353	0.203857	0.085938	-0.730225	-10.263015	42.771178	140.773025
54989		-6.666728	-1.305941	7.094665	0.001933	0.003364	-0.006757	0.202881	0.083984	-0.743164	-10.262391	42.769186	140.771583
54990		-6.688588	-1.294908	7.118666	-0.004682	0.005332	-0.005581	0.193115	0.082275	-0.741211	-10.265495	42.768686	140.770384
54991		-6.683666	-1.301536	7.076785	0.000351	0.004599	-0.005922	0.201416	0.085449	-0.738770	-10.265459	42.767475	140.769412
54992		-6.683955	-1.301970	7.076433	-0.002674	0.005489	-0.004619	0.199463	0.092041	-0.739746	-10.266872	42.766984	140.768898
54993		-6.685521	-1.317847	7.106820	-0.000805	0.007227	-0.003290	0.198486	0.081055	-0.740479	-10.266374	42.767524	140.769582
54994		-6.701133	-1.297267	7.058374	-0.001092	0.004254	-0.005454	0.202393	0.084961	-0.735352	-10.267285	42.766294	140.768798
54995		-6.686237	-1.318564	7.106013	0.001517	0.008103	-0.005656	0.199707	0.088867	-0.739502	-10.266773	42.767086	140.767543
54996		-6.684417	-1.287988	7.043777	-0.004395	0.008303	-0.003418	0.205566	0.090332	-0.738770	-10.268919	42.768421	140.767768
54997		-6.685940	-1.303770	7.074225	0.003062	0.002989	-0.003897	0.201904	0.082275	-0.740234	-10.266121	42.766509	140.768576
54998		-6.707894	-1.292602	7.098169	-0.002499	0.007787	-0.007581	0.195068	0.090332	-0.735596	-10.269277	42.767182	140.765608
54999		-6.686704	-1.304682	7.073335	-0.001370	0.007413	-0.004720	0.200928	0.083496	-0.737549	-10.269867	42.767681	140.765167
55000		-6.691168	-1.283492	7.083559	0.000212	0.006178	-0.005555	0.198975	0.085693	-0.740967	-10.270281	42.767525	140.764068
55001		-6.687534	-1.305383	7.072421	-0.000806	0.007226	-0.003290	0.208008	0.084473	-0.744385	-10.269784	42.768063	140.764752
55002		-6.694229	-1.315128	7.144443	-0.001832	0.002141	-0.003924	0.208008	0.091064	-0.736816	-10.270064	42.765902	140.765288
55003		-6.688112	-1.306185	7.071726	0.000388	0.008477	-0.008516	0.201416	0.082275	-0.744141	-10.271726	42.766612	140.761784
55004		-6.693721	-1.300493	7.112822	0.000916	0.004411	-0.004492	0.201904	0.084961	-0.742920	-10.271000	42.765715	140.761681
55005		-6.705140	-1.301438	7.053799	-0.001971	0.003720	-0.003557	0.200439	0.083740	-0.738281	-10.270979	42.764250	140.762648
55006		-6.694253	-1.301099	7.112210	0.000776	0.005991	-0.004125	0.199219	0.088135	-0.734619	-10.270213	42.764190	140.762455
55007		-6.677016	-1.291403	7.098194	-0.000352	0.006364	-0.006986	0.207520	0.085938	-0.741699	-10.271301	42.763866	140.760420
55008		-6.673251	-1.313375	7.087156	-0.000528	0.004065	-0.004025	0.201172	0.088379	-0.739746	-10.271142	42.762801	140.760768
55009		-6.661129	-1.297615	7.114782	-0.001092	0.004252	-0.005455	0.199951	0.085938	-0.738281	-10.271657	42.761442	140.760202
55010		-6.677965	-1.292561	7.097091	-0.000068	0.009336	-0.004822	0.203613	0.083252	-0.745117	-10.272144	42.763187	140.759236
55011		-6.690828	-1.309135	7.068611	-0.004258	0.006720	-0.003787	0.209229	0.081787	-0.746094	-10.273836	42.763390	140.759608
55012		-6.695186	-1.287999	7.078943	0.001935	0.003363	-0.006757	0.198730	0.083740	-0.743164	-10.273455	42.761682	140.757581
55013		-6.691298	-1.309917	7.068021	-0.001972	0.003719	-0.003558	0.197998	0.082031	-0.736572	-10.273434	42.760217	140.758547
55014		-6.696947	-1.304333	7.109081	-0.003519	0.008832	-0.005318	0.206787	0.089600	-0.737793	-10.275968	42.761566	140.756956
55015		-6.713868	-1.299543	7.091250	-0.002500	0.007784	-0.007583	0.207275	0.088379	-0.739502	-10.278732	42.761981	140.754266
55016		-6.680260	-1.295370	7.094419	0.000775	0.005990	-0.004125	0.205078	0.088623	-0.738037	-10.278123	42.762080	140.754406
55017		-6.680561	-1.295701	7.094074	-0.001092	0.004251	-0.005456	0.200684	0.085205	-0.736816	-10.278638	42.760721	140.753840
55018		-6.710730	-1.322343	7.079447	-0.001092	0.004251	-0.005456	0.207275	0.088623	-0.736816	-10.279557	42.759602	140.753064
55019		-6.693487	-1.312636	7.065444	0.001514	0.008102	-0.005656	0.202637	0.090332	-0.740723	-10.279047	42.760393	140.751809
55020		-6.663910	-1.286757	7.079378	-0.001972	0.003719	-0.003558	0.201416	0.077881	-0.739258	-10.279511	42.759212	140.752751
55021		-6.698206	-1.291930	7.075369	-0.002360	0.006203	-0.007950	0.203369	0.083252	-0.738037	-10.282237	42.758698	140.749999
55022		-6.682032	-1.297835	7.092299	0.001055	0.002831	-0.004859	0.198486	0.083252	-0.739258	-10.281265	42.756823	140.749365
55023		-6.698624	-1.292820	7.074810	-0.001656	0.004437	-0.006887	0.200928	0.083252	-0.747070	-10.282866	42.755422	140.747675
55024		-6.661998	-1.325748	7.098248	-0.001233	0.005830	-0.005089	0.203369	0.087402	-0.737305	-10.283677	42.755109	140.746697
55025		-6.665193	-1.289011	7.077760	0.000915	0.004410	-0.004492	0.201660	0.084473	-0.743652	-10.282555	42.753938	140.746850
55026		-6.683157	-1.299475	7.090938	-0.001937	0.007595	-0.006153	0.207520	0.085205	-0.742676	-10.284592	42.754603	140.745007
55027		-6.701091	-1.310116	7.104110	-0.003979	0.003558	-0.004523	0.200195	0.085205	-0.740723	-10.286210	42.752949	140.745255
55028		-6.683811	-1.300373	7.090158	-0.001127	0.006504	0.000037	0.198730	0.091797	-0.743896	-10.284424	42.753661	140.748246
55029		-6.679993	-1.322341	7.079133	-0.002079	0.003044	-0.008685	0.198975	0.089844	-0.743164	-10.287073	42.751291	140.745370
55030		-6.684388	-1.301242	7.089454	0.000633	0.007568	-0.003758	0.202881	0.087891	-0.739258	-10.286532	42.752059	140.745801
55031		-6.668403	-1.306916	7.106260	-0.000670	0.005643	-0.003658	0.199707	0.085205	-0.733154	-10.286000	42.751668	140.746422
55032		-6.668707	-1.307179	7.105926	0.000915	0.004410	-0.004492	0.203857	0.083984	-0.731445	-10.285265	42.750704	140.746350
55033		-6.686569	-1.317561	7.119212	0.000351	0.004596	-0.005923	0.199951	0.089111	-0.743164	-10.285229	42.749491	140.745378
55034		-6.702024	-1.296972	7.070829	0.001794	0.004942	-0.006389	0.205078	0.084717	-0.739746	-10.285025	42.748641	140.743771
55035		-6.695276	-1.275210	7.139976	-0.003979	0.003557	-0.004524	0.202881	0.088867	-0.739014	-10.286643	42.746986	140.744018
55036		-6.702419	-1.298001	7.070265	0.000809	0.003735	-0.009618	0.202881	0.083252	-0.734863	-10.288573	42.745168	140.740107
55037		-6.686190	-1.304039	7.087240	-0.003099	0.004089	-0.006422	0.201904	0.089111	-0.741455	-10.290726	42.743619	140.738823
55038		-6.656509	-1.278422	7.101288	-0.001656	0.004435	-0.006888	0.204834	0.082764	-0.748291	-10.292690	42.742441	140.736870
55039		-6.652668	-1.300589	7.090236	-0.003241	0.005668	-0.006055	0.198730	0.080811	-0.741943	-10.294882	42.741819	140.735648
55040		-6.682839	-1.327291	7.075520	-0.000530	0.004063	-0.004026	0.197998	0.085205	-0.739258	-10.294492	42.740659	140.735579
55041		-6.674980	-1.289848	7.113810	0.000772	0.005989	-0.004125	0.200195	0.082275	-0.739990	-10.293409	42.740415	140.735793
55042		-6.683426	-1.327822	7.074865	-0.002853	0.003184	-0.001662	0.198730	0.084229	-0.741455	-10.293122	42.738963	140.737851
55043		-6.691952	-1.285102	7.095895	-0.000354	0.006361	-0.006987	0.199707	0.088867	-0.747314	-10.294212	42.738637	140.735817
55044		-6.675815	-1.290785	7.112856	0.003062	0.002991	-0.003894	0.204346	0.087891	-0.733398	-10.291759	42.736814	140.736432
55045		-6.705889	-1.317234	7.098265	-0.001973	0.003716	-0.003560	0.198975	0.082275	-0.740723	-10.291741	42.735348	140.737397
55046		-6.689699	-1.323062	7.115250	-0.003416	0.003369	-0.003094	0.194092	0.085449	-0.743164	-10.292600	42.733949	140.738428
55047		-6.671080	-1.297942	7.070578	-0.002536	0.003902	-0.004991	0.198486	0.086426	-0.748779	-10.293667	42.732441	140.738268
55048		-6.672517	-1.313860	7.101116	-0.000530	0.004063	-0.004026	0.202881	0.090088	-0.739258	-10.293409	42.731112	140.738606
55049		-6.671593	-1.298718	7.069951	-0.001235	0.005827	-0.005090	0.196533	0.081543	-0.737061	-10.293964	42.730679	140.738102
55050		-6.673146	-1.314690	7.100372	-0.002678	0.005480	-0.004624	0.195801	0.091797	-0.738770	-10.295415	42.730252	140.737742
55051		-6.672348	-1.299429	7.069108	0.002636	0.007728	-0.002792	0.201416	0.084229	-0.738525	-10.292735	42.731125	140.738737
55052		-6.694459	-1.288157	7.092975	-0.001973	0.003715	-0.003560	0.197021	0.088867	-0.734619	-10.293136	42.729773	140.739644
55053		-6.674451	-1.315365	7.099019	-0.000677	0.011771	-0.000760	0.199707	0.084229	-0.737305	-10.291678	42.733133	140.741635
55054		-6.691364	-1.310193	7.081219	-0.001973	0.003715	-0.003560	0.202393	0.086670	-0.742188	-10.292034	42.731796	140.742412
55055		-6.699905	-1.267551	7.102254	-0.004122	0.005133	-0.004159	0.194824	0.081543	-0.739746	-10.293693	42.731066	140.742720
55056		-6.692012	-1.311159	7.080428	-0.001377	0.007406	-0.004724	0.201172	0.088867	-0.743896	-10.294549	42.731661	140.741871
55057		-6.709976	-1.321622	7.093585	-0.000530	0.004062	-0.004026	0.207275	0.076660	-0.740479	-10.293979	42.730342	140.742430
55058		-6.675040	-1.301883	7.066115	-0.000917	0.006545	-0.008419	0.193848	0.084473	-0.732178	-10.296366	42.730238	140.738694
55059		-6.692792	-1.312679	7.079409	-0.006582	-0.000298	-0.004330	0.193604	0.081055	-0.740479	-10.299009	42.726429	140.739628
55060		-6.656124	-1.264699	7.163137	0.004823	0.004057	-0.007686	0.197021	0.090820	-0.737793	-10.297500	42.724722	140.736892
55061		-6.691983	-1.297986	7.048041	-0.004407	0.008289	-0.003426	0.206299	0.085693	-0.744141	-10.299239	42.725847	140.737322
55062		-6.698974	-1.307785	7.119943	-0.000848	0.003343	-0.000698	0.201416	0.086182	-0.737793	-10.297471	42.724658	140.740488
55063		-6.677379	-1.319513	7.095496	-0.000950	0.002669	-0.005825	0.200439	0.084229	-0.739258	-10.297946	42.722369	140.739860
55064		-6.711551	-1.324667	7.091527	-0.001093	0.004247	-0.005458	0.204102	0.090332	-0.744385	-10.298773	42.721202	140.738971
55065		-6.680695	-1.283369	7.074823	-0.002536	0.003900	-0.004993	0.199463	0.079102	-0.738281	-10.299841	42.719692	140.738810
55066		-6.677980	-1.320953	7.094662	-0.002536	0.003900	-0.004993	0.203369	0.090088	-0.739502	-10.301189	42.718384	140.738273
55067		-6.668947	-1.268306	7.102134	-0.003242	0.005664	-0.006057	0.200928	0.090088	-0.748291	-10.303382	42.717759	140.737050
55068		-6.681551	-1.284708	7.073771	0.005663	0.006844	-0.004088	0.200195	0.091797	-0.739502	-10.300033	42.718189	140.737292
55069		-6.683271	-1.300433	7.104092	-0.004408	0.008288	-0.003427	0.202148	0.082520	-0.736816	-10.301774	42.719313	140.737721
55070		-6.679631	-1.322225	7.092871	0.001753	0.007195	-0.000894	0.203857	0.085938	-0.742676	-10.298945	42.720285	140.740100
55071		-6.684348	-1.300668	7.103035	0.001047	0.008959	-0.001959	0.201660	0.082275	-0.741455	-10.296858	42.721938	140.741562
55072		-6.697161	-1.316979	7.074477	-0.000959	0.008797	-0.002926	0.205078	0.083008	-0.739746	-10.296657	42.723626	140.741858
55073		-6.685475	-1.301099	7.101896	-0.000816	0.007218	-0.003293	0.205811	0.089844	-0.737793	-10.296168	42.724161	140.742540
55074		-6.685880	-1.301352	7.101468	-0.001554	0.005107	-0.001763	0.200439	0.089844	-0.734619	-10.295463	42.723998	140.744443
55075		-6.682132	-1.323154	7.090342	0.001508	0.008098	-0.005654	0.203369	0.083984	-0.744385	-10.294955	42.724787	140.743190
55076		-6.703203	-1.296472	7.083195	-0.003284	0.007916	-0.000565	0.195557	0.086426	-0.745605	-10.294894	42.726206	140.745702
55077		-6.699429	-1.318413	7.072062	-0.000211	0.004779	-0.007355	0.199463	0.086670	-0.746826	-10.295943	42.724950	140.743606
55078		-6.669965	-1.292465	7.086104	-0.000254	0.007032	-0.001861	0.203125	0.087158	-0.735840	-10.294684	42.725538	140.745249
55079		-6.688057	-1.302864	7.099141	-0.001379	0.007403	-0.004725	0.205322	0.088135	-0.744141	-10.295280	42.726030	140.744806
55080		-6.666717	-1.314774	7.074406	-0.001941	0.007588	-0.006157	0.194824	0.083740	-0.741211	-10.297359	42.726766	140.743121
55081		-6.667117	-1.315261	7.073938	-0.001236	0.005824	-0.005092	0.204102	0.085449	-0.741455	-10.297916	42.726331	140.742616
55082		-6.689322	-1.304156	7.097711	-0.001698	0.006684	-0.001397	0.198975	0.084229	-0.738281	-10.297152	42.726877	140.744455
55083		-6.722564	-1.293772	7.062575	-0.003528	0.008818	-0.005326	0.199463	0.091309	-0.739502	-10.299427	42.728105	140.743352
55084		-6.678168	-1.288821	7.124570	0.000626	0.007565	-0.003757	0.200684	0.082764	-0.734863	-10.298785	42.728916	140.743572
55085		-6.690768	-1.305291	7.096140	-0.001235	0.005824	-0.005092	0.204834	0.083252	-0.740723	-10.299341	42.728480	140.743066
55086		-6.691185	-1.305609	7.095688	0.000626	0.007564	-0.003757	0.207764	0.085693	-0.731689	-10.298510	42.729425	140.742779
55087		-6.691541	-1.306001	7.095280	-0.001654	0.004430	-0.006891	0.197998	0.087646	-0.736084	-10.300111	42.728019	140.741087
55088		-6.691885	-1.306498	7.094864	-0.001380	0.007402	-0.004726	0.199463	0.091309	-0.736572	-10.301089	42.728807	140.740450
55089		-6.675934	-1.312344	7.111691	-0.000354	0.006356	-0.006989	0.196533	0.085693	-0.734619	-10.302178	42.728477	140.738415
55090		-6.675089	-1.297236	7.080405	0.000064	0.007749	-0.005190	0.198975	0.080078	-0.738770	-10.302663	42.729225	140.737603
55091		-6.710683	-1.317967	7.107028	-0.003979	0.003549	-0.004532	0.196533	0.086426	-0.746338	-10.304285	42.727565	140.737845
55092		-6.675760	-1.298230	7.079590	-0.000498	0.007934	-0.006622	0.204346	0.083740	-0.740234	-10.305596	42.728207	140.735376
55093		-6.677389	-1.314248	7.109973	-0.000210	0.004778	-0.007356	0.197510	0.083496	-0.738037	-10.306645	42.726950	140.733280
55094		-6.680565	-1.277682	7.089523	-0.000210	0.004778	-0.007356	0.200928	0.091309	-0.743652	-10.307912	42.725879	140.730695
55095		-6.660304	-1.305114	7.095768	-0.000354	0.006355	-0.006989	0.201172	0.084229	-0.739990	-10.309001	42.725548	140.728660
55096		-6.694586	-1.310334	7.091608	-0.001092	0.004244	-0.005460	0.201660	0.088379	-0.734863	-10.309899	42.724346	140.728032
55097		-6.694874	-1.310769	7.091256	-0.001237	0.005822	-0.005093	0.203857	0.080566	-0.745605	-10.310457	42.723910	140.727526
55098		-6.678817	-1.316655	7.108186	0.000672	0.005310	-0.009252	0.194824	0.088379	-0.732666	-10.312286	42.723000	140.723480
55099		-6.695370	-1.311681	7.090619	0.001058	0.002829	-0.004858	0.200684	0.084717	-0.745605	-10.311123	42.720900	140.723573
55100		-6.699652	-1.290665	7.101141	-0.001044	0.001990	-0.010955	0.200684	0.087158	-0.739258	-10.314595	42.717773	140.718952
55101		-6.696763	-1.328370	7.121100	-0.000948	0.002665	-0.005827	0.200195	0.083008	-0.744141	-10.315070	42.715482	140.718324
55102		-6.661615	-1.308667	7.093882	-0.002071	0.003035	-0.008692	0.210693	0.085693	-0.739502	-10.317976	42.713253	140.715111
55103		-6.695771	-1.314053	7.089801	-0.000211	0.004776	-0.007356	0.203369	0.079834	-0.739014	-10.319025	42.711994	140.713016
55104		-6.678322	-1.304552	7.076011	-0.001189	0.003568	-0.010589	0.193604	0.100586	-0.740967	-10.322383	42.710138	140.707965
55105		-6.713697	-1.325615	7.102757	0.000254	0.003916	-0.011052	0.200439	0.090088	-0.742920	-10.325005	42.708015	140.703154
55106		-6.679900	-1.321519	7.106266	-0.000773	0.004960	-0.008789	0.207275	0.087158	-0.737793	-10.327849	42.706722	140.700720
55107		-6.699351	-1.279559	7.068611	0.002084	0.001784	-0.007121	0.199707	0.086670	-0.743408	-10.327176	42.703801	140.699223
55108		-6.662419	-1.312547	7.092411	-0.002167	0.002358	-0.013821	0.199219	0.088135	-0.742432	-10.332825	42.700787	140.692322
55109		-6.691054	-1.324234	7.046789	-0.002362	0.006189	-0.007959	0.206055	0.091553	-0.738037	-10.335553	42.700263	140.689567
55110		-6.701039	-1.297360	7.098612	0.001697	0.004264	-0.011516	0.202637	0.081787	-0.738037	-10.338099	42.698531	140.684486
55111		-6.699842	-1.282695	7.067577	-0.002167	0.002356	-0.013822	0.202393	0.087646	-0.728516	-10.343401	42.695243	140.677771
55112		-6.713287	-1.315334	7.070155	0.001135	0.004448	-0.012949	0.199219	0.087891	-0.736816	-10.346830	42.693537	140.671007
55113		-6.665619	-1.347844	7.152618	-0.000870	0.004282	-0.013919	0.205566	0.081787	-0.738037	-10.351620	42.691324	140.663949
55114		-6.694336	-1.359330	7.106938	0.002528	0.007051	-0.007917	0.196289	0.084473	-0.737305	-10.351865	42.691558	140.660695
55115		-6.679868	-1.312333	7.073112	0.004235	0.000371	-0.006519	0.205322	0.083008	-0.738525	-10.349511	42.687902	140.659861
55116		-6.697340	-1.322991	7.086656	-0.000752	-0.001169	-0.011690	0.210205	0.088135	-0.743652	-10.352763	42.683052	140.654768
55117		-6.666264	-1.281719	7.070324	0.002965	0.002317	-0.009018	0.205566	0.084473	-0.729736	-10.352620	42.680235	140.651744
55118		-6.654189	-1.266201	7.098181	-0.001606	0.002169	-0.012390	0.199951	0.084229	-0.742676	-10.357178	42.677474	140.645858
55119		-6.666247	-1.283292	7.070055	0.002308	0.001823	-0.015580	0.200439	0.090332	-0.744385	-10.360774	42.673704	140.637874
55120		-6.671682	-1.278233	7.111459	-0.000579	0.001124	-0.014654	0.197754	0.081299	-0.730713	-10.365809	42.669759	140.630589
55121		-6.622686	-1.295299	7.163159	-0.000137	0.006390	-0.015450	0.195557	0.087402	-0.738037	-10.371171	42.668575	140.622066
55122		-6.629532	-1.318659	7.093185	-0.003732	0.007451	-0.015590	0.197021	0.087402	-0.743896	-10.379002	42.668059	140.612892
55123		-6.686984	-1.328725	7.143831	-0.001486	0.006717	-0.009858	0.193848	0.082275	-0.744141	-10.382262	42.667635	140.608610
55124		-6.668514	-1.303894	7.098990	-0.002756	0.008661	-0.012357	0.200195	0.089844	-0.742188	-10.387936	42.667992	140.601804
55125		-6.685263	-1.299415	7.081140	-0.002368	0.006183	-0.007962	0.205078	0.084961	-0.742676	-10.390665	42.667462	140.599050
55126		-6.682629	-1.337341	7.100738	-0.002757	0.008661	-0.012358	0.206299	0.080566	-0.742432	-10.396478	42.668108	140.592448
55127		-6.682968	-1.338241	7.100249	-0.001339	0.005138	-0.010225	0.195557	0.085693	-0.745850	-10.399694	42.666756	140.588106
55128		-6.665645	-1.328744	7.086361	-0.000925	0.006533	-0.008425	0.198242	0.085449	-0.738525	-10.401997	42.666531	140.584354
55129		-6.690945	-1.281011	7.089938	-0.000044	0.007066	-0.010321	0.208496	0.081543	-0.737549	-10.404704	42.666254	140.579667
55130		-6.683910	-1.340341	7.098966	-0.001339	0.005138	-0.010225	0.195801	0.084717	-0.735596	-10.408102	42.665212	140.574755
55131		-6.688380	-1.319598	7.109340	-0.001192	0.003560	-0.010592	0.201660	0.079102	-0.744141	-10.411272	42.662931	140.570355
55132		-6.671011	-1.310066	7.095507	0.000517	0.006882	-0.008888	0.200195	0.095703	-0.746582	-10.412984	42.662813	140.566093
55133		-6.658002	-1.279131	7.092285	-0.002463	0.005503	-0.013093	0.197510	0.089844	-0.737305	-10.418366	42.661368	140.559504
55134		-6.638911	-1.322286	7.129315	0.001960	0.007232	-0.009351	0.199463	0.084717	-0.736816	-10.420027	42.661369	140.556052
55135		-6.731224	-1.364962	7.065190	-0.000217	0.004770	-0.007359	0.199951	0.085693	-0.737793	-10.421076	42.660105	140.553960
55136		-6.689743	-1.322719	7.107477	0.003378	0.003712	-0.007218	0.201660	0.093750	-0.740234	-10.420144	42.658436	140.551779
55137		-6.701864	-1.339313	7.079309	0.000079	0.001615	-0.008093	0.202393	0.089844	-0.740479	-10.421102	42.655317	140.549569
55138		-6.664482	-1.275494	7.132500	0.004236	0.000374	-0.006518	0.201660	0.086670	-0.743408	-10.419300	42.651893	140.549111
55139		-6.654613	-1.303472	7.080224	-0.001192	0.003557	-0.010593	0.199463	0.096191	-0.741455	-10.422470	42.649610	140.544712
55140		-6.621924	-1.314804	7.114755	0.001109	0.000571	-0.010356	0.200439	0.084473	-0.745117	-10.424433	42.645823	140.541255
55141		-6.650513	-1.326034	7.069145	0.003494	0.008261	-0.004685	0.202393	0.081299	-0.738281	-10.422300	42.646803	140.540720
55142		-6.724576	-1.330157	7.102316	0.000218	0.010035	-0.008156	0.204590	0.084961	-0.735840	-10.424129	42.648630	140.536634
55143		-6.728474	-1.389927	7.052343	-0.000515	0.007924	-0.006627	0.203125	0.079346	-0.735840	-10.425269	42.649219	140.534659
55144		-6.678339	-1.294281	7.102303	0.005966	0.007568	-0.007410	0.195801	0.082275	-0.739502	-10.423188	42.649890	140.531391
55145		-6.644937	-1.289557	7.105621	0.004546	0.011087	-0.009544	0.199463	0.091309	-0.727539	-10.423244	42.651959	140.526734
55146		-6.676392	-1.332096	7.121244	-0.000756	0.008820	-0.011391	0.198730	0.090332	-0.738281	-10.427429	42.652690	140.520856
55147		-6.693189	-1.326966	7.103441	0.005886	0.005954	0.000684	0.199219	0.086182	-0.739258	-10.420919	42.652927	140.524759
55148		-6.721770	-1.337849	7.057861	0.002966	0.002315	-0.009018	0.198975	0.084473	-0.737793	-10.421162	42.650235	140.521766
55149		-6.674683	-1.301384	7.058780	0.007707	0.004764	-0.008605	0.197510	0.090332	-0.734131	-10.418316	42.648838	140.518720
55150		-6.633186	-1.258812	7.101225	0.007444	0.001791	-0.010772	0.199219	0.077637	-0.734619	-10.416829	42.645674	140.514375
55151		-6.612650	-1.285902	7.107715	0.004992	0.006353	-0.010645	0.201904	0.077881	-0.736328	-10.416749	42.644961	140.509542
55152		-6.643878	-1.328336	7.123562	0.002839	0.007760	-0.011250	0.196289	0.081787	-0.736816	-10.418254	42.645223	140.502868
55153		-6.691636	-1.365600	7.121850	-0.001377	0.011256	-0.007331	0.204346	0.088623	-0.742920	-10.420571	42.647617	140.499883
55154		-6.656917	-1.345506	7.094384	0.004671	0.005638	-0.007315	0.200439	0.088379	-0.749268	-10.419127	42.647022	140.497395
55155		-6.682355	-1.297452	7.097945	-0.001400	0.007387	-0.004734	0.199463	0.086182	-0.738281	-10.419740	42.647505	140.496946
55156		-6.626813	-1.304048	7.077317	0.003789	0.005105	-0.005418	0.196289	0.086914	-0.745117	-10.417846	42.646746	140.496227
55157		-6.649142	-1.292875	7.101083	0.004521	0.007215	-0.006949	0.197021	0.084717	-0.740479	-10.416199	42.646903	140.494105
55158		-6.742633	-1.351135	7.067641	-0.001811	0.005990	-0.006535	0.203613	0.085449	-0.745361	-10.418104	42.646407	140.492279
55159		-6.713193	-1.324941	7.082014	0.004800	0.000191	-0.005082	0.200439	0.086182	-0.739990	-10.414659	42.642798	140.492576
55160		-6.692337	-1.351967	7.088815	-0.001383	-0.002610	-0.005034	0.204346	0.087402	-0.742920	-10.414734	42.637836	140.493055
55161		-6.662649	-1.325698	7.103439	0.002325	0.000884	-0.002358	0.198486	0.086914	-0.741455	-10.411360	42.634900	140.495340
55162		-6.649491	-1.293887	7.100571	0.001293	0.001929	-0.000096	0.202148	0.080322	-0.733154	-10.407843	42.632990	140.499128
55163		-6.628987	-1.320466	7.107125	0.002264	0.003143	0.003138	0.196777	0.075684	-0.739502	-10.401867	42.631896	140.505305
55164		-6.650027	-1.293347	7.100168	0.003878	0.005786	-0.000288	0.191406	0.081055	-0.743164	-10.396912	42.632134	140.507374
55165		-6.671174	-1.266182	7.093114	0.001082	0.005765	0.005766	0.203125	0.090332	-0.742676	-10.390501	42.632788	140.515196
55166		-6.663949	-1.228062	7.131504	0.001704	0.003324	0.001704	0.202148	0.082764	-0.739746	-10.385870	42.631674	140.520064
55167		-6.642210	-1.239289	7.107175	-0.000861	0.003336	-0.000702	0.204834	0.090820	-0.745117	-10.383696	42.630289	140.523272
55168		-6.700353	-1.276940	7.046935	-0.003014	0.004743	-0.001309	0.200439	0.089600	-0.733154	-10.383534	42.629924	140.525711
55169		-6.712035	-1.265286	7.129463	-0.003725	0.006501	-0.002377	0.203369	0.094238	-0.739746	-10.384172	42.630151	140.527191
55170		-6.709853	-1.427220	7.009301	-0.005061	-0.003164	0.002916	0.193115	0.080322	-0.741943	-10.382524	42.625758	140.534605
55171		-6.650192	-1.181544	7.097042	0.003896	-0.004210	-0.000587	0.199707	0.088135	-0.746338	-10.376850	42.620133	140.538959
55172		-6.607235	-1.315694	7.050885	-0.002368	-0.008621	0.007555	0.197754	0.083984	-0.738281	-10.370289	42.612849	140.549818
55173		-6.527083	-1.288382	7.087207	0.013360	-0.004107	0.016065	0.199463	0.080566	-0.735352	-10.350571	42.608997	140.566906
55174		-6.595981	-1.311552	7.110885	0.011402	-0.011333	0.025419	0.203369	0.088623	-0.732910	-10.326566	42.602195	140.591589
55175		-6.528839	-1.314412	7.150500	0.012911	-0.014171	0.032685	0.197510	0.085205	-0.743896	-10.297550	42.594364	140.622799
55176		-6.612005	-1.396797	7.065964	0.007088	0.000547	0.037727	0.197998	0.085938	-0.736816	-10.271013	42.595558	140.655810
55177		-6.695791	-1.370328	7.152040	0.000789	-0.006803	0.035244	0.198242	0.085205	-0.742188	-10.248317	42.592121	140.687947
55178		-6.704081	-1.337548	7.031877	0.000902	-0.002256	0.037774	0.202881	0.084717	-0.739990	-10.224977	42.591615	140.721270
55179		-6.713526	-1.307681	7.084906	-0.001029	-0.024678	0.030711	0.196777	0.090332	-0.736328	-10.204013	42.577620	140.752393
55180		-6.687583	-1.450412	7.053491	-0.006565	-0.026977	0.037322	0.204102	0.088379	-0.741211	-10.183021	42.563203	140.788995
55181		-6.775057	-1.350332	7.101307	-0.003969	-0.043123	0.036529	0.204834	0.081787	-0.738525	-10.159050	42.539377	140.827075
55182		-6.673348	-1.296774	7.095752	-0.005065	-0.048891	0.030763	0.195557	0.081055	-0.736084	-10.138497	42.512122	140.861274
55183		-6.691021	-1.268055	7.092194	-0.004240	-0.046107	0.034358	0.200195	0.083252	-0.739990	-10.115591	42.486372	140.898044
55184		-6.739241	-1.185011	7.133978	-0.008079	-0.044151	0.029453	0.198242	0.089844	-0.740479	-10.097792	42.461416	140.930268
55185		-6.777498	-1.307453	7.034462	-0.012603	-0.046561	0.020584	0.200195	0.081787	-0.739014	-10.086802	42.434012	140.956519
55186		-6.702685	-1.238369	7.094494	-0.008740	-0.049848	0.006767	0.196045	0.081543	-0.742432	-10.080787	42.403627	140.972563
55187		-6.585635	-1.372763	7.189168	-0.013698	-0.037517	-0.000696	0.192871	0.077881	-0.736084	-10.082250	42.379186	140.981301
55188		-6.561899	-1.303713	7.227150	-0.002102	-0.031793	0.006211	0.198242	0.083740	-0.738770	-10.074067	42.358774	140.993747
55189		-6.487995	-1.315365	7.225576	-0.007177	-0.018820	0.012339	0.196533	0.085693	-0.742188	-10.066811	42.346185	141.009888
55190		-6.534622	-1.351179	7.225455	-0.008727	-0.008529	0.026694	0.194580	0.091797	-0.748535	-10.054287	42.341067	141.035376
55191		-6.588417	-1.231148	7.244676	0.002772	-0.003484	0.028470	0.194336	0.087646	-0.747559	-10.034444	42.338737	141.061746
55192		-6.645754	-1.250866	7.154303	0.000793	0.000225	0.024907	0.194580	0.090576	-0.745850	-10.018396	42.338157	141.085300
55193		-6.671981	-1.215881	7.189367	0.011010	-0.002789	0.023881	0.185547	0.086426	-0.746826	-9.996259	42.335750	141.108070
55194		-6.573407	-1.162363	7.180451	0.005569	0.006538	0.022715	0.182373	0.077637	-0.742676	-9.979116	42.338338	141.129023
55195		-6.588733	-1.208090	7.213731	-0.002455	0.005883	0.018846	0.200195	0.083496	-0.738770	-9.968067	42.340315	141.146784
55196		-6.619599	-1.233233	7.198513	0.005096	0.018344	0.013497	0.192139	0.086426	-0.743408	-9.956621	42.348770	141.158179
55197		-6.714338	-1.369791	7.104721	0.014880	0.020062	0.013573	0.196045	0.077148	-0.739502	-9.939626	42.358221	141.170019
55198		-6.646996	-1.261351	7.140507	0.033580	0.016833	0.012724	0.192871	0.083252	-0.741455	-9.912189	42.365848	141.181180
55199		-6.625801	-1.173970	7.144511	0.013754	0.020429	0.010705	0.191406	0.084473	-0.741699	-9.897337	42.375217	141.190793
55200		-6.589138	-1.189372	7.136447	0.011650	0.019588	0.004609	0.200439	0.079590	-0.747803	-9.887009	42.383498	141.195727
55201		-6.543332	-1.152068	7.136020	0.008970	0.025060	-0.000023	0.193115	0.075195	-0.744385	-9.880833	42.394423	141.196532
55202		-6.526288	-1.193908	7.171557	0.003486	0.036643	0.004296	0.206543	0.087402	-0.739258	-9.876517	42.412450	141.198157
55203		-6.650261	-1.165881	7.120107	-0.013307	0.039357	0.000973	0.190430	0.087158	-0.742188	-9.883874	42.431542	141.197820
55204		-6.585830	-1.253413	7.095977	-0.009894	0.035991	0.004074	0.196289	0.084473	-0.742432	-9.887837	42.449279	141.200578
55205		-6.656041	-1.263299	7.086161	-0.010795	0.025458	0.005670	0.194336	0.080811	-0.742432	-9.890081	42.460988	141.205685
55206		-6.689234	-1.224869	7.160850	-0.009428	0.019001	-0.002817	0.193359	0.086182	-0.742676	-9.895534	42.468285	141.204881
55207		-6.676716	-1.275117	7.096509	-0.010515	0.023241	-0.008280	0.198242	0.086182	-0.744629	-9.904626	42.477370	141.199607
55208		-6.672843	-1.269900	7.195268	-0.012647	0.018529	-0.011781	0.197510	0.084961	-0.749512	-9.916689	42.483511	141.192411
55209		-6.718234	-1.358060	7.071121	-0.027700	0.017491	-0.003095	0.192871	0.089600	-0.743164	-9.932432	42.489860	141.191869
55210		-6.652543	-1.365484	7.108519	-0.013126	0.008446	0.004830	0.203125	0.085693	-0.740967	-9.935301	42.491886	141.198831
55211		-6.571345	-1.297748	7.223061	-0.038534	0.022941	0.001971	0.196045	0.091309	-0.746338	-9.955129	42.501813	141.201431
55212		-6.447875	-1.293012	7.035853	-0.011852	0.031664	0.024052	0.191895	0.077881	-0.745361	-9.949501	42.519060	141.220057
55213		-6.416969	-1.177826	7.207988	-0.005398	0.052579	0.042589	0.201660	0.083008	-0.740479	-9.932000	42.549730	141.249791
55214		-6.821688	-1.291699	7.167066	-0.024120	0.046756	0.029873	0.203125	0.090332	-0.745361	-9.931284	42.575932	141.269919
55215		-6.717682	-1.283035	7.134097	-0.014317	0.042341	0.027071	0.201904	0.089355	-0.738037	-9.925970	42.599286	141.289165
55216		-6.539549	-1.323215	7.117842	-0.002089	0.072659	0.020237	0.201904	0.079346	-0.742676	-9.920471	42.639378	141.299529
55217		-6.530623	-1.519759	7.071689	-0.028161	0.070607	0.057843	0.196289	0.084717	-0.738770	-9.909616	42.681718	141.338631
55218		-6.577114	-1.542039	6.993382	0.031041	0.075812	0.075737	0.201660	0.082031	-0.731201	-9.856046	42.728864	141.390341
55219		-6.340540	-1.449874	7.196632	0.062269	0.113584	0.115356	0.196045	0.086670	-0.741211	-9.767059	42.801031	141.468127
55220		-6.396366	-1.344791	7.154634	0.076269	0.177773	0.166473	0.199463	0.079590	-0.739502	-9.649048	42.914378	141.577010
55221		-6.136342	-1.135055	7.254697	0.070470	0.213701	0.232499	0.206055	0.083496	-0.742188	-9.501890	43.054038	141.732905
55222		-6.657204	-1.329503	7.258075	0.049358	0.269707	0.284543	0.207031	0.079102	-0.746826	-9.343481	43.230002	141.922565
55223		-6.377769	-1.001135	7.295467	0.073928	0.326250	0.255008	0.206543	0.075928	-0.739014	-9.190120	43.434767	142.083605
55224		-6.368997	-0.687128	7.363133	0.046027	0.434993	0.252901	0.206299	0.084717	-0.739014	-9.061987	43.700577	142.230183
55225		-6.746526	-0.815298	7.388904	0.017095	0.523101	0.251947	0.215332	0.076416	-0.739746	-8.956892	44.015935	142.367013
55226		-6.531676	-1.142568	7.086260	-0.000081	0.506151	0.252709	0.222168	0.075439	-0.723145	-8.858542	44.321474	142.508155
55227		-6.712868	-1.178606	7.225714	0.050268	0.525557	0.278612	0.230469	0.075439	-0.740234	-8.716542	44.640172	142.669008
55228		-6.690428	-1.205154	7.151443	0.110298	0.550492	0.292366	0.232422	0.070313	-0.737305	-8.532531	44.974164	142.839632
55229		-6.468452	-1.335288	7.332595	0.248980	0.572841	0.316979	0.232666	0.074219	-0.730225	-8.253934	45.322075	143.030690
55230		-6.332150	-1.315268	7.363276	0.354635	0.646509	0.362962	0.231445	0.065918	-0.724121	-7.890698	45.714840	143.254197
55231		-6.412320	-1.032281	7.934244	0.452078	0.791701	0.370795	0.248291	0.063965	-0.724854	-7.473160	46.189445	143.474048
55232		-6.537869	-0.920835	8.035907	0.389595	1.001948	0.331275	0.256592	0.062012	-0.726318	-7.125072	46.779672	143.645409
55233		-6.282306	-1.233074	8.188922	0.333001	1.229211	0.296992	0.262451	0.050537	-0.717041	-6.840912	47.496052	143.772104
55234		-6.547999	-1.307305	7.524740	0.339872	1.449809	0.345320	0.271729	0.052246	-0.718262	-6.532030	48.340984	143.924770
55235		-6.271209	-1.769538	7.543519	0.402321	1.637180	0.426693	0.284180	0.041992	-0.717773	-6.138308	49.296866	144.140951
55236		-6.287054	-1.810238	7.417451	0.423172	1.822544	0.503090	0.296631	0.041504	-0.711182	-5.679458	50.361763	144.422484
55237		-6.427709	-1.585529	7.554558	0.368141	2.034101	0.458473	0.312744	0.035889	-0.708984	-5.279383	51.543532	144.665374
55238		-6.318002	-1.118431	8.340366	0.087579	2.359012	0.234927	0.333496	0.039063	-0.691650	-5.211247	52.898165	144.686437
55239		-5.282520	-0.689640	8.057435	-0.157965	2.793746	0.155128	0.357910	0.036865	-0.683350	-5.378046	54.496782	144.591175
55240		-5.069465	-0.830779	8.022761	-0.159893	3.373642	0.253259	0.372559	0.035400	-0.672852	-5.522020	56.432446	144.526631
55241		-5.230572	-1.346471	7.789675	-0.189740	3.956210	0.341092	0.415771	0.029053	-0.660400	-5.667504	58.704003	144.482505
55242		-6.449995	-1.029915	7.945889	-0.092646	4.507107	0.530299	0.434570	0.035400	-0.636230	-5.629118	61.302116	144.584873
55243		-7.732640	-0.663191	7.467958	-0.110086	4.953063	0.602999	0.474854	0.026123	-0.610107	-5.555664	64.156737	144.737884
55244		-10.300984	-0.552035	7.552397	-0.082456	5.235812	0.780383	0.514160	0.025146	-0.589600	-5.231501	67.186365	145.142301
55245		-14.680406	0.223116	8.702511	-0.096111	5.627602	0.864269	0.543213	0.021240	-0.560547	-4.728149	70.438132	145.740449
55246		-17.454101	-1.044416	10.336031	-0.105166	5.418764	0.768084	0.574951	0.017822	-0.528809	-4.163502	73.570015	146.394485
55247		-17.854826	-0.330671	10.605565	0.023894	5.438301	0.733518	0.602539	0.009521	-0.490967	-3.325432	76.703285	147.246568
55248		-15.578442	-0.507140	11.083690	0.188900	5.402579	0.593319	0.622070	0.004883	-0.456543	-2.298148	79.809596	148.183829
55249		-14.995604	-0.174136	12.948132	0.334684	5.438025	0.438396	0.654785	-0.004150	-0.430908	-1.030703	82.927851	149.270884
55250		-13.412258	-0.368758	13.831197	0.529617	5.399496	0.265493	0.676514	-0.010498	-0.386719	0.808608	86.017199	150.812813
55251		-9.577488	-1.237314	13.774527	0.808322	5.447172	0.145136	0.697754	-0.020996	-0.344971	10.573104	89.120863	160.118507
55252		3.997415	-1.832443	12.329018	1.235699	5.627097	-0.097253	0.718750	-0.025879	-0.300293	177.603519	87.641931	-33.555277
55253		3.442641	-2.110835	13.363552	1.749585	7.134595	0.431190	0.744141	-0.036133	-0.251465	177.591989	83.550827	-34.572523
55254		-38.680452	-1.031987	11.840443	1.705082	5.283444	-0.447917	0.756836	-0.039307	-0.213135	-179.289252	80.533363	-32.411101
55255		-23.190470	-0.551685	19.712157	1.903879	1.262578	-1.405648	0.771484	-0.037598	-0.201172	-173.829699	79.766211	-27.977724
55256		-13.627580	2.295921	24.320408	1.531715	-1.183836	-1.723073	0.759766	-0.032227	-0.213135	-166.773504	80.276520	-21.704747
55257		-1.015966	1.989560	17.232314	1.012546	-1.973197	-2.155789	0.766602	-0.027832	-0.221191	-156.948305	80.972939	-12.335801
55258		3.382607	0.427180	11.621755	0.826211	-2.066267	-2.351764	0.763428	-0.021973	-0.235352	-145.164942	81.366896	-0.891461
55259		2.299805	-1.482599	10.290878	0.947368	-2.042557	-2.367512	0.757813	-0.008545	-0.242920	-132.798165	81.364019	11.066541
55260		0.660304	-2.353810	9.796558	1.265367	-2.097251	-2.208112	0.753662	-0.003418	-0.260498	-120.880832	81.077531	22.390116
55261		-2.196190	-2.401693	10.052032	1.680235	-2.401722	-1.902371	0.750488	0.004395	-0.270508	-109.250146	80.675227	33.193347
55262		-5.076825	-1.615410	10.630594	2.026507	-2.963943	-1.569448	0.735840	0.003418	-0.302979	-97.000392	80.187191	44.436549
55263		-6.169649	-0.283481	10.708759	2.194973	-3.646070	-1.304058	0.739014	0.008057	-0.309326	-84.026769	79.457405	56.337614
55264		-5.510433	0.463329	10.000580	2.160882	-4.225802	-1.132523	0.720947	0.002686	-0.343018	-71.385338	78.302641	67.955995
55265		-4.603088	0.080986	8.815513	2.062952	-4.585223	-0.977713	0.710205	0.001221	-0.370117	-60.379666	76.712625	78.014999
55266		-3.991392	-0.844031	7.762341	2.023774	-4.730673	-0.788571	0.699951	-0.002686	-0.395264	-51.332569	74.809705	86.149311
55267		-4.397011	-1.437518	7.383947	2.089337	-4.755623	-0.538898	0.667480	-0.010498	-0.423340	-43.913412	72.741252	92.627096
55268		-5.729049	-1.382293	7.865952	2.128789	-4.749838	-0.256734	0.650635	-0.012939	-0.449463	-37.637809	70.576610	97.950766
55269		-7.562507	-1.582829	8.432219	2.114361	-4.812375	0.026516	0.632813	-0.029053	-0.487305	-32.171239	68.320756	102.493155
55270		-8.912244	-2.242681	8.518301	2.086077	-4.918063	0.279356	0.620117	-0.042480	-0.500732	-27.310417	65.945022	106.468661
55271		-10.468690	-2.661921	8.154763	2.146156	-4.998689	0.523787	0.590088	-0.048340	-0.514893	-22.922819	63.475846	109.959496
55272		-12.003230	-1.880872	8.157345	2.165054	-5.053304	0.751598	0.569092	-0.069580	-0.538330	-18.942456	60.916300	113.054263
55273		-12.667318	-0.484130	8.569301	1.988684	-5.070337	0.943930	0.559814	-0.077148	-0.564209	-15.450528	58.297537	115.779847
55274		-13.589529	0.816544	9.390279	1.604977	-5.042667	1.106029	0.527100	-0.085938	-0.575439	-12.500619	55.637263	118.199044
55275		-14.945372	1.538971	10.202660	1.078802	-5.060226	1.232498	0.510986	-0.090332	-0.593750	-10.123048	52.929242	120.364627
55276		-16.053682	0.865352	10.451742	0.576634	-5.130242	1.351845	0.498535	-0.092529	-0.613037	-8.231306	50.141075	122.356195
55277		-17.188976	-0.583435	9.966653	0.293468	-5.240388	1.504598	0.466797	-0.094971	-0.636963	-6.643172	47.271717	124.244761
55278		-18.483530	-1.479769	8.937992	0.242589	-5.352741	1.702338	0.453125	-0.108398	-0.657471	-5.175353	44.311478	126.095893
55279		-19.596100	-1.432856	7.320285	0.285185	-5.429488	1.884478	0.432129	-0.110107	-0.669189	-3.786610	41.290673	127.897811
55280		-20.292453	-0.604159	5.597042	0.263511	-5.424387	2.043528	0.415771	-0.104736	-0.712402	-2.515289	38.241867	129.646475
55281		-20.564528	0.536852	4.029099	0.062971	-5.306955	2.153472	0.394043	-0.108643	-0.734863	-1.476880	35.242160	131.320519
55282		-20.514896	1.427973	2.454691	-0.270476	-5.071887	2.167818	0.378418	-0.115723	-0.760742	-0.758634	32.351528	132.887614
55283		-20.313562	1.379824	0.512571	-0.639404	-4.728773	2.125366	0.355713	-0.119873	-0.792236	-0.375097	29.650482	134.342295
55284		-18.826961	0.303327	-1.272896	-0.933427	-4.297203	2.099163	0.343994	-0.117432	-0.822021	-0.248652	27.186230	135.729014
55285		-16.712539	-2.812195	-2.667512	-1.050331	-3.731674	2.198907	0.329834	-0.114746	-0.857178	-0.226687	25.049579	137.144726
55286		-16.470495	-3.850100	-3.492404	-0.929163	-3.101197	2.408329	0.307129	-0.105469	-0.882813	-0.134976	23.269081	138.666786
55287		-15.894200	-2.030763	-3.872252	-1.011037	-2.513522	2.494211	0.294678	-0.105225	-0.914307	-0.118044	21.828310	140.220238
55288		-17.447055	-1.001449	-4.889997	-1.435895	-1.871027	2.377867	0.291260	-0.093262	-0.940918	-0.405835	20.755281	141.690998
55289		-23.038503	-0.624678	-6.707861	-1.809234	-1.546997	1.952115	0.286621	-0.087646	-0.955078	-1.022878	19.879234	142.898033
55290		-22.844424	-2.899813	-9.807853	-1.837600	-1.441872	1.339199	0.280029	-0.066162	-0.979736	-1.795530	19.066010	143.736349
55291		-18.419482	-5.505065	-12.237130	-1.336963	-1.163434	0.888468	0.280518	-0.059570	-1.001465	-2.379356	18.414782	144.301931
55292		-14.229502	-6.232629	-12.393618	-0.584504	-0.494600	0.734033	0.278320	-0.051758	-1.014648	-2.569877	18.144709	144.760329
55293		-2.456541	-3.264779	-7.378582	0.039802	1.700246	0.597081	0.312500	-0.043457	-1.018555	-2.444793	19.129320	145.078816
55294		-5.668233	-3.645244	-21.419580	0.147686	3.514624	0.394395	0.376465	-0.045654	-1.008789	-2.306612	21.146078	145.233258
55295		1.214336	2.852475	8.649265	0.315341	4.917953	-0.886452	0.437012	-0.037598	-0.990479	-2.382851	23.937151	144.561895
55296		-19.312919	4.341844	17.725959	-1.107315	4.847851	-1.918396	0.508057	-0.026367	-0.983398	-3.603165	26.649320	143.190559
55297		-14.836863	1.642802	12.015875	-1.853597	3.448548	-2.817121	0.553955	0.023682	-0.961670	-5.586179	28.486225	141.200246
55298		-8.851757	-1.342354	4.687242	-1.931158	2.964423	-2.030995	0.608154	0.064453	-0.952881	-7.446406	30.037956	139.657497
55299		-7.172846	-1.782460	7.615915	-0.789184	2.896780	0.021703	0.653564	0.078857	-0.935547	-8.022464	31.680922	139.415088
55300		-10.053632	6.728711	12.621828	-0.469724	2.730489	1.351021	0.688477	0.068359	-0.919922	-7.939019	33.334162	140.070097
55301		-12.054937	-4.927263	9.808097	-1.084424	2.994156	0.761611	0.732178	0.081543	-0.889648	-8.430250	35.091015	140.300659
55302		-14.144604	-17.089716	7.082829	-0.426590	2.969745	0.441070	0.778564	0.077637	-0.875244	-8.674044	36.807837	140.300651
55303		-18.780523	-9.654521	9.290384	0.162724	2.592783	0.320589	0.812500	0.072510	-0.850342	-8.610004	38.300833	140.251937
55304		-18.149856	2.855967	11.071590	0.091692	1.818170	0.276507	0.837158	0.090088	-0.840332	-8.554072	39.351507	140.256986
55305		-12.584737	3.554649	9.700843	-0.160355	1.161148	0.178857	0.848877	0.088135	-0.831543	-8.641416	40.021345	140.263310
55306		-8.131230	-3.541860	7.203905	-0.304449	0.947645	0.141344	0.865234	0.083984	-0.821533	-8.814993	40.567550	140.263987
55307		-11.231630	-1.766243	8.297715	-0.245541	0.865036	0.043864	0.876709	0.086670	-0.812500	-8.997400	41.057816	140.199395
55308		-11.194037	-0.942835	6.517297	-0.291727	0.180617	-0.111299	0.875977	0.089844	-0.809326	-9.230933	41.147259	140.097836
55309		-5.323151	-0.550208	7.941083	-0.140985	0.322039	-0.083764	0.879395	0.099609	-0.802246	-9.376206	41.318330	139.999235
55310		-7.789627	-1.632203	6.748324	-0.176200	0.172791	-0.111505	0.880859	0.093994	-0.808105	-9.544058	41.402939	139.897396
55311		-6.651029	-1.121342	7.531787	-0.114427	0.168706	-0.091931	0.882324	0.099854	-0.795410	-9.666525	41.486215	139.810674
55312		-6.637112	-1.245247	7.123000	-0.125990	0.153519	-0.085410	0.879395	0.102295	-0.800049	-9.791658	41.562138	139.730216
55313		-6.496546	-1.397987	7.240436	-0.105704	0.145299	-0.084506	0.887451	0.100098	-0.801758	-9.903992	41.632652	139.651490
55314		-6.807315	-1.878520	7.320344	-0.098617	0.150889	-0.062664	0.888916	0.108398	-0.800781	-10.002329	41.709111	139.587983
55315		-6.337857	-1.591284	7.140489	-0.074076	0.147657	-0.038897	0.894043	0.105469	-0.799561	-10.074272	41.785315	139.542934
55316		-6.550910	-1.542054	7.438604	-0.072757	0.149529	0.006222	0.893799	0.110107	-0.801514	-10.123331	41.867807	139.531323
55317		-6.869627	-1.464557	7.227873	-0.066510	0.135435	-0.002097	0.890381	0.101563	-0.801025	-10.171503	41.940768	139.515512
55318		-6.654704	-1.334362	7.214377	-0.062886	0.126691	0.003294	0.889404	0.107422	-0.797363	-10.214483	42.010071	139.504577
55319		-6.888664	-1.278381	7.092658	-0.035751	0.099010	0.008203	0.889404	0.102051	-0.786621	-10.236594	42.063524	139.501407
55320		-6.769146	-1.170118	7.201961	-0.038133	0.090495	-0.002573	0.890625	0.112549	-0.787354	-10.265139	42.111822	139.490874
55321		-6.565555	-1.256311	7.181649	-0.027367	0.078198	0.011267	0.899658	0.106445	-0.788574	-10.279006	42.153854	139.492838
55322		-6.677796	-1.506474	7.242954	-0.020660	0.060944	0.020654	0.892334	0.108398	-0.792725	-10.282979	42.187867	139.504006
55323		-6.676312	-1.385105	7.163185	-0.000381	0.067405	0.024451	0.893555	0.104248	-0.785400	-10.273644	42.225163	139.517489
55324		-6.700023	-1.409690	7.203164	-0.008283	0.064310	0.015045	0.888428	0.109863	-0.787842	-10.273696	42.260501	139.523933
55325		-6.734287	-1.480253	7.104792	0.003462	0.061675	0.032014	0.894775	0.105957	-0.785645	-10.257719	42.295336	139.543996
55326		-6.625907	-1.398845	7.220732	0.015928	0.061935	0.034187	0.904297	0.106934	-0.791260	-10.233837	42.331288	139.565386
55327		-6.821175	-1.396037	7.188958	0.036125	0.063010	0.048755	0.901367	0.104004	-0.789795	-10.190601	42.368562	139.598106
55328		-6.744529	-1.376158	7.080474	0.055944	0.048187	0.040411	0.903320	0.105469	-0.788086	-10.139244	42.397369	139.626217
55329		-6.688728	-1.255559	7.155673	0.053978	0.044944	0.028803	0.899414	0.103760	-0.784424	-10.094296	42.422406	139.646273
55330		-6.606002	-1.257702	7.037885	0.060292	0.042356	0.031031	0.889893	0.106934	-0.781250	-10.044676	42.446953	139.668091
55331		-6.546598	-1.174399	7.133686	0.041393	0.050813	0.029452	0.900391	0.093994	-0.796143	-10.007078	42.475342	139.687920
55332		-6.465302	-1.215515	7.207990	0.030073	0.070125	0.022093	0.907471	0.107910	-0.785645	-9.981861	42.514649	139.699218
55333		-6.641719	-1.344796	7.054418	0.027632	0.075386	0.027295	0.906250	0.107666	-0.785400	-9.955439	42.556676	139.714149
55334		-6.591261	-1.301097	7.109722	0.038924	0.082822	0.034588	0.906982	0.109131	-0.783936	-9.919768	42.604373	139.733386
55335		-6.575108	-1.307326	7.081142	0.040355	0.083157	0.034121	0.904297	0.096680	-0.778809	-9.883137	42.651446	139.752602
55336		-6.461327	-1.057479	7.200084	0.050418	0.089390	0.046653	0.904541	0.105713	-0.785400	-9.835094	42.704013	139.780341
55337		-6.567060	-1.106121	7.201628	0.003957	0.111145	0.035722	0.917236	0.100586	-0.780762	-9.820907	42.767025	139.797177
55338		-6.453858	-1.092279	7.051964	-0.011781	0.131688	0.035150	0.910889	0.103760	-0.776611	-9.818215	42.842327	139.810546
55339		-6.648335	-1.118619	7.133788	0.004138	0.160591	0.066436	0.910400	0.097412	-0.774414	-9.792212	42.936248	139.844541
55340		-6.613255	-1.123245	7.045219	-0.038690	0.151469	0.063446	0.917480	0.102539	-0.773193	-9.791747	43.025467	139.877207
55341		-6.743291	-1.103547	7.114534	-0.023130	0.131753	0.040859	0.910400	0.103516	-0.782227	-9.792076	43.100607	139.895408
55342		-6.435725	-1.023201	7.143929	-0.048572	0.123109	0.016653	0.914795	0.099609	-0.774414	-9.819324	43.169255	139.895723
55343		-6.499704	-1.167467	7.177114	-0.050358	0.161633	0.041043	0.921143	0.096680	-0.771240	-9.837881	43.261291	139.910036
55344		-6.364943	-1.167928	7.231463	-0.093888	0.223643	0.049578	0.915283	0.098389	-0.769531	-9.882915	43.389909	139.922261
55345		-6.516274	-0.851649	7.056048	-0.099919	0.228454	0.025867	0.923340	0.102783	-0.769043	-9.944276	43.518177	139.915563
55346		-5.104599	-0.139006	7.656742	-0.213560	0.460725	0.015436	0.926514	0.104248	-0.766113	-10.099031	43.777166	139.868078
55347		-6.230720	-0.558090	7.465439	-0.528955	0.750928	0.141004	0.930664	0.103027	-0.759033	-10.395763	44.211719	139.876490
55348		-6.633117	-1.085818	7.176875	-0.566413	0.791478	0.047533	0.940918	0.104004	-0.753662	-10.772420	44.659962	139.801446
55349		-6.514394	-2.039716	7.324921	-0.491288	0.858901	0.073649	0.947510	0.118896	-0.745605	-11.102059	45.147975	139.732535
55350		-6.675067	-2.067632	7.111840	-0.267675	0.854565	0.101464	0.960205	0.110596	-0.732666	-11.290580	45.637051	139.682585
55351		-6.288415	-2.097699	7.669194	-0.105047	0.977762	0.174845	0.964355	0.111572	-0.723877	-11.359186	46.202885	139.670178
55352		-6.092380	-2.154795	8.284578	0.032455	1.161220	0.260032	0.985840	0.104004	-0.708252	-11.320991	46.881957	139.696646
55353		-6.317073	-2.100856	7.796503	0.071738	1.391959	0.349107	0.998047	0.115234	-0.699951	-11.232423	47.700058	139.760566
55354		-6.542880	-2.282314	7.811168	0.185358	1.624809	0.422853	1.010010	0.109863	-0.692627	-11.058028	48.657605	139.851571
55355		-6.558339	-2.305302	7.863524	0.279681	1.893086	0.470654	1.023193	0.095215	-0.666260	-10.825401	49.770562	139.946503
55356		-6.300402	-2.506719	7.884240	0.389759	2.199946	0.506804	1.035156	0.094482	-0.643555	-10.535683	51.060221	140.032199
55357		-5.998902	-2.321649	7.658802	0.517258	2.527957	0.543842	1.075928	0.084717	-0.618164	-10.176218	52.537851	140.111834
55358		-5.693963	-2.232353	7.804850	0.593958	2.897158	0.578747	1.090332	0.079590	-0.584229	-9.779371	54.227180	140.181836
55359		-5.249402	-2.377369	7.529940	0.594245	3.260297	0.622419	1.112549	0.070557	-0.557129	-9.375244	56.125246	140.258721
55360		-4.463415	-2.263910	7.746436	0.528056	3.603022	0.698224	1.139648	0.059814	-0.511719	-8.965970	58.223808	140.385307
55361		-4.578144	-2.148487	8.021962	0.309539	4.121181	0.749366	1.176270	0.051514	-0.465332	-8.677812	60.619703	140.513377
55362		-4.503329	-2.653003	7.192446	0.123756	4.908544	0.757885	1.201416	0.044434	-0.408447	-8.588191	63.461942	140.534225
55363		-9.356563	-3.937688	7.614665	0.274226	5.625188	1.376805	1.239746	0.034912	-0.347412	-7.726526	66.761013	141.309983
55364		-9.815096	-2.194953	7.480008	0.231487	5.975110	2.026293	1.272949	0.003418	-0.258789	-5.670785	70.293333	143.375190
55365		-12.410867	-1.256665	9.507951	0.192418	6.637409	2.536031	1.300049	-0.016357	-0.169922	-1.796048	74.181533	147.325133
55366		-23.614710	-1.737393	13.370405	0.038277	6.817788	2.561602	1.326660	-0.049805	-0.082031	4.556443	78.053201	153.841760
55367		-23.650868	-0.338811	12.484732	-0.080341	6.764886	2.144280	1.345947	-0.070801	-0.010742	14.993942	81.675717	164.484768
55368		-20.584833	0.665477	13.757721	-0.038553	6.588559	1.634571	1.345459	-0.103516	0.080811	35.764627	84.730585	-174.586083
55369		-16.227266	1.733674	16.631401	0.090570	6.373677	1.159344	1.364990	-0.111084	0.149170	80.461016	86.202282	-129.819119
55370		-10.195070	0.968952	17.535385	0.484181	6.329241	0.832245	1.378418	-0.125000	0.223389	125.458856	84.819527	-84.977958
55371		-2.994610	-1.824310	17.798416	1.172678	6.359246	0.584603	1.392090	-0.131104	0.293213	146.031181	81.933267	-64.953457
55372		22.011950	-5.732329	13.348592	2.557487	7.178628	0.552463	1.414307	-0.130127	0.394043	157.065513	78.157778	-55.244929
55373		-27.620726	-1.201454	13.141975	2.906612	9.325408	0.813212	1.410400	-0.125732	0.531006	163.943415	72.962797	-49.869893
55374		-36.335051	3.043068	11.763864	3.183086	4.702461	-1.278628	1.446777	-0.089111	0.578125	169.777258	70.510864	-45.648827
55375		-30.525737	2.593827	24.690249	2.735993	0.011428	-1.515937	1.514893	-0.062256	0.543457	173.776952	70.631949	-43.070493
55376		-17.414576	7.764454	25.062834	1.784593	-2.636865	-2.079168	1.607666	-0.031250	0.471680	178.008262	72.233723	-39.686133
55377		-0.266175	5.583988	15.648686	0.914980	-3.476089	-2.684138	1.683838	0.006592	0.369385	-176.272429	74.207738	-34.261795
55378		3.285244	3.823825	9.698972	0.482786	-3.406554	-3.057361	1.777344	0.057373	0.233154	-168.513446	75.924870	-26.519756
55379		2.281236	1.867405	8.465402	0.316270	-3.132838	-3.299338	1.853027	0.099609	0.105957	-158.640395	77.120845	-16.555916
55380		0.078515	0.062889	8.013539	0.434899	-2.954097	-3.254759	1.902100	0.142334	-0.035889	-147.437742	77.797982	-5.337246
55381		-3.764775	-0.893194	8.112257	0.819374	-3.131521	-2.905106	1.952148	0.174316	-0.221924	-135.576799	78.172634	6.306983
55382		-7.581809	-0.696026	8.454575	1.316319	-3.726685	-2.369352	1.963867	0.211182	-0.417236	-122.599496	78.476184	18.785101
55383		-9.533408	0.593311	8.896353	1.696483	-4.519850	-1.858889	1.935303	0.196045	-0.647217	-107.773845	78.619353	32.916629
55384		-8.726618	1.286317	7.896806	1.874971	-5.231730	-1.482409	1.848633	0.184570	-0.874023	-91.436212	78.283834	48.489751
55385		-6.352485	1.022249	6.398072	1.978548	-5.624928	-1.172438	1.716309	0.138184	-1.100830	-75.811382	77.251883	63.312469
55386		-4.609071	0.384942	5.370970	2.058597	-5.642611	-0.881515	1.560547	0.075928	-1.282471	-62.757135	75.625516	75.521914
55387		-4.392909	-0.433089	4.965982	2.157057	-5.450950	-0.565460	1.356934	0.007568	-1.413086	-52.514782	73.673854	84.857924
55388		-5.600256	-1.219511	5.411068	2.262383	-5.222088	-0.218926	1.165039	-0.065186	-1.501709	-44.286843	71.583879	92.116395
55389		-8.051911	-1.620175	6.195122	2.369888	-5.092713	0.136786	0.967529	-0.133789	-1.547607	-37.357691	69.423105	98.024112
55390		-10.138879	-1.641750	6.864218	2.398743	-5.088306	0.441061	0.780273	-0.210938	-1.557861	-31.300218	67.147614	103.060841
55391		-11.530993	-1.613940	7.296399	2.369428	-5.130625	0.710010	0.609863	-0.270996	-1.538086	-25.973843	64.758905	107.404641
55392		-12.913185	-0.939353	7.881677	2.251124	-5.178957	0.960541	0.454102	-0.330811	-1.501953	-21.265786	62.249230	111.220055
55393		-14.207113	-0.347230	8.581793	1.959235	-5.260238	1.200659	0.312500	-0.377686	-1.454834	-17.180588	59.626175	114.607446
55394		-15.253037	-0.915341	8.865494	1.636264	-5.378283	1.434784	0.182129	-0.416260	-1.400635	-13.624528	56.861406	117.682975
55395		-16.451936	-1.587488	8.726198	1.424773	-5.505375	1.654272	0.080811	-0.428467	-1.337646	-10.501473	53.970937	120.482838
55396		-17.497192	-1.530433	8.596505	1.263469	-5.615610	1.802417	-0.015381	-0.454102	-1.282227	-7.774251	50.945543	123.005263
55397		-17.613910	-1.108383	8.456654	1.088970	-5.688572	1.871052	-0.113770	-0.463135	-1.238525	-5.465699	47.827661	125.222601
55398		-17.373761	-0.879736	8.405171	0.885354	-5.678054	1.887030	-0.196045	-0.478027	-1.184082	-3.557022	44.656760	127.158870
55399		-18.244225	-0.943756	8.532342	0.683426	-5.593541	1.879817	-0.270996	-0.468018	-1.133789	-2.010442	41.504124	128.848289
55400		-19.697322	-1.422056	7.811004	0.522261	-5.545600	1.868241	-0.334717	-0.479004	-1.083984	-0.745357	38.340875	130.349344
55401		-21.092008	-2.069828	6.643319	0.436524	-5.534707	1.902929	-0.412109	-0.472412	-1.038574	0.330314	35.169809	131.727441
55402		-22.733167	-2.631285	5.395462	0.410991	-5.570784	1.999534	-0.478516	-0.471436	-0.996338	1.300554	31.950031	133.052411
55403		-23.746375	-2.622137	3.948634	0.366964	-5.637354	2.130730	-0.537598	-0.466309	-0.943359	2.169272	28.680641	134.355241
55404		-23.040492	-1.500063	2.065630	0.215663	-5.623462	2.225928	-0.596924	-0.459961	-0.887207	2.874473	25.394604	135.630352
55405		-21.444402	-0.100337	-0.542026	-0.135483	-5.363143	2.291216	-0.642578	-0.441406	-0.841064	3.304136	22.251489	136.884604
55406		-20.244250	1.500179	-3.189736	-0.691927	-4.808770	2.341294	-0.692627	-0.420898	-0.805420	3.359122	19.413119	138.149391
55407		-19.068491	2.346820	-5.949606	-1.427809	-4.064781	2.302979	-0.727783	-0.392578	-0.766357	2.933640	17.011333	139.404105
55408		-19.948442	-0.473742	-10.576367	-2.058596	-3.232127	2.221527	-0.763672	-0.361084	-0.747559	2.099037	15.096854	140.645759
55409		-22.589393	-5.552095	-15.869211	-1.966522	-2.523194	2.050988	-0.773926	-0.323486	-0.725098	1.263084	13.613503	141.816849
55410		-20.946603	-10.653355	-19.299175	-1.132841	-1.698280	1.987124	-0.800049	-0.304443	-0.715088	0.876957	12.612458	142.969912
55411		-18.720999	-10.085773	-18.913311	-0.201842	-0.658571	2.053342	-0.809570	-0.282715	-0.707520	1.019860	12.211932	144.170452
55412		-19.051239	-4.948499	-15.073094	-0.001395	0.487855	1.832754	-0.817383	-0.284180	-0.710693	1.251159	12.465263	145.253443
55413		-19.823714	-2.171680	-10.310401	-0.666920	1.412599	1.119766	-0.803711	-0.260010	-0.722412	1.020201	13.257991	145.930310
55414		7.533438	-19.597337	14.151857	1.753612	3.966044	-0.486071	-0.775635	-0.264648	-0.741943	1.969903	15.532950	145.706558
55415		-0.428199	0.119185	2.312187	1.121742	3.220902	-0.593195	-0.750977	-0.279785	-0.764648	2.534937	17.386506	145.430497
55416		-2.076695	25.756078	24.465215	-1.024339	4.179631	-3.551579	-0.698486	-0.299316	-0.788086	1.290147	19.843812	143.371213
55417		0.312381	5.390545	-0.636664	-3.746880	4.515016	-4.752294	-0.650146	-0.304688	-0.826416	-1.913930	22.412609	140.440109
55418		-10.453653	-5.897021	5.086200	-3.087342	4.635465	-3.585417	-0.608154	-0.301270	-0.866211	-4.647479	24.942666	138.038118
55419		-16.532693	-6.444460	4.401274	-1.531465	3.716702	-0.822044	-0.571533	-0.293213	-0.893555	-5.846675	27.016719	137.302897
55420		-7.176813	9.862293	12.287594	-0.629357	3.258823	1.257592	-0.554443	-0.272949	-0.898926	-5.926206	28.944528	137.900871
55421		-8.980864	5.009805	13.762470	-1.413377	3.845606	1.156402	-0.523193	-0.251221	-0.923096	-6.490496	31.203199	138.389939
55422		-20.712817	-19.170448	7.561108	-1.019301	3.736472	0.736261	-0.486328	-0.240234	-0.945557	-6.965259	33.375399	138.592632
55423		-21.815102	-16.280631	9.435601	-0.062981	3.082897	0.501911	-0.461426	-0.234619	-0.957275	-6.950166	35.160208	138.682639
55424		-18.829224	-3.523629	11.026865	0.260590	2.360751	0.266706	-0.443115	-0.237305	-0.967041	-6.806356	36.518930	138.673075
55425		-11.930851	4.986005	10.775972	-0.045241	1.801318	0.355634	-0.432861	-0.240479	-0.971436	-6.768955	37.564461	138.777367
55426		-9.893854	-0.653226	8.730097	-0.420234	1.565132	0.356386	-0.413818	-0.227051	-0.975586	-6.932600	38.477152	138.902201
55427		-12.259880	-3.552245	8.247929	-0.446351	1.309248	0.184616	-0.400635	-0.232422	-0.978271	-7.175148	39.231223	138.922446
55428		-14.939192	1.054971	8.521870	-0.440888	0.714259	0.009812	-0.401855	-0.222168	-0.993652	-7.463764	39.636095	138.865446
55429		-4.682283	0.205942	6.514856	-0.296471	0.422765	-0.182882	-0.389404	-0.219238	-0.990723	-7.743718	39.858970	138.692499
55430		-8.549216	-1.174757	7.783771	-0.325889	0.554105	-0.086871	-0.387451	-0.218506	-0.991211	-8.005845	40.165131	138.574762
55431		-7.440220	-1.377451	7.184565	-0.157687	0.367215	-0.172198	-0.390381	-0.217285	-0.987061	-8.201019	40.356191	138.411792
55432		-6.481498	-0.724477	7.514332	-0.153087	0.339432	-0.173573	-0.372559	-0.213867	-0.993652	-8.394024	40.532897	138.249054
55433		-6.512773	-1.188767	7.374208	-0.146978	0.341698	-0.182421	-0.370605	-0.209473	-0.999268	-8.588635	40.707786	138.078720
55434		-6.728121	-1.799385	7.279594	-0.137887	0.313311	-0.163772	-0.369385	-0.216797	-1.004883	-8.768486	40.869730	137.923923
55435		-6.656087	-2.328475	7.543982	-0.101249	0.272256	-0.105593	-0.362061	-0.207764	-0.998291	-8.896025	41.011290	137.817062
55436		-6.555064	-2.722669	7.471680	-0.062348	0.236155	-0.012203	-0.367188	-0.202881	-1.004883	-8.953571	41.142543	137.783513
55437		-6.712875	-1.960424	7.506817	-0.003362	0.173893	0.081180	-0.363281	-0.208496	-0.998535	-8.925696	41.244907	137.828010
55438		-6.560925	-1.170090	7.297203	0.028262	0.148219	0.112036	-0.366211	-0.209961	-0.996582	-8.862940	41.337402	137.898334
55439		-6.715004	-1.025286	7.211652	0.039617	0.138615	0.132991	-0.367188	-0.206299	-1.001221	-8.781486	41.424277	137.986464
55440		-6.765408	-0.783187	7.152670	0.059349	0.117271	0.112119	-0.358643	-0.215576	-1.007568	-8.697994	41.499128	138.060960
55441		-6.717873	-0.652957	7.217751	0.061520	0.117636	0.091268	-0.353760	-0.214111	-1.002197	-8.622788	41.570334	138.120474
55442		-6.647421	-0.812905	7.270221	0.066432	0.121607	0.061626	-0.360840	-0.210938	-1.003662	-8.560509	41.643204	138.156661
55443		-6.756379	-1.088030	7.230487	0.051742	0.112429	0.048879	-0.353027	-0.210693	-0.999512	-8.511559	41.707757	138.184949
55444		-6.611612	-1.183824	7.296941	0.055013	0.106609	0.036697	-0.360596	-0.219482	-1.000977	-8.467055	41.769990	138.204157
55445		-6.610608	-1.297315	7.257209	0.042092	0.116467	0.043029	-0.353271	-0.219482	-1.010010	-8.426728	41.836307	138.227733
55446		-6.543250	-1.133777	7.245805	0.061749	0.111009	0.048247	-0.361084	-0.209961	-1.004639	-8.372700	41.901986	138.255392
55447		-6.579146	-1.016660	7.285481	0.058642	0.120253	0.049169	-0.350830	-0.218994	-1.004150	-8.319869	41.970929	138.283429
55448		-6.594868	-1.063731	7.273412	0.043723	0.116005	0.047293	-0.349121	-0.216309	-1.004883	-8.276839	42.039331	138.310014
55449		-6.798945	-1.105288	7.200519	0.041628	0.114012	0.036052	-0.353027	-0.211426	-0.997803	-8.239821	42.103624	138.328925
55450		-6.764263	-1.074004	7.093544	0.049366	0.102577	0.033069	-0.362305	-0.211914	-1.005127	-8.199701	42.163231	138.346291
55451		-6.717908	-0.976647	7.223167	0.054298	0.100139	0.022529	-0.350586	-0.221924	-1.003662	-8.161218	42.218535	138.356531
55452		-6.725402	-0.788537	7.353609	-0.008848	0.101526	-0.030884	-0.350098	-0.217773	-1.001709	-8.187228	42.272344	138.325108
55453		-6.521317	-0.905020	6.967314	0.003599	0.120775	-0.032426	-0.346436	-0.214111	-1.004150	-8.207677	42.334863	138.290926
55454		-6.597394	-0.795618	7.172550	0.013851	0.155243	-0.027458	-0.348633	-0.221924	-1.006104	-8.223038	42.419409	138.256073
55455		-6.822314	-0.792538	7.022446	-0.014890	0.172974	-0.037600	-0.353760	-0.209961	-0.999512	-8.260865	42.511082	138.211948
55456		-6.676735	-0.799216	7.169035	-0.039278	0.155423	-0.104825	-0.347168	-0.211670	-1.008789	-8.347187	42.589305	138.117274
55457		-6.373744	-0.977638	6.910505	-0.047114	0.190903	-0.043205	-0.346436	-0.224854	-1.013428	-8.408163	42.690596	138.066378
55458		-6.671070	-0.896104	7.165846	-0.051961	0.197143	-0.025539	-0.347900	-0.221680	-1.008057	-8.464053	42.798975	138.027587
55459		-6.458559	-0.998756	7.065783	-0.070829	0.192403	-0.029521	-0.327881	-0.222168	-1.004639	-8.531993	42.902196	137.986631
55460		-6.605943	-0.895135	7.093935	-0.080763	0.188595	-0.049895	-0.332764	-0.212402	-1.007080	-8.616977	43.003583	137.929508
55461		-6.548277	-1.218042	7.156750	-0.089828	0.148359	-0.059615	-0.339844	-0.212402	-1.009521	-8.708636	43.079173	137.869895
55462		-6.700684	-1.398359	7.139313	-0.094210	0.133850	-0.047036	-0.341553	-0.205811	-1.012451	-8.795853	43.149675	137.820953
55463		-6.357287	-1.382040	7.348238	-0.089960	0.178925	-0.043206	-0.333008	-0.211182	-1.015381	-8.881832	43.243881	137.769923
55464		-6.284115	-1.148416	7.143439	-0.089016	0.203731	0.043448	-0.323975	-0.213623	-1.015381	-8.924068	43.361852	137.782424
55465		-6.199637	-0.946043	7.603264	-0.115925	0.252151	0.050504	-0.322021	-0.213867	-1.017334	-8.981358	43.505783	137.794983
55466		-6.102217	-1.044902	7.226239	-0.261730	0.463305	0.121487	-0.323242	-0.211670	-1.016602	-9.102884	43.777637	137.835896
55467		-6.321180	-1.446657	7.230484	-0.284613	0.594180	0.196268	-0.316650	-0.200439	-1.016357	-9.207726	44.128360	137.919077
55468		-6.677598	-1.625391	6.895366	-0.188563	0.624987	0.218971	-0.312988	-0.194336	-1.016357	-9.248193	44.500661	138.015517
55469		-5.900133	-0.851686	7.608991	-0.054233	0.718438	0.195799	-0.299316	-0.198486	-1.028076	-9.231581	44.921699	138.082593
55470		-6.288483	-0.442046	7.560350	-0.144752	0.876873	0.206184	-0.297119	-0.200684	-1.018799	-9.275678	45.435243	138.137064
55471		-6.356513	-0.940209	7.769303	-0.177156	1.044836	0.118798	-0.291992	-0.190918	-1.030273	-9.404338	46.033737	138.098451
55472		-6.636310	-1.014200	8.233265	-0.273349	1.291589	0.064263	-0.270264	-0.191162	-1.034180	-9.648436	46.768254	137.977328
55473		-6.829393	-1.863241	7.398946	-0.272754	1.477676	0.065355	-0.261719	-0.183350	-1.040283	-9.916356	47.605714	137.824471
55474		-6.624231	-1.991848	7.857028	-0.107138	1.619398	0.127718	-0.238525	-0.190430	-1.038574	-10.073617	48.530706	137.695287
55475		-6.684963	-1.561536	7.623792	-0.045666	1.858147	0.156897	-0.221924	-0.184326	-1.048828	-10.209836	49.591321	137.548951
55476		-6.483259	-1.879118	7.867978	-0.003979	2.136477	0.115507	-0.204834	-0.192383	-1.054688	-10.393340	50.805945	137.312798
55477		-6.635441	-2.080196	7.450445	0.085717	2.430453	0.102670	-0.166992	-0.185059	-1.052002	-10.585792	52.182732	137.003495
55478		-6.285348	-2.440405	7.076882	0.198974	2.720163	0.132155	-0.145996	-0.191895	-1.050537	-10.751873	53.726603	136.652366
55479		-5.858987	-2.335514	7.382334	0.346088	3.034676	0.241120	-0.117432	-0.189697	-1.052734	-10.815422	55.457308	136.330515
55480		-5.432543	-2.515951	7.003173	0.372345	3.339463	0.370738	-0.082275	-0.200928	-1.062988	-10.824910	57.374571	136.062868
55481		-4.922032	-2.274511	7.314903	0.323521	3.577816	0.560386	-0.034912	-0.195068	-1.067627	-10.744836	59.445196	135.938677
55482		-4.666683	-2.026957	7.901788	0.148445	4.001671	0.719114	0.002686	-0.199707	-1.055420	-10.693783	61.772319	135.899488
55483		-4.741012	-2.426478	6.846502	0.047163	4.563939	0.786572	0.041260	-0.208984	-1.053955	-10.746046	64.422269	135.810044
55484		-9.174823	-3.290055	5.924960	0.108128	5.471906	1.068219	0.101074	-0.208252	-1.046631	-10.634102	67.613859	135.864541
55485		-10.152796	-3.831904	7.236509	0.208720	5.744157	1.500148	0.163818	-0.213135	-1.043701	-9.812623	71.002172	136.613935
55486		-10.449857	-1.804301	8.880592	0.180260	6.357188	2.387317	0.218994	-0.225830	-1.028809	-7.037536	74.803722	139.407444
55487		-21.058644	-2.105527	12.696564	0.101121	6.803499	2.662566	0.284668	-0.221191	-1.009033	-1.748828	78.808050	144.776023
55488		-24.176914	-0.912628	11.671576	0.046641	6.707956	2.334688	0.351807	-0.232178	-0.991943	7.665592	82.586204	154.282811
55489		-21.435665	1.294392	12.449818	0.102234	6.513530	1.747320	0.404785	-0.240967	-0.966797	28.827292	85.868610	175.482040
55490		-17.566060	2.649452	14.986172	0.089521	6.347488	1.062216	0.476563	-0.256592	-0.923828	90.277151	87.398153	-123.037335
55491		-13.462536	2.969581	16.657345	0.203120	6.232587	0.531241	0.536133	-0.259033	-0.899170	140.948740	85.386316	-72.401659
55492		-7.737761	1.121129	18.272675	0.596104	6.177824	0.157883	0.587402	-0.268799	-0.854736	157.374615	82.274487	-56.231199
55493		5.209571	-3.171040	17.583961	1.543286	6.562613	0.082456	0.646484	-0.289063	-0.813232	165.178878	78.694323	-49.219107
55494		1.265829	-3.212288	15.160222	2.315886	8.013494	0.119013	0.706543	-0.304932	-0.752197	170.269728	74.198370	-45.351458
55495		-50.386615	-1.792395	6.748024	2.493129	4.895194	-1.516863	0.750732	-0.310059	-0.702637	175.606077	71.523558	-41.264071
55496		-35.105760	-3.779548	23.069383	3.137858	-0.722475	-2.109938	0.753418	-0.321289	-0.705811	-178.971574	71.982618	-37.448455
55497		-18.421243	8.047217	23.649853	2.627640	-3.478529	-2.616440	0.736572	-0.331299	-0.717285	-172.100414	73.858967	-31.837183
55498		1.140983	7.388728	14.011074	1.747496	-4.102317	-3.207728	0.712646	-0.315674	-0.738037	-162.581546	75.767692	-23.014733
55499		5.569116	8.367793	8.309660	1.009715	-3.637803	-3.411969	0.693359	-0.303711	-0.763672	-151.217773	76.927595	-11.919021
55500		5.425494	7.926073	7.699234	0.160304	-2.997565	-3.571684	0.676758	-0.286377	-0.804199	-139.502909	77.191529	0.003399
55501		3.319690	4.959063	7.550170	-0.362831	-2.536383	-3.443675	0.669189	-0.268555	-0.827881	-129.218006	76.799590	10.770245
55502		-0.650257	1.754833	7.981067	-0.346937	-2.494353	-2.962796	0.655029	-0.243164	-0.846680	-120.428744	76.231051	20.009922
55503		-5.756794	-0.559434	9.072732	0.116022	-3.018285	-2.231616	0.614746	-0.239014	-0.871826	-111.833274	75.847516	28.796951
55504		-9.101988	-1.391668	9.477377	0.788353	-3.988813	-1.458722	0.572754	-0.228516	-0.893066	-101.726073	75.714036	38.753347
55505		-8.002868	-0.371880	8.983243	1.376862	-4.953490	-0.793762	0.521973	-0.238770	-0.933594	-89.703146	75.546095	50.347089
55506		-5.321507	0.699002	7.581930	1.660938	-5.524027	-0.296890	0.456787	-0.264893	-0.957275	-76.779417	75.003166	62.719065
55507		-3.306194	0.613641	6.162902	1.702160	-5.658103	0.030994	0.392578	-0.282227	-0.972412	-64.728772	73.947282	74.209809
55508		-3.142989	-0.814605	5.689119	1.690447	-5.474978	0.261838	0.320068	-0.293701	-0.985352	-54.470330	72.479082	83.906700
55509		-5.369451	-2.646250	5.803072	1.802051	-5.224490	0.450300	0.266357	-0.314941	-0.993408	-45.995967	70.758268	91.745801
55510		-8.559610	-3.312819	6.423119	2.026819	-5.136458	0.596598	0.192383	-0.338623	-0.997314	-38.719020	68.800940	98.257344
55511		-10.634105	-2.558217	7.371933	2.134243	-5.209915	0.701502	0.126221	-0.362305	-1.010498	-32.449738	66.603283	103.709213
55512		-11.284803	-1.943092	7.579254	2.042900	-5.288233	0.791118	0.057861	-0.381104	-1.005615	-27.102501	64.183687	108.297499
55513		-11.699766	-0.881606	7.765507	1.847514	-5.293533	0.908276	-0.011963	-0.399902	-0.998291	-22.617789	61.646913	112.143592
55514		-12.309306	0.261015	8.884745	1.456108	-5.235180	1.034817	-0.085449	-0.412598	-0.985840	-18.919266	59.036649	115.434230
55515		-14.166042	-0.162414	9.521889	1.016767	-5.251224	1.154435	-0.154297	-0.435791	-0.981201	-15.907329	56.360192	118.306679
55516		-16.034529	-1.730317	9.793217	0.752165	-5.420967	1.290377	-0.233887	-0.430664	-0.954102	-13.322923	53.524522	120.931898
55517		-17.451825	-2.706336	9.614263	0.776481	-5.647050	1.437060	-0.321533	-0.433838	-0.931885	-10.969167	50.530980	123.351616
55518		-17.845944	-1.997195	9.426235	0.845345	-5.826871	1.532027	-0.400391	-0.442383	-0.882813	-8.820126	47.375766	125.553175
55519		-17.853960	-0.983272	8.921572	0.814980	-5.900270	1.572509	-0.478760	-0.434082	-0.849609	-6.956088	44.147070	127.501456
55520		-17.667919	-0.453314	8.517572	0.673069	-5.846611	1.585763	-0.561523	-0.435791	-0.805664	-5.401934	40.897487	129.224527
55521		-18.078328	-1.168791	7.565778	0.554886	-5.683936	1.587570	-0.634766	-0.425537	-0.746338	-4.117378	37.723815	130.748756
55522		-19.057593	-1.590442	6.649516	0.554869	-5.466581	1.616027	-0.698975	-0.413086	-0.682129	-2.974558	34.638577	132.140101
55523		-20.768113	-0.711598	5.742898	0.566369	-5.250301	1.655363	-0.750244	-0.404785	-0.617432	-1.944251	31.670094	133.429133
55524		-22.180540	0.836863	4.756206	0.352338	-5.026672	1.674080	-0.804688	-0.383545	-0.543945	-1.132735	28.801559	134.633559
55525		-22.528229	0.994812	3.238743	-0.024634	-4.799973	1.728843	-0.838135	-0.363770	-0.478271	-0.609126	26.062962	135.799315
55526		-21.310894	-1.399370	1.398119	-0.332480	-4.538804	1.945752	-0.869629	-0.333008	-0.412842	-0.271500	23.457478	137.053300
55527		-22.084381	-2.334317	0.163471	-0.343510	-4.276099	2.335562	-0.895264	-0.311768	-0.337646	0.081882	21.005814	138.505891
55528		-21.057585	0.077598	-0.903729	-0.538148	-4.126027	2.641307	-0.910645	-0.272705	-0.267334	0.319552	18.624766	140.109266
55529		-22.039936	1.054036	-4.911894	-1.106516	-3.844372	2.778850	-0.918213	-0.247070	-0.214600	0.186292	16.411211	141.771115
55530		-21.882635	0.280612	-10.542762	-1.542771	-3.511052	2.471699	-0.922852	-0.210449	-0.157715	-0.303945	14.391495	143.245398
55531		-18.007428	-6.124731	-16.834869	-1.250976	-2.745368	1.996511	-0.924805	-0.185547	-0.117432	-0.739269	12.825245	144.439572
55532		-14.222537	-11.160888	-19.394384	-0.117336	-1.482226	1.709256	-0.924805	-0.171387	-0.080811	-0.586526	11.980365	145.455288
55533		-13.727162	-8.651708	-17.238999	1.018813	-0.100477	1.537850	-0.923584	-0.152832	-0.062012	0.184794	11.922170	146.358669
55534		-15.468165	-2.305617	-11.800933	1.151315	1.040867	1.117543	-0.921143	-0.149414	-0.049316	0.985628	12.506818	147.022584
55535		-15.907852	0.236106	-6.126135	0.362862	1.729774	0.372403	-0.934326	-0.142090	-0.045166	1.248293	13.489789	147.263809
55536		4.727552	-0.549295	10.303599	0.047586	4.221301	-0.860715	-0.941650	-0.155029	-0.072754	1.160757	15.914973	146.809155
55537		4.696449	0.954526	2.401925	0.139285	4.092868	-1.540208	-0.936279	-0.157471	-0.087158	0.983932	18.272397	145.934544
55538		-4.257719	14.192916	13.477042	-2.363837	4.845538	-2.750015	-0.946045	-0.188477	-0.106689	-0.931859	21.045624	144.265583
55539		-11.117993	4.166298	8.211748	-3.143060	4.625655	-2.963209	-0.949951	-0.212646	-0.131104	-3.470595	23.625295	142.324435
55540		-11.060358	-2.962535	2.396700	-2.756373	4.080740	-1.412192	-0.956299	-0.220703	-0.161133	-5.503479	25.889639	141.238377
55541		-3.661568	2.123329	6.528270	-1.524725	3.869508	0.828127	-0.973145	-0.207031	-0.185059	-6.250335	28.140167	141.516525
55542		-5.909703	5.817892	12.131368	-1.675464	4.472990	1.749791	-0.985352	-0.190918	-0.199951	-6.808795	30.797745	142.329709
55543		-17.375838	-17.595038	8.128794	-1.748600	4.862375	0.937396	-0.996338	-0.180420	-0.233643	-7.694397	33.625779	142.547220
55544		-19.418789	-25.861764	6.667420	-0.434428	4.583145	0.651826	-0.998291	-0.163818	-0.271240	-7.930862	36.276009	142.567154
55545		-28.538757	-4.503218	13.249990	-0.212544	4.230793	0.031503	-1.005859	-0.173828	-0.296143	-8.298547	38.675026	142.162288
55546		-36.186196	13.475114	15.477409	-1.215915	2.666546	-0.124731	-1.004883	-0.168457	-0.310059	-9.243084	40.173411	141.772323
55547		-7.327019	-7.814747	3.055956	-0.749304	0.580983	-0.852951	-1.005371	-0.172852	-0.334717	-10.125270	40.416087	141.071318
55548		-13.726853	-2.934821	13.243389	-0.644800	1.784504	0.655019	-1.012207	-0.176514	-0.336914	-10.329205	41.489625	141.323501
55549		-5.593156	-0.779766	4.317913	0.217096	0.116983	-0.164010	-1.006348	-0.173584	-0.330566	-10.294034	41.535527	141.188147
55550		-8.850527	-0.728282	7.369673	-0.265420	0.451115	0.175959	-1.004883	-0.171631	-0.325928	-10.396582	41.808779	141.262325
55551		-7.350373	-1.650113	6.943945	-0.075426	0.305003	0.028021	-0.997559	-0.161621	-0.338379	-10.450718	41.980339	141.245230
55552		-7.596261	-1.999866	6.514221	-0.105382	0.238257	-0.001552	-1.006348	-0.167969	-0.335693	-10.531684	42.115444	141.214161
55553		-7.118184	-2.061511	6.810620	-0.136019	0.204858	-0.039263	-1.004395	-0.164795	-0.343506	-10.645868	42.223481	141.159423
55554		-7.396820	-2.149312	6.777163	-0.079990	0.138977	-0.033971	-1.010498	-0.168213	-0.341797	-10.719978	42.299273	141.117148
55555		-6.957676	-1.425951	7.062900	-0.057472	0.121430	-0.050513	-1.003662	-0.162842	-0.336914	-10.787292	42.359029	141.065349
55556		-7.024348	-2.072464	6.908740	-0.067546	0.112144	-0.055539	-1.002930	-0.165039	-0.346436	-10.863090	42.417390	141.010164
55557		-6.964483	-2.259260	7.122434	0.010684	0.078224	-0.013052	-1.007324	-0.176025	-0.349854	-10.868054	42.456806	140.993002
55558		-6.896060	-1.671928	7.099880	0.033819	0.053412	0.015591	-1.008057	-0.165527	-0.346436	-10.843604	42.489809	141.000468
55559		-6.840094	-1.598738	7.098258	0.037232	0.048120	0.036722	-1.008301	-0.170898	-0.345947	-10.804718	42.517648	141.025715
55560		-6.878217	-1.379228	6.990984	0.035004	0.039815	0.059226	-1.003906	-0.160156	-0.346924	-10.755718	42.547691	141.068518
55561		-7.077862	-1.137234	6.767710	0.019462	0.024710	0.044928	-1.002686	-0.168945	-0.341064	-10.720409	42.563201	141.103506
55562		-6.915872	-1.044896	6.883598	0.027946	0.009515	0.003804	-1.006348	-0.163330	-0.342041	-10.701071	42.570303	141.108398
55563		-6.774102	-1.040427	6.993204	0.014066	-0.000971	-0.031863	-1.010254	-0.167725	-0.353516	-10.706033	42.563168	141.088415
55564		-6.661306	-1.331593	7.005927	0.001152	-0.005769	-0.061715	-1.008545	-0.169922	-0.350586	-10.734383	42.554726	141.045468
55565		-6.461257	-1.401301	7.278433	-0.003885	-0.003823	-0.051205	-1.013916	-0.166504	-0.355225	-10.759331	42.543908	141.011132
55566		-6.516639	-1.441321	7.215898	-0.005187	0.009978	-0.037953	-1.006104	-0.172363	-0.345459	-10.780572	42.546841	140.984070
55567		-6.471061	-1.517937	7.217869	-0.000031	0.017029	-0.009941	-0.997803	-0.163086	-0.350098	-10.784039	42.552166	140.978236
55568		-6.605834	-1.203163	7.196996	0.002459	0.031462	-0.004578	-1.005615	-0.166748	-0.348145	-10.785794	42.570745	140.973532
55569		-6.702325	-1.378595	7.057153	0.002682	0.036984	-0.015246	-1.001465	-0.167725	-0.347656	-10.792422	42.586733	140.960732
55570		-6.654706	-1.268280	7.077520	0.004554	0.045166	-0.029302	-1.004150	-0.165283	-0.341797	-10.807126	42.610373	140.935123
55571		-6.968497	-1.402152	6.807693	-0.025595	0.050803	-0.035990	-1.011963	-0.164795	-0.352051	-10.842088	42.631900	140.904416
55572		-6.792687	-1.433139	6.939268	-0.008230	0.031040	-0.020972	-1.003906	-0.163330	-0.347656	-10.858446	42.648506	140.887205
55573		-6.890613	-1.418576	6.861684	-0.016064	0.003376	-0.015420	-1.008057	-0.173340	-0.340576	-10.872602	42.645552	140.879164
55574		-6.763091	-1.352455	7.004379	-0.011491	-0.011543	-0.020011	-1.002441	-0.162598	-0.352051	-10.886116	42.638332	140.868927
55575		-6.836711	-1.359858	7.036029	-0.014526	-0.006841	-0.021348	-1.006836	-0.167480	-0.343018	-10.901439	42.628985	140.857860
55576		-6.981243	-1.553457	6.906069	-0.017973	-0.008025	-0.027063	-1.003906	-0.177734	-0.344727	-10.922664	42.622999	140.841721
55577		-6.710550	-1.360407	7.028610	-0.004656	-0.015613	-0.026566	-1.004395	-0.172363	-0.343994	-10.934146	42.608145	140.827971
55578		-6.562679	-1.379543	7.128391	-0.016550	-0.010889	-0.019781	-1.009033	-0.174805	-0.346191	-10.950512	42.601364	140.817819
55579		-6.652744	-1.492648	7.141802	-0.005095	-0.003848	-0.002329	-1.008301	-0.163574	-0.347168	-10.950875	42.595763	140.820863
55580		-6.757079	-1.471461	7.106622	-0.017455	0.010074	0.008138	-1.002930	-0.171143	-0.351318	-10.955423	42.603806	140.828945
55581		-6.830110	-1.449272	6.975494	-0.001529	0.011494	0.016212	-1.008545	-0.157959	-0.349121	-10.945686	42.608853	140.843891
55582		-6.820685	-1.378696	6.953571	0.000401	0.003940	0.022375	-0.997070	-0.173828	-0.346191	-10.932033	42.615011	140.863756
55583		-6.847573	-1.286806	7.038570	0.003765	-0.004532	0.017824	-1.010010	-0.167480	-0.347656	-10.916823	42.611212	140.882303
55584		-6.885226	-1.423357	6.963804	0.006929	-0.015305	0.016223	-1.002930	-0.172363	-0.352783	-10.900687	42.605896	140.900306
55585		-6.857142	-1.411269	7.011912	0.010968	-0.029395	0.015320	-0.999512	-0.169434	-0.346680	-10.880180	42.587829	140.920587
55586		-6.960754	-1.558138	6.928723	0.013444	-0.035196	0.004931	-1.010498	-0.172852	-0.348877	-10.864202	42.570124	140.932858
55587		-6.919640	-1.418474	7.007373	0.024893	-0.049038	0.001477	-1.001465	-0.166016	-0.345947	-10.840954	42.539501	140.945411
55588		-6.854012	-1.343230	7.113246	0.032220	-0.055867	-0.024196	-1.008545	-0.166992	-0.340088	-10.827263	42.507058	140.938416
55589		-6.777186	-1.620145	7.035277	0.039049	-0.057368	-0.043616	-1.012207	-0.170166	-0.340820	-10.818361	42.466891	140.917737
55590		-6.646243	-1.609985	7.131750	0.056385	-0.057530	-0.051425	-1.006836	-0.170166	-0.346680	-10.804706	42.430605	140.890189
55591		-6.568088	-1.284511	7.135813	0.063478	-0.050299	-0.055828	-1.001709	-0.167969	-0.352051	-10.788759	42.393114	140.859173
55592		-6.549048	-1.246794	7.238078	0.058128	-0.038796	-0.060012	-1.002441	-0.169434	-0.352295	-10.780343	42.366454	140.822354
55593		-6.583899	-1.272869	7.166031	0.062570	-0.024828	-0.058802	-1.001953	-0.169922	-0.345947	-10.768901	42.342989	140.785390
55594		-6.560736	-1.187221	7.174979	0.065691	-0.014094	-0.067808	-1.000977	-0.176270	-0.354492	-10.762520	42.329395	140.739080
55595		-6.599108	-1.229657	7.132057	0.067377	-0.003074	-0.071241	-1.005371	-0.174561	-0.340088	-10.756797	42.316852	140.689508
55596		-6.485716	-1.197744	7.176348	0.059588	-0.004729	-0.070496	-1.002441	-0.176270	-0.343506	-10.756162	42.308241	140.639824
55597		-6.526267	-1.368601	7.163841	0.049508	-0.002113	-0.059733	-1.005127	-0.175293	-0.355225	-10.754853	42.297472	140.598887
55598		-6.546093	-1.454099	7.157986	0.039961	-0.003531	-0.044935	-1.005371	-0.172607	-0.347168	-10.752463	42.292254	140.568500
55599		-6.524626	-1.368010	7.165449	0.044361	-0.003649	-0.023107	-0.997803	-0.176025	-0.352539	-10.735190	42.284539	140.555661
55600		-6.544986	-1.339546	7.159327	0.040229	-0.004985	-0.011877	-0.998291	-0.173340	-0.341064	-10.715590	42.282024	140.550631
55601		-6.600280	-1.374688	7.098228	0.038295	-0.003177	0.002539	-1.014404	-0.175781	-0.344238	-10.688711	42.277310	140.557233
55602		-6.670681	-1.345358	7.069341	0.038839	-0.003359	0.003981	-1.004150	-0.174805	-0.345703	-10.661952	42.277390	140.564030
55603		-6.683285	-1.374576	7.072219	0.031062	-0.005002	0.004739	-1.005371	-0.177246	-0.344971	-10.637920	42.271877	140.572562
55604		-6.665083	-1.361214	7.060239	0.034484	-0.008310	0.007893	-1.002197	-0.178955	-0.345215	-10.611185	42.269586	140.583037
55605		-6.608945	-1.320972	7.122995	0.027247	-0.006944	0.002364	-1.000732	-0.176270	-0.338867	-10.590375	42.262725	140.590030
55606		-6.622445	-1.297977	7.075489	0.023078	-0.009603	0.003319	-1.006104	-0.182617	-0.348633	-10.572399	42.259221	140.597200
55607		-6.618930	-1.333510	7.096106	0.019314	-0.003164	0.000897	-1.004395	-0.176270	-0.348877	-10.557251	42.254332	140.602533
55608		-6.612785	-1.294780	7.135651	0.011198	-0.001667	0.002393	-1.010254	-0.172607	-0.351807	-10.547313	42.255201	140.607871
55609		-6.650621	-1.320874	7.061194	0.010673	-0.000819	0.006089	-1.002441	-0.169434	-0.348633	-10.534685	42.252175	140.616820
55610		-6.582215	-1.249789	7.120926	0.017733	0.002564	0.004248	-1.000000	-0.178467	-0.346191	-10.520452	42.255622	140.622974
55611		-6.670872	-1.232712	7.104160	0.011233	0.002857	0.004937	-1.000977	-0.172852	-0.345947	-10.508444	42.254543	140.630525
55612		-6.637628	-1.226513	7.108682	0.011072	0.011459	-0.005028	-1.001221	-0.171631	-0.350830	-10.503602	42.262031	140.628376
55613		-6.590781	-1.129665	7.160585	0.013963	0.012184	-0.005911	-1.008057	-0.167725	-0.350098	-10.496467	42.265073	140.626354
55614		-6.660211	-1.199497	7.100130	0.003305	0.016855	-0.014598	-0.995361	-0.187012	-0.350098	-10.501460	42.274600	140.616177
55615		-6.653162	-1.258750	7.108313	0.010514	0.017995	-0.021944	-1.004395	-0.175537	-0.344727	-10.505065	42.279241	140.601127
55616		-6.667944	-1.350629	7.059571	0.007432	0.018162	-0.025835	-0.995361	-0.176514	-0.349854	-10.513565	42.288332	140.582215
55617		-6.693507	-1.356770	7.112776	0.013011	0.016654	-0.029777	-1.006104	-0.178955	-0.342773	-10.519632	42.291396	140.561384
55618		-6.634649	-1.400495	7.113063	0.008857	0.017846	-0.031419	-1.003418	-0.175293	-0.342529	-10.530163	42.299726	140.538254
55619		-6.659157	-1.450138	7.085776	0.003262	0.015498	-0.024882	-1.002441	-0.184814	-0.347412	-10.539203	42.302647	140.521310
55620		-6.610609	-1.339264	7.106678	0.005252	0.015684	-0.023880	-1.004395	-0.171387	-0.342041	-10.547758	42.310541	140.504209
55621		-6.639319	-1.308695	7.139838	-0.004857	0.016988	-0.023393	-1.004639	-0.181885	-0.345459	-10.560834	42.314453	140.488184
55622		-6.692429	-1.385390	7.096984	-0.003062	0.011040	-0.016828	-1.005371	-0.181885	-0.346191	-10.570098	42.320463	140.477110
55623		-6.685095	-1.333520	7.104800	-0.006154	0.007353	-0.018123	-0.992676	-0.185303	-0.352051	-10.580296	42.319499	140.466465
55624		-6.682971	-1.431177	7.074436	-0.006338	0.005070	-0.015159	-1.007080	-0.185059	-0.339355	-10.590017	42.322321	140.457508
55625		-6.680365	-1.357713	7.093290	-0.006878	0.002070	-0.008866	-0.995850	-0.177246	-0.346680	-10.595375	42.319354	140.454667
55626		-6.687299	-1.353074	7.134454	-0.003269	0.001055	-0.008668	-1.001465	-0.186279	-0.346680	-10.599636	42.320600	140.451219
55627		-6.649803	-1.316944	7.077872	-0.002185	0.003879	-0.013517	-0.998291	-0.175293	-0.346191	-10.604864	42.318161	140.444579
55628		-6.662565	-1.349779	7.079896	0.001240	0.000581	-0.010355	-1.008545	-0.182861	-0.349121	-10.607359	42.318961	140.439916
55629		-6.664457	-1.366223	7.110423	-0.001997	0.002986	-0.008743	-1.003906	-0.178955	-0.341309	-10.609945	42.316523	140.437039
55630		-6.573490	-1.307162	7.146429	0.008128	0.002363	-0.004087	-1.006104	-0.171143	-0.345215	-10.605455	42.318986	140.436895
55631		-6.596781	-1.296248	7.169621	0.001308	0.010307	-0.000131	-1.001709	-0.180908	-0.355469	-10.602434	42.321579	140.439534
55632		-6.659967	-1.328621	7.148353	0.000590	0.012050	-0.001210	-0.996094	-0.171143	-0.351563	-10.601707	42.329786	140.440207
55633		-6.679425	-1.398190	7.110534	0.000961	0.013441	0.000600	-1.003906	-0.174316	-0.354248	-10.598810	42.334221	140.442957
55634		-6.662513	-1.387342	7.096868	0.000778	0.011158	0.003564	-1.008545	-0.183350	-0.350830	-10.595442	42.342424	140.447395
55635		-6.666319	-1.349798	7.076358	0.000040	0.005201	0.007682	-1.000244	-0.180664	-0.347168	-10.588646	42.342964	140.456716
55636		-6.668854	-1.364870	7.106559	0.004575	0.009252	0.008538	-1.007813	-0.182373	-0.351074	-10.580368	42.350615	140.465216
55637		-6.685459	-1.358953	7.088252	0.002758	0.007496	0.007167	-1.010010	-0.179932	-0.346191	-10.572497	42.352392	140.473820
55638		-6.662407	-1.310084	7.114148	0.001485	0.005565	0.007242	-1.001953	-0.179932	-0.345459	-10.566303	42.357826	140.481857
55639		-6.678839	-1.304527	7.095926	-0.001222	0.007119	0.005157	-1.000488	-0.181885	-0.341309	-10.561707	42.359178	140.488984
55640		-6.736026	-1.299177	7.113976	0.000036	0.008374	-0.000057	-1.000488	-0.180176	-0.348877	-10.560351	42.365424	140.491066
55641		-6.685681	-1.342075	7.055782	-0.000162	0.005416	-0.002233	-0.999512	-0.176025	-0.346680	-10.558779	42.365041	140.492801
55642		-6.703711	-1.353065	7.068370	-0.004697	0.001366	-0.003090	-1.006592	-0.184082	-0.343018	-10.561018	42.367024	140.493570
55643		-6.648225	-1.315480	7.130298	0.000704	-0.002418	-0.004061	-1.001221	-0.180908	-0.342285	-10.559139	42.362036	140.495026
55644		-6.676766	-1.342664	7.114720	-0.001632	0.000527	-0.004335	-1.008545	-0.188721	-0.356689	-10.560180	42.363412	140.494967
55645		-6.674785	-1.327304	7.084042	-0.006327	-0.001281	0.000314	-0.997070	-0.179199	-0.346680	-10.560191	42.359525	140.499596
55646		-6.653693	-1.354365	7.091186	-0.004895	-0.001592	-0.005266	-1.009033	-0.173584	-0.349121	-10.563375	42.359605	140.499131
55647		-6.690385	-1.323191	7.066328	-0.001817	-0.001755	-0.001371	-0.995850	-0.186035	-0.352051	-10.561623	42.355274	140.502543
55648		-6.627740	-1.291107	7.087110	-0.002015	-0.004713	-0.003547	-1.005127	-0.176025	-0.348633	-10.561975	42.353775	140.503833
55649		-6.517452	-1.274489	7.161230	-0.002534	-0.000013	-0.002450	-1.009277	-0.185791	-0.348633	-10.561355	42.350312	140.506174
55650		-6.574310	-1.269569	7.179524	-0.004302	0.007281	0.001263	-0.998291	-0.179443	-0.350098	-10.561683	42.356057	140.509435
55651		-6.643090	-1.339714	7.119152	-0.000682	0.010117	-0.001136	-0.998291	-0.187988	-0.344971	-10.560296	42.358437	140.511339
55652		-6.702917	-1.409348	7.117949	-0.001237	0.006443	0.000018	-1.002197	-0.183594	-0.347412	-10.559417	42.363562	140.513778
55653		-6.722578	-1.366967	7.079600	-0.001571	0.010251	0.005889	-0.998291	-0.174072	-0.351318	-10.554944	42.366756	140.521019
55654		-6.676813	-1.328903	7.081830	0.003299	0.007319	0.008614	-1.000977	-0.178467	-0.353516	-10.547140	42.373275	140.529883
55655		-6.695156	-1.338818	7.094322	0.003102	0.004361	0.006438	-0.995117	-0.178711	-0.350342	-10.539142	42.373207	140.538380
55656		-6.695654	-1.338259	7.093957	0.000765	0.007306	0.006163	-1.007568	-0.177979	-0.343262	-10.534045	42.379456	140.545381
55657		-6.680227	-1.343086	7.111391	-0.002324	0.003620	0.004865	-0.996094	-0.174316	-0.346436	-10.529891	42.378805	140.552785
55658		-6.696410	-1.337681	7.093354	0.002187	0.003146	0.003182	-1.006592	-0.178223	-0.341797	-10.525112	42.382393	140.558105
55659		-6.660942	-1.316007	7.067565	0.001458	0.001039	0.004701	-1.006592	-0.184082	-0.346191	-10.518629	42.380270	140.565749
55660		-6.667891	-1.310431	7.108945	-0.001285	-0.002606	-0.005066	-0.994385	-0.170654	-0.346191	-10.519527	42.379751	140.565596
55661		-6.644906	-1.321668	7.085418	-0.003794	0.001906	-0.004976	-1.006104	-0.180664	-0.345703	-10.521111	42.377104	140.565737
55662		-6.646812	-1.337928	7.116013	-0.002360	-0.001579	-0.002816	-0.999023	-0.180420	-0.352051	-10.521562	42.377390	140.567160
55663		-6.662556	-1.333173	7.098265	-0.001458	-0.001039	-0.004701	-1.004639	-0.180908	-0.345703	-10.521386	42.373113	140.567927
55664		-6.667473	-1.312265	7.108999	-0.002904	-0.001403	-0.004262	-1.003174	-0.176758	-0.344482	-10.522907	42.373336	140.568224
55665		-6.685138	-1.323438	7.121893	-0.004350	-0.001768	-0.003822	-1.002441	-0.177979	-0.340820	-10.523866	42.368741	140.569765
55666		-6.657007	-1.356010	7.087760	-0.003806	-0.001944	-0.002377	-1.005615	-0.177490	-0.342773	-10.524879	42.368848	140.571580
55667		-6.684935	-1.324212	7.121940	-0.000717	0.001743	-0.001079	-0.998535	-0.174316	-0.349609	-10.522683	42.366518	140.574715
55668		-6.695695	-1.340573	7.093482	-0.000197	-0.002957	-0.002176	-1.004395	-0.172363	-0.351318	-10.521427	42.366066	140.576828
55669		-6.677633	-1.330282	7.080798	0.000519	-0.001525	-0.008836	-1.005127	-0.173340	-0.357178	-10.522196	42.361083	140.574512
55670		-6.637760	-1.287693	7.125223	0.001583	-0.006401	-0.008488	-1.003662	-0.178223	-0.345947	-10.522834	42.358026	140.572302
55671		-6.605618	-1.298534	7.161066	-0.002546	-0.000688	-0.007591	-1.009277	-0.175293	-0.343750	-10.524799	42.353645	140.570817
55672		-6.634230	-1.326217	7.145299	-0.003981	0.002797	-0.009750	-1.002441	-0.175293	-0.351563	-10.530140	42.355620	140.566351
55673		-6.660853	-1.338149	7.098927	-0.001471	-0.001714	-0.009842	-1.004639	-0.176758	-0.339355	-10.532546	42.350425	140.563297
55674		-6.641545	-1.381197	7.136799	-0.003819	-0.002619	-0.007518	-1.000977	-0.177734	-0.346924	-10.536128	42.349568	140.561303
55675		-6.644586	-1.344765	7.116803	-0.002894	0.002445	-0.006860	-0.999756	-0.177002	-0.337891	-10.538215	42.347028	140.559932
55676		-6.662407	-1.355922	7.129546	0.002335	0.000231	-0.007465	-0.997803	-0.179199	-0.352051	-10.538519	42.347767	140.557575
55677		-6.642677	-1.329725	7.086001	0.000184	0.002283	-0.002964	-0.998535	-0.177734	-0.349121	-10.536827	42.345544	140.559197
55678		-6.644676	-1.345573	7.116567	0.001446	0.000365	-0.000439	-0.999512	-0.174805	-0.342773	-10.534045	42.347082	140.562176
55679		-6.670738	-1.297860	7.120099	-0.000186	0.000892	-0.004775	-1.000244	-0.179688	-0.346680	-10.533363	42.343886	140.562614
55680		-6.632012	-1.313971	7.114267	0.001085	0.002823	-0.004848	-0.999268	-0.173828	-0.348877	-10.533281	42.346335	140.561888
55681		-6.665800	-1.319726	7.109186	0.000358	0.000716	-0.003330	-1.000488	-0.182129	-0.346680	-10.531528	42.343191	140.563453
55682		-6.647982	-1.309326	7.096299	-0.000186	0.000892	-0.004775	-0.994141	-0.168701	-0.349609	-10.531947	42.344546	140.563062
55683		-6.644842	-1.346797	7.116180	0.002161	0.001797	-0.007099	-0.999756	-0.175049	-0.344238	-10.531199	42.341617	140.561601
55684		-6.654916	-1.304522	7.137560	0.000519	-0.001526	-0.008836	-0.999268	-0.170654	-0.345459	-10.533065	42.341172	140.558460
55685		-6.632070	-1.315699	7.113894	-0.001253	0.005767	-0.005123	-0.996338	-0.173096	-0.343018	-10.533637	42.340686	140.557942
55686		-6.621484	-1.299880	7.142107	-0.001806	0.002093	-0.003970	-1.006104	-0.179932	-0.352051	-10.534675	42.342773	140.558004
55687		-6.660971	-1.343333	7.097837	0.001259	0.001257	-0.005214	-1.004150	-0.172363	-0.343262	-10.533425	42.339737	140.558056
55688		-6.643223	-1.332884	7.084896	0.000183	0.002282	-0.002964	-0.998779	-0.183594	-0.348389	-10.532819	42.342021	140.558862
55689		-6.634420	-1.332599	7.143935	0.001803	0.001081	-0.003769	-1.002197	-0.178711	-0.344727	-10.530498	42.339038	140.560039
55690		-6.650341	-1.327599	7.126077	0.001803	0.001081	-0.003769	-0.997070	-0.179443	-0.353516	-10.529260	42.340546	140.560405
55691		-6.603999	-1.289938	7.128832	0.003261	0.002122	0.000932	-0.991943	-0.179443	-0.342773	-10.523790	42.338641	140.565018
55692		-6.634789	-1.332505	7.143609	-0.001969	0.004334	0.001536	-1.010986	-0.181885	-0.343506	-10.522291	42.342518	140.568973
55693		-6.651052	-1.327275	7.125473	0.003814	0.005795	-0.000221	-0.993896	-0.175537	-0.347412	-10.517447	42.342562	140.572187
55694		-6.635489	-1.332285	7.143000	0.000553	0.003674	-0.001153	-1.003662	-0.180908	-0.344971	-10.515816	42.345767	140.574190
55695		-6.638888	-1.295283	7.122795	-0.001437	0.003484	-0.002159	-1.001465	-0.184326	-0.347412	-10.514755	42.344306	140.576254
55696		-6.672888	-1.301038	7.117505	-0.000165	0.005415	-0.002233	-0.998291	-0.187012	-0.346680	-10.514248	42.348361	140.577194
55697		-6.652186	-1.327781	7.124321	-0.001981	0.003659	-0.003605	-1.000977	-0.179688	-0.343262	-10.514257	42.346848	140.578131
55698		-6.655579	-1.291079	7.104066	-0.000177	0.004740	-0.007374	-1.005371	-0.176025	-0.351318	-10.516325	42.349970	140.575253
55699		-6.634797	-1.318230	7.110881	-0.005058	0.003819	-0.007502	-1.007324	-0.173828	-0.342529	-10.520114	42.348139	140.573196
55700		-6.642038	-1.313351	7.151888	-0.000177	0.004739	-0.007374	-1.005371	-0.176270	-0.343262	-10.522175	42.351247	140.570325
55701		-6.637176	-1.335205	7.140888	-0.000177	0.004739	-0.007374	-1.007568	-0.177002	-0.341797	-10.523189	42.349948	140.568236
55702		-6.674281	-1.304299	7.115602	-0.002711	0.004724	-0.009826	-0.997559	-0.180420	-0.353027	-10.527954	42.352770	140.563502
55703		-6.659224	-1.369056	7.083167	-0.001798	0.005940	-0.006570	-1.000977	-0.173584	-0.340820	-10.529598	42.352232	140.561857
55704		-6.635970	-1.321260	7.109224	0.000541	0.002998	-0.006294	-0.998047	-0.187256	-0.356934	-10.530520	42.354438	140.560061
55705		-6.620320	-1.326777	7.126749	-0.001254	0.005765	-0.005124	-1.006104	-0.181152	-0.345947	-10.531094	42.353952	140.559542
55706		-6.659493	-1.311393	7.132030	0.000191	0.006130	-0.005563	-1.002686	-0.176025	-0.340576	-10.532136	42.357980	140.557865
55707		-6.654750	-1.332895	7.120970	0.001822	0.005605	-0.001226	-1.001953	-0.176758	-0.347412	-10.528930	42.357813	140.560340
55708		-6.655099	-1.333025	7.120619	-0.003058	0.004683	-0.001356	-1.007568	-0.177246	-0.336182	-10.529527	42.361450	140.562079
55709		-6.660546	-1.312046	7.130925	-0.001254	0.005764	-0.005124	-1.002197	-0.169678	-0.351807	-10.530102	42.360964	140.561560
55710		-6.637911	-1.323070	7.107075	0.001812	0.004929	-0.006367	-0.999756	-0.176514	-0.342285	-10.530501	42.364198	140.559449
55711		-6.633080	-1.344883	7.096035	-0.003244	0.005573	-0.006132	-1.003662	-0.176514	-0.343506	-10.532715	42.363499	140.558189
55712		-6.645643	-1.318716	7.147551	-0.003061	0.007855	-0.009096	-0.999023	-0.181396	-0.350098	-10.537585	42.368076	140.553585
55713		-6.656785	-1.335650	7.118551	-0.001798	0.005939	-0.006571	-0.996582	-0.170410	-0.347412	-10.539231	42.367538	140.551938
55714		-6.657175	-1.336111	7.118100	-0.002333	0.006789	-0.002875	-1.009033	-0.169189	-0.346436	-10.540381	42.372148	140.552232
