// General information: 
//  MT Manager version: 2022.2.0 
//  XDA version: 2022.2.0 build 7381 rev 124627 built on 2023-07-19
// Device information: 
//  DeviceId: 00B4C223
//  ProductCode: MTW2-3A7G6
//  Firmware Version: 4.6.0
//  Hardware Version: 2.0.0
// Device settings: 
//  Filter Profile: human(46.1)
//  Option Flags: Orientation Smoother Disabled, Position/Velocity Smoother Disabled, Continuous Zero Rotation Update Disabled, AHS Disabled, ICC Disabled
// Coordinate system: ENU
PacketCounter	SampleTimeFine	Acc_X	Acc_Y	Acc_Z	Gyr_X	Gyr_Y	Gyr_Z	Mag_X	Mag_Y	Mag_Z	Roll	Pitch	Yaw
59387		-7.139129	-2.319348	6.440141	-0.008205	0.001435	0.002027	0.232178	0.151611	-0.796387	-19.690714	46.390271	-70.334281
59388		-7.155075	-2.326344	6.388197	-0.004748	-0.001329	0.003955	0.242432	0.150879	-0.796387	-19.691890	46.390242	-70.334886
59389		-7.139059	-2.319644	6.440112	-0.003134	-0.004749	0.000583	0.238525	0.157227	-0.798584	-19.692600	46.387702	-70.335112
59390		-7.115319	-2.367874	6.370294	-0.006564	-0.002862	0.000333	0.241211	0.154541	-0.800293	-19.696643	46.386253	-70.336732
59391		-7.099948	-2.341242	6.408215	-0.003734	-0.002565	0.003666	0.237305	0.157959	-0.799805	-19.696393	46.385487	-70.335158
59392		-7.153871	-2.346967	6.402560	-0.003762	-0.001689	0.001989	0.239258	0.151123	-0.789795	-19.698164	46.384943	-70.334868
59393		-7.122943	-2.337401	6.415021	-0.000332	-0.003576	0.002239	0.240723	0.151611	-0.794678	-19.696569	46.383356	-70.334128
59394		-7.130477	-2.350714	6.396231	-0.002360	-0.001102	0.002816	0.236328	0.150879	-0.797363	-19.697109	46.383358	-70.335621
59395		-7.106517	-2.374410	6.403797	-0.001650	-0.006792	0.006443	0.229736	0.154785	-0.804443	-19.693237	46.380848	-70.330693
59396		-7.130127	-2.350423	6.396729	-0.002775	-0.002049	0.000022	0.237549	0.149414	-0.799561	-19.695370	46.379595	-70.333474
59397		-7.122928	-2.317186	6.401871	-0.005523	-0.004975	0.001721	0.235352	0.150635	-0.792236	-19.696759	46.377153	-70.332747
59398		-7.145284	-2.333635	6.422530	-0.007552	-0.002501	0.002299	0.233887	0.153564	-0.804932	-19.700215	46.376207	-70.334872
59399		-7.129596	-2.351028	6.397098	-0.002720	-0.003802	0.003376	0.242676	0.151855	-0.798096	-19.699299	46.374717	-70.333179
59400		-7.121824	-2.337717	6.416149	-0.005164	-0.002275	0.001160	0.238525	0.154297	-0.792480	-19.702119	46.373674	-70.335088
59401		-7.121653	-2.337883	6.416278	-0.004122	-0.004388	0.002548	0.235107	0.154785	-0.795654	-19.702355	46.371708	-70.333878
59402		-7.106063	-2.355112	6.390797	-0.001973	0.000721	0.003933	0.239014	0.156006	-0.797852	-19.702465	46.372821	-70.333330
59403		-7.129246	-2.350966	6.397512	0.001097	-0.003867	0.004743	0.237305	0.154785	-0.794434	-19.698575	46.371560	-70.330552
59404		-7.136461	-2.340150	6.456053	-0.004749	-0.001328	0.003954	0.238525	0.148682	-0.791260	-19.699863	46.371586	-70.329063
59405		-7.114298	-2.348175	6.358082	-0.007192	0.000200	0.001738	0.232666	0.159180	-0.800293	-19.703247	46.371939	-70.329771
59406		-7.143409	-2.373688	6.451081	-0.000250	-0.006206	0.007268	0.240479	0.151611	-0.802734	-19.699044	46.369920	-70.325107
59407		-7.113670	-2.323891	6.435807	-0.005137	-0.003150	0.002837	0.241211	0.145996	-0.793213	-19.699950	46.368678	-70.324018
59408		-7.105560	-2.354728	6.391498	-0.005525	-0.004973	0.001719	0.242188	0.154541	-0.795410	-19.702030	46.366369	-70.326639
59409		-7.105339	-2.354811	6.391712	-0.002721	-0.003802	0.003375	0.235840	0.150635	-0.794922	-19.701115	46.364880	-70.324948
59410		-7.151348	-2.347088	6.405334	-0.002484	-0.008684	0.000850	0.233643	0.163574	-0.798828	-19.701302	46.360364	-70.325143
59411		-7.127856	-2.350960	6.399062	-0.001347	-0.002339	0.002526	0.234863	0.153809	-0.796143	-19.700377	46.359500	-70.324525
59412		-7.119367	-2.357488	6.432199	-0.000694	-0.006276	0.002795	0.236816	0.152832	-0.802979	-19.699058	46.356519	-70.320926
59413		-7.142994	-2.333387	6.425167	-0.004694	-0.003080	0.007308	0.234863	0.149902	-0.798096	-19.697195	46.356179	-70.316364
59414		-7.126788	-2.370900	6.413510	-0.009997	-0.000970	0.000083	0.239014	0.154053	-0.798828	-19.703601	46.355573	-70.320201
59415		-7.096535	-2.341705	6.411826	-0.003763	-0.001687	0.001987	0.232910	0.155762	-0.801514	-19.704496	46.354957	-70.320186
59416		-7.142697	-2.333996	6.425276	-0.000722	-0.005399	0.001118	0.239258	0.150146	-0.796143	-19.704203	46.352157	-70.320175
59417		-7.119285	-2.338122	6.418819	-0.011345	-0.003308	0.002608	0.232666	0.157471	-0.796631	-19.708763	46.350785	-70.319221
59418		-7.134705	-2.321188	6.444379	-0.003763	-0.001687	0.001987	0.233643	0.146973	-0.800049	-19.710461	46.350182	-70.320055
59419		-7.141798	-2.355092	6.439110	-0.015428	0.002517	0.002090	0.239014	0.160889	-0.805664	-19.718834	46.351853	-70.321138
59420		-7.134725	-2.365993	6.380390	-0.004333	-0.000382	0.006747	0.229004	0.150391	-0.801025	-19.718390	46.352840	-70.318765
59421		-7.088554	-2.329936	6.430538	-0.010360	-0.003668	0.000640	0.239502	0.155762	-0.801514	-19.723426	46.350895	-70.319249
59422		-7.126226	-2.373513	6.413168	-0.011374	-0.002430	0.000929	0.239502	0.146484	-0.799072	-19.729863	46.349611	-70.321324
59423		-7.142977	-2.316719	6.410746	-0.007221	0.001079	0.000061	0.232422	0.157227	-0.793945	-19.734390	46.350114	-70.323589
59424		-7.126425	-2.330670	6.476214	-0.012388	-0.001193	0.001218	0.236816	0.155273	-0.791748	-19.741492	46.349632	-70.326362
59425		-7.127575	-2.335508	6.384479	-0.020263	0.003824	0.001011	0.235596	0.148682	-0.791016	-19.753512	46.351798	-70.328656
59426		-7.127845	-2.336754	6.383721	-0.017902	0.004928	-0.001804	0.237793	0.153564	-0.799316	-19.766755	46.354067	-70.335315
59427		-7.088785	-2.379160	6.364650	-0.020265	0.003826	0.001008	0.237305	0.158691	-0.801025	-19.778779	46.356233	-70.337613
59428		-7.166267	-2.381592	6.365003	-0.006418	0.003846	0.003973	0.239746	0.157715	-0.795166	-19.782017	46.358999	-70.337663
59429		-7.120652	-2.301721	6.478285	-0.009224	0.002678	0.002315	0.237305	0.151123	-0.800293	-19.786743	46.360799	-70.338618
59430		-7.151758	-2.379710	6.324728	-0.017198	-0.000763	0.001810	0.229492	0.148682	-0.796875	-19.796406	46.360704	-70.339967
59431		-7.111956	-2.397516	6.383672	-0.002751	-0.002925	0.001693	0.235107	0.155273	-0.797852	-19.796635	46.359363	-70.339833
59432		-7.151165	-2.356610	6.402041	-0.007585	-0.001618	0.000615	0.237549	0.153076	-0.796143	-19.801193	46.358424	-70.343398
59433		-7.127303	-2.380914	6.409226	-0.006182	-0.001034	0.001444	0.237061	0.155029	-0.797363	-19.803914	46.358054	-70.343991
59434		-7.150912	-2.356985	6.402186	-0.000669	-0.007156	0.004464	0.234375	0.157959	-0.799316	-19.801293	46.355005	-70.341729
59435		-7.128106	-2.340900	6.381909	-0.006599	-0.001977	-0.001351	0.230957	0.156494	-0.798340	-19.805641	46.353584	-70.344240
59436		-7.127360	-2.360929	6.395943	0.000137	-0.004391	0.008378	0.241455	0.149170	-0.801270	-19.800969	46.352642	-70.338149
59437		-7.095655	-2.371413	6.422462	-0.003557	-0.005689	-0.002222	0.233398	0.152832	-0.792236	-19.803310	46.349051	-70.340296
59438		-7.119074	-2.347296	6.415703	0.003179	-0.008103	0.007506	0.232666	0.153320	-0.797363	-19.796477	46.346098	-70.337158
59439		-7.157651	-2.325973	6.448146	-0.008183	0.000563	0.003700	0.235596	0.149902	-0.786377	-19.799394	46.347027	-70.336438
59440		-7.095675	-2.395044	6.345602	-0.009532	-0.001777	0.006222	0.231201	0.147217	-0.789551	-19.801892	46.347179	-70.335494
59441		-7.134552	-2.330023	6.441359	0.000055	-0.001757	0.003351	0.234375	0.157959	-0.783936	-19.799815	46.346789	-70.334395
59442		-7.103435	-2.364575	6.390224	-0.013715	-0.004406	0.005408	0.243652	0.157959	-0.804688	-19.804694	46.345362	-70.332477
59443		-7.133462	-2.394433	6.391874	-0.001766	-0.003283	-0.000274	0.234131	0.157471	-0.793213	-19.805397	46.343447	-70.333779
59444		-7.095426	-2.351775	6.409367	-0.007559	-0.002495	0.002289	0.229736	0.152344	-0.796875	-19.809001	46.342508	-70.332471
59445		-7.111220	-2.358343	6.357762	-0.000281	-0.005335	0.005580	0.232178	0.154541	-0.793701	-19.805129	46.340623	-70.328624
59446		-7.117679	-2.367815	6.430273	-0.003766	-0.001686	0.001982	0.243408	0.154053	-0.802979	-19.806749	46.339882	-70.330361
59447		-7.126492	-2.340839	6.383734	0.001095	-0.003873	0.004734	0.227295	0.155518	-0.794922	-19.802864	46.338620	-70.327585
59448		-7.149064	-2.312987	6.467997	-0.002753	-0.002924	0.001691	0.238525	0.157227	-0.799561	-19.803852	46.337247	-70.328471
59449		-7.132626	-2.394456	6.392798	-0.011353	-0.003301	0.002596	0.237793	0.154541	-0.794189	-19.808424	46.335879	-70.327526
59450		-7.125453	-2.360962	6.398056	0.007279	-0.002841	0.003291	0.235596	0.153320	-0.800049	-19.802838	46.334950	-70.326328
59451		-7.102268	-2.320592	6.455257	-0.004102	-0.005264	0.004211	0.238037	0.146729	-0.800537	-19.801943	46.332837	-70.323570
59452		-7.101162	-2.428529	6.342235	-0.005170	-0.002269	0.001152	0.231934	0.149414	-0.796631	-19.804592	46.331755	-70.327846
59453		-7.117335	-2.347237	6.417655	0.004862	-0.002187	0.002752	0.242432	0.154297	-0.801270	-19.800012	46.331017	-70.327093
59454		-7.139796	-2.363116	6.438391	-0.003712	-0.003443	0.005331	0.232666	0.150635	-0.806641	-19.799303	46.330128	-70.326571
59455		-7.109944	-2.357158	6.359628	0.001068	-0.002995	0.003058	0.228516	0.155518	-0.801270	-19.796559	46.329015	-70.325352
59456		-7.131868	-2.349395	6.457770	-0.002726	-0.003802	0.003365	0.239502	0.147461	-0.791992	-19.796298	46.327326	-70.326297
59457		-7.313325	-2.140496	6.510396	0.001431	-0.000295	0.002504	0.235840	0.156982	-0.800537	-19.794208	46.327559	-70.326269
59458		-7.068953	-2.395520	6.432837	-0.034412	-0.010448	-0.007588	0.231689	0.152832	-0.804688	-19.816985	46.320424	-70.333218
59459		-7.085817	-2.431247	6.212535	-0.007746	-0.008313	-0.003040	0.233398	0.154785	-0.786377	-19.821651	46.315260	-70.335262
59460		-7.105707	-2.396622	6.479602	0.001273	-0.006995	-0.001150	0.240479	0.152588	-0.798096	-19.821079	46.311095	-70.337648
59461		-7.082735	-2.424296	6.395858	-0.007506	-0.004250	0.005637	0.237305	0.149414	-0.789307	-19.821538	46.309806	-70.334063
59462		-7.121775	-2.383123	6.414548	0.001663	-0.005174	-0.000030	0.233887	0.158691	-0.797607	-19.820433	46.307041	-70.337065
59463		-7.067528	-2.377564	6.420436	-0.005144	-0.003147	0.002826	0.226807	0.164795	-0.797607	-19.821348	46.305800	-70.335984
59464		-7.121421	-2.383092	6.414953	-0.001322	-0.003219	0.004193	0.239014	0.150879	-0.797119	-19.820255	46.304602	-70.330968
59465		-7.082822	-2.360137	6.446352	-0.002335	-0.001982	0.004485	0.227295	0.149170	-0.795654	-19.818863	46.304312	-70.328921
59466		-7.084024	-2.363610	6.355088	-0.004335	-0.000385	0.006742	0.237305	0.156738	-0.799805	-19.818267	46.305263	-70.329283
59467		-7.106127	-2.355818	6.453025	-0.000931	-0.001399	0.005314	0.226318	0.142578	-0.793457	-19.815720	46.305448	-70.326753
59468		-7.099156	-2.366184	6.394382	-0.008806	0.003625	0.005113	0.237061	0.154785	-0.797119	-19.819404	46.308205	-70.329775
59469		-7.129752	-2.352041	6.459144	-0.006780	0.001149	0.004529	0.240479	0.150146	-0.795410	-19.821170	46.309610	-70.328573
59470		-7.122882	-2.362541	6.400335	-0.007403	0.004207	0.005942	0.238281	0.152344	-0.795654	-19.823826	46.313030	-70.328791
59471		-7.123148	-2.362696	6.399981	-0.008185	0.000567	0.003699	0.229736	0.150391	-0.793701	-19.826746	46.313961	-70.328074
59472		-7.115597	-2.349475	6.418763	-0.004363	0.000494	0.005067	0.239746	0.153076	-0.803711	-19.827353	46.315086	-70.328818
59473		-7.116367	-2.329591	6.404665	-0.008239	0.002326	0.000351	0.230469	0.151611	-0.792480	-19.832552	46.316314	-70.331209
59474		-7.115240	-2.370206	6.432091	-0.007199	0.000209	0.001733	0.241699	0.147949	-0.800781	-19.836615	46.316637	-70.334226
59475		-7.123028	-2.383873	6.412879	-0.008213	0.001447	0.002024	0.239014	0.159912	-0.795898	-19.840675	46.317717	-70.335064
59476		-7.155895	-2.289405	6.422459	-0.004755	-0.001326	0.003945	0.234131	0.154297	-0.792969	-19.841848	46.317780	-70.334505
59477		-7.154536	-2.330321	6.450033	-0.013289	-0.001300	-0.007731	0.233398	0.151855	-0.794434	-19.853762	46.315481	-70.342181
59478		-7.077614	-2.397087	6.307826	-0.009982	-0.001834	0.001745	0.236816	0.151855	-0.792236	-19.859036	46.314692	-70.343785
59479		-7.153623	-2.351603	6.463776	0.002027	-0.002476	-0.000583	0.239746	0.155273	-0.794922	-19.857902	46.313150	-70.345553
59480		-7.107740	-2.339685	6.436637	-0.012818	-0.002118	-0.001589	0.231689	0.159912	-0.800049	-19.866658	46.311684	-70.348950
59481		-7.138365	-2.393528	6.360646	-0.005200	-0.001387	-0.000525	0.231201	0.153076	-0.801270	-19.869854	46.310740	-70.350979
59482		-7.052904	-2.355263	6.455965	-0.003823	0.000074	-0.001369	0.237549	0.150879	-0.801270	-19.873787	46.310245	-70.354855
59483		-7.115029	-2.398069	6.353921	-0.006551	-0.003728	0.001991	0.237549	0.152832	-0.795898	-19.875860	46.308529	-70.354261
59484		-7.091286	-2.378719	6.424586	-0.007254	0.001969	-0.001615	0.228516	0.157227	-0.800537	-19.882173	46.309207	-70.360662
59485		-7.184803	-2.299853	6.500684	-0.009228	0.002685	0.002315	0.232178	0.154785	-0.795654	-19.886905	46.311010	-70.361624
59486		-7.130991	-2.382772	6.378320	-0.023347	0.008443	0.000204	0.238037	0.156250	-0.797119	-19.902835	46.315316	-70.366746
59487		-7.100566	-2.330751	6.453470	-0.009674	0.002626	-0.002156	0.239502	0.152832	-0.794922	-19.910333	46.316215	-70.371180
59488		-7.068600	-2.450031	6.365458	-0.023295	0.006684	0.003548	0.228760	0.156006	-0.799316	-19.923984	46.320480	-70.373030
59489		-7.108832	-2.389562	6.369437	-0.006838	0.002909	0.001178	0.229248	0.163330	-0.788086	-19.928034	46.322181	-70.374944
59490		-7.085224	-2.413859	6.376283	-0.008189	0.000567	0.003694	0.234619	0.153564	-0.798828	-19.931837	46.322901	-70.372839
59491		-7.116919	-2.403046	6.349922	-0.002543	0.002011	0.008691	0.244385	0.156494	-0.800049	-19.929005	46.325585	-70.368639
59492		-7.117270	-2.359133	6.413362	-0.004393	0.001372	0.003390	0.239990	0.151123	-0.796387	-19.930816	46.326948	-70.369500
59493		-7.117415	-2.359017	6.413245	-0.001947	-0.000165	0.005603	0.232666	0.147949	-0.790527	-19.928940	46.327858	-70.367093
59494		-7.132270	-2.405157	6.389177	0.002916	-0.002360	0.008354	0.228760	0.152588	-0.801514	-19.922847	46.328146	-70.365743
59495		-7.117525	-2.357842	6.413555	0.001485	-0.002060	0.005850	0.236084	0.152832	-0.801758	-19.918477	46.328083	-70.362608
59496		-7.124601	-2.390871	6.408525	-0.004704	-0.003087	0.007286	0.236572	0.152100	-0.790771	-19.917236	46.327588	-70.361330
59497		-7.132943	-2.383741	6.375774	0.000444	0.000058	0.004469	0.237793	0.158936	-0.792725	-19.914675	46.328395	-70.359871
59498		-7.102061	-2.374147	6.388202	-0.002731	-0.003803	0.003356	0.239014	0.152100	-0.797363	-19.914568	46.326950	-70.357914
59499		-7.117360	-2.400306	6.350464	0.003903	-0.002718	0.006388	0.232910	0.156494	-0.796631	-19.908374	46.326637	-70.354173
59500		-7.125115	-2.368966	6.395473	0.010118	-0.002572	0.006624	0.239014	0.157227	-0.795898	-19.899228	46.326420	-70.351619
59501		-7.124335	-2.387865	6.409941	0.007048	-0.009953	0.012203	0.235596	0.152832	-0.801025	-19.886475	46.323341	-70.341299
59502		-7.124063	-2.386539	6.410736	0.012170	-0.005928	0.007711	0.232666	0.154053	-0.795410	-19.874881	46.321551	-70.336464
59503		-7.116683	-2.351811	6.416703	0.011804	-0.008627	0.008261	0.229980	0.149170	-0.798828	-19.861901	46.318417	-70.329597
59504		-7.116330	-2.350502	6.417574	0.009411	-0.008849	0.009394	0.239990	0.151855	-0.802734	-19.850222	46.315229	-70.324844
59505		-7.161748	-2.361624	6.445520	0.008371	-0.006730	0.008013	0.230469	0.156494	-0.792480	-19.839737	46.313066	-70.318707
59506		-7.131101	-2.330932	6.444851	0.009044	-0.011547	0.009942	0.229004	0.156982	-0.786133	-19.827520	46.308633	-70.310782
59507		-7.092128	-2.350822	6.413365	0.008370	-0.006729	0.008011	0.232666	0.156982	-0.795654	-19.817038	46.306469	-70.304649
59508		-7.146519	-2.335401	6.394467	0.002104	-0.005115	0.004433	0.230957	0.147461	-0.794678	-19.813349	46.304348	-70.300575
59509		-7.130184	-2.328526	6.446736	-0.000655	-0.008035	0.006118	0.228271	0.156982	-0.797119	-19.808842	46.301111	-70.295553
59510		-7.113869	-2.365500	6.435340	-0.000314	-0.004457	0.003895	0.238037	0.148193	-0.799561	-19.806767	46.299185	-70.295594
59511		-7.121901	-2.358309	6.402987	0.001736	-0.007814	0.004982	0.231934	0.151611	-0.795166	-19.801577	46.295847	-70.291522
59512		-7.113223	-2.364866	6.436286	-0.003099	-0.006498	0.003908	0.228760	0.158691	-0.804688	-19.800613	46.292979	-70.291931
59513		-7.129648	-2.350998	6.371002	-0.001301	-0.004098	0.005859	0.228760	0.145264	-0.807373	-19.797424	46.291814	-70.288219
59514		-7.105103	-2.351051	6.455890	0.002077	-0.004236	0.002759	0.233154	0.157959	-0.805176	-19.794580	46.289689	-70.290856
59515		-7.128574	-2.370513	6.385586	0.000304	-0.007515	0.002479	0.228271	0.150879	-0.797119	-19.791684	46.286026	-70.288822
59516		-7.135357	-2.359948	6.444470	0.002050	-0.003356	0.001087	0.239014	0.150879	-0.786621	-19.790113	46.284144	-70.290674
59517		-7.119746	-2.376885	6.419114	-0.002680	-0.005557	0.006701	0.230469	0.150391	-0.795410	-19.786943	46.282355	-70.285896
59518		-7.112379	-2.343255	6.424601	0.000671	-0.004816	0.001929	0.238281	0.155762	-0.787842	-19.785362	46.280061	-70.286582
59519		-7.112158	-2.343097	6.424903	-0.000341	-0.003577	0.002222	0.229736	0.149414	-0.795410	-19.783780	46.278470	-70.285855
59520		-7.119694	-2.356349	6.406162	-0.004138	-0.004379	0.002528	0.234131	0.149658	-0.790527	-19.784764	46.276494	-70.285213
59521		-7.119530	-2.356285	6.406368	-0.001327	-0.003218	0.004186	0.232910	0.150635	-0.788818	-19.782712	46.275478	-70.283055
59522		-7.102687	-2.370125	6.472095	-0.007988	-0.003422	-0.000510	0.243164	0.155029	-0.799805	-19.787738	46.273438	-70.286223
59523		-7.096105	-2.360948	6.399702	-0.008632	0.000515	-0.000767	0.233643	0.158691	-0.800537	-19.793421	46.273474	-70.288975
59524		-7.119770	-2.337153	6.392580	-0.000341	-0.003577	0.002221	0.240967	0.144043	-0.796875	-19.792659	46.271916	-70.287234
59525		-7.126764	-2.370595	6.387575	-0.005177	-0.002261	0.001148	0.228516	0.151367	-0.798828	-19.794720	46.270827	-70.287714
59526		-7.103439	-2.330859	6.444582	-0.001353	-0.002339	0.002514	0.237305	0.150146	-0.801514	-19.794312	46.269933	-70.291417
59527		-7.118801	-2.357384	6.406774	-0.002759	-0.002919	0.001684	0.239014	0.163086	-0.802246	-19.794552	46.268593	-70.291293
59528		-7.110955	-2.344193	6.425834	-0.003771	-0.001680	0.001977	0.228516	0.156250	-0.791016	-19.796253	46.267988	-70.290700
59529		-7.117981	-2.377828	6.420722	-0.006583	-0.002840	0.000318	0.236328	0.147705	-0.800537	-19.799469	46.266426	-70.291664
59530		-7.095432	-2.361875	6.400106	-0.002024	0.002477	0.000586	0.222900	0.158447	-0.792480	-19.801658	46.267686	-70.295707
59531		-7.110882	-2.344723	6.425721	-0.003745	-0.002560	0.003649	0.231934	0.151855	-0.794434	-19.801429	46.266921	-70.294153
59532		-7.087053	-2.368948	6.432861	-0.009961	-0.002702	0.003418	0.228027	0.157959	-0.793701	-19.805621	46.265805	-70.292992
59533		-7.126260	-2.371772	6.387701	-0.004810	0.000438	0.000599	0.238525	0.161377	-0.802490	-19.808328	46.266064	-70.294658
59534		-7.110718	-2.345406	6.425654	-0.002760	-0.002919	0.001684	0.232178	0.158936	-0.793945	-19.809461	46.264618	-70.292392
59535		-7.118458	-2.358621	6.406699	-0.001972	0.000718	0.003929	0.234375	0.160889	-0.799561	-19.808723	46.265674	-70.291539
59536		-7.117916	-2.378811	6.420430	-0.006190	-0.001021	0.001440	0.235352	0.158447	-0.795898	-19.812351	46.265215	-70.289810
59537		-7.110748	-2.345553	6.425567	-0.002366	-0.001100	0.002806	0.237793	0.153564	-0.796143	-19.812103	46.265073	-70.289322
59538		-7.117844	-2.379072	6.420413	-0.007570	-0.002480	0.002281	0.233154	0.160889	-0.797363	-19.815635	46.264099	-70.288484
59539		-7.110022	-2.366087	6.439374	-0.003798	-0.000800	0.000305	0.224609	0.151611	-0.794922	-19.817677	46.263633	-70.290031
59540		-7.118347	-2.359346	6.406556	-0.004758	-0.001321	0.003941	0.236572	0.155029	-0.799561	-19.818866	46.263389	-70.288630
59541		-7.118349	-2.359334	6.406558	-0.002366	-0.001100	0.002806	0.240479	0.150635	-0.790283	-19.818619	46.263247	-70.288143
59542		-7.118373	-2.359212	6.406577	-0.000960	-0.000521	0.003636	0.231445	0.153564	-0.796387	-19.817903	46.263663	-70.288478
59543		-7.117715	-2.379145	6.420529	-0.002708	-0.004678	0.005025	0.238037	0.154053	-0.799561	-19.815875	46.262024	-70.285256
59544		-7.109928	-2.365625	6.439647	0.000446	0.000059	0.004465	0.229004	0.147461	-0.794678	-19.813997	46.262779	-70.284960
59545		-7.109952	-2.365503	6.439666	-0.003772	-0.001680	0.001976	0.229980	0.153564	-0.797119	-19.814905	46.262163	-70.284957
59546		-7.118316	-2.358742	6.406813	-0.003404	0.001019	0.001428	0.227295	0.163086	-0.794678	-19.817026	46.262724	-70.289100
59547		-7.086775	-2.369700	6.432891	-0.004167	-0.003498	0.000852	0.232666	0.149414	-0.799072	-19.818424	46.260911	-70.289463
59548		-7.140699	-2.375098	6.427463	-0.004707	-0.003080	0.007282	0.243408	0.150879	-0.792969	-19.817343	46.260393	-70.284937
59549		-7.118213	-2.358773	6.406915	-0.001998	0.001598	0.002258	0.227539	0.159912	-0.802734	-19.817741	46.261599	-70.285635
59550		-7.094528	-2.382860	6.413943	-0.003773	-0.001679	0.001975	0.231689	0.154297	-0.800049	-19.819385	46.260953	-70.285871
59551		-7.095129	-2.362782	6.400107	-0.003378	0.000139	0.003099	0.237305	0.152588	-0.799561	-19.819804	46.261536	-70.285503
59552		-7.110552	-2.345558	6.425782	-0.004733	-0.002200	0.005610	0.230713	0.154541	-0.799561	-19.819762	46.261278	-70.283982
59553		-7.117741	-2.378787	6.420632	-0.000960	-0.000521	0.003635	0.235352	0.154297	-0.795166	-19.818360	46.261609	-70.283011
59554		-7.110080	-2.365366	6.439575	-0.001972	0.000718	0.003928	0.233154	0.152344	-0.794922	-19.818318	46.262571	-70.283002
59555		-7.118393	-2.358510	6.406813	-0.004168	-0.003497	0.000852	0.236328	0.145752	-0.799316	-19.819717	46.260758	-70.283365
59556		-7.118345	-2.358440	6.406892	0.000446	0.000058	0.004465	0.230469	0.151367	-0.802490	-19.817691	46.261530	-70.285397
59557		-7.118341	-2.358392	6.406914	-0.005180	-0.002258	0.001145	0.231689	0.160400	-0.794434	-19.819755	46.260442	-70.285880
59558		-7.110517	-2.345226	6.425941	-0.004733	-0.002200	0.005610	0.236328	0.146973	-0.793213	-19.819791	46.260092	-70.283143
59559		-7.109967	-2.365308	6.439720	-0.003378	0.000139	0.003098	0.230225	0.164551	-0.790039	-19.820210	46.260675	-70.282776
59560		-7.109949	-2.365433	6.439694	-0.005180	-0.002257	0.001145	0.236084	0.150635	-0.788330	-19.823056	46.259538	-70.282872
59561		-7.109808	-2.365528	6.439816	-0.002736	-0.003798	0.003351	0.232666	0.157959	-0.788330	-19.822165	46.258048	-70.281201
59562		-7.086678	-2.369510	6.433067	-0.004416	0.002259	0.001722	0.236084	0.159668	-0.793945	-19.825142	46.259513	-70.282673
59563		-7.140601	-2.374867	6.427656	0.000298	-0.007515	0.002470	0.238770	0.154053	-0.793701	-19.822255	46.255848	-70.280645
59564		-7.118431	-2.338485	6.393583	-0.007152	-0.001539	0.005073	0.227295	0.145996	-0.798584	-19.824194	46.255950	-70.277438
59565		-7.117854	-2.358643	6.407362	-0.002367	-0.001100	0.002804	0.230713	0.148438	-0.791504	-19.823948	46.255808	-70.276952
59566		-7.094683	-2.362604	6.400667	-0.003774	-0.001678	0.001974	0.230469	0.155762	-0.800293	-19.825307	46.255018	-70.281498
59567		-7.117752	-2.358711	6.407451	-0.003748	-0.002558	0.003644	0.237305	0.147949	-0.798584	-19.825083	46.254253	-70.279947
59568		-7.094602	-2.362538	6.400782	-0.000960	-0.000521	0.003634	0.227783	0.163818	-0.789307	-19.824275	46.254501	-70.281198
59569		-7.117187	-2.378652	6.421296	-0.004760	-0.001319	0.003938	0.237061	0.153809	-0.797852	-19.824717	46.254461	-70.279768
59570		-7.109364	-2.365558	6.440295	-0.005181	-0.002256	0.001144	0.237061	0.155029	-0.798584	-19.827638	46.253274	-70.278509
59571		-7.094600	-2.362445	6.400818	-0.000514	-0.000464	0.008098	0.228760	0.158936	-0.793945	-19.823479	46.254503	-70.274075
59572		-7.117172	-2.378462	6.421384	-0.002788	-0.002037	0.000010	0.230957	0.158691	-0.794678	-19.825629	46.253213	-70.274977
59573		-7.117111	-2.378563	6.421414	-0.004760	-0.001319	0.003938	0.228760	0.155029	-0.797119	-19.826072	46.253173	-70.273547
59574		-7.125474	-2.371703	6.388602	-0.002393	-0.000219	0.001134	0.235352	0.154053	-0.789795	-19.827716	46.253001	-70.274271
59575		-7.086215	-2.369313	6.433650	-0.004735	-0.002199	0.005607	0.231445	0.155762	-0.795898	-19.827025	46.252811	-70.271292
59576		-7.109423	-2.365288	6.440329	-0.004365	0.000499	0.005061	0.236084	0.155273	-0.794434	-19.827705	46.253915	-70.269933
59577		-7.109453	-2.365203	6.440326	-0.001356	-0.002339	0.002509	0.231934	0.155762	-0.803711	-19.826795	46.253048	-70.269329
59578		-7.124947	-2.391524	6.402452	-0.002342	-0.001980	0.004473	0.237305	0.153809	-0.791016	-19.826117	46.252668	-70.267692
59579		-7.109514	-2.365033	6.440322	-0.005401	0.002619	0.003685	0.236328	0.157227	-0.800781	-19.827869	46.254701	-70.267565
59580		-7.094826	-2.318472	6.464196	-0.008756	0.001879	0.008452	0.231201	0.143799	-0.796631	-19.829443	46.257273	-70.263747
59581		-7.148917	-2.388217	6.408012	-0.023316	0.007610	0.001894	0.234863	0.158691	-0.793945	-19.843483	46.261649	-70.266420
59582		-7.119669	-2.339402	6.391869	-0.006043	0.006557	0.003433	0.232910	0.149902	-0.804199	-19.847122	46.265673	-70.270105
59583		-7.088009	-2.370902	6.431088	-0.014065	0.004028	0.001244	0.228760	0.148438	-0.795898	-19.855501	46.267991	-70.272279
59584		-7.096085	-2.384758	6.411515	-0.010240	0.003943	0.002610	0.231689	0.151611	-0.796387	-19.861361	46.270353	-70.277203
59585		-7.127660	-2.330546	6.448797	-0.003009	0.002838	0.002551	0.238525	0.152588	-0.797852	-19.862427	46.272283	-70.278024
59586		-7.120241	-2.361483	6.403664	-0.018263	0.001415	0.000419	0.230469	0.158691	-0.794434	-19.873739	46.272987	-70.282209
59587		-7.097486	-2.409749	6.332690	-0.007847	0.004163	0.001477	0.242188	0.163330	-0.796387	-19.878452	46.275422	-70.284241
59588		-7.112904	-2.349266	6.421823	-0.004392	0.001380	0.003389	0.229492	0.156982	-0.791748	-19.880441	46.276706	-70.281484
59589		-7.097085	-2.386755	6.409665	-0.007207	0.000225	0.001727	0.227051	0.158936	-0.797119	-19.883845	46.277068	-70.282212
59590		-7.120385	-2.382817	6.416205	0.000816	0.002753	0.003919	0.241699	0.158447	-0.799072	-19.882696	46.278985	-70.281336
59591		-7.136409	-2.345343	6.428130	-0.003752	-0.002558	0.003639	0.232178	0.154053	-0.801270	-19.882476	46.278221	-70.279788
59592		-7.105127	-2.399811	6.390411	-0.005775	-0.000078	0.004227	0.236816	0.153320	-0.801514	-19.884289	46.278875	-70.278789
59593		-7.112718	-2.369458	6.435155	-0.001358	-0.002339	0.002507	0.236572	0.153564	-0.792969	-19.883380	46.278007	-70.278185
59594		-7.119895	-2.402818	6.429944	-0.007158	-0.001536	0.005065	0.233154	0.154053	-0.798340	-19.885143	46.278059	-70.277464
59595		-7.120408	-2.382544	6.416281	-0.001309	-0.004102	0.005845	0.237305	0.156982	-0.798584	-19.881967	46.276892	-70.273762
59596		-7.113122	-2.348964	6.421692	0.000025	-0.000881	0.001669	0.241943	0.148438	-0.799072	-19.881715	46.276578	-70.274882
59597		-7.120832	-2.362225	6.402732	-0.005184	-0.002253	0.001139	0.240723	0.154541	-0.794434	-19.883787	46.275490	-70.275370
59598		-7.097125	-2.386246	6.409810	0.002839	0.000272	0.003331	0.233643	0.155273	-0.792725	-19.881127	46.276315	-70.277381
59599		-7.120796	-2.361960	6.402870	-0.002766	-0.002916	0.001676	0.232666	0.154297	-0.791504	-19.881376	46.274975	-70.277263
59600		-7.089726	-2.352712	6.415328	-0.002741	-0.003797	0.003344	0.241943	0.154297	-0.807861	-19.881187	46.273403	-70.276320
59601		-7.119952	-2.382040	6.416974	-0.001358	-0.002339	0.002507	0.231445	0.161865	-0.790283	-19.880279	46.272535	-70.275718
59602		-7.096013	-2.362649	6.487794	-0.004788	-0.000436	0.002264	0.231445	0.160156	-0.799561	-19.882628	46.272601	-70.275121
59603		-7.127683	-2.395359	6.397972	-0.006147	-0.002775	0.004770	0.236572	0.149902	-0.802734	-19.883100	46.271940	-70.272631
59604		-7.088920	-2.372738	6.429407	0.002468	-0.002426	0.003874	0.227783	0.160889	-0.799561	-19.879845	46.271161	-70.271946
59605		-7.120369	-2.361613	6.403473	-0.004764	-0.001317	0.003932	0.231689	0.153809	-0.802979	-19.880293	46.271122	-70.270520
59606		-7.119818	-2.381800	6.417211	-0.004764	-0.001317	0.003932	0.235840	0.157715	-0.794189	-19.881433	46.270824	-70.268980
59607		-7.120394	-2.361724	6.403404	-0.004789	-0.000436	0.002263	0.236816	0.153809	-0.790527	-19.883016	46.270935	-70.269104
59608		-7.151916	-2.350806	6.377312	-0.003357	-0.000741	0.004763	0.241943	0.149658	-0.795166	-19.883042	46.271374	-70.267530
59609		-7.097338	-2.365602	6.396616	-0.002370	-0.001099	0.002800	0.236572	0.154785	-0.800049	-19.882801	46.271232	-70.267049
59610		-7.159109	-2.340560	6.435644	-0.004020	0.004079	0.002846	0.235596	0.144531	-0.794189	-19.885118	46.273944	-70.270300
59611		-7.127715	-2.351736	6.461503	-0.011358	-0.004145	0.004237	0.232666	0.151367	-0.796387	-19.888597	46.272441	-70.267839
59612		-7.136870	-2.368479	6.351031	-0.006836	0.002926	0.001183	0.239258	0.150146	-0.793213	-19.893074	46.274086	-70.274215
59613		-7.096690	-2.406766	6.423296	-0.004393	0.001381	0.003388	0.240723	0.156982	-0.796143	-19.894166	46.275395	-70.273975
59614		-7.112720	-2.369521	6.435130	-0.005776	-0.000077	0.004225	0.231201	0.161621	-0.801270	-19.895938	46.276173	-70.273891
59615		-7.114084	-2.372531	6.343874	0.000072	-0.002645	0.005005	0.238525	0.157959	-0.798828	-19.892741	46.275628	-70.271255
59616		-7.120547	-2.382372	6.416190	-0.003382	0.000141	0.003094	0.239990	0.150635	-0.804932	-19.893969	46.276092	-70.269442
59617		-7.098042	-2.366098	6.395651	-0.003358	-0.000740	0.004762	0.234619	0.156006	-0.795410	-19.893262	46.276526	-70.267533
59618		-7.090273	-2.352777	6.414699	-0.002347	-0.001981	0.004467	0.238525	0.158203	-0.795898	-19.892476	46.276201	-70.267347
59619		-7.120595	-2.382071	6.416249	-0.003755	-0.002557	0.003636	0.232422	0.155029	-0.792480	-19.892260	46.275437	-70.265804
59620		-7.112698	-2.368977	6.435354	-0.002792	-0.002033	0.000005	0.237061	0.147461	-0.791748	-19.894385	46.274198	-70.267076
59621		-7.090027	-2.352676	6.415008	0.000072	-0.002645	0.005004	0.233398	0.149170	-0.795898	-19.891189	46.273653	-70.264441
59622		-7.144059	-2.357762	6.409546	-0.004766	-0.001316	0.003930	0.232422	0.156006	-0.799316	-19.892090	46.273581	-70.267218
59623		-7.144061	-2.357750	6.409548	-0.002371	-0.001099	0.002799	0.229248	0.151611	-0.802002	-19.891850	46.273439	-70.266738
59624		-7.089417	-2.372640	6.428895	-0.003755	-0.002556	0.003635	0.237305	0.160645	-0.794434	-19.892204	46.272444	-70.267062
59625		-7.112966	-2.348431	6.422060	-0.000349	-0.003579	0.002210	0.231445	0.148682	-0.794922	-19.890632	46.270850	-70.266341
59626		-7.120610	-2.361623	6.403202	-0.002792	-0.002033	0.000005	0.230713	0.152832	-0.794189	-19.892681	46.269581	-70.268560
59627		-7.128275	-2.374679	6.384371	0.001083	-0.003885	0.004709	0.236328	0.157959	-0.802490	-19.888818	46.268310	-70.265805
59628		-7.088906	-2.372093	6.429660	0.000072	-0.002645	0.005003	0.227295	0.152588	-0.795410	-19.886279	46.267630	-70.263888
59629		-7.111982	-2.367769	6.436590	0.000072	-0.002645	0.005003	0.237305	0.163086	-0.791992	-19.883083	46.267085	-70.261254
59630		-7.119741	-2.380638	6.417728	0.000048	-0.001763	0.003335	0.236084	0.159180	-0.799072	-19.881796	46.266550	-70.259274
59631		-7.119655	-2.380315	6.417943	0.001082	-0.003885	0.004708	0.235596	0.156738	-0.799561	-19.877935	46.265278	-70.256520
59632		-7.088639	-2.370792	6.430434	0.000048	-0.001763	0.003335	0.233887	0.156982	-0.793213	-19.876622	46.264803	-70.254712
59633		-7.097421	-2.343369	6.384148	-0.000326	-0.004461	0.003877	0.230469	0.154785	-0.801025	-19.873920	46.263060	-70.252445
59634		-7.111536	-2.366329	6.437613	0.000048	-0.001763	0.003335	0.232666	0.154053	-0.786377	-19.872533	46.262498	-70.251714
59635		-7.142950	-2.355189	6.411727	-0.001361	-0.002339	0.002504	0.228027	0.155762	-0.794922	-19.871628	46.261631	-70.251115
59636		-7.096090	-2.383113	6.412120	-0.002324	-0.002861	0.006133	0.239258	0.153320	-0.799316	-19.869809	46.261025	-70.248140
59637		-7.142233	-2.374959	6.425809	-0.000350	-0.003579	0.002209	0.230713	0.157471	-0.796875	-19.868240	46.259432	-70.247422
59638		-7.096435	-2.362616	6.398721	-0.004743	-0.002196	0.005597	0.232666	0.152344	-0.788574	-19.868223	46.259159	-70.245012
59639		-7.088088	-2.369383	6.431561	0.001456	-0.001188	0.004166	0.236572	0.151611	-0.787354	-19.865003	46.259235	-70.243442
59640		-7.119994	-2.337980	6.392027	-0.001735	-0.005036	0.003045	0.231445	0.149170	-0.799805	-19.864080	46.257017	-70.243637
59641		-7.118767	-2.378154	6.419730	0.000047	-0.001763	0.003335	0.238281	0.148682	-0.791260	-19.862019	46.256621	-70.242553
59642		-7.133990	-2.360692	6.445712	0.001081	-0.003885	0.004707	0.232666	0.153809	-0.797852	-19.858606	46.255298	-70.243677
59643		-7.111276	-2.344127	6.425503	-0.001314	-0.004101	0.005838	0.237061	0.153076	-0.793457	-19.855440	46.254130	-70.239984
59644		-7.125968	-2.346934	6.465174	0.000024	-0.000881	0.001667	0.226807	0.154541	-0.795898	-19.855125	46.253820	-70.241765
59645		-7.102951	-2.351068	6.458250	-0.009230	0.002715	0.002316	0.231689	0.163818	-0.795410	-19.859863	46.255639	-70.242735
59646		-7.118675	-2.377425	6.420101	0.000071	-0.002645	0.005001	0.234863	0.151611	-0.791260	-19.857468	46.254836	-70.238551
59647		-7.087750	-2.368063	6.432419	-0.003382	0.000143	0.003093	0.240479	0.153320	-0.794434	-19.857895	46.255421	-70.238192
59648		-7.126556	-2.390414	6.401076	-0.004767	-0.001313	0.003929	0.224854	0.152100	-0.795410	-19.858958	46.255433	-70.238440
59649		-7.087826	-2.367993	6.432361	-0.000963	-0.000522	0.003629	0.233643	0.165771	-0.792480	-19.857562	46.255763	-70.237476
59650		-7.088422	-2.347658	6.418619	-0.003359	-0.000738	0.004760	0.232910	0.152344	-0.787598	-19.857659	46.255952	-70.234028
59651		-7.104144	-2.373945	6.380498	-0.005777	-0.000072	0.004224	0.230225	0.152100	-0.795410	-19.858778	46.256640	-70.232727
59652		-7.119489	-2.356818	6.406218	-0.002372	-0.001097	0.002798	0.232910	0.153320	-0.804688	-19.859116	46.256368	-70.234256
59653		-7.088020	-2.367851	6.432201	-0.007163	-0.001528	0.005059	0.231445	0.156006	-0.797852	-19.860263	46.256434	-70.231895
59654		-7.127435	-2.369930	6.387073	-0.002961	0.001077	0.005885	0.237549	0.159424	-0.794922	-19.859652	46.257862	-70.230745
59655		-7.111348	-2.363608	6.438820	-0.002349	-0.001979	0.004464	0.229004	0.152100	-0.795654	-19.858284	46.257569	-70.228720
59656		-7.119727	-2.356434	6.406094	-0.003359	-0.000738	0.004759	0.229980	0.156250	-0.792969	-19.858266	46.257885	-70.226988
59657		-7.096680	-2.360358	6.399282	-0.003382	0.000144	0.003092	0.234131	0.153320	-0.797852	-19.858694	46.258470	-70.226630
59658		-7.142983	-2.352515	6.412673	-0.004814	0.000451	0.000594	0.234375	0.150635	-0.792480	-19.862049	46.258578	-70.229071
59659		-7.104614	-2.373648	6.380084	-0.003336	-0.001620	0.006425	0.229980	0.144287	-0.792969	-19.860216	46.258861	-70.225619
59660		-7.111591	-2.363523	6.438583	-0.002419	0.000667	-0.000536	0.231689	0.148193	-0.797119	-19.862620	46.258915	-70.232941
59661		-7.119517	-2.376787	6.419404	-0.004393	0.001385	0.003387	0.238525	0.154541	-0.802734	-19.863713	46.260225	-70.232703
59662		-7.112249	-2.343374	6.424700	-0.001339	-0.003220	0.004168	0.235352	0.152832	-0.793701	-19.862164	46.259119	-70.233377
59663		-7.111727	-2.363315	6.438509	-0.001951	-0.000163	0.005590	0.232422	0.154297	-0.793457	-19.860303	46.260024	-70.230987
59664		-7.096647	-2.380490	6.412479	-0.010218	0.003078	0.004276	0.235596	0.148926	-0.798340	-19.865197	46.262342	-70.231618
59665		-7.105358	-2.373672	6.379247	-0.005028	0.005323	0.003142	0.233887	0.164551	-0.804688	-19.867594	46.265727	-70.232680
59666		-7.120480	-2.376682	6.418375	-0.003972	0.002319	0.006179	0.232422	0.154785	-0.799561	-19.867738	46.267951	-70.230541
59667		-7.097630	-2.380587	6.411355	-0.003008	0.002841	0.002552	0.221924	0.149658	-0.797119	-19.868805	46.269884	-70.231365
59668		-7.121540	-2.356321	6.404120	-0.003972	0.002319	0.006179	0.240234	0.154297	-0.798096	-19.868760	46.271899	-70.231920
59669		-7.121795	-2.356405	6.403806	-0.006835	0.002935	0.001183	0.228516	0.159912	-0.798828	-19.872810	46.273615	-70.233837
59670		-7.121320	-2.376604	6.417471	-0.001318	-0.004102	0.005833	0.229492	0.151611	-0.798828	-19.870360	46.272327	-70.229713
59671		-7.098281	-2.380305	6.410739	-0.001576	0.002534	0.005049	0.236816	0.159912	-0.800293	-19.869138	46.274580	-70.228503
59672		-7.114257	-2.343028	6.422604	-0.007211	0.000238	0.001723	0.234619	0.158203	-0.791992	-19.873193	46.274783	-70.229735
59673		-7.106902	-2.373420	6.377621	-0.004371	0.000504	0.005052	0.231934	0.155518	-0.790771	-19.873157	46.275943	-70.227951
59674		-7.152364	-2.341913	6.468686	0.002863	-0.000617	0.004995	0.236084	0.149414	-0.791260	-19.869539	46.276398	-70.225103
59675		-7.083445	-2.397406	6.384462	-0.013436	0.000118	0.001483	0.222412	0.148438	-0.796875	-19.876628	46.276655	-70.225993
59676		-7.114151	-2.363206	6.435871	0.003261	0.001198	0.006122	0.231445	0.148926	-0.797119	-19.872150	46.278170	-70.227712
59677		-7.114848	-2.342630	6.422093	-0.006746	-0.000592	0.007846	0.231201	0.160156	-0.801758	-19.871676	46.279284	-70.223440
59678		-7.107746	-2.372796	6.376912	-0.007003	0.006044	0.007063	0.239258	0.161377	-0.797607	-19.873724	46.283597	-70.222961
59679		-7.122413	-2.332432	6.479992	-0.002374	-0.001096	0.002795	0.240967	0.157227	-0.784180	-19.873489	46.283455	-70.222485
59680		-7.146572	-2.351790	6.408938	-0.007846	0.004178	0.001477	0.238037	0.149414	-0.800293	-19.879100	46.286033	-70.221773
59681		-7.130616	-2.346362	6.460255	-0.012073	0.002459	-0.001018	0.233398	0.150391	-0.794922	-19.887296	46.287064	-70.225273
59682		-7.107609	-2.414682	6.402790	-0.012662	0.004633	0.002069	0.237305	0.155029	-0.800781	-19.894952	46.289812	-70.230593
59683		-7.108783	-2.374765	6.375024	-0.006203	-0.001002	0.001425	0.230957	0.155518	-0.802490	-19.897702	46.289454	-70.231213
59684		-7.069619	-2.372749	6.419915	-0.001577	0.002533	0.005048	0.235840	0.151367	-0.796631	-19.897069	46.291544	-70.231063
59685		-7.132691	-2.350538	6.367765	-0.009566	-0.001739	0.006179	0.234375	0.151855	-0.800293	-19.898917	46.291715	-70.227767
59686		-7.139140	-2.360731	6.439993	0.000022	-0.000883	0.001665	0.236084	0.155518	-0.792480	-19.898464	46.291378	-70.231018
59687		-7.124285	-2.357654	6.400576	-0.005171	-0.003125	0.002795	0.232666	0.145996	-0.799561	-19.899418	46.290143	-70.229970
59688		-7.085284	-2.399091	6.381788	-0.003784	-0.001670	0.001962	0.234131	0.150635	-0.800049	-19.900804	46.289439	-70.233025
59689		-7.131508	-2.327491	6.445645	0.002042	-0.003366	0.001075	0.239502	0.153320	-0.798584	-19.898545	46.287739	-70.233250
59690		-7.116072	-2.344629	6.420007	-0.005193	-0.002242	0.001129	0.231934	0.153809	-0.790283	-19.901125	46.286612	-70.236221
59691		-7.162613	-2.316421	6.420039	0.003052	-0.004608	0.000780	0.228516	0.154053	-0.800049	-19.898200	46.284185	-70.236326
59692		-7.122999	-2.314668	6.465328	-0.008433	-0.004320	-0.003328	0.236572	0.150146	-0.795898	-19.904806	46.280882	-70.241127
59693		-7.124152	-2.381691	6.323803	-0.007214	0.000241	0.001720	0.239990	0.154785	-0.798096	-19.908222	46.281251	-70.241867
59694		-7.106470	-2.373199	6.466815	-0.008012	-0.003388	-0.000535	0.238525	0.153076	-0.799561	-19.913166	46.279257	-70.245064
59695		-7.092571	-2.393993	6.349468	-0.016869	0.002034	0.001237	0.231201	0.152588	-0.798096	-19.922753	46.280498	-70.246687
59696		-7.068232	-2.395787	6.433530	-0.004462	0.004035	-0.001611	0.230469	0.148438	-0.798096	-19.927760	46.282156	-70.253239
59697		-7.093297	-2.332126	6.398388	-0.024363	0.009795	0.000509	0.236328	0.159912	-0.789063	-19.943637	46.287434	-70.257625
59698		-7.115908	-2.369973	6.431439	-0.018936	0.006285	-0.001507	0.240723	0.151123	-0.786133	-19.957429	46.290314	-70.263484
59699		-7.108943	-2.401497	6.385531	-0.014797	0.011537	-0.005669	0.239014	0.153564	-0.796875	-19.971666	46.295319	-70.273182
59700		-7.124991	-2.321674	6.460619	-0.005664	0.009264	0.002900	0.232178	0.157227	-0.792725	-19.975949	46.300902	-70.276714
59701		-7.080200	-2.416623	6.318296	-0.015300	0.010176	0.004077	0.236328	0.158447	-0.792480	-19.984707	46.307081	-70.278434
59702		-7.118197	-2.372594	6.427938	0.001852	0.000619	0.005292	0.232178	0.152344	-0.801758	-19.981742	46.308249	-70.275378
59703		-7.117940	-2.392801	6.441350	-0.010248	0.003967	0.002600	0.236328	0.154053	-0.796143	-19.987166	46.310796	-70.276490
59704		-7.111228	-2.403068	6.382396	-0.004419	0.002270	0.001717	0.237061	0.157715	-0.801270	-19.989892	46.312102	-70.280231
59705		-7.142440	-2.348763	6.420178	-0.003387	0.000144	0.003086	0.236816	0.153076	-0.795898	-19.990327	46.312686	-70.279881
59706		-7.181483	-2.307568	6.438884	-0.002043	0.003368	-0.001075	0.228271	0.151611	-0.790283	-19.993596	46.314124	-70.284587
59707		-7.103031	-2.410736	6.414793	-0.007381	-0.007325	-0.000302	0.240723	0.156494	-0.793945	-19.996697	46.310023	-70.284759
59708		-7.174097	-2.318354	6.380494	-0.005239	-0.000474	-0.002205	0.237061	0.155029	-0.795410	-20.001637	46.309151	-70.289401
59709		-7.079331	-2.415852	6.408261	-0.008812	-0.007013	-0.002801	0.229004	0.152100	-0.795166	-20.007030	46.304728	-70.291608
59710		-7.088302	-2.432292	6.297931	-0.004840	0.001340	-0.001077	0.236572	0.162354	-0.795166	-20.011415	46.304977	-70.296769
59711		-7.117534	-2.332009	6.491245	0.000655	-0.004824	0.001905	0.234863	0.156738	-0.789307	-20.009180	46.302655	-70.295929
59712		-7.063931	-2.413848	6.369013	-0.015653	-0.004072	-0.001623	0.236084	0.158447	-0.798096	-20.019247	46.299988	-70.295872
59713		-7.093818	-2.400508	6.434321	-0.001388	-0.001456	0.000831	0.232422	0.154785	-0.797852	-20.019479	46.299268	-70.296825
59714		-7.062895	-2.391574	6.446551	-0.008206	0.000600	0.003674	0.237549	0.152344	-0.789795	-20.023062	46.300058	-70.296650
59715		-7.110121	-2.406746	6.382243	-0.005786	-0.000070	0.004212	0.234131	0.161865	-0.796387	-20.024194	46.300748	-70.295362
59716		-7.118634	-2.336281	6.399707	-0.002420	0.000670	-0.000538	0.235352	0.154297	-0.799316	-20.026924	46.300848	-70.297559
59717		-7.141210	-2.352741	6.420090	-0.005196	-0.002241	0.001123	0.238037	0.151367	-0.791016	-20.029012	46.299762	-70.298062
59718		-7.125229	-2.390281	6.408045	-0.005574	-0.004939	0.001658	0.235107	0.155762	-0.797607	-20.030959	46.297295	-70.299641
59719		-7.125046	-2.390355	6.408222	-0.001366	-0.002340	0.002495	0.228271	0.156738	-0.789795	-20.030059	46.296426	-70.299047
59720		-7.241669	-2.266290	6.465183	0.002442	-0.001555	0.002203	0.237061	0.152832	-0.796387	-20.027932	46.295717	-70.299382
59721		-7.178774	-2.269067	6.503768	-0.018663	-0.011894	-0.006977	0.234863	0.147949	-0.798096	-20.040315	46.287846	-70.303453
59722		-7.077345	-2.464231	6.344936	-0.025549	-0.007183	-0.009129	0.230469	0.159180	-0.802246	-20.059176	46.282020	-70.314483
59723		-7.076293	-2.422474	6.409116	-0.003008	-0.007823	-0.005354	0.235107	0.159912	-0.794434	-20.062508	46.276658	-70.318441
59724		-7.021249	-2.438444	6.428508	-0.018034	-0.005168	0.001163	0.243164	0.154785	-0.797363	-20.072040	46.273791	-70.317266
59725		-7.091701	-2.429676	6.357673	-0.003131	-0.006494	0.003857	0.233887	0.164307	-0.794922	-20.070531	46.270955	-70.314429
59726		-7.091016	-2.386486	6.422003	-0.001766	-0.004154	0.001363	0.231201	0.154297	-0.803955	-20.070887	46.268903	-70.312707
59727		-7.114488	-2.362298	6.415284	-0.006164	-0.002769	0.004745	0.231934	0.151855	-0.790771	-20.071382	46.268245	-70.310239
59728		-7.168930	-2.347006	6.396311	0.002066	-0.004253	0.002735	0.239014	0.158691	-0.791016	-20.068416	46.266167	-70.311886
59729		-7.089923	-2.406739	6.436286	-0.008396	-0.006080	-0.000014	0.235107	0.158936	-0.798340	-20.072187	46.262792	-70.312181
59730		-7.067349	-2.433884	6.352192	-0.004520	-0.007950	0.004686	0.234375	0.159668	-0.797119	-20.071445	46.259319	-70.307158
59731		-7.089898	-2.386345	6.423290	0.006675	0.000156	0.004704	0.231201	0.157471	-0.795166	-20.065210	46.260228	-70.305553
59732		-7.206910	-2.304948	6.416604	0.002132	-0.006908	0.007726	0.229736	0.153809	-0.795166	-20.059112	46.257745	-70.299114
59733		-7.159360	-2.352907	6.430861	-0.003089	-0.008263	0.007183	0.238037	0.154297	-0.793213	-20.055348	46.254609	-70.293187
59734		-7.337576	-2.183791	6.514095	0.003575	-0.004125	-0.007307	0.240723	0.154297	-0.793701	-20.057275	46.250748	-70.301613
59735		-7.119499	-2.312101	6.449754	-0.026318	-0.023230	-0.015973	0.230957	0.153809	-0.804443	-20.076764	46.235005	-70.309452
59736		-7.009548	-2.494423	6.310513	-0.015079	-0.016893	-0.012631	0.232178	0.149902	-0.796631	-20.089689	46.223255	-70.318739
59737		-7.108185	-2.323224	6.484297	-0.006050	-0.014752	-0.012383	0.229004	0.154053	-0.797363	-20.097278	46.212779	-70.326183
59738		-7.083213	-2.476373	6.390845	-0.032011	-0.013080	-0.014732	0.227539	0.158203	-0.788818	-20.121748	46.202510	-70.339709
59739		-7.145754	-2.436251	6.325538	-0.008799	-0.004785	-0.018682	0.238770	0.151611	-0.797119	-20.136484	46.196151	-70.354877
59740		-7.088389	-2.407809	6.500048	-0.015032	-0.004899	-0.018929	0.235840	0.157227	-0.801514	-20.155432	46.189588	-70.371704
59741		-7.121180	-2.381687	6.369075	-0.027499	-0.005127	-0.019423	0.233154	0.157227	-0.802734	-20.181219	46.182891	-70.387340
59742		-7.025176	-2.501606	6.409796	-0.017835	-0.006922	-0.018941	0.230957	0.156982	-0.796143	-20.201353	46.175183	-70.403459
59743		-7.111860	-2.436826	6.337401	-0.012000	0.002035	-0.011905	0.236084	0.157471	-0.795166	-20.215514	46.173818	-70.415294
59744		-7.157227	-2.324143	6.465569	-0.005347	-0.007575	-0.016788	0.231934	0.156250	-0.796875	-20.227197	46.166214	-70.428969
59745		-7.016443	-2.516876	6.351090	-0.023199	-0.006073	-0.011936	0.231934	0.164795	-0.787354	-20.246115	46.160479	-70.438504
59746		-7.140640	-2.407717	6.389313	0.002936	-0.000175	-0.007549	0.231445	0.162842	-0.799561	-20.249569	46.158652	-70.444906
59747		-7.038418	-2.408620	6.472609	-0.010259	-0.006690	-0.005319	0.241455	0.152832	-0.793213	-20.257239	46.153896	-70.449127
59748		-7.016878	-2.522244	6.259889	-0.012443	-0.001120	0.001170	0.226318	0.155762	-0.793945	-20.264279	46.153426	-70.450435
59749		-7.131626	-2.289845	6.523398	0.016489	-0.003842	-0.002363	0.229248	0.159424	-0.793213	-20.255557	46.150787	-70.453177
59750		-7.169135	-2.353159	6.519187	-0.026422	0.001624	-0.006814	0.230469	0.151611	-0.802490	-20.275604	46.149908	-70.461989
59751		-7.170937	-2.401021	6.363118	-0.020102	0.001316	-0.017453	0.238281	0.156738	-0.797363	-20.297353	46.147042	-70.477914
59752		-7.045099	-2.427916	6.452436	-0.016318	0.002991	-0.019409	0.237793	0.157227	-0.799561	-20.318735	46.144590	-70.499371
59753		-7.014443	-2.527476	6.349090	-0.024339	0.010253	-0.012034	0.231201	0.154541	-0.798584	-20.341730	46.147596	-70.513657
59754		-7.139212	-2.375893	6.450387	-0.007634	0.012199	-0.009028	0.230957	0.156738	-0.795410	-20.354318	46.152154	-70.528780
59755		-7.224755	-2.392061	6.431332	-0.025380	0.012383	-0.013405	0.229004	0.158691	-0.793457	-20.379123	46.156025	-70.544748
59756		-7.225548	-2.311582	6.467186	-0.019671	0.004490	-0.030549	0.226074	0.164307	-0.803467	-20.409135	46.152003	-70.573178
59757		-7.123307	-2.422071	6.434746	-0.032999	0.002414	-0.036657	0.231689	0.168701	-0.799561	-20.449227	46.145859	-70.604293
59758		-7.085399	-2.406704	6.373932	-0.023969	0.004565	-0.036401	0.227783	0.158691	-0.794434	-20.485271	46.140535	-70.633305
59759		-7.059503	-2.432892	6.471095	-0.028212	0.002859	-0.038923	0.236572	0.167480	-0.796631	-20.523961	46.134146	-70.666285
59760		-7.013294	-2.530918	6.327971	-0.035606	0.006173	-0.031322	0.226074	0.156494	-0.802734	-20.564050	46.130886	-70.693091
59761		-7.044891	-2.460173	6.351623	-0.013646	0.008598	-0.026084	0.225830	0.164551	-0.791016	-20.588420	46.130133	-70.717786
59762		-7.097424	-2.466069	6.436353	-0.021861	0.009177	-0.022418	0.236084	0.162842	-0.792969	-20.616088	46.130009	-70.741147
59763		-7.183509	-2.442973	6.390379	-0.022634	0.004670	-0.023033	0.233887	0.156982	-0.797363	-20.643079	46.127749	-70.762335
59764		-7.019800	-2.470035	6.433466	-0.009035	0.000115	-0.016162	0.233154	0.164307	-0.794678	-20.658031	46.124397	-70.778021
59765		-7.011601	-2.565012	6.337164	-0.020719	0.003488	-0.014402	0.226318	0.155762	-0.798340	-20.678859	46.123239	-70.792185
59766		-7.105222	-2.467753	6.400890	-0.000780	0.008394	-0.008550	0.234131	0.153809	-0.792236	-20.686523	46.125633	-70.805052
59767		-7.082916	-2.452142	6.379990	-0.008776	0.004110	-0.007458	0.231934	0.160156	-0.799561	-20.696769	46.126209	-70.814027
59768		-7.136740	-2.521597	6.323139	-0.009366	0.006267	-0.004357	0.236572	0.164795	-0.791992	-20.706442	46.128457	-70.824716
59769		-7.130055	-2.425660	6.379227	0.009148	0.000863	-0.008960	0.228027	0.160400	-0.799316	-20.706572	46.126988	-70.833904
59770		-6.989058	-2.509765	6.379251	-0.004978	-0.007110	-0.001468	0.235596	0.167969	-0.793213	-20.709570	46.122605	-70.834976
59771		-6.981350	-2.539139	6.334471	0.009572	-0.000492	0.009736	0.234863	0.157715	-0.792480	-20.698750	46.124197	-70.829310
59772		-7.004799	-2.533279	6.341743	0.014425	-0.004101	0.026710	0.227539	0.156494	-0.790771	-20.675628	46.127279	-70.808641
59773		-6.966823	-2.550591	6.309777	0.022579	-0.005160	0.035599	0.231445	0.162109	-0.794922	-20.641948	46.131593	-70.781605
59774		-6.927432	-2.627645	6.318501	0.027124	-0.001232	0.050143	0.239258	0.158203	-0.791748	-20.598883	46.140700	-70.746162
59775		-6.883324	-2.608913	6.292202	0.037953	0.001044	0.068260	0.229980	0.165283	-0.797852	-20.539438	46.154888	-70.695621
59776		-6.799777	-2.733181	6.222866	0.041110	0.013277	0.093208	0.228271	0.160645	-0.797363	-20.467448	46.180539	-70.628774
59777		-6.867435	-2.679462	6.157847	0.075504	0.023451	0.124381	0.228271	0.163574	-0.792236	-20.359628	46.217879	-70.541060
59778		-6.949697	-2.559656	6.274215	0.106088	0.034218	0.141566	0.234863	0.164307	-0.791260	-20.227455	46.263934	-70.441980
59779		-6.954617	-2.476702	6.416021	0.115047	0.046187	0.151282	0.232666	0.150879	-0.791504	-20.086160	46.318542	-70.339434
59780		-7.041697	-2.422152	6.297101	0.120425	0.080932	0.137809	0.240234	0.157471	-0.804443	-19.956957	46.388919	-70.256809
59781		-6.745291	-2.296032	6.748973	0.160074	0.134258	0.127899	0.238770	0.149414	-0.793457	-19.820513	46.486088	-70.196810
59782		-7.505917	-2.077346	6.973252	0.072854	0.154688	0.127432	0.231934	0.149414	-0.797363	-19.738719	46.594048	-70.143803
59783		-7.300618	-2.324634	6.270130	0.053387	0.159598	0.084276	0.236572	0.146484	-0.789795	-19.692883	46.696327	-70.124555
59784		-7.216447	-1.934661	6.990425	0.094853	0.180135	0.070200	0.232666	0.149658	-0.800781	-19.635818	46.806642	-70.125513
59785		-7.038773	-2.181703	6.729112	-0.014538	0.221806	0.059698	0.243896	0.150879	-0.794189	-19.655606	46.937739	-70.142928
59786		-7.033585	-2.251600	6.473062	-0.023587	0.243515	0.086829	0.245117	0.150146	-0.798828	-19.669978	47.085410	-70.146730
59787		-7.067695	-2.027811	6.995225	-0.026457	0.282513	0.070011	0.239990	0.150391	-0.795410	-19.703468	47.251238	-70.173433
59788		-6.544414	-2.397374	7.157901	-0.135091	0.407886	0.143863	0.255615	0.149902	-0.796631	-19.783096	47.498564	-70.179176
59789		-6.418843	-3.165718	7.115686	-0.131014	0.533267	0.255796	0.253662	0.151611	-0.790283	-19.820691	47.835592	-70.130183
59790		-5.073790	-4.321327	8.059611	0.040528	0.718082	0.405506	0.262207	0.152832	-0.795166	-19.709773	48.301058	-70.014621
59791		-3.141447	-3.826030	10.233576	0.256774	1.197639	0.656742	0.279785	0.148193	-0.786133	-19.421029	49.073556	-69.827745
59792		-6.664250	-3.393048	9.111359	-0.171574	1.623638	0.986843	0.294189	0.131592	-0.784424	-19.255529	50.138191	-69.481458
59793		-6.114431	-3.755253	8.603440	0.012124	1.929303	1.049728	0.309814	0.135498	-0.782471	-18.996738	51.379571	-69.157919
59794		-6.876786	-4.062763	8.490381	0.213011	2.246434	1.224282	0.333008	0.133301	-0.767578	-18.553872	52.823788	-68.760198
59795		-8.920789	-4.435026	8.894087	0.206142	2.446656	1.346775	0.354736	0.134766	-0.757324	-18.039415	54.396950	-68.269456
59796		-8.330738	-6.006405	6.816808	0.256476	2.503789	1.516303	0.375244	0.122070	-0.749512	-17.330375	56.028280	-67.583768
59797		-10.991616	-4.832141	7.079891	0.667577	2.485691	1.656200	0.396240	0.110352	-0.746094	-16.186315	57.665623	-66.675751
59798		-9.267159	-5.592684	8.688690	0.824384	2.212242	1.552270	0.417236	0.089355	-0.734619	-14.875157	59.126141	-65.691558
59799		-4.376670	-6.536578	12.587790	1.087582	1.827702	1.290440	0.425049	0.092285	-0.725342	-13.464234	60.322541	-64.780893
59800		-0.996279	-7.012432	16.063860	0.757593	1.446138	0.913277	0.441650	0.069092	-0.720703	-12.453300	61.248752	-64.120945
59801		-7.445691	-7.405204	17.373030	0.099639	0.845291	0.367434	0.455322	0.073486	-0.713623	-12.209169	61.766944	-63.909554
59802		0.341589	-8.098316	17.202157	-0.398532	-0.077228	-0.271239	0.447021	0.067383	-0.713135	-12.704730	61.692005	-64.214514
59803		4.229724	-7.418032	15.029848	-0.548069	-0.512645	-0.496443	0.453125	0.070313	-0.712158	-13.408463	61.341684	-64.659315
59804		2.980473	-6.091343	14.446939	-0.623489	-0.844748	-0.506305	0.441895	0.068848	-0.713623	-14.069220	60.802655	-65.010751
59805		1.447091	-5.535408	14.827093	-0.701745	-1.286985	-0.594230	0.435791	0.076416	-0.716553	-14.730241	60.003801	-65.309986
59806		0.186087	-5.641525	14.013490	-0.872307	-1.694139	-0.675277	0.421875	0.085938	-0.708984	-15.438362	58.963145	-65.553323
59807		-1.895489	-5.574797	13.334834	-0.840328	-2.056837	-0.793049	0.408203	0.088623	-0.720215	-16.110407	57.705528	-65.778665
59808		-3.517163	-5.225565	12.675665	-0.844612	-2.389331	-0.985243	0.392334	0.095703	-0.719482	-16.833156	56.229041	-66.064060
59809		-4.083587	-5.108590	11.312313	-0.887706	-2.587976	-1.203699	0.375000	0.097412	-0.731201	-17.660323	54.608399	-66.452408
59810		-4.869224	-5.088138	9.905041	-0.793845	-2.641556	-1.378542	0.365479	0.114258	-0.732422	-18.501621	52.920431	-66.931919
59811		-6.118622	-4.663302	9.133403	-0.747929	-2.601789	-1.516727	0.343506	0.106689	-0.731689	-19.364941	51.228313	-67.484601
59812		-7.238050	-4.631908	8.259102	-0.730854	-2.519261	-1.604881	0.328857	0.111572	-0.746826	-20.240697	49.554367	-68.078137
59813		-9.328423	-4.625330	7.771142	-0.650272	-2.411366	-1.640029	0.312500	0.122803	-0.752686	-21.060583	47.930004	-68.674727
59814		-11.601131	-3.900457	7.969362	-0.582260	-2.370768	-1.733207	0.294434	0.128174	-0.750977	-21.856361	46.298055	-69.305859
59815		-12.764909	-3.276980	7.760116	-0.592375	-2.399049	-1.887439	0.275635	0.139893	-0.758789	-22.683549	44.616026	-69.991892
59816		-12.815420	-2.572260	7.648323	-0.573506	-2.417828	-2.006699	0.262207	0.141357	-0.762939	-23.506143	42.886318	-70.706685
59817		-13.479197	-2.314781	7.502094	-0.589292	-2.457586	-2.071922	0.234375	0.149414	-0.769043	-24.307270	41.117731	-71.401071
59818		-14.134406	-2.521630	6.610748	-0.476534	-2.549013	-2.133469	0.214844	0.163330	-0.773438	-25.005490	39.276195	-72.060434
59819		-13.296587	-2.476802	5.643242	-0.210676	-2.622340	-2.183914	0.188721	0.165039	-0.776855	-25.513873	37.383166	-72.687441
59820		-11.629881	-2.013998	4.621574	0.046209	-2.597435	-2.166400	0.166260	0.164551	-0.779541	-25.838214	35.500084	-73.278856
59821		-9.925015	-0.745467	3.620899	0.250210	-2.436625	-2.093521	0.139893	0.157959	-0.782227	-26.017771	33.719793	-73.849541
59822		-9.579694	0.134789	3.119276	0.273011	-2.179981	-1.906820	0.133789	0.156738	-0.782227	-26.141723	32.113918	-74.366562
59823		-9.609652	0.631593	2.582605	0.159989	-1.937543	-1.642193	0.104736	0.174316	-0.785156	-26.265809	30.702147	-74.782954
59824		-9.498752	1.291279	2.113178	-0.035373	-1.704737	-1.316843	0.096924	0.156494	-0.788330	-26.427044	29.488627	-75.065429
59825		-10.612345	1.573759	2.380298	-0.279001	-1.459848	-0.888074	0.084473	0.155273	-0.792969	-26.631677	28.512736	-75.160359
59826		-15.299476	1.920576	2.923425	-0.659369	-1.464744	-0.642897	0.082520	0.157227	-0.788574	-26.983092	27.594551	-75.105895
59827		-15.059309	1.894002	1.686469	-0.978686	-1.690677	-0.690812	0.063232	0.171143	-0.780762	-27.496545	26.551853	-75.004706
59828		-10.994899	2.039607	0.621061	-1.225085	-1.746744	-0.678537	0.046631	0.188721	-0.778564	-28.138265	25.482835	-74.869388
59829		-7.976909	2.353340	-0.520688	-1.305397	-1.602204	-0.435525	0.039551	0.190674	-0.784912	-28.783808	24.556567	-74.630209
59830		-7.775716	1.848354	-2.228549	-1.267356	-1.176670	0.047024	0.027100	0.200928	-0.776367	-29.351435	23.978335	-74.246761
59831		-8.850556	1.156349	-3.612381	-0.957292	-0.376528	0.574453	0.031494	0.209229	-0.774170	-29.724711	23.952574	-73.818483
59832		-9.676153	0.797013	-2.125068	-0.607842	0.237422	1.014455	0.035156	0.215820	-0.776855	-29.876884	24.357832	-73.341541
59833		-5.879230	-5.510297	-0.779760	0.039091	0.557009	1.627710	0.044189	0.209717	-0.778320	-29.553690	25.096967	-72.625469
59834		-5.914060	0.339102	-8.765254	0.375484	-0.310736	1.817327	0.052734	0.211914	-0.780029	-28.868428	25.448440	-71.526322
59835		2.868564	0.884011	-2.209789	2.168471	2.409106	2.458628	0.077148	0.198730	-0.776123	-27.331287	27.329251	-70.866465
59836		-14.271772	-5.001292	18.657643	2.758494	4.088504	3.293828	0.111816	0.171143	-0.785400	-25.392880	30.265091	-70.126178
59837		-13.686875	-5.297654	14.753785	-0.357278	1.214149	1.048220	0.127686	0.164795	-0.782471	-25.452355	31.150978	-69.844235
59838		-6.123010	-6.152854	-0.598956	-0.083275	1.607551	0.938083	0.152588	0.164795	-0.770996	-25.445034	32.212771	-69.741204
59839		-8.381804	-5.626830	5.027850	1.417351	2.136442	0.920761	0.176514	0.155762	-0.776367	-24.658671	33.544858	-69.790951
59840		-8.266854	-2.795404	10.415850	1.039713	1.758698	0.415613	0.183838	0.144287	-0.773926	-24.198630	34.560125	-70.034808
59841		-5.840419	-2.756294	6.605761	0.433332	1.869900	0.281381	0.203369	0.143555	-0.770020	-24.154943	35.603351	-70.392958
59842		-6.641614	-1.018772	6.627819	0.819996	1.882452	0.468351	0.217285	0.139404	-0.772461	-23.826986	36.697224	-70.635026
59843		-8.087535	0.322899	9.517785	0.755811	1.736599	0.569185	0.237549	0.123291	-0.778809	-23.469975	37.739287	-70.762822
59844		-7.604402	0.723922	9.234941	0.347321	1.578247	0.609901	0.244629	0.119629	-0.765381	-23.301576	38.707431	-70.813917
59845		-7.468747	-0.669234	8.502970	0.236545	1.407613	0.755724	0.264404	0.117188	-0.764160	-23.100553	39.619114	-70.712203
59846		-7.803744	-0.999581	8.713424	0.264033	1.359416	0.844335	0.275635	0.118896	-0.760742	-22.830634	40.524528	-70.529607
59847		-9.063116	-5.528250	7.491609	-0.203165	1.499621	0.749950	0.285889	0.114258	-0.756104	-22.892987	41.483018	-70.449131
59848		-12.475257	-7.500617	4.206519	0.078968	1.345726	1.025031	0.298340	0.103760	-0.746826	-22.629584	42.420788	-70.124460
59849		-11.795366	-1.547820	8.039238	0.744089	0.959411	0.619833	0.311768	0.104492	-0.751709	-22.093028	43.064104	-69.963909
59850		-9.783330	-0.276967	9.658452	0.164697	0.878089	0.575501	0.324707	0.102783	-0.737793	-21.888537	43.653831	-69.805130
59851		-9.858439	-1.893418	7.554057	-0.046858	0.724352	0.506352	0.321045	0.099121	-0.737793	-21.804954	44.146861	-69.647678
59852		-10.282484	-3.533903	6.130469	0.036801	0.557110	0.399614	0.328613	0.098145	-0.739746	-21.692246	44.527997	-69.518230
59853		-8.999093	-2.176636	6.829213	0.195416	0.397298	0.281851	0.339844	0.088379	-0.739990	-21.514845	44.798957	-69.426922
59854		-7.456838	-1.492628	7.764848	0.094116	0.330135	0.191800	0.330811	0.095215	-0.736328	-21.428655	45.015121	-69.382867
59855		-7.906165	-3.018372	6.378250	-0.055459	0.315562	0.302188	0.338867	0.091064	-0.740723	-21.364895	45.246492	-69.249834
59856		-9.062397	-3.486548	5.526451	0.078508	0.196447	0.182008	0.343262	0.091064	-0.737061	-21.263693	45.389181	-69.172416
59857		-6.055903	-2.002544	7.009831	0.236270	0.148544	0.120375	0.343262	0.088135	-0.736816	-21.094399	45.493328	-69.126566
59858		-7.456747	-3.050326	6.674125	0.003425	0.206863	0.263295	0.346680	0.089355	-0.737793	-20.992884	45.658070	-68.988817
59859		-7.839412	-2.794166	5.623074	0.080808	0.167990	0.148816	0.354004	0.098633	-0.736328	-20.900391	45.778317	-68.926043
59860		-7.349853	-1.977282	6.832611	0.207755	0.107297	0.135320	0.355713	0.089111	-0.735840	-20.729983	45.863315	-68.856046
59861		-7.394974	-2.254909	6.722704	0.060418	0.111685	0.132466	0.354492	0.086426	-0.739014	-20.645599	45.949872	-68.788495
59862		-7.083248	-2.520260	6.081519	0.120799	0.079142	0.118112	0.354980	0.075928	-0.741699	-20.528028	46.016108	-68.722891
59863		-6.984014	-3.031370	6.155048	0.184291	0.066942	0.124829	0.352051	0.085693	-0.746094	-20.367020	46.076919	-68.647652
59864		-7.174055	-2.490492	6.429087	0.266656	0.063570	0.143573	0.346924	0.080566	-0.734863	-20.147868	46.139572	-68.557187
59865		-7.298249	-2.202422	6.894977	0.147622	0.070243	0.080249	0.356201	0.073242	-0.745361	-20.032910	46.193059	-68.516813
59866		-6.875399	-2.191540	6.520632	0.072932	0.129754	0.054601	0.356934	0.076172	-0.729248	-19.987732	46.273623	-68.513747
59867		-6.905191	-2.074842	6.636268	0.066818	0.155455	0.062036	0.354248	0.076660	-0.736572	-19.946523	46.369374	-68.511435
59868		-7.093364	-2.246781	6.755372	0.011898	0.146678	0.065849	0.357178	0.075684	-0.732422	-19.933287	46.461238	-68.504202
59869		-7.305842	-2.200944	6.311588	-0.011250	0.144201	0.064019	0.359131	0.073975	-0.731445	-19.933295	46.551314	-68.497054
59870		-7.376231	-2.232131	6.381704	0.028524	0.121437	0.051905	0.359619	0.068604	-0.730957	-19.913190	46.626855	-68.493503
59871		-7.245479	-2.273302	6.436634	0.025209	0.115907	0.053923	0.359619	0.078857	-0.733398	-19.892145	46.699715	-68.486149
59872		-7.407207	-2.121150	6.340394	0.035488	0.083798	0.063705	0.361816	0.063232	-0.735596	-19.853418	46.757274	-68.462514
59873		-7.198134	-2.265158	6.372992	0.048374	0.051474	0.061653	0.365234	0.064209	-0.737549	-19.801220	46.796901	-68.430635
59874		-7.212455	-2.331491	6.299818	0.048875	0.035909	0.083101	0.364258	0.071533	-0.730713	-19.733620	46.832371	-68.377957
59875		-7.152868	-2.325953	6.428334	0.057083	0.028043	0.092584	0.362549	0.065186	-0.735107	-19.653651	46.865280	-68.314889
59876		-7.126954	-2.329717	6.361994	0.020403	0.017921	0.106839	0.355957	0.068115	-0.734619	-19.584802	46.895513	-68.238206
59877		-6.956358	-2.554525	6.406280	0.005343	0.008869	0.123656	0.366943	0.074951	-0.741455	-19.512427	46.923917	-68.145006
59878		-6.882066	-2.680438	6.150762	0.007026	0.022273	0.144246	0.356934	0.068115	-0.732910	-19.430306	46.963501	-68.039747
59879		-6.873878	-2.726130	6.149625	0.054420	0.042362	0.160674	0.357422	0.071045	-0.728271	-19.314901	47.016848	-67.926278
59880		-7.339828	-2.257224	6.301190	0.082148	0.038064	0.173227	0.363037	0.072754	-0.730469	-19.175698	47.070154	-67.801999
59881		-7.388093	-2.127117	6.340016	0.094746	0.011501	0.144606	0.364746	0.060059	-0.729736	-19.039774	47.103422	-67.692239
59882		-7.277044	-2.175423	6.334587	0.091778	-0.011257	0.143813	0.352783	0.064453	-0.734619	-18.901821	47.124123	-67.577339
59883		-7.409743	-1.882372	6.401850	0.110994	-0.021476	0.128747	0.366943	0.060059	-0.735352	-18.758988	47.136212	-67.470931
59884		-7.059393	-2.068769	6.507775	0.087931	-0.033999	0.134154	0.364746	0.054932	-0.737793	-18.624193	47.142419	-67.357384
59885		-7.118953	-2.355233	6.269018	0.085632	-0.038431	0.175140	0.374756	0.062500	-0.736084	-18.465283	47.153391	-67.209255
59886		-7.273788	-2.270193	6.236137	0.112779	-0.035261	0.180837	0.359863	0.054443	-0.735840	-18.288538	47.166913	-67.057950
59887		-7.043837	-2.276200	6.342133	0.142887	-0.013796	0.167869	0.363037	0.058105	-0.736816	-18.105666	47.189381	-66.921949
59888		-6.910899	-2.365568	6.449603	0.128147	0.008506	0.182281	0.368896	0.051025	-0.738525	-17.927378	47.226356	-66.780655
59889		-6.997564	-2.093657	6.694699	0.102781	0.058146	0.202811	0.363770	0.049805	-0.736572	-17.760095	47.293626	-66.634773
59890		-7.191505	-2.016089	6.549470	0.056714	0.080251	0.200757	0.369385	0.059814	-0.736816	-17.624670	47.372418	-66.496392
59891		-6.987924	-2.112573	6.648227	0.033862	0.083880	0.204189	0.370117	0.058594	-0.727051	-17.499963	47.453496	-66.355063
59892		-6.777419	-2.117495	6.708453	-0.030951	0.181158	0.242596	0.368896	0.041016	-0.734619	-17.407684	47.594228	-66.207502
59893		-7.186058	-2.015912	6.715574	-0.087475	0.218199	0.262807	0.372314	0.058594	-0.733887	-17.341280	47.758469	-66.051594
59894		-7.008184	-2.175944	6.535170	-0.079874	0.256279	0.272635	0.369385	0.051025	-0.732422	-17.271357	47.945136	-65.897147
59895		-6.881098	-2.378557	6.680455	-0.008060	0.311428	0.297526	0.377197	0.049805	-0.736084	-17.153837	48.165990	-65.734621
59896		-6.374330	-2.522705	7.239256	0.157629	0.446332	0.360766	0.386230	0.051025	-0.735352	-16.926597	48.471058	-65.552861
59897		-6.712134	-2.317902	6.950806	0.132595	0.591245	0.426281	0.377686	0.043945	-0.721436	-16.696528	48.865954	-65.349313
59898		-6.703977	-2.158424	7.140005	0.118837	0.799286	0.474797	0.388672	0.044434	-0.721924	-16.479197	49.382464	-65.153492
59899		-7.019299	-1.734294	7.277451	0.093163	0.998805	0.476441	0.406982	0.038086	-0.703857	-16.307884	50.008502	-65.000491
59900		-6.749554	-1.808316	7.612307	0.059407	1.217102	0.469144	0.419189	0.040039	-0.713379	-16.198900	50.753116	-64.904728
59901		-6.622298	-2.312549	7.368757	-0.016669	1.439451	0.507854	0.422607	0.034180	-0.704590	-16.147096	51.626261	-64.827598
59902		-5.920820	-2.971660	7.074372	0.064972	1.727902	0.635416	0.435547	0.024658	-0.706299	-16.013702	52.678210	-64.707313
59903		-5.648170	-2.551446	7.570036	0.151942	2.088160	0.800723	0.451416	0.019775	-0.682129	-15.774788	53.954539	-64.519528
59904		-5.245915	-1.990593	8.126079	0.135742	2.451005	0.971389	0.471191	0.019043	-0.678223	-15.475544	55.456593	-64.249656
59905		-6.288644	-1.057631	8.613629	0.029212	2.841924	1.164786	0.496582	0.017334	-0.664551	-15.138628	57.203333	-63.866489
59906		-5.751978	-0.798804	8.217568	-0.208785	3.153190	1.275776	0.519287	0.003662	-0.652588	-14.876148	59.137221	-63.418191
59907		-4.891730	-0.805035	7.747803	-0.459812	3.489298	1.471711	0.543213	0.003906	-0.636963	-14.604827	61.285248	-62.803511
59908		-5.230409	-0.800656	6.441499	-0.790193	3.961180	1.791578	0.565918	0.000977	-0.610596	-14.235162	63.738441	-61.877892
59909		-7.659692	-1.139352	5.497460	-0.714722	4.598663	1.980243	0.610840	-0.000977	-0.577881	-13.638653	66.569149	-60.770890
59910		-8.766867	-0.541981	7.032385	-0.858281	5.320567	1.768707	0.638672	-0.015137	-0.555176	-13.456732	69.769557	-60.046570
59911		-8.631249	-0.776026	7.019834	-1.083485	6.289818	1.634164	0.671875	-0.022217	-0.507568	-13.908100	73.492599	-59.869232
59912		-8.923639	-2.840986	5.659563	-0.668707	7.120092	1.671970	0.713623	-0.031006	-0.468018	-14.591241	77.681554	-60.179797
59913		-12.927369	-2.195127	8.600149	0.324900	7.780312	1.823505	0.743652	-0.038574	-0.412842	-15.177155	82.258270	-60.964593
59914		-18.965988	-2.428213	6.850547	-0.185886	7.608375	1.609913	0.776123	-0.053223	-0.351074	-19.720548	86.695717	-65.419943
59915		-18.980527	-4.616895	5.391246	0.214445	7.289517	1.974564	0.807617	-0.071289	-0.298584	179.066581	88.934629	133.233177
59916		-23.260555	-5.062228	6.716685	0.475945	6.642074	2.312766	0.832520	-0.088379	-0.242432	164.780644	84.949559	118.661394
59917		-21.864350	-5.147353	8.563760	0.528828	5.865492	2.316676	0.847412	-0.111084	-0.187256	162.399572	81.349810	115.958006
59918		-14.745956	-5.672691	10.883253	0.340079	5.561163	2.160987	0.850586	-0.131592	-0.150146	161.556521	77.938562	114.902048
59919		-12.806263	-7.003461	11.871643	-0.296616	5.646287	2.159601	0.873291	-0.157471	-0.098877	160.865895	74.477377	114.364922
59920		-8.428806	-8.404497	13.099700	-0.393088	5.680535	1.870855	0.875977	-0.171875	-0.043701	160.826226	71.053817	114.557825
59921		3.147035	-8.615209	14.356276	-0.284019	5.537910	1.868681	0.878418	-0.192871	0.009277	160.755855	67.705302	114.655177
59922		-11.101336	11.456765	6.519117	-4.412188	5.035916	4.504362	0.870117	-0.230957	0.036377	155.296544	64.066265	111.444898
59923		-63.916766	-22.206219	11.189802	-2.862954	0.527957	2.354567	0.872070	-0.261719	0.039795	151.500112	63.191811	109.037220
59924		-15.434498	-19.057461	14.517973	0.096879	-2.894943	-0.268143	0.872559	-0.272461	0.029541	150.180825	64.720134	107.505854
59925		-3.879457	-13.925116	10.097674	-0.081987	-3.652617	-0.575373	0.880859	-0.273926	0.000732	148.398099	66.688411	105.600380
59926		-0.070123	-11.633875	3.603568	0.589162	-3.563074	-0.263484	0.887451	-0.281250	-0.022217	146.380562	68.495805	103.051802
59927		-3.288166	-8.467359	5.723645	1.281253	-3.612298	-0.263186	0.885498	-0.288086	-0.041748	144.319714	70.285183	100.064771
59928		-4.849977	-5.619840	6.261949	1.396935	-3.736061	-0.462462	0.891357	-0.309326	-0.060791	141.971158	72.164195	96.737830
59929		-6.538337	-3.469449	8.174606	1.116379	-3.941534	-0.793951	0.918457	-0.304443	-0.065674	139.024130	74.197699	92.990186
59930		-8.308358	-2.849844	8.259541	0.638513	-4.302421	-1.165175	0.916504	-0.312744	-0.093994	134.821416	76.463164	88.267496
59931		-8.959329	-2.051716	8.015276	0.149065	-4.783203	-1.489897	0.944824	-0.322266	-0.122803	128.083097	78.922485	81.283962
59932		-8.211908	-1.731538	6.187090	-0.432204	-5.250881	-1.678150	0.952637	-0.324463	-0.154541	116.074630	81.355256	69.349838
59933		-6.453487	-1.736256	4.703093	-0.832521	-5.525886	-1.707068	0.974121	-0.322266	-0.193115	94.951207	83.175504	48.519423
59934		-5.427884	-2.561269	3.216945	-1.058819	-5.533931	-1.611177	1.001709	-0.333252	-0.238037	65.748572	83.570687	19.738744
59935		-6.257088	-3.015165	2.779054	-1.063413	-5.389310	-1.522816	1.031250	-0.338379	-0.283203	40.616165	82.392898	-4.963676
59936		-8.243155	-3.348478	3.146201	-1.024192	-5.239009	-1.631719	1.064697	-0.347412	-0.334961	24.140217	80.336575	-21.030354
59937		-9.778300	-3.328897	3.567337	-1.001888	-5.103690	-1.933667	1.105957	-0.353516	-0.395264	13.208636	77.911725	-31.575060
59938		-10.865297	-2.647725	4.185335	-1.007002	-4.957115	-2.350502	1.161865	-0.346191	-0.451172	5.111267	75.311521	-39.303067
59939		-11.392378	-2.459364	4.219438	-1.113353	-4.805123	-2.771905	1.228271	-0.346680	-0.533691	-1.368096	72.608455	-45.380160
59940		-11.844012	-3.021117	3.889629	-1.101561	-4.637264	-3.102958	1.299561	-0.306396	-0.628418	-6.683918	69.824523	-50.326619
59941		-13.033454	-3.909583	3.822598	-0.929893	-4.536467	-3.298211	1.379639	-0.269287	-0.751953	-10.931204	66.965133	-54.321537
59942		-14.068455	-4.004547	4.148071	-0.643235	-4.527869	-3.435534	1.432861	-0.211182	-0.910645	-14.281197	63.995677	-57.597353
59943		-14.505798	-3.239627	4.782608	-0.429936	-4.518610	-3.520032	1.472412	-0.125732	-1.093750	-16.921546	60.958896	-60.297159
59944		-14.675595	-3.141676	4.796331	-0.337566	-4.474134	-3.570291	1.444092	-0.026611	-1.292480	-19.074376	57.880873	-62.572402
59945		-14.946077	-3.576086	4.816509	-0.189718	-4.389309	-3.587219	1.373535	0.080566	-1.486816	-20.798709	54.815372	-64.514004
59946		-16.360866	-3.923742	5.110188	-0.048898	-4.294474	-3.605516	1.237549	0.185303	-1.654785	-22.200142	51.761123	-66.226847
59947		-17.776850	-2.354536	6.102203	0.123884	-4.221622	-3.746619	1.067871	0.267090	-1.790527	-23.381992	48.699163	-67.857844
59948		-19.143729	-1.185823	6.674799	-0.164551	-4.124134	-3.984758	0.855713	0.348389	-1.876709	-24.690295	45.603457	-69.513417
59949		-20.021179	-2.550497	4.649365	-0.259326	-4.048942	-4.133473	0.639893	0.412109	-1.923340	-25.950415	42.493086	-71.113241
59950		-21.151764	-2.866643	3.545711	-0.028434	-3.996209	-4.112622	0.435303	0.446045	-1.937012	-26.915352	39.386515	-72.560978
59951		-22.092858	-2.164000	2.826604	0.230414	-3.975732	-4.006047	0.228516	0.467285	-1.903564	-27.558994	36.310230	-73.826752
59952		-21.825023	-1.880645	1.269033	0.473212	-3.964974	-3.835662	0.041748	0.453857	-1.872803	-27.906417	33.270089	-74.911350
59953		-19.162214	-0.545735	-0.053813	0.854667	-3.841532	-3.612620	-0.118408	0.437012	-1.820313	-27.911912	30.355833	-75.852981
59954		-16.814155	3.340953	0.061294	0.969984	-3.477612	-3.268593	-0.246338	0.407715	-1.754150	-27.759950	27.713566	-76.685895
59955		-17.459709	5.934669	-1.052230	0.436944	-3.107831	-2.783817	-0.355957	0.375488	-1.693115	-27.799529	25.394418	-77.337188
59956		-18.120647	8.106194	-2.000603	-0.239084	-2.773540	-2.172545	-0.446289	0.359619	-1.626221	-28.097956	23.402236	-77.729335
59957		-18.364176	9.907791	-3.315086	-1.055962	-2.583755	-1.621757	-0.515869	0.361328	-1.565430	-28.749031	21.657713	-77.852654
59958		-16.862691	11.539868	-5.233486	-1.896643	-2.336221	-1.103142	-0.575684	0.372803	-1.507080	-29.796321	20.177006	-77.744336
59959		-15.341503	11.161330	-7.952685	-2.459054	-1.905833	-0.516160	-0.626221	0.405273	-1.460205	-31.098098	19.085424	-77.428981
59960		-14.326054	9.060117	-11.071932	-2.463069	-1.202772	0.103298	-0.657715	0.423340	-1.416016	-32.368344	18.527316	-76.994679
59961		-15.224144	5.797231	-13.020913	-1.651067	-0.336174	0.863452	-0.666748	0.440430	-1.390137	-33.138655	18.632563	-76.447216
59962		-16.917242	3.927119	-11.933154	-0.412657	0.086800	1.428276	-0.668945	0.458008	-1.386963	-33.149734	19.119432	-75.753578
59963		-3.717717	-4.307139	-2.705320	2.137831	1.283609	2.726971	-0.653320	0.454346	-1.398682	-31.589744	20.576701	-74.770665
59964		3.481421	-1.543527	-7.554500	1.152275	1.200209	2.409024	-0.643066	0.448975	-1.413086	-30.608352	21.876959	-73.885839
59965		-2.204770	-0.332720	5.741632	2.897628	3.976043	5.279748	-0.578613	0.441650	-1.439941	-28.284665	25.347719	-72.234915
59966		-25.904639	-5.735292	21.048171	2.678215	3.435941	3.828658	-0.520508	0.420898	-1.481934	-26.222057	28.100944	-71.063278
59967		-3.321155	-5.724034	5.025749	-0.368663	2.528138	1.315524	-0.490723	0.440430	-1.484375	-26.414357	29.733221	-71.026691
59968		-7.574868	-3.475008	-1.738285	0.861398	3.357292	1.521546	-0.453857	0.437500	-1.507080	-25.960882	31.843013	-71.106601
59969		-16.379031	-4.892608	9.803479	1.895723	4.132967	1.595383	-0.390381	0.419434	-1.528076	-25.000425	34.373656	-71.339305
59970		-9.664672	-0.835080	10.429963	0.876183	3.109559	1.180467	-0.348389	0.411133	-1.546143	-24.593564	36.274036	-71.505289
59971		-9.891203	7.395442	13.537604	1.067935	3.388353	1.417943	-0.304688	0.399902	-1.569092	-24.026281	38.377502	-71.581005
59972		-16.442449	-0.689986	12.070282	-0.171823	3.354722	1.813995	-0.256348	0.414551	-1.575439	-23.987307	40.555680	-71.366472
59973		-23.106697	-5.776165	7.593580	-0.132338	2.667994	1.691962	-0.206787	0.425049	-1.578857	-23.827502	42.345836	-71.012446
59974		-18.077324	-6.775139	6.287417	0.050576	1.916066	0.965350	-0.183350	0.419922	-1.582031	-23.740036	43.573425	-70.928239
59975		-15.054103	-2.865218	6.454881	0.431222	1.190406	0.839528	-0.163574	0.418213	-1.586914	-23.330286	44.390614	-70.695791
59976		-11.385635	-0.068459	9.796723	0.191917	0.766447	0.654766	-0.149902	0.418945	-1.590576	-23.051188	44.942329	-70.456723
59977		-11.767731	-4.124430	5.519913	-0.233806	0.462468	0.765667	-0.138916	0.420166	-1.592041	-22.883194	45.357293	-70.032572
59978		-9.294251	-2.901901	4.881981	0.258711	0.201683	0.332252	-0.136963	0.415771	-1.602051	-22.602751	45.537945	-69.848595
59979		-7.312437	-0.910867	8.042048	0.314540	0.199032	0.429200	-0.134766	0.417480	-1.601563	-22.234732	45.736974	-69.587660
59980		-8.511022	-2.484831	6.893260	-0.015727	0.203661	0.312386	-0.130615	0.416504	-1.587646	-22.119191	45.913153	-69.415572
59981		-7.135120	-2.286482	6.098156	0.082201	0.172584	0.195239	-0.125732	0.416992	-1.602295	-22.003436	46.046646	-69.321833
59982		-7.051667	-2.764204	6.774431	0.160113	0.175001	0.156182	-0.119873	0.409912	-1.593994	-21.865041	46.173681	-69.258667
59983		-7.743345	-2.097015	6.714896	0.091762	0.141368	0.122776	-0.122559	0.411377	-1.593506	-21.775934	46.274863	-69.209804
59984		-6.599152	-2.464667	6.727960	0.033451	0.156432	0.080211	-0.114502	0.413818	-1.602051	-21.747558	46.375746	-69.198645
59985		-7.516959	-2.143539	6.535733	-0.059473	0.178477	0.107189	-0.117920	0.416260	-1.597412	-21.761725	46.493327	-69.172895
59986		-7.771193	-2.127203	6.311558	-0.055321	0.129906	0.042683	-0.107422	0.416504	-1.594971	-21.799276	46.572110	-69.182539
59987		-7.227001	-2.348604	6.121466	0.027483	0.066150	0.050417	-0.111328	0.418213	-1.593994	-21.770264	46.617866	-69.166000
59988		-7.177607	-2.739118	6.453747	-0.005652	0.080179	0.060090	-0.111328	0.415527	-1.597412	-21.758342	46.673912	-69.146730
59989		-7.365512	-2.706094	6.168669	-0.080601	0.093278	0.041752	-0.110107	0.414551	-1.595215	-21.802222	46.732258	-69.145286
59990		-7.118674	-2.774315	6.097285	-0.051158	0.080573	0.044197	-0.111084	0.421143	-1.592529	-21.825464	46.785143	-69.138523
59991		-7.248570	-2.763706	6.104785	-0.031800	0.087276	0.064291	-0.110596	0.416992	-1.600586	-21.827294	46.845099	-69.117759
59992		-7.357221	-2.687741	5.885781	0.008249	0.075154	0.071385	-0.105469	0.418945	-1.603027	-21.799832	46.900895	-69.088162
59993		-7.196087	-2.509738	6.164917	0.104500	0.059823	0.067122	-0.102295	0.411133	-1.602051	-21.715587	46.946826	-69.056508
59994		-7.203366	-2.355613	6.589855	0.079856	0.065224	0.049443	-0.098877	0.418701	-1.600342	-21.657170	46.992656	-69.040730
59995		-7.203170	-2.333632	6.422325	-0.010516	0.085672	0.067372	-0.100586	0.414795	-1.600830	-21.644373	47.052366	-69.016712
59996		-7.314832	-2.505504	6.171524	-0.042156	0.080390	0.075202	-0.097900	0.417480	-1.586670	-21.644457	47.111702	-68.985391
59997		-7.293091	-2.592135	5.968002	0.018432	0.067449	0.075237	-0.099609	0.421143	-1.597656	-21.606314	47.163359	-68.949467
59998		-7.203258	-2.505030	6.239224	0.039941	0.059929	0.077549	-0.098145	0.417480	-1.595703	-21.553210	47.212274	-68.909812
59999		-7.087387	-2.609566	6.193973	0.024752	0.052533	0.090815	-0.099609	0.412354	-1.603027	-21.498890	47.259213	-68.856842
60000		-7.214560	-2.470221	6.310286	-0.002890	0.076411	0.101467	-0.096436	0.411621	-1.604248	-21.460068	47.321884	-68.803288
60001		-7.071450	-2.646319	6.053200	-0.026264	0.049125	0.132434	-0.100098	0.412842	-1.597168	-21.409874	47.375664	-68.716281
60002		-7.135293	-2.781267	5.949686	0.018324	0.032195	0.173171	-0.095703	0.418701	-1.597656	-21.306960	47.429623	-68.592265
60003		-7.291901	-2.579053	6.018060	0.068168	0.028850	0.161491	-0.096191	0.414307	-1.597412	-21.180736	47.478411	-68.475646
60004		-7.358194	-2.246418	6.396376	0.089032	0.017456	0.150705	-0.091064	0.411621	-1.594971	-21.046563	47.519502	-68.364362
60005		-7.329551	-2.160804	6.372470	0.087430	0.007108	0.124983	-0.097412	0.414063	-1.598389	-20.925286	47.548812	-68.269561
60006		-7.293062	-2.132498	6.588432	0.033286	0.016158	0.105778	-0.094971	0.406982	-1.600342	-20.848682	47.579733	-68.193126
60007		-7.150459	-2.412972	6.307918	-0.033284	0.016211	0.106469	-0.091797	0.415039	-1.593506	-20.809220	47.609970	-68.115548
60008		-7.169910	-2.660264	5.982248	-0.027180	0.007303	0.138149	-0.092041	0.410156	-1.598877	-20.746075	47.642619	-68.010518
60009		-7.244290	-2.654095	5.923186	0.038407	0.008109	0.169487	-0.099121	0.412354	-1.595215	-20.626446	47.681138	-67.880140
60010		-7.341686	-2.405199	6.066228	0.121565	-0.004829	0.170514	-0.092773	0.407227	-1.604004	-20.456007	47.713497	-67.745376
60011		-7.189272	-2.352508	6.317676	0.128104	-0.004856	0.175134	-0.089600	0.406250	-1.595703	-20.278341	47.745689	-67.606159
60012		-6.932508	-2.586682	6.153013	0.089788	0.002178	0.199435	-0.084229	0.408203	-1.601074	-20.110055	47.786985	-67.449859
60013		-7.170864	-2.579191	6.259333	0.101335	0.023063	0.234481	-0.082031	0.410156	-1.601807	-19.917982	47.845267	-67.270691
60014		-7.014425	-2.487185	6.332005	0.139362	0.052264	0.252824	-0.100586	0.402100	-1.602051	-19.699458	47.923208	-67.085240
60015		-6.913059	-2.355428	6.644355	0.171082	0.109178	0.270773	-0.081055	0.407227	-1.599121	-19.462788	48.034034	-66.900292
60016		-6.864242	-2.214453	7.054244	0.052511	0.221205	0.324980	-0.077393	0.399658	-1.601807	-19.284522	48.216029	-66.702779
60017		-5.896041	-3.329871	6.705322	0.185395	0.352696	0.404636	-0.072510	0.398682	-1.611328	-19.006893	48.482875	-66.475059
60018		-7.089907	-2.475092	7.007911	0.211539	0.521193	0.484840	-0.054199	0.390625	-1.604736	-18.697414	48.855839	-66.225804
60019		-6.499954	-2.593784	6.627377	0.262912	0.670370	0.559466	-0.052002	0.396729	-1.605225	-18.337152	49.321773	-65.950079
60020		-6.872520	-1.966761	7.452517	0.274303	0.862764	0.585712	-0.033936	0.394043	-1.604492	-17.987310	49.896635	-65.698563
60021		-6.542456	-2.174282	7.442367	0.148451	1.069686	0.616463	-0.012451	0.384277	-1.603271	-17.724460	50.588239	-65.468920
60022		-6.497556	-2.464442	6.942697	0.099573	1.317520	0.684609	0.009521	0.388184	-1.604248	-17.488697	51.426882	-65.240441
60023		-6.475568	-2.316147	7.250699	0.160369	1.580132	0.767445	0.027832	0.390137	-1.603027	-17.206170	52.422109	-64.999862
60024		-5.869144	-2.355043	7.786167	0.131646	1.901437	0.849403	0.074707	0.377441	-1.601807	-16.938936	53.606797	-64.761176
60025		-5.883141	-2.147369	7.935623	0.098984	2.253201	0.972242	0.115479	0.377686	-1.604248	-16.659989	55.003658	-64.489099
60026		-6.097161	-1.788848	8.064628	0.054450	2.607844	1.116573	0.152344	0.377686	-1.597412	-16.352220	56.618226	-64.156178
60027		-5.968768	-1.434242	7.910526	-0.087696	2.944234	1.241776	0.209473	0.380859	-1.584473	-16.069883	58.436693	-63.763483
60028		-5.074359	-1.294187	7.734509	-0.244758	3.254855	1.458492	0.257324	0.371338	-1.577393	-15.715386	60.459144	-63.190438
60029		-5.129747	-1.365096	7.018175	-0.538092	3.732448	1.740037	0.323242	0.374512	-1.557617	-15.305238	62.786447	-62.375406
60030		-6.821917	-0.749626	6.659571	-0.588471	4.399778	1.879540	0.396729	0.374512	-1.535889	-14.852207	65.500511	-61.498818
60031		-8.571664	-1.122369	8.148848	-0.719099	5.239288	1.769757	0.475586	0.382324	-1.509766	-14.762160	68.661897	-60.955176
60032		-8.462376	-1.122606	7.498646	-1.004193	6.203747	1.742858	0.578369	0.391846	-1.471191	-15.212795	72.353220	-60.824031
60033		-11.306071	-4.655462	7.742038	-0.769063	7.031653	1.878598	0.682861	0.389893	-1.414307	-15.800938	76.523161	-60.978140
60034		-14.612332	-4.187804	9.325642	0.099737	7.430941	2.215737	0.786621	0.379883	-1.350830	-15.350367	80.964522	-60.578612
60035		-21.398216	-4.752436	7.975642	-0.237061	7.140517	2.357808	0.892334	0.360840	-1.285645	-12.921260	85.262890	-57.998058
60036		-22.888892	-5.132984	7.106753	-0.002452	6.829452	2.699582	0.977051	0.334229	-1.217285	34.509878	89.144686	-10.540770
60037		-23.603072	-5.547484	9.601308	0.107440	6.073040	2.821945	1.045898	0.298096	-1.152344	142.905131	86.519462	97.816318
60038		-14.828676	-5.485811	10.294224	-0.183240	5.738400	2.617594	1.108887	0.262939	-1.074707	149.233596	82.951089	104.272471
60039		-10.051399	-5.590210	12.240727	-0.823767	5.971433	2.576981	1.167969	0.243896	-0.996338	151.400169	79.246867	106.940688
60040		-6.450049	-6.866657	13.007494	-1.404605	6.057261	2.482139	1.209229	0.231934	-0.906006	152.314797	75.518625	108.700487
60041		2.882802	-7.181844	13.926321	-1.264244	6.304991	2.199180	1.249756	0.206055	-0.823730	153.390456	71.728988	110.574556
60042		0.280596	4.651906	10.736201	-3.384199	6.328571	2.955295	1.293213	0.202881	-0.724121	151.896610	67.734751	111.047944
60043		-57.053323	-14.493275	5.826792	-5.380449	3.866984	3.677059	1.299561	0.188721	-0.664551	147.239555	64.757659	109.327983
60044		-27.888398	-24.937510	11.396807	-0.180438	-1.529530	-0.436177	1.264160	0.201660	-0.680420	146.558370	65.634028	108.689714
60045		-11.237015	-14.928097	14.165037	-0.115890	-3.192901	-0.615938	1.211914	0.208252	-0.717529	144.794864	67.344530	106.837845
60046		4.665393	-10.679693	4.366703	0.651796	-3.769319	-0.556225	1.158203	0.211670	-0.748291	142.604532	69.282048	104.077096
60047		2.712163	-3.667706	6.705839	0.669164	-3.245025	0.141681	1.102051	0.208740	-0.796631	139.614760	70.679456	100.486038
60048		0.206282	-1.703764	6.873067	0.413223	-3.126714	0.086358	1.049316	0.194092	-0.818359	136.191354	71.984731	96.621135
60049		-3.909270	-0.772804	8.070315	-0.226031	-2.894113	-0.206420	1.006348	0.203857	-0.836914	132.545917	73.230148	92.935782
60050		-9.352334	-2.971002	7.880951	-0.849634	-3.182777	-0.859849	0.944336	0.227783	-0.865234	128.327924	74.797726	89.053588
60051		-13.342990	-5.889973	6.323836	-1.022924	-3.755180	-1.484119	0.887451	0.240723	-0.883057	122.793005	76.743514	83.947855
60052		-13.872872	-7.577161	3.753281	-0.700869	-4.651145	-2.037092	0.807861	0.266113	-0.919922	114.028898	79.053775	75.396590
60053		-10.125088	-6.245035	2.807055	-0.108844	-5.291248	-2.256124	0.726074	0.284424	-0.945801	99.394586	81.182338	60.608870
60054		-5.937439	-3.038950	2.680004	0.182592	-5.464980	-2.312519	0.647461	0.290771	-0.982910	77.276461	82.447286	38.163499
60055		-3.278286	0.162167	3.201739	0.144742	-5.177516	-2.325816	0.580078	0.299805	-1.002197	52.712920	82.401342	13.305442
60056		-3.435423	1.716934	4.082876	-0.191081	-4.605770	-2.356661	0.504395	0.311523	-1.014648	32.905378	81.367407	-6.587793
60057		-5.938073	0.966728	4.998226	-0.643450	-4.101064	-2.511953	0.441650	0.313477	-1.006348	18.482206	79.863422	-20.830988
60058		-9.498184	-1.631006	4.925479	-0.925571	-3.844113	-2.714330	0.383057	0.332520	-1.022217	7.578377	78.055007	-31.398117
60059		-13.116304	-4.144115	4.788161	-0.772438	-3.923475	-2.934755	0.311035	0.354248	-1.018066	-0.717520	75.906893	-39.457739
60060		-14.996606	-4.876767	4.950775	-0.407192	-4.226493	-3.142572	0.258301	0.354248	-1.015137	-6.931182	73.358658	-45.658273
60061		-14.478454	-3.925792	5.204934	-0.059351	-4.553314	-3.322018	0.199219	0.361084	-1.018555	-11.449137	70.477079	-50.374736
60062		-12.898811	-2.421255	5.565737	0.103885	-4.703486	-3.436231	0.138184	0.362305	-1.012939	-14.796806	67.394490	-54.024802
60063		-11.959495	-1.862241	5.840668	0.017618	-4.666751	-3.489062	0.076416	0.357910	-1.011963	-17.416511	64.270037	-56.907444
60064		-12.095127	-2.679631	5.636808	-0.051014	-4.533325	-3.510265	0.005615	0.363525	-1.015381	-19.557665	61.158058	-59.283124
60065		-12.899322	-3.753224	5.881477	0.008500	-4.399750	-3.521354	-0.059814	0.356201	-1.006104	-21.279932	58.091123	-61.285746
60066		-13.809177	-4.509852	6.123599	0.154282	-4.287882	-3.537643	-0.126953	0.353516	-1.005859	-22.654045	55.043575	-63.037866
60067		-15.109621	-4.607790	6.482093	0.302153	-4.171514	-3.581395	-0.192871	0.352295	-0.991699	-23.759682	52.037815	-64.628833
60068		-16.925967	-2.653190	7.559787	0.436070	-4.033925	-3.700094	-0.258301	0.334717	-0.984619	-24.711057	49.049069	-66.184381
60069		-19.182564	-0.807501	8.059240	0.073849	-3.897874	-3.894456	-0.329834	0.323486	-0.960938	-25.833401	46.076401	-67.763600
60070		-21.138575	-2.390700	5.973494	-0.178569	-3.864349	-3.977539	-0.391846	0.299316	-0.943359	-26.980024	43.069071	-69.251541
60071		-22.274052	-4.029831	3.856560	0.049370	-3.954579	-3.875166	-0.451416	0.284424	-0.910889	-27.775927	40.035577	-70.495525
60072		-22.869664	-4.479118	2.403235	0.512650	-4.099713	-3.603641	-0.498779	0.262207	-0.876709	-28.061023	36.983444	-71.425566
60073		-22.855279	-3.095500	1.070058	0.947756	-4.223653	-3.328514	-0.555420	0.229980	-0.850586	-27.908503	33.951202	-72.100710
60074		-20.493236	-0.886555	0.951715	1.211189	-4.139859	-3.164845	-0.606934	0.201904	-0.810791	-27.535592	30.999397	-72.699134
60075		-16.123546	2.263557	1.477698	1.187581	-3.707519	-3.083713	-0.643555	0.170898	-0.783447	-27.192035	28.300405	-73.382702
60076		-17.872686	6.012781	1.012821	0.419532	-3.090277	-2.915425	-0.679688	0.142334	-0.762207	-27.298443	25.954047	-74.143701
60077		-19.378372	6.309932	-2.443287	-0.388499	-2.718428	-2.708935	-0.705811	0.128418	-0.739258	-27.824723	23.854761	-74.867638
60078		-19.641897	6.664502	-5.030774	-1.025099	-2.482447	-2.386068	-0.726807	0.119141	-0.708496	-28.637178	21.948823	-75.447354
60079		-18.356302	8.153059	-7.905583	-1.320338	-2.294949	-2.007380	-0.750977	0.109375	-0.671387	-29.534172	20.240286	-75.840983
60080		-15.790393	9.786611	-9.019259	-1.318334	-2.171146	-1.558431	-0.766846	0.106934	-0.652344	-30.343607	18.712171	-76.005329
60081		-13.293193	10.326936	-9.977372	-1.239589	-1.807396	-0.955944	-0.775635	0.103027	-0.637695	-31.034228	17.541721	-75.946232
60082		-11.693528	9.625819	-11.488288	-0.893258	-0.644411	0.015962	-0.798340	0.109375	-0.627441	-31.483170	17.227715	-75.739102
60083		-14.535642	7.485330	-9.720800	-0.186479	0.340807	1.131929	-0.788818	0.119873	-0.629883	-31.447082	17.732399	-75.267411
60084		-15.771158	6.370949	-7.281271	0.414715	0.546851	1.743113	-0.781494	0.134277	-0.638428	-30.982501	18.516152	-74.541205
60085		-2.025568	2.531309	3.581432	2.164688	1.314240	2.392004	-0.768555	0.132080	-0.647705	-29.461172	19.856285	-73.690103
60086		8.235017	-5.027000	5.386359	0.255321	1.859300	2.385641	-0.760498	0.144531	-0.664551	-29.060957	21.452801	-72.973762
60087		-8.218475	-6.433278	5.130544	0.150048	4.132561	5.972922	-0.718018	0.200195	-0.695068	-28.168006	25.170428	-70.939055
60088		-15.274414	-7.231212	9.225739	1.420639	1.750960	3.644584	-0.699707	0.214600	-0.703369	-26.671994	27.021522	-69.391361
60089		-0.923568	-4.436407	2.924711	0.151650	2.383777	2.454740	-0.674805	0.239502	-0.722656	-26.239343	28.870628	-68.656351
60090		-8.738023	-5.583877	1.069901	0.235351	3.897420	2.252660	-0.647705	0.248779	-0.747314	-26.002527	31.443037	-68.455192
60091		-17.261662	-9.627347	6.083080	0.957185	3.529239	1.243634	-0.618896	0.250000	-0.779297	-25.605812	33.573411	-68.739880
60092		-6.023633	-6.694321	5.016203	1.258244	3.621229	1.151190	-0.593262	0.252197	-0.801514	-25.087624	35.730659	-69.097535
60093		-14.969193	5.237329	15.961288	1.503317	3.933038	1.580569	-0.554932	0.252441	-0.828613	-24.315429	38.156104	-69.248110
60094		-21.816553	-0.306601	12.638982	-0.139292	3.496642	1.801295	-0.521729	0.264404	-0.851563	-24.301199	40.406817	-69.100891
60095		-21.582703	-4.431333	8.190182	-0.032748	2.497674	1.502923	-0.496826	0.273438	-0.857910	-24.146254	42.064963	-68.839281
60096		-15.962532	-7.350634	5.640328	-0.123915	1.969141	1.099322	-0.482910	0.278320	-0.876953	-24.113063	43.352993	-68.687053
60097		-13.066646	-2.728677	6.058914	0.561210	1.400861	0.959575	-0.471436	0.276123	-0.880859	-23.620681	44.309226	-68.442198
60098		-14.484887	1.251742	10.691774	0.320592	0.937567	0.947589	-0.461182	0.282715	-0.887939	-23.156273	45.019180	-68.044041
60099		-15.121795	-3.005457	5.754081	-0.262803	0.188775	0.649587	-0.458008	0.284180	-0.886475	-23.005518	45.264390	-67.620709
60100		-4.681850	-3.325031	5.306192	0.322796	0.066651	0.316134	-0.449951	0.270996	-0.895508	-22.667514	45.371705	-67.406781
60101		-10.212649	-1.357338	7.752433	0.163287	0.271810	0.493998	-0.448730	0.277588	-0.891602	-22.368772	45.623776	-67.120845
60102		-7.720784	-1.444302	6.785550	0.027794	0.086420	0.203280	-0.445068	0.280273	-0.890137	-22.262511	45.715677	-66.995918
60103		-7.826365	-2.506039	6.342105	0.048872	0.066518	0.210756	-0.452637	0.287354	-0.888916	-22.134683	45.796407	-66.858312
60104		-7.290403	-2.766784	6.252292	0.081082	0.037076	0.159460	-0.446045	0.290527	-0.885986	-22.009933	45.852356	-66.750552
60105		-7.697667	-2.371747	6.315684	0.164745	-0.004963	0.160356	-0.447021	0.281006	-0.892334	-21.826778	45.883840	-66.628621
60106		-6.467766	-2.594562	6.471550	0.112542	0.019252	0.116719	-0.440674	0.279053	-0.890625	-21.703052	45.920856	-66.547529
60107		-6.877747	-2.396256	6.638764	0.083026	0.071261	0.092047	-0.449707	0.283447	-0.893555	-21.620589	45.978102	-66.500719
60108		-7.373022	-2.127431	6.978722	0.045258	0.085341	0.082631	-0.441895	0.281006	-0.897705	-21.568317	46.042941	-66.465516
60109		-6.960283	-2.661310	6.125756	-0.021429	0.101235	0.073144	-0.435059	0.295410	-0.899658	-21.562465	46.112123	-66.442079
60110		-6.565336	-2.842117	6.194543	0.125698	0.129563	0.115226	-0.438477	0.280518	-0.896484	-21.455430	46.207347	-66.394950
60111		-7.654448	-2.468541	6.585141	0.021794	0.137746	0.105125	-0.435303	0.279297	-0.898682	-21.414710	46.302660	-66.357597
60112		-7.072745	-2.543613	6.357337	-0.026576	0.139021	0.064654	-0.437256	0.287354	-0.893799	-21.424908	46.392294	-66.352052
60113		-7.211103	-2.752567	6.012160	-0.018412	0.147963	0.092238	-0.440430	0.286865	-0.891846	-21.416501	46.490354	-66.327615
60114		-7.358794	-2.668719	5.932841	0.055852	0.098102	0.091964	-0.440430	0.287842	-0.898926	-21.355032	46.563870	-66.288393
60115		-7.258943	-2.568412	6.041463	0.094385	0.074219	0.104738	-0.431396	0.287354	-0.890137	-21.258408	46.625135	-66.231551
60116		-7.561932	-2.255333	6.303057	0.126349	0.065615	0.097970	-0.435303	0.285156	-0.900635	-21.145677	46.682485	-66.177444
60117		-7.218186	-2.285820	6.441148	0.098830	0.050803	0.080251	-0.431396	0.284668	-0.894775	-21.054880	46.726041	-66.132209
60118		-7.562577	-2.117219	6.499472	0.058033	0.074476	0.057702	-0.433838	0.280273	-0.896484	-21.005783	46.779757	-66.111826
60119		-7.039170	-2.318985	6.408204	0.035532	0.067450	0.035895	-0.429932	0.284912	-0.899170	-20.979962	46.823055	-66.106044
60120		-7.195285	-2.505213	6.306642	-0.001204	0.064553	0.057404	-0.426758	0.289551	-0.899902	-20.962666	46.871393	-66.082775
60121		-7.262578	-2.530664	6.047051	0.013544	0.067450	0.073617	-0.430908	0.275635	-0.899170	-20.927822	46.922414	-66.047391
60122		-7.183682	-2.558804	6.086004	0.046452	0.048037	0.071924	-0.428467	0.281494	-0.905762	-20.871187	46.964870	-66.007678
60123		-7.145009	-2.494506	6.183638	0.074635	0.053050	0.077855	-0.425781	0.279785	-0.906982	-20.795575	47.008997	-65.964459
60124		-7.136057	-2.418968	6.346851	0.051117	0.071261	0.074120	-0.422607	0.277832	-0.905518	-20.739896	47.064286	-65.929753
60125		-7.172351	-2.375161	6.305352	0.014287	0.076843	0.076878	-0.426025	0.286377	-0.907227	-20.704405	47.120907	-65.894178
60126		-7.379794	-2.218147	6.303526	-0.012725	0.081076	0.078666	-0.429199	0.280273	-0.899170	-20.684642	47.182343	-65.858633
60127		-7.328655	-2.282946	6.279871	-0.031894	0.081588	0.062458	-0.425537	0.290527	-0.903076	-20.684850	47.238574	-65.835716
60128		-7.243907	-2.300900	6.244745	-0.027752	0.081086	0.053228	-0.416748	0.283447	-0.909912	-20.688326	47.294875	-65.820160
60129		-7.100298	-2.438960	6.399465	-0.044066	0.073263	0.059013	-0.416260	0.280762	-0.907471	-20.695626	47.345949	-65.797444
60130		-7.024148	-2.576975	6.254151	-0.082976	0.078845	0.082031	-0.418701	0.283203	-0.904297	-20.713446	47.406881	-65.758409
60131		-7.255391	-2.628710	5.985397	-0.092501	0.078582	0.120356	-0.415527	0.286133	-0.911865	-20.713820	47.473243	-65.688657
60132		-7.056157	-2.780748	5.916886	0.003453	0.055084	0.121730	-0.417236	0.286621	-0.911377	-20.653530	47.529460	-65.610907
60133		-7.145789	-2.522514	6.142320	0.052100	0.052470	0.161840	-0.415283	0.287842	-0.906006	-20.540603	47.590083	-65.500026
60134		-7.405546	-2.252555	6.318220	0.037274	0.047981	0.163621	-0.417969	0.285156	-0.909424	-20.434332	47.650705	-65.386388
60135		-7.334647	-2.324849	6.121877	0.047195	0.030325	0.157806	-0.419189	0.280762	-0.914307	-20.321159	47.698342	-65.271577
60136		-7.518219	-2.203153	6.141759	0.100774	0.015986	0.148858	-0.421875	0.286865	-0.900391	-20.179684	47.738530	-65.159716
60137		-7.230414	-2.257079	6.294314	0.127526	-0.003647	0.136310	-0.419189	0.284668	-0.907471	-20.025374	47.763283	-65.051649
60138		-7.276335	-2.185597	6.287263	0.124368	-0.007106	0.154130	-0.416260	0.288818	-0.913086	-19.861864	47.791670	-64.928402
60139		-7.571996	-1.943025	6.355665	0.110675	-0.016925	0.136473	-0.415527	0.283936	-0.909668	-19.713985	47.808897	-64.816067
60140		-7.282320	-2.169284	6.215466	0.090158	-0.029208	0.118874	-0.417480	0.283691	-0.908691	-19.586062	47.818148	-64.714485
60141		-7.109737	-2.437181	6.238428	0.066645	-0.030341	0.146382	-0.410400	0.286621	-0.909180	-19.454512	47.829674	-64.590184
60142		-6.859087	-2.753612	6.134736	0.072316	-0.037175	0.204013	-0.412598	0.280029	-0.904297	-19.284206	47.850457	-64.417679
60143		-6.893014	-2.781742	6.000353	0.117606	-0.016284	0.274312	-0.421143	0.285400	-0.912109	-19.049601	47.893142	-64.193888
60144		-7.171004	-2.487956	6.278936	0.192797	0.016065	0.325188	-0.420410	0.291504	-0.901611	-18.747943	47.964292	-63.937638
60145		-7.032562	-2.194606	6.640709	0.175125	0.072019	0.379408	-0.407959	0.290039	-0.908447	-18.433554	48.072616	-63.651369
60146		-7.362390	-2.034510	6.708148	0.061074	0.147041	0.418161	-0.402588	0.286865	-0.914795	-18.174924	48.229925	-63.352467
60147		-7.209667	-2.218776	6.589767	0.038948	0.192856	0.443469	-0.405029	0.294678	-0.919189	-17.920029	48.413629	-63.042743
60148		-6.393264	-2.539890	6.904115	0.294697	0.343228	0.473625	-0.405762	0.286621	-0.915527	-17.527065	48.685622	-62.745072
60149		-7.205719	-1.541255	8.021356	0.214269	0.533513	0.468619	-0.397217	0.291504	-0.918457	-17.215718	49.057465	-62.496372
60150		-6.857712	-1.326371	7.762187	0.024677	0.759809	0.468257	-0.389893	0.287598	-0.928955	-17.053341	49.554470	-62.302226
60151		-6.906183	-1.411403	7.808573	-0.147891	1.006722	0.395445	-0.380371	0.291504	-0.928711	-17.082400	50.172323	-62.231033
60152		-6.680885	-1.419492	7.956861	-0.246087	1.266510	0.356074	-0.362061	0.288086	-0.928223	-17.247443	50.927661	-62.263590
60153		-6.165122	-1.617838	8.203221	-0.348114	1.565126	0.358227	-0.346191	0.303467	-0.938965	-17.537802	51.844704	-62.381518
60154		-5.409266	-1.916906	8.411262	-0.400572	1.942674	0.407408	-0.325195	0.305420	-0.942383	-17.919445	52.977541	-62.574939
60155		-4.205878	-2.901553	8.728346	-0.432931	2.440005	0.569892	-0.304932	0.317871	-0.947510	-18.337867	54.407685	-62.787873
60156		-4.818857	-3.025690	8.119038	-0.514746	2.993416	0.808948	-0.267334	0.324707	-0.958984	-18.787580	56.182205	-62.977540
60157		-4.662845	-3.357940	7.658232	-0.574426	3.487959	1.144472	-0.241211	0.323242	-0.955811	-19.163872	58.285177	-63.035067
60158		-5.836505	-2.922430	7.466964	-0.559426	4.004779	1.442703	-0.187500	0.324707	-0.975098	-19.449233	60.724624	-62.995581
60159		-6.189619	-2.757469	7.416624	-0.605145	4.491455	1.713750	-0.138672	0.349365	-0.980469	-19.677427	63.478154	-62.862840
60160		-9.195700	-3.613632	6.215487	-0.578414	4.919920	1.969525	-0.083252	0.355713	-0.979248	-19.773209	66.512721	-62.604181
60161		-10.258952	-3.691380	5.873630	-0.338336	5.165278	2.058072	-0.026855	0.366943	-0.987549	-19.693897	69.696445	-62.311185
60162		-17.383908	-3.577060	7.408582	-0.071079	5.202083	2.295135	0.035400	0.369141	-0.986572	-18.987719	72.944356	-61.524322
60163		-16.240371	-1.992976	8.003173	-0.157798	5.045344	2.058133	0.090820	0.365234	-0.983887	-18.394237	76.060532	-60.816160
60164		-16.765077	-2.135518	5.939513	-0.445728	4.925190	1.966276	0.151123	0.371582	-0.981445	-17.770207	79.092546	-59.917185
60165		-17.507023	-0.142723	8.851879	-0.433086	4.590880	1.688103	0.192139	0.368896	-0.962158	-17.242167	81.892045	-59.131644
60166		-13.880866	0.275324	6.852290	-1.192172	4.323966	1.073120	0.243164	0.371826	-0.951172	-19.601957	84.436368	-60.821137
60167		-9.488017	-0.500335	6.007362	-1.717127	4.295427	0.784704	0.297119	0.392090	-0.928223	-28.371048	86.873094	-68.628095
60168		-6.854525	-2.235896	3.233651	-1.745288	4.100773	0.606783	0.317871	0.408447	-0.911865	-71.973782	88.773040	-111.254705
60169		-6.606084	-2.416304	-0.036877	-2.117274	3.612246	0.679289	0.360596	0.428467	-0.888672	-155.906885	88.126130	166.004285
60170		0.031898	-10.821800	-3.831280	-0.972876	2.492354	0.761477	0.379639	0.429688	-0.869873	-174.411821	86.842139	148.039496
60171		-15.214057	-12.171319	10.317701	1.345599	2.420397	1.941237	0.405029	0.418457	-0.869629	170.603916	85.405258	132.248504
60172		-28.135701	-10.049348	12.841200	0.908008	-1.121222	0.291375	0.385254	0.398682	-0.883545	167.344234	86.006113	128.456359
60173		1.418416	-2.590707	10.077356	1.492592	-1.879075	-0.255393	0.372314	0.393311	-0.888916	166.557694	87.088036	126.810440
60174		-0.089780	-0.924056	9.365534	0.289698	-2.297660	0.221901	0.339111	0.398193	-0.903320	152.355444	88.289466	112.429729
60175		1.495882	0.213413	5.259954	0.021118	-2.327368	0.420660	0.312744	0.399170	-0.906738	100.018388	88.951001	60.066924
60176		-2.099614	-1.456997	6.027142	-0.440990	-2.159811	0.742878	0.287842	0.397705	-0.908936	53.790534	88.199272	14.078359
60177		-6.791445	-4.253895	5.349520	-0.587334	-2.587369	0.463746	0.253174	0.410156	-0.909912	33.749683	86.927378	-5.643496
60178		-9.324677	-6.208910	4.793501	-0.548896	-3.028011	0.064934	0.205566	0.422363	-0.910156	21.815598	85.365432	-17.289530
60179		-9.378060	-6.669160	3.085111	-0.228761	-3.529407	-0.423031	0.177246	0.429932	-0.908936	13.070214	83.504337	-25.944586
60180		-7.116647	-5.283735	2.194708	0.183854	-3.800574	-0.788906	0.117432	0.425293	-0.918701	6.906793	81.431565	-32.268016
60181		-5.177113	-2.939029	1.845076	0.338950	-3.761239	-1.047107	0.068848	0.426025	-0.919434	2.519493	79.331879	-36.915281
60182		-5.165920	-1.632841	1.175118	0.257513	-3.476075	-1.239710	0.012939	0.429199	-0.922119	-0.934025	77.344771	-40.592708
60183		-6.663658	-1.672241	0.988209	0.229998	-3.158075	-1.441563	-0.040039	0.425293	-0.912109	-3.907961	75.501653	-43.788543
60184		-7.617878	-1.986792	1.111274	0.244037	-2.923460	-1.687724	-0.087891	0.436035	-0.902832	-6.722564	73.738601	-46.853228
60185		-8.371320	-2.557000	1.434952	0.294262	-2.709935	-1.874529	-0.139160	0.439941	-0.904053	-9.310085	72.050966	-49.737861
60186		-10.038700	-2.445489	2.314018	0.382137	-2.625635	-2.018702	-0.183838	0.425049	-0.896484	-11.642693	70.355464	-52.433685
60187		-10.657791	-2.129986	2.986981	0.401755	-2.705869	-2.151632	-0.246582	0.422363	-0.879150	-13.717556	68.571979	-54.896176
60188		-10.401452	-1.056790	3.446717	0.322902	-2.807214	-2.194545	-0.290771	0.415527	-0.868652	-15.513400	66.692275	-57.038672
60189		-11.145495	-1.049487	2.811292	0.086143	-2.878840	-2.112349	-0.347900	0.406982	-0.847900	-17.018329	64.769615	-58.744746
60190		-12.340502	-0.840354	1.605145	0.000393	-2.951820	-1.960222	-0.398682	0.405273	-0.824951	-18.162588	62.812041	-60.020913
60191		-14.222983	-0.504578	0.721880	-0.052771	-2.959046	-1.810376	-0.445557	0.405029	-0.796143	-19.021230	60.874250	-60.961784
60192		-15.607638	0.687554	-0.155884	-0.117693	-2.928990	-1.779363	-0.500000	0.390869	-0.772461	-19.792202	58.947176	-61.775368
60193		-15.534062	1.919626	-1.212472	-0.254810	-2.792895	-1.848773	-0.541504	0.387207	-0.739746	-20.645315	57.079304	-62.610406
60194		-14.832181	2.478770	-2.345867	-0.371428	-2.515812	-1.869300	-0.586182	0.362793	-0.718750	-21.580424	55.344231	-63.479877
60195		-13.941822	2.548565	-3.526805	-0.373114	-2.130417	-1.825052	-0.623291	0.360840	-0.689209	-22.513594	53.820120	-64.364052
60196		-13.624131	2.144069	-3.802000	-0.132470	-1.680695	-1.676736	-0.649414	0.349365	-0.666504	-23.275551	52.555844	-65.221375
60197		-14.310820	2.458577	-2.672110	0.071310	-1.261509	-1.535717	-0.677979	0.336182	-0.642822	-23.898358	51.541116	-66.064566
60198		-15.023878	2.374600	-1.438337	0.072176	-0.951542	-1.491792	-0.699707	0.330566	-0.624268	-24.549714	50.691033	-66.954833
60199		-14.501269	1.916030	-0.922707	0.098215	-0.781501	-1.471512	-0.716064	0.314941	-0.615967	-25.188689	49.929951	-67.859916
60200		-12.938891	1.534197	-0.602697	0.237919	-0.671883	-1.282134	-0.733154	0.307373	-0.602295	-25.640858	49.265949	-68.633090
60201		-11.611947	2.025019	0.100314	0.417637	-0.602678	-0.931809	-0.752441	0.286621	-0.593994	-25.782858	48.722935	-69.139995
60202		-10.578602	2.735162	1.357102	0.511883	-0.552812	-0.527808	-0.764893	0.274658	-0.583496	-25.644916	48.306307	-69.347791
60203		-10.249998	2.373158	2.856758	0.408001	-0.505579	-0.220585	-0.768066	0.276611	-0.574951	-25.399436	47.990182	-69.333742
60204		-10.864544	0.996505	3.987199	0.199054	-0.503860	-0.036528	-0.783447	0.261719	-0.563232	-25.172059	47.720903	-69.181548
60205		-10.638095	-0.447136	4.129878	0.060217	-0.585424	0.040163	-0.784180	0.270508	-0.557861	-24.959537	47.426567	-68.942067
60206		-9.094123	-1.091380	3.957973	0.022236	-0.608579	0.086891	-0.790527	0.265625	-0.553955	-24.740809	47.132324	-68.662484
60207		-7.319335	-1.830977	3.747832	0.007498	-0.492341	0.142120	-0.806641	0.272461	-0.547852	-24.531130	46.909614	-68.383460
60208		-5.989215	-2.943646	3.674985	0.069593	-0.273319	0.222871	-0.814941	0.267822	-0.538330	-24.299577	46.821356	-68.121609
60209		-8.199124	-8.933926	-0.031587	0.534728	0.046048	1.516657	-0.806396	0.281982	-0.542969	-23.151450	47.194946	-66.972552
60210		-35.137204	9.656314	6.740730	1.307427	0.299386	2.038708	-0.800781	0.294678	-0.547607	-21.295442	47.797441	-65.471615
60211		-7.885320	3.356149	8.288802	0.657344	-0.739188	-1.527053	-0.809814	0.270996	-0.545898	-21.637044	47.082927	-66.448394
60212		-1.027872	2.267787	8.609149	0.417617	-0.224982	0.114452	-0.823730	0.264893	-0.542725	-21.282333	46.990142	-66.291802
60213		-7.522742	-10.749825	6.234943	-0.143059	-0.119894	0.000124	-0.815186	0.270508	-0.545166	-21.337747	46.926012	-66.257178
60214		-7.044259	-1.267890	3.890411	0.198556	-0.031347	0.024179	-0.818359	0.263672	-0.546875	-21.204140	46.917113	-66.231075
60215		-7.309404	-0.957257	9.106628	0.359708	-0.095800	0.047723	-0.809326	0.271484	-0.536133	-20.949937	46.875576	-66.166897
60216		-7.259621	-2.864208	5.642663	-0.116348	-0.065808	0.023163	-0.809814	0.268799	-0.543945	-20.989669	46.847954	-66.131189
60217		-7.264397	-2.613020	5.784070	0.235728	-0.037001	0.014601	-0.819580	0.263916	-0.547852	-20.838449	46.830988	-66.110748
60218		-7.402004	-1.723512	7.369835	0.056574	-0.048963	0.014736	-0.819336	0.270264	-0.542480	-20.787778	46.810645	-66.086857
60219		-7.426624	-2.580225	5.826433	-0.077057	-0.078286	-0.020692	-0.820068	0.270508	-0.546631	-20.827008	46.764358	-66.081817
60220		-7.348379	-2.682271	5.559967	0.171955	-0.099777	-0.017701	-0.821289	0.265625	-0.534912	-20.717729	46.710187	-66.068226
60221		-7.136059	-2.067020	7.180875	0.159080	-0.101153	-0.015385	-0.820557	0.268799	-0.541260	-20.613877	46.652707	-66.052475
60222		-7.291461	-2.211515	6.382065	-0.060690	-0.068152	0.011043	-0.816406	0.268311	-0.534912	-20.628515	46.621268	-66.025965
60223		-7.315184	-2.329001	6.134663	0.033531	-0.081657	-0.026063	-0.818359	0.272461	-0.538818	-20.606895	46.572079	-66.024368
60224		-7.111411	-2.282242	6.478352	0.061993	-0.089204	-0.031491	-0.818604	0.271973	-0.540771	-20.570909	46.520784	-66.024917
60225		-7.049949	-2.414090	6.503623	-0.009304	-0.072122	-0.014811	-0.816406	0.271240	-0.545166	-20.569542	46.478974	-66.017402
60226		-7.068095	-2.584466	6.311456	-0.028195	-0.051491	-0.002363	-0.816162	0.265137	-0.537598	-20.576773	46.453753	-66.006298
60227		-7.076114	-2.571259	6.191125	0.003934	-0.039230	0.002759	-0.822998	0.273193	-0.543213	-20.564883	46.433124	-65.994722
60228		-7.178945	-2.468502	6.365268	0.019094	-0.046120	0.002890	-0.820801	0.272949	-0.538574	-20.543251	46.411830	-65.981146
60229		-7.183207	-2.415231	6.312224	0.005403	-0.037821	0.002021	-0.823242	0.269043	-0.538086	-20.531257	46.391805	-65.970581
60230		-7.114677	-2.492826	6.329620	0.023577	-0.040071	-0.002493	-0.828369	0.269775	-0.540527	-20.511399	46.372668	-65.962987
60231		-7.151472	-2.379523	6.378048	0.021018	-0.036307	0.002832	-0.830811	0.268066	-0.535156	-20.490345	46.353614	-65.952258
60232		-7.163510	-2.383564	6.420503	0.007421	-0.038532	-0.001813	-0.816406	0.262695	-0.537842	-20.479714	46.335429	-65.944613
60233		-7.114462	-2.350574	6.384052	0.020112	-0.032269	-0.001626	-0.822021	0.269043	-0.538330	-20.462553	46.317645	-65.938542
60234		-7.292714	-2.072019	6.612052	0.016578	-0.000686	0.002073	-0.825439	0.261719	-0.543457	-20.452438	46.320545	-65.938862
60235		-7.146043	-2.312147	6.499207	-0.036288	-0.000651	-0.019273	-0.824951	0.264404	-0.538818	-20.484146	46.316197	-65.955681
60236		-7.202377	-2.378406	6.288454	-0.031538	0.000728	-0.012339	-0.825684	0.261230	-0.539307	-20.509952	46.316957	-65.967578
60237		-7.098457	-2.372736	6.357107	-0.013744	-0.007162	-0.022330	-0.817627	0.260010	-0.536133	-20.529085	46.308491	-65.984871
60238		-7.184900	-2.424566	6.364434	-0.016817	-0.007001	-0.015002	-0.826172	0.263428	-0.533447	-20.546325	46.304563	-65.996583
60239		-7.138676	-2.436832	6.349561	-0.020732	-0.007607	-0.014810	-0.822510	0.258057	-0.539307	-20.565135	46.297364	-66.007895
60240		-7.150091	-2.467410	6.251113	-0.017311	-0.016313	-0.014116	-0.822021	0.263672	-0.534668	-20.580200	46.288610	-66.016202
60241		-7.154115	-2.462539	6.311451	0.003102	-0.019145	-0.007468	-0.824219	0.261230	-0.540527	-20.578797	46.276698	-66.018446
60242		-7.112627	-2.466718	6.357298	0.002581	-0.022741	-0.005476	-0.820557	0.266846	-0.534424	-20.576278	46.266236	-66.018182
60243		-7.097452	-2.483032	6.331571	-0.005387	-0.021914	0.002375	-0.822998	0.260010	-0.536377	-20.573639	46.254820	-66.011983
60244		-7.113387	-2.483290	6.281714	0.015958	-0.027858	0.011868	-0.825439	0.277344	-0.531494	-20.552677	46.245095	-65.996789
60245		-7.117297	-2.475038	6.343433	0.021263	-0.028602	0.015705	-0.825439	0.272705	-0.535889	-20.525908	46.232768	-65.978319
60246		-7.128884	-2.435288	6.361144	0.024734	-0.028833	0.012729	-0.820557	0.259766	-0.532715	-20.499266	46.222679	-65.962207
60247		-7.154058	-2.379230	6.406268	0.027137	-0.030542	0.014845	-0.823486	0.265381	-0.544434	-20.469230	46.209127	-65.943867
60248		-7.139512	-2.414219	6.393716	0.017448	-0.025529	0.009534	-0.825928	0.271240	-0.538574	-20.449264	46.200156	-65.931212
60249		-7.150211	-2.354528	6.398984	0.010270	-0.031824	0.000958	-0.826416	0.259766	-0.542480	-20.436419	46.183127	-65.923294
60250		-7.080939	-2.389898	6.390986	0.006249	-0.029465	0.007027	-0.830811	0.267822	-0.530518	-20.423463	46.171531	-65.911457
60251		-7.164723	-2.288095	6.465284	0.009159	-0.015234	0.007775	-0.824463	0.267822	-0.526123	-20.410908	46.164770	-65.903055
60252		-7.227072	-2.213410	6.543205	-0.009174	-0.004660	-0.006327	-0.822510	0.269775	-0.531982	-20.419417	46.163814	-65.908728
60253		-7.146742	-2.375748	6.415719	-0.031556	0.000722	-0.012285	-0.823730	0.269531	-0.532715	-20.444729	46.161609	-65.920484
60254		-7.118666	-2.389366	6.348199	-0.018367	0.003028	-0.012033	-0.824951	0.264893	-0.536865	-20.463276	46.163630	-65.932781
60255		-7.097649	-2.394286	6.490759	-0.017803	-0.004804	-0.016243	-0.821777	0.265625	-0.534668	-20.481765	46.157660	-65.946002
60256		-7.096303	-2.441377	6.364271	-0.030579	-0.000551	-0.012621	-0.821289	0.263916	-0.530273	-20.506888	46.157624	-65.957716
60257		-7.113511	-2.444642	6.311984	-0.012050	0.001927	-0.010117	-0.833008	0.268555	-0.532227	-20.520060	46.156490	-65.968135
60258		-7.110113	-2.450005	6.402882	-0.012570	-0.001668	-0.008127	-0.825684	0.264893	-0.535156	-20.532130	46.156748	-65.976050
60259		-7.144395	-2.366366	6.401113	-0.004355	-0.001449	-0.002575	-0.821289	0.263672	-0.537842	-20.535972	46.155316	-65.979647
60260		-7.149344	-2.361541	6.460229	-0.019363	-0.002322	-0.011234	-0.816650	0.265625	-0.525879	-20.553533	46.154587	-65.989777
60261		-7.120532	-2.353651	6.380772	-0.028721	-0.000142	-0.007409	-0.819092	0.266602	-0.534912	-20.574309	46.152882	-65.997496
60262		-7.135739	-2.403701	6.443878	-0.030564	0.000374	-0.014222	-0.818848	0.265137	-0.528320	-20.600510	46.152985	-66.010712
60263		-7.153250	-2.494390	6.289498	-0.034041	0.000609	-0.011253	-0.826416	0.260498	-0.541504	-20.626636	46.150903	-66.021623
60264		-7.125909	-2.463397	6.348254	-0.018954	-0.002395	-0.006881	-0.825684	0.264160	-0.534668	-20.641511	46.150990	-66.028352
60265		-7.133955	-2.455346	6.315965	-0.025750	-0.003046	-0.009992	-0.826172	0.260742	-0.528564	-20.661412	46.147198	-66.037218
60266		-7.089350	-2.509158	6.325026	-0.010243	-0.006133	-0.001253	-0.827148	0.263184	-0.532715	-20.667380	46.146412	-66.038508
60267		-7.134242	-2.499719	6.340465	-0.005394	-0.008641	0.001397	-0.825439	0.258789	-0.538330	-20.668084	46.141922	-66.036927
60268		-7.114503	-2.435213	6.356329	0.000959	-0.008828	0.001731	-0.832031	0.260254	-0.536133	-20.665419	46.140288	-66.035133
60269		-7.105528	-2.444998	6.388972	0.000907	-0.010667	0.004907	-0.821045	0.257568	-0.537842	-20.660129	46.135422	-66.030247
60270		-7.100400	-2.471819	6.342529	-0.000053	-0.008471	0.003647	-0.817139	0.261475	-0.526855	-20.657056	46.134357	-66.027079
60271		-7.104493	-2.444024	6.390495	0.009697	-0.011648	0.005770	-0.820313	0.264648	-0.531250	-20.646044	46.129138	-66.021240
60272		-7.135714	-2.449297	6.379144	0.002826	-0.008426	0.006953	-0.830811	0.265869	-0.537109	-20.639496	46.128755	-66.015535
60273		-7.076995	-2.495607	6.349501	0.008194	-0.007337	0.007613	-0.822510	0.256348	-0.532227	-20.629224	46.126219	-66.009528
60274		-7.028238	-2.508351	6.426239	0.009079	-0.005659	0.013163	-0.818115	0.269043	-0.527832	-20.616222	46.128561	-65.999833
60275		-7.098436	-2.445385	6.333965	0.010014	-0.002143	0.015537	-0.825684	0.262451	-0.534668	-20.601578	46.130408	-65.989208
60276		-7.192825	-2.353948	6.387477	0.019322	0.000472	0.014410	-0.827637	0.262451	-0.540039	-20.583306	46.136271	-65.980337
60277		-7.139754	-2.393235	6.417001	0.010059	-0.006933	0.012832	-0.829834	0.258057	-0.531494	-20.569140	46.134999	-65.970411
60278		-7.148776	-2.403155	6.397693	0.004279	-0.001311	0.007338	-0.825195	0.259033	-0.532471	-20.563050	46.138475	-65.966488
60279		-7.134611	-2.397321	6.358416	0.005289	-0.001668	0.005422	-0.827148	0.266602	-0.533203	-20.556855	46.138535	-65.963828
60280		-7.126737	-2.427748	6.402839	0.006247	-0.003863	0.006680	-0.818848	0.253418	-0.524414	-20.549469	46.140502	-65.959671
60281		-7.148108	-2.379322	6.386608	0.010109	-0.005094	0.009655	-0.826660	0.266113	-0.532227	-20.537432	46.139574	-65.952739
60282		-7.175269	-2.345720	6.441884	0.014050	-0.003570	0.007867	-0.823486	0.269287	-0.528076	-20.524972	46.141929	-65.947747
60283		-7.157740	-2.344520	6.493674	-0.011640	0.001857	-0.005750	-0.825195	0.263672	-0.536621	-20.535452	46.141634	-65.954761
60284		-7.107132	-2.426909	6.304998	-0.012782	-0.002377	0.004103	-0.824951	0.267090	-0.527344	-20.540702	46.143862	-65.953017
60285		-7.112252	-2.421451	6.364101	-0.002826	0.001792	-0.006478	-0.826416	0.272949	-0.527344	-20.546526	46.143385	-65.960576
60286		-7.121875	-2.453964	6.356428	-0.002515	-0.001961	0.004233	-0.827148	0.267578	-0.539795	-20.545915	46.145856	-65.958857
60287		-7.090065	-2.447579	6.368840	0.005857	-0.002866	0.000730	-0.828369	0.263428	-0.521484	-20.541764	46.144330	-65.959482
60288		-7.045858	-2.499445	6.378283	0.001374	-0.002274	0.005620	-0.823486	0.265869	-0.535889	-20.538094	46.146901	-65.956605
60289		-7.157437	-2.410244	6.379867	0.005731	-0.000828	0.008194	-0.831543	0.263184	-0.535889	-20.530273	46.147968	-65.952041
60290		-7.125161	-2.381764	6.380305	0.011561	-0.004613	0.010511	-0.829102	0.267822	-0.531982	-20.517554	46.150255	-65.944704
60291		-7.103602	-2.427660	6.397719	0.011091	-0.006371	0.009324	-0.826660	0.261963	-0.534912	-20.504872	46.148573	-65.937659
60292		-7.156739	-2.385228	6.369256	0.008193	-0.000704	0.007134	-0.827881	0.261963	-0.535889	-20.496786	46.152267	-65.934069
60293		-7.080781	-2.430362	6.391197	0.011630	-0.008487	0.006220	-0.832764	0.260254	-0.537354	-20.485087	46.148825	-65.928816
60294		-7.125131	-2.397730	6.395127	0.014481	-0.009359	0.011109	-0.821777	0.265625	-0.542236	-20.469372	46.148659	-65.919643
60295		-7.134481	-2.428289	6.388548	0.016969	-0.008317	0.008461	-0.832031	0.265869	-0.539795	-20.453400	46.145756	-65.912706
60296		-7.151074	-2.341119	6.439511	0.012097	-0.006727	0.007403	-0.831787	0.265869	-0.537354	-20.441674	46.146248	-65.907168
60297		-7.133295	-2.404594	6.377973	0.006756	-0.006896	0.005161	-0.839111	0.258545	-0.531494	-20.433696	46.143446	-65.903201
60298		-7.123781	-2.392664	6.398528	0.007242	-0.010848	0.005233	-0.823730	0.263428	-0.537598	-20.425101	46.141280	-65.898152
60299		-7.132911	-2.424131	6.391879	0.004780	-0.010971	0.006292	-0.822021	0.271729	-0.538574	-20.416777	46.136515	-65.892134
60300		-7.122214	-2.369749	6.388065	0.012122	-0.005808	0.005813	-0.823242	0.261963	-0.534912	-20.406115	46.137161	-65.888093
60301		-7.091351	-2.405381	6.425210	0.000998	-0.006989	-0.001442	-0.834717	0.268799	-0.535156	-20.405108	46.132989	-65.889219
60302		-7.109772	-2.448399	6.398428	0.005772	-0.005618	0.005487	-0.833252	0.265381	-0.527344	-20.398305	46.133659	-65.885484
60303		-7.130952	-2.400221	6.382240	0.008207	-0.006412	0.006014	-0.827637	0.261963	-0.532715	-20.389122	46.131285	-65.880999
60304		-7.112582	-2.377162	6.422263	0.007278	-0.003301	0.003169	-0.825928	0.266846	-0.533936	-20.383239	46.132724	-65.879734
60305		-7.144106	-2.382786	6.410515	0.002920	-0.004747	0.000600	-0.829590	0.268555	-0.531738	-20.380457	46.130164	-65.879925
60306		-7.088835	-2.360270	6.403304	0.001884	-0.005304	0.004103	-0.822510	0.265137	-0.534668	-20.376723	46.130702	-65.877357
60307		-7.111267	-2.355149	6.411170	-0.004411	-0.003280	0.000606	-0.828613	0.261963	-0.534668	-20.378443	46.128931	-65.877966
60308		-7.062074	-2.414084	6.360964	-0.009766	0.002262	-0.000521	-0.823486	0.260742	-0.535400	-20.385532	46.132598	-65.881155
60309		-7.108165	-2.425626	6.387965	-0.004399	0.003349	0.000131	-0.828125	0.266113	-0.534424	-20.388887	46.134292	-65.884041
60310		-7.107227	-2.383361	6.363255	-0.002529	0.003756	0.005347	-0.830811	0.265869	-0.532471	-20.388869	46.139920	-65.883118
60311		-7.090537	-2.403243	6.426908	-0.002018	0.000720	0.003832	-0.830322	0.266357	-0.538330	-20.388245	46.140940	-65.882379
60312		-7.175684	-2.302106	6.499414	0.003361	0.008434	0.004010	-0.830078	0.258789	-0.530518	-20.386571	46.148801	-65.883841
60313		-7.181997	-2.318235	6.569827	-0.029138	0.012293	-0.011090	-0.821045	0.262207	-0.534912	-20.412234	46.153056	-65.898005
60314		-7.077307	-2.445808	6.258469	-0.025307	0.010147	-0.006535	-0.827148	0.270264	-0.536377	-20.433219	46.159711	-65.908123
60315		-7.087381	-2.414075	6.363696	-0.010146	0.009887	-0.006944	-0.830078	0.268799	-0.541504	-20.445188	46.163498	-65.918386
60316		-7.107131	-2.414199	6.461555	-0.019067	0.006287	0.000135	-0.821533	0.266602	-0.526611	-20.458081	46.169403	-65.922233
60317		-7.101808	-2.465596	6.275403	-0.009272	0.004941	-0.000927	-0.825684	0.260742	-0.533203	-20.465157	46.171738	-65.926405
60318		-7.102546	-2.421731	6.401138	-0.004871	0.001591	-0.001057	-0.828369	0.260986	-0.533447	-20.469614	46.174870	-65.929827
60319		-7.120691	-2.444314	6.361471	-0.005368	-0.001085	-0.000656	-0.824463	0.259521	-0.536865	-20.473044	46.174024	-65.932046
60320		-7.110890	-2.412122	6.369164	0.000929	-0.003113	0.002845	-0.824707	0.257813	-0.533936	-20.471021	46.175400	-65.931088
60321		-7.111414	-2.432983	6.381548	-0.000081	-0.002754	0.004760	-0.823242	0.261475	-0.535889	-20.468044	46.174744	-65.928625
60322		-7.119850	-2.422794	6.349693	-0.002462	-0.000122	0.001059	-0.829834	0.268311	-0.534668	-20.469592	46.177355	-65.929921
60323		-7.093134	-2.410328	6.421387	0.005773	-0.005622	0.005488	-0.827881	0.262939	-0.539063	-20.462256	46.175304	-65.926065
60324		-7.110497	-2.410663	6.370155	0.002328	-0.004467	0.006875	-0.825439	0.272217	-0.538086	-20.456903	46.176734	-65.921598
60325		-7.092687	-2.409065	6.422354	0.003850	-0.007861	0.003444	-0.825684	0.261475	-0.534424	-20.451346	46.173072	-65.918680
60326		-7.133162	-2.425506	6.391078	0.008208	-0.006417	0.006014	-0.829102	0.267090	-0.540527	-20.442700	46.173267	-65.914318
60327		-7.110201	-2.429565	6.384202	0.009190	-0.007694	0.005685	-0.827148	0.268066	-0.532471	-20.432866	46.170142	-65.909712
60328		-7.109161	-2.407289	6.372922	0.010118	-0.010806	0.008528	-0.821533	0.258057	-0.536621	-20.420812	46.168470	-65.902140
60329		-7.091163	-2.405009	6.425557	0.009135	-0.009528	0.008856	-0.823975	0.259521	-0.529785	-20.408856	46.164993	-65.894548
60330		-7.050205	-2.452140	6.344325	0.011085	-0.006370	0.009311	-0.824951	0.264893	-0.538818	-20.396736	46.165842	-65.887652
60331		-7.121906	-2.386945	6.402750	0.016895	-0.004444	0.012735	-0.830078	0.264893	-0.535889	-20.379222	46.165867	-65.878519
60332		-7.099789	-2.411175	6.408177	0.014916	-0.008517	0.013865	-0.818359	0.257324	-0.532471	-20.361920	46.166454	-65.867479
60333		-7.121062	-2.361971	6.392229	0.010489	-0.006083	0.015582	-0.830566	0.260742	-0.532715	-20.346143	46.166163	-65.855667
60334		-7.121679	-2.381579	6.405000	0.009118	-0.003814	0.009966	-0.829834	0.273682	-0.541016	-20.335319	46.168482	-65.849003
60335		-7.154133	-2.407881	6.405295	0.001869	0.000407	0.005214	-0.822266	0.264404	-0.532715	-20.331629	46.169610	-65.847100
60336		-7.144421	-2.374715	6.413159	0.010098	-0.005091	0.009636	-0.827148	0.266846	-0.536621	-20.320162	46.171165	-65.840326
60337		-7.120968	-2.357530	6.393972	0.005739	-0.006535	0.007069	-0.828369	0.259277	-0.525391	-20.311778	46.168932	-65.834990
60338		-7.148390	-2.345532	6.461443	0.004286	-0.007016	0.006213	-0.831055	0.261475	-0.538330	-20.305155	46.168758	-65.830316
60339		-7.130272	-2.388747	6.387302	-0.003914	-0.000602	0.000205	-0.829590	0.263672	-0.538574	-20.307373	46.168348	-65.832009
60340		-7.098399	-2.382698	6.399575	-0.003044	-0.005544	0.006221	-0.827393	0.260498	-0.534668	-20.305245	46.168954	-65.827749
60341		-7.121422	-2.398292	6.419831	0.004286	-0.007016	0.006212	-0.817871	0.261963	-0.530273	-20.298075	46.166292	-65.822940
60342		-7.107692	-2.414019	6.392887	-0.001536	-0.003230	0.003903	-0.834473	0.267334	-0.538574	-20.296859	46.167666	-65.821143
