// General information: 
//  MT Manager version: 2022.2.0 
//  XDA version: 2022.2.0 build 7381 rev 124627 built on 2023-07-19
// Device information: 
//  DeviceId: 00B4C223
//  ProductCode: MTW2-3A7G6
//  Firmware Version: 4.6.0
//  Hardware Version: 2.0.0
// Device settings: 
//  Filter Profile: human(46.1)
//  Option Flags: Orientation Smoother Disabled, Position/Velocity Smoother Disabled, Continuous Zero Rotation Update Disabled, AHS Disabled, ICC Disabled
// Coordinate system: ENU
PacketCounter	SampleTimeFine	Acc_X	Acc_Y	Acc_Z	Gyr_X	Gyr_Y	Gyr_Z	Mag_X	Mag_Y	Mag_Z	Roll	Pitch	Yaw
58190		-5.774692	0.843251	8.033003	-0.009475	0.007548	0.002885	-0.871582	0.041260	-0.633545	6.185233	35.658953	72.167639
58191		-5.799202	0.837747	8.032208	-0.007332	0.007891	0.000823	-0.868896	0.031982	-0.626221	6.182415	35.663735	72.166619
58192		-5.828472	0.853084	8.058528	-0.008296	0.006706	0.000807	-0.866455	0.038818	-0.628418	6.178284	35.667816	72.165681
58193		-5.828811	0.849707	8.082457	-0.004961	0.005974	0.000594	-0.877441	0.041992	-0.624023	6.176645	35.671520	72.164353
58194		-5.800737	0.836284	8.031252	-0.007105	0.005631	0.002656	-0.874023	0.034912	-0.630615	6.173898	35.674837	72.165675
58195		-5.801049	0.833161	8.055177	-0.003983	0.006926	0.004539	-0.868408	0.035156	-0.631348	6.174475	35.678840	72.167185
58196		-5.830469	0.854561	8.033106	-0.006891	0.003605	0.000560	-0.871338	0.031250	-0.634277	6.170916	35.681175	72.165016
58197		-5.801475	0.829663	8.079059	-0.004508	0.001456	0.004257	-0.873047	0.031250	-0.631104	6.170834	35.682080	72.165914
58198		-5.806496	0.850226	8.106026	-0.005926	0.004790	0.000578	-0.875732	0.037598	-0.623535	6.167891	35.685099	72.162339
58199		-5.802600	0.837709	8.005932	-0.004955	0.005858	0.002559	-0.871582	0.031494	-0.629395	6.167054	35.688616	72.162380
58200		-5.807402	0.849720	8.105430	-0.003983	0.006926	0.004541	-0.872314	0.036133	-0.630615	6.166926	35.692551	72.162449
58201		-5.808274	0.858111	8.032446	-0.006891	0.003606	0.000561	-0.868164	0.033447	-0.633789	6.164062	35.694908	72.160917
58202		-5.803396	0.830976	8.053711	-0.007850	0.002304	0.002507	-0.875000	0.026367	-0.631836	6.160707	35.696391	72.160219
58203		-5.803586	0.830882	8.053584	0.000757	0.003093	0.004079	-0.874756	0.030029	-0.631348	6.163642	35.698240	72.161116
58204		-5.809012	0.857314	8.031997	-0.009261	0.005522	0.000793	-0.872070	0.036865	-0.629395	6.158907	35.701640	72.155864
58205		-5.809015	0.851021	8.080309	-0.002376	0.002033	-0.001732	-0.879395	0.044189	-0.633301	6.157621	35.703242	72.152603
58206		-5.804415	0.829822	8.053096	-0.005706	0.002648	0.000446	-0.871338	0.038086	-0.634766	6.154658	35.705001	72.152340
58207		-5.809533	0.853168	8.055885	-0.004520	0.001690	0.000330	-0.873535	0.032715	-0.633545	6.152972	35.706280	72.150500
58208		-5.809679	0.852765	8.055822	-0.004527	0.001807	-0.001634	-0.870605	0.039795	-0.628174	6.149812	35.707733	72.147076
58209		-5.805105	0.831444	8.028599	-0.006891	0.003606	0.000562	-0.868896	0.029053	-0.629883	6.146947	35.710089	72.145544
58210		-5.810188	0.854694	8.031426	-0.004306	-0.000336	-0.001768	-0.872070	0.029785	-0.627930	6.143758	35.710306	72.141384
58211		-5.805035	0.824481	8.077032	-0.010012	0.002312	-0.001321	-0.872314	0.032715	-0.635010	6.138276	35.712041	72.138432
58212		-5.829259	0.821703	8.052303	-0.006677	0.001580	-0.001535	-0.869385	0.035645	-0.636475	6.133912	35.713343	72.132893
58213		-5.834398	0.847783	8.030972	-0.006451	-0.000679	0.000295	-0.874023	0.035889	-0.634521	6.131001	35.713274	72.130849
58214		-5.805175	0.822711	8.077112	-0.006445	-0.000797	0.002259	-0.868408	0.036621	-0.633545	6.128234	35.713017	72.130387
58215		-5.815183	0.872741	8.058700	-0.005480	0.000387	0.002277	-0.874512	0.036377	-0.625244	6.126738	35.713435	72.129815
58216		-5.829107	0.817162	8.076711	-0.004515	0.001572	0.002295	-0.871338	0.032959	-0.635498	6.125183	35.714476	72.129615
58217		-5.810465	0.851429	8.031572	-0.004294	-0.000571	0.002161	-0.877197	0.034912	-0.629639	6.124276	35.714355	72.128888
58218		-5.805320	0.824503	8.052990	-0.004300	-0.000453	0.000197	-0.875977	0.034912	-0.631348	6.121900	35.714384	72.125506
58219		-5.810114	0.845079	8.080143	-0.003329	0.000614	0.002179	-0.871582	0.041504	-0.636719	6.121606	35.714936	72.124881
58220		-5.786189	0.849824	8.080621	-0.004294	-0.000571	0.002161	-0.871826	0.044189	-0.623779	6.120041	35.714784	72.125313
58221		-5.829171	0.815865	8.076796	-0.006891	0.003606	0.000565	-0.879395	0.034424	-0.625488	6.117177	35.717140	72.123781
58222		-5.810554	0.850013	8.031658	-0.005254	-0.001873	0.004107	-0.878174	0.032471	-0.636475	6.115773	35.716034	72.125053
58223		-5.781490	0.828064	8.053522	-0.003335	0.000732	0.000215	-0.875488	0.037109	-0.634033	6.114676	35.716773	72.123060
58224		-5.834542	0.844596	8.031203	-0.006879	0.003370	0.004494	-0.863281	0.039063	-0.625244	6.112762	35.718720	72.123491
58225		-5.834428	0.838569	8.079567	-0.002364	0.001798	0.002198	-0.875977	0.036377	-0.630859	6.113080	35.719946	72.122969
58226		-5.805950	0.825510	8.028600	-0.003329	0.000614	0.002180	-0.868896	0.033203	-0.634033	6.112128	35.720445	72.123257
58227		-5.810655	0.846211	8.055809	-0.005248	-0.001991	0.006072	-0.869873	0.034180	-0.625000	6.112215	35.719276	72.125168
58228		-5.829435	0.814562	8.076737	-0.002364	0.001798	0.002198	-0.871094	0.041504	-0.630615	6.111882	35.720469	72.123340
58229		-5.834526	0.841197	8.055395	-0.004283	-0.000807	0.006090	-0.864258	0.039795	-0.633789	6.112581	35.719973	72.125353
58230		-5.781788	0.830172	8.029260	-0.003110	-0.001529	0.002045	-0.862793	0.034912	-0.628418	6.111628	35.719304	72.127678
58231		-5.805544	0.825179	8.028927	-0.003104	-0.001647	0.004009	-0.871582	0.031982	-0.626953	6.112113	35.718457	72.128168
58232		-5.805327	0.822310	8.053209	-0.001173	0.000722	0.004046	-0.876953	0.026611	-0.624512	6.113174	35.718921	72.126900
58233		-5.810214	0.846259	8.056122	-0.002127	-0.000699	0.007956	-0.879150	0.033691	-0.620361	6.115878	35.718372	72.130230
58234		-5.833890	0.838672	8.079945	0.000012	-0.000237	0.003929	-0.874268	0.031738	-0.632080	6.117493	35.718186	72.125640
58235		-5.804890	0.822874	8.053467	-0.004809	-0.006276	0.005802	-0.872559	0.041992	-0.624268	6.117533	35.714592	72.127040
58236		-5.809412	0.843707	8.080791	-0.004496	0.001217	0.008191	-0.876465	0.033936	-0.633301	6.118405	35.715050	72.130777
58237		-5.809707	0.849688	8.032305	0.000006	-0.000118	0.001964	-0.871338	0.029541	-0.627197	6.119902	35.715198	72.129946
58238		-5.828507	0.818268	8.053198	-0.003312	0.000259	0.008074	-0.874023	0.027100	-0.630127	6.121371	35.715140	72.130727
58239		-5.756788	0.833178	8.054519	-0.002352	0.001561	0.006128	-0.867432	0.037598	-0.632568	6.123296	35.715991	72.132944
58240		-5.804793	0.826508	8.029334	-0.001167	0.000603	0.006011	-0.868652	0.032715	-0.627197	6.125177	35.716283	72.133387
58241		-5.809788	0.850551	8.032155	-0.001380	0.002627	0.008111	-0.867676	0.040039	-0.628418	6.128518	35.717619	72.137076
58242		-5.809662	0.848025	8.056335	0.000023	-0.000474	0.007859	-0.873047	0.030762	-0.629639	6.131789	35.717163	72.141412
58243		-5.804854	0.824411	8.053336	-0.005912	0.004556	0.004516	-0.864746	0.034180	-0.629883	6.131146	35.719818	72.142724
58244		-5.833911	0.843249	8.055626	-0.000207	0.001905	0.004065	-0.871338	0.036621	-0.629150	6.132841	35.720966	72.142144
58245		-5.805252	0.824518	8.053037	-0.004721	0.003479	0.006364	-0.869873	0.042969	-0.628418	6.133590	35.722894	72.144672
58246		-5.829355	0.819654	8.052443	-0.003537	0.002520	0.006247	-0.866211	0.039063	-0.630615	6.134294	35.724227	72.149351
58247		-5.829692	0.822853	8.028039	-0.000415	0.003810	0.008131	-0.872070	0.029785	-0.630859	6.138249	35.726236	72.153144
58248		-5.829750	0.823220	8.027958	-0.002128	-0.000700	0.007959	-0.868408	0.034424	-0.630615	6.140329	35.725665	72.155938
58249		-5.805631	0.825588	8.052655	0.000988	0.000709	0.007879	-0.860107	0.045166	-0.626953	6.144848	35.725922	72.159320
58250		-5.810510	0.849837	8.055532	-0.001156	0.000365	0.009943	-0.871338	0.030762	-0.627686	6.148350	35.725841	72.167019
58251		-5.805795	0.829545	8.028296	0.000770	0.002851	0.008015	-0.873291	0.032959	-0.632080	6.152895	35.727310	72.170660
58252		-5.810883	0.853965	8.031000	0.001747	0.003797	0.011965	-0.869141	0.030762	-0.627441	6.159027	35.729028	72.174507
58253		-5.787105	0.859349	8.031305	-0.002352	0.001562	0.006131	-0.873047	0.030762	-0.629150	6.160954	35.729878	72.176728
58254		-5.830005	0.823310	8.051600	0.000776	0.002732	0.009982	-0.867432	0.036865	-0.641113	6.165671	35.731106	72.178507
58255		-5.811261	0.852467	8.054712	-0.000632	0.005953	0.008270	-0.874512	0.030762	-0.632324	6.169655	35.734325	72.182562
58256		-5.830605	0.824284	8.051065	-0.000414	0.003810	0.008134	-0.881836	0.037354	-0.633057	6.173010	35.736348	72.185531
58257		-5.806923	0.829741	8.051296	0.001742	0.003915	0.010002	-0.861084	0.031738	-0.624512	6.178974	35.738299	72.190647
58258		-5.840828	0.870071	8.080575	0.001518	0.006177	0.008172	-0.867920	0.038086	-0.626465	6.183532	35.741591	72.193631
58259		-5.802535	0.807397	8.047884	0.001003	0.000352	0.013779	-0.872314	0.034180	-0.630127	6.190464	35.741279	72.201128
58260		-5.812327	0.855573	8.053614	0.001949	0.002010	0.005935	-0.863525	0.035400	-0.638672	6.194170	35.742337	72.203325
58261		-5.817399	0.882986	8.032162	0.001969	0.001535	0.013799	-0.869141	0.043213	-0.635010	6.201717	35.742696	72.210925
58262		-5.817318	0.880695	8.056294	-0.000202	0.001786	0.006034	-0.874512	0.036865	-0.631592	6.204261	35.743713	72.216022
58263		-5.836441	0.855328	8.028687	-0.000951	-0.001539	0.005879	-0.868652	0.033203	-0.629150	6.206751	35.742811	72.217831
58264		-5.836105	0.852559	8.053057	-0.001923	-0.002604	0.003895	-0.869629	0.031250	-0.635986	6.207208	35.741373	72.217254
58265		-5.816854	0.884096	8.032435	-0.003857	-0.004970	0.003857	-0.872559	0.035645	-0.623535	6.207050	35.738642	72.217382
58266		-5.806739	0.836434	8.026898	-0.006224	-0.003051	0.004093	-0.867920	0.029053	-0.631592	6.205108	35.736940	72.216056
58267		-5.811063	0.854103	8.078512	-0.002895	-0.003668	0.001910	-0.872803	0.033936	-0.630371	6.204762	35.735071	72.214917
58268		-5.810772	0.854134	8.078718	-0.001918	-0.002723	0.005861	-0.871826	0.031738	-0.628418	6.206033	35.733464	72.214058
58269		-5.810767	0.860065	8.030433	-0.004074	-0.002827	0.003994	-0.867676	0.037109	-0.628418	6.205903	35.731945	72.214445
58270		-5.805754	0.836176	8.027637	-0.005475	0.000275	0.004248	-0.876709	0.039551	-0.627930	6.204607	35.732122	72.214408
58271		-5.839156	0.875722	8.057351	-0.004074	-0.002827	0.003995	-0.875000	0.041504	-0.634521	6.204477	35.730603	72.214795
58272		-5.781530	0.840868	8.028333	-0.002140	-0.000461	0.004032	-0.869141	0.040527	-0.629883	6.204970	35.730351	72.216985
58273		-5.810150	0.856748	8.055059	-0.005474	0.000275	0.004249	-0.875488	0.033936	-0.628906	6.204279	35.730583	72.217788
58274		-5.809928	0.853694	8.079371	-0.003107	-0.001644	0.004013	-0.867432	0.030762	-0.630127	6.204163	35.729672	72.218531
58275		-5.781199	0.837668	8.052738	-0.003329	0.000618	0.002184	-0.869141	0.034668	-0.629639	6.203871	35.730227	72.217911
58276		-5.810008	0.859395	8.031054	-0.004074	-0.002827	0.003995	-0.868652	0.036377	-0.627686	6.203151	35.728679	72.216531
58277		-5.833841	0.854442	8.030671	-0.004507	0.001458	0.004268	-0.867188	0.036621	-0.626709	6.203075	35.729584	72.217437
58278		-5.833558	0.851404	8.055024	-0.005036	-0.004129	0.005943	-0.875244	0.035645	-0.625977	6.202542	35.727147	72.219502
58279		-5.814277	0.879856	8.058581	-0.004296	-0.000565	0.002165	-0.866455	0.039551	-0.626953	6.201636	35.727029	72.218778
58280		-5.804326	0.829164	8.077062	-0.006441	-0.000908	0.004232	-0.867920	0.037109	-0.630371	6.199735	35.726506	72.219914
58281		-5.833345	0.853628	8.031117	-0.005485	0.000514	0.000317	-0.877441	0.031738	-0.626465	6.197438	35.727118	72.217976
58282		-5.809443	0.858248	8.031586	-0.003324	0.000498	0.004151	-0.873291	0.046631	-0.631104	6.197356	35.727411	72.217147
58283		-5.814196	0.878811	8.058753	-0.005485	0.000514	0.000317	-0.865479	0.029541	-0.622559	6.195060	35.728023	72.215209
58284		-5.809198	0.854780	8.055955	-0.006220	-0.003170	0.006062	-0.869141	0.034912	-0.629395	6.193946	35.726112	72.218055
58285		-5.804154	0.830709	8.053193	-0.006452	-0.000668	0.000299	-0.868164	0.036377	-0.629883	6.191036	35.726051	72.216014
58286		-5.809324	0.856887	8.031817	-0.005923	0.004919	-0.001375	-0.863770	0.039063	-0.625732	6.187416	35.729244	72.212998
58287		-5.828464	0.824905	8.052552	-0.005480	0.000395	0.002285	-0.873535	0.036133	-0.633789	6.185923	35.729665	72.212431
58288		-5.809389	0.853170	8.055988	-0.004302	-0.000446	0.000200	-0.872559	0.030029	-0.629639	6.183642	35.729702	72.211331
58289		-5.809293	0.849921	8.080225	-0.004513	0.001577	0.002304	-0.870361	0.035156	-0.626953	6.182763	35.730796	72.210868
58290		-5.809136	0.846688	8.104505	-0.005264	-0.001748	0.002148	-0.872559	0.037842	-0.628662	6.180661	35.729941	72.207336
58291		-5.785725	0.863066	8.008081	-0.007842	0.002194	0.004489	-0.870361	0.032471	-0.631104	6.178798	35.731252	72.208453
58292		-5.828659	0.823541	8.052551	-0.002573	0.003822	0.004308	-0.875244	0.042969	-0.634766	6.179379	35.733447	72.208712
58293		-5.809754	0.854954	8.031712	-0.004085	-0.002588	0.000062	-0.865967	0.036621	-0.630127	6.177642	35.732307	72.206359
58294		-5.833489	0.846784	8.055561	-0.006663	0.001354	0.002404	-0.872070	0.028320	-0.630859	6.175002	35.733239	72.208441
58295		-5.838096	0.867211	8.082857	-0.005048	-0.003891	0.002010	-0.870850	0.031494	-0.630371	6.173455	35.731236	72.207356
58296		-5.828270	0.822261	8.052963	-0.007420	-0.001851	0.000282	-0.873535	0.033447	-0.624756	6.169361	35.730464	72.200946
58297		-5.785266	0.858159	8.032757	-0.005269	-0.001628	0.000182	-0.864990	0.041748	-0.632324	6.167038	35.729862	72.198749
58298		-5.808893	0.849834	8.056699	-0.006242	-0.002690	-0.001804	-0.879395	0.036865	-0.627197	6.162731	35.728723	72.196147
58299		-5.808617	0.849301	8.056953	-0.007198	-0.004114	0.002111	-0.875000	0.033691	-0.623779	6.159983	35.726587	72.195116
58300		-5.808521	0.851918	8.032926	-0.006442	-0.000909	0.004235	-0.866943	0.030762	-0.634033	6.158088	35.726000	72.193732
58301		-5.808160	0.848443	8.057373	-0.006031	-0.004712	-0.003908	-0.866699	0.040283	-0.622803	6.153516	35.723892	72.188433
58302		-5.812816	0.871579	8.060534	-0.006453	-0.000668	0.000302	-0.872803	0.037109	-0.622559	6.150053	35.723800	72.186588
58303		-5.832001	0.845439	8.032960	-0.007636	0.000292	0.000421	-0.864014	0.039551	-0.629395	6.146557	35.724277	72.184706
58304		-5.808057	0.849730	8.033494	-0.006453	-0.000668	0.000302	-0.877930	0.031494	-0.624512	6.143087	35.724142	72.184239
58305		-5.807904	0.846196	8.057794	-0.007636	0.000292	0.000422	-0.870117	0.035645	-0.635010	6.139591	35.724618	72.182357
58306		-5.803077	0.821946	8.054868	-0.005485	0.000515	0.000321	-0.874023	0.038574	-0.625977	6.136735	35.725158	72.178129
58307		-5.831803	0.840350	8.057455	-0.007420	-0.001851	0.000284	-0.860840	0.035400	-0.635010	6.133212	35.724423	72.175989
58308		-5.783748	0.849542	8.058580	-0.006231	-0.002932	0.002131	-0.872314	0.036621	-0.632080	6.130541	35.722946	72.176330
58309		-5.826955	0.821759	8.006312	-0.004518	0.001697	0.000341	-0.870850	0.033203	-0.625000	6.128859	35.724228	72.174497
58310		-5.826535	0.815553	8.054900	-0.003859	-0.004973	0.003859	-0.869141	0.027832	-0.626221	6.128149	35.721429	72.173481
58311		-5.807069	0.843999	8.058626	-0.005042	-0.004013	0.003979	-0.874023	0.040283	-0.637451	6.127406	35.719235	72.173770
58312		-5.802044	0.823120	8.031668	-0.004075	-0.002830	0.003998	-0.874512	0.029541	-0.629883	6.126735	35.717688	72.172784
58313		-5.811397	0.867548	8.061991	-0.003107	-0.001648	0.004016	-0.870850	0.033936	-0.631104	6.127221	35.716840	72.173278
58314		-5.806270	0.843767	8.059226	-0.005037	-0.004134	0.005946	-0.870361	0.036377	-0.632813	6.126734	35.714410	72.171564
58315		-5.800934	0.816931	8.080745	-0.002897	-0.003669	0.001911	-0.871094	0.041260	-0.632080	6.126389	35.712538	72.170428
58316		-5.805636	0.843566	8.059704	-0.004075	-0.002830	0.003998	-0.873047	0.032959	-0.633057	6.125729	35.710997	72.173050
58317		-5.810363	0.870216	8.038646	-0.004075	-0.002830	0.003998	-0.873291	0.034912	-0.625000	6.125601	35.709476	72.173442
58318		-5.805134	0.846286	8.035970	-0.004832	-0.006034	0.001874	-0.871338	0.036865	-0.625732	6.123479	35.706186	72.170057
58319		-5.828564	0.841039	8.035915	-0.006989	-0.006135	0.000009	-0.869873	0.038574	-0.623535	6.119903	35.703026	72.167402
58320		-5.799136	0.818753	8.058031	-0.004827	-0.006156	0.003842	-0.875977	0.034180	-0.632080	6.118581	35.699515	72.168423
58321		-5.803720	0.842399	8.061206	-0.003322	0.000495	0.004157	-0.875732	0.036133	-0.632813	6.119095	35.699879	72.169176
58322		-5.798795	0.818634	8.058288	-0.003107	-0.001648	0.004018	-0.871582	0.037842	-0.636230	6.119043	35.698977	72.168347
58323		-5.831900	0.858393	8.088269	-0.002664	-0.006177	0.007675	-0.867920	0.041748	-0.632324	6.121081	35.695324	72.171066
58324		-5.803034	0.842541	8.061685	-0.004505	0.001455	0.004278	-0.872070	0.029053	-0.630859	6.120498	35.696243	72.175438
58325		-5.807635	0.866214	8.064845	-0.001499	-0.006772	0.001653	-0.872070	0.029541	-0.632813	6.120713	35.692619	72.173888
58326		-5.802393	0.842494	8.062151	-0.001924	-0.002608	0.003898	-0.875000	0.030762	-0.627686	6.121258	35.691212	72.169145
58327		-5.826070	0.837662	8.061881	-0.004075	-0.002831	0.004000	-0.873291	0.031250	-0.628662	6.121131	35.689690	72.169538
58328		-5.802037	0.845483	8.038290	-0.001924	-0.002608	0.003898	-0.869873	0.036865	-0.631348	6.121660	35.688216	72.165295
58329		-5.801785	0.845471	8.038473	-0.004075	-0.002830	0.004001	-0.871094	0.034668	-0.629150	6.121533	35.686695	72.165688
58330		-5.777619	0.850205	8.039104	-0.005252	-0.001992	0.006089	-0.862793	0.039795	-0.630127	6.121102	35.685491	72.167808
58331		-5.796420	0.815587	8.084119	-0.001392	0.002981	0.002227	-0.873535	0.033447	-0.631836	6.122042	35.687389	72.167395
58332		-5.825314	0.837492	8.062445	-0.004075	-0.002830	0.004001	-0.874023	0.038330	-0.633057	6.121406	35.685863	72.169316
58333		-5.801664	0.848290	8.014463	-0.004714	0.003476	0.006386	-0.874023	0.034424	-0.626709	6.122165	35.687788	72.171857
58334		-5.796663	0.818434	8.059842	-0.003328	0.000617	0.002191	-0.874756	0.034668	-0.634766	6.121348	35.688267	72.170887
58335		-5.806377	0.865935	8.065781	-0.002348	0.001554	0.006145	-0.876221	0.036133	-0.630615	6.123280	35.689113	72.173114
58336		-5.825331	0.834475	8.086552	-0.002139	-0.000466	0.004038	-0.868164	0.041992	-0.627441	6.123860	35.688884	72.172364
58337		-5.796821	0.821657	8.035588	-0.003316	0.000372	0.006127	-0.873535	0.031982	-0.630859	6.125178	35.689057	72.174489
58338		-5.801581	0.845323	8.038636	-0.003119	-0.001404	0.000084	-0.872314	0.029053	-0.628174	6.123538	35.688532	72.173169
58339		-5.825203	0.837336	8.062542	-0.005252	-0.001992	0.006090	-0.874023	0.029541	-0.625488	6.123628	35.687361	72.175091
58340		-5.825065	0.837192	8.062657	-0.004296	-0.000565	0.002173	-0.872314	0.032715	-0.627686	6.122189	35.687147	72.168202
58341		-5.801290	0.844855	8.038896	-0.004505	0.001455	0.004281	-0.866699	0.039307	-0.621094	6.122118	35.688049	72.169114
58342		-5.801223	0.841715	8.063075	-0.004505	0.001455	0.004281	-0.873047	0.029053	-0.632568	6.121516	35.688851	72.170862
58343		-5.825113	0.836846	8.062658	-0.003107	-0.001648	0.004020	-0.868408	0.037354	-0.628906	6.122002	35.688002	72.171358
58344		-5.815549	0.792306	8.032495	-0.003328	0.000617	0.002192	-0.868408	0.038818	-0.624023	6.121207	35.688532	72.168700
58345		-5.801278	0.844515	8.038940	-0.003322	0.000494	0.004160	-0.866211	0.031738	-0.632813	6.121722	35.688895	72.169455
58346		-5.801032	0.838611	8.087339	-0.000197	0.001775	0.006043	-0.874756	0.034424	-0.630127	6.124351	35.689850	72.172611
58347		-5.825298	0.839941	8.038398	-0.005473	0.000273	0.004263	-0.875244	0.031982	-0.631348	6.123666	35.690081	72.173422
58348		-5.806117	0.868394	8.041911	-0.004284	-0.000810	0.006110	-0.864014	0.035645	-0.630371	6.123850	35.689513	72.171938
58349		-5.801063	0.841512	8.063211	-0.004296	-0.000565	0.002174	-0.866211	0.034424	-0.628418	6.122947	35.689393	72.171220
58350		-5.801179	0.844422	8.039021	-0.003322	0.000494	0.004161	-0.867676	0.039307	-0.628662	6.122976	35.689772	72.173712
58351		-5.800952	0.841367	8.063306	-0.003108	-0.001648	0.004021	-0.870361	0.032715	-0.625732	6.123463	35.688922	72.174208
58352		-5.800871	0.841345	8.063366	-0.003322	0.000494	0.004161	-0.869141	0.031738	-0.626953	6.123469	35.689223	72.175850
58353		-5.805603	0.865069	8.066431	-0.003108	-0.001649	0.004021	-0.871338	0.045898	-0.628174	6.123956	35.688374	72.176346
58354		-5.824657	0.836451	8.063028	-0.003328	0.000617	0.002193	-0.871094	0.036865	-0.633789	6.123161	35.688850	72.178617
58355		-5.824517	0.836320	8.063143	-0.002900	-0.003668	0.001913	-0.862549	0.028809	-0.626465	6.122816	35.686979	72.177482
58356		-5.800435	0.844322	8.039569	0.000238	-0.002634	0.007733	-0.867676	0.036377	-0.628906	6.126209	35.685353	72.178889
58357		-5.800090	0.841523	8.063909	-0.004284	-0.000810	0.006111	-0.874268	0.032227	-0.625732	6.126914	35.684853	72.180914
58358		-5.828691	0.860477	8.066565	-0.003108	-0.001648	0.004022	-0.872314	0.037598	-0.632080	6.126891	35.683924	72.179861
58359		-5.823793	0.839700	8.039514	-0.002900	-0.003668	0.001913	-0.862793	0.037598	-0.633545	6.126546	35.682053	72.178726
58360		-5.823209	0.833512	8.088179	-0.004076	-0.002830	0.004003	-0.873291	0.033691	-0.628906	6.125951	35.680569	72.182017
58361		-5.804051	0.864984	8.067557	-0.004290	-0.000688	0.004144	-0.874023	0.031250	-0.627441	6.125852	35.680260	72.182672
58362		-5.828016	0.863264	8.042965	-0.000957	-0.001428	0.003918	-0.872070	0.033447	-0.625244	6.127029	35.679448	72.179130
58363		-5.803681	0.864852	8.067837	-0.007203	-0.004109	0.002121	-0.873047	0.032227	-0.624512	6.124284	35.677313	72.178108
58364		-5.827411	0.859730	8.067570	-0.004296	-0.000564	0.002176	-0.871338	0.037842	-0.629395	6.122865	35.677062	72.173862
58365		-5.798831	0.843644	8.040797	-0.004504	0.001455	0.004285	-0.872559	0.038330	-0.633057	6.122796	35.677965	72.174776
58366		-5.803497	0.864390	8.068019	-0.003309	0.000247	0.008100	-0.871582	0.033691	-0.626465	6.124439	35.677912	72.180227
58367		-5.798927	0.846786	8.016602	-0.004290	-0.000688	0.004145	-0.865479	0.035645	-0.633789	6.124341	35.677602	72.180882
58368		-5.798560	0.840612	8.065105	-0.002145	-0.000344	0.002072	-0.874023	0.037842	-0.621338	6.124168	35.677612	72.179832
58369		-5.798492	0.840533	8.065162	-0.004290	-0.000688	0.004145	-0.872314	0.036865	-0.625732	6.124070	35.677302	72.180486
58370		-5.822522	0.838810	8.040527	0.000006	-0.000123	0.001969	-0.877197	0.036133	-0.625488	6.125052	35.677274	72.180162
58371		-5.822553	0.841883	8.016389	-0.005253	-0.001993	0.006095	-0.868652	0.040039	-0.632080	6.125142	35.676101	72.182087
58372		-5.822360	0.838769	8.040649	-0.002359	0.001799	0.002213	-0.867432	0.032227	-0.638184	6.124983	35.677244	72.183207
58373		-5.798525	0.843457	8.041037	-0.004504	0.001455	0.004286	-0.872803	0.038086	-0.637695	6.124914	35.678146	72.184122
58374		-5.822408	0.838676	8.040624	-0.003102	-0.001772	0.005992	-0.874756	0.040039	-0.628174	6.125771	35.677216	72.186356
58375		-5.798140	0.840437	8.065425	-0.003108	-0.001649	0.004023	-0.878174	0.029053	-0.629395	6.126258	35.676367	72.186854
58376		-5.802675	0.861095	8.092751	-0.002145	-0.000344	0.002073	-0.872803	0.030518	-0.627441	6.126057	35.676258	72.183235
58377		-5.793288	0.819673	8.038339	-0.003108	-0.001649	0.004023	-0.877441	0.031738	-0.626221	6.126544	35.675408	72.183732
58378		-5.802670	0.864189	8.068636	-0.002346	0.001552	0.006152	-0.875000	0.029053	-0.630127	6.127975	35.676120	72.179699
58379		-5.797934	0.840454	8.065572	-0.003327	0.000618	0.002196	-0.875244	0.033203	-0.635742	6.127688	35.676673	72.179085
58380		-5.797592	0.837367	8.089934	-0.001713	-0.004753	0.003760	-0.869873	0.032227	-0.623779	6.128259	35.674043	72.172755
58381		-5.797626	0.843526	8.041678	-0.004284	-0.000811	0.006115	-0.866943	0.035645	-0.634766	6.128965	35.673542	72.174782
58382		-5.821366	0.838646	8.041381	-0.002908	-0.003544	-0.000055	-0.868408	0.035156	-0.630859	6.127357	35.671853	72.172023
58383		-5.825773	0.859209	8.068808	-0.003108	-0.001649	0.004024	-0.867676	0.039795	-0.628174	6.127844	35.671003	72.172520
58384		-5.796749	0.840174	8.066453	-0.003865	-0.004973	0.003865	-0.877686	0.031738	-0.628906	6.127235	35.668263	72.176262
58385		-5.796487	0.840077	8.066651	-0.004290	-0.000687	0.004147	-0.871094	0.035156	-0.633301	6.127138	35.667953	72.176918
58386		-5.772515	0.847589	8.043046	-0.005065	-0.003640	-0.001919	-0.875244	0.039795	-0.630615	6.123515	35.666277	72.169321
58387		-5.796234	0.839319	8.066912	-0.007836	0.002197	0.004516	-0.874268	0.029541	-0.636963	6.121663	35.667588	72.170452
58388		-5.820113	0.834324	8.066529	-0.004078	-0.002830	0.004006	-0.866699	0.035400	-0.628906	6.121080	35.666049	72.167851
58389		-5.796366	0.845086	8.018634	-0.006648	0.001111	0.006363	-0.865967	0.034180	-0.627930	6.120617	35.666629	72.170195
58390		-5.796046	0.838759	8.067105	-0.004297	-0.000564	0.002179	-0.868896	0.035156	-0.633301	6.119270	35.666514	72.171405
58391		-5.819780	0.830796	8.090926	-0.002145	-0.000344	0.002074	-0.868164	0.036865	-0.630371	6.119569	35.666527	72.170633
58392		-5.824642	0.857534	8.069803	-0.004290	-0.000688	0.004148	-0.873047	0.029541	-0.630615	6.119036	35.666247	72.172918
58393		-5.795799	0.838341	8.067326	-0.005266	-0.001745	0.002161	-0.871338	0.038818	-0.631348	6.117521	35.665456	72.172101
58394		-5.795710	0.838107	8.067414	-0.002151	-0.000220	0.000105	-0.871338	0.030518	-0.625000	6.116560	35.665627	72.167847
58395		-5.843384	0.828397	8.066683	-0.007192	-0.004356	0.006063	-0.870361	0.043213	-0.627930	6.115422	35.663111	72.169570
58396		-5.800200	0.864366	8.046613	-0.006454	-0.000659	0.000315	-0.867920	0.028564	-0.627197	6.112046	35.662948	72.169214
58397		-5.819167	0.835255	8.043325	-0.006042	-0.004695	-0.003906	-0.870361	0.031982	-0.636230	6.107477	35.660847	72.163922
58398		-5.789805	0.809467	8.089473	-0.007211	-0.003983	0.000156	-0.872314	0.038086	-0.629395	6.103493	35.658940	72.156465
58399		-5.818427	0.834046	8.043987	-0.006999	-0.006125	0.000014	-0.874756	0.041260	-0.622559	6.099917	35.655784	72.153815
58400		-5.794146	0.838430	8.044719	-0.005259	-0.001870	0.004131	-0.869385	0.035400	-0.621582	6.098722	35.654647	72.158056
58401		-5.793850	0.838237	8.044952	-0.003872	-0.004849	0.001897	-0.874512	0.038574	-0.630127	6.097763	35.652104	72.156822
58402		-5.793296	0.831862	8.093579	-0.004296	-0.000564	0.002180	-0.873291	0.036865	-0.629639	6.096389	35.651859	72.157420
58403		-5.797941	0.858582	8.072633	-0.002683	-0.005936	0.003743	-0.881104	0.036865	-0.623779	6.096818	35.648585	72.157399
58404		-5.816825	0.829971	8.069349	-0.004296	-0.000564	0.002181	-0.868164	0.031250	-0.625488	6.095428	35.648280	72.155620
58405		-5.797493	0.858172	8.072998	-0.006235	-0.002926	0.002145	-0.867920	0.031250	-0.635010	6.093300	35.646817	72.154704
58406		-5.811528	0.802499	8.090837	-0.005266	-0.001745	0.002163	-0.879639	0.029785	-0.627197	6.091356	35.646059	72.150315
58407		-5.787665	0.813131	8.043053	-0.005054	-0.003888	0.002021	-0.874268	0.037598	-0.635498	6.089813	35.644056	72.149241
58408		-5.820773	0.852588	8.073118	-0.004290	-0.000689	0.004151	-0.877197	0.036865	-0.620117	6.089252	35.643662	72.144983
58409		-5.815992	0.831831	8.045977	-0.004078	-0.002832	0.004009	-0.875000	0.042480	-0.633057	6.089127	35.642140	72.145380
58410		-5.815782	0.831634	8.046148	-0.005266	-0.001745	0.002164	-0.868652	0.035645	-0.635742	6.087130	35.641172	72.147005
58411		-5.791512	0.833133	8.070943	-0.003108	-0.001651	0.004027	-0.875732	0.033936	-0.627686	6.087619	35.640322	72.147504
58412		-5.820167	0.855311	8.049496	-0.001919	-0.002738	0.005873	-0.869385	0.040771	-0.635742	6.089060	35.638738	72.147848
58413		-5.810470	0.810761	8.019404	-0.006030	-0.004943	0.000034	-0.872070	0.031250	-0.630371	6.086100	35.636254	72.145302
58414		-5.795552	0.856445	8.074575	-0.003333	0.000743	0.000231	-0.863770	0.034912	-0.629883	6.084595	35.637044	72.144081
58415		-5.819573	0.854561	8.050005	-0.004084	-0.002707	0.002040	-0.873535	0.039551	-0.624756	6.083667	35.635713	72.143109
58416		-5.819038	0.851219	8.074513	-0.004842	-0.006030	0.001880	-0.872070	0.037598	-0.629883	6.081656	35.632458	72.145280
58417		-5.837752	0.822543	8.071358	-0.003866	-0.004975	0.003868	-0.871826	0.031738	-0.636719	6.081501	35.629723	72.145419
58418		-5.813518	0.830285	8.047924	-0.002691	-0.005811	0.001774	-0.876221	0.035889	-0.626465	6.080709	35.626679	72.142862
58419		-5.865402	0.841453	8.074766	-0.002465	-0.008205	0.005571	-0.867188	0.029297	-0.631836	6.081911	35.622000	72.143954
58420		-5.845559	0.873078	8.054659	-0.003230	-0.011403	0.003442	-0.872314	0.039795	-0.631348	6.081226	35.615597	72.139716
58421		-5.834761	0.825258	8.049472	-0.006701	-0.020162	-0.000851	-0.879883	0.037354	-0.631592	6.076861	35.604496	72.135415
58422		-5.775825	0.907152	8.085122	-0.005600	-0.009354	0.001723	-0.875977	0.042480	-0.624756	6.074208	35.599340	72.135224
58423		-5.804315	0.922209	8.112106	-0.011634	0.007979	-0.006773	-0.867920	0.039307	-0.626221	6.065824	35.604630	72.128873
58424		-5.814562	0.847605	8.078117	-0.018437	-0.000036	-0.010833	-0.870850	0.031250	-0.636719	6.051094	35.605479	72.125524
58425		-5.780924	0.799718	8.096791	-0.016074	-0.001960	-0.011081	-0.876221	0.038574	-0.627686	6.037976	35.605365	72.115414
58426		-5.766780	0.853178	8.079316	-0.016491	0.002199	-0.008825	-0.871582	0.040527	-0.627197	6.025303	35.607491	72.106177
58427		-5.776948	0.775651	8.069385	-0.010665	0.009160	-0.006749	-0.870850	0.036621	-0.625977	6.017530	35.613448	72.099925
58428		-5.802006	0.772749	8.044186	-0.009915	0.012610	-0.008557	-0.877197	0.034180	-0.626709	6.009160	35.621394	72.096409
58429		-5.788554	0.824151	8.050218	-0.005364	0.010274	0.000932	-0.866943	0.041016	-0.625488	6.007606	35.627524	72.095620
58430		-5.813067	0.815982	8.073483	-0.003001	0.008351	0.000681	-0.873779	0.033936	-0.635986	6.006776	35.632461	72.096558
58431		-5.799594	0.874132	8.031313	-0.004947	0.006115	-0.001324	-0.863281	0.037842	-0.633545	6.004360	35.636357	72.093881
58432		-5.795197	0.849741	8.028013	-0.007863	0.002698	-0.003347	-0.868164	0.033691	-0.635254	5.998917	35.638556	72.091671
58433		-5.824118	0.870720	8.006552	-0.012724	-0.002954	-0.007375	-0.875000	0.040771	-0.628662	5.989183	35.637645	72.084083
58434		-5.785187	0.796211	8.046527	-0.016623	-0.007299	-0.013353	-0.875732	0.036865	-0.630127	5.974182	35.634629	72.074741
58435		-5.794010	0.844726	8.029399	-0.018880	-0.017525	-0.009899	-0.870361	0.038330	-0.625244	5.959270	35.625563	72.064317
58436		-5.787703	0.815743	8.051686	-0.017706	-0.018359	-0.011990	-0.877930	0.032471	-0.627930	5.943715	35.616046	72.054543
58437		-5.810254	0.811988	8.028387	-0.019424	-0.022992	-0.010197	-0.872070	0.036621	-0.629150	5.928145	35.603877	72.043520
58438		-5.808181	0.806957	8.054148	-0.013719	-0.025783	-0.008713	-0.863281	0.036133	-0.628662	5.915906	35.589938	72.031930
58439		-5.753399	0.787991	8.077624	-0.013932	-0.023641	-0.008566	-0.872559	0.028564	-0.632813	5.904130	35.577300	72.022014
58440		-5.785168	0.832430	8.060789	-0.011552	-0.025818	-0.004879	-0.874023	0.036621	-0.630859	5.894743	35.563292	72.011752
58441		-5.802491	0.805871	8.034616	-0.011552	-0.025818	-0.004875	-0.876221	0.032959	-0.636475	5.885752	35.549193	72.004273
58442		-5.723963	0.795129	8.034224	-0.011783	-0.023420	-0.008665	-0.872070	0.034668	-0.637695	5.874795	35.536730	71.994710
58443		-5.778897	0.822273	8.113775	-0.011756	-0.023805	-0.002757	-0.878174	0.040283	-0.619385	5.866641	35.523652	71.988867
58444		-5.763324	0.756359	8.057202	-0.009071	-0.017989	-0.004530	-0.871338	0.048828	-0.630859	5.859135	35.513929	71.985066
58445		-5.790632	0.774462	8.061054	-0.006911	-0.017896	-0.002672	-0.873779	0.038818	-0.632813	5.854044	35.504213	71.979713
58446		-5.784159	0.873606	8.075332	-0.004111	-0.024231	-0.001244	-0.873779	0.035889	-0.627197	5.850492	35.490853	71.987268
58447		-5.720183	1.057660	8.100369	-0.015352	-0.020281	-0.012204	-0.878906	0.032715	-0.625488	5.836596	35.480333	71.975076
58448		-5.733225	0.758765	8.038480	-0.034765	-0.021630	-0.021028	-0.875977	0.033691	-0.633301	5.807530	35.469448	71.955400
58449		-5.693806	0.818701	7.998678	-0.023775	-0.022923	-0.017793	-0.879150	0.037598	-0.626709	5.786441	35.457737	71.939123
58450		-5.692200	1.058372	8.056922	-0.042658	-0.018677	-0.028268	-0.873047	0.035645	-0.638672	5.750069	35.449011	71.918263
58451		-5.829807	0.876691	8.036655	-0.053683	-0.016999	-0.037378	-0.878174	0.030518	-0.622070	5.704154	35.441781	71.888718
58452		-5.780149	0.873064	8.087443	-0.058549	-0.022652	-0.041367	-0.869873	0.035889	-0.635986	5.653245	35.431560	71.855364
58453		-5.801767	0.730898	8.120890	-0.064812	-0.025204	-0.045075	-0.872803	0.039795	-0.627441	5.597525	35.420040	71.819890
58454		-5.724083	0.720675	8.072195	-0.055241	-0.023129	-0.045498	-0.878662	0.040283	-0.625488	5.546875	35.409828	71.789847
58455		-5.770628	0.704031	8.073013	-0.055866	-0.016968	-0.041105	-0.881836	0.032715	-0.621582	5.498243	35.402736	71.757742
58456		-5.787940	0.542511	8.078220	-0.046043	-0.017426	-0.035791	-0.872803	0.038818	-0.628662	5.456979	35.394879	71.731563
58457		-5.815451	0.556651	8.082364	-0.029704	-0.017870	-0.021012	-0.873047	0.040283	-0.631592	5.431461	35.386144	71.713475
58458		-5.766631	0.690099	8.077071	-0.021332	-0.025509	-0.008178	-0.881592	0.033447	-0.629883	5.415282	35.372439	71.711662
58459		-5.649731	0.612702	8.066740	-0.016508	-0.019458	-0.010068	-0.869629	0.036377	-0.625488	5.401708	35.362198	71.701136
58460		-5.630364	0.886319	8.104939	-0.018698	-0.008590	0.002595	-0.878906	0.036621	-0.626953	5.392026	35.357479	71.701728
58461		-5.682991	0.900756	8.083946	-0.041002	-0.002952	-0.017382	-0.875244	0.039307	-0.628906	5.362093	35.357042	71.687181
58462		-5.677709	0.625873	8.046985	-0.044480	0.009940	-0.020296	-0.869629	0.039795	-0.631348	5.329094	35.364089	71.677646
58463		-5.697420	0.586563	8.091077	-0.035712	0.019924	-0.010334	-0.878662	0.036133	-0.635742	5.305904	35.376316	71.669518
58464		-5.748524	0.826881	8.075030	-0.032569	0.021065	-0.006503	-0.875244	0.036133	-0.627930	5.285738	35.389138	71.672684
58465		-5.711163	0.746816	8.136823	-0.043111	0.028621	-0.021148	-0.875732	0.043701	-0.626953	5.254238	35.406891	71.657534
58466		-5.804979	0.586057	8.040840	-0.037056	0.033177	-0.015302	-0.869141	0.035645	-0.625977	5.228351	35.426891	71.653895
58467		-5.783951	0.594073	7.991467	-0.033781	0.022288	-0.010274	-0.866943	0.046387	-0.630127	5.206353	35.440453	71.645929
58468		-5.685416	0.593776	7.940498	-0.027388	0.012810	-0.005358	-0.875732	0.036377	-0.630615	5.189275	35.448424	71.643502
58469		-5.753010	0.785657	8.066757	-0.035351	0.005613	-0.007294	-0.876465	0.045410	-0.625977	5.166965	35.452312	71.636552
58470		-5.782977	0.926791	8.063044	-0.056476	-0.000396	-0.014245	-0.866699	0.042969	-0.626709	5.129109	35.453071	71.633388
58471		-5.785671	1.302000	8.019635	-0.098441	-0.014916	-0.053963	-0.869873	0.036377	-0.632080	5.050941	35.447607	71.592456
58472		-5.832241	1.048150	7.866259	-0.156358	-0.043555	-0.101397	-0.876953	0.045410	-0.633789	4.918974	35.428194	71.517241
58473		-5.875038	0.521857	7.996894	-0.173370	-0.089710	-0.118950	-0.875000	0.035889	-0.624023	4.768987	35.383030	71.426401
58474		-5.885978	0.466568	8.047929	-0.153116	-0.107090	-0.105455	-0.874268	0.045166	-0.632568	4.635328	35.327132	71.353288
58475		-5.760870	0.367981	8.090869	-0.125395	-0.122868	-0.088470	-0.882324	0.043457	-0.626221	4.524442	35.261296	71.282299
58476		-5.705707	0.243594	8.228629	-0.091677	-0.101982	-0.073466	-0.875000	0.045654	-0.641113	4.439409	35.206670	71.240681
58477		-5.665873	0.431123	8.312111	-0.056818	-0.081343	-0.038945	-0.875000	0.039551	-0.631104	4.389352	35.162204	71.206879
58478		-5.701907	0.976683	8.275754	-0.056409	-0.043762	-0.046277	-0.871582	0.043945	-0.629395	4.337417	35.139816	71.190283
58479		-5.723715	1.324294	8.210208	-0.112199	-0.052086	-0.099996	-0.875000	0.042725	-0.630859	4.232082	35.114618	71.115510
58480		-5.862014	1.391795	8.108604	-0.183103	-0.082691	-0.167746	-0.882568	0.047852	-0.635010	4.057785	35.074769	71.002282
58481		-5.899071	0.984659	8.060021	-0.235787	-0.120499	-0.201588	-0.885986	0.038330	-0.626709	3.839255	35.014115	70.853542
58482		-5.907538	0.686642	8.128393	-0.252115	-0.161817	-0.210581	-0.874023	0.055420	-0.634277	3.606826	34.929774	70.723869
58483		-5.782072	0.588586	8.225611	-0.251286	-0.170120	-0.214595	-0.879639	0.055420	-0.627930	3.373868	34.840225	70.564837
58484		-5.721316	0.336689	8.249294	-0.244934	-0.158474	-0.201967	-0.875732	0.050537	-0.627686	3.150105	34.756524	70.430961
58485		-5.616915	0.113334	8.323331	-0.218448	-0.141567	-0.186719	-0.876465	0.058350	-0.638184	2.948657	34.681461	70.293555
58486		-5.618423	0.026555	8.370422	-0.187166	-0.108050	-0.155161	-0.882324	0.056396	-0.624023	2.778347	34.624289	70.181487
58487		-5.588852	0.018054	8.327358	-0.145933	-0.066356	-0.129884	-0.883301	0.055908	-0.628662	2.642932	34.590064	70.086805
58488		-5.659828	0.222481	8.270980	-0.115484	-0.035500	-0.106566	-0.884277	0.054688	-0.625732	2.534495	34.572661	70.009325
58489		-5.687618	0.558357	8.259367	-0.114064	-0.028841	-0.106109	-0.881104	0.058350	-0.631836	2.427535	34.559008	69.932514
58490		-5.700279	0.498341	8.205118	-0.122493	-0.031693	-0.109417	-0.889160	0.061279	-0.633545	2.314121	34.543610	69.853170
58491		-5.574863	0.595630	8.297397	-0.135740	-0.030627	-0.113973	-0.885986	0.062256	-0.632080	2.191701	34.528860	69.770938
58492		-5.631558	0.288028	8.276074	-0.145056	-0.016664	-0.123770	-0.883057	0.051514	-0.633057	2.060036	34.522090	69.682122
58493		-5.610973	0.077034	8.242534	-0.135837	-0.001417	-0.111582	-0.884277	0.063232	-0.628418	1.938972	34.523719	69.602353
58494		-5.646656	0.106255	8.227083	-0.115286	0.000792	-0.097450	-0.881348	0.058594	-0.632813	1.834972	34.526141	69.532257
58495		-5.632293	-0.076856	8.196263	-0.096953	0.012658	-0.084406	-0.877441	0.064453	-0.622070	1.747052	34.535104	69.471671
58496		-5.643764	0.061913	8.197735	-0.076330	0.014538	-0.066475	-0.887939	0.053467	-0.628418	1.677698	34.544692	69.423365
58497		-5.686941	0.125712	8.161997	-0.063724	0.009804	-0.058131	-0.876953	0.072021	-0.626953	1.619108	34.551463	69.380953
58498		-5.634992	0.002337	8.163979	-0.055164	0.002402	-0.049649	-0.887451	0.058105	-0.635254	1.568347	34.553752	69.344074
58499		-5.612176	0.005896	8.140087	-0.040621	-0.000096	-0.039383	-0.884033	0.065186	-0.633789	1.530270	34.554503	69.314496
58500		-5.541016	-0.089094	8.170575	-0.021030	0.010508	-0.022728	-0.880615	0.061768	-0.629883	1.509749	34.560987	69.296472
58501		-5.623360	0.037887	8.195797	-0.004506	0.019470	-0.003982	-0.873291	0.063232	-0.632813	1.506529	34.572393	69.291871
58502		-5.648096	0.135546	8.188405	0.003525	0.016515	0.002896	-0.880859	0.065674	-0.625000	1.510229	34.581926	69.291765
58503		-5.695859	0.331100	8.174778	-0.002738	0.013919	-0.000654	-0.877441	0.061523	-0.625244	1.509277	34.590103	69.289376
58504		-5.719724	0.427677	8.168029	-0.016475	0.000263	-0.012196	-0.878662	0.058594	-0.629150	1.495392	34.590556	69.278475
58505		-5.706710	0.476452	8.177602	-0.039922	-0.014806	-0.032745	-0.879883	0.062500	-0.634033	1.460166	34.582753	69.253238
58506		-5.705375	0.366702	8.185281	-0.057555	-0.032754	-0.050104	-0.888916	0.066406	-0.625732	1.407481	34.564832	69.215409
58507		-5.647812	0.337276	8.231543	-0.077580	-0.039444	-0.062466	-0.876709	0.062500	-0.632324	1.338749	34.543287	69.169119
58508		-5.640389	0.415519	8.175771	-0.091277	-0.043889	-0.067388	-0.877197	0.059082	-0.633057	1.259910	34.519141	69.119176
58509		-5.619164	0.225598	8.195186	-0.103660	-0.050703	-0.080387	-0.880615	0.062500	-0.623779	1.169173	34.491258	69.060363
58510		-5.579769	0.064108	8.218814	-0.100568	-0.039845	-0.075857	-0.881592	0.063477	-0.630127	1.081829	34.469401	69.004719
58511		-5.492562	-0.089439	8.265907	-0.089539	-0.031406	-0.070296	-0.883545	0.069336	-0.635254	1.003401	34.452322	68.953294
58512		-5.567451	-0.093360	8.271139	-0.067368	-0.015051	-0.053468	-0.883545	0.065186	-0.629639	0.944107	34.444322	68.913580
58513		-5.548959	0.031694	8.270701	-0.048658	0.002499	-0.042103	-0.878906	0.062500	-0.632813	0.900437	34.446318	68.882173
58514		-5.588433	0.179649	8.349989	-0.041681	0.026150	-0.040881	-0.881836	0.070557	-0.628418	0.861050	34.461751	68.851649
58515		-5.575841	0.112864	8.286489	-0.043332	0.039492	-0.045509	-0.878174	0.073242	-0.625244	0.819284	34.484931	68.818238
58516		-5.558092	-0.084650	8.246468	-0.032733	0.069560	-0.038249	-0.884033	0.066650	-0.643311	0.786257	34.525172	68.789925
58517		-5.507509	0.186804	8.341922	-0.025759	0.083831	-0.041620	-0.883057	0.070557	-0.633301	0.756256	34.573692	68.759569
58518		-5.521274	-0.104603	8.356717	-0.024262	0.125381	-0.040347	-0.876221	0.065674	-0.634766	0.727443	34.645894	68.730209
58519		-5.606345	-0.318137	8.286465	0.000505	0.164842	-0.021827	-0.875732	0.064697	-0.625000	0.720626	34.740662	68.714256
58520		-5.571890	-0.202934	8.147514	0.031686	0.187429	-0.001275	-0.871826	0.069824	-0.638916	0.739589	34.848111	68.712605
58521		-5.619836	-0.181310	8.265095	0.048331	0.212302	0.011106	-0.877441	0.057861	-0.638184	0.773555	34.969828	68.720122
58522		-5.667027	-0.162352	8.280813	0.072242	0.231246	0.026339	-0.870850	0.063721	-0.633789	0.827154	35.102155	68.738359
58523		-5.645490	0.181585	8.303767	0.073317	0.266927	0.031400	-0.868164	0.069092	-0.636963	0.884152	35.254981	68.760955
58524		-5.710746	0.364832	8.247398	0.054809	0.284011	0.023025	-0.863525	0.066895	-0.640137	0.927039	35.417530	68.777810
58525		-5.632473	0.652128	8.355189	0.022064	0.319472	-0.002051	-0.872803	0.066162	-0.638672	0.941658	35.600745	68.777818
58526		-5.624754	0.911323	8.359359	-0.047602	0.353227	-0.010587	-0.863281	0.064941	-0.637695	0.912703	35.803240	68.771924
58527		-5.420091	0.905398	8.759441	-0.205456	0.402295	-0.006748	-0.863525	0.066406	-0.640137	0.795340	36.033944	68.769165
58528		-5.510235	0.855535	8.932589	-0.365569	0.477352	0.007760	-0.856201	0.066895	-0.638672	0.591924	36.307368	68.776342
58529		-5.273582	-0.932958	8.812796	-0.351595	0.605986	-0.051653	-0.850342	0.072021	-0.645020	0.371388	36.654971	68.740921
58530		-5.541048	1.187289	9.319992	-0.204937	0.792224	-0.106557	-0.838623	0.071533	-0.646729	0.210209	37.109106	68.665007
58531		-5.527381	0.158193	9.273875	-0.223376	0.978268	-0.154986	-0.827393	0.076660	-0.646484	0.015793	37.669937	68.552360
58532		-5.501096	0.740743	9.539858	-0.197444	1.167342	-0.209609	-0.828125	0.087158	-0.640869	-0.191660	38.338415	68.396170
58533		-5.488944	0.394376	9.684738	-0.210466	1.412168	-0.267784	-0.822266	0.080566	-0.648926	-0.438404	39.146809	68.191442
58534		-5.459080	0.910681	9.922933	-0.224598	1.664706	-0.336064	-0.805176	0.078125	-0.650879	-0.734296	40.098292	67.926302
58535		-5.457453	1.013419	9.867314	-0.231233	1.975060	-0.465198	-0.786865	0.069580	-0.655518	-1.110951	41.225602	67.548576
58536		-5.537741	1.375219	9.801163	-0.289908	2.322854	-0.648226	-0.764160	0.080566	-0.653809	-1.638426	42.546738	67.004435
58537		-5.648992	1.270652	9.924404	-0.353629	2.691197	-0.890479	-0.737793	0.083496	-0.665527	-2.372328	44.069993	66.227097
58538		-4.753321	0.123159	9.060768	-0.451200	3.142186	-1.110839	-0.720459	0.084473	-0.670898	-3.355089	45.835648	65.199272
58539		-4.891828	-1.172045	9.026586	-0.526532	3.721980	-1.233347	-0.685059	0.087158	-0.666504	-4.566863	47.914402	63.949915
58540		-4.710356	-0.820977	9.065313	-0.617552	4.308752	-1.278573	-0.643066	0.093262	-0.682129	-6.026434	50.304149	62.484874
58541		-5.438195	0.043791	8.276140	-0.760386	4.840499	-1.357110	-0.605713	0.091553	-0.674561	-7.861419	52.963404	60.698305
58542		-5.511348	0.845520	8.384267	-1.134271	5.184829	-1.520327	-0.561035	0.104736	-0.668701	-10.368120	55.757748	58.411870
58543		-6.070209	-0.617439	7.022759	-1.349100	5.559351	-1.614302	-0.525146	0.121338	-0.662109	-13.574023	58.682492	55.517171
58544		-7.242733	-1.248576	6.812671	-1.136842	5.796053	-1.621478	-0.463867	0.132324	-0.645752	-17.330430	61.635443	51.936570
58545		-8.435633	-1.948217	6.681437	-0.751338	6.152681	-1.498929	-0.422363	0.145752	-0.635010	-21.690127	64.673049	47.532675
58546		-12.595696	0.066840	7.747779	-0.498425	6.387420	-1.377469	-0.369385	0.158203	-0.625244	-27.026537	67.682772	42.011593
58547		-17.282926	2.712914	9.003280	-0.784165	6.025619	-1.490624	-0.322021	0.156494	-0.600098	-33.949112	70.228205	35.076539
58548		-17.221723	0.981781	7.683265	-1.166002	5.370947	-1.705661	-0.290771	0.176758	-0.583496	-42.440911	72.044815	26.808836
58549		-15.679402	1.218029	6.728511	-1.545668	5.072339	-2.057761	-0.244385	0.197510	-0.561768	-52.720704	73.137500	16.964455
58550		-15.073980	-1.187201	6.978445	-1.497155	4.638758	-2.066450	-0.214111	0.205811	-0.538574	-63.214526	73.543047	6.905866
58551		-11.350511	-0.959548	6.113696	-1.348558	4.412494	-2.117193	-0.185303	0.229492	-0.521973	-73.411743	73.347771	-2.926165
58552		-8.179978	-3.353625	4.885100	-0.827525	4.246203	-1.673851	-0.154053	0.233398	-0.505127	-82.395282	72.917160	-11.819351
58553		-4.451429	-3.209175	5.199081	-0.106439	4.318944	-1.397479	-0.135986	0.249023	-0.480225	-90.498959	72.267853	-20.248631
58554		-4.675529	-3.578661	5.351355	0.635697	4.585285	-1.082952	-0.093506	0.245850	-0.457031	-97.988810	71.451714	-28.515000
58555		-4.313404	-3.072233	6.074519	1.376381	4.603798	-0.854450	-0.066650	0.245361	-0.418213	-104.422749	70.454945	-36.156607
58556		-9.699354	-2.344766	8.069780	2.038869	4.373716	-0.443189	-0.053223	0.232422	-0.397217	-109.615412	69.476842	-42.929399
58557		-19.015280	0.056760	13.500738	2.535336	2.722392	-0.132560	-0.034668	0.227295	-0.390869	-111.921544	68.850633	-46.953131
58558		-12.953268	2.321625	12.686704	2.657355	0.703926	0.252508	-0.032959	0.207275	-0.389404	-111.493726	68.836612	-48.130497
58559		-11.187066	3.634028	12.612958	2.214855	-0.820910	0.521863	-0.035400	0.191406	-0.391113	-109.342214	69.279181	-47.187717
58560		-7.239102	3.357442	10.824649	1.631425	-1.940705	0.722577	-0.046387	0.184570	-0.398926	-105.873812	70.011692	-44.489262
58561		-4.090655	2.406036	9.071482	1.071499	-2.539871	0.866353	-0.060059	0.169189	-0.413574	-101.612625	70.838247	-40.620668
58562		-2.425073	0.807448	7.670446	0.699159	-2.827683	0.988971	-0.067139	0.171387	-0.440186	-96.748177	71.657960	-35.911049
58563		-2.227732	-0.917407	6.977373	0.655345	-2.993828	1.146873	-0.080078	0.156982	-0.451660	-91.229091	72.431814	-30.506734
58564		-3.108261	-2.221798	7.009982	0.891671	-3.202588	1.376471	-0.091064	0.144775	-0.470703	-84.681195	73.155794	-24.191848
58565		-4.223791	-2.429011	7.173308	1.268583	-3.519032	1.615079	-0.108154	0.126953	-0.487305	-76.749849	73.743213	-16.679080
58566		-5.262701	-1.491587	7.625053	1.561944	-3.905877	1.813610	-0.132080	0.112305	-0.506348	-67.341241	74.041291	-7.823384
58567		-5.722113	-0.224166	7.991338	1.573990	-4.327374	1.963593	-0.156006	0.094238	-0.535645	-56.975779	73.876044	2.019581
58568		-5.164105	0.532502	7.895208	1.324720	-4.651355	2.054585	-0.185059	0.071533	-0.564209	-46.646616	73.147410	11.993294
58569		-4.711728	0.315379	7.725634	0.997832	-4.820509	2.106377	-0.215088	0.057617	-0.584961	-37.349268	71.897381	21.136749
58570		-4.606104	-0.260784	7.450745	0.732728	-4.883680	2.096400	-0.256836	0.034668	-0.611328	-29.495592	70.214423	28.989457
58571		-5.032372	-0.761704	7.392155	0.607920	-4.896563	2.056845	-0.291748	0.025391	-0.635254	-23.087541	68.217400	35.466936
58572		-5.774643	-1.271259	7.579414	0.616861	-4.918062	2.009110	-0.334473	0.016357	-0.653320	-17.836990	65.970981	40.776833
58573		-6.356924	-1.732904	8.151626	0.730893	-4.934219	1.968014	-0.376709	-0.002930	-0.671387	-13.495573	63.551425	45.109828
58574		-7.842750	-1.993113	8.873840	0.927360	-4.959536	1.973639	-0.436279	-0.020996	-0.694336	-9.759397	60.987638	48.724333
58575		-9.393281	-1.606450	9.412126	1.150674	-5.046210	1.980292	-0.477295	-0.026611	-0.708984	-6.485624	58.284728	51.750953
58576		-10.413609	-0.618339	9.706596	1.288418	-5.142066	1.967970	-0.526611	-0.052002	-0.718262	-3.623447	55.441084	54.281308
58577		-11.022879	0.343772	9.903837	1.300343	-5.177076	1.937471	-0.584961	-0.061523	-0.722412	-1.181639	52.523639	56.375661
58578		-11.574830	1.580737	10.046026	1.194318	-5.128171	1.898437	-0.651123	-0.067871	-0.718018	0.862919	49.580353	58.118612
58579		-12.337971	2.704275	10.286684	0.969062	-4.979788	1.874948	-0.713379	-0.084717	-0.707764	2.522835	46.696658	59.598556
58580		-14.189031	3.170945	10.534576	0.736484	-4.800179	1.877281	-0.761230	-0.082031	-0.707031	3.878309	43.882634	60.905876
58581		-16.715794	3.157541	10.123117	0.571481	-4.686103	2.007454	-0.808105	-0.084717	-0.680908	5.065246	41.116340	62.174687
58582		-18.161214	2.742827	8.748227	0.511766	-4.624982	2.216213	-0.853271	-0.088379	-0.676514	6.196184	38.346936	63.478547
58583		-19.078499	2.923192	7.099340	0.493345	-4.467038	2.426355	-0.904053	-0.077148	-0.654541	7.293391	35.642160	64.828393
58584		-19.612957	3.445178	5.354006	0.356541	-4.185418	2.553268	-0.942627	-0.075684	-0.637207	8.269697	33.061082	66.189321
58585		-19.908676	2.790804	3.243896	0.139609	-3.784755	2.616468	-0.977051	-0.063965	-0.628906	9.069056	30.691674	67.547434
58586		-20.984556	0.564188	1.521969	0.122489	-3.307369	2.719979	-1.012207	-0.056885	-0.614990	9.839558	28.560403	68.956309
58587		-23.235265	-2.396948	-0.072729	0.491452	-3.078933	2.947895	-1.043457	-0.047607	-0.595947	10.823880	26.522323	70.471442
58588		-22.844606	-3.386832	-2.248611	0.933281	-2.935808	3.210126	-1.070801	-0.046387	-0.585693	12.062579	24.504042	72.097504
58589		-21.665264	-3.808616	-4.076175	1.015906	-2.737573	3.252847	-1.098633	-0.037842	-0.574707	13.288093	22.565207	73.703438
58590		-18.388555	-4.009780	-6.501066	0.657967	-2.249935	2.921910	-1.120117	-0.031982	-0.553955	14.193843	20.912215	75.122800
58591		-16.183542	-5.151320	-8.192587	0.030151	-1.453431	2.225310	-1.129150	-0.020020	-0.549316	14.593776	19.789203	76.217369
58592		-15.575521	-7.468439	-9.001230	-0.496539	-0.537457	1.371073	-1.141357	-0.018799	-0.546631	14.553698	19.291823	76.940211
58593		-15.918734	-9.140990	-8.577974	-0.565642	0.253112	0.554902	-1.140381	-0.005127	-0.554688	14.351625	19.353494	77.303003
58594		-13.826594	-3.801831	-7.145513	-0.566739	0.959520	-0.363798	-1.131348	-0.005127	-0.559814	14.004445	19.937179	77.229612
58595		-3.058891	-3.751749	2.791576	-1.155505	2.191421	-1.202427	-1.119385	-0.006104	-0.576904	13.202774	21.320149	76.827849
58596		-6.113688	4.386412	13.502199	-1.287734	2.380304	-1.430000	-1.101563	0.006104	-0.599365	12.263985	22.831220	76.287967
58597		-3.381194	5.249834	15.597827	-1.338965	1.768017	-1.544447	-1.085938	0.007324	-0.599121	11.212006	24.003572	75.566504
58598		1.535568	3.669995	5.067750	-1.286200	2.051974	-1.331691	-1.067871	0.021240	-0.617432	10.232679	25.300738	74.980453
58599		0.457183	1.075508	4.499079	-1.046340	3.054665	-0.644156	-1.040771	0.027100	-0.627197	9.603680	27.088789	74.909292
58600		-4.331541	1.243224	7.750507	-0.824111	3.717751	0.051412	-1.012939	0.033447	-0.646729	9.335740	29.184816	75.337751
58601		-10.541722	-0.300194	11.106205	-0.639304	3.642268	0.207055	-0.986328	0.038330	-0.661133	9.234552	31.225643	75.860770
58602		-11.248743	-6.470515	10.209306	-0.547122	3.243837	-0.299940	-0.973145	0.040283	-0.670410	9.000592	33.087875	76.006210
58603		-12.787474	-7.762127	11.100664	0.057771	2.885470	-0.593461	-0.943115	0.044189	-0.687988	8.982364	34.774378	75.910725
58604		-18.818075	0.745757	14.642299	0.360525	2.409344	-0.743829	-0.918213	0.045898	-0.688477	9.043154	36.204803	75.656828
58605		-31.128840	7.421615	12.144967	-0.296453	0.050259	-1.152722	-0.924072	0.032227	-0.687988	8.398165	36.333821	74.850344
58606		4.705339	4.613777	4.667019	-0.331178	0.003270	-0.728028	-0.921387	0.037598	-0.691162	7.904833	36.395907	74.335493
58607		-13.537510	-1.600878	10.384396	-0.555590	0.392753	-0.568728	-0.918945	0.042969	-0.694824	7.370080	36.662632	73.968587
58608		-5.184255	0.601531	7.168922	-0.311126	-0.072245	-0.328907	-0.923096	0.051270	-0.699707	7.049105	36.646195	73.726660
58609		-7.948001	0.931751	8.430945	-0.293467	-0.113906	-0.180315	-0.914063	0.041504	-0.688232	6.799545	36.594222	73.586863
58610		-6.220286	0.360499	8.228582	-0.245569	-0.209259	-0.135225	-0.920410	0.049805	-0.690674	6.591723	36.485179	73.471272
58611		-6.570964	0.059139	8.126008	-0.192382	-0.229879	-0.081095	-0.919189	0.050293	-0.691162	6.437069	36.359936	73.393122
58612		-6.149488	0.292401	8.131371	-0.123927	-0.236288	-0.040876	-0.917969	0.048096	-0.697266	6.338114	36.229011	73.343106
58613		-5.862347	0.742801	8.065142	-0.098655	-0.232109	-0.005741	-0.929688	0.041992	-0.685547	6.269201	36.097527	73.318766
58614		-5.742476	0.844647	8.143966	-0.086277	-0.200448	-0.007856	-0.928467	0.057861	-0.685059	6.207615	35.984856	73.295335
58615		-5.788513	0.903311	8.139696	-0.088192	-0.166865	-0.009117	-0.929688	0.059326	-0.687988	6.146546	35.890703	73.274017
58616		-5.868310	1.284219	8.106988	-0.111272	-0.162071	-0.029223	-0.920166	0.060547	-0.688965	6.063823	35.801141	73.238837
58617		-5.830384	1.111233	8.218004	-0.142578	-0.149765	-0.058221	-0.936035	0.052246	-0.693359	5.952464	35.719626	73.184692
58618		-5.917631	0.972702	8.086755	-0.150020	-0.138666	-0.070731	-0.934082	0.052002	-0.697754	5.831935	35.645732	73.122588
58619		-5.887143	0.987398	8.076670	-0.156714	-0.148164	-0.082761	-0.930420	0.061768	-0.685791	5.702950	35.566358	73.051876
58620		-5.921431	0.806671	8.112372	-0.163798	-0.153812	-0.088473	-0.934326	0.053711	-0.684326	5.567157	35.484603	72.976839
58621		-5.796048	0.711102	8.110469	-0.146396	-0.153893	-0.095337	-0.935303	0.056152	-0.689453	5.439261	35.402389	72.897531
58622		-5.731315	0.392419	8.196763	-0.117935	-0.133684	-0.069650	-0.931152	0.058350	-0.691162	5.338639	35.330842	72.837570
58623		-5.744013	0.500354	8.222132	-0.067887	-0.099969	-0.038564	-0.927979	0.062744	-0.693848	5.281121	35.276164	72.801930
58624		-5.540093	0.904990	8.239240	-0.052812	-0.063015	-0.034851	-0.939941	0.057129	-0.684570	5.234697	35.242991	72.771094
58625		-5.649728	1.116425	8.153565	-0.070155	-0.027507	-0.050961	-0.933594	0.063965	-0.689941	5.173664	35.230250	72.731558
58626		-5.665626	0.935089	8.104745	-0.090280	-0.020678	-0.078892	-0.938477	0.062256	-0.691650	5.089656	35.223422	72.672729
58627		-5.761118	0.900337	8.128734	-0.113314	-0.006255	-0.096068	-0.938477	0.060547	-0.689209	4.986509	35.224987	72.603037
58628		-5.849676	0.696898	8.101709	-0.119997	-0.016176	-0.102205	-0.945068	0.061035	-0.682861	4.876275	35.221704	72.528235
58629		-5.811615	0.614554	8.092500	-0.115737	-0.015141	-0.110275	-0.939209	0.058105	-0.684326	4.765714	35.218663	72.448088
58630		-5.797882	0.394174	8.135344	-0.102545	-0.017105	-0.097345	-0.937500	0.064209	-0.699463	4.667425	35.214396	72.376652
58631		-5.797858	0.254947	8.141023	-0.077770	-0.015146	-0.079025	-0.938477	0.058105	-0.696533	4.591234	35.209688	72.318369
58632		-5.783154	0.171437	8.154316	-0.042763	-0.006628	-0.049073	-0.936279	0.072021	-0.688965	4.546979	35.209052	72.281265
58633		-5.815276	0.336553	8.157539	-0.015213	0.000386	-0.022708	-0.935547	0.069092	-0.696533	4.529834	35.210587	72.263223
58634		-5.825247	0.390430	8.116943	0.003879	0.005031	-0.003870	-0.936279	0.063232	-0.689697	4.530860	35.214545	72.258344
58635		-5.877417	0.536434	8.091335	0.012006	-0.000673	0.009016	-0.933350	0.066162	-0.693359	4.542064	35.214037	72.262420
58636		-5.866626	0.613442	8.103704	0.014183	-0.012024	0.004032	-0.933105	0.065186	-0.691895	4.551618	35.207901	72.262110
58637		-5.893538	0.768037	8.055520	0.010838	-0.022372	-0.006435	-0.934326	0.059814	-0.689941	4.555229	35.195702	72.254178
58638		-5.875960	0.819172	8.065796	-0.008350	-0.048963	-0.022936	-0.940918	0.067627	-0.697754	4.539837	35.169701	72.232975
58639		-5.934127	0.754708	8.060426	-0.023496	-0.072194	-0.049378	-0.932617	0.063232	-0.690674	4.504934	35.130981	72.192305
58640		-5.880658	0.635376	8.046740	-0.035010	-0.099580	-0.060471	-0.933594	0.060547	-0.689697	4.457674	35.077738	72.142194
58641		-5.694705	0.606218	8.096401	-0.031428	-0.114356	-0.061768	-0.936035	0.063477	-0.682861	4.412083	35.015431	72.090721
58642		-5.667071	0.636310	8.059287	-0.035477	-0.117575	-0.053695	-0.946289	0.055908	-0.684326	4.366902	34.951549	72.044551
58643		-5.699517	0.581783	8.157996	-0.035294	-0.119564	-0.055765	-0.943848	0.061768	-0.695068	4.321541	34.885940	71.997186
58644		-5.612908	0.428089	8.238123	-0.030705	-0.110661	-0.039516	-0.947998	0.062500	-0.682373	4.285136	34.825340	71.961442
58645		-5.585284	0.452455	8.248209	-0.014869	-0.094396	-0.033529	-0.947266	0.065430	-0.696289	4.261231	34.773113	71.931025
58646		-5.647785	0.424354	8.175497	-0.003005	-0.059397	-0.021941	-0.944336	0.055420	-0.685791	4.249272	34.741021	71.910253
58647		-5.402727	0.719628	8.197179	0.004841	-0.050430	-0.015930	-0.943115	0.059326	-0.688965	4.244987	34.713158	71.894397
58648		-5.454727	0.748381	8.106106	-0.008201	-0.017118	-0.026386	-0.937256	0.063721	-0.686768	4.229557	34.705393	71.872735
58649		-5.312459	0.662492	8.016056	-0.018970	-0.007361	-0.038722	-0.941162	0.056396	-0.685791	4.203884	34.703094	71.843267
58650		-5.039328	1.038798	8.022913	-0.032168	0.016201	-0.049861	-0.940918	0.060547	-0.685791	4.166412	34.715318	71.806997
58651		-5.219585	1.162805	8.071778	-0.099541	0.069744	-0.106108	-0.944336	0.060547	-0.685791	4.070055	34.759814	71.734521
58652		-5.214402	1.067401	8.253446	-0.138212	0.096828	-0.150501	-0.945801	0.061768	-0.693359	3.934058	34.822017	71.632080
58653		-5.425617	0.781157	8.380809	-0.170401	0.179388	-0.187113	-0.935791	0.071533	-0.696289	3.767405	34.932031	71.507924
58654		-5.556486	0.564861	8.464887	-0.184514	0.222014	-0.206081	-0.941162	0.068604	-0.691406	3.585179	35.067343	71.371630
58655		-6.079036	-0.175735	8.337526	-0.142889	0.283463	-0.188184	-0.932617	0.072998	-0.697021	3.435241	35.236305	71.249976
58656		-5.597219	0.109932	8.488121	-0.062009	0.332264	-0.140557	-0.940918	0.062500	-0.691406	3.350945	35.431891	71.162805
58657		-5.750923	0.315058	8.529851	-0.026547	0.431028	-0.132581	-0.930176	0.073730	-0.687744	3.292446	35.683086	71.084971
58658		-5.704002	0.108776	8.591178	0.026559	0.536445	-0.116864	-0.927979	0.072021	-0.692871	3.272276	35.994527	71.021744
58659		-5.723484	-0.172485	8.608042	0.092033	0.656432	-0.090088	-0.920898	0.062744	-0.698975	3.303754	36.373222	70.982401
58660		-5.812909	-0.076309	8.754618	0.162139	0.800289	-0.042602	-0.912842	0.060059	-0.694824	3.398556	36.833114	70.982898
58661		-5.788038	0.216680	8.999579	0.244253	0.944985	-0.027589	-0.906738	0.053711	-0.701172	3.552012	37.374765	71.002017
58662		-4.239306	0.558815	10.425593	0.109094	1.063925	0.034463	-0.893066	0.061279	-0.704590	3.659336	37.982573	71.072740
58663		-3.684942	1.905090	10.659781	0.328901	1.714504	-0.069504	-0.878662	0.062012	-0.709473	3.868002	38.965668	71.102058
58664		-5.252448	0.067450	10.127501	0.183437	2.042693	-0.141878	-0.860840	0.064209	-0.717285	3.972148	40.139281	71.097966
58665		-4.625533	1.648239	10.350837	0.300494	2.468811	-0.217969	-0.841064	0.066162	-0.721680	4.123370	41.559363	71.062910
58666		-4.841195	0.732455	10.127667	0.277638	2.930173	-0.271605	-0.820313	0.047363	-0.718994	4.252462	43.245314	71.015939
58667		-4.689867	1.071989	10.308026	0.276665	3.471982	-0.398657	-0.785645	0.045166	-0.721924	4.334423	45.246408	70.903383
58668		-4.887166	1.217467	10.380055	0.142224	4.051500	-0.559087	-0.763428	0.046143	-0.734863	4.262601	47.585160	70.689372
58669		-3.919943	1.611038	10.440042	-0.160824	4.775999	-0.783371	-0.722900	0.047852	-0.737549	3.879089	50.346849	70.300628
58670		-3.838079	1.929220	9.469482	-0.686875	5.785610	-1.027349	-0.657715	0.051758	-0.734863	2.986053	53.690622	69.665032
58671		-4.921446	4.349571	8.984497	-1.202552	6.589046	-1.426277	-0.604736	0.062744	-0.735107	1.310040	57.494218	68.467319
58672		-6.376706	2.544955	7.827236	-1.363599	7.142788	-1.838494	-0.545898	0.072510	-0.730713	-1.261985	61.586789	66.389313
58673		-9.598498	1.827281	9.452921	-0.951879	7.244570	-2.047319	-0.475342	0.084961	-0.718994	-4.602276	65.673634	63.270032
58674		-7.544857	2.170332	7.310870	-0.834143	7.639990	-2.176572	-0.414307	0.098633	-0.709229	-9.421692	69.867908	58.581391
58675		-15.059439	2.828694	8.644048	-0.914464	7.937374	-2.239978	-0.347900	0.115234	-0.683350	-16.973714	74.010603	51.193126
58676		-16.916326	0.495760	7.697488	-0.911023	7.591889	-2.203027	-0.293213	0.123535	-0.662354	-28.780701	77.543385	39.557021
58677		-19.241224	0.617400	6.853581	-0.597610	7.067358	-2.232257	-0.234619	0.126465	-0.631836	-46.786890	79.988788	21.555967
58678		-15.827444	0.928174	5.660126	-0.549479	6.682318	-2.203300	-0.182617	0.149414	-0.597412	-70.619254	80.916764	-2.284095
58679		-18.794430	0.370191	6.551260	-0.403730	6.096427	-2.215918	-0.147217	0.162354	-0.572754	-92.816631	80.147417	-24.547410
58680		-14.637725	0.230583	7.648326	-0.133698	5.345100	-2.084904	-0.104736	0.164063	-0.541992	-107.715847	78.410722	-39.631229
58681		-8.278898	0.460682	8.418279	0.181571	4.902819	-1.997143	-0.081055	0.178467	-0.518799	-117.229977	76.270055	-49.488212
58682		-4.707944	-0.343596	7.980520	0.649421	4.819997	-1.733611	-0.048340	0.177734	-0.481445	-123.907625	74.006644	-56.782812
58683		-2.610635	-1.159614	7.459163	1.274002	4.779180	-1.403393	-0.026611	0.169922	-0.458008	-128.785210	71.731696	-62.651301
58684		-4.141739	-2.672046	5.743094	1.978886	4.880858	-1.015066	-0.001465	0.174561	-0.428955	-132.587400	69.467134	-67.886398
58685		-22.869653	-0.311829	12.674549	2.815023	3.456346	-0.518001	0.016602	0.159424	-0.416260	-134.136691	67.889622	-71.282761
58686		-13.943584	3.447483	13.036227	3.301281	0.833926	0.123205	0.016846	0.145508	-0.414063	-133.198563	67.613636	-72.316266
58687		-12.476899	6.300763	13.283388	2.957673	-0.970794	0.605705	0.009277	0.119385	-0.427002	-131.055968	68.242674	-71.835022
58688		-8.116416	6.202360	11.470897	2.165345	-2.413717	0.921452	-0.011230	0.099121	-0.436279	-127.907484	69.533715	-69.793874
58689		-5.006772	4.915687	9.333730	1.287464	-3.269897	1.103339	-0.037354	0.078125	-0.452881	-123.956798	71.144146	-66.384558
58690		-3.599120	3.973063	8.082272	0.448148	-3.755320	1.161178	-0.070313	0.064941	-0.483643	-119.109417	72.842449	-61.562305
58691		-3.098528	1.895385	7.007514	-0.191809	-4.080774	1.179764	-0.101318	0.051270	-0.519531	-113.062153	74.478465	-55.149219
58692		-2.842741	-0.189072	6.391654	-0.481341	-4.278090	1.241575	-0.132568	0.047607	-0.545898	-105.420342	75.965371	-46.966495
58693		-3.167221	-2.715240	6.092763	-0.362741	-4.383486	1.389971	-0.177246	0.039551	-0.574707	-95.876191	77.215024	-36.945138
58694		-4.276702	-5.309119	5.828824	0.222304	-4.523195	1.621607	-0.228516	0.018555	-0.608154	-83.810016	78.143585	-24.731828
58695		-5.242247	-5.501545	6.088141	1.055849	-4.765227	1.869276	-0.278564	0.014648	-0.636475	-69.082449	78.546329	-10.317236
58696		-5.711761	-3.914082	6.195164	1.658727	-4.990322	2.008221	-0.339111	-0.012939	-0.657959	-53.198232	78.167775	4.921835
58697		-6.231933	-1.900076	6.539386	1.859675	-5.193233	1.947965	-0.403320	-0.034424	-0.666504	-38.911689	76.896567	18.456126
58698		-6.773361	-0.211556	6.770347	1.646851	-5.337260	1.782744	-0.469727	-0.061035	-0.702881	-27.838530	74.890219	28.892481
58699		-7.631237	0.259190	7.062250	1.222431	-5.463529	1.571326	-0.554199	-0.082275	-0.704590	-20.008070	72.388164	36.318597
58700		-8.162960	-0.351563	7.157285	0.872168	-5.589718	1.400393	-0.632568	-0.088135	-0.706299	-14.513537	69.556915	41.595056
58701		-8.728028	-1.466590	7.049355	0.779912	-5.690377	1.343373	-0.720947	-0.091309	-0.713379	-10.454379	66.538132	45.485920
58702		-9.319317	-1.521926	7.096264	0.931398	-5.797547	1.377997	-0.813721	-0.108154	-0.704590	-7.153010	63.366542	48.534273
58703		-9.595337	-0.351767	7.331982	1.068585	-5.876121	1.480869	-0.908691	-0.115479	-0.677490	-4.343915	60.100949	51.024985
58704		-9.939863	0.767709	8.082356	1.063645	-5.839927	1.661846	-1.006592	-0.115723	-0.640625	-1.882806	56.801901	53.191094
58705		-10.969856	1.368807	9.026421	0.956191	-5.741319	1.941826	-1.107178	-0.102295	-0.586670	0.327844	53.527441	55.213416
58706		-12.403509	2.373735	9.761198	0.798978	-5.652404	2.294349	-1.188477	-0.092773	-0.507324	2.369428	50.249003	57.219335
58707		-14.412515	2.873061	10.213495	0.585167	-5.528742	2.678719	-1.270020	-0.063477	-0.432617	4.237476	46.997898	59.258304
58708		-16.886558	2.244897	10.034262	0.412326	-5.386253	3.097076	-1.325928	-0.025635	-0.340088	5.990508	43.756044	61.381949
58709		-19.885728	2.127281	9.384216	0.353603	-5.278547	3.469248	-1.362305	0.016846	-0.240723	7.654633	40.516821	63.556352
58710		-22.619411	2.916121	8.117621	0.194411	-5.175223	3.631716	-1.350098	0.053223	-0.162598	9.082444	37.270993	65.645310
58711		-25.078796	3.771472	5.774464	-0.109740	-5.074458	3.539502	-1.336670	0.082764	-0.101074	10.107993	34.066288	67.507748
58712		-26.952618	4.651594	2.488901	-0.529950	-4.919748	3.233696	-1.318115	0.114746	-0.047852	10.645350	30.951868	69.064942
58713		-27.959090	3.333682	-1.436411	-0.891191	-4.665451	2.853655	-1.299561	0.125488	-0.003174	10.763461	28.021931	70.338047
58714		-26.989117	0.064034	-5.641928	-0.852284	-4.259227	2.579359	-1.280029	0.129150	0.025391	10.778649	25.342390	71.450779
58715		-23.004742	-4.631965	-9.207804	-0.346717	-3.570911	2.498110	-1.270508	0.138184	0.044434	11.038905	23.062911	72.565177
58716		-18.233294	-8.545400	-11.821377	0.432272	-2.554536	2.676338	-1.259521	0.151855	0.066406	11.784583	21.320986	73.874125
58717		-16.170550	-8.171882	-12.207941	0.989641	-1.305357	2.731804	-1.249756	0.170898	0.080322	12.872891	20.256580	75.337031
58718		-16.963112	-6.081274	-11.361324	0.919064	-0.117266	2.377131	-1.236572	0.178711	0.084717	13.880103	19.874170	76.729437
58719		-16.396117	0.101048	-9.617343	0.060291	0.834995	1.484591	-1.233154	0.182129	0.086426	14.258703	20.132035	77.729440
58720		-18.168535	-7.136437	-12.243941	-1.546673	2.423573	0.065821	-1.237305	0.200439	0.083740	13.515162	21.470736	78.123512
58721		-2.092786	-6.583934	2.084212	-1.559718	2.945056	-0.605938	-1.233887	0.202637	0.066650	12.640637	23.193447	78.168826
58722		-9.476386	1.079321	18.542944	-1.322807	2.962926	-0.722481	-1.240479	0.208252	0.064941	11.864437	24.940961	78.118629
58723		-5.592527	3.749339	17.320404	-1.260362	2.101762	-1.156926	-1.240234	0.208008	0.073242	10.946199	26.252975	77.660266
58724		-0.772992	-0.214322	4.955003	-1.036427	2.137013	-1.082003	-1.243164	0.217773	0.063965	10.158094	27.570819	77.226414
58725		-2.616880	-2.250784	5.588510	-0.803835	3.020494	-0.619107	-1.246582	0.215332	0.052979	9.670632	29.337108	77.165898
58726		-8.234598	0.118984	10.600233	-0.569980	3.435177	-0.324252	-1.259521	0.216553	0.053711	9.428811	31.309364	77.329902
58727		-14.381200	-3.730789	12.604173	-0.280075	3.096238	-0.487626	-1.254883	0.216064	0.047363	9.277152	33.105628	77.342752
58728		-14.044530	-2.643114	11.189044	0.164982	2.404858	-0.584513	-1.257568	0.217529	0.036133	9.299670	34.520330	77.210323
58729		-26.535171	6.765742	16.883300	-0.244445	2.101555	-0.794659	-1.275146	0.216064	0.040771	8.978471	35.781891	76.892295
58730		-14.423398	0.342432	6.644293	-0.207178	-0.195353	-0.540139	-1.262695	0.204102	0.031738	8.627523	35.720224	76.492009
58731		-2.441813	-0.432316	8.055357	-0.231577	0.319745	-0.389415	-1.265381	0.208008	0.031006	8.355755	35.934767	76.251027
58732		-9.668809	-0.993632	9.122319	-0.108719	0.051241	-0.224204	-1.266357	0.210205	0.033203	8.204416	35.984115	76.096787
58733		-6.352877	0.986272	7.509449	-0.000884	0.016134	-0.014958	-1.271973	0.210205	0.037354	8.199399	35.994882	76.085750
58734		-6.760044	-0.242881	8.317503	0.086795	-0.019714	0.089559	-1.272461	0.213623	0.032959	8.284800	35.978291	76.144025
58735		-6.249642	1.057068	7.986865	0.147520	-0.045817	0.135418	-1.271484	0.209961	0.040283	8.422941	35.941445	76.231971
58736		-6.186366	1.582954	7.984139	0.147859	-0.069126	0.143996	-1.267334	0.203857	0.037354	8.562418	35.892086	76.322980
58737		-5.932053	1.658804	7.802224	0.119024	-0.102681	0.114637	-1.273438	0.211670	0.038086	8.671880	35.824484	76.390055
58738		-5.811362	1.546331	7.939883	0.089976	-0.118311	0.092694	-1.277588	0.208984	0.041992	8.753829	35.751457	76.439629
58739		-5.649966	1.523577	7.968121	0.055377	-0.111157	0.048228	-1.271240	0.207520	0.039063	8.798915	35.684711	76.459125
58740		-5.770334	1.343320	8.119424	0.018596	-0.088235	0.009023	-1.275391	0.214844	0.037354	8.807682	35.635979	76.453434
58741		-5.928048	1.466259	8.162551	-0.003412	-0.079780	-0.009591	-1.273926	0.214111	0.038086	8.797539	35.592061	76.435983
58742		-6.125217	1.515343	8.146226	-0.013132	-0.062786	-0.013972	-1.278809	0.217041	0.045654	8.780442	35.559745	76.417053
58743		-6.023137	1.163841	8.081380	0.002243	-0.085714	0.003997	-1.274658	0.217285	0.041504	8.778706	35.511273	76.408458
58744		-5.777683	1.222254	8.071778	0.001143	-0.068269	0.001240	-1.277344	0.216797	0.039795	8.775637	35.474534	76.399556
58745		-5.899864	1.257245	8.054062	-0.010401	-0.055054	-0.013501	-1.276855	0.212891	0.040771	8.761528	35.444951	76.382103
58746		-5.780765	1.324233	8.018492	-0.024654	-0.049044	-0.036748	-1.272217	0.209229	0.031982	8.729587	35.422404	76.348886
58747		-5.687756	1.582830	7.983715	-0.064918	-0.042115	-0.066682	-1.282715	0.210205	0.040771	8.663666	35.404739	76.295906
58748		-5.710315	1.570290	7.962371	-0.118313	-0.030181	-0.119904	-1.276367	0.218994	0.039307	8.545818	35.399937	76.206978
58749		-5.761605	1.354634	8.086975	-0.157450	-0.024138	-0.151783	-1.272705	0.209961	0.041992	8.393751	35.399470	76.096790
58750		-5.803797	1.277554	8.082763	-0.175953	-0.020986	-0.168607	-1.278076	0.213379	0.046875	8.223843	35.403532	75.974977
58751		-5.902228	1.068944	8.060022	-0.185874	-0.017918	-0.175687	-1.271484	0.213867	0.051758	8.046199	35.408006	75.848769
58752		-5.868744	0.968674	8.102066	-0.178284	-0.018748	-0.171838	-1.283447	0.211426	0.042725	7.873739	35.412993	75.724891
58753		-5.957940	0.894572	8.023142	-0.158505	-0.025205	-0.152916	-1.267578	0.211182	0.048584	7.720529	35.410954	75.613808
58754		-5.887579	0.911427	8.007386	-0.137385	-0.034370	-0.140435	-1.277344	0.206299	0.046143	7.583298	35.404139	75.510315
58755		-5.742298	0.551629	8.109819	-0.117689	-0.025650	-0.106360	-1.271729	0.211670	0.045654	7.472279	35.397928	75.431662
58756		-5.733996	0.678067	8.008420	-0.089906	-0.006252	-0.092295	-1.278320	0.212891	0.044922	7.383164	35.403196	75.364302
58757		-5.679280	0.983315	7.932512	-0.092946	0.007768	-0.109201	-1.272217	0.205078	0.047852	7.286912	35.415967	75.286686
58758		-5.701976	1.118595	7.905778	-0.117780	0.008859	-0.133815	-1.268799	0.210938	0.051270	7.165742	35.432623	75.191649
58759		-5.672863	1.058622	7.876269	-0.152071	0.006718	-0.168119	-1.272705	0.204590	0.046143	7.011628	35.448691	75.072727
58760		-5.665565	1.133302	7.892720	-0.199477	0.005854	-0.203390	-1.276123	0.200439	0.043945	6.815194	35.468012	74.928714
58761		-5.771650	1.144184	7.851487	-0.238459	-0.006241	-0.239851	-1.272461	0.204590	0.046875	6.581716	35.480840	74.758424
58762		-5.911381	1.018659	7.988333	-0.254771	-0.019913	-0.247445	-1.275635	0.198486	0.051514	6.334372	35.487399	74.581363
58763		-5.980005	0.949860	7.986771	-0.234922	-0.039917	-0.235699	-1.281494	0.198975	0.044678	6.103010	35.479626	74.411265
58764		-5.880310	0.609394	7.991970	-0.204279	-0.060591	-0.204718	-1.275635	0.193848	0.042236	5.900238	35.459311	74.261097
58765		-5.827378	0.725705	8.094206	-0.175959	-0.065591	-0.168465	-1.272217	0.197754	0.045166	5.729059	35.432024	74.136365
58766		-5.851058	0.714663	8.150809	-0.158208	-0.071384	-0.159838	-1.282471	0.192383	0.042480	5.570685	35.402279	74.017100
58767		-5.770490	0.535532	8.129853	-0.132164	-0.073444	-0.135475	-1.285645	0.200684	0.044922	5.437924	35.368150	73.915193
58768		-5.709500	0.482495	8.103720	-0.114622	-0.063708	-0.117670	-1.275391	0.205078	0.043457	5.322121	35.340059	73.826187
58769		-5.648976	0.432869	8.076849	-0.087089	-0.057492	-0.086878	-1.284912	0.199707	0.040771	5.235656	35.312144	73.759534
58770		-5.488782	0.683448	8.024694	-0.073219	-0.042341	-0.072502	-1.277832	0.193848	0.048340	5.162736	35.293663	73.703618
58771		-5.138601	0.957923	8.024279	-0.094242	0.001954	-0.077294	-1.283691	0.191895	0.063477	5.078294	35.299031	73.647509
58772		-4.738020	1.213862	7.870539	-0.151384	0.077692	-0.116880	-1.282959	0.198486	0.046875	4.946925	35.351099	73.567979
58773		-4.990134	1.415887	8.079545	-0.225042	0.155680	-0.160794	-1.281494	0.194580	0.041748	4.758816	35.448063	73.462428
58774		-5.520193	0.603317	8.160730	-0.263079	0.172115	-0.212204	-1.279053	0.195801	0.051758	4.527276	35.557983	73.320867
58775		-5.859390	0.262244	8.295377	-0.238167	0.184787	-0.208328	-1.286133	0.193848	0.049316	4.312103	35.673020	73.182311
58776		-6.172261	0.222400	8.331827	-0.177442	0.183243	-0.180427	-1.275146	0.190674	0.045898	4.141739	35.787099	73.062304
58777		-5.731906	0.525164	8.505430	-0.134073	0.207959	-0.170964	-1.283447	0.187500	0.051270	4.001115	35.913172	72.949987
58778		-5.895435	0.066250	8.411119	-0.095013	0.267005	-0.147965	-1.277344	0.190918	0.039063	3.892740	36.073358	72.855894
58779		-6.433914	-0.523422	8.282372	0.006382	0.339401	-0.078109	-1.278320	0.194580	0.041016	3.874045	36.270666	72.814678
58780		-5.750907	-0.290201	8.557462	0.126255	0.434271	-0.008952	-1.287354	0.201904	0.046387	3.954856	36.520990	72.826771
58781		-5.834373	-0.610439	8.541430	0.233259	0.582391	0.073191	-1.275635	0.186523	0.038574	4.137851	36.851151	72.906064
58782		-6.010537	-0.490767	8.592037	0.338521	0.721529	0.158124	-1.277832	0.185791	0.028564	4.422881	37.258347	73.055172
58783		-6.295040	0.478719	8.626664	0.374408	0.825748	0.211455	-1.281982	0.194092	0.024170	4.759687	37.720534	73.252848
58784		-5.860014	0.068266	9.183300	0.416438	0.886015	0.213236	-1.284668	0.199219	0.030762	5.126851	38.217466	73.459884
58785		-4.198266	-0.381074	10.368775	0.883576	1.126884	0.182740	-1.270996	0.188477	0.014648	5.765475	38.850581	73.669186
58786		-3.249236	1.645339	10.412921	0.589760	1.788307	0.141682	-1.271484	0.197266	0.010254	6.256826	39.862595	73.909346
58787		-5.210988	0.531855	10.029001	0.741814	2.216046	0.138785	-1.266602	0.194336	-0.002686	6.873718	41.115224	74.201754
58788		-4.084417	1.588289	10.160816	0.773321	2.702996	0.065685	-1.262939	0.185547	-0.013916	7.523379	42.648229	74.509355
58789		-4.345556	2.244447	10.232120	0.641245	3.258208	-0.076238	-1.256836	0.178223	-0.024902	8.091241	44.504060	74.797207
58790		-3.873842	1.822575	10.195544	0.505350	3.921041	-0.220720	-1.240723	0.185303	-0.038086	8.584775	46.746108	75.080681
58791		-2.919597	0.620179	10.846664	0.352929	4.757776	-0.314300	-1.229980	0.176025	-0.059082	9.054655	49.467915	75.437452
58792		-3.119644	3.632728	10.296852	-0.002767	5.891322	-0.451488	-1.210205	0.176270	-0.088135	9.406723	52.841542	75.889572
58793		-4.389756	5.813869	8.717112	-0.392320	6.847095	-0.963274	-1.206055	0.166992	-0.106445	9.314036	56.802600	76.048782
58794		-5.803581	3.378826	9.830833	-0.329048	7.556249	-1.420113	-1.173340	0.161865	-0.142822	8.928257	61.205990	75.816985
58795		-8.294607	2.064575	10.029777	-0.440926	8.354973	-1.634078	-1.146240	0.146240	-0.174316	8.247955	66.079617	75.338097
58796		-11.334891	2.910568	10.616603	-0.226400	8.589597	-1.784421	-1.119629	0.149414	-0.194092	7.219082	71.093167	74.371264
58797		-13.647944	6.689251	8.126241	-0.718818	8.694713	-2.104721	-1.065918	0.133057	-0.221924	4.438960	76.173044	71.903656
58798		-19.331082	3.315962	8.267852	-0.892333	7.963518	-2.316868	-1.024170	0.126221	-0.235107	-2.143067	80.766401	65.711200
58799		-18.427723	3.655081	5.469840	-0.796270	7.863428	-2.424684	-0.984375	0.125000	-0.248047	-20.697868	84.959992	47.483954
58800		-19.318840	3.101142	6.040639	-0.787505	6.963131	-2.677899	-0.930664	0.119385	-0.252197	-77.964122	86.590747	-9.458866
58801		-19.011548	2.570278	6.712882	-0.658153	6.258807	-2.700536	-0.880371	0.101074	-0.255371	-120.704746	84.327001	-51.938208
58802		-14.639238	2.757039	8.192088	-0.528136	5.566694	-2.673060	-0.827637	0.096924	-0.236328	-133.693813	81.160067	-64.723768
58803		-7.992368	2.700326	9.456630	-0.246847	5.231149	-2.520733	-0.781494	0.095947	-0.230469	-139.343379	77.986361	-70.324060
58804		-4.648342	0.827604	8.586262	0.357071	5.099300	-2.254901	-0.733643	0.085449	-0.220215	-142.595194	74.904337	-73.880913
58805		-0.687258	-1.120649	6.225093	1.131325	4.991026	-2.023961	-0.686523	0.079590	-0.200195	-144.512012	71.913126	-76.558636
58806		-5.096796	-3.750331	1.848758	2.027221	5.374731	-2.015919	-0.637207	0.066895	-0.178955	-145.623315	68.729995	-78.974828
58807		-16.828533	-1.419316	10.552720	3.064443	4.259178	-1.799393	-0.609375	0.065674	-0.149414	-145.155542	66.134715	-80.371766
58808		-12.769516	1.482431	9.864312	4.068060	2.480994	-1.178841	-0.568359	0.053955	-0.130371	-143.428244	64.590722	-81.039343
58809		-13.497843	4.170179	10.419241	4.175772	0.602745	-0.602471	-0.540283	0.042480	-0.104492	-140.904321	64.105056	-80.895804
58810		-11.082459	5.742550	10.366015	3.958660	-1.414354	0.156950	-0.520508	0.037842	-0.083984	-137.663147	64.783746	-79.821229
58811		-8.525094	7.066056	9.883522	3.312868	-2.971705	0.791791	-0.500732	0.033203	-0.075928	-133.862364	66.318931	-77.733729
58812		-5.684627	7.742271	8.407143	2.231508	-3.986911	1.206255	-0.478516	0.028809	-0.071289	-129.588000	68.362919	-74.492382
58813		-4.169910	6.249708	7.039870	1.054214	-4.532780	1.417500	-0.461914	0.029297	-0.075928	-124.761867	70.579454	-69.987324
58814		-3.322128	3.267481	5.935805	0.214369	-4.808827	1.595245	-0.448242	0.015625	-0.077393	-119.001000	72.821214	-64.055126
58815		-3.338582	1.237332	5.515834	-0.169814	-4.934275	1.823329	-0.433350	0.014893	-0.094971	-111.791054	74.980367	-56.453852
58816		-4.524899	0.067691	5.631031	-0.298444	-5.056938	2.067470	-0.433838	0.010254	-0.109131	-102.205053	76.973948	-46.404938
58817		-5.575591	-1.270888	5.267460	-0.213246	-5.311955	2.336620	-0.415527	0.005127	-0.122070	-88.886924	78.610381	-32.659985
58818		-5.796603	-2.314310	4.897324	0.058978	-5.594992	2.570282	-0.436279	0.008057	-0.152832	-71.055485	79.515128	-14.544095
58819		-6.020977	-3.535613	4.707015	0.588889	-5.732979	2.732133	-0.444092	-0.008301	-0.164307	-51.201824	79.295162	5.301811
58820		-6.324391	-3.931826	4.576597	1.234766	-5.767048	2.874664	-0.453857	-0.021240	-0.178955	-33.285541	77.934957	22.844100
58821		-7.493798	-3.349910	4.934528	1.840509	-5.753137	3.054590	-0.457275	-0.040283	-0.195068	-19.254960	75.738524	36.162350
58822		-9.360950	-1.814446	5.451987	2.252121	-5.841702	3.195197	-0.483643	-0.045898	-0.214111	-8.713560	72.913646	45.760519
58823		-10.239868	0.905890	5.953919	2.302828	-6.055392	3.223153	-0.508545	-0.065430	-0.237061	-1.093300	69.609399	52.407866
58824		-10.124461	3.844704	6.526952	1.786454	-6.161909	3.146119	-0.535889	-0.071533	-0.246094	4.133368	66.018529	56.938860
58825		-10.128604	4.793777	6.947222	0.843159	-6.083679	3.027552	-0.565918	-0.074463	-0.256592	7.457739	62.374528	60.090663
58826		-10.588533	3.395639	7.217604	0.039080	-5.895077	2.954286	-0.596680	-0.084717	-0.265137	9.569588	58.771056	62.482729
58827		-11.774266	1.423330	7.810582	-0.277380	-5.659495	3.051649	-0.627930	-0.081299	-0.277832	11.161839	55.266662	64.566990
58828		-13.392955	0.836024	8.691044	-0.252993	-5.470622	3.333602	-0.664063	-0.076172	-0.281006	12.675369	51.792814	66.622427
58829		-14.619678	1.085937	9.644380	-0.219378	-5.321334	3.713492	-0.696289	-0.075684	-0.284912	14.176504	48.333260	68.740559
58830		-15.690359	-0.179803	10.309775	-0.207429	-5.066387	4.106114	-0.725098	-0.066162	-0.283203	15.676254	44.909871	70.960500
58831		-18.294455	-1.418748	10.740437	0.068128	-4.741689	4.452878	-0.749756	-0.060303	-0.277588	17.292240	41.580902	73.258166
58832		-22.305353	1.505633	10.863985	0.259389	-4.519552	4.538853	-0.764160	-0.047607	-0.269775	18.841014	38.300651	75.432832
58833		-26.553434	7.524844	9.368680	-0.369037	-4.438863	4.071212	-0.786133	-0.039307	-0.257568	19.647867	35.131104	77.132174
58834		-30.181990	11.490338	5.822085	-1.828373	-4.583663	2.851812	-0.810547	-0.023926	-0.257080	19.048045	32.101811	77.936039
58835		-30.737809	7.467124	0.640560	-3.054837	-4.865073	1.298951	-0.820557	-0.016602	-0.263672	17.203560	29.221918	77.748249
58836		-29.050486	-1.478915	-5.169680	-2.935519	-4.998972	0.099728	-0.834717	-0.011230	-0.262451	15.131737	26.447645	76.906719
58837		-22.889787	-13.763847	-11.813844	-0.859447	-4.721891	-0.483766	-0.839600	-0.009521	-0.257324	14.192404	23.900978	75.851958
58838		-17.058553	-18.034334	-15.350850	2.791039	-3.853367	-0.417701	-0.852783	-0.020996	-0.245605	15.458286	21.823675	74.986040
58839		-13.587954	-11.504953	-17.040451	5.392544	-2.539295	-0.046745	-0.860840	-0.052246	-0.227051	18.375951	20.440332	74.502948
58840		-12.770836	5.132530	-15.595569	4.322300	-0.646562	-0.096587	-0.857666	-0.063965	-0.225586	20.788560	20.108310	74.313042
58841		-14.109463	15.039504	-11.910948	0.418723	1.152676	-1.028847	-0.843750	-0.070313	-0.237793	20.911616	20.936079	73.974077
58842		-18.073241	1.379196	-12.596400	-3.777333	2.607491	-1.917816	-0.829102	-0.061768	-0.245117	18.537859	22.713500	73.401844
58843		-7.178817	-4.412351	3.280272	-3.867007	2.870608	-1.785482	-0.808838	-0.049072	-0.266846	16.110035	24.588815	72.868584
58844		-10.127827	8.036920	16.090369	-3.512206	2.442803	-1.126659	-0.796631	-0.025391	-0.278076	13.977226	26.109775	72.579661
58845		-3.039787	5.423886	15.851383	-3.728276	2.013519	-1.043330	-0.784424	-0.012695	-0.288330	11.677488	27.367826	72.211896
58846		0.425783	-7.290643	6.857088	-2.808458	2.324779	-0.394954	-0.769531	0.001709	-0.294922	10.087035	28.720080	72.244072
58847		-1.472371	-10.714342	6.909826	-1.782452	2.970083	0.162787	-0.755371	0.011963	-0.300293	9.281104	30.382298	72.676787
58848		-6.987073	-16.071020	9.041818	-1.103913	3.442092	-0.515348	-0.734375	0.017334	-0.307373	8.659889	32.377594	72.693730
58849		-15.435636	-18.360214	12.255504	-0.034426	3.365178	-1.087674	-0.721680	0.023682	-0.300537	8.423612	34.377286	72.296583
58850		-34.523985	5.135167	21.412151	0.252149	2.470373	-1.384321	-0.702637	0.022949	-0.309326	8.158100	35.894111	71.583285
58851		-15.850603	12.821812	5.090298	-0.160739	-1.225177	-1.244499	-0.713867	0.025391	-0.308350	7.492634	35.296121	70.594844
58852		1.658290	1.764096	7.238377	-1.030010	0.842040	-0.917463	-0.705566	0.032715	-0.311279	6.571288	35.842539	70.023512
58853		-14.082598	-6.587014	9.528782	-0.534320	0.037524	-0.520385	-0.701416	0.025391	-0.308350	6.053259	35.897024	69.658528
58854		-6.073148	2.498390	8.073434	-0.397801	-0.098457	-0.250770	-0.708740	0.032227	-0.307861	5.716867	35.858870	69.472108
58855		-6.299049	-0.963244	8.424829	-0.297488	-0.212796	-0.130319	-0.704102	0.036133	-0.312744	5.484928	35.745128	69.363616
58856		-5.858912	-0.410866	8.205885	-0.218562	-0.153817	-0.040572	-0.704590	0.026611	-0.303223	5.336173	35.662810	69.321987
58857		-6.154860	0.625409	7.903518	-0.163262	-0.153551	0.003707	-0.709473	0.034424	-0.311523	5.239035	35.575312	69.312421
58858		-5.920309	1.611527	7.988092	-0.181347	-0.175756	-0.039388	-0.705078	0.039551	-0.302490	5.111583	35.480303	69.270700
58859		-5.866235	1.404225	8.150604	-0.237481	-0.198478	-0.090043	-0.704102	0.038086	-0.309326	4.932581	35.371830	69.193224
58860		-5.915983	0.665657	8.271305	-0.276735	-0.188272	-0.131683	-0.708252	0.037109	-0.314697	4.713430	35.273921	69.087092
58861		-6.031661	0.655285	8.288554	-0.256329	-0.176721	-0.139541	-0.714111	0.036133	-0.306885	4.505259	35.179700	68.977386
58862		-6.094453	0.741625	8.244000	-0.253205	-0.176024	-0.160703	-0.709229	0.038574	-0.307129	4.289241	35.089430	68.852801
58863		-6.092390	0.337158	8.205634	-0.221107	-0.190243	-0.153374	-0.708008	0.046387	-0.313232	4.096234	34.987413	68.733841
58864		-5.817864	0.057840	8.299660	-0.176268	-0.182312	-0.130077	-0.715088	0.041504	-0.310791	3.937276	34.891675	68.631348
58865		-5.657869	-0.160275	8.351166	-0.123544	-0.129107	-0.087238	-0.712891	0.040527	-0.313477	3.828997	34.821515	68.562289
58866		-5.545830	0.129058	8.371769	-0.072646	-0.060373	-0.051339	-0.712646	0.039307	-0.311279	3.764369	34.792171	68.520827
58867		-5.508423	0.176257	8.403767	-0.048119	0.046437	-0.042613	-0.705078	0.046387	-0.312256	3.721799	34.820568	68.491088
58868		-5.493404	-0.452943	8.382398	0.007475	0.158329	-0.008347	-0.711426	0.038818	-0.305908	3.725786	34.914591	68.489485
58869		-5.783024	-0.136046	8.224836	0.092544	0.233197	0.058903	-0.710693	0.046875	-0.313477	3.809237	35.045951	68.539115
58870		-5.733457	0.326575	8.199027	0.125970	0.245724	0.090905	-0.702637	0.041992	-0.316650	3.923414	35.186086	68.611198
58871		-5.847925	0.423813	8.172284	0.145055	0.259250	0.100631	-0.714111	0.050049	-0.313477	4.055201	35.330516	68.692100
58872		-5.776354	0.378403	8.047707	0.160382	0.258222	0.109761	-0.699707	0.038574	-0.310303	4.197987	35.476747	68.779037
58873		-5.656906	0.222870	8.079903	0.181121	0.276001	0.123735	-0.707520	0.034668	-0.311279	4.361418	35.629423	68.878240
58874		-5.848322	0.102714	8.093718	0.233337	0.322084	0.159338	-0.707520	0.044678	-0.310791	4.569582	35.809495	69.004924
58875		-5.899377	0.463325	8.019155	0.268403	0.337376	0.186485	-0.700195	0.040283	-0.308350	4.812582	35.993695	69.153700
58876		-5.906870	0.863423	7.922466	0.268356	0.327820	0.182835	-0.701416	0.033203	-0.307617	5.052800	36.175046	69.299668
58877		-5.973952	1.088630	7.876790	0.238263	0.306261	0.160298	-0.696533	0.031982	-0.302734	5.268648	36.341846	69.430467
58878		-5.947516	1.122110	7.882974	0.203732	0.267950	0.119048	-0.702881	0.034424	-0.314453	5.444718	36.491589	69.529523
58879		-5.862347	1.328014	7.987534	0.161125	0.243992	0.076865	-0.695557	0.037598	-0.316406	5.580155	36.626819	69.598597
58880		-5.943544	1.029750	8.153726	0.123768	0.260474	0.040777	-0.689941	0.039551	-0.310791	5.678049	36.776312	69.642739
58881		-5.980753	0.574836	8.006460	0.127846	0.283284	0.030700	-0.699707	0.029785	-0.302246	5.777201	36.936372	69.682631
58882		-6.079781	0.372677	7.961391	0.146934	0.303343	0.059062	-0.689941	0.032715	-0.304443	5.898831	37.109089	69.743805
58883		-6.082854	0.524544	7.908574	0.174554	0.324271	0.089261	-0.685791	0.029785	-0.313965	6.052756	37.288872	69.829710
58884		-6.121265	0.807060	7.991286	0.181544	0.327628	0.101567	-0.695068	0.034912	-0.308838	6.214952	37.472572	69.924583
58885		-6.180043	0.875222	7.924910	0.174281	0.333079	0.106693	-0.696777	0.037598	-0.310059	6.378245	37.655890	70.025399
58886		-6.220691	0.969122	7.885996	0.166828	0.331147	0.107398	-0.688965	0.032227	-0.305176	6.536323	37.840787	70.126510
58887		-6.185305	0.916928	7.956302	0.150601	0.330623	0.104491	-0.687744	0.028809	-0.305176	6.686549	38.022411	70.227309
58888		-6.236352	0.832676	7.897671	0.147690	0.336788	0.105568	-0.688965	0.030762	-0.305908	6.834744	38.210214	70.329313
58889		-6.103086	1.128536	7.960230	0.134812	0.348080	0.091556	-0.681396	0.034424	-0.305420	6.972632	38.402251	70.423965
58890		-6.017039	0.581903	8.054112	0.166559	0.380885	0.070269	-0.679932	0.025635	-0.304199	7.119779	38.617191	70.506009
58891		-5.667257	0.400125	8.171496	0.310407	0.487582	0.030939	-0.675293	0.024170	-0.315430	7.340521	38.892465	70.571372
58892		-6.201277	0.915903	7.940430	0.418394	0.573935	-0.006083	-0.678223	0.032959	-0.303711	7.610655	39.222204	70.618698
58893		-5.994467	1.155654	7.908743	0.484028	0.632444	-0.082709	-0.681152	0.024414	-0.302734	7.890075	39.588027	70.618882
58894		-5.759367	2.571523	7.982356	0.456195	0.681582	-0.156747	-0.672607	0.023682	-0.307129	8.121126	39.990452	70.570546
58895		-5.592718	1.142344	7.797799	0.189727	0.823533	-0.223886	-0.675293	0.020264	-0.303223	8.179474	40.476113	70.489523
58896		-6.459171	1.456691	7.487245	0.269744	0.877351	-0.255375	-0.670410	0.025391	-0.307861	8.269730	40.997648	70.389927
58897		-6.323885	0.595369	7.569260	0.268766	0.923174	-0.255959	-0.660400	0.028809	-0.305908	8.363942	41.542634	70.296305
58898		-6.444521	0.789470	7.541807	0.296851	0.981909	-0.217524	-0.654297	0.021973	-0.304688	8.495877	42.120481	70.238050
58899		-6.375898	0.796541	7.710954	0.293562	1.060385	-0.189100	-0.654541	0.015625	-0.305176	8.649291	42.737804	70.213208
58900		-6.484845	0.567102	7.838319	0.266379	1.176723	-0.131956	-0.645752	0.018799	-0.301514	8.826019	43.418689	70.247486
58901		-6.411855	0.462355	7.992338	0.265136	1.299640	-0.074109	-0.632324	0.014160	-0.299316	9.048908	44.161300	70.347193
58902		-6.272559	0.613001	8.046310	0.294151	1.473708	-0.027882	-0.633057	0.014648	-0.300537	9.332762	45.000306	70.510544
58903		-5.811178	1.820278	8.466411	0.284851	1.708959	-0.062052	-0.626709	0.003906	-0.303223	9.624505	45.972387	70.688016
58904		-5.671305	2.304747	8.709672	0.228278	2.059859	-0.173922	-0.619141	0.015381	-0.302002	9.860247	47.155156	70.831572
58905		-5.754101	2.181275	8.990608	0.154314	2.476755	-0.306904	-0.597168	0.004639	-0.297119	10.028147	48.583725	70.936073
58906		-5.424627	1.888722	9.072018	0.083789	2.973373	-0.426223	-0.586182	0.000977	-0.301025	10.141376	50.306116	71.020791
58907		-5.397061	1.526213	9.234332	0.027617	3.571157	-0.515646	-0.573730	0.001953	-0.290771	10.246166	52.372682	71.132176
58908		-4.439889	0.636947	9.242445	-0.027234	4.290314	-0.597037	-0.549316	0.005371	-0.296143	10.367772	54.854207	71.301389
58909		-4.751128	1.432799	9.412654	-0.083538	5.272403	-0.667589	-0.527344	0.007568	-0.277832	10.579457	57.894745	71.610626
58910		-5.116498	4.624294	9.187581	-0.208513	6.168589	-0.979264	-0.491943	0.013428	-0.275146	10.624767	61.473107	71.800216
58911		-6.154493	5.349106	9.018254	-0.322546	7.066115	-1.483257	-0.461670	0.012207	-0.257324	10.231266	65.609112	71.565139
58912		-8.528912	3.989378	8.724617	-0.390340	7.916123	-1.950488	-0.432617	0.022705	-0.234863	9.169275	70.268534	70.659818
58913		-11.172014	5.002856	8.847923	-0.345805	8.377150	-2.376427	-0.404297	0.031982	-0.225586	6.767196	75.212053	68.352185
58914		-12.657009	4.319029	6.195699	-0.564875	8.849183	-2.827772	-0.368652	0.042725	-0.205811	0.419965	80.380366	62.194179
58915		-20.690835	0.863903	6.149011	-0.155877	8.499177	-2.937035	-0.319092	0.040039	-0.162842	-18.762720	84.983796	42.960237
58916		-20.679922	-0.090011	4.305531	0.645275	7.860555	-2.644679	-0.297852	0.050781	-0.150391	-85.110786	86.877895	-23.885572
58917		-21.222310	1.058069	4.062631	1.203071	6.950243	-2.495285	-0.270996	0.058105	-0.114746	-128.759141	84.145834	-68.337237
58918		-22.920690	2.836397	5.950467	1.541834	6.075384	-2.317797	-0.245605	0.058350	-0.088867	-139.703152	80.748122	-80.264822
58919		-20.351263	2.655207	8.410226	1.626196	5.020510	-2.323896	-0.236328	0.056641	-0.061768	-142.766447	77.668421	-84.332510
58920		-14.692657	2.046489	10.058866	1.898081	3.863467	-2.349578	-0.212158	0.057129	-0.031006	-142.769638	75.093579	-85.457256
58921		-6.164171	2.427912	10.967903	2.206618	3.438596	-2.311807	-0.197998	0.062012	-0.019043	-142.027914	72.723271	-86.003267
58922		-0.719909	3.368572	9.496784	2.239517	3.465503	-2.317753	-0.190674	0.057617	0.008057	-141.301448	70.346071	-86.593277
58923		-6.667392	1.817918	3.049973	2.128647	4.165743	-2.239260	-0.170410	0.071045	0.036621	-141.353141	67.679558	-87.956907
58924		-22.379798	5.498858	13.647597	2.145835	2.408954	-1.760798	-0.160645	0.078613	0.046143	-140.322379	65.977377	-88.176521
58925		-12.356121	6.586515	11.788007	2.090620	0.239234	-0.894982	-0.143799	0.073975	0.057861	-138.453391	65.538251	-87.442644
58926		-12.176282	8.934636	12.340200	1.345594	-1.382967	-0.230084	-0.137939	0.076416	0.061035	-136.261593	66.039633	-85.888793
58927		-7.677377	9.114392	10.338033	0.249977	-2.648156	0.206156	-0.123779	0.068604	0.042969	-133.827236	67.195689	-83.395023
58928		-4.687524	6.381182	8.206208	-0.762681	-3.375440	0.434623	-0.125244	0.069092	0.025146	-131.143301	68.696058	-80.032531
58929		-2.890557	3.330215	6.666074	-1.309033	-3.796780	0.668730	-0.106445	0.060059	0.012207	-128.049809	70.377388	-75.932807
58930		-2.588155	1.526927	5.798573	-1.458257	-4.099255	0.959378	-0.096436	0.060303	-0.012451	-124.214033	72.218305	-71.006849
58931		-3.017115	0.407342	5.327092	-1.435157	-4.392662	1.242348	-0.094727	0.053711	-0.039795	-119.180697	74.147401	-64.892877
58932		-3.613777	-1.169115	4.983933	-1.197238	-4.723367	1.486697	-0.093994	0.030029	-0.061279	-112.017095	76.098917	-56.778312
58933		-3.671023	-2.546305	4.702138	-0.732973	-4.995896	1.676295	-0.096436	0.032715	-0.098633	-101.780865	77.856045	-45.845713
58934		-3.956628	-3.307813	4.671900	-0.155534	-5.142508	1.816658	-0.090332	0.008301	-0.131592	-87.749168	79.152920	-31.445328
58935		-4.751980	-3.471692	4.915431	0.378455	-5.231955	1.891372	-0.098877	-0.007080	-0.169434	-70.637892	79.659204	-14.264494
58936		-6.144266	-2.857812	5.349408	0.782349	-5.364866	1.915854	-0.116699	-0.030029	-0.209229	-52.780604	79.159067	3.435521
58937		-7.764276	-1.533681	5.833160	0.993336	-5.618031	1.879762	-0.132568	-0.051514	-0.249756	-37.366844	77.634143	18.582774
58938		-8.611933	0.110950	6.317864	0.894431	-5.883231	1.790320	-0.145264	-0.060547	-0.283691	-25.827819	75.278026	29.914335
58939		-8.999506	1.090684	6.376616	0.552459	-6.083056	1.621299	-0.179199	-0.083496	-0.316650	-18.044553	72.385033	37.683002
58940		-9.513898	0.633717	6.132510	0.205921	-6.198739	1.439206	-0.215088	-0.087646	-0.361328	-12.902343	69.164656	42.995190
58941		-9.794856	-0.192721	5.860658	0.100519	-6.260382	1.351216	-0.261230	-0.102295	-0.393555	-9.344465	65.792499	46.780458
58942		-10.346047	-0.302232	6.156503	0.201831	-6.265308	1.388184	-0.308594	-0.114014	-0.422607	-6.571180	62.331004	49.727541
58943		-10.823484	0.193400	6.697523	0.363719	-6.206619	1.515884	-0.354004	-0.122070	-0.441650	-4.234205	58.871693	52.167192
58944		-12.009282	0.490700	7.589317	0.547042	-6.061500	1.713040	-0.407227	-0.138672	-0.461914	-2.094357	55.441759	54.332646
58945		-13.523408	1.409887	8.256622	0.699412	-5.948228	1.949007	-0.457275	-0.138916	-0.463379	-0.082495	52.055156	56.326948
58946		-15.104817	3.046552	9.042718	0.718715	-5.814254	2.200712	-0.506592	-0.155029	-0.466797	1.800096	48.688913	58.227682
58947		-17.481744	4.258180	9.610666	0.572042	-5.646051	2.491323	-0.556152	-0.154541	-0.460938	3.499111	45.391286	60.097726
58948		-20.636707	4.645854	9.213803	0.371843	-5.530155	2.844176	-0.608154	-0.171387	-0.460449	5.048664	42.094095	62.021035
58949		-22.907943	2.906194	7.441024	0.198371	-5.452988	3.273562	-0.658447	-0.167969	-0.454590	6.486401	38.796988	64.058010
58950		-23.931950	0.571806	4.989913	0.354835	-5.274111	3.725294	-0.696289	-0.164063	-0.432129	8.011637	35.515282	66.235969
58951		-25.344478	1.569694	2.481275	0.469632	-4.937399	3.903318	-0.730713	-0.165283	-0.430420	9.480440	32.379180	68.379687
58952		-27.101542	2.156244	-0.722764	0.161827	-4.464798	3.784426	-0.770508	-0.165283	-0.419922	10.590195	29.470404	70.347909
58953		-27.570586	0.353275	-4.597390	-0.320212	-3.934932	3.595359	-0.795898	-0.157959	-0.414795	11.262200	26.866499	72.155424
58954		-25.964626	-2.953011	-8.379084	-0.634205	-3.308219	3.444574	-0.816406	-0.150635	-0.404541	11.654154	24.608715	73.883446
58955		-23.449049	-6.121792	-11.418124	-0.622567	-2.551059	3.239217	-0.841797	-0.148682	-0.400635	11.964963	22.798536	75.538812
58956		-20.047800	-7.900107	-13.694115	-0.540934	-1.623876	2.922767	-0.850586	-0.145508	-0.393066	12.246244	21.533800	77.094804
58957		-16.712276	-6.198280	-14.298811	-0.650717	-0.512598	2.275847	-0.864014	-0.140137	-0.405518	12.345887	20.969633	78.392842
58958		-18.601591	-9.255441	-17.773576	-1.362400	1.324179	1.114581	-0.857910	-0.134033	-0.411621	11.873223	21.577263	79.232280
58959		-13.496419	-11.902185	-15.078651	-1.469204	2.671594	0.057315	-0.846680	-0.116699	-0.413818	11.171412	23.071048	79.595701
58960		-1.597980	-7.552330	6.747349	-1.023805	3.338556	-0.111269	-0.826904	-0.114014	-0.432129	10.720342	24.964363	79.923201
58961		-9.072849	-0.280703	22.631520	-0.165934	3.383153	-0.258057	-0.806396	-0.110352	-0.430908	10.731170	26.896888	80.160849
58962		-6.385153	2.829643	11.242965	-0.348846	2.240779	-0.616692	-0.794922	-0.100586	-0.442139	10.473628	28.226826	80.033413
58963		-2.244075	-1.721811	5.039392	-0.346830	2.840310	-0.917223	-0.776367	-0.102295	-0.447021	10.150380	29.922448	79.773146
58964		-3.860882	-1.211590	7.967538	-0.092894	3.653285	-0.671204	-0.745361	-0.102539	-0.441650	10.090644	32.053582	79.758227
58965		-17.447003	2.588779	15.913674	0.297498	3.775162	-0.380889	-0.724609	-0.103760	-0.452148	10.372583	34.221411	79.958483
58966		-45.248412	10.795990	17.877205	-1.104414	1.592962	-1.551955	-0.721924	-0.097412	-0.450439	9.239232	35.275583	79.078636
58967		-5.616169	-4.391203	5.588280	-0.200330	-0.344372	-0.819644	-0.707031	-0.101563	-0.454102	8.775996	35.154645	78.470940
58968		-5.735513	1.881842	9.565045	-0.473031	0.580553	-0.709696	-0.707031	-0.096680	-0.448486	8.254145	35.549358	78.035753
58969		-7.441837	0.409541	8.512930	-0.353933	0.144231	-0.464499	-0.706299	-0.093262	-0.459229	7.871649	35.668893	77.723722
58970		-7.203438	-0.509825	8.015481	-0.358827	0.244696	-0.236936	-0.710449	-0.090820	-0.452881	7.582179	35.831575	77.578593
58971		-6.713326	-1.444285	8.236357	-0.114081	0.026438	-0.064513	-0.704834	-0.096680	-0.461426	7.492478	35.851809	77.533656
58972		-6.198970	1.219065	7.641193	-0.047735	-0.044850	0.013025	-0.701904	-0.095459	-0.448242	7.467023	35.831004	77.535828
58973		-6.318045	1.291514	7.558304	-0.052773	-0.150562	0.003120	-0.697510	-0.089844	-0.458008	7.430700	35.745600	77.522042
58974		-5.830505	1.169595	7.686408	-0.062802	-0.216680	-0.029249	-0.711182	-0.089355	-0.450684	7.370324	35.630366	77.479104
58975		-5.864844	1.091076	7.934994	-0.090760	-0.237552	-0.043593	-0.711182	-0.089844	-0.455566	7.288902	35.498920	77.425125
58976		-6.121127	0.858760	8.055000	-0.090729	-0.260861	-0.037263	-0.703125	-0.087402	-0.454102	7.207497	35.359071	77.373226
58977		-5.850997	1.474503	8.210755	-0.108345	-0.272178	-0.055293	-0.709961	-0.093262	-0.458252	7.110146	35.208646	77.308739
58978		-5.717023	1.289402	8.273471	-0.152470	-0.228440	-0.099164	-0.709473	-0.090088	-0.449951	6.970883	35.091434	77.217413
58979		-5.940364	0.997677	8.261983	-0.182998	-0.221699	-0.120625	-0.709961	-0.088623	-0.452881	6.807979	34.973967	77.112840
58980		-5.883839	0.830277	8.275560	-0.178467	-0.204417	-0.129209	-0.708008	-0.085938	-0.450684	6.643932	34.872011	77.003713
58981		-5.914456	0.775333	8.306973	-0.157476	-0.192583	-0.127258	-0.714844	-0.093262	-0.457031	6.495279	34.771075	76.897936
58982		-5.861511	0.878545	8.217758	-0.137524	-0.182423	-0.119308	-0.715332	-0.087158	-0.461914	6.360370	34.680538	76.798302
58983		-5.641185	0.975735	8.275852	-0.124499	-0.162410	-0.128468	-0.716064	-0.087402	-0.461182	6.232189	34.596448	76.694812
58984		-5.670779	1.115373	8.215547	-0.138834	-0.137989	-0.143270	-0.714600	-0.086182	-0.457031	6.089641	34.532299	76.582650
58985		-5.599752	0.981399	8.202889	-0.150264	-0.108376	-0.153694	-0.715332	-0.076904	-0.451904	5.939621	34.480095	76.466322
58986		-5.681550	0.872832	8.218408	-0.151171	-0.091876	-0.168236	-0.716553	-0.084229	-0.459473	5.782600	34.443179	76.340762
58987		-5.347716	1.205593	8.142264	-0.167879	-0.065841	-0.178478	-0.711426	-0.076172	-0.464844	5.614847	34.416108	76.210693
58988		-5.539820	1.157142	8.143254	-0.205517	-0.034301	-0.202721	-0.711670	-0.073730	-0.457764	5.415705	34.413263	76.065525
58989		-5.639875	0.744605	8.123195	-0.222618	-0.039032	-0.209484	-0.718994	-0.080078	-0.464844	5.205635	34.402405	75.915999
58990		-5.719982	0.377469	8.135345	-0.209926	-0.034865	-0.199571	-0.712891	-0.073730	-0.465088	5.005273	34.398199	75.773075
58991		-5.693745	0.137391	8.219197	-0.166986	-0.011046	-0.182372	-0.719238	-0.072510	-0.446289	4.838695	34.401147	75.644081
58992		-5.560064	0.022293	8.274588	-0.118521	0.010131	-0.145636	-0.711670	-0.078125	-0.459229	4.713160	34.419376	75.541074
58993		-5.425128	0.468521	8.315525	-0.081576	0.041462	-0.109046	-0.714355	-0.076904	-0.455811	4.625804	34.448420	75.465751
58994		-5.553212	0.643070	8.301010	-0.081200	0.085197	-0.100633	-0.715820	-0.072998	-0.472900	4.541383	34.507129	75.397900
58995		-5.700477	0.584131	8.187971	-0.076293	0.092879	-0.098174	-0.712158	-0.087891	-0.460449	4.462698	34.564871	75.332727
58996		-5.720808	0.484591	8.114846	-0.065465	0.109407	-0.093327	-0.707031	-0.082031	-0.465332	4.390615	34.636907	75.270953
58997		-5.565891	0.717492	8.133327	-0.067791	0.111782	-0.096845	-0.703613	-0.066895	-0.455811	4.317605	34.705252	75.207417
58998		-5.513528	0.801256	8.072010	-0.077202	0.123455	-0.110997	-0.710938	-0.074951	-0.460449	4.231886	34.785916	75.133750
58999		-5.575242	0.968794	8.128096	-0.100172	0.127176	-0.130801	-0.710938	-0.072021	-0.465576	4.126918	34.864315	75.046987
59000		-5.712565	0.616301	8.077479	-0.126016	0.124256	-0.140803	-0.710449	-0.072021	-0.465332	4.000969	34.946387	74.952124
59001		-5.824391	0.246353	8.122401	-0.116942	0.117038	-0.127913	-0.707031	-0.075195	-0.460938	3.886753	35.018585	74.866329
59002		-5.768794	0.273249	8.199597	-0.092320	0.120098	-0.109285	-0.705078	-0.073486	-0.463135	3.792081	35.096759	74.792710
59003		-5.814533	0.332932	8.182257	-0.078186	0.149200	-0.097163	-0.702637	-0.073975	-0.468750	3.712833	35.185957	74.729427
59004		-5.892785	0.269951	8.137212	-0.051719	0.157353	-0.084264	-0.701904	-0.067871	-0.463135	3.652019	35.284329	74.674559
59005		-5.924372	0.028058	8.152168	-0.017330	0.190259	-0.063301	-0.699219	-0.066162	-0.468506	3.622031	35.395670	74.636468
59006		-5.793017	0.190906	8.176386	0.021806	0.216680	-0.039309	-0.701660	-0.074219	-0.468750	3.622766	35.526291	74.615472
59007		-5.829787	0.136316	8.175546	0.049011	0.258041	-0.020664	-0.697998	-0.070068	-0.464111	3.649792	35.674840	74.610268
59008		-5.790511	0.227043	8.153186	0.080521	0.300161	-0.006180	-0.688721	-0.068848	-0.458252	3.699895	35.851969	74.616408
59009		-5.772266	0.259660	8.165435	0.102586	0.339739	-0.005179	-0.699219	-0.078857	-0.458984	3.766391	36.046657	74.626193
59010		-5.787644	0.473102	8.261784	0.121744	0.390850	-0.012561	-0.695313	-0.066895	-0.465576	3.840246	36.275827	74.632550
59011		-5.939932	0.788545	8.248282	0.113900	0.428707	-0.037314	-0.695557	-0.080811	-0.466309	3.902661	36.522597	74.624428
59012		-5.978142	0.789810	8.244440	0.107751	0.473116	-0.061260	-0.687744	-0.079590	-0.460449	3.950630	36.800637	74.600742
59013		-5.982963	0.326345	8.318866	0.118601	0.506027	-0.077401	-0.686523	-0.079834	-0.461182	4.001057	37.093206	74.568298
59014		-6.037324	0.010406	8.394376	0.197553	0.561051	-0.056881	-0.685547	-0.075928	-0.467285	4.105236	37.421311	74.552778
59015		-4.134144	0.529032	9.317192	0.235284	0.745587	-0.045655	-0.670898	-0.077393	-0.466553	4.244502	37.849537	74.556845
59016		-5.735698	-0.120650	8.737793	0.262278	1.094700	-0.033821	-0.666992	-0.081055	-0.464355	4.415100	38.481326	74.589151
59017		-5.415731	0.399523	8.945010	0.322581	1.243024	-0.020673	-0.660400	-0.078857	-0.468994	4.636199	39.192517	74.643841
59018		-5.579154	0.190479	8.894839	0.337427	1.477785	-0.001367	-0.650391	-0.081787	-0.460205	4.885126	40.041065	74.730515
59019		-5.644487	0.579652	8.979840	0.338401	1.681308	0.006216	-0.639160	-0.088867	-0.460449	5.154546	41.000669	74.843716
59020		-5.499966	1.175752	9.114213	0.373101	1.926943	-0.033438	-0.623047	-0.091309	-0.455811	5.439601	42.106222	74.950668
59021		-5.527923	1.544770	9.228742	0.305126	2.216994	-0.109073	-0.615479	-0.089355	-0.456787	5.670916	43.376859	75.030979
59022		-5.590425	1.847239	9.216838	0.264779	2.555036	-0.214529	-0.593506	-0.098389	-0.450684	5.844179	44.849797	75.061255
59023		-5.425327	1.926472	9.272810	0.226557	2.946817	-0.358932	-0.580811	-0.092285	-0.457520	5.942159	46.550710	75.014017
59024		-5.407394	1.867125	9.380499	0.147852	3.421390	-0.531314	-0.557861	-0.095459	-0.447021	5.914829	48.535548	74.861247
59025		-4.394034	1.060225	9.252468	0.006125	4.068463	-0.708575	-0.532715	-0.090576	-0.440186	5.720432	50.896073	74.599283
59026		-4.154928	1.286126	9.504377	-0.156324	4.935836	-0.840021	-0.498047	-0.100830	-0.437256	5.361105	53.760212	74.257536
59027		-4.001120	2.909837	9.295729	-0.518230	5.882378	-1.136065	-0.462158	-0.090820	-0.426758	4.543738	57.174510	73.623775
59028		-4.511176	1.306968	8.252950	-0.767425	6.886266	-1.472765	-0.427002	-0.080322	-0.418457	3.131410	61.169645	72.490709
59029		-5.871728	0.805833	8.274591	-0.492851	7.622984	-1.686747	-0.379883	-0.082764	-0.396484	1.253611	65.571767	70.705276
59030		-7.341119	3.031338	9.462282	-0.490930	8.440716	-1.754065	-0.328369	-0.068115	-0.363281	-1.553024	70.407313	67.982595
59031		-10.800356	3.246013	8.858317	-0.582154	8.885060	-2.007119	-0.285645	-0.069336	-0.336670	-6.836064	75.405275	62.807756
59032		-13.972115	2.472654	6.939703	-0.533149	9.402357	-2.190655	-0.232910	-0.050293	-0.301758	-18.386206	80.412372	51.318950
59033		-20.197208	0.717999	5.913744	-0.324700	8.917693	-2.220944	-0.196289	-0.040283	-0.263428	-47.173462	84.135012	22.479319
59034		-23.974562	0.609305	4.765593	0.098279	8.094715	-2.123749	-0.157227	-0.026611	-0.221436	-96.545250	84.449406	-27.167406
59035		-19.721847	0.764383	4.271105	0.168920	7.264716	-2.066188	-0.118652	-0.020020	-0.181152	-125.409815	81.766146	-56.324988
59036		-21.195242	0.010877	5.707193	0.530307	6.433293	-1.881687	-0.091797	-0.021484	-0.144531	-136.984804	78.509308	-68.378289
59037		-18.669039	0.723107	8.521355	0.907455	5.451281	-1.728642	-0.083740	-0.007080	-0.110596	-141.987113	75.486465	-74.045806
59038		-11.612429	1.756839	10.299344	1.271056	4.606447	-1.641422	-0.063477	-0.004883	-0.083252	-144.182349	72.812786	-77.086806
59039		-5.790290	1.623339	11.072379	1.662031	4.276679	-1.535237	-0.058350	-0.002441	-0.053467	-145.311334	70.302521	-79.282440
59040		-2.389434	1.239722	10.152210	1.970483	4.204707	-1.384412	-0.046387	-0.000977	-0.032959	-146.013378	67.870129	-81.245547
59041		-7.259824	0.232187	4.685889	2.319636	4.246348	-1.266046	-0.032959	0.000977	0.009521	-146.417057	65.443257	-83.134691
59042		-24.698490	3.042310	14.387424	2.753985	2.074178	-0.836584	-0.031250	-0.009766	0.017334	-145.401347	64.196595	-83.759592
59043		-12.163092	5.400565	12.672930	3.037114	-0.618114	-0.015616	-0.020996	-0.025146	0.011719	-143.211169	64.477828	-83.262500
59044		-10.356859	7.603430	12.052383	2.450096	-2.302009	0.577984	-0.036133	-0.021729	0.011230	-140.603147	65.729880	-81.939322
59045		-6.219222	7.665246	9.498137	1.497686	-3.476930	0.911587	-0.040039	-0.035645	-0.003906	-137.633837	67.576958	-79.642451
59046		-3.809487	5.304647	7.382472	0.533194	-4.067040	1.014750	-0.048340	-0.042236	-0.030029	-134.237589	69.668567	-76.328683
59047		-3.620533	2.863793	6.132696	-0.131397	-4.516669	1.172802	-0.053711	-0.054199	-0.058105	-130.096569	71.904044	-71.866836
59048		-3.490242	1.093593	5.258814	-0.539470	-4.891835	1.305198	-0.066650	-0.068115	-0.088135	-124.543667	74.213627	-65.745637
59049		-3.186350	-1.340117	4.243292	-0.657632	-5.136824	1.424434	-0.080322	-0.083496	-0.126221	-116.837151	76.421768	-57.393909
59050		-3.046783	-3.896781	3.687605	-0.370584	-5.226038	1.561830	-0.092285	-0.090576	-0.152832	-105.966041	78.366851	-46.045533
59051		-3.502739	-5.743369	3.534132	0.231542	-5.189107	1.728351	-0.116943	-0.111816	-0.186523	-91.317737	79.802596	-31.268562
59052		-4.868578	-6.213798	4.026230	0.949772	-5.140785	1.901307	-0.149170	-0.129395	-0.208008	-72.946662	80.488750	-13.185217
59053		-6.761494	-5.748220	4.856219	1.565391	-5.232391	2.047407	-0.170898	-0.146240	-0.232666	-53.160451	80.169982	5.969060
59054		-8.551752	-3.926682	5.678870	1.873481	-5.514563	2.050044	-0.200439	-0.166748	-0.259766	-35.592891	78.708469	22.736149
59055		-8.923091	-1.790352	6.208439	1.704087	-5.823438	1.882163	-0.238770	-0.193359	-0.276123	-22.982983	76.312479	34.644739
59056		-9.743545	-1.423795	6.114113	1.178888	-6.014025	1.575090	-0.276855	-0.205566	-0.295898	-14.988032	73.326602	42.219689
59057		-9.829356	-2.202013	5.664630	0.721745	-6.104036	1.262074	-0.312256	-0.215576	-0.313721	-10.141401	70.067446	46.884654
59058		-10.415832	-3.591044	5.259543	0.589514	-6.129973	1.075633	-0.364014	-0.228271	-0.324463	-6.932690	66.667923	49.965619
59059		-10.675054	-4.457378	5.183555	0.801633	-6.090828	1.052739	-0.393066	-0.247803	-0.339355	-4.448748	63.254499	52.196886
59060		-11.416796	-4.755035	5.515915	1.216204	-5.978413	1.170581	-0.438232	-0.259766	-0.321777	-2.141268	59.855927	54.021576
59061		-12.631740	-3.714053	6.018878	1.674564	-5.888798	1.362145	-0.480713	-0.275146	-0.333496	0.168907	56.495676	55.607897
59062		-13.317718	-1.322882	6.812378	1.909689	-5.846145	1.539423	-0.521240	-0.294678	-0.323486	2.413064	53.109996	57.008315
59063		-13.441637	0.326791	7.741550	1.779851	-5.737385	1.734346	-0.560303	-0.305908	-0.308105	4.431354	49.769366	58.281782
59064		-13.863337	0.521847	8.206044	1.519481	-5.546813	2.014557	-0.603760	-0.310547	-0.296631	6.258600	46.481009	59.559741
59065		-14.718590	1.109350	8.385911	1.285339	-5.314409	2.301962	-0.629150	-0.334229	-0.280762	7.925020	43.296740	60.873857
59066		-16.190270	2.291244	8.533457	0.996485	-5.048133	2.485781	-0.676758	-0.343994	-0.253662	9.368343	40.207327	62.177178
59067		-18.735847	3.063612	8.093986	0.625576	-4.819015	2.536718	-0.698486	-0.341064	-0.249512	10.493708	37.237256	63.399467
59068		-21.476531	3.034488	6.968465	0.306297	-4.666546	2.465030	-0.732910	-0.343506	-0.223633	11.307491	34.330457	64.484209
59069		-23.259404	2.658410	4.829016	0.113195	-4.580952	2.287245	-0.757080	-0.349609	-0.215088	11.863094	31.496481	65.383411
59070		-23.697059	1.986324	1.936068	0.101685	-4.511109	1.988251	-0.780273	-0.344727	-0.202393	12.257187	28.719546	66.045322
59071		-22.189064	1.122606	-1.050385	0.181703	-4.350858	1.688544	-0.797119	-0.346924	-0.190430	12.574350	26.077480	66.503850
59072		-18.421196	-1.328024	-3.426384	0.363375	-3.839487	1.537235	-0.814453	-0.344238	-0.179199	12.958849	23.729899	66.913433
59073		-15.179267	-4.004987	-5.016478	0.807179	-2.983898	1.645993	-0.832275	-0.346924	-0.159180	13.642995	21.849673	67.480400
59074		-14.145816	-3.898841	-5.871166	1.196995	-1.983774	1.846545	-0.840088	-0.341064	-0.148926	14.621454	20.484999	68.281401
59075		-14.371920	-2.795976	-6.238151	1.189366	-1.053754	1.889254	-0.854980	-0.345215	-0.139160	15.628222	19.620299	69.224272
59076		-15.528175	-2.202693	-6.165817	0.735558	-0.200174	1.749519	-0.855225	-0.340576	-0.120117	16.380722	19.232602	70.210852
59077		-15.338757	1.047193	-6.283087	-0.240429	0.544065	1.295867	-0.859131	-0.324951	-0.126465	16.524278	19.321919	71.056963
59078		-15.389519	-0.670848	-8.539220	-1.749897	1.584066	0.380180	-0.859131	-0.319336	-0.142334	15.689604	20.135562	71.545374
59079		-12.395363	-6.498814	-7.459394	-2.466480	2.470650	-0.387366	-0.849609	-0.314209	-0.147949	14.335671	21.560874	71.706519
59080		-5.642419	-2.226588	7.791355	-2.281589	2.767319	-0.367462	-0.850342	-0.302734	-0.163574	13.101159	23.156204	71.890574
59081		-9.090918	3.924769	18.373024	-2.215663	2.382057	-0.573377	-0.833008	-0.287842	-0.169189	11.821197	24.560247	71.859941
59082		-4.546424	0.822083	15.089361	-1.956059	1.772372	-0.654507	-0.829102	-0.282959	-0.177490	10.622452	25.634614	71.670472
59083		0.660352	-2.910830	5.815509	-1.514659	1.984192	-0.466978	-0.828369	-0.280273	-0.174805	9.724897	26.801294	71.598802
59084		-1.424996	-4.129166	5.561892	-1.238848	2.731810	-0.227446	-0.815186	-0.275635	-0.185791	9.082488	28.371506	71.740446
59085		-6.497372	-6.748785	8.836692	-0.681012	3.131113	-0.088076	-0.815186	-0.284668	-0.190430	8.821746	30.151913	72.001269
59086		-10.644720	-7.330307	10.389759	-0.332878	2.891691	-0.374439	-0.793213	-0.278076	-0.189697	8.654229	31.826899	72.044952
59087		-11.322511	-6.060563	10.556505	0.109451	2.566311	-0.804134	-0.792480	-0.278809	-0.173828	8.567308	33.350099	71.763488
59088		-11.244198	1.209712	10.014633	0.471509	2.255939	-0.781472	-0.791016	-0.280518	-0.176514	8.666586	34.700778	71.459327
59089		-30.484503	15.782440	18.724199	-0.477549	1.932851	-0.917314	-0.768066	-0.279053	-0.187012	8.140251	35.873539	71.018473
59090		-8.322398	0.584260	4.154804	-0.178498	-0.598120	-0.733674	-0.771240	-0.280029	-0.186035	7.702922	35.599202	70.444284
59091		-2.696764	-3.839836	8.601107	-0.331030	0.206745	-0.811706	-0.763672	-0.276611	-0.186523	7.193758	35.777313	69.893233
59092		-8.688440	-2.512638	8.604177	-0.087798	-0.027664	-0.500718	-0.771484	-0.279297	-0.185303	6.934542	35.804106	69.536360
59093		-5.806137	4.018670	7.161834	-0.197798	-0.020105	-0.410531	-0.765869	-0.268066	-0.185059	6.652391	35.820837	69.244470
59094		-6.798657	0.513749	8.160845	-0.306297	0.011425	-0.282161	-0.765869	-0.275879	-0.185791	6.359065	35.853067	69.043705
59095		-6.669453	-0.193252	8.093538	-0.226148	-0.107175	-0.214921	-0.774170	-0.269043	-0.190186	6.136977	35.805755	68.882288
59096		-6.226990	1.452846	7.720348	-0.227719	-0.192940	-0.160286	-0.762695	-0.272949	-0.185303	5.929792	35.712960	68.751769
59097		-6.404207	0.936874	7.856467	-0.269714	-0.254177	-0.180593	-0.764893	-0.279785	-0.190186	5.691558	35.578866	68.604758
59098		-6.074761	0.857442	8.016753	-0.292077	-0.316227	-0.185966	-0.769531	-0.271729	-0.186035	5.433559	35.416391	68.449328
59099		-6.016283	0.671057	8.094637	-0.315087	-0.334212	-0.202386	-0.760986	-0.268555	-0.198242	5.159376	35.236721	68.283954
59100		-5.920655	0.761107	8.230379	-0.324212	-0.359595	-0.213911	-0.767334	-0.268555	-0.186035	4.872496	35.049700	68.109025
59101		-5.876748	0.432658	8.364703	-0.325048	-0.334694	-0.230925	-0.769531	-0.270508	-0.191406	4.583738	34.869774	67.926665
59102		-5.852278	0.187684	8.407648	-0.294158	-0.301400	-0.218314	-0.773193	-0.266357	-0.186768	4.316709	34.714755	67.754896
59103		-5.936459	0.183634	8.382140	-0.240943	-0.262981	-0.193500	-0.770264	-0.268311	-0.193359	4.095359	34.572880	67.604891
59104		-5.798097	0.497886	8.316305	-0.210180	-0.237486	-0.177969	-0.767090	-0.262451	-0.190918	3.895828	34.451637	67.466291
59105		-5.751718	0.870690	8.236101	-0.210875	-0.232611	-0.186859	-0.773193	-0.261719	-0.187744	3.696599	34.325993	67.323975
59106		-5.676729	0.606733	8.216976	-0.227505	-0.222675	-0.202116	-0.764648	-0.265625	-0.190918	3.479436	34.213246	67.170829
59107		-5.704289	0.452117	8.313517	-0.214802	-0.211206	-0.203801	-0.767334	-0.270264	-0.193604	3.273197	34.099559	67.019185
59108		-5.650251	0.470896	8.405118	-0.214847	-0.185450	-0.213527	-0.769775	-0.264404	-0.200195	3.060946	34.007507	66.861038
59109		-5.729132	0.507315	8.330549	-0.204122	-0.166735	-0.212832	-0.765869	-0.250244	-0.185303	2.859407	33.918626	66.706095
59110		-5.607040	0.441121	8.428828	-0.207441	-0.132683	-0.221886	-0.773926	-0.274170	-0.191162	2.650180	33.856022	66.545103
59111		-5.588422	0.471235	8.395405	-0.206397	-0.106517	-0.220098	-0.765625	-0.263672	-0.196045	2.446447	33.800872	66.388018
59112		-5.622070	0.495645	8.312589	-0.218504	-0.073163	-0.234273	-0.762207	-0.264404	-0.195313	2.227740	33.771604	66.220967
59113		-5.591087	0.457610	8.241250	-0.227168	-0.066164	-0.240483	-0.760254	-0.261719	-0.199951	2.005398	33.739009	66.051508
59114		-5.578173	0.013153	8.280825	-0.220526	-0.058154	-0.234343	-0.762939	-0.261719	-0.200439	1.786097	33.717233	65.885207
59115		-5.531654	-0.080215	8.271770	-0.201125	-0.045579	-0.209750	-0.761230	-0.259033	-0.203857	1.590990	33.694856	65.737719
59116		-5.438410	0.216071	8.320253	-0.190855	-0.031153	-0.195945	-0.763672	-0.259033	-0.201904	1.403792	33.686968	65.598603
59117		-5.481887	0.355301	8.326196	-0.209472	-0.022750	-0.195486	-0.761719	-0.258057	-0.205811	1.209722	33.676666	65.461516
59118		-5.489116	0.170586	8.179800	-0.225972	-0.029766	-0.190316	-0.760742	-0.251709	-0.207275	1.004686	33.668662	65.326444
59119		-5.496218	-0.098210	8.069527	-0.234064	-0.058605	-0.185266	-0.762695	-0.255615	-0.202393	0.800341	33.636921	65.196139
59120		-5.621352	0.072538	8.187633	-0.242805	-0.082883	-0.183719	-0.764893	-0.253906	-0.203125	0.588116	33.597599	65.065359
59121		-5.584113	-0.336736	8.201368	-0.233553	-0.087618	-0.190239	-0.759766	-0.263672	-0.200195	0.382453	33.548472	64.931867
59122		-5.548752	-0.103383	8.223858	-0.213950	-0.085990	-0.178113	-0.763428	-0.248779	-0.208984	0.189280	33.506561	64.805431
59123		-5.502409	-0.181313	8.143048	-0.219530	-0.085583	-0.179168	-0.758545	-0.256348	-0.207275	-0.003673	33.457828	64.680093
59124		-5.315673	-0.300218	8.220420	-0.208811	-0.090683	-0.166745	-0.754883	-0.246826	-0.207520	-0.189192	33.412510	64.561970
59125		-5.215218	-0.471305	8.316740	-0.194722	-0.064265	-0.146883	-0.755859	-0.259521	-0.203857	-0.355338	33.375415	64.459219
59126		-5.348160	-0.631914	8.301591	-0.148160	-0.032937	-0.106875	-0.756836	-0.252686	-0.207275	-0.483409	33.362802	64.382277
59127		-5.201478	-0.444867	8.403780	-0.105040	0.012159	-0.090654	-0.757813	-0.246582	-0.205322	-0.577053	33.369405	64.317848
59128		-5.142633	-0.406096	8.629678	-0.071787	0.095487	-0.076678	-0.758301	-0.244141	-0.207520	-0.650593	33.430254	64.260677
59129		-5.412143	-0.054927	8.652309	-0.028462	0.192306	-0.062655	-0.750488	-0.245605	-0.209961	-0.690720	33.540122	64.213926
59130		-5.357770	0.205329	8.708815	-0.038516	0.275753	-0.080615	-0.753174	-0.248047	-0.220215	-0.747917	33.704014	64.152192
59131		-5.516885	-0.047395	8.554935	-0.029500	0.354981	-0.106138	-0.757080	-0.249756	-0.211182	-0.806617	33.906669	64.073519
59132		-5.522969	-0.317630	8.459575	-0.007242	0.419366	-0.116386	-0.739990	-0.256592	-0.207764	-0.861236	34.152335	63.984934
59133		-5.500396	0.157270	8.444989	-0.008850	0.488771	-0.135209	-0.749512	-0.249023	-0.211670	-0.921359	34.431247	63.883718
59134		-5.350308	0.416558	8.655854	-0.083835	0.587074	-0.167855	-0.750977	-0.249268	-0.203613	-1.042839	34.772206	63.755919
59135		-5.681827	0.385433	8.654787	-0.114268	0.650099	-0.198903	-0.744141	-0.246094	-0.206787	-1.192335	35.142491	63.605826
59136		-5.709712	1.068849	8.895273	-0.184799	0.724326	-0.261402	-0.739502	-0.249756	-0.215088	-1.414207	35.560124	63.406675
59137		-5.398164	1.138962	9.313252	-0.302436	0.827937	-0.351080	-0.730957	-0.255127	-0.214600	-1.741232	36.028864	63.140443
59138		-5.633222	1.365321	9.425583	-0.587024	0.966171	-0.369954	-0.720215	-0.247314	-0.221436	-2.250245	36.580618	62.849701
59139		-4.609644	-4.596380	9.352604	-0.344516	1.293395	-0.370093	-0.718994	-0.245361	-0.214355	-2.630094	37.312038	62.542877
59140		-5.468701	-0.025063	9.858252	-0.166245	1.605947	-0.325612	-0.718506	-0.245117	-0.212891	-2.907561	38.227581	62.246582
59141		-4.990933	-1.276787	9.759185	-0.129359	1.910355	-0.297043	-0.700684	-0.241211	-0.218994	-3.164221	39.311625	61.951933
59142		-5.144771	-0.855548	10.043491	0.007427	2.232579	-0.266855	-0.702393	-0.242676	-0.226563	-3.352425	40.585040	61.653320
59143		-5.011483	-0.939934	10.203067	0.103450	2.630410	-0.280195	-0.679688	-0.246582	-0.220215	-3.513096	42.079868	61.317323
59144		-4.924635	-1.585035	10.365800	0.316141	3.100186	-0.342086	-0.673584	-0.238281	-0.217529	-3.621273	43.844861	60.893831
59145		-4.219804	-0.149089	11.073442	0.433851	3.649202	-0.441782	-0.654541	-0.246094	-0.216309	-3.758069	45.915113	60.344939
59146		-4.565667	1.577841	10.542134	0.233541	4.366843	-0.653283	-0.637695	-0.245605	-0.218994	-4.219460	48.388459	59.534051
59147		-4.799651	5.126618	10.768141	-0.394296	5.089136	-1.158677	-0.606201	-0.240723	-0.210205	-5.522074	51.237586	58.122602
59148		-4.480480	4.097473	10.351018	-1.148369	5.962383	-1.754473	-0.583252	-0.242188	-0.217041	-8.037160	54.513960	55.794517
59149		-3.402507	2.950228	8.597464	-1.721464	6.966078	-2.127067	-0.551758	-0.222168	-0.208984	-11.868474	58.235782	52.378111
59150		-5.098793	0.949064	7.974158	-1.873579	7.959055	-2.379409	-0.511719	-0.215576	-0.202881	-17.270428	62.310528	47.397198
59151		-9.081653	-0.862830	7.200210	-1.311397	8.280053	-2.443980	-0.475342	-0.200928	-0.188965	-24.240306	66.256690	40.499038
59152		-11.810597	0.936723	7.719308	-0.852371	8.341250	-2.312598	-0.441406	-0.198242	-0.177002	-33.334650	69.817466	31.225759
59153		-18.369099	-0.173851	8.113152	-0.753491	8.055562	-2.245608	-0.401855	-0.191406	-0.164307	-45.311923	72.586669	19.036160
59154		-20.699207	0.035706	7.215713	-0.712861	7.262554	-2.423995	-0.377441	-0.164307	-0.136719	-59.589265	74.030967	4.562923
59155		-19.133561	1.915707	7.205772	-1.141319	6.671508	-2.821354	-0.339355	-0.161377	-0.119141	-74.788189	74.021157	-10.561380
59156		-18.584470	0.023327	8.357990	-1.245125	5.813591	-2.916762	-0.306396	-0.140625	-0.098145	-87.464685	72.876028	-23.039186
59157		-14.488866	0.559030	8.309209	-1.291279	5.159288	-2.964883	-0.281982	-0.114502	-0.079346	-97.079303	71.053778	-32.371226
59158		-8.156666	-0.010488	8.303696	-0.965999	4.627177	-2.558304	-0.255127	-0.106934	-0.064209	-104.080355	69.123266	-39.229822
59159		-3.100993	-0.012987	8.366442	-0.599905	4.499479	-2.322847	-0.239746	-0.074951	-0.043945	-109.605526	67.098431	-44.814406
