// General information: 
//  MT Manager version: 2022.2.0 
//  XDA version: 2022.2.0 build 7381 rev 124627 built on 2023-07-19
// Device information: 
//  DeviceId: 00B4C3A0
//  ProductCode: MTW2-3A7G6
//  Firmware Version: 4.6.0
//  Hardware Version: 2.0.0
// Device settings: 
//  Filter Profile: human(46.1)
//  Option Flags: Orientation Smoother Disabled, Position/Velocity Smoother Disabled, Continuous Zero Rotation Update Disabled, AHS Disabled, ICC Disabled
// Coordinate system: ENU
PacketCounter	SampleTimeFine	Acc_X	Acc_Y	Acc_Z	Gyr_X	Gyr_Y	Gyr_Z	Mag_X	Mag_Y	Mag_Z	Roll	Pitch	Yaw
02234		9.603209	1.339317	0.285062	0.040177	0.035390	0.005504	-0.427490	-0.229248	0.622559	88.624899	-80.346818	-86.606985
02235		9.548013	1.388725	0.384990	0.034984	0.038547	0.003578	-0.428711	-0.219727	0.626953	88.524981	-80.348556	-86.482320
02236		9.537164	1.439747	0.417142	0.016430	0.031240	-0.000174	-0.427002	-0.227295	0.619141	88.405564	-80.350557	-86.348614
02237		9.449299	1.528299	0.417073	-0.002259	0.033600	-0.004445	-0.430420	-0.220703	0.629883	88.301689	-80.347701	-86.241580
02238		9.469097	1.541996	0.424208	-0.003045	0.019426	-0.005134	-0.428223	-0.226074	0.617676	88.211318	-80.346976	-86.148243
02239		9.500000	1.545681	0.410937	0.004293	0.012421	-0.002843	-0.435791	-0.228027	0.619141	88.182408	-80.345371	-86.113441
02240		9.519632	1.517999	0.406450	0.011631	0.005417	-0.000550	-0.432861	-0.224121	0.621094	88.145059	-80.347454	-86.066903
02241		9.563842	1.478230	0.329015	0.022306	-0.000140	0.000775	-0.427734	-0.227051	0.621338	88.168373	-80.348148	-86.074609
02242		9.572504	1.460281	0.342683	0.030843	-0.001862	0.001738	-0.434326	-0.225342	0.614258	88.167429	-80.351687	-86.053794
02243		9.619719	1.510702	0.250662	0.037061	-0.001228	-0.000800	-0.431885	-0.227783	0.630371	88.203035	-80.351498	-86.065392
02244		9.659342	1.496529	0.249360	0.047246	-0.000094	-0.006267	-0.429443	-0.221680	0.625244	88.205222	-80.350430	-86.039874
02245		9.688145	1.533802	0.277148	0.042752	-0.000368	-0.007049	-0.433594	-0.229492	0.622070	88.241839	-80.346646	-86.049190
02246		9.705341	1.498731	0.304747	0.033829	-0.003395	-0.005503	-0.437744	-0.224365	0.623779	88.248262	-80.346077	-86.036256
02247		9.683140	1.519440	0.342763	0.018542	-0.002074	-0.007640	-0.435059	-0.223877	0.627930	88.276789	-80.341983	-86.051437
02248		9.651704	1.475911	0.347493	0.006942	-0.001023	-0.010171	-0.428467	-0.224121	0.628418	88.258762	-80.338688	-86.025643
02249		9.606772	1.434741	0.405162	0.006760	-0.002507	-0.013307	-0.432129	-0.219482	0.622314	88.282552	-80.331356	-86.042867
02250		9.540373	1.422307	0.343519	0.012095	0.000074	-0.020134	-0.431152	-0.228516	0.622070	88.267527	-80.322324	-86.016001
02251		9.509077	1.420939	0.357728	0.018631	-0.007471	-0.019008	-0.432617	-0.234131	0.627930	88.315306	-80.311811	-86.050662
02252		9.488835	1.409720	0.352243	0.025939	-0.005532	-0.022908	-0.437500	-0.228516	0.628662	88.325348	-80.301379	-86.057722
02253		9.499826	1.443198	0.341614	0.033323	-0.006081	-0.023695	-0.430664	-0.221680	0.623291	88.377198	-80.288152	-86.087975
02254		9.525756	1.433169	0.392537	0.035012	-0.012182	-0.023925	-0.432617	-0.223145	0.634521	88.414797	-80.277177	-86.105484
02255		9.556682	1.480244	0.385495	0.040320	-0.016071	-0.027661	-0.432129	-0.221680	0.628418	88.504153	-80.261823	-86.169725
02256		9.556379	1.482814	0.383114	0.037415	-0.021724	-0.022998	-0.432861	-0.223389	0.630371	88.575898	-80.251528	-86.218966
02257		9.607297	1.542964	0.379665	0.029122	-0.025699	-0.023403	-0.429932	-0.224121	0.621338	88.690147	-80.238713	-86.314979
02258		9.606844	1.504063	0.367271	0.018051	-0.024887	-0.022218	-0.431641	-0.227295	0.627197	88.760709	-80.228838	-86.375117
02259		9.576045	1.584929	0.398497	0.009383	-0.028905	-0.014412	-0.429688	-0.228271	0.621582	88.873252	-80.221159	-86.480881
02260		9.558513	1.622068	0.366553	0.006017	-0.041508	-0.016030	-0.432373	-0.238037	0.617920	88.990992	-80.214998	-86.602966
02261		9.518679	1.638091	0.363533	-0.007559	-0.035141	-0.015789	-0.436279	-0.223389	0.627197	89.114268	-80.206515	-86.729479
02262		9.531897	1.637260	0.307660	-0.008084	-0.030221	-0.013810	-0.433105	-0.225098	0.628418	89.184135	-80.201444	-86.813151
02263		9.540490	1.620740	0.319387	-0.006085	-0.024398	-0.013981	-0.429199	-0.231201	0.639648	89.272230	-80.193848	-86.903108
02264		9.553684	1.619689	0.264319	-0.003650	-0.022773	-0.010460	-0.435547	-0.226318	0.627930	89.321669	-80.190671	-86.964888
02265		9.553412	1.579483	0.252212	-0.001597	-0.030592	-0.010110	-0.430664	-0.225342	0.630859	89.432512	-80.185292	-87.075325
02266		9.584153	1.542370	0.225204	-0.000048	-0.022324	-0.005187	-0.429932	-0.221436	0.624512	89.481695	-80.185010	-87.126592
02267		9.612818	1.538318	0.242670	-0.006580	-0.003617	-0.003717	-0.430420	-0.222412	0.627930	89.500061	-80.183119	-87.146077
02268		9.590560	1.517370	0.272184	-0.010603	0.009533	-0.001301	-0.430176	-0.226074	0.628906	89.439088	-80.184809	-87.083958
02269		9.579331	1.486248	0.282906	-0.007996	0.007952	-0.000336	-0.428467	-0.226074	0.630615	89.418233	-80.184793	-87.064463
02270		9.554963	1.465302	0.187929	-0.001622	-0.001085	-0.002347	-0.430420	-0.218018	0.633301	89.397599	-80.186030	-87.048173
02271		9.577148	1.486661	0.158940	0.013069	0.005018	-0.001369	-0.423584	-0.227295	0.630615	89.398566	-80.185437	-87.038574
02272		9.577125	1.486750	0.159514	0.028217	0.013378	0.000205	-0.431152	-0.226074	0.631348	89.348531	-80.188023	-86.971191
02273		9.585844	1.469041	0.174668	0.037144	0.016400	-0.001361	-0.426025	-0.215576	0.630859	89.325587	-80.187358	-86.923328
02274		9.588079	1.477025	0.141959	0.047141	0.014269	-0.001193	-0.430908	-0.227295	0.632324	89.283238	-80.189081	-86.848823
02275		9.645580	1.509548	0.189709	0.048687	0.017829	-0.001962	-0.426758	-0.228027	0.632568	89.262201	-80.188053	-86.796184
02276		9.623438	1.529883	0.229636	0.049249	0.024054	-0.001351	-0.429932	-0.224854	0.621826	89.187803	-80.189704	-86.702291
02277		9.623353	1.530215	0.231008	0.043840	0.019257	-0.003315	-0.424805	-0.224609	0.623779	89.159332	-80.187873	-86.644926
02278		9.585869	1.552640	0.199183	0.036537	0.017319	0.000597	-0.432373	-0.225586	0.624268	89.100512	-80.190541	-86.565809
02279		9.577092	1.570523	0.186008	0.031224	0.016502	-0.001353	-0.428223	-0.221924	0.625488	89.073844	-80.189845	-86.517610
02280		9.585759	1.552996	0.201671	0.026467	0.021919	-0.002698	-0.425537	-0.224121	0.626709	88.993492	-80.190546	-86.421198
02281		9.583362	1.545473	0.237273	0.028647	0.029234	0.000254	-0.426758	-0.219238	0.632324	88.923071	-80.190619	-86.330095
02282		9.625354	1.538758	0.205599	0.038397	0.032783	-0.000135	-0.428955	-0.219971	0.625244	88.815376	-80.192651	-86.200844
02283		9.645055	1.511029	0.204046	0.048556	0.052218	-0.000480	-0.431396	-0.225342	0.632080	88.680239	-80.191959	-86.032491
02284		9.633858	1.521278	0.227552	0.044415	0.050220	-0.000677	-0.430420	-0.229004	0.631592	88.516849	-80.193315	-85.843683
02285		9.631509	1.554898	0.274379	0.032041	0.041794	0.001848	-0.426025	-0.223633	0.627441	88.406585	-80.193973	-85.710174
02286		9.609127	1.533610	0.306995	0.012369	0.037902	0.005163	-0.431152	-0.216064	0.627686	88.265429	-80.198811	-85.572542
02287		9.580591	1.578828	0.300692	0.000898	0.029293	0.003189	-0.432861	-0.218994	0.627930	88.178532	-80.200365	-85.480858
02288		9.551933	1.582877	0.284845	0.003257	0.033392	0.003589	-0.425049	-0.217773	0.621094	88.047157	-80.204107	-85.339591
02289		9.543080	1.559061	0.264397	0.009315	0.037212	0.003600	-0.423584	-0.220459	0.617188	87.938683	-80.205674	-85.221118
02290		9.560390	1.523270	0.296577	0.011219	0.039052	0.003410	-0.424561	-0.219482	0.628174	87.795283	-80.209075	-85.065764
02291		9.568996	1.505292	0.314287	0.010309	0.034535	0.002228	-0.430176	-0.214600	0.624268	87.696348	-80.209831	-84.956393
02292		9.597507	1.500763	0.336307	0.008058	0.034398	0.001834	-0.434814	-0.221191	0.627686	87.566278	-80.212358	-84.816069
02293		9.608597	1.490295	0.320117	0.014891	0.032320	0.006138	-0.429443	-0.224121	0.630615	87.476690	-80.215334	-84.713521
02294		9.568866	1.504175	0.323470	0.013907	0.034982	0.007510	-0.433350	-0.217529	0.626465	87.344947	-80.221095	-84.578537
02295		9.546540	1.523828	0.365142	0.019160	0.038253	0.006352	-0.428223	-0.222900	0.622803	87.237909	-80.223963	-84.455803
02296		9.577580	1.526543	0.353703	0.020960	0.036123	0.006156	-0.437256	-0.214600	0.624268	87.107218	-80.228742	-84.312257
02297		9.557614	1.512776	0.352165	0.021142	0.032908	0.003611	-0.430908	-0.213623	0.629150	87.019389	-80.230116	-84.207865
02298		9.599921	1.546895	0.330373	0.016180	0.030387	0.002229	-0.423828	-0.220703	0.622559	86.905495	-80.232632	-84.073085
02299		9.608479	1.529061	0.347295	0.019423	0.027848	0.001255	-0.436768	-0.223877	0.621338	86.833865	-80.232756	-83.986130
02300		9.593646	1.530503	0.278189	0.019420	0.032551	0.006929	-0.436523	-0.216797	0.621582	86.713850	-80.237940	-83.859305
02301		9.622194	1.525491	0.300176	0.020341	0.037052	0.008110	-0.420654	-0.216064	0.623291	86.610745	-80.241625	-83.739881
02302		9.602311	1.511295	0.298802	0.013645	0.034190	0.010043	-0.421631	-0.216064	0.629883	86.482623	-80.248368	-83.599138
02303		9.591061	1.479215	0.311703	0.012553	0.032887	0.011407	-0.435791	-0.217041	0.629883	86.388011	-80.254006	-83.492864
02304		9.588545	1.470474	0.348028	0.014411	0.028295	0.014340	-0.431396	-0.221680	0.624268	86.278993	-80.263419	-83.376465
02305		9.537745	1.493896	0.369324	0.017432	0.017831	0.013362	-0.427490	-0.223633	0.623047	86.236661	-80.270683	-83.320403
02306		9.569008	1.495924	0.355898	0.024723	0.013299	0.012601	-0.436523	-0.213135	0.626221	86.182564	-80.279664	-83.262387
02307		9.526669	1.460615	0.381403	0.029984	0.016560	0.011448	-0.420166	-0.221436	0.623535	86.151938	-80.285868	-83.210907
02308		9.546694	1.472988	0.387085	0.032241	0.016684	0.011847	-0.435791	-0.208496	0.625732	86.091954	-80.294207	-83.134550
02309		9.540735	1.456056	0.330649	0.034216	0.011348	0.009116	-0.434570	-0.215332	0.625488	86.081586	-80.299269	-83.101165
02310		9.529729	1.506833	0.359745	0.033524	0.014762	0.007942	-0.435059	-0.212891	0.623779	86.028096	-80.305295	-83.018359
02311		9.578177	1.515392	0.384159	0.031101	0.013131	0.004415	-0.436279	-0.214355	0.628906	86.011004	-80.307592	-82.979964
02312		9.549849	1.560642	0.375189	0.023700	0.013701	0.005169	-0.429199	-0.218018	0.621826	85.955671	-80.312096	-82.905709
02313		9.578366	1.555901	0.395026	0.017631	0.009898	0.005147	-0.430420	-0.215820	0.623291	85.941465	-80.314934	-82.878072
02314		9.600890	1.534858	0.357275	0.015781	0.005600	0.008464	-0.437012	-0.225098	0.627441	85.909245	-80.321707	-82.840076
02315		9.595100	1.559312	0.309463	0.012718	0.004930	0.006888	-0.438721	-0.217285	0.623779	85.908420	-80.325741	-82.828870
02316		9.592561	1.551012	0.343289	0.009881	0.003299	0.011568	-0.434326	-0.209961	0.625488	85.876833	-80.334404	-82.800652
02317		9.612509	1.522037	0.338606	0.013470	-0.000951	0.011194	-0.437012	-0.210449	0.625488	85.895112	-80.341139	-82.808388
02318		9.570283	1.528244	0.372327	0.012082	0.005885	0.008839	-0.432129	-0.205811	0.626465	85.858869	-80.347961	-82.755394
02319		9.576450	1.543501	0.429754	0.009421	0.001046	0.010982	-0.430420	-0.214111	0.620117	85.868162	-80.354493	-82.756367
02320		9.567875	1.519092	0.406097	0.004392	0.001002	0.006466	-0.434814	-0.221436	0.634277	85.845776	-80.360171	-82.723468
02321		9.585232	1.524413	0.444026	0.000112	-0.004920	0.006258	-0.435059	-0.219482	0.621338	85.870962	-80.364251	-82.745971
02322		9.570769	1.525318	0.371846	-0.005846	-0.004756	0.006234	-0.439697	-0.215088	0.625732	85.859842	-80.370224	-82.750460
02323		9.551114	1.552646	0.376161	-0.003937	-0.002921	0.006045	-0.433594	-0.220947	0.637939	85.876053	-80.374099	-82.766213
02324		9.582332	1.555371	0.361355	-0.003009	-0.003128	0.001554	-0.434570	-0.214355	0.631348	85.862145	-80.377305	-82.763184
02325		9.559791	1.534235	0.390275	-0.004283	-0.001212	0.005456	-0.430908	-0.214844	0.626221	85.872551	-80.380773	-82.773251
02326		9.593548	1.502833	0.332794	-0.008738	-0.003925	0.007786	-0.430664	-0.220215	0.625488	85.858123	-80.387513	-82.767217
02327		9.579951	1.546230	0.394558	-0.018108	-0.002720	0.005599	-0.430908	-0.219971	0.631348	85.865670	-80.391125	-82.782418
02328		9.591266	1.535339	0.375493	-0.019553	-0.002305	0.006375	-0.434570	-0.211670	0.621826	85.839864	-80.397098	-82.781883
02329		9.579953	1.503767	0.385571	-0.023773	-0.001806	0.003036	-0.439453	-0.209717	0.629883	85.841717	-80.399208	-82.794601
02330		9.571464	1.521076	0.371325	-0.029728	-0.001645	0.003014	-0.439941	-0.219727	0.618408	85.808056	-80.402963	-82.769425
02331		9.560308	1.530946	0.390524	-0.028396	-0.006024	0.002237	-0.433594	-0.212646	0.620605	85.821715	-80.404795	-82.796802
02332		9.540421	1.517421	0.385497	-0.030590	-0.013322	-0.000703	-0.443604	-0.208496	0.625488	85.827371	-80.406936	-82.817716
02333		9.571606	1.520378	0.370529	-0.028738	-0.004321	0.001651	-0.437744	-0.213623	0.623779	85.835232	-80.408361	-82.839411
02334		9.602789	1.523298	0.355713	-0.023706	-0.008987	0.000496	-0.427002	-0.217529	0.619873	85.829576	-80.410925	-82.836437
02335		9.594288	1.540812	0.340944	-0.030642	-0.006163	0.001840	-0.432373	-0.208252	0.632813	85.842540	-80.412534	-82.864414
02336		9.594160	1.499167	0.331671	-0.037230	-0.005052	0.003772	-0.436035	-0.207031	0.618652	85.818054	-80.416957	-82.860110
02337		9.614162	1.511994	0.336679	-0.034741	0.002994	0.004178	-0.436523	-0.215820	0.623291	85.797108	-80.419521	-82.856078
02338		9.596940	1.505632	0.299468	-0.035721	0.005654	0.005545	-0.433105	-0.216553	0.634521	85.735092	-80.424357	-82.803462
02339		9.574418	1.484043	0.329498	-0.036816	0.004352	0.006908	-0.438232	-0.223877	0.627930	85.707635	-80.428422	-82.794033
02340		9.585680	1.473340	0.310955	-0.020401	-0.000411	0.002075	-0.438721	-0.211670	0.626953	85.675296	-80.431782	-82.783118
02341		9.662616	1.477418	0.354238	-0.018550	0.008591	0.004441	-0.431885	-0.218994	0.620361	85.644539	-80.434252	-82.759729
02342		9.645561	1.512507	0.326621	-0.025655	0.009917	0.002658	-0.430176	-0.209961	0.624023	85.574672	-80.437331	-82.701500
02343		9.639737	1.537327	0.279877	-0.037153	0.006049	0.006322	-0.433594	-0.214600	0.627441	85.541341	-80.440981	-82.686311
02344		9.600152	1.551130	0.281226	-0.047896	0.005185	0.008040	-0.431641	-0.222412	0.620361	85.474743	-80.447322	-82.641684
02345		9.591745	1.567904	0.268118	-0.048526	0.006128	0.009994	-0.429932	-0.214355	0.625000	85.433579	-80.453062	-82.625160
02346		9.540795	1.550343	0.279336	-0.040318	0.006094	0.010416	-0.436279	-0.206543	0.623291	85.367233	-80.460788	-82.585633
02347		9.560610	1.521572	0.276405	-0.031527	0.021176	0.005211	-0.433105	-0.214355	0.626221	85.285900	-80.463088	-82.518501
02348		9.577685	1.485341	0.307568	-0.026674	0.019717	0.006595	-0.432129	-0.213867	0.625244	85.182003	-80.467793	-82.417885
02349		9.603272	1.431236	0.352991	-0.026671	0.019713	0.006595	-0.439453	-0.212402	0.622559	85.107929	-80.470918	-82.355294
02350		9.605997	1.438294	0.321358	-0.024363	0.012680	0.004433	-0.434814	-0.222412	0.625000	85.029365	-80.474729	-82.282966
02351		9.597544	1.455354	0.308609	-0.028982	0.013145	0.009302	-0.440430	-0.210205	0.619629	84.975411	-80.479702	-82.242120
02352		9.572494	1.466887	0.382065	-0.022688	0.011279	0.009909	-0.441406	-0.223389	0.620361	84.900170	-80.486717	-82.176168
02353		9.544157	1.470350	0.364300	-0.014144	0.009542	0.010917	-0.427979	-0.216064	0.627197	84.866384	-80.492782	-82.147152
02354		9.572953	1.505954	0.393895	-0.010448	0.009260	0.010541	-0.430908	-0.213135	0.628174	84.805288	-80.500338	-82.096116
02355		9.584058	1.453590	0.366520	-0.018525	0.013242	0.010129	-0.445068	-0.214600	0.618896	84.756512	-80.505752	-82.054448
02356		9.584375	1.493945	0.377140	-0.013334	0.005395	0.006410	-0.441895	-0.212891	0.619873	84.707972	-80.511003	-82.006434
02357		9.607131	1.514199	0.349308	-0.024297	0.010195	0.007552	-0.434570	-0.218750	0.621582	84.667009	-80.515097	-81.976041
02358		9.593276	1.515628	0.403207	-0.030653	0.005622	0.010047	-0.427979	-0.207520	0.627441	84.606367	-80.522411	-81.928294
02359		9.584924	1.532354	0.389840	-0.038502	0.003930	0.010200	-0.439941	-0.222168	0.632324	84.577740	-80.528347	-81.918660
02360		9.596294	1.521087	0.371698	-0.045885	0.004484	0.010951	-0.437744	-0.224121	0.627686	84.513289	-80.536299	-81.878837
02361		9.602177	1.494229	0.420868	-0.043508	0.008564	0.011371	-0.439453	-0.218506	0.624512	84.465470	-80.542644	-81.852655
02362		9.551179	1.476614	0.431750	-0.038954	0.001665	0.009602	-0.437256	-0.216064	0.624268	84.413273	-80.550014	-81.827976
02363		9.591006	1.460711	0.431960	-0.033078	-0.004927	0.012725	-0.436523	-0.217041	0.622803	84.417127	-80.557878	-81.848120
02364		9.559776	1.415011	0.436683	-0.025347	-0.007199	0.012553	-0.435791	-0.222656	0.637451	84.403043	-80.567332	-81.846130
02365		9.573996	1.411111	0.383671	-0.022406	-0.005826	0.019805	-0.431641	-0.219971	0.630615	84.413754	-80.579285	-81.867025
02366		9.551559	1.388261	0.412313	-0.021013	-0.003756	0.015913	-0.433350	-0.225342	0.619385	84.389737	-80.590638	-81.864309
02367		9.594207	1.379664	0.378394	-0.019518	-0.006646	0.018250	-0.429688	-0.214844	0.630859	84.405489	-80.601750	-81.888636
02368		9.568793	1.390338	0.325438	-0.013576	-0.006798	0.018276	-0.433350	-0.211426	0.624023	84.395968	-80.614564	-81.892713
02369		9.600536	1.432922	0.320291	-0.012010	-0.003248	0.017521	-0.433594	-0.217285	0.625977	84.404604	-80.625070	-81.905467
02370		9.601105	1.472333	0.329959	-0.017484	-0.000852	0.018096	-0.436279	-0.224121	0.613281	84.372475	-80.637333	-81.878883
02371		9.598600	1.462831	0.363881	-0.019317	0.003747	0.015182	-0.435303	-0.217529	0.620605	84.353510	-80.646114	-81.867905
02372		9.576066	1.440327	0.393424	-0.028655	0.004945	0.012998	-0.440186	-0.221680	0.617432	84.295388	-80.655172	-81.827970
02373		9.616181	1.465505	0.403572	-0.020298	0.001732	0.010866	-0.435791	-0.222656	0.624268	84.284252	-80.661605	-81.825497
02374		9.616002	1.423244	0.394306	-0.016607	0.001452	0.010490	-0.441162	-0.225586	0.624756	84.245454	-80.669455	-81.800354
02375		9.618546	1.389070	0.351258	-0.011309	-0.002421	0.006776	-0.427246	-0.223145	0.625977	84.255279	-80.673794	-81.813903
02376		9.635563	1.352464	0.379542	-0.006127	-0.005591	0.008735	-0.429932	-0.213867	0.623047	84.248370	-80.681149	-81.821524
02377		9.613658	1.412841	0.427061	-0.006252	-0.009550	0.008710	-0.433350	-0.217041	0.627930	84.285220	-80.686998	-81.859522
02378		9.625020	1.401934	0.406873	-0.002220	-0.011542	0.008911	-0.440186	-0.218506	0.625244	84.302654	-80.694666	-81.876947
02379		9.616373	1.377911	0.382075	-0.003245	-0.006404	0.007179	-0.432617	-0.217285	0.629150	84.330893	-80.699458	-81.904474
02380		9.597242	1.446177	0.396056	-0.003193	-0.008890	0.010291	-0.432373	-0.217285	0.620361	84.336863	-80.707775	-81.913286
02381		9.577396	1.432191	0.390737	-0.008084	-0.004947	0.005799	-0.440186	-0.213867	0.622070	84.357780	-80.711696	-81.936201
02382		9.589043	1.462641	0.381161	-0.019026	-0.000152	0.006956	-0.434814	-0.215576	0.622314	84.325613	-80.717530	-81.909638
02383		9.577949	1.472062	0.400511	-0.018861	-0.003340	0.004396	-0.435791	-0.213623	0.628662	84.335247	-80.720561	-81.927377
02384		9.589219	1.461451	0.381286	-0.021740	-0.002529	0.005953	-0.430176	-0.211914	0.623779	84.310570	-80.725979	-81.910806
02385		9.600478	1.450851	0.362305	-0.026920	0.000640	0.003998	-0.438477	-0.217529	0.631836	84.301837	-80.728558	-81.914612
02386		9.569370	1.447174	0.377097	-0.028484	-0.002917	0.004750	-0.435791	-0.221436	0.619873	84.275365	-80.733332	-81.901473
02387		9.609050	1.431963	0.376893	-0.026411	-0.004263	0.002013	-0.432861	-0.219238	0.623047	84.284749	-80.735059	-81.923340
02388		9.591839	1.426465	0.338396	-0.025095	-0.008631	0.001206	-0.434814	-0.222900	0.624268	84.280983	-80.738185	-81.937077
02389		9.597572	1.400509	0.385758	-0.022898	-0.006016	-0.001503	-0.433838	-0.219727	0.626709	84.299746	-80.738008	-81.966407
02390		9.560686	1.423338	0.352195	-0.025611	-0.008393	-0.002508	-0.433350	-0.218750	0.627441	84.296230	-80.739041	-81.983046
02391		9.600299	1.408681	0.351512	-0.029297	-0.008119	-0.002130	-0.437500	-0.218262	0.622314	84.318900	-80.738625	-82.020051
02392		9.569516	1.446679	0.375299	-0.028611	-0.011550	-0.000980	-0.434570	-0.221680	0.622803	84.324283	-80.740642	-82.042086
02393		9.620344	1.421825	0.355043	-0.025553	-0.010891	0.000601	-0.438232	-0.222900	0.625244	84.357855	-80.741935	-82.087963
02394		9.583499	1.444447	0.320933	-0.029829	-0.016826	0.000344	-0.434814	-0.219727	0.630371	84.380145	-80.745043	-82.132145
02395		9.591992	1.426464	0.334048	-0.025385	-0.014080	-0.001963	-0.430908	-0.215820	0.628906	84.425879	-80.745045	-82.190246
02396		9.594715	1.434601	0.299493	-0.015764	-0.014502	-0.002323	-0.435791	-0.218262	0.622070	84.450322	-80.746483	-82.225023
02397		9.592014	1.426813	0.331899	-0.018352	-0.012918	-0.003296	-0.431152	-0.227051	0.618408	84.496478	-80.745649	-82.279468
02398		9.560837	1.423945	0.345580	-0.015350	-0.009765	-0.004824	-0.433105	-0.210693	0.619385	84.504898	-80.745393	-82.300417
02399		9.571955	1.414438	0.325492	-0.007978	-0.010313	-0.005585	-0.436523	-0.224609	0.626953	84.548630	-80.743104	-82.346384
02400		9.589590	1.461220	0.372748	0.002108	-0.008483	-0.005340	-0.433350	-0.223145	0.618164	84.562984	-80.742401	-82.356066
02401		9.600706	1.451749	0.352523	0.002451	-0.010198	-0.004767	-0.428467	-0.222168	0.619141	84.611988	-80.740564	-82.401322
02402		9.632204	1.496476	0.346914	-0.002673	-0.009522	-0.003605	-0.433105	-0.215820	0.625488	84.627078	-80.740982	-82.421744
02403		9.595259	1.519559	0.312567	-0.014443	-0.018875	-0.003134	-0.432617	-0.221191	0.622070	84.696215	-80.740529	-82.497206
02404		9.564127	1.516547	0.325670	-0.017661	-0.016357	-0.002146	-0.438477	-0.218994	0.621582	84.726230	-80.742077	-82.536331
02405		9.586429	1.496830	0.285855	-0.020250	-0.014774	-0.003118	-0.438477	-0.218994	0.630371	84.777684	-80.741400	-82.597248
02406		9.557935	1.501985	0.265601	-0.009659	-0.017840	-0.004871	-0.432373	-0.218994	0.634033	84.817290	-80.741427	-82.640262
02407		9.594879	1.479622	0.297109	-0.009658	-0.017842	-0.004871	-0.432373	-0.225342	0.629883	84.886088	-80.739890	-82.712603
02408		9.566016	1.443668	0.266638	-0.016340	-0.020730	-0.002960	-0.430664	-0.217041	0.629150	84.932575	-80.741276	-82.775731
02409		9.574891	1.467066	0.288864	-0.019050	-0.023112	-0.003965	-0.436279	-0.222412	0.630859	85.014146	-80.740496	-82.866465
02410		9.569631	1.451345	0.353736	-0.018076	-0.025765	-0.005354	-0.431396	-0.225342	0.626953	85.078048	-80.740670	-82.943084
02411		9.560775	1.428613	0.327537	-0.010868	-0.023127	-0.003554	-0.429932	-0.224609	0.619141	85.164218	-80.740088	-83.033729
02412		9.518542	1.435750	0.359283	-0.002869	-0.024605	-0.006284	-0.438721	-0.223389	0.622559	85.233172	-80.739692	-83.112004
02413		9.552237	1.447875	0.308656	0.003855	-0.028866	-0.010803	-0.437744	-0.216797	0.628418	85.349922	-80.735197	-83.225087
02414		9.538472	1.450769	0.358519	0.010134	-0.030724	-0.010220	-0.432373	-0.223633	0.627686	85.447705	-80.732656	-83.315144
02415		9.572114	1.463172	0.307219	0.008862	-0.033511	-0.012006	-0.433105	-0.224365	0.623779	85.583713	-80.727611	-83.444835
02416		9.609476	1.482700	0.346554	0.010184	-0.037884	-0.012823	-0.429932	-0.224365	0.623291	85.707962	-80.723935	-83.569732
02417		9.600885	1.501927	0.328548	0.010534	-0.039607	-0.012251	-0.438477	-0.214600	0.623291	85.866040	-80.718908	-83.720818
02418		9.618313	1.508186	0.362551	0.005644	-0.044624	-0.010542	-0.431885	-0.218262	0.629150	86.010474	-80.716585	-83.859868
02419		9.611924	1.494020	0.301002	0.005602	-0.037476	-0.007939	-0.425781	-0.223145	0.635498	86.156980	-80.713813	-84.002094
02420		9.594414	1.489795	0.258829	0.003406	-0.044770	-0.010935	-0.432373	-0.220947	0.628662	86.301662	-80.711278	-84.150754
02421		9.583282	1.500886	0.273935	0.010086	-0.041883	-0.012860	-0.429688	-0.223389	0.621582	86.467034	-80.705731	-84.309497
02422		9.585720	1.510009	0.235953	0.014539	-0.048093	-0.009001	-0.425537	-0.217041	0.625244	86.628437	-80.704223	-84.465979
02423		9.563211	1.489773	0.259995	0.017071	-0.047189	-0.011142	-0.429688	-0.215576	0.628418	86.815692	-80.699681	-84.642845
02424		9.572147	1.513956	0.279050	0.020022	-0.050502	-0.009606	-0.428467	-0.218994	0.626465	86.989726	-80.697668	-84.802228
02425		9.561116	1.524845	0.293205	0.020378	-0.052231	-0.009033	-0.425781	-0.215820	0.630127	87.195814	-80.694296	-84.996259
02426		9.554548	1.510670	0.230390	0.021823	-0.052645	-0.009819	-0.433350	-0.219971	0.629639	87.378174	-80.692062	-85.165432
02427		9.565543	1.501679	0.205422	0.016135	-0.058210	-0.009272	-0.427246	-0.221191	0.626953	87.602477	-80.688485	-85.380389
02428		9.556902	1.520412	0.186009	0.008370	-0.048792	-0.006453	-0.428955	-0.217529	0.623291	87.762092	-80.687919	-85.537384
02429		9.556936	1.520779	0.181201	0.014222	-0.048242	-0.000787	-0.425537	-0.217041	0.634033	87.949195	-80.688765	-85.715755
02430		9.579313	1.542389	0.147714	0.008139	-0.043114	-0.006993	-0.431396	-0.218506	0.628418	88.089733	-80.687578	-85.849860
02431		9.590284	1.532839	0.124521	0.002344	-0.034332	-0.001246	-0.422852	-0.221680	0.632813	88.221514	-80.687754	-85.979069
02432		9.627629	1.510292	0.154516	0.000427	-0.022540	-0.001543	-0.425781	-0.221924	0.629883	88.285055	-80.689290	-86.044461
02433		9.618994	1.528285	0.138405	-0.001984	-0.019477	0.000636	-0.420654	-0.220459	0.634277	88.362302	-80.690233	-86.120919
02434		9.614439	1.512127	0.203628	-0.002607	-0.018538	0.002599	-0.422607	-0.228760	0.630371	88.410577	-80.694097	-86.176400
02435		9.636856	1.532940	0.172975	-0.002417	-0.017062	0.005737	-0.430176	-0.211670	0.628174	88.478710	-80.697899	-86.243872
02436		9.606023	1.528982	0.185830	-0.000657	-0.025664	0.008599	-0.428467	-0.218018	0.628418	88.552015	-80.705216	-86.319292
02437		9.612954	1.543531	0.241050	-0.005586	-0.021711	0.004146	-0.423096	-0.211426	0.635742	88.634881	-80.708143	-86.403532
02438		9.617280	1.517592	0.162169	-0.003687	-0.021663	0.012741	-0.424805	-0.214600	0.631348	88.692885	-80.717663	-86.458391
02439		9.595207	1.495123	0.189369	-0.007261	-0.017415	0.013175	-0.425293	-0.217773	0.632813	88.759202	-80.725676	-86.526831
02440		9.575416	1.480535	0.183585	-0.013707	-0.012359	0.015186	-0.422363	-0.216064	0.632324	88.778951	-80.736489	-86.551310
02441		9.556055	1.506992	0.188103	-0.009912	-0.008654	0.014814	-0.422607	-0.212891	0.639648	88.813046	-80.745322	-86.588638
02442		9.615938	1.504178	0.191330	-0.011781	-0.004028	0.011924	-0.422607	-0.217773	0.623047	88.805727	-80.754169	-86.584728
02443		9.620265	1.468929	0.272518	-0.022723	0.000765	0.013166	-0.420898	-0.211670	0.630371	88.799520	-80.761945	-86.588658
02444		9.565288	1.485369	0.202390	-0.027302	0.003001	0.009288	-0.427734	-0.222412	0.633057	88.758719	-80.769134	-86.557110
02445		9.591826	1.471790	0.255070	-0.026057	0.001120	0.005360	-0.423828	-0.216797	0.630859	88.749914	-80.772435	-86.560344
02446		9.611500	1.443219	0.250192	-0.022993	0.001785	0.006921	-0.431152	-0.217041	0.629883	88.715049	-80.778374	-86.539617
02447		9.622949	1.473863	0.241193	-0.025784	0.001898	0.002825	-0.431152	-0.217773	0.630615	88.703842	-80.780213	-86.540259
02448		9.613887	1.450292	0.217935	-0.025942	0.005091	0.005394	-0.427490	-0.213867	0.632080	88.654781	-80.785143	-86.500275
02449		9.616225	1.457822	0.185152	-0.020471	0.002694	0.004772	-0.418701	-0.212646	0.630615	88.643634	-80.788086	-86.497893
02450		9.585335	1.453954	0.200657	-0.018843	0.003763	0.007122	-0.424561	-0.218750	0.634033	88.605229	-80.793993	-86.462232
02451		9.583619	1.486266	0.244551	-0.021201	-0.000349	0.006701	-0.430176	-0.222412	0.635742	88.604239	-80.798084	-86.470564
02452		9.585550	1.452404	0.201570	-0.022793	0.003245	0.010061	-0.422363	-0.218750	0.633057	88.563921	-80.805799	-86.445217
02453		9.586211	1.492117	0.212452	-0.023377	0.008844	0.017737	-0.416992	-0.220215	0.629150	88.528128	-80.816079	-86.419555
02454		9.577791	1.508506	0.199779	-0.027138	0.011618	0.015036	-0.433105	-0.219482	0.635254	88.456766	-80.826504	-86.366039
02455		9.598114	1.519711	0.205982	-0.038526	0.012321	0.024456	-0.423828	-0.217529	0.635254	88.399105	-80.840569	-86.327021
02456		9.622632	1.505485	0.135371	-0.044719	0.011663	0.027007	-0.436768	-0.217773	0.630371	88.314407	-80.857777	-86.265823
02457		9.648938	1.448417	0.179465	-0.048356	0.016581	0.033124	-0.428711	-0.219971	0.638672	88.234630	-80.876717	-86.210112
02458		9.625357	1.466185	0.096723	-0.051605	0.026257	0.036749	-0.427490	-0.230225	0.627686	88.091410	-80.899176	-86.091897
02459		9.685034	1.419573	0.094515	-0.033313	0.046389	0.042584	-0.422119	-0.222656	0.632324	87.911541	-80.922894	-85.926100
02460		9.722298	1.351292	0.122276	-0.014475	0.054443	0.043802	-0.427246	-0.222168	0.627686	87.687375	-80.948807	-85.718431
02461		9.762421	1.331995	0.127702	0.010375	0.073483	0.047673	-0.427979	-0.227051	0.627197	87.432177	-80.974575	-85.451035
02462		9.797158	1.255020	0.191499	0.023541	0.089599	0.048998	-0.428223	-0.220215	0.629883	87.098985	-81.002126	-85.106948
02463		9.775118	1.228740	0.228743	0.019339	0.088254	0.054463	-0.430420	-0.218506	0.633545	86.790781	-81.030875	-84.780730
02464		9.756067	1.251694	0.242316	-0.010435	0.080326	0.048731	-0.432129	-0.220703	0.627686	86.468130	-81.057931	-84.461732
02465		9.705890	1.272117	0.270100	-0.035914	0.071209	0.040627	-0.427246	-0.218994	0.628418	86.189663	-81.078845	-84.197709
02466		9.700199	1.294878	0.229884	-0.043555	0.068143	0.029452	-0.425781	-0.208496	0.625977	85.894132	-81.094857	-83.926024
02467		9.724296	1.239892	0.154791	-0.032544	0.071655	0.016399	-0.426758	-0.223389	0.617920	85.620318	-81.101499	-83.664778
02468		9.803446	1.208671	0.160703	-0.023309	0.068302	0.009725	-0.423828	-0.207275	0.628662	85.341198	-81.105747	-83.391419
02469		9.777537	1.137459	0.219440	-0.025583	0.063527	0.003610	-0.423828	-0.212646	0.627197	85.104327	-81.105098	-83.163534
02470		9.741610	1.159143	0.317139	-0.036876	0.053615	-0.009811	-0.436523	-0.223389	0.627686	84.878496	-81.098563	-82.946829
02471		9.637432	1.201750	0.395985	-0.054051	0.048476	-0.017524	-0.437744	-0.214111	0.621338	84.687505	-81.086368	-82.781885
02472		9.526788	1.230071	0.416457	-0.068706	0.035265	-0.021227	-0.438232	-0.220703	0.623291	84.511482	-81.074131	-82.640401
02473		9.490044	1.296235	0.397335	-0.077905	0.019662	-0.025540	-0.429688	-0.211914	0.634033	84.415092	-81.058816	-82.585043
02474		9.461210	1.303302	0.380434	-0.082497	-0.000709	-0.022872	-0.425049	-0.212891	0.630859	84.363960	-81.047589	-82.575904
02475		9.397139	1.259561	0.275187	-0.081192	-0.014085	-0.017567	-0.431396	-0.223145	0.627197	84.385229	-81.038702	-82.641561
02476		9.405416	1.242766	0.288309	-0.078509	-0.025344	-0.016146	-0.431885	-0.221436	0.621094	84.424327	-81.032752	-82.725118
02477		9.404800	1.202796	0.276097	-0.074830	-0.034628	-0.010401	-0.442383	-0.225586	0.623779	84.520777	-81.029069	-82.863197
02478		9.418485	1.202084	0.220536	-0.079024	-0.043120	-0.007594	-0.428955	-0.222168	0.623779	84.618333	-81.028907	-83.007126
02479		9.369946	1.194643	0.193085	-0.080135	-0.058093	-0.005857	-0.431641	-0.227539	0.630127	84.794892	-81.028968	-83.229385
02480		9.401644	1.239349	0.183875	-0.082731	-0.070162	-0.006429	-0.427979	-0.227295	0.622314	84.989349	-81.030817	-83.478081
02481		9.344069	1.209228	0.129639	-0.087684	-0.086346	-0.007460	-0.427734	-0.230713	0.626953	85.264319	-81.031084	-83.804347
02482		9.372096	1.163693	0.130152	-0.086248	-0.100421	-0.007873	-0.430908	-0.220947	0.628662	85.567063	-81.033208	-84.169279
02483		9.423239	1.180979	0.111065	-0.078462	-0.116990	-0.013415	-0.433838	-0.223633	0.629150	85.959904	-81.030804	-84.609524
02484		9.442685	1.154456	0.094970	-0.069494	-0.121123	-0.017591	-0.424316	-0.218750	0.632813	86.349162	-81.027330	-85.038963
02485		9.504599	1.163198	0.054537	-0.068869	-0.126719	-0.025307	-0.428955	-0.221924	0.628906	86.784575	-81.017497	-85.516756
02486		9.513489	1.188502	0.066884	-0.066975	-0.143197	-0.030867	-0.425049	-0.232178	0.631592	87.257699	-81.006069	-86.027533
02487		9.533258	1.204722	0.058184	-0.061282	-0.155969	-0.036770	-0.417236	-0.234375	0.630615	87.802502	-80.989144	-86.611711
02488		9.541495	1.190185	0.057181	-0.049210	-0.166612	-0.042078	-0.423096	-0.226807	0.633789	88.368625	-80.970473	-87.225459
02489		9.562737	1.175232	0.002071	-0.036670	-0.175009	-0.046773	-0.420898	-0.233887	0.630859	88.992099	-80.946238	-87.875083
02490		9.546312	1.184143	-0.085583	-0.034090	-0.174173	-0.048916	-0.418701	-0.231934	0.628662	89.588433	-80.921670	-88.503447
02491		9.640228	1.208273	-0.179915	-0.022896	-0.164507	-0.053103	-0.416992	-0.229004	0.635254	90.175226	-80.891661	-89.108025
02492		9.666683	1.240636	-0.132428	-0.007847	-0.147084	-0.057574	-0.417969	-0.229736	0.630859	90.683193	-80.860305	-89.630820
02493		9.705946	1.272451	-0.136259	-0.004328	-0.123990	-0.058738	-0.418945	-0.227295	0.632568	91.128667	-80.825731	-90.081586
02494		9.758994	1.250576	-0.044904	-0.000623	-0.117760	-0.062170	-0.420654	-0.227295	0.637695	91.529399	-80.790798	-90.485934
02495		9.756284	1.248015	-0.022380	-0.003703	-0.104780	-0.064053	-0.421143	-0.234131	0.637695	91.900406	-80.752501	-90.860986
02496		9.696260	1.296686	-0.024156	0.000282	-0.093082	-0.064265	-0.413330	-0.238281	0.631836	92.208242	-80.716118	-91.173140
02497		9.702466	1.276227	0.014016	0.012353	-0.085959	-0.069920	-0.414307	-0.229980	0.637695	92.516081	-80.674230	-91.474940
02498		9.640578	1.316703	0.046607	0.025165	-0.088838	-0.071470	-0.416260	-0.231201	0.636475	92.818203	-80.633349	-91.772346
02499		9.601219	1.306295	-0.005007	0.034270	-0.096130	-0.078344	-0.406006	-0.236816	0.646240	93.166698	-80.585802	-92.102702
02500		9.535914	1.329647	0.092965	0.044846	-0.105065	-0.071582	-0.403809	-0.223633	0.635498	93.530865	-80.543793	-92.453661
02501		9.533428	1.327808	0.115162	0.059141	-0.114896	-0.070943	-0.406738	-0.237061	0.645752	93.952693	-80.499074	-92.844001
02502		9.513025	1.361938	0.109734	0.063026	-0.113089	-0.062551	-0.410156	-0.228516	0.640869	94.351243	-80.461053	-93.215008
02503		9.480129	1.355426	0.146769	0.063569	-0.117436	-0.058915	-0.408936	-0.235840	0.644287	94.780349	-80.422169	-93.610247
02504		9.460254	1.429534	0.151380	0.056335	-0.123584	-0.055008	-0.408936	-0.231689	0.646729	95.205245	-80.387075	-94.012445
02505		9.418501	1.440587	0.173778	0.048825	-0.135216	-0.054308	-0.394775	-0.236084	0.641357	95.680545	-80.348852	-94.463193
02506		9.418326	1.486698	0.170446	0.033174	-0.146928	-0.053873	-0.401123	-0.225586	0.640625	96.165296	-80.311990	-94.945317
02507		9.358300	1.534332	0.164264	0.024009	-0.153788	-0.064198	-0.395264	-0.229248	0.647705	96.676900	-80.265664	-95.447429
02508		9.287725	1.591535	0.177796	0.007445	-0.158178	-0.056567	-0.396729	-0.229980	0.636719	97.175588	-80.224998	-95.949116
02509		9.287109	1.596685	0.163245	-0.018985	-0.157175	-0.054535	-0.404053	-0.230469	0.650146	97.668699	-80.182439	-96.457587
02510		9.277347	1.619082	0.135691	-0.029742	-0.153742	-0.038647	-0.402344	-0.224609	0.647461	98.130478	-80.150867	-96.943715
02511		9.285642	1.521853	0.114333	-0.036067	-0.154016	-0.022110	-0.405273	-0.235107	0.647949	98.611544	-80.125525	-97.449996
02512		9.334592	1.490941	0.111878	-0.035965	-0.148731	-0.010686	-0.394287	-0.223389	0.646484	99.061227	-80.108879	-97.924991
02513		9.363284	1.404844	0.095236	-0.036023	-0.140890	-0.002344	-0.395752	-0.228027	0.653809	99.506000	-80.094548	-98.394461
02514		9.440894	1.359088	0.144293	-0.026181	-0.139788	0.000208	-0.391846	-0.226563	0.654053	99.937101	-80.083597	-98.842240
02515		9.471119	1.321353	0.105337	-0.015187	-0.127919	0.012877	-0.394775	-0.223145	0.648193	100.358482	-80.077946	-99.275873
02516		9.491504	1.333278	0.097559	0.001431	-0.122295	0.016515	-0.395996	-0.229492	0.645264	100.757316	-80.076881	-99.673382
02517		9.529489	1.258531	0.139866	0.019542	-0.111676	0.030747	-0.388184	-0.224609	0.646240	101.156925	-80.081997	-100.064716
02518		9.552151	1.253435	0.022156	0.054723	-0.105057	0.040791	-0.394775	-0.226563	0.651123	101.546307	-80.095573	-100.422452
02519		9.551615	1.273199	0.088720	0.080049	-0.104337	0.042547	-0.392822	-0.229248	0.653564	101.966129	-80.107224	-100.799084
02520		9.542838	1.287249	0.064698	0.089180	-0.095707	0.044027	-0.390869	-0.226074	0.652588	102.349079	-80.122943	-101.133962
02521		9.505644	1.387773	0.045838	0.093821	-0.072033	0.047601	-0.385254	-0.220703	0.656006	102.678546	-80.140574	-101.410839
02522		9.477486	1.428339	0.031472	0.102855	-0.058811	0.063017	-0.393311	-0.223389	0.653564	102.967825	-80.170878	-101.641218
02523		9.489203	1.485139	0.060710	0.089863	-0.017454	0.086818	-0.391357	-0.232666	0.655518	103.150874	-80.217011	-101.771754
02524		9.510007	1.481175	0.096901	0.072717	0.020514	0.099124	-0.394531	-0.221924	0.656250	103.194851	-80.277668	-101.777095
02525		9.551685	1.563458	0.193156	0.082840	0.026441	0.099145	-0.397705	-0.227539	0.649902	103.242272	-80.336366	-101.774077
02526		9.622931	1.576357	0.219298	0.104355	0.032527	0.086953	-0.392822	-0.215332	0.648682	103.255156	-80.391793	-101.725686
02527		9.683781	1.535611	0.178416	0.124037	0.042728	0.058046	-0.395752	-0.217041	0.649414	103.240617	-80.429709	-101.635894
02528		9.769648	1.386509	0.235299	0.125290	0.040823	0.011853	-0.396484	-0.212646	0.650391	103.179340	-80.444212	-101.491706
02529		9.730696	1.410317	0.205032	0.128942	0.007156	-0.024984	-0.395264	-0.211670	0.649658	103.220474	-80.431146	-101.455527
02530		9.654134	1.508792	0.117665	0.124064	-0.015460	-0.042897	-0.393311	-0.216553	0.657227	103.301884	-80.407730	-101.454435
02531		9.467063	1.592913	0.040294	0.109664	-0.021648	-0.051793	-0.386230	-0.216064	0.650391	103.405834	-80.375923	-101.493163
02532		9.301396	1.674747	-0.143734	0.096479	-0.011737	-0.073267	-0.387939	-0.212891	0.656250	103.436031	-80.336097	-101.466564
02533		9.134590	1.716704	-0.336801	0.094349	-0.001930	-0.090524	-0.385742	-0.210449	0.656738	103.436058	-80.285322	-101.408777
02534		9.067779	1.751259	-0.563951	0.086380	0.010109	-0.090612	-0.391846	-0.215820	0.656494	103.377106	-80.238647	-101.294259
02535		9.110742	1.726991	-0.854805	0.090087	0.024441	-0.094104	-0.390137	-0.208740	0.646973	103.287813	-80.189344	-101.148293
02536		9.312733	1.784829	-1.013895	0.120862	0.055842	-0.090900	-0.389648	-0.210205	0.655273	103.102311	-80.148400	-100.883971
02537		9.641498	1.831229	-1.011186	0.156782	0.071889	-0.085984	-0.386230	-0.212891	0.652100	102.907907	-80.109606	-100.592490
02538		9.953488	1.895448	-1.145984	0.178798	0.070836	-0.074978	-0.383545	-0.214355	0.656006	102.723758	-80.079105	-100.297785
02539		10.244225	1.928817	-1.216852	0.188467	0.079793	-0.055994	-0.396729	-0.213867	0.656006	102.546962	-80.057747	-100.005696
02540		10.353983	1.906089	-1.233685	0.208604	0.073546	-0.039083	-0.385498	-0.214111	0.656494	102.398931	-80.047354	-99.734947
02541		10.384000	1.943896	-1.203955	0.215920	0.058185	-0.028740	-0.386475	-0.210205	0.649658	102.327129	-80.038359	-99.533465
02542		10.372870	1.946716	-1.149812	0.217217	0.037425	-0.029594	-0.397217	-0.204346	0.657715	102.307404	-80.028657	-99.389660
02543		10.240906	1.944370	-1.067050	0.210458	0.012643	-0.038853	-0.388428	-0.206787	0.658691	102.370793	-80.008412	-99.328609
02544		10.139286	1.913353	-1.045432	0.182776	-0.009137	-0.054856	-0.391846	-0.206787	0.657227	102.461415	-79.978837	-99.310541
02545		10.027270	1.935895	-0.995298	0.144657	-0.008364	-0.074535	-0.389404	-0.204346	0.655273	102.528542	-79.936057	-99.291563
02546		10.025047	1.860216	-1.016857	0.119868	-0.007505	-0.089623	-0.383545	-0.197021	0.655029	102.553860	-79.887202	-99.246202
02547		9.931928	1.817406	-0.980745	0.118002	-0.015855	-0.106372	-0.393066	-0.207520	0.657471	102.606758	-79.825688	-99.228276
02548		9.799304	1.714684	-0.994335	0.132348	-0.009615	-0.117650	-0.394043	-0.197266	0.658691	102.627100	-79.760845	-99.168643
02549		9.709246	1.661613	-1.101342	0.160997	0.004508	-0.128885	-0.390869	-0.212646	0.653809	102.626231	-79.689297	-99.071032
02550		9.616254	1.620952	-1.062781	0.194545	0.032505	-0.136386	-0.386230	-0.201660	0.654053	102.540797	-79.619242	-98.869598
02551		9.472512	1.638995	-0.957991	0.226661	0.056822	-0.143075	-0.387939	-0.197266	0.660400	102.411172	-79.546186	-98.602776
02552		9.408509	1.670642	-0.846583	0.255146	0.086195	-0.143674	-0.387695	-0.196777	0.655762	102.199159	-79.478352	-98.235003
02553		9.465761	1.716169	-0.797787	0.278098	0.113901	-0.143580	-0.383545	-0.206299	0.656006	101.933363	-79.411506	-97.799568
02554		9.533320	1.793031	-0.757562	0.289159	0.145852	-0.143302	-0.390137	-0.199707	0.651367	101.570917	-79.350181	-97.263372
02555		9.508679	1.893792	-0.624735	0.292211	0.166507	-0.125585	-0.391846	-0.202393	0.666748	101.176506	-79.298427	-96.688656
02556		9.494433	1.982818	-0.510356	0.271536	0.174867	-0.101046	-0.385986	-0.202881	0.655518	100.751295	-79.262657	-96.099491
02557		9.489200	2.095335	-0.372520	0.225853	0.180044	-0.091679	-0.389648	-0.198486	0.655029	100.305680	-79.229856	-95.511207
02558		9.407716	2.171520	-0.348508	0.173634	0.188080	-0.077210	-0.386963	-0.192383	0.653564	99.804750	-79.207046	-94.904716
02559		9.213995	2.216257	-0.244979	0.117471	0.194020	-0.071107	-0.394043	-0.195557	0.651123	99.271689	-79.185303	-94.290530
02560		9.130011	2.278042	-0.151523	0.060887	0.183261	-0.062254	-0.395020	-0.190674	0.653076	98.732028	-79.168349	-93.704835
02561		9.088346	2.338579	-0.127205	0.005924	0.168805	-0.056737	-0.396729	-0.196289	0.652588	98.220317	-79.150491	-93.177385
02562		9.030260	2.355784	-0.181631	-0.038062	0.169700	-0.044626	-0.396729	-0.199219	0.648682	97.674403	-79.140392	-92.642197
02563		9.082390	2.300668	-0.227459	-0.071017	0.159200	-0.042478	-0.396484	-0.194336	0.658447	97.155573	-79.128091	-92.152342
02564		9.092497	2.204622	-0.212258	-0.112990	0.156116	-0.041931	-0.395752	-0.194092	0.651367	96.610345	-79.116670	-91.664253
02565		9.149936	2.113203	-0.142057	-0.129131	0.133378	-0.047273	-0.395752	-0.194824	0.656982	96.135497	-79.098319	-91.253051
02566		9.280051	1.977366	-0.131257	-0.139520	0.128213	-0.053537	-0.408691	-0.188477	0.645508	95.657276	-79.077002	-90.846519
02567		9.271019	1.827343	-0.130669	-0.137325	0.113771	-0.061763	-0.396729	-0.189209	0.648438	95.234815	-79.048066	-90.493393
02568		9.269937	1.743753	-0.100930	-0.116177	0.101123	-0.065895	-0.400391	-0.196289	0.644531	94.849499	-79.017155	-90.160054
02569		9.283934	1.711576	-0.185809	-0.081775	0.080730	-0.065159	-0.403564	-0.199707	0.647949	94.559072	-78.983862	-89.908934
02570		9.256344	1.775697	-0.256007	-0.046206	0.059264	-0.062657	-0.399170	-0.196777	0.651855	94.340904	-78.952303	-89.711476
02571		9.251807	1.866490	-0.392188	-0.024939	0.045251	-0.046054	-0.400146	-0.202393	0.644043	94.193604	-78.928050	-89.572960
02572		9.223801	1.969627	-0.456968	-0.021536	0.047586	-0.029497	-0.400879	-0.198486	0.646973	94.032934	-78.914728	-89.421024
02573		9.146659	2.101659	-0.534920	-0.028834	0.061003	-0.011228	-0.399902	-0.199463	0.645752	93.845506	-78.910849	-89.243878
02574		9.137574	2.119441	-0.541441	-0.032446	0.102905	0.000049	-0.398193	-0.204834	0.645752	93.523424	-78.916206	-88.933057
02575		9.215680	2.217298	-0.506177	-0.044542	0.132721	-0.000787	-0.406006	-0.196533	0.649902	93.119454	-78.920313	-88.544429
02576		9.339721	2.270983	-0.386872	-0.064926	0.140107	0.001406	-0.407715	-0.205811	0.646240	92.669799	-78.926662	-88.123493
02577		9.410372	2.341178	-0.213464	-0.095614	0.125643	0.003678	-0.407715	-0.198242	0.645752	92.257173	-78.932032	-87.755877
02578		9.537660	2.279948	-0.311443	-0.114253	0.104554	0.009061	-0.409424	-0.200195	0.653320	91.883001	-78.940816	-87.440206
02579		9.597276	2.282941	-0.454099	-0.113386	0.093117	0.022258	-0.405273	-0.201416	0.643311	91.556245	-78.955350	-87.170480
02580		9.460403	2.223525	-0.462889	-0.113640	0.078837	0.045640	-0.405762	-0.198975	0.644043	91.259726	-78.983988	-86.932984
02581		9.364100	2.148500	-0.473567	-0.113719	0.070087	0.072092	-0.408691	-0.209229	0.644043	91.001418	-79.026278	-86.733232
02582		9.378233	2.090134	-0.492479	-0.105730	0.067773	0.083811	-0.413086	-0.211182	0.640869	90.740907	-79.076222	-86.529027
02583		9.354654	2.050702	-0.544224	-0.094059	0.086761	0.106309	-0.412842	-0.209473	0.644531	90.441335	-79.137853	-86.275852
02584		9.572582	1.884083	-0.447916	-0.086565	0.094132	0.093543	-0.407227	-0.203125	0.642578	90.107943	-79.193009	-85.988163
02585		9.531114	1.834127	-0.379261	-0.081046	0.072551	0.078626	-0.413330	-0.199219	0.639404	89.852600	-79.238268	-85.772513
02586		9.490782	1.832595	-0.337303	-0.060676	0.065868	0.094074	-0.406006	-0.199219	0.644043	89.614701	-79.293277	-85.563276
02587		9.523036	1.868388	-0.335398	-0.056584	0.081387	0.105512	-0.408936	-0.202393	0.647705	89.341488	-79.353538	-85.315257
02588		9.392586	1.992283	-0.288964	-0.036948	0.086083	0.107819	-0.406982	-0.207031	0.640869	89.050414	-79.415891	-85.039146
02589		9.295336	1.995649	-0.284372	0.001284	0.083042	0.111341	-0.406494	-0.203125	0.632813	88.798888	-79.479027	-84.779562
02590		9.279197	2.107332	-0.447385	0.017244	0.066425	0.114752	-0.411133	-0.199463	0.644775	88.592806	-79.545119	-84.560214
02591		9.331783	2.242084	-0.584192	0.011427	0.060006	0.129830	-0.419678	-0.204590	0.636963	88.411451	-79.618838	-84.366181
02592		9.441964	2.322661	-0.534937	-0.012483	0.034924	0.130532	-0.415771	-0.192871	0.631104	88.280367	-79.694203	-84.238974
02593		9.364894	2.379412	-0.522017	-0.052268	0.028782	0.136587	-0.411377	-0.204346	0.646484	88.155683	-79.772173	-84.139716
02594		9.389546	2.470802	-0.528636	-0.100265	0.041840	0.132763	-0.418457	-0.197266	0.639160	87.948418	-79.848509	-83.985567
02595		9.394964	2.508056	-0.545852	-0.144740	0.055517	0.122294	-0.409668	-0.194580	0.642822	87.682171	-79.917585	-83.796375
02596		9.369288	2.542957	-0.546707	-0.184910	0.051142	0.115806	-0.411377	-0.197266	0.636719	87.393170	-79.983683	-83.607860
02597		9.311887	2.486555	-0.393226	-0.222548	0.021966	0.119735	-0.419922	-0.197266	0.636475	87.185671	-80.051896	-83.523665
02598		9.264008	2.459461	-0.376170	-0.271936	-0.007791	0.117944	-0.410400	-0.202881	0.638672	87.034145	-80.120606	-83.525377
02599		9.145420	2.401544	-0.355015	-0.316465	-0.036036	0.131956	-0.414551	-0.201416	0.638184	86.958815	-80.197478	-83.629974
02600		8.999690	2.347386	-0.229436	-0.347009	-0.047723	0.148325	-0.412842	-0.201416	0.633789	86.890977	-80.284749	-83.761671
02601		8.881436	2.328225	-0.201619	-0.369556	-0.082586	0.162476	-0.416260	-0.205078	0.635986	86.937281	-80.380544	-84.020458
02602		8.956059	2.385207	-0.197429	-0.404187	-0.118125	0.179106	-0.411377	-0.205566	0.640625	87.073604	-80.487451	-84.391434
02603		9.016879	2.452056	-0.423526	-0.455082	-0.129161	0.197032	-0.407471	-0.207520	0.637695	87.233321	-80.604164	-84.814710
02604		9.154763	2.482407	-0.616670	-0.520128	-0.139377	0.208348	-0.414307	-0.210938	0.632813	87.385846	-80.728003	-85.269670
02605		9.159371	2.477282	-0.773992	-0.603565	-0.152306	0.209724	-0.414307	-0.208740	0.638916	87.555468	-80.852179	-85.788871
02606		9.174782	2.518181	-1.096796	-0.701944	-0.160064	0.197183	-0.410645	-0.219482	0.635742	87.695998	-80.969660	-86.335942
02607		9.319151	2.345083	-1.357814	-0.800064	-0.129451	0.174863	-0.413330	-0.221680	0.630127	87.691795	-81.073026	-86.792807
02608		9.411270	2.148519	-1.449562	-0.878216	-0.102310	0.146740	-0.412354	-0.216797	0.622803	87.540760	-81.160209	-87.147810
02609		9.457653	1.911695	-1.486080	-0.865584	-0.092586	0.122036	-0.405029	-0.229980	0.635010	87.377816	-81.232692	-87.481811
02610		9.544239	1.742861	-1.503790	-0.777690	-0.064972	0.107113	-0.405273	-0.229248	0.633301	87.155921	-81.296521	-87.705131
02611		9.561414	1.607310	-1.337954	-0.686529	-0.055160	0.103726	-0.412842	-0.239502	0.630615	86.960419	-81.357782	-87.902304
02612		9.539169	1.542397	-1.318174	-0.632653	-0.071453	0.115387	-0.403320	-0.244385	0.634521	86.846139	-81.426756	-88.151093
02613		9.430297	1.555175	-1.501555	-0.605244	-0.125673	0.120086	-0.406982	-0.240967	0.638184	86.964660	-81.499637	-88.618640
02614		9.516293	1.664354	-1.535640	-0.614387	-0.135228	0.128403	-0.410156	-0.245117	0.630615	87.110518	-81.577852	-89.120282
02615		9.721416	1.673546	-1.227150	-0.651096	-0.083321	0.139244	-0.412354	-0.249756	0.624268	87.044688	-81.660250	-89.427854
02616		9.993546	1.506236	-0.988396	-0.660734	-0.106030	0.149410	-0.412109	-0.240234	0.627197	87.054684	-81.749636	-89.818071
02617		10.481640	1.231789	-0.775465	-0.607922	-0.110523	0.136840	-0.406982	-0.253906	0.632568	87.128552	-81.831439	-90.241661
02618		10.849579	1.025724	-0.715383	-0.506930	-0.100391	0.101087	-0.409668	-0.266113	0.626465	87.223735	-81.892961	-90.627506
02619		10.948144	0.932924	-0.785053	-0.344519	-0.141432	0.075520	-0.411377	-0.261475	0.628174	87.594078	-81.940130	-91.197979
02620		10.890376	0.875797	-0.694387	-0.153828	-0.195417	0.068819	-0.406738	-0.258545	0.615479	88.292196	-81.984339	-91.990819
02621		10.684678	0.927249	-0.523029	-0.047821	-0.201210	0.067035	-0.405273	-0.258545	0.614502	89.090828	-82.025623	-92.821996
02622		10.293088	1.083882	-0.543940	0.012137	-0.178042	0.075168	-0.402344	-0.259766	0.621826	89.828933	-82.070521	-93.558002
02623		10.030373	1.291844	-0.719825	0.057934	-0.160378	0.079570	-0.399170	-0.269287	0.625000	90.536635	-82.116039	-94.236023
02624		9.971900	1.354678	-0.676832	0.099480	-0.132711	0.075010	-0.407715	-0.257080	0.627930	91.154078	-82.158694	-94.800800
02625		9.879588	1.390838	-0.550521	0.133792	-0.088280	0.068607	-0.408691	-0.259521	0.624023	91.617680	-82.196962	-95.188419
02626		9.895058	1.523471	-0.491755	0.153649	-0.064067	0.060764	-0.415039	-0.260254	0.627686	91.987062	-82.231474	-95.470143
02627		9.954973	1.571779	-0.405244	0.207952	-0.056015	0.031805	-0.402588	-0.253418	0.630371	92.358663	-82.248644	-95.721970
02628		10.178133	1.532003	-0.288651	0.291983	-0.063237	-0.025177	-0.401123	-0.256348	0.631348	92.792273	-82.233437	-95.988631
02629		10.317027	1.410448	-0.210026	0.372646	-0.091304	-0.098769	-0.401611	-0.249268	0.631836	93.377087	-82.174271	-96.360438
02630		10.482655	1.278979	-0.082678	0.429723	-0.081630	-0.169644	-0.396973	-0.258301	0.639160	93.922401	-82.075072	-96.660376
02631		10.469082	1.107151	-0.051639	0.479908	-0.061369	-0.242209	-0.409668	-0.239502	0.627197	94.387262	-81.934249	-96.849173
02632		10.276424	0.980487	0.020171	0.574199	-0.091914	-0.308547	-0.399902	-0.254395	0.638428	94.987599	-81.754552	-97.121107
02633		9.894717	0.904657	0.148789	0.660947	-0.159482	-0.344141	-0.398682	-0.243896	0.640625	95.870527	-81.549718	-97.627774
02634		9.517918	1.101822	0.159016	0.646636	-0.232082	-0.338590	-0.392334	-0.239990	0.645752	96.981356	-81.342809	-98.375156
02635		9.053720	1.664972	0.165302	0.537323	-0.294982	-0.296308	-0.395996	-0.239502	0.646240	98.242325	-81.152198	-99.336522
02636		8.630239	2.266004	0.109466	0.397714	-0.323385	-0.225745	-0.391846	-0.233643	0.645508	99.515173	-80.996564	-100.392165
02637		8.313874	2.731364	-0.072742	0.265265	-0.354178	-0.152827	-0.390381	-0.237061	0.650146	100.832996	-80.874529	-101.569776
02638		8.378048	2.951105	-0.224781	0.130752	-0.377453	-0.099289	-0.381836	-0.232910	0.654297	102.155868	-80.776364	-102.831300
02639		8.727747	2.766378	-0.235153	0.034580	-0.357164	-0.078061	-0.385986	-0.234619	0.650635	103.348916	-80.687512	-104.017081
02640		9.109716	2.294833	-0.219515	-0.003939	-0.313466	-0.090157	-0.381104	-0.236328	0.657227	104.336000	-80.594919	-105.017018
02641		9.419784	1.714527	-0.218562	0.021000	-0.282359	-0.113887	-0.388672	-0.239990	0.652344	105.197752	-80.490487	-105.875472
02642		9.671101	1.138858	-0.217677	0.086068	-0.263219	-0.143023	-0.376221	-0.238525	0.654785	105.983533	-80.371520	-106.620055
02643		9.805942	0.640145	-0.159686	0.181115	-0.251555	-0.158403	-0.374756	-0.234619	0.653564	106.757428	-80.243684	-107.296908
02644		9.735900	0.254066	-0.014802	0.270272	-0.243465	-0.146046	-0.374023	-0.232422	0.664063	107.545806	-80.123092	-107.937571
02645		9.595798	0.220518	0.235433	0.318761	-0.221899	-0.120630	-0.368652	-0.239502	0.661377	108.307955	-80.018031	-108.522918
02646		9.361072	0.382739	0.474108	0.330744	-0.172102	-0.089844	-0.375977	-0.224609	0.662109	108.939361	-79.938304	-108.969841
02647		9.238356	0.641577	0.726530	0.312187	-0.124333	-0.076287	-0.373779	-0.230713	0.664063	109.425385	-79.873422	-109.278845
02648		9.193384	0.887518	0.763623	0.303056	-0.065457	-0.082817	-0.371582	-0.231201	0.667969	109.712876	-79.816891	-109.391361
02649		9.208112	1.174389	0.815317	0.320129	-0.008120	-0.097693	-0.370361	-0.225586	0.662354	109.825287	-79.762437	-109.316229
02650		9.360793	1.433436	0.860858	0.334493	0.026922	-0.108373	-0.367188	-0.220459	0.670410	109.825529	-79.709978	-109.119716
02651		9.541993	1.638358	0.946726	0.321107	0.056257	-0.096285	-0.374268	-0.218018	0.668457	109.749858	-79.668774	-108.852823
02652		9.751976	1.813902	0.972840	0.291939	0.069383	-0.067161	-0.368896	-0.218750	0.670410	109.645912	-79.646728	-108.573802
02653		9.981035	1.909233	1.016051	0.259162	0.091691	-0.031710	-0.362793	-0.219971	0.660645	109.499835	-79.647008	-108.271380
02654		10.080581	1.970695	1.072117	0.220107	0.109170	0.014596	-0.374268	-0.214844	0.660400	109.322219	-79.676408	-107.960518
02655		10.070151	1.953075	1.201023	0.137210	0.125767	0.050670	-0.366211	-0.210205	0.668701	109.088622	-79.727336	-107.640213
02656		9.938218	1.810484	1.302720	0.012522	0.148293	0.073756	-0.376709	-0.222656	0.661377	108.730139	-79.795659	-107.265355
02657		9.744278	1.578170	1.244213	-0.093578	0.192930	0.066717	-0.367920	-0.218262	0.664795	108.169205	-79.866726	-106.746962
02658		9.532226	1.499604	1.051749	-0.145663	0.250810	0.036499	-0.382080	-0.214600	0.665771	107.355863	-79.931248	-106.004673
02659		9.556873	1.303815	0.976676	-0.163735	0.288174	0.005625	-0.373779	-0.212646	0.656982	106.385132	-79.982109	-105.111131
02660		9.759964	1.112695	1.048786	-0.195479	0.286478	0.003062	-0.379639	-0.220947	0.656738	105.381955	-80.029612	-104.202971
02661		10.013234	0.936974	1.107734	-0.239061	0.259833	0.028701	-0.379883	-0.218262	0.655518	104.458600	-80.083735	-103.401619
02662		10.069121	0.869551	1.190309	-0.261035	0.212716	0.070460	-0.388916	-0.218994	0.663330	103.688018	-80.153443	-102.769248
02663		10.071517	0.942819	1.055259	-0.264340	0.152071	0.113110	-0.388184	-0.222412	0.664307	103.143324	-80.236631	-102.367205
02664		9.860075	1.044505	0.703685	-0.221045	0.092107	0.148214	-0.386230	-0.219482	0.651367	102.828748	-80.332252	-102.173718
02665		9.588456	1.056343	0.356095	-0.158525	0.039930	0.173958	-0.384766	-0.227539	0.660156	102.746763	-80.434462	-102.179713
02666		9.616533	1.155822	0.144207	-0.137230	0.048215	0.201000	-0.387207	-0.218750	0.662842	102.659073	-80.553908	-102.168595
02667		9.529577	1.078702	0.043938	-0.116747	0.067169	0.229709	-0.395020	-0.223633	0.650635	102.549177	-80.690699	-102.122036
02668		9.658664	1.253033	-0.031025	-0.142524	0.125347	0.235356	-0.385986	-0.219238	0.651611	102.214140	-80.838913	-101.862501
02669		9.773937	1.262931	-0.093547	-0.131533	0.143171	0.253367	-0.400879	-0.226807	0.655029	101.836826	-80.997951	-101.553747
02670		9.794401	1.325198	-0.287275	-0.110813	0.121094	0.262669	-0.386963	-0.225098	0.653320	101.534511	-81.160480	-101.309978
02671		9.841876	1.321666	-0.410798	-0.102847	0.101816	0.273710	-0.399414	-0.218506	0.653076	101.317117	-81.325729	-101.146676
02672		9.848143	1.313439	-0.466096	-0.121189	0.094268	0.284098	-0.396973	-0.215332	0.648438	101.106710	-81.496976	-101.002199
02673		9.556006	1.138390	-0.417888	-0.143155	0.086923	0.294952	-0.399902	-0.224854	0.644287	100.923906	-81.672359	-100.897356
02674		9.907393	1.042161	-0.468197	-0.181228	0.093058	0.291276	-0.400146	-0.225098	0.643066	100.673752	-81.847403	-100.747358
02675		9.762271	0.856748	-0.399327	-0.191747	0.111169	0.292658	-0.399414	-0.215820	0.644287	100.349558	-82.023887	-100.527925
02676		9.650999	0.735360	-0.400349	-0.173803	0.120547	0.283807	-0.401367	-0.227051	0.654541	99.965743	-82.197256	-100.239253
02677		9.434938	0.626553	-0.222404	-0.142616	0.133391	0.274040	-0.405762	-0.223389	0.650391	99.536679	-82.364960	-99.885767
02678		9.310845	0.668023	-0.212375	-0.134719	0.153737	0.253646	-0.402832	-0.221191	0.646973	98.980478	-82.523667	-99.402311
02679		9.067547	0.719281	-0.204463	-0.139895	0.171101	0.225974	-0.400391	-0.218750	0.641846	98.316960	-82.666450	-98.811085
02680		8.997632	0.672399	-0.180427	-0.164498	0.197251	0.204237	-0.400635	-0.218018	0.632568	97.471044	-82.799024	-98.052005
02681		9.095505	0.564442	-0.219265	-0.162481	0.203990	0.184111	-0.406250	-0.223145	0.640625	96.567886	-82.918080	-97.232654
02682		9.263188	0.476084	-0.230488	-0.147332	0.206578	0.154633	-0.410889	-0.220947	0.645996	95.604891	-83.019886	-96.346437
02683		9.530910	0.349179	-0.318563	-0.101674	0.233984	0.128781	-0.409180	-0.213135	0.635742	94.515777	-83.105329	-95.305022
02684		9.611926	0.195567	-0.278065	-0.033792	0.269254	0.117679	-0.406006	-0.207520	0.637451	93.253722	-83.184281	-94.050893
02685		9.855414	0.158611	-0.352274	0.038426	0.286933	0.093432	-0.408447	-0.218262	0.644287	91.929073	-83.245366	-92.691778
02686		9.675550	0.091333	-0.389176	0.091045	0.302612	0.077839	-0.419189	-0.210449	0.632324	90.521085	-83.294930	-91.218376
02687		9.693844	0.166166	-0.387791	0.128057	0.319567	0.050962	-0.418945	-0.210205	0.634521	89.046071	-83.323670	-89.656422
02688		9.541082	0.297992	-0.290331	0.152299	0.350756	0.024956	-0.418945	-0.216309	0.634033	87.410691	-83.333086	-87.918273
02689		9.449936	0.437916	-0.222050	0.164330	0.360915	0.004547	-0.419678	-0.207275	0.628906	85.752056	-83.323653	-86.150582
02690		9.487028	0.671613	-0.187955	0.155212	0.384950	-0.007249	-0.426514	-0.206055	0.631836	83.969462	-83.301058	-84.264208
02691		9.322762	0.866164	-0.181365	0.151684	0.398192	-0.016330	-0.428223	-0.211426	0.635742	82.156023	-83.264582	-82.347776
02692		9.381837	0.973448	-0.164165	0.133057	0.387831	-0.026628	-0.434814	-0.208496	0.625244	80.397049	-83.217102	-80.496998
02693		9.182666	0.982872	-0.272584	0.118407	0.368170	-0.021999	-0.436035	-0.202637	0.627197	78.758855	-83.166985	-78.775896
02694		9.276010	1.030763	-0.363047	0.107411	0.345256	-0.020419	-0.435791	-0.212891	0.619141	77.229054	-83.115667	-77.169604
02695		9.145237	1.008916	-0.336045	0.117421	0.297242	-0.012502	-0.432861	-0.202148	0.627686	75.954877	-83.069710	-75.815389
02696		9.103138	0.873533	-0.391310	0.152157	0.263906	-0.023465	-0.433838	-0.206299	0.615479	74.868359	-83.019838	-74.631145
02697		9.064382	0.704367	-0.278379	0.169769	0.241081	-0.042987	-0.442383	-0.199219	0.615723	73.949565	-82.959535	-73.604473
02698		9.312398	0.604524	-0.188555	0.147461	0.238374	-0.050319	-0.436035	-0.196533	0.618896	73.042034	-82.894321	-72.601956
02699		9.238942	0.504507	-0.097616	0.133706	0.217666	-0.067317	-0.438721	-0.196777	0.613281	72.272148	-82.820909	-71.745888
02700		9.406058	0.471525	0.037960	0.142193	0.229029	-0.075863	-0.445068	-0.197510	0.617432	71.474141	-82.740083	-70.855146
02701		9.520601	0.499314	0.024948	0.165658	0.262825	-0.080622	-0.440674	-0.201660	0.623779	70.586835	-82.648058	-69.861930
02702		9.311631	0.519690	0.135162	0.209642	0.233880	-0.089360	-0.443359	-0.198730	0.614990	69.867681	-82.555854	-69.012622
02703		9.389303	0.533996	0.074723	0.253607	0.203030	-0.106872	-0.445068	-0.197021	0.610352	69.357225	-82.458571	-68.348254
02704		9.180853	0.371853	0.055511	0.311620	0.182608	-0.130242	-0.445068	-0.197266	0.607910	68.999253	-82.352932	-67.804477
02705		9.810538	0.434302	-0.075368	0.355528	0.155807	-0.151190	-0.447754	-0.190674	0.611816	68.828392	-82.240644	-67.423543
02706		10.570098	0.627397	-0.317295	0.375089	0.172010	-0.155502	-0.437500	-0.202393	0.611084	68.607920	-82.123194	-66.981255
02707		9.900580	0.493310	-0.225100	0.419075	0.158943	-0.135681	-0.442627	-0.189697	0.618652	68.454403	-82.018179	-66.580866
02708		9.779864	0.590236	-0.079650	0.432130	0.142659	-0.121385	-0.447266	-0.194092	0.619873	68.344733	-81.924822	-66.219600
02709		9.621016	0.779145	-0.004883	0.387781	0.190388	-0.121511	-0.447510	-0.190430	0.622559	68.049127	-81.820333	-65.693597
02710		9.413785	0.961668	0.041385	0.386209	0.120892	-0.132104	-0.443359	-0.183350	0.619385	68.021920	-81.725668	-65.441412
02711		9.389865	1.023518	-0.086230	0.396139	0.101691	-0.155159	-0.441895	-0.188232	0.626221	68.116610	-81.622110	-65.304758
02712		9.506167	0.992420	-0.075867	0.384471	0.124738	-0.181360	-0.444824	-0.183838	0.614746	68.151782	-81.500573	-65.116068
02713		9.569633	0.858136	-0.168051	0.382931	0.100170	-0.182752	-0.442871	-0.180176	0.615723	68.285196	-81.382710	-65.026145
02714		9.629370	0.666208	-0.328527	0.397212	0.079884	-0.169005	-0.443848	-0.171143	0.621338	68.468186	-81.277317	-64.979366
02715		9.704733	0.394966	-0.469226	0.438787	0.065094	-0.161722	-0.448486	-0.179443	0.617676	68.723530	-81.178097	-64.980383
02716		9.802405	0.258065	-0.575052	0.474195	0.061291	-0.143759	-0.446045	-0.182617	0.613281	68.976566	-81.090192	-64.958979
02717		9.840650	0.129215	-0.597086	0.535642	0.037676	-0.123527	-0.453613	-0.168701	0.614502	69.325060	-81.017017	-64.998116
02718		9.776395	0.049745	-0.586328	0.601526	0.021578	-0.115425	-0.442627	-0.173584	0.623535	69.742693	-80.952300	-65.070836
02719		9.664205	-0.029800	-0.510718	0.660936	0.011942	-0.106087	-0.443359	-0.168701	0.625977	70.221066	-80.893481	-65.168815
02720		9.517528	-0.098302	-0.562673	0.709063	-0.026012	-0.103216	-0.443848	-0.157715	0.617432	70.839446	-80.844403	-65.383399
02721		9.360439	-0.096953	-0.764248	0.752094	-0.067384	-0.099126	-0.449219	-0.151123	0.624023	71.619495	-80.803663	-65.734085
02722		9.222282	-0.032657	-0.865300	0.798126	-0.089301	-0.098429	-0.442139	-0.156494	0.628906	72.485421	-80.767623	-66.145868
02723		9.221345	0.244195	-0.647277	0.832968	-0.068497	-0.091748	-0.443115	-0.144287	0.615234	73.297641	-80.729506	-66.482275
02724		9.285169	0.529646	-0.725752	0.868199	-0.111243	-0.085191	-0.445313	-0.142578	0.628906	74.255064	-80.702314	-66.947543
02725		9.590087	0.937441	-0.798617	0.879206	-0.140923	-0.047374	-0.443115	-0.141113	0.634277	75.287934	-80.697875	-67.480742
02726		9.937836	1.220449	-0.841626	0.810764	-0.162869	-0.000938	-0.435059	-0.134033	0.630371	76.309346	-80.722153	-68.044433
02727		10.142661	1.247597	-0.820155	0.719206	-0.161967	0.039127	-0.437500	-0.123047	0.625977	77.254283	-80.765700	-68.581353
02728		10.062616	1.157411	-0.775430	0.639938	-0.122871	0.049230	-0.438232	-0.114746	0.626953	78.011416	-80.810266	-68.976049
02729		10.102106	1.100061	-0.532095	0.606053	-0.089550	0.038241	-0.437012	-0.118408	0.623535	78.652483	-80.842572	-69.270710
02730		10.309256	1.265852	-0.223976	0.611271	-0.109909	0.025667	-0.440674	-0.124023	0.636230	79.373078	-80.870957	-69.644656
02731		10.743760	1.677808	0.062571	0.567478	-0.150449	0.032426	-0.435791	-0.115479	0.638916	80.216879	-80.904956	-70.166974
02732		11.446590	2.293548	0.409413	0.441429	-0.203494	0.074791	-0.429443	-0.108154	0.643799	81.152221	-80.967975	-70.857914
02733		12.164180	3.112312	1.055756	0.222460	-0.148758	0.141446	-0.431885	-0.102783	0.640625	81.746928	-81.061198	-71.327997
02734		12.562817	3.837849	1.170495	0.086098	-0.169262	0.244227	-0.425537	-0.102783	0.638672	82.292811	-81.215095	-71.829851
02735		12.615625	4.218725	0.669433	-0.033357	-0.222497	0.363817	-0.428467	-0.095947	0.635254	82.937588	-81.438590	-72.498452
02736		12.410304	4.177432	0.191163	-0.257674	-0.184552	0.442467	-0.432373	-0.099121	0.649170	83.298356	-81.704637	-73.011356
02737		11.401735	3.343323	-0.307024	-0.374128	-0.196205	0.491529	-0.430908	-0.093506	0.644287	83.651794	-81.997582	-73.581982
02738		10.366999	2.158128	-0.358594	-0.322856	-0.175274	0.461725	-0.424805	-0.096924	0.646973	83.988934	-82.272948	-74.107915
02739		9.201221	0.704046	-0.860574	-0.221046	-0.180006	0.364441	-0.424561	-0.095703	0.642578	84.484672	-82.491412	-74.732886
02740		8.678894	-0.616364	-0.834861	-0.084433	-0.220213	0.231505	-0.424805	-0.092285	0.640869	85.315187	-82.636264	-75.618106
02741		8.517183	-1.473047	-0.530790	0.086570	-0.236020	0.096011	-0.412598	-0.089600	0.646484	86.394580	-82.701223	-76.653429
02742		8.576347	-2.023592	-0.394568	0.254527	-0.222818	-0.000461	-0.414307	-0.092529	0.649170	87.543617	-82.709341	-77.663800
02743		8.662002	-2.151770	-0.431982	0.357658	-0.243044	-0.028476	-0.410889	-0.094238	0.647705	88.852089	-82.697678	-78.773402
02744		8.991003	-1.510588	-0.329171	0.355398	-0.231855	0.015985	-0.413330	-0.077393	0.647461	90.100473	-82.709844	-79.825974
02745		9.245028	-0.517854	-0.095634	0.283062	-0.194895	0.111698	-0.409668	-0.082031	0.645020	91.157458	-82.772829	-80.725049
02746		9.294196	0.678613	0.222973	0.195535	-0.199192	0.199698	-0.409180	-0.088623	0.656006	92.211585	-82.885745	-81.673949
02747		9.375921	1.689216	0.346022	0.119590	-0.224472	0.254420	-0.409668	-0.077393	0.666504	93.390282	-83.025232	-82.789615
02748		8.961344	2.463316	0.330532	0.030284	-0.275066	0.252693	-0.407959	-0.074463	0.656494	94.799987	-83.160250	-84.191565
02749		8.676468	2.952077	0.296520	-0.098445	-0.332396	0.239619	-0.403809	-0.074951	0.655273	96.464400	-83.278306	-85.921548
02750		8.656016	3.210260	0.893997	-0.204383	-0.223238	0.208558	-0.406494	-0.071045	0.657715	97.567876	-83.382985	-87.149672
02751		8.547395	3.107085	1.480112	-0.229421	-0.065779	0.170064	-0.406250	-0.075439	0.656006	97.888160	-83.474532	-87.601441
02752		8.314125	2.773936	1.905467	-0.243072	0.040386	0.137018	-0.401855	-0.074951	0.656006	97.650198	-83.556992	-87.501193
02753		8.094895	2.282888	2.091908	-0.218981	0.048123	0.117800	-0.407471	-0.083740	0.652344	97.373959	-83.627577	-87.346523
02754		8.217214	1.911939	2.193597	-0.154045	0.074030	0.104862	-0.403564	-0.078857	0.655029	96.982918	-83.693949	-87.040881
02755		8.383822	1.613783	2.272905	-0.104182	0.124723	0.093561	-0.398926	-0.075684	0.653320	96.348640	-83.755572	-86.459881
02756		8.631303	1.395964	2.248535	-0.071309	0.168263	0.073664	-0.400635	-0.074219	0.645752	95.474434	-83.808913	-85.620572
02757		9.120798	1.380157	2.095257	-0.017632	0.206368	0.066483	-0.409912	-0.076904	0.657959	94.418961	-83.857181	-84.566168
02758		9.683116	1.480818	2.140431	0.041144	0.256519	0.067760	-0.414551	-0.075928	0.653076	93.103221	-83.906982	-83.218164
02759		10.112435	1.610910	1.991103	0.048386	0.269606	0.090437	-0.410889	-0.068604	0.651611	91.713156	-83.965424	-81.789452
02760		10.505128	1.767928	1.599400	-0.000377	0.242715	0.108458	-0.413574	-0.074463	0.646973	90.404702	-84.031519	-80.472986
02761		10.678656	1.919174	1.344523	-0.040941	0.226637	0.125119	-0.408447	-0.073730	0.649170	89.143709	-84.102931	-79.225841
02762		10.617682	1.857200	1.566327	-0.070808	0.192003	0.127702	-0.412109	-0.069336	0.645508	88.016202	-84.174687	-78.132144
02763		10.233197	1.707583	1.619425	-0.120032	0.107871	0.086406	-0.410645	-0.062988	0.645996	87.334828	-84.221925	-77.513443
02764		10.074483	1.413711	1.369201	-0.125181	-0.019775	0.012601	-0.416748	-0.069092	0.654785	87.372684	-84.230937	-77.622490
02765		9.831723	1.269237	0.925810	-0.122348	-0.060138	-0.067807	-0.406982	-0.067871	0.651367	87.673754	-84.193892	-77.992615
02766		9.830727	1.071302	0.636246	-0.128183	-0.052323	-0.147010	-0.412842	-0.077393	0.645508	87.924944	-84.112126	-78.317847
02767		9.874140	0.938053	0.568481	-0.143518	-0.019628	-0.234562	-0.413086	-0.072510	0.644287	88.010802	-83.978487	-78.483900
02768		9.988809	0.877795	0.535205	-0.137780	0.012472	-0.338513	-0.410889	-0.078613	0.644043	87.929763	-83.785650	-78.480696
02769		10.036021	0.848389	0.481331	-0.069020	0.004272	-0.422694	-0.405029	-0.068604	0.651367	87.960346	-83.543804	-78.548306
02770		10.212702	1.082418	0.261236	0.027358	0.036320	-0.463884	-0.413574	-0.077637	0.648682	87.879936	-83.278695	-78.450514
02771		9.963921	1.281715	0.279907	0.092734	0.090085	-0.476592	-0.413818	-0.076904	0.647461	87.606757	-83.004083	-78.118898
02772		9.699423	1.553492	0.275513	0.163632	0.154711	-0.456269	-0.405518	-0.078613	0.644043	87.089613	-82.740079	-77.502182
02773		9.410807	1.845524	0.309287	0.202587	0.189547	-0.428536	-0.418945	-0.083008	0.645996	86.487565	-82.489139	-76.775099
02774		9.019751	2.054706	0.534117	0.179685	0.205302	-0.370409	-0.410645	-0.086182	0.652832	85.820052	-82.270687	-75.996674
02775		8.768936	2.237419	0.526059	0.099619	0.210773	-0.314301	-0.410400	-0.081787	0.648438	85.116259	-82.081947	-75.225698
02776		8.630857	2.411675	0.389774	0.024001	0.205943	-0.262017	-0.410645	-0.075439	0.642822	84.391586	-81.922773	-74.478857
02777		8.643242	2.470307	0.327280	-0.008974	0.228743	-0.227442	-0.423096	-0.077393	0.637939	83.582822	-81.779799	-73.664078
02778		8.699955	2.557708	0.239517	-0.010471	0.230908	-0.215420	-0.419678	-0.075195	0.647217	82.775856	-81.642550	-72.853391
02779		8.895932	2.655005	0.167191	-0.025485	0.206186	-0.214204	-0.414063	-0.082031	0.636230	82.090738	-81.505719	-72.172596
02780		9.166079	2.701339	0.043997	-0.063281	0.186532	-0.214471	-0.427490	-0.088623	0.639404	81.468802	-81.369739	-71.578939
02781		9.364666	2.678387	-0.078801	-0.070748	0.149165	-0.209579	-0.414795	-0.085205	0.642090	81.006262	-81.238453	-71.149063
02782		9.517260	2.661299	-0.139184	-0.086277	0.101045	-0.173405	-0.427490	-0.088867	0.639893	80.690543	-81.131992	-70.878097
02783		9.612314	2.593708	-0.040264	-0.125302	0.056709	-0.133635	-0.411865	-0.086914	0.632080	80.504486	-81.051572	-70.759471
02784		9.501952	2.552935	-0.068635	-0.171085	0.016073	-0.095407	-0.426514	-0.087646	0.631592	80.407034	-80.996903	-70.758440
02785		9.468529	2.492235	0.029286	-0.220108	-0.019695	-0.059675	-0.419678	-0.088135	0.637207	80.397276	-80.965503	-70.873284
02786		9.387826	2.399547	0.011420	-0.270382	-0.044003	-0.021215	-0.424072	-0.080078	0.633301	80.412322	-80.958429	-71.043670
02787		9.347597	2.288774	-0.004837	-0.328099	-0.055865	0.013566	-0.421875	-0.094482	0.637939	80.425013	-80.971851	-71.243901
02788		9.185403	2.172973	-0.000925	-0.372951	-0.078529	0.041458	-0.419434	-0.083984	0.638672	80.467385	-81.003408	-71.501356
02789		9.146418	2.099555	-0.013466	-0.404144	-0.078249	0.054153	-0.420898	-0.096191	0.638672	80.493604	-81.041852	-71.759362
02790		9.052313	2.115014	-0.055802	-0.414852	-0.106860	0.064321	-0.421387	-0.090088	0.636230	80.602950	-81.088893	-72.108785
02791		8.947638	2.267158	-0.063377	-0.426832	-0.123981	0.077300	-0.413574	-0.096924	0.632568	80.771505	-81.144519	-72.523946
02792		8.935304	2.391860	0.005549	-0.434668	-0.136102	0.092887	-0.422607	-0.093994	0.634277	80.965703	-81.210040	-72.970535
02793		9.005750	2.559414	-0.032596	-0.475948	-0.153791	0.097697	-0.414063	-0.102783	0.628418	81.212544	-81.279407	-73.493234
02794		8.948136	2.732544	-0.187645	-0.529627	-0.175681	0.104981	-0.410400	-0.100586	0.636475	81.503401	-81.354546	-74.092364
02795		9.017654	2.775035	-0.244221	-0.566932	-0.191018	0.111943	-0.412598	-0.112793	0.634521	81.843532	-81.434264	-74.761930
02796		9.292271	2.726359	-0.278788	-0.605750	-0.214960	0.090366	-0.410889	-0.100830	0.636230	82.264111	-81.503049	-75.535960
02797		9.316425	2.698629	-0.320815	-0.660004	-0.265327	0.062537	-0.414795	-0.106934	0.634766	82.878168	-81.558623	-76.536147
02798		9.150270	2.732026	-0.357346	-0.695545	-0.335376	0.045816	-0.402588	-0.120850	0.627930	83.751417	-81.607486	-77.819421
02799		8.834984	2.958430	-0.566949	-0.738407	-0.369393	0.085749	-0.406250	-0.115967	0.634766	84.739389	-81.677947	-79.242650
02800		9.155823	2.875424	-0.719545	-0.806085	-0.296400	0.139714	-0.400879	-0.120850	0.628662	85.396677	-81.772650	-80.371079
02801		9.365211	2.743603	-0.625295	-0.847282	-0.305608	0.126572	-0.402832	-0.134277	0.633301	86.099290	-81.858278	-81.568412
02802		9.448850	2.639010	-0.719481	-0.856213	-0.382586	0.112195	-0.401367	-0.127930	0.635742	87.122560	-81.935688	-83.094892
02803		9.655564	2.546998	-0.878727	-0.858336	-0.392239	0.106495	-0.398926	-0.138672	0.637695	88.216700	-82.006078	-84.693562
02804		9.662197	2.484420	-0.889942	-0.840976	-0.381767	0.119612	-0.401123	-0.134277	0.631104	89.292822	-82.079568	-86.263921
02805		9.648832	2.407444	-0.906457	-0.821066	-0.375329	0.136803	-0.394531	-0.146484	0.637207	90.386240	-82.158792	-87.839726
02806		9.627365	2.262831	-0.834333	-0.783739	-0.370755	0.150764	-0.390137	-0.149170	0.631592	91.502834	-82.241823	-89.417127
02807		9.734374	2.144768	-0.891996	-0.761691	-0.375501	0.151696	-0.388428	-0.157227	0.632813	92.688298	-82.321005	-91.050878
02808		9.716639	2.100617	-0.994737	-0.745432	-0.377969	0.161451	-0.392090	-0.162842	0.634521	93.918039	-82.400989	-92.719607
02809		9.722244	2.118861	-1.116712	-0.727229	-0.397450	0.177406	-0.385986	-0.162842	0.632324	95.286114	-82.484175	-94.517034
02810		9.713074	2.158995	-1.108939	-0.697558	-0.401720	0.192351	-0.385986	-0.165283	0.634277	96.725073	-82.569756	-96.368386
02811		9.513492	2.243037	-1.279675	-0.657730	-0.430358	0.196954	-0.385498	-0.165771	0.641113	98.359654	-82.649338	-98.393709
02812		9.548713	2.425356	-1.462596	-0.656541	-0.410436	0.193435	-0.375244	-0.168945	0.642090	99.935676	-82.721355	-100.358800
02813		9.619269	2.365334	-1.275940	-0.705444	-0.306850	0.199031	-0.379883	-0.182617	0.633545	101.068970	-82.801442	-101.905679
02814		9.580532	2.110759	-1.110748	-0.761412	-0.266614	0.195639	-0.374023	-0.182861	0.635742	102.009529	-82.880598	-103.290090
02815		9.805759	1.632409	-0.897864	-0.763451	-0.265504	0.157120	-0.385254	-0.184326	0.633789	102.935253	-82.935604	-104.660794
02816		10.101093	1.114984	-0.903945	-0.693532	-0.271477	0.106226	-0.375244	-0.193604	0.639404	103.881894	-82.958566	-106.011764
02817		10.274158	0.712419	-1.052952	-0.541350	-0.301656	0.052317	-0.370117	-0.192139	0.639893	104.998931	-82.944408	-107.446886
02818		10.367229	0.478657	-1.287297	-0.311926	-0.351410	0.010454	-0.372803	-0.189209	0.636719	106.401188	-82.895507	-109.036751
02819		10.370267	0.444070	-1.392698	-0.077116	-0.404510	-0.012671	-0.362061	-0.192627	0.633057	108.119013	-82.819651	-110.809584
02820		10.359327	0.515431	-1.466015	0.104008	-0.413682	-0.006001	-0.364502	-0.189453	0.639404	109.946043	-82.738915	-112.587953
02821		10.342335	0.642204	-1.536663	0.223078	-0.370887	0.021595	-0.366211	-0.190918	0.638184	111.672907	-82.674758	-114.197088
02822		10.362501	0.839853	-1.301435	0.279008	-0.266204	0.055150	-0.354980	-0.190430	0.634521	113.029371	-82.645773	-115.400434
02823		10.217109	1.046839	-0.966229	0.224573	-0.189489	0.078718	-0.365967	-0.190430	0.637207	114.081038	-82.643448	-116.328133
02824		10.247944	1.299165	-0.480554	0.099178	-0.162513	0.073037	-0.356201	-0.190430	0.639160	114.936917	-82.642665	-117.130696
02825		10.458505	1.406181	-0.167135	0.018970	-0.170834	0.039302	-0.355713	-0.191895	0.638184	115.718737	-82.620826	-117.905111
02826		10.620683	1.417259	-0.034493	0.016419	-0.186096	-0.016242	-0.353271	-0.186279	0.638672	116.441570	-82.565336	-118.621406
02827		10.687939	1.248212	-0.038999	0.039422	-0.193831	-0.077676	-0.353027	-0.188477	0.636963	117.078897	-82.475243	-119.238465
02828		10.659246	1.145650	-0.026043	0.076157	-0.206318	-0.131280	-0.352539	-0.196045	0.637939	117.658999	-82.353839	-119.776530
02829		10.314626	1.128692	-0.102208	0.128832	-0.279610	-0.177189	-0.346680	-0.183838	0.637207	118.434624	-82.188533	-120.481815
02830		9.897596	1.258088	-0.244256	0.163622	-0.308914	-0.198459	-0.346924	-0.185547	0.639648	119.257304	-82.003281	-121.214608
02831		9.434790	1.375819	-0.116148	0.084923	-0.308408	-0.180680	-0.346680	-0.193604	0.639160	120.037753	-81.825489	-121.950787
02832		9.009176	1.412997	0.063487	-0.094344	-0.314483	-0.157794	-0.348877	-0.188477	0.641113	120.746308	-81.656074	-122.718251
02833		8.697514	1.402048	0.087840	-0.257838	-0.297016	-0.140301	-0.338379	-0.184570	0.645752	121.314415	-81.499025	-123.438930
02834		8.566175	1.238794	0.085583	-0.335916	-0.231648	-0.134098	-0.347168	-0.195068	0.639893	121.613651	-81.363941	-123.933024
02835		8.611184	0.930252	0.220999	-0.358329	-0.144500	-0.144245	-0.342529	-0.199219	0.637451	121.596808	-81.249715	-124.120714
02836		8.812192	0.475609	0.455106	-0.338903	-0.065091	-0.160067	-0.338867	-0.198486	0.645264	121.305208	-81.151779	-124.018978
02837		9.213535	0.152589	0.751097	-0.312323	-0.010426	-0.182760	-0.339600	-0.204102	0.640869	120.824122	-81.058561	-123.710197
02838		9.621103	-0.003489	0.959839	-0.261994	0.029380	-0.208782	-0.340088	-0.200684	0.635742	120.204268	-80.963908	-123.231535
02839		9.880149	0.015858	0.959606	-0.179403	0.059484	-0.226553	-0.333252	-0.213867	0.637451	119.522688	-80.867894	-122.642426
02840		10.057915	0.039617	0.927842	-0.078984	0.082233	-0.220316	-0.339844	-0.208252	0.631348	118.847303	-80.780647	-122.001159
02841		10.180509	0.060091	1.043628	-0.006136	0.079748	-0.187052	-0.336426	-0.209473	0.634766	118.293255	-80.707988	-121.440395
02842		10.278434	0.058872	1.043052	0.019705	0.064590	-0.133723	-0.341309	-0.213379	0.632813	117.890914	-80.657935	-121.018378
02843		10.184613	0.218077	1.067621	-0.009783	0.085373	-0.072630	-0.342041	-0.213135	0.632324	117.514950	-80.643462	-120.640063
02844		10.033034	0.488458	1.028098	-0.046119	0.145606	-0.041091	-0.350342	-0.215576	0.632324	116.977407	-80.660959	-120.119318
02845		9.887230	0.778653	1.186862	-0.065739	0.237312	-0.021097	-0.347168	-0.215576	0.626709	116.175588	-80.710635	-119.341986
02846		9.733590	0.958781	1.276748	-0.093077	0.259210	-0.014201	-0.346924	-0.216064	0.625977	115.284529	-80.768112	-118.490514
02847		9.634331	1.089998	1.239630	-0.107733	0.245321	-0.007663	-0.350098	-0.219238	0.631104	114.434784	-80.822911	-117.689248
02848		9.623580	1.170626	1.199932	-0.124546	0.200695	0.011234	-0.345215	-0.212646	0.614258	113.731908	-80.876112	-117.046945
02849		9.794247	1.327369	1.036891	-0.139209	0.162949	0.041576	-0.350342	-0.213623	0.612549	113.186901	-80.934853	-116.572808
02850		9.980020	1.264575	1.014788	-0.148444	0.137756	0.082600	-0.350830	-0.214844	0.622559	112.764121	-81.009685	-116.228210
02851		10.252422	1.083771	1.043127	-0.156111	0.137642	0.145858	-0.341309	-0.216064	0.621582	112.426563	-81.116881	-115.974081
02852		10.293260	0.870828	1.007272	-0.160338	0.129693	0.199859	-0.351318	-0.213623	0.618164	112.174461	-81.251527	-115.809316
02853		10.192041	0.677413	0.758548	-0.137969	0.129722	0.233270	-0.351318	-0.219971	0.622559	111.984203	-81.403067	-115.693859
02854		9.982885	0.532344	0.472964	-0.102759	0.162760	0.249866	-0.346924	-0.219482	0.612061	111.705426	-81.571219	-115.468942
02855		9.777935	0.443865	0.283632	-0.081663	0.201590	0.252544	-0.359863	-0.222168	0.614746	111.298685	-81.747945	-115.102181
02856		9.550799	0.495395	0.092627	-0.102224	0.248855	0.244278	-0.359375	-0.226318	0.618164	110.663505	-81.930314	-114.517168
02857		9.393830	0.557104	-0.294517	-0.078928	0.265542	0.246500	-0.363037	-0.219238	0.617676	109.961684	-82.115372	-113.851195
02858		9.417133	0.558360	-0.297734	-0.053590	0.247002	0.239690	-0.359375	-0.221436	0.607178	109.296504	-82.292940	-113.208348
02859		9.683849	0.457547	-0.351553	-0.056688	0.268074	0.249269	-0.354736	-0.227539	0.607910	108.535681	-82.477663	-112.470568
02860		9.820160	0.346990	-0.315693	-0.067877	0.299155	0.244889	-0.369873	-0.216064	0.610107	107.582709	-82.664911	-111.546345
02861		10.013658	0.361829	-0.100097	-0.065186	0.309206	0.256699	-0.369141	-0.216797	0.597656	106.564724	-82.857387	-110.554878
02862		9.930599	0.432270	0.055661	-0.080316	0.311692	0.234999	-0.361328	-0.219971	0.601807	105.433128	-83.036798	-109.458681
02863		9.677671	0.510022	0.187292	-0.075114	0.288101	0.211111	-0.369873	-0.216064	0.604736	104.339279	-83.196015	-108.397289
02864		9.494442	0.544723	0.025411	-0.012995	0.291274	0.173807	-0.374023	-0.215332	0.592041	103.161327	-83.333208	-107.216353
02865		9.348328	0.527878	-0.155321	0.089032	0.324604	0.137870	-0.378174	-0.209961	0.595459	101.805949	-83.450504	-105.797609
02866		9.243679	0.461685	-0.039490	0.147483	0.339662	0.106576	-0.375000	-0.215088	0.599609	100.318367	-83.548589	-104.213096
02867		9.303238	0.463982	0.072352	0.172238	0.348695	0.085707	-0.384033	-0.220459	0.596680	98.749835	-83.630139	-102.532442
02868		9.427891	0.526592	0.136845	0.162740	0.359377	0.074497	-0.390381	-0.206299	0.596191	97.059495	-83.701563	-100.735690
02869		9.604850	0.589156	0.113850	0.148102	0.369563	0.067049	-0.382080	-0.213623	0.598633	95.279448	-83.762617	-98.856626
02870		9.845824	0.669877	0.030899	0.127065	0.392918	0.078385	-0.379395	-0.204590	0.581787	93.319062	-83.825114	-96.809273
02871		9.823702	0.666679	0.144124	0.100838	0.424946	0.082076	-0.384521	-0.207275	0.587891	91.148974	-83.881787	-94.565584
02872		9.854334	0.801350	0.201064	0.067051	0.408046	0.074960	-0.392334	-0.210693	0.582275	88.998517	-83.925862	-92.362113
02873		9.762686	0.961902	0.127225	0.060280	0.385800	0.059121	-0.390625	-0.211182	0.581543	86.955587	-83.952189	-90.270022
02874		9.669335	1.084066	0.036144	0.055077	0.367579	0.048418	-0.393799	-0.204590	0.574707	84.982647	-83.965855	-88.252192
02875		9.499415	1.101055	-0.082797	0.042481	0.361549	0.043829	-0.397705	-0.207520	0.580811	83.046764	-83.969587	-86.278111
02876		9.313556	1.048543	-0.008417	-0.009673	0.363688	0.049319	-0.400879	-0.211670	0.579834	81.049448	-83.969504	-84.273102
02877		9.168889	0.880234	0.046751	-0.075255	0.379172	0.048941	-0.402832	-0.211426	0.574219	78.950578	-83.959832	-82.202949
02878		9.116189	0.764936	-0.018721	-0.086261	0.358958	0.052575	-0.402832	-0.205566	0.573975	76.941395	-83.947066	-80.230071
02879		9.517025	0.669430	-0.087379	-0.101876	0.394468	0.045508	-0.395996	-0.207520	0.573242	74.774796	-83.917647	-78.107021
02880		9.509634	0.574190	-0.045287	-0.097071	0.409493	0.046172	-0.410645	-0.206055	0.571045	72.541795	-83.877723	-75.915093
02881		9.614913	0.512975	0.131853	-0.078385	0.397548	0.042189	-0.409180	-0.214844	0.569336	70.432953	-83.828921	-73.836284
02882		9.509191	0.464301	0.307883	-0.081639	0.384104	0.028363	-0.408447	-0.215332	0.563477	68.435408	-83.767523	-71.871929
02883		9.409840	0.484105	0.340027	-0.076677	0.356242	0.006950	-0.415771	-0.206543	0.560791	66.672840	-83.693944	-70.140007
02884		9.365891	0.488914	0.406711	-0.050402	0.338933	-0.011362	-0.417236	-0.207031	0.554443	65.072612	-83.609315	-68.556897
02885		9.333198	0.463483	0.313393	-0.021466	0.329672	-0.028663	-0.417236	-0.212402	0.560547	63.626290	-83.513475	-67.110824
02886		9.292243	0.439619	0.420519	0.012455	0.300544	-0.037802	-0.419189	-0.206543	0.560791	62.377466	-83.416698	-65.844622
02887		9.186514	0.414052	0.460080	0.029281	0.278279	-0.049831	-0.422363	-0.214600	0.547363	61.312544	-83.317068	-64.752686
02888		9.154564	0.459381	0.420617	0.037604	0.245478	-0.059962	-0.428467	-0.200684	0.547852	60.432435	-83.219296	-63.842785
02889		9.119458	0.604208	0.395680	0.041468	0.222538	-0.059487	-0.420654	-0.212158	0.552490	59.686246	-83.126933	-63.064388
02890		9.117245	0.681090	0.384938	0.039010	0.197523	-0.059860	-0.420410	-0.209229	0.558350	59.047471	-83.040464	-62.396459
02891		8.903014	0.619196	0.365750	0.031296	0.162049	-0.068118	-0.420166	-0.213379	0.558350	58.593525	-82.959836	-61.918087
02892		8.970178	0.648009	0.230540	0.022168	0.156294	-0.073403	-0.427979	-0.204346	0.553467	58.167559	-82.877791	-61.474115
02893		9.176506	0.679591	0.114923	0.017672	0.147602	-0.086246	-0.424072	-0.208984	0.541748	57.825767	-82.791912	-61.116475
02894		9.404980	0.763002	0.020415	0.002289	0.127286	-0.080127	-0.425781	-0.215820	0.553711	57.533343	-82.714861	-60.818463
02895		9.593160	0.822247	-0.091785	0.017983	0.062484	-0.059850	-0.428467	-0.210205	0.546387	57.461944	-82.667557	-60.733137
02896		9.738042	0.777191	-0.252745	0.028267	0.016815	-0.039569	-0.419189	-0.217529	0.544678	57.507896	-82.644028	-60.761243
02897		9.658340	0.666771	-0.342079	0.032779	0.000221	-0.038039	-0.424072	-0.205811	0.534424	57.626280	-82.626418	-60.858721
02898		9.614644	0.568235	-0.385552	0.015385	0.004464	-0.047577	-0.421875	-0.216797	0.541016	57.729502	-82.602829	-60.952046
02899		9.547189	0.483573	-0.298361	-0.005472	-0.009478	-0.065095	-0.425293	-0.219482	0.540771	57.924365	-82.574999	-61.148758
02900		9.667004	0.413821	-0.346984	-0.008984	0.000153	-0.079822	-0.426025	-0.209473	0.534912	58.103089	-82.537035	-61.332362
02901		9.878996	0.381154	-0.293745	0.002983	0.032678	-0.103611	-0.421631	-0.213379	0.544189	58.231863	-82.477567	-61.457566
02902		9.517619	0.288977	-0.101804	0.069595	0.011780	-0.120894	-0.419922	-0.211426	0.545654	58.501769	-82.415990	-61.687837
02903		9.563545	0.265052	-0.089345	0.126035	0.006022	-0.133660	-0.419678	-0.218506	0.541504	58.859483	-82.349608	-61.972924
02904		9.526087	0.226348	-0.150445	0.196400	-0.001143	-0.139512	-0.416992	-0.208252	0.542969	59.280386	-82.282379	-62.282383
02905		9.572609	0.206570	-0.231206	0.289341	-0.018700	-0.136673	-0.419189	-0.211670	0.545410	59.815590	-82.221124	-62.652254
02906		9.488415	0.199160	-0.215849	0.365388	-0.033850	-0.127778	-0.415527	-0.214844	0.540283	60.413782	-82.168379	-63.043093
02907		9.489584	0.251791	-0.297125	0.417282	-0.036373	-0.106486	-0.418213	-0.205078	0.544434	61.010937	-82.126162	-63.401596
02908		9.546966	0.329021	-0.417336	0.473478	-0.035959	-0.096669	-0.413818	-0.215088	0.534424	61.604826	-82.088601	-63.725723
02909		9.522416	0.314315	-0.487359	0.521590	-0.018972	-0.088232	-0.411377	-0.202881	0.549316	62.153460	-82.049920	-63.974962
02910		9.545808	0.303945	-0.621923	0.582265	-0.026844	-0.083657	-0.417236	-0.204102	0.550293	62.743774	-82.015732	-64.232666
02911		9.571898	0.261220	-0.620339	0.640739	-0.032487	-0.091910	-0.410400	-0.211426	0.544189	63.408505	-81.977969	-64.530249
02912		9.557185	0.154724	-0.736525	0.696643	-0.039512	-0.107505	-0.417725	-0.207275	0.538574	64.145304	-81.933974	-64.869826
02913		9.515835	0.094826	-0.859491	0.772569	-0.059636	-0.124761	-0.412598	-0.197266	0.541504	65.030886	-81.884804	-65.314253
02914		9.510203	0.048644	-0.937719	0.846251	-0.075759	-0.140243	-0.409424	-0.189941	0.538574	66.026493	-81.830981	-65.828846
02915		9.405910	0.018546	-1.114657	0.916030	-0.083255	-0.156781	-0.408936	-0.187988	0.544434	67.113028	-81.768226	-66.393377
02916		9.354010	0.041889	-1.285767	0.974053	-0.066836	-0.166293	-0.410156	-0.189453	0.546875	68.166924	-81.696086	-66.893129
02917		9.182587	0.031146	-1.389472	1.041656	-0.061102	-0.185157	-0.408936	-0.179443	0.542969	69.258749	-81.610607	-67.390467
02918		9.262178	0.104843	-1.005220	1.088473	-0.016706	-0.199891	-0.401367	-0.171875	0.559814	70.213628	-81.507964	-67.724150
02919		9.425566	0.225213	-0.366199	1.101221	0.022443	-0.219616	-0.408447	-0.173584	0.551758	71.051493	-81.385614	-67.930426
02920		9.942057	0.455657	-0.253907	1.109725	-0.011822	-0.220987	-0.407959	-0.167969	0.549561	71.996378	-81.269206	-68.241967
02921		10.623393	1.115584	-0.245787	1.041470	-0.040626	-0.196321	-0.397461	-0.165527	0.540039	72.966075	-81.169535	-68.616403
02922		11.171336	1.673122	-0.185994	0.993111	-0.081881	-0.139427	-0.394287	-0.157227	0.547119	73.973630	-81.107853	-69.059195
02923		11.388617	1.995756	-0.122669	0.936851	-0.122057	-0.103050	-0.410400	-0.155762	0.549316	75.050874	-81.070178	-69.603301
02924		11.292499	2.144018	0.091545	0.865820	-0.136867	-0.102401	-0.396240	-0.152100	0.554932	76.126855	-81.034393	-70.189265
02925		10.971456	2.272132	0.431038	0.780116	-0.176886	-0.103428	-0.408447	-0.150879	0.551758	77.294143	-81.000523	-70.915556
02926		11.023838	2.657922	0.625686	0.661893	-0.231203	-0.085728	-0.401367	-0.142090	0.550049	78.560426	-80.981662	-71.812540
02927		11.247613	3.237360	0.671043	0.501053	-0.307649	-0.018675	-0.399658	-0.138672	0.555176	79.962950	-81.004449	-72.938941
02928		11.471986	3.730783	0.816922	0.288817	-0.378684	0.076284	-0.392334	-0.144043	0.560059	81.447948	-81.083993	-74.273484
02929		11.428395	4.000319	0.950063	0.015963	-0.414547	0.182621	-0.395508	-0.145996	0.561768	82.887692	-81.220424	-75.718343
02930		10.901192	3.771853	0.848222	-0.270380	-0.545745	0.285195	-0.392578	-0.142334	0.562988	84.658774	-81.418020	-77.665211
02931		10.172787	3.194407	0.670250	-0.537368	-0.637810	0.343989	-0.385498	-0.150879	0.563232	86.709589	-81.642423	-80.046950
02932		9.397463	2.314620	0.526253	-0.644011	-0.626699	0.321150	-0.382813	-0.149170	0.557373	88.769563	-81.841561	-82.499741
02933		8.818006	1.411197	-0.363102	-0.619906	-0.589038	0.248234	-0.375244	-0.153809	0.561523	90.797673	-81.985329	-84.904001
02934		8.534865	0.357020	-0.785658	-0.491494	-0.509336	0.150866	-0.373291	-0.153320	0.566650	92.624056	-82.064030	-87.030894
02935		8.382377	-0.574799	-0.632459	-0.255802	-0.481448	0.048532	-0.361084	-0.151367	0.559570	94.478164	-82.074853	-89.047924
02936		8.646067	-1.217655	-0.380242	-0.002319	-0.528139	-0.014345	-0.357666	-0.152588	0.561279	96.638001	-82.038378	-91.228426
02937		9.052095	-1.377307	-0.328031	0.211123	-0.570120	-0.026269	-0.369629	-0.160645	0.559082	99.061312	-81.978904	-93.550384
02938		9.566698	-1.068844	-0.269358	0.389005	-0.563681	0.004618	-0.368164	-0.153564	0.561279	101.543997	-81.924820	-95.831248
02939		9.876960	-0.558404	-0.131846	0.500228	-0.500965	0.062387	-0.356445	-0.159180	0.570801	103.867773	-81.896509	-97.885924
02940		10.074077	0.040743	-0.017346	0.576029	-0.412387	0.136232	-0.359375	-0.154053	0.575195	105.953990	-81.912258	-99.658520
02941		9.994265	0.618340	0.084443	0.627126	-0.297949	0.190210	-0.350830	-0.154297	0.573486	107.701669	-81.967023	-101.057775
02942		9.680561	1.318347	0.272330	0.645805	-0.191773	0.196196	-0.357910	-0.146484	0.570801	109.076554	-82.040144	-102.071322
02943		9.304730	1.967266	0.554207	0.670192	-0.115264	0.172162	-0.352051	-0.151123	0.569824	110.157154	-82.110695	-102.771689
02944		8.897735	2.386933	0.900887	0.730592	-0.030707	0.131891	-0.351807	-0.138428	0.569824	110.897312	-82.176352	-103.095075
02945		8.559944	2.697104	1.075484	0.806271	0.066313	0.102372	-0.351807	-0.143311	0.571777	111.266254	-82.244521	-102.998235
02946		8.335269	2.919458	1.277680	0.866045	0.176418	0.085442	-0.342285	-0.130615	0.570801	111.207270	-82.327751	-102.436649
02947		8.321413	2.996561	1.472503	0.884041	0.292526	0.091303	-0.353271	-0.123291	0.570068	110.695461	-82.436317	-101.406299
02948		8.559296	2.951567	1.669581	0.862144	0.359049	0.111128	-0.355225	-0.122314	0.570557	109.899617	-82.568324	-100.103902
02949		9.001462	3.000818	1.601250	0.784101	0.421520	0.130418	-0.355957	-0.121582	0.562988	108.787971	-82.718652	-98.527093
02950		9.707834	2.944898	1.563889	0.701258	0.466042	0.156372	-0.355469	-0.105469	0.573242	107.407231	-82.887643	-96.728825
02951		10.280735	2.925383	1.465482	0.598967	0.463750	0.163836	-0.359131	-0.115479	0.566650	105.917202	-83.053650	-94.878783
02952		10.627078	2.678365	1.301438	0.535068	0.402647	0.154905	-0.360107	-0.109131	0.558838	104.576615	-83.200767	-93.218007
02953		10.519135	2.389269	1.032638	0.472979	0.301295	0.154352	-0.363037	-0.108643	0.554443	103.625825	-83.328530	-91.984781
02954		10.128548	2.081154	0.803155	0.404923	0.161262	0.111340	-0.363525	-0.103027	0.559814	103.216896	-83.412776	-91.337747
02955		10.074916	1.913690	0.421800	0.303575	-0.009219	0.032771	-0.370361	-0.107910	0.558594	103.486739	-83.429766	-91.431342
02956		9.848336	1.809538	-0.046938	0.230409	-0.103559	-0.056503	-0.368896	-0.108887	0.557617	104.055217	-83.384897	-91.868860
02957		9.766427	1.821292	-0.381059	0.181792	-0.154872	-0.160452	-0.358643	-0.108887	0.556885	104.712624	-83.273721	-92.422930
02958		9.625052	1.757431	-0.518776	0.142074	-0.160255	-0.246793	-0.359375	-0.104736	0.560303	105.235596	-83.114044	-92.865721
02959		9.515303	1.597124	-0.627227	0.119040	-0.178092	-0.311292	-0.362305	-0.108398	0.564453	105.730849	-82.914814	-93.293011
02960		9.450180	1.512392	-0.761646	0.114643	-0.165726	-0.362711	-0.353271	-0.106934	0.562256	106.073323	-82.689536	-93.570031
02961		9.606710	1.490596	-0.873622	0.116600	-0.087981	-0.370667	-0.363281	-0.114014	0.558838	106.073043	-82.471388	-93.499425
02962		9.767778	1.341029	-0.779519	0.147973	-0.012560	-0.348863	-0.364502	-0.117188	0.561768	105.804169	-82.277784	-93.140611
02963		9.789003	1.554528	-0.766168	0.180029	0.040272	-0.323102	-0.363281	-0.120850	0.561768	105.394234	-82.105575	-92.619770
02964		9.594052	1.869933	-0.753441	0.209123	0.116434	-0.275383	-0.358887	-0.114990	0.560059	104.764645	-81.971131	-91.861043
02965		9.752598	2.435645	-0.681324	0.184545	0.147141	-0.235818	-0.356445	-0.115479	0.558838	104.070353	-81.861179	-91.050028
02966		9.261854	2.894870	-0.514492	0.064859	0.175908	-0.189365	-0.354736	-0.115234	0.551270	103.252466	-81.780056	-90.184091
02967		9.619418	3.646519	-0.218749	-0.169777	0.140128	-0.135836	-0.372803	-0.116211	0.560791	102.507185	-81.722033	-89.526352
02968		9.428156	4.115785	-0.206103	-0.466597	0.202328	-0.100816	-0.360840	-0.120361	0.554443	101.384220	-81.689920	-88.659423
02969		9.262245	4.304470	-0.056577	-0.698147	0.201213	-0.084419	-0.368652	-0.127441	0.557861	100.159723	-81.663948	-87.823199
02970		9.019109	3.934774	0.160377	-0.870981	0.292301	-0.065045	-0.362061	-0.140625	0.557129	98.496348	-81.654591	-86.643923
02971		8.654540	3.246277	0.432703	-1.009355	0.381543	-0.062521	-0.365234	-0.129883	0.552979	96.420739	-81.647519	-85.127636
02972		8.646411	2.638962	0.489197	-1.086441	0.387615	-0.072920	-0.364990	-0.146484	0.548584	94.271309	-81.626792	-83.581612
02973		8.764789	2.148920	0.365261	-1.103097	0.371447	-0.088728	-0.370361	-0.150879	0.545166	92.190895	-81.588190	-82.114590
02974		8.970518	1.889744	0.229548	-1.070798	0.330774	-0.098811	-0.372314	-0.160889	0.544434	90.295301	-81.535852	-80.815736
02975		9.189129	1.622906	0.066657	-1.031144	0.278189	-0.093628	-0.377441	-0.163330	0.543213	88.651384	-81.480985	-79.747988
02976		9.475678	1.409785	-0.163117	-0.981207	0.218982	-0.078165	-0.366699	-0.170166	0.539063	87.268555	-81.431921	-78.915353
02977		9.681943	1.122145	-0.175797	-0.915225	0.170558	-0.045373	-0.369629	-0.182861	0.537354	86.118731	-81.400633	-78.279867
02978		9.731596	0.780088	-0.134186	-0.847374	0.119538	-0.014839	-0.377197	-0.183350	0.544922	85.189697	-81.387161	-77.828513
02979		9.678731	0.598175	-0.136788	-0.782480	0.089001	0.030976	-0.371826	-0.181396	0.532959	84.406050	-81.400554	-77.486414
02980		9.478952	0.550028	-0.027645	-0.710980	0.088493	0.072990	-0.377930	-0.192871	0.541504	83.639175	-81.437126	-77.120110
02981		9.340987	0.703333	0.124751	-0.652870	0.084362	0.101810	-0.376465	-0.190918	0.530273	82.910662	-81.489771	-76.758732
02982		9.211015	1.104212	0.167064	-0.606512	0.040259	0.116380	-0.381836	-0.189941	0.526855	82.355871	-81.553263	-76.546495
02983		9.045065	1.598681	0.101703	-0.581467	0.006132	0.116357	-0.372803	-0.200439	0.527344	81.948570	-81.619224	-76.468583
02984		9.008717	2.070083	-0.058683	-0.566922	-0.002319	0.110803	-0.375000	-0.200439	0.524170	81.574288	-81.682578	-76.415926
02985		8.875835	2.414051	-0.074133	-0.582534	-0.008106	0.116173	-0.380371	-0.205811	0.526855	81.214676	-81.749498	-76.386849
02986		9.056456	2.555823	0.025306	-0.629378	-0.026531	0.104956	-0.378418	-0.202393	0.527588	80.897037	-81.811564	-76.427510
02987		9.174318	2.659279	0.360411	-0.709284	-0.049541	0.094284	-0.379150	-0.213379	0.519287	80.636713	-81.869865	-76.572111
02988		9.192402	2.775301	0.817370	-0.792392	-0.037217	0.096790	-0.381348	-0.220947	0.523438	80.269664	-81.928335	-76.657080
02989		9.183535	2.915969	0.373546	-0.879208	-0.051634	0.106375	-0.375977	-0.225098	0.517334	79.909185	-81.993904	-76.798814
02990		8.928731	2.972930	-0.385329	-0.915303	-0.129841	0.144656	-0.372803	-0.222412	0.521729	79.807997	-82.088770	-77.223175
02991		8.769200	3.012829	-0.767870	-1.002904	-0.177880	0.173836	-0.369629	-0.228271	0.518066	79.844522	-82.205252	-77.837150
02992		8.893850	2.818851	-0.989971	-1.083691	-0.201965	0.175927	-0.372803	-0.231934	0.525146	79.936350	-82.324911	-78.553280
02993		8.752051	2.724521	-1.107137	-1.125323	-0.214313	0.150677	-0.374756	-0.235596	0.510742	80.095124	-82.431668	-79.361024
02994		9.003737	2.552443	-1.087288	-1.123206	-0.231759	0.129650	-0.366211	-0.243896	0.518799	80.352193	-82.527482	-80.266169
02995		9.186112	2.283905	-1.036856	-1.125895	-0.225746	0.103726	-0.371094	-0.241455	0.521973	80.621592	-82.607906	-81.185453
02996		9.392494	2.009002	-1.066348	-1.106717	-0.234360	0.084906	-0.365967	-0.249268	0.515625	80.959267	-82.677442	-82.161908
02997		9.625407	1.879442	-1.089776	-1.067969	-0.223719	0.060540	-0.368408	-0.260986	0.519775	81.307015	-82.731891	-83.126437
02998		9.784699	1.821133	-1.006963	-0.989811	-0.190759	0.037613	-0.368408	-0.263916	0.512207	81.570438	-82.769481	-83.960228
02999		9.814382	1.776762	-0.912174	-0.893368	-0.167229	0.037265	-0.365234	-0.271240	0.502686	81.795556	-82.804875	-84.700134
03000		9.709282	1.776253	-0.850853	-0.818760	-0.184739	0.048382	-0.374268	-0.288574	0.512695	82.134976	-82.847117	-85.511565
03001		9.566967	1.884455	-0.882473	-0.763235	-0.189117	0.057326	-0.366699	-0.281982	0.510986	82.533639	-82.894517	-86.351090
03002		9.445172	2.060529	-1.014315	-0.697826	-0.170658	0.064263	-0.364014	-0.275635	0.510742	82.884114	-82.943427	-87.103630
03003		9.329559	2.328162	-1.144387	-0.645642	-0.161006	0.077632	-0.360352	-0.285400	0.502686	83.225861	-82.999114	-87.817740
03004		9.193103	2.610601	-1.229802	-0.611176	-0.161942	0.093371	-0.360352	-0.284912	0.502441	83.587244	-83.062846	-88.530998
03005		9.404663	2.875349	-1.270148	-0.633042	-0.115997	0.117767	-0.372803	-0.300537	0.502441	83.721557	-83.137620	-89.028693
03006		9.638546	2.907115	-1.040136	-0.657485	-0.060531	0.127067	-0.363037	-0.285156	0.500977	83.574077	-83.213677	-89.255844
03007		10.030475	2.786404	-0.762657	-0.667190	-0.055173	0.120059	-0.369385	-0.293213	0.500488	83.404258	-83.285975	-89.466831
03008		10.428066	2.391726	-0.394999	-0.623035	-0.054673	0.107504	-0.360352	-0.297363	0.496582	83.260979	-83.350582	-89.678147
03009		10.622256	1.903768	-0.335785	-0.587777	-0.099159	0.092099	-0.359619	-0.302002	0.499268	83.370694	-83.409978	-90.124682
03010		10.725103	1.416403	-0.731817	-0.479318	-0.171575	0.073763	-0.370605	-0.306641	0.495605	83.914002	-83.462617	-90.944112
03011		10.686765	1.067794	-0.940711	-0.302831	-0.220910	0.060732	-0.361572	-0.289551	0.496826	84.827235	-83.510015	-92.034967
03012		10.575213	0.941157	-0.949574	-0.169999	-0.228852	0.046956	-0.357422	-0.312744	0.502441	85.872753	-83.547198	-93.181330
03013		10.602245	0.862544	-0.565861	-0.115284	-0.181947	0.030099	-0.361572	-0.304688	0.494873	86.732042	-83.571441	-94.109602
03014		10.655670	0.776303	-0.331982	-0.105499	-0.138519	-0.005070	-0.360840	-0.306152	0.497803	87.386765	-83.572347	-94.825451
03015		10.898563	0.674491	-0.109752	-0.049029	-0.111226	-0.068090	-0.353271	-0.314941	0.492676	87.950029	-83.536240	-95.417621
03016		11.262549	0.512415	-0.059388	0.061037	-0.078776	-0.142363	-0.358154	-0.297363	0.497559	88.413743	-83.455893	-95.845343
03017		11.745319	0.226556	0.035280	0.240132	-0.058586	-0.239984	-0.351318	-0.310547	0.493164	88.882254	-83.319483	-96.175537
03018		11.569797	0.200570	0.039615	0.458661	-0.171043	-0.344688	-0.357666	-0.308594	0.511719	89.995767	-83.122738	-97.028528
03019		10.980737	0.613987	0.117373	0.648268	-0.320660	-0.412582	-0.357422	-0.310791	0.510010	91.846038	-82.883615	-98.515508
03020		10.135923	1.235838	0.044799	0.715218	-0.484826	-0.416411	-0.355469	-0.310059	0.508057	94.346519	-82.630109	-100.619375
03021		9.208804	2.003708	-0.185450	0.597361	-0.601085	-0.347272	-0.346680	-0.303223	0.517578	97.157279	-82.397676	-103.106126
03022		8.526638	2.736080	-0.544610	0.378854	-0.598594	-0.244136	-0.338867	-0.307373	0.517578	99.741534	-82.208558	-105.491169
03023		8.094783	3.186157	-0.826200	0.171048	-0.513825	-0.137626	-0.351074	-0.309814	0.526367	101.840096	-82.075958	-107.507729
03024		7.946906	3.174859	-0.838817	0.010346	-0.358992	-0.068399	-0.336182	-0.314209	0.524658	103.228763	-81.992577	-108.900150
03025		7.996882	2.718699	-0.489477	-0.106246	-0.231952	-0.062143	-0.341064	-0.305664	0.521240	104.034545	-81.926587	-109.772452
03026		8.429203	2.093565	0.124408	-0.212852	-0.178652	-0.122679	-0.344727	-0.310547	0.521729	104.494840	-81.832642	-110.356677
03027		8.940304	1.405767	0.599464	-0.283241	-0.170558	-0.222755	-0.336182	-0.318604	0.522705	104.774245	-81.684377	-110.800017
03028		9.377960	0.795950	0.985706	-0.305609	-0.169271	-0.318874	-0.336182	-0.316895	0.527832	104.924116	-81.482301	-111.124563
03029		9.587937	0.377308	1.176920	-0.270419	-0.198891	-0.398933	-0.338623	-0.318115	0.521973	105.114691	-81.231911	-111.471083
03030		9.606022	0.093910	1.154609	-0.202210	-0.175075	-0.434494	-0.336914	-0.325439	0.517822	105.208435	-80.964835	-111.679329
03031		9.558712	-0.112292	1.109806	-0.104768	-0.122424	-0.429233	-0.339355	-0.321777	0.517090	105.179112	-80.709017	-111.707464
03032		9.377619	-0.186914	1.165288	-0.015066	-0.039554	-0.390879	-0.339355	-0.328613	0.518311	104.957624	-80.486410	-111.487905
03033		9.208112	-0.209017	1.272332	0.031091	0.042854	-0.333474	-0.324463	-0.326904	0.530029	104.557712	-80.307811	-111.061272
03034		9.090993	-0.088931	1.394511	0.033805	0.125395	-0.265200	-0.328369	-0.333496	0.519531	103.960673	-80.177896	-110.432131
03035		9.143409	0.118575	1.545767	0.016652	0.205581	-0.205655	-0.325928	-0.333496	0.526855	103.162998	-80.090906	-109.609827
03036		9.145532	0.419698	1.764531	0.006632	0.275877	-0.172843	-0.330566	-0.330078	0.522705	102.168647	-80.028712	-108.592881
03037		9.285506	0.781312	1.977805	-0.021041	0.293222	-0.158272	-0.329102	-0.336914	0.516602	101.129429	-79.973797	-107.546904
03038		9.564826	1.234153	2.007434	-0.090083	0.263286	-0.159288	-0.331055	-0.333008	0.517578	100.152061	-79.911816	-106.603175
03039		9.813215	1.668824	1.973540	-0.173454	0.243897	-0.166220	-0.329102	-0.331055	0.510986	99.201398	-79.841443	-105.735457
03040		10.083228	2.109440	1.641421	-0.223478	0.185833	-0.162041	-0.327881	-0.332275	0.508789	98.413887	-79.765907	-105.061881
03041		10.112988	2.179248	1.102021	-0.221448	0.087587	-0.133735	-0.332275	-0.337402	0.518799	97.962385	-79.697265	-104.728999
03042		10.322629	2.113392	0.646927	-0.202834	-0.008470	-0.092473	-0.336914	-0.336426	0.510742	97.836690	-79.644030	-104.715797
03043		10.401652	1.802198	0.245196	-0.156239	-0.051161	-0.022811	-0.334229	-0.331055	0.521240	97.905888	-79.627130	-104.874168
03044		10.490131	1.408154	-0.024126	-0.091397	-0.047370	0.069072	-0.329590	-0.338135	0.513184	98.034570	-79.662477	-105.054639
03045		10.307382	0.942186	-0.042177	-0.043446	-0.031842	0.148680	-0.331055	-0.336914	0.510010	98.185034	-79.744294	-105.229889
03046		10.193782	0.486955	-0.033058	-0.010412	-0.044505	0.218112	-0.337891	-0.341064	0.518311	98.423658	-79.864226	-105.474879
03047		10.073984	0.372191	-0.041418	-0.022946	-0.051992	0.278080	-0.340088	-0.336914	0.513916	98.720389	-80.017381	-105.786620
03048		10.089041	0.521533	-0.175426	-0.013939	-0.073612	0.328518	-0.333008	-0.341064	0.517334	99.122703	-80.196817	-106.199691
03049		10.035388	0.682871	-0.208867	0.028249	-0.065978	0.395551	-0.335938	-0.335205	0.507813	99.583056	-80.414325	-106.647320
03050		10.055517	0.932160	-0.181630	0.046015	-0.091772	0.460837	-0.334961	-0.328613	0.508789	100.196613	-80.665494	-107.239266
03051		10.249724	1.196862	-0.386754	0.042313	-0.044865	0.506101	-0.339111	-0.333984	0.511963	100.712749	-80.945997	-107.734591
03052		10.042072	1.287378	-0.555113	0.074480	0.041089	0.515962	-0.340088	-0.332520	0.516113	100.966962	-81.240879	-107.945410
03053		9.597351	1.181048	-0.490495	0.136054	0.077877	0.494511	-0.352295	-0.337891	0.510742	101.125325	-81.527505	-108.023775
03054		9.429105	1.053497	-0.313928	0.162448	0.152079	0.452666	-0.343018	-0.329590	0.515137	100.978664	-81.798869	-107.778194
03055		9.257217	0.894609	-0.149223	0.173608	0.193407	0.381129	-0.355469	-0.318604	0.514160	100.611386	-82.034130	-107.303805
03056		9.264950	0.799087	0.086030	0.150162	0.229389	0.292944	-0.347412	-0.318848	0.512451	99.983824	-82.222897	-106.580158
03057		9.096466	0.669939	0.507969	0.120002	0.254967	0.255959	-0.353027	-0.323730	0.509277	99.179011	-82.391850	-105.695702
03058		9.123977	0.437910	0.552513	0.100917	0.238246	0.213230	-0.361816	-0.318604	0.513184	98.362665	-82.533573	-104.810685
03059		9.272130	0.368011	0.460714	0.112175	0.176335	0.181570	-0.360352	-0.310303	0.510010	97.782420	-82.650820	-104.157791
03060		9.547074	0.221345	0.281767	0.148144	0.160676	0.168267	-0.349854	-0.309814	0.504395	97.257426	-82.758659	-103.539759
03061		9.703762	0.246009	0.078183	0.181063	0.187492	0.155123	-0.355957	-0.314209	0.501221	96.613775	-82.859944	-102.783490
03062		9.679665	0.281581	-0.015432	0.205991	0.196825	0.126794	-0.356201	-0.312500	0.507813	95.899548	-82.944712	-101.941702
03063		9.808841	0.230232	-0.064026	0.266013	0.186537	0.100886	-0.369629	-0.312012	0.506348	95.246860	-83.012734	-101.127566
03064		9.753932	0.152891	-0.021479	0.332141	0.193930	0.075955	-0.363525	-0.314453	0.520996	94.565358	-83.065906	-100.246250
03065		9.848753	0.074642	0.009671	0.367661	0.187896	0.053798	-0.363525	-0.307617	0.510498	93.922669	-83.104753	-99.383704
03066		9.744185	0.024718	0.076416	0.382149	0.157234	0.039731	-0.370850	-0.303955	0.502930	93.413167	-83.133595	-98.647006
03067		9.509735	-0.034255	0.109737	0.398930	0.133686	0.029250	-0.364014	-0.304688	0.508301	93.026694	-83.154792	-98.024584
03068		9.378106	0.091069	0.127737	0.417628	0.128349	0.010699	-0.361084	-0.311035	0.508301	92.660662	-83.164977	-97.412061
03069		9.324460	0.283929	0.044471	0.433958	0.121725	-0.005732	-0.371826	-0.301270	0.511230	92.340021	-83.164915	-96.835756
03070		8.892492	0.215916	-0.018639	0.469650	0.121023	-0.022130	-0.371094	-0.296631	0.506836	92.031819	-83.155344	-96.251528
03071		9.334653	0.447632	-0.188057	0.471291	0.140964	-0.054114	-0.364990	-0.297852	0.516602	91.635635	-83.127130	-95.577563
03072		9.252376	0.432517	-0.151223	0.467833	0.180223	-0.070713	-0.375732	-0.294189	0.514648	91.046136	-83.089526	-94.711038
03073		8.892296	0.204728	-0.028522	0.518395	0.147240	-0.094389	-0.367920	-0.299805	0.519043	90.656243	-83.036916	-94.016110
03074		8.937572	0.016405	0.022634	0.547212	0.109394	-0.124501	-0.376953	-0.299072	0.513428	90.457926	-82.966710	-93.497746
03075		9.386438	0.073478	-0.103492	0.549402	0.139602	-0.153406	-0.373535	-0.298096	0.505859	90.137552	-82.879455	-92.854762
03076		9.182124	0.061761	-0.243629	0.629153	0.124349	-0.174436	-0.368896	-0.287598	0.512939	89.935528	-82.780115	-92.285237
03077		9.096952	0.163907	-0.429776	0.743284	0.088849	-0.191176	-0.366455	-0.287598	0.511230	89.975787	-82.670771	-91.893544
03078		9.141586	0.340618	-0.730191	0.821477	0.086391	-0.186911	-0.370850	-0.283203	0.512207	90.068550	-82.564295	-91.509972
03079		9.352184	0.696405	-0.758106	0.852340	0.136086	-0.163998	-0.373291	-0.277588	0.516113	89.975230	-82.470590	-90.920348
03080		9.462486	1.006967	-0.643125	0.813369	0.200856	-0.129312	-0.366943	-0.277588	0.515869	89.581701	-82.396669	-90.050797
03081		9.711605	1.252093	-0.574129	0.737949	0.223155	-0.081579	-0.373047	-0.267822	0.513672	89.065958	-82.348666	-89.100907
03082		9.500759	1.199989	-0.411864	0.643636	0.232245	-0.035101	-0.375000	-0.260254	0.517822	88.453934	-82.326290	-88.108837
03083		9.543299	1.264087	-0.376179	0.523279	0.187327	0.014907	-0.370605	-0.263428	0.514648	87.967237	-82.331744	-87.312267
03084		9.665564	1.311467	-0.503561	0.419539	0.154119	0.040798	-0.379639	-0.268311	0.519287	87.549475	-82.352254	-86.645772
03085		9.690760	1.344630	-0.679408	0.360804	0.144695	0.031783	-0.371094	-0.269043	0.520020	87.144528	-82.366896	-86.025666
03086		9.820841	1.260198	-0.863233	0.346001	0.134974	0.000996	-0.369873	-0.262451	0.519531	86.771522	-82.363964	-85.446872
03087		9.925152	1.146806	-0.986413	0.338011	0.114923	-0.039673	-0.376953	-0.263428	0.523682	86.497608	-82.337709	-84.972138
03088		9.979315	0.989433	-1.146100	0.326875	0.087668	-0.078954	-0.379150	-0.262695	0.522705	86.339813	-82.290028	-84.621502
03089		9.836594	0.865875	-1.188338	0.325393	0.081243	-0.110395	-0.371582	-0.261963	0.527588	86.226572	-82.224201	-84.316111
03090		9.719611	0.729157	-1.178277	0.330526	0.083337	-0.126541	-0.375244	-0.262939	0.514160	86.109917	-82.149295	-84.004815
03091		9.682886	0.603222	-1.156322	0.353309	0.119011	-0.132284	-0.372314	-0.264893	0.509033	85.871418	-82.069236	-83.556713
03092		9.599277	0.396610	-1.209568	0.388539	0.146916	-0.119424	-0.373779	-0.257324	0.522217	85.537145	-81.995358	-82.992051
03093		9.552875	0.277738	-1.161675	0.433480	0.155022	-0.106149	-0.375244	-0.258057	0.524170	85.204811	-81.927898	-82.402632
03094		9.606306	0.184082	-1.221960	0.486561	0.163441	-0.104339	-0.378662	-0.253418	0.524658	84.871371	-81.860954	-81.781968
03095		9.560471	0.065547	-1.295256	0.550046	0.170266	-0.104803	-0.373291	-0.252197	0.503418	84.559947	-81.792519	-81.146003
03096		9.538917	0.008339	-1.385909	0.623091	0.161064	-0.125873	-0.375244	-0.246338	0.522949	84.338256	-81.712591	-80.559087
03097		9.447085	0.003843	-1.328647	0.692917	0.143886	-0.154750	-0.378418	-0.250488	0.518066	84.246650	-81.616518	-80.062293
03098		9.387342	0.087201	-1.267835	0.733327	0.139186	-0.187385	-0.375977	-0.237061	0.518311	84.212051	-81.502530	-79.600480
03099		9.336131	0.237435	-1.176097	0.778019	0.130017	-0.199015	-0.385986	-0.244141	0.514404	84.252306	-81.381946	-79.187435
03100		9.381779	0.486376	-1.147146	0.783369	0.099245	-0.179841	-0.375488	-0.243896	0.519287	84.404359	-81.274698	-78.885240
03101		9.602596	0.846041	-1.049706	0.740339	0.063806	-0.137775	-0.380859	-0.231689	0.522949	84.652045	-81.192979	-78.703694
03102		9.785761	1.183597	-1.002218	0.668337	0.042270	-0.082966	-0.380371	-0.230225	0.526855	84.915316	-81.144376	-78.580671
03103		9.854995	1.580126	-0.906352	0.607591	0.017981	-0.046139	-0.375732	-0.229492	0.525391	85.222838	-81.117489	-78.536614
03104		10.114502	2.001785	-0.810799	0.548097	0.007253	-0.010828	-0.375488	-0.234863	0.524902	85.521689	-81.111903	-78.519314
03105		10.499037	2.479052	-0.645183	0.487274	-0.011473	0.023458	-0.372559	-0.223877	0.528564	85.846980	-81.126123	-78.563014
03106		11.105163	2.948120	-0.377321	0.409080	-0.038038	0.071430	-0.384277	-0.224854	0.524658	86.211234	-81.169348	-78.692455
03107		11.541065	3.518155	-0.060578	0.266350	-0.103151	0.142486	-0.382568	-0.217285	0.521484	86.723616	-81.254780	-79.053540
03108		11.928449	3.953028	0.486410	0.040229	-0.206484	0.235423	-0.377441	-0.223877	0.527832	87.485285	-81.396266	-79.798586
03109		12.216172	4.322915	0.998066	-0.329386	-0.265091	0.343133	-0.376709	-0.225098	0.527832	88.274257	-81.598635	-80.784184
03110		11.735681	4.034547	1.139945	-0.679498	-0.401823	0.439810	-0.380127	-0.218506	0.530762	89.442649	-81.855832	-82.355970
03111		11.066242	3.268089	0.962536	-0.896793	-0.562903	0.498712	-0.375000	-0.227539	0.527588	91.247044	-82.139909	-84.694015
03112		10.187189	2.028329	0.244435	-0.870907	-0.522319	0.479256	-0.368896	-0.236572	0.528076	93.036969	-82.403671	-87.001439
03113		9.410843	0.778084	-0.391359	-0.704095	-0.464271	0.380151	-0.369385	-0.232910	0.530518	94.775509	-82.603037	-89.158901
03114		9.073767	-0.314472	-0.513332	-0.466150	-0.409938	0.259129	-0.374268	-0.239502	0.524414	96.447449	-82.728284	-91.111438
03115		8.756772	-1.089468	-0.110096	-0.276212	-0.323130	0.143340	-0.375488	-0.230713	0.530273	97.827812	-82.786854	-92.659480
03116		8.583612	-1.440542	0.483819	-0.086120	-0.302027	0.038528	-0.371094	-0.242676	0.527344	99.166815	-82.783598	-94.056564
03117		8.847609	-1.320480	1.117560	0.112004	-0.332786	-0.011489	-0.363037	-0.234375	0.534180	100.713991	-82.744213	-95.548519
03118		8.957494	-0.889018	1.435506	0.303030	-0.302234	-0.030132	-0.370605	-0.239990	0.534424	102.199623	-82.693455	-96.869039
03119		8.983717	-0.262603	1.419632	0.482463	-0.236944	-0.039585	-0.367432	-0.230713	0.536377	103.478110	-82.641126	-97.876405
03120		9.009000	0.451921	1.263889	0.621218	-0.144053	-0.023903	-0.355957	-0.236816	0.535645	104.437446	-82.608543	-98.482818
03121		9.035446	1.126807	1.224563	0.691466	-0.030426	0.003752	-0.363037	-0.228760	0.534424	104.980292	-82.606109	-98.627760
03122		8.949407	1.773395	1.422065	0.699817	0.094914	0.045095	-0.365479	-0.231934	0.538330	105.036671	-82.645774	-98.278301
03123		8.930871	2.237998	1.891429	0.682284	0.213334	0.089766	-0.371094	-0.222656	0.536621	104.622123	-82.726691	-97.463273
03124		9.077838	2.548859	2.645765	0.692798	0.325765	0.125269	-0.364502	-0.213623	0.537354	103.737287	-82.842616	-96.169200
03125		9.115429	2.656782	3.067076	0.729128	0.431784	0.159600	-0.371094	-0.218506	0.532959	102.395313	-82.987589	-94.392979
03126		9.229378	2.664198	2.516776	0.820608	0.448597	0.189843	-0.363281	-0.204346	0.527100	100.984011	-83.146786	-92.495485
03127		9.385965	2.788097	1.968044	0.892514	0.409924	0.205737	-0.371826	-0.209717	0.535400	99.742226	-83.305018	-90.727056
03128		9.662401	2.921288	1.530130	0.843834	0.356285	0.219388	-0.376465	-0.200439	0.531494	98.667894	-83.462295	-89.156520
03129		9.801432	3.187867	1.238333	0.711784	0.333260	0.219116	-0.373291	-0.198486	0.533691	97.577283	-83.613628	-87.645561
03130		9.914686	3.356504	1.123292	0.546638	0.290019	0.195579	-0.380615	-0.187500	0.540039	96.531070	-83.745690	-86.275411
03131		10.088117	3.261909	0.929688	0.379204	0.248676	0.137865	-0.378418	-0.187256	0.529785	95.536284	-83.839327	-85.053264
03132		10.296507	3.062328	0.570903	0.247837	0.190416	0.032986	-0.378662	-0.177490	0.534668	94.689412	-83.868202	-84.056079
03133		10.603107	2.827234	0.300253	0.164496	0.095175	-0.088245	-0.380859	-0.184570	0.532227	94.257350	-83.822183	-83.523772
03134		10.527771	2.623079	0.150280	0.101655	0.036386	-0.202377	-0.380859	-0.186035	0.540039	94.052640	-83.708279	-83.256519
03135		10.451850	2.509117	0.038597	0.044361	-0.049744	-0.293681	-0.378662	-0.187012	0.537598	94.237585	-83.538535	-83.414093
03136		10.266219	2.330784	-0.024499	-0.032494	-0.066830	-0.361046	-0.373291	-0.199219	0.525635	94.419176	-83.329533	-83.612781
03137		10.200500	2.164194	0.048679	-0.113777	-0.029601	-0.395187	-0.382568	-0.191895	0.539795	94.363725	-83.102611	-83.619640
03138		10.005809	2.017369	0.136289	-0.166152	0.031785	-0.405479	-0.385010	-0.195313	0.530273	93.987360	-82.872342	-83.333436
03139		9.752105	1.937974	0.144147	-0.178083	0.061150	-0.400534	-0.379639	-0.198242	0.534424	93.504803	-82.645783	-82.946903
03140		9.359528	1.833967	0.019050	-0.177759	0.124231	-0.387560	-0.377441	-0.206787	0.534180	92.771472	-82.428034	-82.307056
03141		9.201964	1.859500	-0.081447	-0.146732	0.210808	-0.367805	-0.379883	-0.205078	0.528076	91.742255	-82.222394	-81.350414
03142		9.048056	1.695086	0.182720	-0.095888	0.224342	-0.349183	-0.379150	-0.204590	0.529785	90.730959	-82.025198	-80.381937
03143		8.802349	1.539424	0.251591	-0.094060	0.329563	-0.317304	-0.381836	-0.206787	0.523193	89.355125	-81.843757	-79.043834
03144		8.669138	1.282864	0.392678	-0.097949	0.349935	-0.266792	-0.383301	-0.209229	0.520752	87.942609	-81.686248	-77.670271
03145		8.544309	1.224010	0.402061	-0.102795	0.346550	-0.253556	-0.388672	-0.220459	0.529297	86.597142	-81.531958	-76.366822
03146		8.730138	1.422161	0.370155	-0.118245	0.347067	-0.253390	-0.387207	-0.218994	0.526855	85.281600	-81.373105	-75.101984
03147		8.829824	1.722770	0.114340	-0.115845	0.293773	-0.268933	-0.383057	-0.210205	0.512451	84.223978	-81.204607	-74.096208
03148		9.085442	2.147469	0.011787	-0.129101	0.270865	-0.290055	-0.385498	-0.225586	0.518555	83.282497	-81.022563	-73.215108
03149		9.098902	2.396863	0.069770	-0.135832	0.240951	-0.285733	-0.392578	-0.224121	0.512695	82.483688	-80.843385	-72.482038
03150		8.979964	2.500384	-0.065178	-0.177973	0.219137	-0.278232	-0.394775	-0.217285	0.520752	81.755453	-80.668275	-71.844419
03151		8.798743	2.531358	-0.094749	-0.222942	0.211602	-0.270482	-0.389893	-0.233398	0.507324	81.054590	-80.497332	-71.260495
03152		8.638023	2.522870	0.047144	-0.256630	0.189393	-0.262518	-0.395264	-0.228271	0.508789	80.420458	-80.331389	-70.763303
03153		8.620318	2.472996	0.074765	-0.287046	0.153415	-0.257518	-0.400146	-0.234375	0.514893	79.908298	-80.171433	-70.407543
03154		8.619083	2.416097	0.047594	-0.313079	0.112063	-0.254632	-0.389893	-0.239502	0.505615	79.520153	-80.016355	-70.192335
03155		8.631956	2.290356	-0.097857	-0.320763	0.057423	-0.240901	-0.384521	-0.237305	0.509521	79.306455	-79.875087	-70.158980
03156		8.688299	2.238850	-0.266535	-0.339765	0.019085	-0.212475	-0.389648	-0.243408	0.510010	79.182371	-79.753352	-70.227345
03157		8.679433	2.306026	-0.391595	-0.356311	-0.004236	-0.181616	-0.393555	-0.235840	0.504883	79.108491	-79.652071	-70.356772
03158		8.793909	2.376725	-0.538166	-0.350049	-0.031779	-0.133652	-0.388916	-0.255859	0.507080	79.088654	-79.580206	-70.537093
03159		8.924643	2.453141	-0.647498	-0.379690	-0.046379	-0.087046	-0.385010	-0.248535	0.510010	79.073160	-79.536728	-70.739571
03160		8.908912	2.397667	-0.778766	-0.425812	-0.075131	-0.034436	-0.389404	-0.246826	0.509277	79.082557	-79.525377	-70.993746
03161		8.996658	2.344737	-0.847027	-0.460934	-0.118435	0.014474	-0.391846	-0.255615	0.507813	79.180016	-79.546775	-71.358436
03162		9.191665	2.300018	-0.886183	-0.507404	-0.141403	0.056307	-0.393066	-0.266357	0.503662	79.293689	-79.593448	-71.766076
03163		9.282059	2.354396	-0.795712	-0.547559	-0.141232	0.106008	-0.385986	-0.258301	0.505371	79.362342	-79.668575	-72.151828
03164		9.304110	2.342618	-0.617386	-0.566851	-0.138749	0.150902	-0.390381	-0.265625	0.502930	79.385486	-79.768050	-72.501825
03165		9.286795	2.358290	-0.613749	-0.591604	-0.142016	0.184447	-0.385254	-0.259766	0.495605	79.393188	-79.887359	-72.851052
03166		9.384176	2.243500	-0.462440	-0.602150	-0.121936	0.210994	-0.389893	-0.260498	0.504639	79.315087	-80.018899	-73.118450
03167		9.519263	2.021620	-0.293236	-0.601658	-0.113627	0.206672	-0.389404	-0.268066	0.504395	79.219647	-80.147822	-73.368543
03168		9.553826	1.854212	-0.126452	-0.546869	-0.124770	0.190293	-0.389648	-0.268066	0.491211	79.200627	-80.268125	-73.663503
03169		9.733572	1.714094	-0.013101	-0.478978	-0.135241	0.155132	-0.391113	-0.272217	0.504150	79.284909	-80.370366	-74.024430
03170		9.678222	1.586841	0.039374	-0.427942	-0.121399	0.111343	-0.391846	-0.270264	0.497070	79.380167	-80.445756	-74.365994
03171		9.721740	1.406433	0.088685	-0.386908	-0.120487	0.080249	-0.395264	-0.270508	0.497559	79.522624	-80.504048	-74.732254
03172		9.632499	1.314031	0.071861	-0.370214	-0.101693	0.068303	-0.393066	-0.276123	0.501953	79.617458	-80.552921	-75.039745
03173		9.624623	1.407592	0.072885	-0.368428	-0.077107	0.063391	-0.383545	-0.281982	0.497803	79.638683	-80.597050	-75.272275
03174		9.496316	1.578427	-0.007595	-0.339746	-0.073835	0.064683	-0.388916	-0.281982	0.494385	79.661636	-80.640963	-75.489156
03175		9.431698	1.846612	-0.005073	-0.292887	-0.102350	0.053284	-0.389404	-0.286133	0.491943	79.821650	-80.681894	-75.818418
03176		9.481610	2.057934	-0.059715	-0.264447	-0.118151	0.034229	-0.389648	-0.282471	0.500244	80.062279	-80.712881	-76.212098
03177		9.375702	2.337132	-0.150297	-0.272226	-0.137267	0.022769	-0.392090	-0.279785	0.501465	80.377449	-80.739533	-76.686515
03178		9.303905	2.671319	-0.277122	-0.330298	-0.160899	0.003293	-0.386475	-0.287354	0.493408	80.750860	-80.756333	-77.252849
03179		9.229612	2.961382	-0.503777	-0.416578	-0.195016	-0.014343	-0.385498	-0.291992	0.493164	81.208663	-80.766156	-77.955519
03180		9.076332	3.207816	-0.658150	-0.516018	-0.225830	-0.028733	-0.387207	-0.289795	0.496826	81.721756	-80.768841	-78.771046
03181		9.048283	3.269704	-0.704252	-0.632379	-0.279335	-0.045047	-0.388428	-0.300293	0.497070	82.366720	-80.765830	-79.788590
03182		9.173521	3.348644	-0.911501	-0.746352	-0.320627	-0.041105	-0.386963	-0.295654	0.490479	83.085065	-80.765408	-80.945642
03183		9.118470	3.434948	-1.133122	-0.846176	-0.360521	-0.031476	-0.380615	-0.306152	0.490479	83.885793	-80.771294	-82.245095
03184		9.115626	3.551629	-1.395121	-0.948729	-0.404951	-0.012172	-0.385986	-0.305664	0.492432	84.775797	-80.786861	-83.693345
03185		9.176730	3.764211	-1.566883	-1.066476	-0.424929	0.012264	-0.380371	-0.314941	0.487549	85.669596	-80.814475	-85.214829
03186		9.324236	3.872222	-1.575924	-1.197961	-0.404856	0.038276	-0.378418	-0.315186	0.483398	86.415365	-80.851843	-86.661253
03187		9.601890	3.826796	-1.474002	-1.309295	-0.414877	0.052395	-0.373047	-0.323730	0.492676	87.142523	-80.895476	-88.154556
03188		9.901683	3.643070	-1.455249	-1.350246	-0.418113	0.051816	-0.375000	-0.326904	0.488281	87.865393	-80.934936	-89.665662
03189		10.167389	3.258039	-1.298201	-1.359311	-0.434797	0.037444	-0.373047	-0.333008	0.486084	88.656316	-80.964212	-91.252236
03190		10.531036	2.695827	-1.216138	-1.337530	-0.469753	0.019393	-0.370605	-0.345215	0.481445	89.590640	-80.978709	-92.969722
03191		10.711666	2.112850	-1.100296	-1.279369	-0.489291	0.007276	-0.378906	-0.356201	0.485840	90.634503	-80.982557	-94.765888
03192		11.004892	1.556796	-1.044453	-1.190829	-0.529067	-0.011824	-0.367188	-0.351563	0.481201	91.867562	-80.968381	-96.700701
