// General information: 
//  MT Manager version: 2022.2.0 
//  XDA version: 2022.2.0 build 7381 rev 124627 built on 2023-07-19
// Device information: 
//  DeviceId: 00B4C223
//  ProductCode: MTW2-3A7G6
//  Firmware Version: 4.6.0
//  Hardware Version: 2.0.0
// Device settings: 
//  Filter Profile: human(46.1)
//  Option Flags: Orientation Smoother Disabled, Position/Velocity Smoother Disabled, Continuous Zero Rotation Update Disabled, AHS Disabled, ICC Disabled
// Coordinate system: ENU
PacketCounter	SampleTimeFine	Acc_X	Acc_Y	Acc_Z	Gyr_X	Gyr_Y	Gyr_Z	Mag_X	Mag_Y	Mag_Z	Roll	Pitch	Yaw
05261		-5.278199	0.637369	8.405927	0.004130	-0.002356	0.012089	-0.906982	0.199219	-0.635986	4.435280	31.896637	80.030562
05262		-5.269669	0.648250	8.437969	0.002255	-0.001528	0.007888	-0.904541	0.202881	-0.629150	4.440602	31.895646	80.034307
05263		-5.269798	0.615099	8.430124	-0.001118	-0.002794	0.007176	-0.908203	0.202881	-0.619385	4.442732	31.894419	80.036978
05264		-5.288485	0.619268	8.415381	0.001875	-0.003051	0.008203	-0.911621	0.203369	-0.630127	4.447905	31.892544	80.040854
05265		-5.298856	0.633424	8.432611	-0.002246	-0.003142	0.005232	-0.905029	0.196777	-0.632080	4.448690	31.891203	80.042199
05266		-5.258177	0.602234	8.413582	-0.001498	-0.004317	0.007490	-0.904297	0.199707	-0.634277	4.451643	31.888636	80.045529
05267		-5.257737	0.602458	8.413841	-0.000762	-0.005270	0.004630	-0.906982	0.206787	-0.635254	4.453008	31.886105	80.046359
05268		-5.278642	0.630417	8.448221	-0.000369	-0.003970	0.009433	-0.908447	0.206787	-0.634033	4.457307	31.883650	80.051014
05269		-5.267606	0.616929	8.431360	-0.000381	-0.003746	0.004316	-0.903809	0.207764	-0.627197	4.458822	31.881999	80.051718
05270		-5.307993	0.614875	8.442828	-0.002613	-0.002665	0.006663	-0.908936	0.205322	-0.629395	4.460887	31.880413	80.054578
05271		-5.259090	0.593782	8.455693	-0.001117	-0.002794	0.007176	-0.907227	0.202637	-0.624023	4.463026	31.879177	80.057251
05272		-5.277419	0.631326	8.448918	-0.002613	-0.002664	0.006663	-0.899414	0.204102	-0.629395	4.465091	31.877591	80.060110
05273		-5.274878	0.607569	8.400005	-0.002232	-0.001141	0.006349	-0.914063	0.208252	-0.623535	4.466344	31.877332	80.062309
05274		-5.274721	0.607770	8.400089	-0.000368	-0.001746	0.005432	-0.910400	0.206055	-0.627930	4.469283	31.876325	80.064389
05275		-5.277225	0.598440	8.441270	0.000012	-0.002446	0.009120	-0.904541	0.205322	-0.628418	4.472770	31.875196	80.068389
05276		-5.265905	0.618596	8.432300	-0.001116	-0.002793	0.007176	-0.902832	0.202393	-0.630371	4.475871	31.873513	80.071586
05277		-5.273557	0.642402	8.408457	-0.001116	-0.002793	0.007176	-0.910156	0.201416	-0.630859	4.478013	31.872273	80.074266
05278		-5.276584	0.599317	8.441608	-0.001102	0.001430	0.004291	-0.914795	0.199951	-0.629883	4.480214	31.873131	80.075745
05279		-5.276150	0.633029	8.449583	-0.001864	-0.001617	0.004919	-0.911621	0.200439	-0.636230	4.481160	31.872660	80.076944
05280		-5.295366	0.603292	8.426833	-0.001864	-0.001617	0.004919	-0.912598	0.205322	-0.626953	4.483063	31.871749	80.078685
05281		-5.265185	0.619355	8.432694	-0.003727	-0.001011	0.005836	-0.912598	0.197998	-0.625244	4.483286	31.871582	80.080558
05282		-5.273559	0.609260	8.400711	-0.001849	0.002606	0.002033	-0.906250	0.205811	-0.624268	4.484290	31.873213	80.080580
05283		-5.286848	0.613338	8.458910	-0.004490	-0.004057	0.006464	-0.910889	0.203857	-0.629395	4.484216	31.871275	80.082710
05284		-5.294570	0.636654	8.435060	-0.005604	-0.000181	0.001635	-0.904785	0.205811	-0.631348	4.482850	31.871332	80.082318
05285		-5.254114	0.638485	8.423642	-0.004079	0.005912	0.000379	-0.900879	0.202148	-0.625488	4.481131	31.875361	80.080898
05286		-5.286681	0.645964	8.466799	-0.008215	-0.000622	0.004297	-0.909668	0.208984	-0.630371	4.479202	31.875047	80.082273
05287		-5.275656	0.665083	8.457724	-0.009711	0.001731	-0.000218	-0.910645	0.199463	-0.629150	4.473933	31.876711	80.080229
05288		-5.268666	0.573489	8.465754	-0.008976	0.000779	-0.003079	-0.910156	0.202637	-0.633057	4.468987	31.877526	80.076717
05289		-5.246330	0.645677	8.455481	-0.010825	0.003385	-0.001045	-0.912354	0.208008	-0.623779	4.462833	31.880166	80.074170
05290		-5.276786	0.628793	8.449502	-0.008567	0.006302	-0.001159	-0.908691	0.203857	-0.625732	4.458956	31.884050	80.072238
05291		-5.277585	0.594382	8.441332	-0.008962	0.002779	-0.001962	-0.903809	0.201416	-0.629150	4.453532	31.886377	80.069083
05292		-5.256285	0.599295	8.414973	-0.013054	0.006692	-0.002698	-0.907715	0.198730	-0.630127	4.446547	31.890552	80.066135
05293		-5.256595	0.632006	8.422583	-0.007042	0.010171	0.001589	-0.901611	0.200195	-0.636719	4.443688	31.896945	80.065725
05294		-5.290194	0.605453	8.457386	-0.010428	0.009133	-0.004242	-0.909912	0.205322	-0.629150	4.437726	31.902582	80.061865
05295		-5.288699	0.580669	8.407867	-0.007054	0.010397	-0.003528	-0.906982	0.200195	-0.631348	4.433048	31.909327	80.058055
05296		-5.281192	0.590048	8.439380	-0.007424	0.008648	0.001903	-0.895264	0.202148	-0.636963	4.430978	31.914414	80.058303
05297		-5.281727	0.589692	8.439069	-0.002964	0.004259	0.001208	-0.903564	0.202637	-0.634033	4.430157	31.917441	80.057348
05298		-5.278877	0.632681	8.405855	-0.006337	0.002996	0.000494	-0.913574	0.204834	-0.623291	4.428052	31.919363	80.056354
05299		-5.271260	0.608855	8.429663	-0.001468	0.004129	0.001722	-0.905273	0.201660	-0.634033	4.428268	31.922288	80.055726
05300		-5.293362	0.602636	8.455605	-0.006323	0.004995	0.001612	-0.905762	0.199707	-0.620361	4.426623	31.925303	80.055588
05301		-5.264269	0.584623	8.453109	-0.005560	0.008042	0.000986	-0.910400	0.202393	-0.632568	4.424342	31.930495	80.054662
05302		-5.272789	0.607681	8.428791	-0.007437	0.006649	0.000786	-0.912598	0.200928	-0.629639	4.421811	31.934490	80.054053
05303		-5.254631	0.569871	8.435450	-0.005208	0.003342	0.002438	-0.905273	0.199707	-0.629395	4.420118	31.936929	80.053868
05304		-5.281507	0.630601	8.404359	-0.003317	0.006734	0.003757	-0.906006	0.197998	-0.631592	4.421008	31.940842	80.055264
05305		-5.274062	0.606827	8.428057	-0.004459	0.004390	0.000695	-0.903076	0.205078	-0.632813	4.419153	31.943954	80.053959
05306		-5.304004	0.623984	8.430078	-0.006336	0.002997	0.000494	-0.903320	0.199951	-0.631348	4.417048	31.945875	80.052963
05307		-5.274621	0.606071	8.427761	-0.003713	0.003211	0.002952	-0.909668	0.198975	-0.622803	4.416395	31.948213	80.053164
05308		-5.304573	0.623504	8.429756	-0.003331	0.004735	0.002640	-0.911377	0.199219	-0.629150	4.416824	31.951033	80.053703
05309		-5.283399	0.595801	8.395492	-0.002613	-0.000442	0.002660	-0.909424	0.200928	-0.629395	4.416598	31.951291	80.053422
05310		-5.275122	0.605662	8.427477	-0.003726	0.001212	0.001834	-0.913330	0.197021	-0.632324	4.416416	31.952135	80.053236
05311		-5.285932	0.619226	8.444490	-0.002977	0.002260	0.000091	-0.909912	0.205566	-0.627197	4.415144	31.954052	80.051412
05312		-5.275403	0.605199	8.427334	-0.003726	0.001212	0.001834	-0.901367	0.199707	-0.622314	4.414961	31.954895	80.051226
05313		-5.286252	0.618730	8.444327	-0.005208	0.003342	0.002438	-0.911133	0.204102	-0.630615	4.413279	31.957321	80.051086
05314		-5.305467	0.622363	8.429277	-0.002217	0.003081	0.003466	-0.907715	0.209473	-0.624023	4.414594	31.959160	80.052095
05315		-5.286603	0.618278	8.444140	-0.006731	-0.000525	-0.000312	-0.910156	0.204102	-0.625977	4.410956	31.959498	80.049921
05316		-5.295136	0.607670	8.412043	-0.007067	0.006176	-0.000644	-0.906738	0.205322	-0.629639	4.408113	31.963285	80.048324
05317		-5.268306	0.613446	8.458703	-0.002595	0.003784	-0.000221	-0.916748	0.200439	-0.621826	4.406999	31.966080	80.046388
05318		-5.276825	0.603169	8.426589	-0.005589	0.001819	0.002751	-0.904297	0.200195	-0.629150	4.406093	31.967229	80.046850
05319		-5.336688	0.604525	8.422815	-0.003712	0.003212	0.002952	-0.912109	0.210205	-0.620117	4.405455	31.969550	80.046929
05320		-5.307300	0.586683	8.420495	-0.004840	0.002867	0.001008	-0.901611	0.204346	-0.629150	4.404386	31.971375	80.046272
05321		-5.277450	0.602332	8.426258	-0.005589	0.001819	0.002751	-0.909668	0.211182	-0.633545	4.402563	31.972912	80.046328
05322		-5.288177	0.615765	8.443337	-0.005603	-0.000180	0.001632	-0.904785	0.208008	-0.623291	4.401195	31.972969	80.045933
05323		-5.285543	0.625353	8.402214	-0.001467	0.004129	0.001724	-0.912598	0.206055	-0.624512	4.401434	31.975870	80.045437
05324		-5.267129	0.587572	8.409018	-0.007858	-0.000869	-0.002257	-0.911377	0.201172	-0.636230	4.397369	31.975704	80.042387
05325		-5.269457	0.610914	8.458169	-0.002613	-0.000442	0.002660	-0.913574	0.204346	-0.625244	4.397162	31.975951	80.042089
05326		-5.288849	0.580917	8.435217	-0.005221	0.001344	0.001320	-0.902832	0.205078	-0.635010	4.395943	31.976891	80.041563
05327		-5.286147	0.590329	8.394149	-0.004853	0.000869	-0.000111	-0.903076	0.204346	-0.623535	4.393501	31.978004	80.039553
05328		-5.278031	0.599949	8.426064	-0.005207	0.003343	0.002439	-0.907959	0.200439	-0.635254	4.392744	31.980038	80.039884
05329		-5.288954	0.613401	8.443023	-0.004839	0.002868	0.001009	-0.906006	0.206055	-0.634277	4.390764	31.982241	80.038698
05330		-5.297947	0.569505	8.402807	-0.004457	0.004391	0.000697	-0.900391	0.201172	-0.628906	4.389844	31.984951	80.037910
05331		-5.308335	0.616688	8.427889	-0.003731	-0.001016	0.005833	-0.910156	0.207520	-0.625488	4.390115	31.984725	80.039845
05332		-5.297911	0.569185	8.402851	-0.004122	-0.002310	0.001026	-0.905029	0.211670	-0.634277	4.389321	31.983591	80.038932
05333		-5.267820	0.585086	8.408758	-0.001104	0.001425	0.004293	-0.904785	0.203369	-0.636475	4.390612	31.984822	80.040045
05334		-5.297491	0.602651	8.410922	-0.004476	0.000164	0.003577	-0.908447	0.210205	-0.633057	4.390593	31.984990	80.040978
05335		-5.289247	0.612420	8.442910	-0.003726	0.001213	0.001834	-0.900635	0.203613	-0.633545	4.389502	31.986212	80.040348
05336		-5.297559	0.602226	8.410910	-0.004108	-0.000311	0.002146	-0.905273	0.204102	-0.624756	4.389171	31.986172	80.040292
05337		-5.308182	0.615676	8.428060	-0.005235	-0.000654	0.000201	-0.902832	0.207031	-0.635498	4.386581	31.986393	80.038346
05338		-5.275710	0.607573	8.384888	-0.004108	-0.000311	0.002146	-0.903809	0.207764	-0.626709	4.386250	31.986352	80.038290
05339		-5.278421	0.597450	8.425997	-0.003004	-0.001736	-0.002147	-0.910889	0.204590	-0.628906	4.384076	31.986059	80.034869
05340		-5.316241	0.604858	8.396263	-0.002613	-0.000442	0.002659	-0.906006	0.202881	-0.626709	4.384781	31.985921	80.035153
05341		-5.297245	0.600811	8.411208	-0.005603	-0.000179	0.001632	-0.900391	0.202148	-0.631836	4.382507	31.986344	80.034080
05342		-5.278666	0.563193	8.418084	-0.002613	-0.000442	0.002660	-0.907715	0.204346	-0.630127	4.383212	31.986206	80.034363
05343		-5.288302	0.643989	8.451456	-0.003009	-0.003965	0.001851	-0.908203	0.209229	-0.616943	4.382402	31.984465	80.033358
05344		-5.277794	0.596441	8.426462	-0.004490	-0.001834	0.002457	-0.906006	0.206787	-0.633545	4.381921	31.983541	80.033434
05345		-5.288284	0.610046	8.443686	-0.002995	-0.001966	0.002971	-0.907959	0.201904	-0.635986	4.381572	31.982874	80.033418
05346		-5.288222	0.609867	8.443738	-0.003358	0.000738	0.000404	-0.908936	0.203613	-0.628662	4.381078	31.983509	80.032243
05347		-5.277508	0.595759	8.426689	-0.005985	-0.001702	0.001944	-0.909424	0.205322	-0.633789	4.378665	31.983050	80.031310
05348		-5.277256	0.595305	8.426879	-0.005631	-0.004176	-0.000607	-0.906006	0.197998	-0.631348	4.376373	31.980922	80.029200
05349		-5.277013	0.594949	8.427056	-0.004857	-0.001359	0.003888	-0.909912	0.204346	-0.631592	4.375311	31.980572	80.029587
05350		-5.314905	0.602214	8.397299	-0.006348	0.001002	-0.000623	-0.905029	0.197510	-0.627686	4.372744	31.981402	80.027734
05351		-5.295955	0.597967	8.412223	-0.003740	-0.000785	0.000715	-0.905762	0.207520	-0.625732	4.371205	31.981513	80.025988
05352		-5.276927	0.593863	8.427186	-0.003740	-0.000785	0.000715	-0.906006	0.205566	-0.631104	4.370561	31.981264	80.024944
05353		-5.268497	0.603522	8.459298	-0.004122	-0.002309	0.001026	-0.906738	0.202148	-0.626953	4.368874	31.980485	80.023735
05354		-5.295614	0.597121	8.412498	-0.003740	-0.000785	0.000715	-0.910156	0.197021	-0.634766	4.368230	31.980236	80.022691
05355		-5.306151	0.610706	8.429700	-0.002994	-0.001966	0.002971	-0.907227	0.210205	-0.635986	4.367894	31.979571	80.022312
05356		-5.306400	0.577147	8.421721	-0.001867	-0.001623	0.004915	-0.903320	0.204834	-0.629150	4.369799	31.978660	80.024054
05357		-5.284384	0.583471	8.395738	0.002603	-0.004018	0.005336	-0.908936	0.196533	-0.636963	4.373461	31.976722	80.025818
05358		-5.264278	0.647121	8.426968	-0.000004	-0.002230	0.003998	-0.902832	0.201172	-0.627930	4.376089	31.975504	80.026911
05359		-5.275598	0.593824	8.428021	-0.002994	-0.001966	0.002971	-0.905762	0.209229	-0.635254	4.375760	31.974841	80.026572
05360		-5.323927	0.615160	8.415504	-0.003376	-0.003489	0.003282	-0.912109	0.204590	-0.620850	4.376166	31.972935	80.027118
05361		-5.304727	0.611323	8.430551	-0.001866	-0.001623	0.004916	-0.902588	0.201660	-0.624268	4.377184	31.972368	80.028517
05362		-5.255918	0.589974	8.443367	-0.002249	-0.003147	0.005227	-0.908936	0.203613	-0.633301	4.378939	31.970572	80.030390
05363		-5.293568	0.597598	8.413752	-0.002260	-0.002915	0.000109	-0.905273	0.198730	-0.635498	4.377986	31.969482	80.028286
05364		-5.293288	0.597450	8.413939	-0.003376	-0.003489	0.003282	-0.903564	0.219727	-0.634521	4.378392	31.967576	80.028832
05365		-5.284653	0.607426	8.446148	-0.000386	-0.003754	0.004309	-0.904785	0.203613	-0.628662	4.379993	31.965830	80.029945
05366		-5.273347	0.627251	8.437258	-0.002244	-0.000917	0.001229	-0.905518	0.209229	-0.631348	4.380386	31.965484	80.029241
05367		-5.303699	0.577706	8.423385	-0.001499	-0.002098	0.003485	-0.898682	0.207520	-0.624756	4.381100	31.964708	80.029548
05368		-5.281332	0.617366	8.405452	-0.001866	-0.001623	0.004916	-0.904053	0.204834	-0.636230	4.383005	31.963796	80.031290
05369		-5.292156	0.597704	8.414633	-0.000019	-0.004228	0.002877	-0.911133	0.198486	-0.628174	4.384295	31.961834	80.031117
05370		-5.264617	0.603840	8.461690	-0.003361	-0.001491	0.004403	-0.908447	0.211670	-0.637939	4.385164	31.961020	80.032520
05371		-5.280674	0.617533	8.405853	-0.000749	-0.001049	0.001742	-0.912842	0.200439	-0.627930	4.385718	31.960917	80.031587
05372		-5.291562	0.597703	8.415006	-0.003376	-0.003489	0.003282	-0.906494	0.199219	-0.627441	4.386124	31.959012	80.032133
05373		-5.261264	0.613642	8.421025	-0.001866	-0.001623	0.004916	-0.906006	0.200195	-0.635986	4.387154	31.958437	80.033050
05374		-5.280552	0.583917	8.398118	-0.002244	-0.000916	0.001229	-0.909180	0.199463	-0.624756	4.387547	31.958091	80.032346
05375		-5.252752	0.623453	8.453162	-0.002611	-0.000442	0.002661	-0.906494	0.201172	-0.631104	4.387383	31.958294	80.031982
05376		-5.290946	0.597493	8.415409	-0.003376	-0.003488	0.003282	-0.909180	0.198486	-0.630127	4.387789	31.956388	80.032528
05377		-5.268957	0.603407	8.389433	-0.002994	-0.001965	0.002972	-0.896484	0.199219	-0.628906	4.387478	31.955703	80.032344
05378		-5.279571	0.617221	8.406569	-0.001467	0.001899	0.005726	-0.900635	0.199707	-0.628906	4.389996	31.956768	80.034813
05379		-5.293344	0.587500	8.456681	-0.004504	-0.003830	0.001338	-0.911377	0.197266	-0.628174	4.388191	31.955091	80.033627
05380		-5.300798	0.610976	8.433047	-0.001897	-0.005619	0.002675	-0.906982	0.201172	-0.633301	4.389170	31.951995	80.033654
05381		-5.289886	0.597157	8.416099	-0.002611	-0.000441	0.002661	-0.910400	0.191162	-0.630371	4.389012	31.952190	80.033301
05382		-5.300409	0.611016	8.433289	-0.000370	-0.001756	0.005429	-0.906250	0.194580	-0.625000	4.391953	31.951180	80.035381
05383		-5.270535	0.593516	8.431210	-0.001514	-0.004095	0.002364	-0.899414	0.205078	-0.635010	4.392219	31.949299	80.034422
05384		-5.299347	0.644744	8.441760	-0.002248	-0.003146	0.005227	-0.902588	0.200684	-0.634033	4.393973	31.947504	80.036294
05385		-5.280555	0.607339	8.448717	-0.003743	-0.003013	0.004714	-0.906982	0.189941	-0.626221	4.393839	31.946144	80.037689
05386		-5.269228	0.627143	8.439839	-0.001865	-0.001623	0.004916	-0.904785	0.208252	-0.631348	4.395743	31.945233	80.039431
05387		-5.277513	0.617250	8.407859	-0.002228	0.001082	0.002350	-0.907959	0.202148	-0.634033	4.395745	31.946304	80.039062
05388		-5.280208	0.607350	8.448932	-0.001132	-0.002572	0.002053	-0.905029	0.205078	-0.626465	4.397024	31.944976	80.038827
05389		-5.269068	0.627253	8.439931	-0.001832	0.002373	0.007158	-0.914307	0.205322	-0.625732	4.399004	31.946572	80.041942
05390		-5.280222	0.607363	8.448923	-0.005234	-0.000649	0.000204	-0.907959	0.204834	-0.627930	4.397326	31.946423	80.040561
05391		-5.277387	0.617063	8.407951	-0.001116	-0.000574	0.003174	-0.905762	0.204590	-0.624268	4.398219	31.946502	80.040774
05392		-5.266607	0.603335	8.390914	-0.001132	-0.002572	0.002053	-0.907471	0.204590	-0.624512	4.399497	31.945174	80.040539
05393		-5.288203	0.597288	8.417147	-0.002611	-0.000441	0.002661	-0.910156	0.206787	-0.627930	4.399357	31.945352	80.040425
05394		-5.268580	0.626883	8.440263	-0.003376	-0.003487	0.003283	-0.907471	0.205078	-0.625977	4.399763	31.943447	80.040970
05395		-5.298402	0.610861	8.434561	-0.002993	-0.001964	0.002972	-0.910156	0.205078	-0.628662	4.399476	31.942740	80.041043
05396		-5.257582	0.612920	8.423378	-0.002610	-0.000441	0.002661	-0.907715	0.202148	-0.628174	4.400183	31.942603	80.041328
05397		-5.298086	0.610832	8.434762	-0.000386	-0.003754	0.004308	-0.902344	0.200684	-0.626465	4.401821	31.940816	80.042085
05398		-5.297910	0.610837	8.434872	-0.004472	0.000167	0.003580	-0.906006	0.206787	-0.622314	4.401805	31.940986	80.043020
05399		-5.265451	0.602939	8.391667	-0.002993	-0.001964	0.002972	-0.909424	0.206055	-0.637207	4.401523	31.940278	80.043017
05400		-5.297639	0.610699	8.435052	-0.001864	-0.001623	0.004917	-0.910400	0.205078	-0.624023	4.403428	31.939366	80.044758
05401		-5.267888	0.593081	8.432895	-0.003359	-0.001489	0.004404	-0.912109	0.198730	-0.631592	4.403464	31.938870	80.045849
05402		-5.278426	0.606808	8.450085	-0.002976	0.000034	0.004093	-0.904785	0.206299	-0.633545	4.404484	31.938941	80.047122
05403		-5.278365	0.606805	8.450123	-0.000749	-0.001049	0.001742	-0.909180	0.206543	-0.627686	4.405082	31.938818	80.046267
05404		-5.275494	0.616805	8.409158	-0.002596	-0.000673	0.007780	-0.902100	0.209229	-0.628418	4.407613	31.938322	80.049985
05405		-5.275240	0.616954	8.409307	0.000346	-0.004703	0.001444	-0.910645	0.205322	-0.631104	4.408632	31.936112	80.049202
05406		-5.288285	0.620853	8.467676	-0.003742	-0.003012	0.004715	-0.903320	0.200684	-0.620361	4.409351	31.934415	80.050735
05407		-5.277415	0.606978	8.450704	-0.002627	-0.002438	0.001540	-0.907715	0.205566	-0.629639	4.408764	31.933490	80.049543
05408		-5.274392	0.616844	8.409847	-0.002247	-0.003146	0.005227	-0.906250	0.203369	-0.632568	4.410518	31.931694	80.051414
05409		-5.277357	0.573484	8.442920	-0.002247	-0.003146	0.005227	-0.901611	0.200928	-0.628174	4.411450	31.930211	80.052970
05410		-5.254896	0.613142	8.425037	-0.001864	-0.001622	0.004917	-0.903564	0.203125	-0.631592	4.413355	31.929299	80.054712
05411		-5.265337	0.626915	8.442284	-0.002993	-0.001963	0.002972	-0.904053	0.206299	-0.628662	4.413090	31.928593	80.054643
05412		-5.284217	0.630758	8.427470	-0.003341	0.000509	0.005526	-0.906250	0.197754	-0.630615	4.414423	31.928872	80.056905
05413		-5.265729	0.593284	8.434229	-0.002610	-0.000440	0.002662	-0.914551	0.203857	-0.630371	4.414312	31.929042	80.056613
05414		-5.295617	0.577448	8.428486	-0.000386	-0.003754	0.004308	-0.901611	0.199219	-0.627441	4.416788	31.926939	80.057833
05415		-5.294842	0.611127	8.436777	-0.001498	-0.002097	0.003485	-0.909668	0.200928	-0.629395	4.417556	31.926118	80.057810
05416		-5.283598	0.630897	8.427848	-0.002610	-0.000440	0.002662	-0.902344	0.195068	-0.637939	4.418263	31.925981	80.058095
05417		-5.275607	0.607193	8.451818	-0.001132	-0.002571	0.002053	-0.908203	0.198730	-0.622803	4.418730	31.924972	80.056862
05418		-5.283234	0.630801	8.428084	-0.002627	-0.002437	0.001540	-0.907715	0.201904	-0.632324	4.418973	31.923743	80.056288
05419		-5.267410	0.583445	8.475917	-0.001480	-0.000099	0.004607	-0.900146	0.202881	-0.621826	4.420210	31.924007	80.057004
05420		-5.272378	0.616932	8.411103	-0.004122	-0.002303	0.001028	-0.917236	0.202393	-0.632324	4.419418	31.922877	80.056092
05421		-5.302454	0.600678	8.405277	-0.004102	0.001926	-0.001848	-0.904541	0.202393	-0.628906	4.416911	31.924575	80.052870
05422		-5.264462	0.592635	8.435065	-0.003742	-0.003011	0.004715	-0.908936	0.206787	-0.630127	4.417629	31.922879	80.054403
05423		-5.285455	0.620015	8.469504	-0.004488	-0.001828	0.002460	-0.910400	0.199951	-0.628906	4.416336	31.922251	80.054321
05424		-5.274156	0.639623	8.460623	-0.002993	-0.001963	0.002973	-0.910889	0.202393	-0.629150	4.416892	31.921231	80.054735
05425		-5.282846	0.595931	8.420607	-0.005617	-0.002168	0.000516	-0.911133	0.203857	-0.629395	4.414252	31.920486	80.052629
05426		-5.292914	0.642862	8.445938	-0.005582	0.001826	0.002760	-0.906982	0.204590	-0.621582	4.413353	31.921640	80.053098
05427		-5.252690	0.611020	8.426567	-0.005251	-0.002643	-0.000916	-0.911621	0.202393	-0.627930	4.410399	31.920677	80.050460
05428		-5.282203	0.628157	8.428927	-0.006345	0.001012	-0.000617	-0.910156	0.193604	-0.638428	4.407838	31.921514	80.048613
05429		-5.282693	0.594225	8.420823	-0.004853	-0.001354	0.003892	-0.911865	0.197266	-0.633545	4.406873	31.921098	80.048522
05430		-5.260401	0.633284	8.402891	-0.007109	0.000198	-0.003993	-0.902832	0.205322	-0.636475	4.402651	31.921619	80.044361
05431		-5.293274	0.606730	8.438078	-0.008589	0.000098	0.000613	-0.912354	0.195313	-0.631836	4.398424	31.922181	80.042872
05432		-5.272042	0.578570	8.403832	-0.006728	-0.000511	-0.000307	-0.914795	0.195801	-0.627197	4.395713	31.922134	80.041156
05433		-5.300991	0.629268	8.414385	-0.005617	-0.002168	0.000516	-0.911377	0.200684	-0.628418	4.393081	31.921384	80.038434
05434		-5.282389	0.591340	8.421217	-0.007842	-0.001085	0.002868	-0.902100	0.204590	-0.637451	4.390845	31.920870	80.038824
05435		-5.303625	0.618280	8.455551	-0.005231	0.001588	-0.003791	-0.918945	0.205811	-0.624268	4.387015	31.922467	80.034783
05436		-5.263067	0.619994	8.444210	-0.004086	0.001691	0.003273	-0.901367	0.204834	-0.626221	4.387151	31.923521	80.035589
05437		-5.281982	0.623472	8.429414	-0.006380	-0.002981	-0.002861	-0.905762	0.210938	-0.628418	4.382861	31.922443	80.031827
05438		-5.273953	0.599076	8.453429	-0.008972	-0.001424	0.000924	-0.908936	0.197998	-0.629395	4.379278	31.921820	80.030892
05439		-5.281784	0.622137	8.429636	-0.006345	0.001013	-0.000616	-0.902832	0.209229	-0.621338	4.375925	31.922936	80.028845
05440		-5.292406	0.635214	8.446835	-0.007857	-0.000849	-0.002251	-0.905762	0.196777	-0.629639	4.371866	31.922780	80.025802
05441		-5.282263	0.587064	8.421595	-0.009352	-0.000714	-0.002763	-0.914063	0.207275	-0.633301	4.365983	31.923001	80.022085
05442		-5.300750	0.623691	8.414952	-0.007839	0.001148	-0.001128	-0.907471	0.197021	-0.628662	4.362388	31.923936	80.019901
05443		-5.290318	0.609156	8.397737	-0.008951	0.002806	-0.001949	-0.899170	0.208496	-0.626709	4.357123	31.926136	80.016718
05444		-5.272099	0.570748	8.404332	-0.010080	0.002468	-0.003893	-0.902100	0.206787	-0.621582	4.351295	31.927945	80.012739
05445		-5.282779	0.583729	8.421503	-0.004867	-0.001118	-0.001227	-0.902344	0.202881	-0.630859	4.348521	31.927867	80.010489
05446		-5.285539	0.573414	8.462527	-0.003720	0.001217	0.001841	-0.902832	0.198242	-0.629639	4.348344	31.928713	80.010306
05447		-5.282873	0.583167	8.421483	-0.003720	0.001217	0.001841	-0.916260	0.201904	-0.625977	4.347384	31.929846	80.009583
05448		-5.293574	0.596693	8.438606	-0.003720	0.001217	0.001841	-0.907959	0.199463	-0.620361	4.347207	31.930691	80.009401
05449		-5.283065	0.582834	8.421386	-0.002591	0.001555	0.003786	-0.905762	0.205078	-0.631836	4.347587	31.931911	80.009653
05450		-5.274821	0.592560	8.453347	-0.004086	0.001690	0.003274	-0.902832	0.212891	-0.630371	4.347723	31.932964	80.010459
05451		-5.291314	0.606264	8.397319	-0.002205	0.005313	-0.000519	-0.906494	0.204346	-0.628418	4.346902	31.936535	80.009159
05452		-5.283797	0.582417	8.420955	-0.001842	0.002605	0.002044	-0.907227	0.208252	-0.628906	4.347911	31.938164	80.009184
05453		-5.265126	0.578401	8.435639	-0.003319	0.004737	0.002655	-0.910156	0.206299	-0.621582	4.347565	31.941262	80.009552
05454		-5.283984	0.615666	8.428732	-0.005179	0.005346	0.003576	-0.904297	0.202637	-0.622559	4.347282	31.944391	80.010748
05455		-5.322321	0.623324	8.398763	-0.003319	0.004737	0.002656	-0.901367	0.205322	-0.634033	4.346931	31.947474	80.010742
05456		-5.255125	0.597735	8.426001	-0.002208	0.003079	0.003477	-0.910400	0.211426	-0.628418	4.348254	31.949312	80.011756
05457		-5.306661	0.609322	8.454296	-0.001842	0.002605	0.002044	-0.904785	0.204102	-0.626465	4.348486	31.951222	80.011906
05458		-5.282339	0.625291	8.387053	-0.001477	0.002132	0.000612	-0.909180	0.201660	-0.629883	4.349181	31.952644	80.010943
05459		-5.293551	0.605357	8.395975	-0.004469	0.000168	0.003582	-0.908447	0.198975	-0.629639	4.348391	31.953090	80.011253
05460		-5.323239	0.622757	8.398223	-0.004831	0.002876	0.001020	-0.906982	0.199707	-0.626465	4.347330	31.954919	80.010602
05461		-5.285274	0.614665	8.427997	-0.003376	-0.003487	0.003279	-0.907227	0.196777	-0.630127	4.346964	31.953294	80.010086
05462		-5.296213	0.594851	8.437080	-0.001115	-0.000577	0.003174	-0.908936	0.205566	-0.626953	4.348706	31.953057	80.010709
05463		-5.295705	0.628489	8.445271	-0.001097	0.001420	0.004298	-0.908447	0.207275	-0.637695	4.350144	31.954190	80.011380
05464		-5.304600	0.585179	8.405016	-0.002609	-0.000441	0.002662	-0.906250	0.206787	-0.625977	4.350851	31.954052	80.011665
05465		-5.284996	0.614691	8.428169	-0.002993	-0.001964	0.002971	-0.900391	0.200195	-0.623047	4.350644	31.953315	80.012137
05466		-5.265210	0.644199	8.451436	-0.004125	-0.004537	0.005021	-0.899902	0.207275	-0.620117	4.351213	31.950735	80.013801
05467		-5.303187	0.618543	8.413796	-0.000040	-0.006228	0.001747	-0.903564	0.202881	-0.627441	4.352145	31.947598	80.012848
05468		-5.294387	0.628134	8.446123	-0.005634	-0.004162	-0.000610	-0.904297	0.197998	-0.635742	4.349853	31.945477	80.010739
05469		-5.291677	0.604092	8.397247	-0.003427	-0.007241	-0.004087	-0.904785	0.201416	-0.628174	4.346753	31.942039	80.005435
05470		-5.293729	0.593398	8.438741	-0.006817	-0.010489	-0.005927	-0.909668	0.200439	-0.640137	4.341719	31.936534	79.999424
05471		-5.294728	0.649332	8.496695	-0.010169	-0.007508	-0.009512	-0.904785	0.204102	-0.629639	4.332821	31.933180	79.990462
05472		-5.292356	0.590705	8.439791	-0.012810	-0.009706	-0.013092	-0.900391	0.202393	-0.626465	4.321825	31.928430	79.979669
05473		-5.269598	0.628605	8.422320	-0.012391	-0.004190	-0.011152	-0.908447	0.211426	-0.634766	4.311162	31.927025	79.970275
05474		-5.269331	0.626996	8.422607	-0.012755	-0.003717	-0.009719	-0.906006	0.200928	-0.625244	4.301560	31.925548	79.962060
05475		-5.214803	0.848001	8.451720	-0.018674	0.009524	-0.020374	-0.907227	0.197754	-0.629639	4.284385	31.932365	79.947415
05476		-5.285126	0.658447	8.487620	-0.041185	0.048681	-0.021724	-0.907959	0.201904	-0.637695	4.255609	31.961335	79.933750
05477		-5.363269	0.836424	8.466936	-0.056796	0.059216	-0.024589	-0.907471	0.206543	-0.622803	4.216409	31.996717	79.917805
05478		-5.351283	0.724171	8.454198	-0.086273	0.065711	-0.039122	-0.908691	0.205811	-0.626221	4.155982	32.036129	79.893195
05479		-5.349383	0.690524	8.475040	-0.097808	0.068098	-0.038396	-0.906738	0.204102	-0.634521	4.088517	32.077093	79.868962
05480		-5.380416	0.562375	8.514674	-0.111398	0.045164	-0.051411	-0.898926	0.208984	-0.629883	4.008671	32.105209	79.834948
05481		-5.324726	0.514747	8.508591	-0.111477	0.031232	-0.059298	-0.904541	0.201172	-0.636719	3.924882	32.125906	79.795201
05482		-5.354733	0.463276	8.452357	-0.106298	0.019431	-0.056028	-0.905273	0.208008	-0.630615	3.845594	32.139409	79.756780
05483		-5.243110	0.416612	8.377721	-0.082748	0.021716	-0.044119	-0.905518	0.210449	-0.632080	3.783423	32.153996	79.726273
05484		-5.297273	0.284766	8.371790	-0.077987	0.004652	-0.047946	-0.893311	0.200684	-0.629639	3.722874	32.158671	79.692610
05485		-5.250045	0.400004	8.304535	-0.065321	-0.001877	-0.038742	-0.904785	0.208496	-0.627441	3.672027	32.159515	79.664955
05486		-5.200869	0.438864	8.334359	-0.048884	0.000607	-0.030836	-0.893311	0.205811	-0.628662	3.634204	32.161203	79.642663
05487		-5.241903	0.431423	8.345541	-0.037295	0.003962	-0.023034	-0.904541	0.218750	-0.635010	3.605180	32.164771	79.626018
05488		-5.272086	0.445466	8.347789	-0.023845	0.006444	-0.011041	-0.900635	0.214111	-0.633789	3.588950	32.169067	79.617342
05489		-5.205956	0.351187	8.357655	-0.013741	0.011922	-0.002618	-0.905518	0.205566	-0.621826	3.580939	32.176453	79.616564
05490		-5.228897	0.344411	8.382944	0.001577	0.015788	0.009588	-0.901611	0.210693	-0.629150	3.586905	32.185351	79.622219
05491		-5.271014	0.377129	8.401462	0.019538	0.026088	0.022543	-0.899658	0.208984	-0.631348	3.607312	32.199898	79.636692
05492		-5.307446	0.465858	8.346403	0.028871	0.026524	0.030436	-0.904541	0.209961	-0.626953	3.636677	32.214177	79.656903
05493		-5.279945	0.452677	8.342432	0.032620	0.029038	0.035979	-0.897461	0.206787	-0.633057	3.669505	32.229922	79.681006
05494		-5.285048	0.481092	8.389953	0.044602	0.035912	0.044624	-0.898193	0.208252	-0.630371	3.713243	32.249025	79.711245
05495		-5.354846	0.546277	8.368887	0.047950	0.033188	0.043088	-0.905518	0.207520	-0.632324	3.757551	32.266860	79.740087
05496		-5.360604	0.508380	8.399334	0.043089	0.030353	0.035602	-0.896973	0.210449	-0.632080	3.797072	32.283088	79.764024
05497		-5.441858	0.708812	8.470777	0.024000	0.019722	0.020689	-0.900635	0.211670	-0.630371	3.819276	32.294039	79.777300
05498		-5.340931	0.621587	8.396303	0.008299	0.014323	0.008766	-0.902588	0.214111	-0.626221	3.828798	32.302111	79.782384
05499		-5.308393	0.536981	8.449123	0.000146	0.022450	0.002227	-0.908203	0.207764	-0.630859	3.830750	32.315308	79.783694
05500		-5.337241	0.531544	8.400856	0.002749	0.020911	-0.001559	-0.895508	0.199219	-0.628174	3.833521	32.327541	79.782094
05501		-5.347194	0.522209	8.367517	0.001268	0.022781	0.004176	-0.907715	0.209473	-0.627930	3.836834	32.340858	79.783136
05502		-5.370787	0.516554	8.392327	0.008328	0.018574	0.005919	-0.911865	0.215576	-0.629395	3.845453	32.351468	79.786493
05503		-5.372243	0.517639	8.391328	0.009436	0.016911	0.006736	-0.892334	0.206299	-0.633057	3.854227	32.361309	79.790357
05504		-5.340378	0.545211	8.355828	0.012759	0.011920	0.009184	-0.902832	0.208984	-0.642822	3.866408	32.367988	79.795624
05505		-5.381961	0.544510	8.366173	0.013484	0.008731	0.010302	-0.900635	0.213623	-0.633545	3.878618	32.373070	79.801390
05506		-5.400213	0.650718	8.376136	0.016069	0.004936	0.010502	-0.906494	0.202393	-0.629883	3.893004	32.375704	79.807231
05507		-5.330135	0.603385	8.354410	0.007424	-0.004936	0.005430	-0.900391	0.196045	-0.625977	3.899640	32.373133	79.808690
05508		-5.206616	0.533080	8.418468	0.006392	0.007218	0.000041	-0.902588	0.210205	-0.618408	3.904748	32.377477	79.807557
05509		-5.315919	0.523489	8.392740	0.009406	0.011191	-0.001779	-0.895508	0.203857	-0.618652	3.910305	32.384379	79.803885
05510		-5.304878	0.644222	8.408535	0.004978	0.017846	-0.005047	-0.897705	0.211914	-0.624268	3.913021	32.394998	79.799801
05511		-5.314091	0.700813	8.392150	-0.007647	0.024649	-0.019392	-0.900635	0.209717	-0.621826	3.902761	32.410286	79.785979
05512		-5.152974	0.596167	8.435401	-0.022081	0.040038	-0.028292	-0.893799	0.209229	-0.631592	3.882076	32.434493	79.767170
05513		-4.907577	0.493943	8.528721	-0.032996	0.077409	-0.040480	-0.902344	0.208984	-0.627930	3.850922	32.480748	79.741681
05514		-5.075422	0.445344	8.631755	-0.034829	0.134182	-0.043341	-0.889893	0.207275	-0.625732	3.819695	32.559336	79.716900
05515		-5.356236	0.597498	8.643044	-0.044172	0.181177	-0.044196	-0.907959	0.211426	-0.637939	3.783175	32.664984	79.693245
05516		-5.346471	0.940826	8.650774	-0.076162	0.231273	-0.061603	-0.894531	0.203125	-0.632813	3.723714	32.799737	79.660189
05517		-5.279754	0.798126	8.728620	-0.109128	0.285636	-0.088894	-0.905029	0.207764	-0.633301	3.635693	32.966694	79.610236
05518		-5.045789	0.337185	8.780707	-0.115463	0.376018	-0.083705	-0.894775	0.202393	-0.635498	3.548383	33.184931	79.567716
05519		-5.128062	0.165534	8.890082	-0.102361	0.474758	-0.065863	-0.881836	0.207764	-0.642334	3.476489	33.459048	79.540424
05520		-5.416694	0.316275	8.926116	-0.090248	0.575386	-0.048632	-0.883789	0.206055	-0.638916	3.420683	33.790009	79.529320
05521		-5.576316	0.048148	8.991455	-0.107920	0.638065	-0.018946	-0.876709	0.203613	-0.640137	3.366635	34.155848	79.540551
05522		-1.540919	1.562644	11.505115	-0.068684	0.884395	-0.007856	-0.873535	0.215088	-0.638428	3.345709	34.662172	79.569530
05523		-1.746389	0.184752	11.046642	-0.120312	1.789094	-0.024892	-0.855469	0.209717	-0.639893	3.309151	35.686254	79.622990
05524		-4.443317	1.110036	10.800950	-0.030472	2.227420	-0.039365	-0.833496	0.215088	-0.652100	3.330597	36.961844	79.685204
05525		-3.611946	0.294334	11.024373	0.088679	2.731802	-0.066850	-0.816162	0.206787	-0.656738	3.423575	38.526103	79.751434
05526		-4.168392	0.805872	11.355537	0.134328	3.270984	-0.108625	-0.789795	0.203369	-0.664551	3.544177	40.400769	79.816845
05527		-4.287128	-0.597271	11.366719	0.300771	3.789330	-0.104576	-0.750732	0.206787	-0.670410	3.786593	42.570381	79.920138
05528		-4.948759	-0.756501	11.091604	0.478136	4.308358	-0.027818	-0.720459	0.195068	-0.674561	4.211302	45.034214	80.134866
05529		-6.409540	-1.253660	11.441088	0.568574	4.628308	0.011724	-0.685791	0.199707	-0.667969	4.761368	47.676068	80.442528
05530		-7.369752	0.680410	10.386023	0.566592	4.847370	0.069090	-0.645996	0.195313	-0.674561	5.416149	50.439208	80.876669
05531		-7.336073	-0.579183	8.884966	0.427517	5.076511	0.196818	-0.600098	0.187500	-0.675537	6.177687	53.319970	81.531128
05532		-11.003115	-1.439082	9.019478	0.683542	5.028046	0.351222	-0.565918	0.179443	-0.668945	7.331763	56.157522	82.461973
05533		-9.679358	-0.234795	7.556817	0.766780	4.868062	0.454214	-0.522217	0.182617	-0.659180	8.788470	58.881090	83.665859
05534		-10.320376	0.875569	7.189477	0.718573	4.835497	0.477585	-0.491943	0.171387	-0.654785	10.482463	61.567283	85.140302
05535		-12.096515	3.428173	7.886935	0.258834	4.412927	0.372006	-0.445801	0.163574	-0.652832	11.992523	64.004207	86.669565
05536		-10.472876	2.327627	6.703693	-0.326470	4.044093	0.257204	-0.421387	0.165039	-0.639893	13.204966	66.233963	88.209705
05537		-7.563377	0.430647	4.738051	-0.659719	3.824668	0.241633	-0.389160	0.168457	-0.633301	14.392424	68.327530	89.904926
05538		-9.832035	1.443108	7.166654	-0.884995	3.535963	0.148325	-0.357422	0.176758	-0.617432	15.483398	70.263772	91.610901
05539		-9.841888	1.603095	11.139348	-1.160063	2.596707	0.071624	-0.344971	0.180176	-0.607910	16.101565	71.682461	92.966168
05540		-7.395295	-1.485904	11.167775	-1.049937	1.411731	-0.105031	-0.329102	0.191406	-0.608398	16.011352	72.476899	93.501440
05541		-8.458294	-1.174249	9.922995	-0.703733	0.555327	-0.436635	-0.324707	0.192627	-0.602783	15.101602	72.847883	92.969258
05542		-6.633001	-0.709585	11.174321	-0.544553	-0.612204	-0.636282	-0.330566	0.208008	-0.614014	13.374241	72.597977	91.484890
05543		-4.100263	-0.532003	8.857215	-0.265506	-1.271862	-0.737110	-0.346436	0.192627	-0.603516	11.432264	71.973342	89.604539
05544		-2.011720	0.530206	7.537655	-0.065268	-1.648963	-0.745979	-0.359619	0.204590	-0.615479	9.616496	71.122772	87.727693
05545		-1.330290	1.962841	6.644517	-0.086895	-1.757357	-0.719666	-0.367188	0.215088	-0.619141	7.960588	70.186161	86.024088
05546		-1.329610	2.763733	6.212822	-0.304439	-1.775036	-0.683791	-0.375000	0.210693	-0.620117	6.390046	69.226256	84.533461
05547		-1.936450	2.531086	6.168962	-0.525091	-1.796073	-0.612139	-0.390869	0.213379	-0.618652	4.926828	68.231541	83.284632
05548		-2.836967	2.016038	6.316677	-0.615402	-1.881664	-0.480688	-0.399414	0.217285	-0.636963	3.705507	67.177410	82.343554
05549		-3.790897	1.633335	6.681011	-0.562051	-2.040501	-0.338061	-0.414551	0.229004	-0.637207	2.780313	66.015332	81.684691
05550		-4.848857	1.311025	6.988998	-0.428915	-2.248630	-0.201068	-0.431396	0.225342	-0.641113	2.161553	64.733308	81.272143
05551		-5.601437	1.166072	7.288606	-0.250008	-2.494180	-0.080672	-0.450439	0.242432	-0.646484	1.819230	63.300469	81.048940
05552		-6.336403	1.367540	7.611560	-0.094866	-2.739054	0.000254	-0.464600	0.239258	-0.654297	1.672838	61.732003	80.942895
05553		-7.217276	1.897143	7.871748	-0.041836	-2.995119	0.028912	-0.493896	0.236084	-0.658447	1.589297	60.009523	80.872866
05554		-7.887848	2.014062	7.840503	-0.091737	-3.271244	0.040905	-0.508545	0.241943	-0.668213	1.491665	58.135454	80.817946
05555		-8.125666	1.675437	7.618451	-0.146434	-3.523696	0.056383	-0.541748	0.239746	-0.676758	1.378695	56.109449	80.781347
05556		-8.158635	1.331606	7.348217	-0.162296	-3.703527	0.066606	-0.565430	0.238037	-0.683838	1.270337	53.987332	80.760110
05557		-8.274056	0.881401	7.083825	-0.134338	-3.809108	0.073121	-0.591064	0.237793	-0.688721	1.186703	51.797452	80.749580
05558		-8.434858	0.405343	6.937300	-0.055975	-3.829345	0.050476	-0.630859	0.243896	-0.688965	1.136117	49.603423	80.723014
05559		-8.896339	-0.188889	6.919650	0.084310	-3.810894	0.021016	-0.655029	0.244385	-0.699463	1.149027	47.413132	80.673392
05560		-9.215055	-0.566809	7.005019	0.280720	-3.764665	-0.020079	-0.691650	0.235840	-0.707764	1.251216	45.257012	80.589465
05561		-9.506422	-0.607064	7.115977	0.466833	-3.704331	-0.071553	-0.720459	0.234619	-0.703857	1.430976	43.129295	80.461100
05562		-9.613648	-0.356748	7.224407	0.574868	-3.632094	-0.126450	-0.753174	0.221436	-0.708252	1.645404	41.051122	80.286528
05563		-9.811877	0.096548	7.370528	0.575084	-3.546435	-0.172236	-0.787842	0.218262	-0.701660	1.840697	39.016558	80.075180
05564		-10.008993	0.488654	7.394843	0.437505	-3.463179	-0.202874	-0.810059	0.225098	-0.704590	1.950258	37.037407	79.842781
05565		-10.140147	0.769467	7.386203	0.224765	-3.375466	-0.208303	-0.844727	0.207520	-0.696777	1.945079	35.102410	79.612253
05566		-10.511678	0.820206	7.434867	-0.013074	-3.284201	-0.197520	-0.875732	0.211426	-0.693848	1.820048	33.225608	79.399322
05567		-11.022082	0.800865	7.573234	-0.221301	-3.212763	-0.169299	-0.906006	0.211914	-0.689453	1.598275	31.382859	79.218157
05568		-11.602926	0.611300	7.492776	-0.360043	-3.169220	-0.136727	-0.935059	0.216553	-0.675781	1.319969	29.569779	79.072172
05569		-11.489682	0.067528	7.135532	-0.373978	-3.171975	-0.079300	-0.968262	0.211914	-0.658691	1.061471	27.748666	78.975966
05570		-11.067743	-0.150641	6.668108	-0.256840	-3.148181	0.014839	-0.990479	0.215088	-0.648438	0.904348	25.945166	78.949390
05571		-10.207459	0.223447	6.012770	-0.144515	-3.078075	0.122607	-1.010010	0.217285	-0.651855	0.843165	24.176398	78.995865
05572		-9.117781	0.553448	5.274110	-0.107150	-2.921351	0.236194	-1.045654	0.215576	-0.632080	0.831107	22.500939	79.115216
05573		-8.143318	0.521831	4.680528	-0.161060	-2.688664	0.346630	-1.065918	0.221436	-0.619385	0.810629	20.954183	79.303885
05574		-7.354993	0.142734	4.136713	-0.206754	-2.410049	0.460354	-1.087891	0.224609	-0.611816	0.784016	19.569938	79.563175
05575		-6.763700	-0.166375	3.773887	-0.239964	-2.085440	0.555162	-1.101807	0.230225	-0.603760	0.751876	18.367956	79.881233
05576		-6.561572	-0.749128	3.969971	-0.255441	-1.768318	0.615128	-1.120605	0.229004	-0.593506	0.716526	17.350497	80.236507
05577		-7.102779	-0.695415	4.754782	-0.247039	-1.514305	0.615529	-1.133545	0.232422	-0.589600	0.680492	16.476232	80.592695
05578		-7.785775	-0.285464	5.074365	-0.314497	-1.377346	0.434624	-1.141357	0.238037	-0.575684	0.571276	15.684544	80.841544
05579		-7.741525	-1.059707	4.953051	-0.337906	-1.346906	0.209857	-1.137451	0.243164	-0.574219	0.410203	14.910047	80.957982
05580		-7.139530	-1.954979	4.519245	-0.192402	-1.280066	0.015420	-1.160156	0.244873	-0.560791	0.302793	14.176723	80.961080
05581		-6.420962	-2.120152	4.053274	0.073206	-1.146441	-0.156306	-1.162598	0.242920	-0.556641	0.323104	13.519220	80.863747
05582		-5.645191	-1.873251	3.562736	0.328845	-0.897564	-0.263219	-1.173340	0.240234	-0.554443	0.476878	13.006161	80.703810
05583		-4.971463	-1.639032	3.275270	0.636557	-0.563185	-0.223463	-1.171631	0.227295	-0.545410	0.812721	12.684337	80.567323
05584		-5.609015	-0.119904	3.938404	0.894481	-0.231260	-0.069015	-1.177734	0.225586	-0.555908	1.317587	12.552750	80.522982
05585		-6.900352	1.719266	5.046732	0.851428	-0.066814	0.093791	-1.188477	0.221436	-0.549072	1.818185	12.512889	80.575464
05586		-7.049039	2.103510	5.409115	0.612368	-0.010411	0.255536	-1.177246	0.234619	-0.554199	2.203228	12.501968	80.723829
05587		-6.582136	1.594994	4.813580	0.413122	0.115476	0.414054	-1.178955	0.233887	-0.557129	2.494465	12.558842	80.967994
05588		12.429106	3.389788	17.720622	-0.054335	1.243436	0.549110	-1.170166	0.223877	-0.573730	2.544305	13.256951	81.321283
05589		5.389008	-0.424788	13.242874	-0.068434	1.047120	0.507002	-1.166992	0.230469	-0.569824	2.582948	13.843251	81.646015
05590		3.184488	-1.369441	5.088377	-0.139184	1.936238	0.153695	-1.150879	0.232422	-0.584473	2.540233	14.947780	81.786719
05591		0.155570	-3.270809	5.307660	-0.139073	2.789953	-0.271060	-1.128418	0.239014	-0.593262	2.437612	16.550821	81.696199
05592		-5.435837	-2.013650	10.513259	-0.305862	3.142797	-0.986797	-1.111084	0.249756	-0.616699	2.108743	18.372716	81.177525
05593		-7.180965	-1.149474	10.634798	-0.375645	2.902674	-1.421013	-1.093262	0.232178	-0.625000	1.629586	20.060812	80.371632
05594		-5.890312	1.262827	9.061106	-0.262015	2.813387	-1.312090	-1.075439	0.227783	-0.635010	1.209602	21.691084	79.608695
05595		-5.451161	4.459050	9.349731	-0.235955	2.907787	-0.882775	-1.053955	0.230225	-0.648438	0.877953	23.365618	79.092392
05596		-7.787553	5.197670	11.460937	-0.339029	2.889780	-0.384077	-1.039063	0.229248	-0.655518	0.595864	25.024184	78.873118
05597		-9.448050	0.465982	11.303882	-0.473328	2.643573	-0.127691	-1.017334	0.241455	-0.673584	0.296194	26.539093	78.803444
05598		-10.950538	-3.842226	11.492160	-0.388965	2.412606	-0.139001	-0.996826	0.242920	-0.683350	0.035794	27.921776	78.716951
05599		-9.722114	-4.762403	10.474113	-0.095314	2.137265	-0.216991	-0.971924	0.248291	-0.684570	-0.085814	29.146426	78.573145
05600		-7.842252	-1.608075	9.364717	0.168687	1.927377	-0.114891	-0.964600	0.249756	-0.692139	-0.025996	30.250799	78.494658
05601		-13.404501	-2.019433	12.263369	0.581574	1.707366	0.320763	-0.951660	0.239258	-0.696533	0.418966	31.228852	78.710440
05602		-9.073121	-2.604895	8.545480	0.718472	0.750703	0.488695	-0.938965	0.240479	-0.705322	1.006353	31.655606	79.043385
05603		-7.259625	1.573950	8.683946	0.738507	0.719354	0.463988	-0.937256	0.234863	-0.706787	1.600610	32.062526	79.365205
05604		-9.456923	3.251491	9.895589	0.500309	0.427536	0.329740	-0.935303	0.229004	-0.710205	2.012211	32.301582	79.595942
05605		-5.952053	0.650740	7.995643	0.299309	0.065823	0.275120	-0.927979	0.229248	-0.702148	2.284636	32.334513	79.782015
05606		-6.196423	0.077454	8.707404	0.332936	0.101578	0.217911	-0.925293	0.231689	-0.703613	2.557246	32.387574	79.931104
05607		-6.350591	2.229928	8.652918	0.248557	-0.040340	0.170023	-0.936523	0.229004	-0.711426	2.761077	32.361196	80.043069
05608		-5.731447	0.355673	8.626548	0.207635	-0.054329	0.137347	-0.936035	0.231689	-0.705322	2.930086	32.326395	80.132773
05609		-5.578092	1.095244	8.617716	0.171877	-0.066529	0.084004	-0.928955	0.222900	-0.713867	3.058222	32.287092	80.185370
05610		-5.455425	1.364107	8.668449	0.116879	-0.063543	0.042311	-0.929443	0.229492	-0.708252	3.140483	32.249629	80.210175
05611		-5.467978	0.786217	8.596736	0.079131	-0.045958	0.023972	-0.942139	0.221191	-0.710205	3.194180	32.223853	80.222812
05612		-5.474707	0.952724	8.538146	0.058160	-0.024282	0.008149	-0.933838	0.226563	-0.713623	3.231205	32.209905	80.225906
05613		-5.267238	0.643482	8.425998	0.031346	-0.026098	0.006877	-0.941650	0.224365	-0.701904	3.251791	32.196026	80.227731
05614		-5.169949	-0.055393	8.375414	0.054004	-0.001487	0.046024	-0.932373	0.216064	-0.710938	3.300534	32.193874	80.257290
05615		-5.299998	-0.149131	8.308014	0.110416	0.010172	0.092631	-0.931396	0.218750	-0.706543	3.398037	32.197853	80.318470
05616		-5.265546	-0.307829	8.293547	0.157315	-0.027743	0.122808	-0.934814	0.223633	-0.707764	3.533032	32.177943	80.398832
05617		-5.441330	-0.189341	8.352566	0.195210	-0.072930	0.150497	-0.931396	0.216309	-0.708740	3.697910	32.132070	80.495494
05618		-5.477021	0.260938	8.378649	0.215739	-0.108453	0.170132	-0.944336	0.217285	-0.707275	3.881213	32.063841	80.603972
05619		-5.197076	0.326999	8.414573	0.218682	-0.123915	0.188852	-0.936279	0.208740	-0.707520	4.071489	31.986798	80.723588
05620		-5.364125	0.318497	8.513910	0.215729	-0.109316	0.202482	-0.940674	0.218750	-0.710693	4.265684	31.916122	80.853104
05621		-5.552911	0.809794	8.550141	0.205233	-0.122813	0.206399	-0.938721	0.211670	-0.715576	4.453806	31.838259	80.983760
05622		-5.321560	0.997552	8.524291	0.174549	-0.107203	0.185761	-0.937988	0.209961	-0.696777	4.617867	31.768845	81.101407
05623		-5.315231	1.290995	8.653999	0.135798	-0.079453	0.160837	-0.941162	0.210693	-0.701904	4.750766	31.717249	81.203160
05624		-5.238998	1.067414	8.614425	0.102220	-0.032248	0.137056	-0.945313	0.203369	-0.710693	4.857991	31.692499	81.291841
05625		-5.204036	0.523672	8.564462	0.091630	0.003197	0.123745	-0.939209	0.207764	-0.708008	4.954841	31.689551	81.373208
05626		-5.243215	0.514119	8.525467	0.095001	0.014434	0.141851	-0.936523	0.209717	-0.702637	5.060979	31.690938	81.467731
05627		-5.297980	0.744686	8.456622	0.094209	0.028368	0.142725	-0.942627	0.208008	-0.712646	5.166770	31.701122	81.563316
05628		-5.131233	0.762725	8.482063	0.080551	0.038975	0.128713	-0.935791	0.215820	-0.708008	5.260826	31.716907	81.650554
05629		-5.098286	0.981472	8.575583	0.075902	0.067560	0.119112	-0.942871	0.202637	-0.710205	5.349181	31.750419	81.732820
05630		-5.245339	0.937721	8.531960	0.059290	0.097622	0.100261	-0.939209	0.211426	-0.711670	5.423105	31.800965	81.804795
05631		-5.290886	0.899922	8.438619	0.054399	0.111544	0.098130	-0.935547	0.209961	-0.718262	5.493444	31.860499	81.876000
05632		-5.403045	0.845758	8.422972	0.056743	0.114459	0.098057	-0.934326	0.215332	-0.709473	5.565953	31.920615	81.947828
05633		-5.300848	0.838625	8.392184	0.055388	0.103943	0.095615	-0.937256	0.205811	-0.709473	5.635977	31.975804	82.017112
05634		-5.332203	0.809136	8.404184	0.051832	0.096984	0.086386	-0.927734	0.207031	-0.714355	5.701151	32.026469	82.080185
05635		-5.260358	0.594453	8.351548	0.050308	0.080231	0.085688	-0.937744	0.201172	-0.716309	5.764098	32.068570	82.141416
05636		-5.329117	0.698412	8.335793	0.058647	0.069768	0.084607	-0.934814	0.214844	-0.711182	5.831735	32.103703	82.201626
05637		-5.352398	0.712700	8.317037	0.062776	0.054863	0.088553	-0.934326	0.219238	-0.706543	5.902050	32.131053	82.263183
05638		-5.358801	0.814159	8.306532	0.069429	0.035911	0.097863	-0.938232	0.207520	-0.704590	5.979469	32.145979	82.330081
05639		-5.443440	1.048891	8.278045	0.065731	0.024910	0.086367	-0.930176	0.217041	-0.714355	6.049646	32.156260	82.388143
05640		-5.365765	1.207523	8.303893	0.053207	0.018675	0.079139	-0.927002	0.206543	-0.709229	6.110457	32.162365	82.441263
05641		-5.372934	1.510719	8.401092	0.023829	0.028224	0.050112	-0.943115	0.209961	-0.708984	6.143832	32.176660	82.475218
05642		-5.337432	1.436224	8.485707	-0.014780	0.056570	0.009275	-0.930176	0.205322	-0.706787	6.142136	32.208586	82.484081
05643		-5.297921	1.318836	8.430090	-0.045491	0.085640	-0.029266	-0.935547	0.204346	-0.712158	6.109611	32.260435	82.468790
05644		-5.296726	1.197183	8.457436	-0.060394	0.103016	-0.055980	-0.921631	0.217041	-0.713379	6.060066	32.322793	82.436982
05645		-5.261803	0.972154	8.448575	-0.091190	0.125512	-0.082472	-0.932129	0.205811	-0.715088	5.983611	32.400519	82.388532
05646		-5.310620	0.586225	8.450977	-0.090081	0.149572	-0.080592	-0.932861	0.210205	-0.715332	5.909700	32.490805	82.343146
05647		-5.382570	0.623156	8.333013	-0.080430	0.157586	-0.057776	-0.926270	0.203857	-0.708252	5.849281	32.585245	82.313296
05648		-5.447675	0.953377	8.256975	-0.076086	0.150925	-0.054424	-0.927002	0.215820	-0.714600	5.792689	32.674697	82.285386
05649		-5.402707	0.906192	8.245916	-0.082823	0.148797	-0.061027	-0.918213	0.218262	-0.716064	5.729142	32.764262	82.252440
05650		-5.296668	0.877518	8.361885	-0.084032	0.157257	-0.062118	-0.919189	0.213623	-0.712158	5.665172	32.857710	82.219453
05651		-5.321182	0.970690	8.436696	-0.099396	0.179333	-0.073372	-0.921387	0.208984	-0.718506	5.588428	32.965305	82.179851
05652		-5.346390	0.937031	8.509175	-0.122008	0.208270	-0.083842	-0.913818	0.204346	-0.708740	5.496168	33.088972	82.135073
05653		-5.379977	1.216798	8.526587	-0.149116	0.246931	-0.105290	-0.919434	0.213867	-0.722900	5.381019	33.236723	82.077586
05654		-5.442948	1.429755	8.437557	-0.199740	0.289422	-0.160856	-0.913818	0.217773	-0.719482	5.217536	33.410603	81.984585
05655		-5.482092	1.133067	8.355149	-0.251668	0.332246	-0.216887	-0.916504	0.217529	-0.720459	5.003428	33.612435	81.854733
05656		-5.449404	-0.253614	8.394454	-0.237379	0.362998	-0.188379	-0.914063	0.215088	-0.715820	4.808729	33.829128	81.745317
05657		-5.578690	-0.297513	8.255782	-0.165041	0.347621	-0.098926	-0.905029	0.223877	-0.717041	4.688024	34.033439	81.695336
05658		-5.686260	0.593195	8.257770	-0.140824	0.329747	-0.060335	-0.897705	0.215088	-0.720459	4.595545	34.224784	81.670662
05659		-5.704646	0.653707	8.290045	-0.146255	0.329880	-0.058664	-0.904053	0.224365	-0.728027	4.499793	34.416987	81.646417
05660		-5.577571	0.674149	8.520193	-0.162126	0.360731	-0.051999	-0.896484	0.228027	-0.729980	4.398685	34.625590	81.628297
05661		-5.217588	0.197489	8.706886	-0.174359	0.401145	-0.044975	-0.898193	0.223633	-0.723389	4.293721	34.857823	81.616394
05662		-4.226262	1.053324	9.197230	-0.137501	0.593345	-0.047139	-0.882568	0.222168	-0.726807	4.214904	35.199079	81.612761
05663		-4.654875	0.564887	9.092861	-0.156410	0.899767	-0.056307	-0.881104	0.236328	-0.727783	4.129731	35.716554	81.617453
05664		-4.878568	1.082708	9.054810	-0.212344	1.112855	-0.067557	-0.872314	0.224609	-0.732422	4.014049	36.355535	81.624138
05665		-4.987398	1.615792	9.047207	-0.262747	1.353610	-0.122624	-0.865967	0.230713	-0.732422	3.851505	37.134898	81.601168
05666		-4.937725	1.552730	9.135799	-0.328032	1.596789	-0.201418	-0.848877	0.226563	-0.734131	3.621872	38.055583	81.529488
05667		-4.978013	0.791552	9.186096	-0.330271	1.866347	-0.253987	-0.835693	0.239990	-0.737305	3.369408	39.132440	81.425207
05668		-4.591719	-0.113180	9.363353	-0.237151	2.155401	-0.233663	-0.814209	0.238525	-0.738770	3.182044	40.373232	81.341499
05669		-4.809916	-0.422180	9.110751	-0.130455	2.485183	-0.183674	-0.796875	0.233643	-0.744629	3.084060	41.801169	81.303378
05670		-5.218332	0.150536	8.986865	-0.000587	2.827868	-0.155547	-0.770020	0.241211	-0.746826	3.082921	43.424068	81.299163
05671		-5.200939	0.157887	8.883906	0.097294	3.173715	-0.148326	-0.745850	0.233643	-0.752441	3.152687	45.244582	81.316652
05672		-5.299890	0.194114	8.748651	0.175920	3.543854	-0.149932	-0.709229	0.241211	-0.747314	3.283716	47.276885	81.355638
05673		-5.542492	0.467980	8.764870	0.199786	3.920251	-0.156454	-0.675781	0.233887	-0.755859	3.445927	49.524342	81.417050
05674		-5.386616	0.066258	8.332201	0.252642	4.368093	-0.149236	-0.634521	0.226318	-0.752441	3.677136	52.027765	81.525948
05675		-5.684724	-0.383212	8.098931	0.333912	4.843551	-0.121479	-0.603027	0.221924	-0.755615	4.025730	54.800974	81.719462
05676		-6.325322	-0.551367	7.829032	0.412093	5.324895	-0.078110	-0.545410	0.224854	-0.755127	4.536974	57.846979	82.047427
05677		-7.002757	0.000979	7.686856	0.420148	5.798765	-0.066570	-0.496582	0.218750	-0.736084	5.190519	61.160102	82.524161
05678		-7.917026	0.568491	7.481940	0.311716	6.218786	-0.122556	-0.439453	0.214355	-0.726318	5.906453	64.713600	83.124904
05679		-8.884993	0.182497	6.945658	0.141498	6.506078	-0.136550	-0.389160	0.216309	-0.705322	6.754540	68.426426	83.958375
05680		-10.334056	0.130664	6.132800	0.156686	6.938502	-0.179109	-0.330322	0.214355	-0.690674	7.990472	72.382706	85.172050
05681		-14.316751	2.816218	8.067230	-0.077536	6.874413	-0.400244	-0.282715	0.221436	-0.664307	9.237792	76.310593	86.510820
05682		-14.570911	1.701209	7.433474	-0.658459	6.647464	-0.572507	-0.226318	0.232422	-0.631348	10.425166	80.120091	88.106314
05683		-19.856055	2.108879	9.340337	-1.174499	6.233438	-0.661649	-0.181885	0.239990	-0.606934	12.013500	83.696412	90.387438
05684		-18.385153	-0.855389	7.066655	-1.407544	5.446163	-0.408474	-0.146484	0.251709	-0.580811	18.270641	86.775936	97.471056
05685		-15.551988	-2.198566	7.092015	-1.135082	5.184445	-0.032169	-0.108154	0.255615	-0.549316	83.846537	89.022076	163.720619
05686		-16.116090	-0.647675	8.679908	-0.731662	4.740586	0.332712	-0.077393	0.260010	-0.518799	155.780302	87.145348	-123.905155
05687		-11.177259	-1.335066	7.123320	-0.470985	4.494587	0.619195	-0.064453	0.254883	-0.488525	163.378990	84.605692	-116.020184
05688		-9.131241	-1.724926	7.696499	-0.253203	4.372830	0.761418	-0.031494	0.249023	-0.460693	165.419334	82.074976	-113.822500
05689		-4.671016	-2.586348	6.488838	0.098853	4.363009	0.959410	-0.006592	0.247803	-0.441162	166.004645	79.521015	-113.289165
05690		-1.997022	-3.328247	2.270995	0.710510	4.776177	1.268791	0.020508	0.236572	-0.397217	166.191127	76.690142	-113.516727
05691		-17.256525	-1.966397	5.957764	1.368993	5.090862	1.246100	0.045166	0.220215	-0.378418	166.920924	73.691974	-113.575515
05692		-18.260520	0.587737	11.638794	1.464434	3.167243	1.156681	0.057373	0.205322	-0.354980	167.005898	71.774685	-114.367307
05693		-17.315191	2.248619	11.315049	1.234783	1.416695	0.934429	0.056152	0.189209	-0.349121	166.721654	70.868512	-115.416284
05694		-14.174915	2.863629	11.236512	0.777194	-0.442586	0.646453	0.053955	0.171875	-0.359619	165.957043	71.027627	-116.698474
05695		-9.767738	2.776521	9.059992	0.282020	-1.739974	0.351009	0.040771	0.172852	-0.368164	164.787796	71.948963	-118.103750
05696		-6.567029	2.627082	6.995164	-0.124190	-2.588711	0.098036	0.027588	0.176025	-0.391602	163.241971	73.359713	-119.650697
05697		-4.594797	2.048519	5.321949	-0.414330	-3.120373	-0.050422	0.016113	0.171143	-0.419434	161.167306	75.079362	-121.561329
05698		-3.012269	1.306648	4.077141	-0.510990	-3.474733	-0.072384	-0.010986	0.183594	-0.433105	158.264887	76.961977	-124.252313
05699		-1.713578	0.919863	3.321634	-0.437937	-3.650128	0.010486	-0.034668	0.187744	-0.453369	154.027265	78.882047	-128.330112
05700		-1.213185	0.860453	3.070129	-0.300550	-3.676816	0.140482	-0.068604	0.189697	-0.484619	147.785638	80.686855	-134.498416
05701		-1.717630	0.963418	3.139615	-0.155929	-3.665452	0.296251	-0.093262	0.190674	-0.510742	138.326078	82.276834	-143.973173
05702		-2.731476	1.242578	3.680244	-0.052237	-3.678374	0.420525	-0.129883	0.193115	-0.538574	124.309605	83.497398	-158.068375
05703		-4.187987	1.456203	4.510890	-0.027706	-3.800741	0.518044	-0.144531	0.183105	-0.554932	104.684539	84.145026	-177.790859
05704		-5.714940	1.532417	5.397429	-0.060201	-4.046973	0.574726	-0.181152	0.181396	-0.577881	82.116483	83.951353	159.554575
05705		-7.418991	1.372988	6.097625	-0.117743	-4.425387	0.628322	-0.218750	0.180176	-0.603027	62.029620	82.809206	139.403445
05706		-8.078852	1.330480	6.343681	-0.161985	-4.884255	0.679665	-0.257813	0.181152	-0.623291	47.524010	80.862560	124.844683
05707		-8.069978	1.403882	6.214196	-0.232438	-5.266372	0.689676	-0.308105	0.183105	-0.652100	37.770443	78.359834	115.066157
05708		-7.785515	1.405444	5.801293	-0.329446	-5.573732	0.659008	-0.366211	0.188965	-0.679443	31.131559	75.508984	108.444979
05709		-7.547944	1.486114	5.412322	-0.468815	-5.740865	0.601210	-0.426025	0.194580	-0.693115	26.380833	72.448514	103.782909
05710		-7.506939	1.381495	5.071048	-0.622715	-5.784136	0.507592	-0.474365	0.209473	-0.708740	22.805658	69.313366	100.375950
05711		-8.008428	1.008149	5.118709	-0.737935	-5.745462	0.419523	-0.540527	0.216553	-0.724609	19.984283	66.150251	97.784582
05712		-8.695771	0.616240	5.357389	-0.764673	-5.671525	0.340060	-0.602539	0.225098	-0.729492	17.723419	63.012181	95.765136
05713		-9.669428	0.767432	5.822125	-0.751191	-5.572998	0.268298	-0.665283	0.234619	-0.737793	15.859906	59.900478	94.133875
05714		-10.690813	0.772769	6.103278	-0.757520	-5.474083	0.204798	-0.726318	0.252686	-0.730469	14.285298	56.841724	92.792532
05715		-11.081065	0.531111	6.324611	-0.766031	-5.378295	0.135372	-0.789307	0.264893	-0.722412	12.902930	53.817921	91.645354
05716		-11.446013	0.389550	6.797855	-0.737922	-5.240296	0.027690	-0.854492	0.279297	-0.718018	11.672190	50.881161	90.622783
05717		-12.472145	0.473524	7.625395	-0.724969	-5.069712	-0.138413	-0.932373	0.306152	-0.693115	10.508801	48.035643	89.638361
05718		-14.018935	0.454207	8.638454	-0.723507	-5.001452	-0.365450	-0.992188	0.316650	-0.663818	9.352952	45.249332	88.616408
05719		-15.809498	0.293428	9.471286	-0.672914	-5.048367	-0.637798	-1.060791	0.325439	-0.625000	8.194097	42.436299	87.499891
05720		-17.065327	0.279409	9.768509	-0.528078	-5.186918	-0.930401	-1.122070	0.331055	-0.588623	7.089440	39.561866	86.274671
05721		-17.564398	0.368366	9.165481	-0.320051	-5.319066	-1.206214	-1.183105	0.343994	-0.542480	6.092141	36.604042	84.954818
05722		-17.285597	0.637843	8.056314	-0.078348	-5.360018	-1.447349	-1.237793	0.341064	-0.475586	5.254364	33.630087	83.573444
05723		-16.473048	1.040353	6.623613	0.113740	-5.250783	-1.621049	-1.287354	0.331299	-0.417480	4.574550	30.703347	82.173262
05724		-15.929785	1.085958	5.457953	0.246350	-4.990127	-1.695753	-1.322021	0.326416	-0.355225	4.052162	27.925470	80.814197
05725		-15.619244	0.877230	4.608131	0.404166	-4.641984	-1.669724	-1.354980	0.311279	-0.292480	3.714857	25.328911	79.542916
05726		-15.472647	0.854962	4.093699	0.526223	-4.230338	-1.455879	-1.365723	0.301514	-0.234375	3.575556	22.963182	78.460443
05727		-15.272776	1.025833	3.871891	0.553127	-3.831512	-1.109600	-1.376465	0.286621	-0.194580	3.583121	20.805361	77.627172
05728		-15.020424	2.036600	4.061428	0.402759	-3.428965	-0.679389	-1.374268	0.282959	-0.145508	3.630746	18.869286	77.081462
05729		-15.791039	4.468678	3.747120	-0.159152	-3.159112	-0.349731	-1.365723	0.279541	-0.100830	3.439426	17.069887	76.752258
05730		-15.351785	5.000029	2.507952	-1.019837	-2.976045	-0.136165	-1.359863	0.272461	-0.063477	2.807049	15.371729	76.573063
05731		-13.898348	3.100403	0.471916	-1.706047	-2.738148	0.032346	-1.354492	0.285400	-0.033691	1.819386	13.799688	76.525355
05732		-12.935087	0.143782	-1.201099	-1.811619	-2.333498	0.265781	-1.348145	0.282959	-0.014404	0.811465	12.459727	76.648858
05733		-12.466667	-1.561775	-2.354655	-1.344824	-1.843846	0.566675	-1.343750	0.290771	0.005127	0.109481	11.398278	76.970668
05734		-12.496039	-1.205677	-2.514805	-0.638773	-1.344949	0.872757	-1.343262	0.296387	0.026855	-0.157329	10.628015	77.479129
05735		-12.729815	0.937712	-2.255600	-0.228825	-0.918245	1.070063	-1.338135	0.296631	0.040771	-0.174383	10.102541	78.102595
05736		-11.655909	1.709750	-2.244174	-0.246330	-0.485881	1.211862	-1.334229	0.306152	0.047119	-0.191548	9.826494	78.807181
05737		-3.717879	-2.302696	-5.543446	0.305742	1.194006	1.367320	-1.335693	0.321045	0.049561	0.125856	10.511223	79.601392
05738		6.712664	-2.184258	3.242109	0.592855	2.569366	1.765989	-1.330322	0.338867	0.044189	0.670563	11.976472	80.642110
05739		-3.060345	1.238268	15.689472	0.503319	2.978830	1.462531	-1.326172	0.358154	0.026123	1.157370	13.669714	81.527916
05740		-2.592847	-3.286184	9.657708	0.167251	2.734051	0.647205	-1.320557	0.366943	0.029297	1.359323	15.227855	81.944957
05741		-4.529012	-3.224288	6.669577	-0.190017	3.127373	-0.414674	-1.315430	0.382080	0.010742	1.194560	17.024599	81.737822
05742		-4.738534	-2.168148	9.628117	-0.347118	3.388955	-1.265749	-1.316650	0.379395	0.012695	0.772472	18.978670	81.009129
05743		-8.344089	1.161835	11.039220	-0.383096	3.348310	-1.532627	-1.320313	0.373535	0.005371	0.241317	20.905064	80.091501
05744		-6.850588	5.003071	10.310521	-0.299057	3.194690	-0.995304	-1.312988	0.374512	-0.010498	-0.156310	22.736060	79.477340
05745		-9.446504	6.167704	11.793837	-0.526604	3.127081	-0.367404	-1.315674	0.380615	-0.020020	-0.553968	24.526936	79.233894
05746		-11.922441	-0.036351	12.914019	-0.721704	2.823142	-0.125515	-1.316650	0.388916	-0.027588	-1.010557	26.143456	79.128493
05747		-11.379386	-6.932925	11.159987	-0.537354	2.475212	-0.246642	-1.314697	0.395264	-0.038086	-1.403783	27.559344	78.935201
05748		-9.561996	-4.992815	9.993285	-0.086824	2.295706	-0.340954	-1.315186	0.384521	-0.045410	-1.575289	28.869265	78.673339
05749		-17.160123	-4.172395	13.734998	0.671064	1.860822	0.228030	-1.317627	0.394043	-0.049072	-1.130800	29.939655	78.792539
05750		-8.283981	-0.469581	8.225449	0.762953	0.872507	0.435189	-1.311768	0.394775	-0.060059	-0.551559	30.443284	79.071018
05751		-7.437575	1.442779	9.532030	0.672530	0.879916	0.398313	-1.309814	0.397461	-0.059814	-0.031981	30.950636	79.331453
05752		-7.219126	0.433280	8.740944	0.564227	0.663843	0.324505	-1.307861	0.394287	-0.064453	0.405669	31.330517	79.548644
05753		-6.734316	1.155332	8.880987	0.465485	0.491751	0.272442	-1.305176	0.400879	-0.061768	0.770077	31.612880	79.733117
05754		-6.518873	0.983167	8.853551	0.354215	0.365190	0.201717	-1.302979	0.396484	-0.065186	1.047763	31.820411	79.871373
05755		-6.975794	1.412047	8.996284	0.235785	0.194921	0.119359	-1.309326	0.401611	-0.068115	1.227264	31.933051	79.952637
05756		-5.555948	0.426072	8.586348	0.164136	0.109746	0.101887	-1.303711	0.408447	-0.066650	1.359870	31.994757	80.021606
05757		-5.487756	0.135918	8.579648	0.150728	0.101908	0.086369	-1.302246	0.397949	-0.073975	1.478679	32.054309	80.079850
05758		-5.687802	0.834098	8.604899	0.134510	0.077073	0.074253	-1.302979	0.407471	-0.069092	1.584397	32.097481	80.129936
05759		-5.675840	0.776671	8.594649	0.094982	0.058419	0.054967	-1.304688	0.409912	-0.064697	1.659811	32.132468	80.166433
05760		-5.657928	0.355182	8.580801	0.063173	0.037230	0.025330	-1.303955	0.401123	-0.073730	1.706769	32.153532	80.182807
05761		-5.605630	0.683958	8.578094	0.032052	0.012422	0.001836	-1.306885	0.400879	-0.069580	1.726610	32.163053	80.182534
05762		-5.504366	0.750682	8.590728	0.001146	0.003727	-0.017327	-1.304443	0.404053	-0.069824	1.722320	32.165656	80.169390
05763		-5.262235	0.494548	8.517628	-0.012276	0.026496	-0.023971	-1.302734	0.403076	-0.068848	1.707675	32.183683	80.151974
05764		-5.392602	0.374069	8.558926	-0.011157	0.026771	-0.022015	-1.304199	0.399170	-0.058838	1.694885	32.199559	80.136114
05765		-5.443515	0.242052	8.455330	-0.013451	0.020800	-0.007825	-1.302246	0.410400	-0.067627	1.685338	32.214030	80.129511
05766		-5.119467	0.024608	8.370274	-0.002590	0.028647	0.005297	-1.301025	0.407227	-0.065186	1.687323	32.230516	80.132169
05767		-5.470095	0.033007	8.490392	0.017182	0.037448	0.022645	-1.309326	0.401611	-0.073975	1.706497	32.253994	80.146525
05768		-5.619089	0.512665	8.591475	0.006371	0.032798	0.022114	-1.304443	0.395508	-0.072754	1.719747	32.272568	80.160666
05769		-5.745260	0.793712	8.680077	-0.044153	0.025149	-0.008522	-1.301758	0.402588	-0.065186	1.692390	32.289536	80.153675
05770		-5.524577	0.520004	8.469171	-0.095793	0.016022	-0.052526	-1.298340	0.413086	-0.067383	1.619908	32.299750	80.116901
05771		-5.294856	-0.001411	8.405824	-0.106254	0.036516	-0.059313	-1.299561	0.404297	-0.069336	1.538709	32.324027	80.075690
05772		-5.271817	0.072955	8.357913	-0.090830	0.052871	-0.055245	-1.302734	0.412842	-0.064209	1.468384	32.355305	80.037677
05773		-5.257779	-0.060556	8.288476	-0.066117	0.072902	-0.035789	-1.298828	0.403564	-0.067871	1.418944	32.399990	80.012937
05774		-5.225770	0.040267	8.231484	-0.027923	0.076418	-0.011273	-1.299072	0.400635	-0.071045	1.400773	32.444083	80.005060
05775		-5.142835	0.051432	8.238613	-0.004807	0.088739	0.002953	-1.305664	0.407959	-0.069092	1.400629	32.497270	80.006808
05776		-5.156250	0.093150	8.334641	0.009080	0.102908	0.010472	-1.300293	0.404541	-0.072754	1.411821	32.556230	80.014133
05777		-5.357732	0.135883	8.384180	0.016296	0.116675	0.017673	-1.308105	0.406494	-0.071045	1.429415	32.625187	80.026374
05778		-5.399356	0.259354	8.338411	0.011465	0.115293	0.021529	-1.302002	0.404785	-0.070068	1.446188	32.691079	80.041482
05779		-5.242850	-0.034069	8.344459	0.022334	0.125499	0.030799	-1.303467	0.403564	-0.070557	1.472221	32.764885	80.062887
05780		-5.247302	-0.087733	8.349910	0.036920	0.138049	0.045698	-1.302002	0.406738	-0.072266	1.512806	32.843437	80.094968
05781		-5.369230	-0.002441	8.386207	0.051102	0.145523	0.053385	-1.302979	0.409180	-0.071533	1.563989	32.928319	80.132282
05782		-5.369437	0.091094	8.390591	0.053616	0.164609	0.057790	-1.303711	0.404785	-0.064941	1.619110	33.021844	80.173346
05783		-5.397060	-0.019954	8.358609	0.062298	0.174319	0.063188	-1.305420	0.414551	-0.078369	1.680906	33.122979	80.218188
05784		-5.608073	0.237771	8.316852	0.069359	0.177539	0.074750	-1.305176	0.400635	-0.077148	1.751844	33.223543	80.271457
05785		-5.784054	0.539253	8.364891	0.054535	0.169445	0.063668	-1.301758	0.406982	-0.084961	1.809640	33.321789	80.316890
05786		-5.731058	0.686696	8.360527	0.018208	0.153146	0.035938	-1.311768	0.409912	-0.075195	1.836679	33.409007	80.343356
05787		-5.601605	0.553186	8.369720	-0.017324	0.159239	0.004429	-1.300293	0.417236	-0.081299	1.831046	33.502472	80.348133
05788		-5.400630	0.313678	8.296011	-0.033475	0.178919	-0.010812	-1.306152	0.414063	-0.083496	1.811130	33.605303	80.343090
05789		-5.421185	0.264726	8.316080	-0.040480	0.198375	-0.012937	-1.299805	0.410400	-0.082764	1.786082	33.721483	80.336720
05790		-5.451888	0.141728	8.281994	-0.034518	0.217118	-0.013995	-1.295654	0.411377	-0.080811	1.764724	33.846243	80.330188
05791		-5.609653	0.268384	8.323954	-0.038106	0.224364	-0.008541	-1.302979	0.405762	-0.086914	1.742936	33.977205	80.327271
05792		-5.707429	0.342564	8.237633	-0.045156	0.218557	-0.011028	-1.296143	0.403564	-0.086182	1.716545	34.102733	80.322679
05793		-5.728106	0.309261	8.142320	-0.051840	0.210323	-0.016163	-1.304443	0.417725	-0.087158	1.683675	34.225779	80.314047
05794		-5.587773	-0.065568	8.094725	-0.037714	0.200436	-0.003903	-1.299316	0.408447	-0.081055	1.664016	34.340806	80.313866
05795		-5.522958	-0.296981	8.066638	-0.000502	0.207239	0.040479	-1.295654	0.408936	-0.087402	1.682642	34.461137	80.344386
05796		-5.665619	0.022965	8.151614	0.037084	0.204085	0.072385	-1.294434	0.406494	-0.090332	1.735979	34.576950	80.397393
05797		-5.768645	0.216717	8.186261	0.054773	0.202081	0.078863	-1.299316	0.408936	-0.089844	1.801641	34.693599	80.454817
05798		-5.788390	0.345223	8.255033	0.053234	0.207503	0.071980	-1.297852	0.410156	-0.078613	1.864550	34.811282	80.508071
05799		-5.882225	0.426831	8.240435	0.036667	0.219084	0.063537	-1.294434	0.406982	-0.086182	1.914416	34.937856	80.555655
05800		-5.684585	0.195781	8.167846	0.037097	0.233817	0.061722	-1.302246	0.411133	-0.098145	1.964762	35.070724	80.602792
05801		-5.565495	0.009635	8.425292	0.047128	0.260154	0.073761	-1.298340	0.407227	-0.094971	2.025769	35.220534	80.658981
05802		-5.731295	0.404442	8.508268	0.035949	0.284289	0.072396	-1.297852	0.416504	-0.091553	2.081004	35.382006	80.715372
05803		-5.752129	0.739163	8.591799	-0.024575	0.320384	0.069697	-1.298340	0.418213	-0.101563	2.100733	35.566270	80.770775
05804		-5.555756	1.078986	8.917342	-0.134760	0.372957	0.069380	-1.289795	0.414795	-0.098389	2.058746	35.778554	80.827662
05805		-4.806248	2.098307	9.513515	-0.563435	0.566500	0.124904	-1.287354	0.412598	-0.109863	1.796357	36.102751	80.927701
05806		-3.694494	-2.254951	9.080473	-0.219041	0.856956	0.044974	-1.281250	0.415527	-0.109863	1.701954	36.592906	80.976711
05807		-5.089606	1.458722	9.414258	-0.182336	1.213595	-0.010064	-1.284180	0.412598	-0.111572	1.608835	37.290087	80.992781
05808		-5.025418	0.835904	9.024503	-0.175722	1.474674	-0.054209	-1.275879	0.406982	-0.122559	1.502953	38.135712	80.980930
05809		-5.248095	1.114032	8.906008	-0.264086	1.736689	-0.121733	-1.277588	0.413330	-0.130859	1.316108	39.133952	80.921169
05810		-5.240953	0.579899	8.969902	-0.235678	2.003864	-0.169277	-1.258789	0.413818	-0.143555	1.121819	40.284045	80.825223
05811		-5.208608	0.194043	8.913429	-0.135250	2.267476	-0.204465	-1.254395	0.413818	-0.154785	0.963865	41.586713	80.699622
05812		-5.572892	0.230874	8.536156	-0.102710	2.536614	-0.240687	-1.251221	0.412109	-0.164307	0.800745	43.042190	80.541702
05813		-5.673982	0.211017	8.344068	-0.037271	2.794343	-0.252442	-1.246338	0.402100	-0.193604	0.660578	44.646318	80.367524
05814		-5.614173	0.150768	8.303265	0.026328	3.072655	-0.274590	-1.236328	0.401855	-0.199219	0.534872	46.408513	80.167372
05815		-5.602906	-0.011501	8.243453	0.075922	3.389168	-0.303809	-1.230957	0.406982	-0.223389	0.406854	48.352886	79.931776
05816		-5.783670	0.189380	8.140985	0.089532	3.725248	-0.331811	-1.201172	0.404053	-0.245117	0.251038	50.488496	79.656420
05817		-5.818741	0.126022	7.803083	0.080478	4.141380	-0.372532	-1.188965	0.392334	-0.273682	0.034620	52.862743	79.319443
05818		-6.123182	0.438908	7.777308	0.075554	4.593539	-0.413996	-1.176270	0.392578	-0.287109	-0.257580	55.494325	78.903262
05819		-6.448459	-0.092940	7.610853	0.042871	5.065103	-0.457492	-1.161865	0.384033	-0.315430	-0.672369	58.394785	78.376935
05820		-6.616615	-1.030809	7.498206	0.024876	5.534529	-0.466326	-1.121826	0.392090	-0.338867	-1.210899	61.561174	77.736367
05821		-7.762534	-2.064780	7.253289	0.027698	5.914869	-0.387002	-1.108887	0.379883	-0.372803	-1.813556	64.943364	77.041869
05822		-8.230758	-1.085095	7.257100	0.044401	6.297091	-0.284723	-1.073975	0.383057	-0.392090	-2.483289	68.542839	76.283346
05823		-8.693046	-1.484383	5.941064	0.093634	6.636755	-0.170273	-1.041260	0.374756	-0.411133	-3.241369	72.335696	75.420323
05824		-12.440901	0.462690	7.151464	0.028690	7.011636	-0.165056	-0.995361	0.364258	-0.439209	-4.536187	76.337726	74.057193
05825		-14.071511	0.357503	7.159887	-0.239444	6.888626	-0.161922	-0.961426	0.357910	-0.458496	-7.049211	80.255317	71.630383
05826		-15.036304	1.666000	6.158448	-0.644442	6.813100	-0.235056	-0.918213	0.363525	-0.470947	-13.440828	84.077985	65.552834
05827		-20.602426	2.644038	8.672548	-1.507723	6.242964	-0.461282	-0.889893	0.364990	-0.476318	-38.172564	87.250378	41.625528
05828		-16.114037	-2.871241	5.527678	-1.777807	5.676302	-0.257531	-0.853271	0.364502	-0.483398	-121.124480	87.830603	-40.361117
05829		-17.030022	-4.418664	7.298819	-1.383625	5.387039	0.294584	-0.809570	0.360596	-0.478271	-158.634523	85.458374	-77.131847
05830		-14.496359	-2.575487	6.929474	-0.841993	4.786969	0.837115	-0.781494	0.348145	-0.470947	-170.784780	82.925550	-88.858585
05831		-12.102480	-2.237581	7.139804	-0.505322	4.588506	1.141319	-0.756836	0.342285	-0.456787	-177.345636	80.376681	-95.197617
05832		-9.428783	-1.255067	7.742950	-0.392866	4.290395	1.237596	-0.733398	0.334717	-0.447266	178.596844	77.924805	-99.100894
05833		-5.379201	-2.123520	6.947537	-0.213532	4.298565	1.398500	-0.697754	0.320068	-0.430908	175.628987	75.427528	-102.026747
05834		-4.096322	-3.245320	7.260490	0.283785	4.399154	1.615233	-0.676025	0.305176	-0.397461	173.404552	72.829497	-104.509881
05835		-15.892112	-3.912701	8.732993	0.931052	3.979462	1.467063	-0.653809	0.278076	-0.379639	172.287342	70.466970	-106.251178
05836		-21.728196	-0.134791	16.924501	0.871695	1.497210	1.097642	-0.656006	0.258545	-0.345703	171.416065	69.528634	-107.712029
05837		-15.554228	-1.417958	14.243192	0.625868	-0.896055	0.644382	-0.657959	0.239014	-0.316406	170.574329	69.984815	-108.993859
05838		-12.759919	-2.172699	13.089520	0.764613	-2.868430	0.360570	-0.664307	0.213623	-0.285400	169.623969	71.568517	-110.466353
05839		-7.762721	-1.360442	10.001704	0.943524	-4.069387	0.265649	-0.656250	0.196533	-0.240479	168.253597	73.836824	-112.469845
05840		-4.451847	-0.096552	7.281007	1.032696	-4.690117	0.235805	-0.645752	0.172607	-0.211182	166.109447	76.428033	-115.301923
05841		-1.920691	1.380965	5.304544	0.886241	-4.836796	0.272942	-0.642578	0.157471	-0.184082	162.468786	79.065241	-119.548063
05842		-1.069101	3.062759	4.273710	0.433311	-4.672722	0.299147	-0.624268	0.136475	-0.171387	156.271790	81.514724	-126.087440
05843		-1.958192	3.017589	3.675428	-0.133917	-4.435439	0.287081	-0.611328	0.126709	-0.155029	145.543745	83.674925	-136.827757
05844		-3.201195	1.744900	3.662011	-0.498322	-4.268476	0.301962	-0.592041	0.117676	-0.150146	126.189284	85.333589	-155.983178
05845		-4.768721	0.461837	4.233784	-0.551296	-4.240547	0.367015	-0.574707	0.110596	-0.150391	94.275243	86.007701	172.331665
05846		-5.681932	-0.555904	4.891111	-0.323545	-4.361651	0.461412	-0.566650	0.105225	-0.156982	62.479670	85.216536	140.631899
05847		-6.016409	-0.212419	5.467633	0.032791	-4.523746	0.537952	-0.552490	0.095703	-0.167236	43.446367	83.378817	121.487747
05848		-6.761551	1.317429	6.107297	0.209082	-4.708156	0.536223	-0.542480	0.092529	-0.181152	33.082863	81.061605	110.907669
05849		-7.992330	2.998103	6.666410	0.065273	-5.020330	0.451693	-0.543701	0.084961	-0.198975	26.427797	78.422257	104.107271
05850		-8.854334	3.912825	6.907088	-0.357723	-5.356685	0.330662	-0.547119	0.089355	-0.215576	21.567737	75.539520	99.328950
05851		-9.239410	3.608160	6.615227	-0.828957	-5.676123	0.212680	-0.552490	0.079590	-0.234863	17.668913	72.422831	95.767121
05852		-9.416051	2.569706	6.150964	-1.117128	-5.919185	0.146948	-0.565918	0.080078	-0.258545	14.558239	69.140929	93.149855
05853		-9.171940	1.699102	5.683607	-1.186212	-5.983012	0.126262	-0.577881	0.091309	-0.285156	12.131363	65.776523	91.257962
05854		-9.220134	1.076539	5.684468	-1.045648	-5.909696	0.099461	-0.598633	0.099121	-0.296875	10.290061	62.444210	89.875705
05855		-9.605348	1.051347	5.848579	-0.860898	-5.764971	0.089814	-0.625000	0.098633	-0.305908	8.896258	59.166412	88.843491
05856		-10.185490	1.048245	6.367856	-0.704999	-5.582992	0.066110	-0.642822	0.107910	-0.329590	7.819026	55.996310	88.043895
05857		-11.131131	1.029565	7.155938	-0.608163	-5.428034	0.023433	-0.668213	0.118896	-0.323975	6.926780	52.897898	87.374625
05858		-12.223702	0.580064	8.134622	-0.535203	-5.350376	-0.040423	-0.695801	0.131592	-0.333984	6.154576	49.855192	86.776406
05859		-13.324240	-0.086728	8.982545	-0.365531	-5.317783	-0.129950	-0.716553	0.131104	-0.332520	5.511212	46.819376	86.194577
05860		-14.614212	0.329477	9.621972	-0.087288	-5.336915	-0.315991	-0.751953	0.140137	-0.342529	4.996633	43.791180	85.538416
05861		-15.877498	2.263463	10.223508	0.066063	-5.364063	-0.661985	-0.771729	0.130615	-0.333740	4.458853	40.747484	84.681563
05862		-17.727060	3.082962	10.325131	-0.096439	-5.403901	-1.035910	-0.788086	0.141357	-0.326660	3.740486	37.701751	83.630104
05863		-19.209114	1.520322	9.816776	-0.109605	-5.450011	-1.354080	-0.812744	0.131592	-0.313721	2.977328	34.618504	82.441502
05864		-20.349012	-0.220784	8.777077	0.273803	-5.468417	-1.524980	-0.831787	0.129639	-0.310059	2.469938	31.530449	81.220930
05865		-20.677491	-0.977392	7.081201	0.900685	-5.408658	-1.534036	-0.847900	0.125732	-0.293213	2.403413	28.461539	80.052747
05866		-20.892977	-0.618871	4.907410	1.404433	-5.215998	-1.418626	-0.864014	0.116211	-0.289551	2.727953	25.512492	78.990099
05867		-20.460029	-0.293983	2.412310	1.566569	-4.899182	-1.193602	-0.882568	0.098633	-0.275146	3.255029	22.736759	78.079462
05868		-19.108347	0.158929	0.373049	1.374517	-4.414694	-0.858826	-0.887939	0.103027	-0.266113	3.789670	20.242531	77.383318
05869		-17.441089	3.340478	-1.330667	0.714520	-3.778036	-0.590347	-0.896973	0.091797	-0.273438	4.031588	18.099925	76.868098
05870		-16.380518	6.375720	-2.691910	-0.549159	-3.101951	-0.559226	-0.904053	0.086426	-0.266602	3.582869	16.348043	76.408527
05871		-16.182861	6.349680	-3.895645	-1.878182	-2.467513	-0.654614	-0.911133	0.089600	-0.259277	2.383091	14.951644	75.941777
05872		-15.875685	3.064916	-5.019057	-2.605610	-1.934565	-0.645252	-0.912842	0.097656	-0.254639	0.789074	13.854069	75.527257
05873		-14.499731	-1.637778	-5.660077	-2.312647	-1.387597	-0.361073	-0.916992	0.107422	-0.260986	-0.583207	13.057310	75.311890
05874		-13.186073	-4.372901	-5.433440	-1.131798	-0.764048	0.166060	-0.926514	0.110840	-0.260986	-1.206681	12.621195	75.415168
05875		-12.193239	-2.481608	-4.410153	0.141535	-0.138279	0.760923	-0.919189	0.109619	-0.259521	-1.025656	12.550116	75.862155
05876		-11.673322	0.706675	-2.548316	0.732931	0.410658	1.313858	-0.916748	0.111084	-0.259277	-0.435363	12.795102	76.629290
05877		-6.496168	6.773855	-0.112310	-0.129201	1.550963	1.918336	-0.900391	0.116211	-0.270020	-0.249807	13.691476	77.751766
05878		3.269857	-4.013224	4.519691	-0.440832	2.456431	2.204456	-0.891602	0.129150	-0.271484	-0.177762	15.103796	79.049003
05879		-6.379297	-2.311404	14.509776	0.211641	2.663504	2.383729	-0.883057	0.139893	-0.279297	0.334667	16.629334	80.469886
05880		-5.432034	-3.627165	10.632553	-0.150329	2.271683	1.608979	-0.865967	0.137695	-0.287842	0.540007	17.924010	81.444346
05881		-4.483442	-6.535871	6.548433	-0.350714	2.442492	0.481814	-0.852051	0.146973	-0.299561	0.438033	19.322552	81.747041
05882		-2.260005	-8.292200	7.849844	-0.208090	2.868968	-0.549105	-0.836670	0.145264	-0.291260	0.208363	20.968240	81.420464
05883		-3.526669	-5.263605	8.893373	-0.109906	3.235254	-1.303676	-0.833496	0.152588	-0.301270	-0.153656	22.823872	80.614856
05884		-6.578916	2.648289	10.154050	0.139110	3.488663	-1.189792	-0.804932	0.153564	-0.300293	-0.377552	24.819702	79.858194
05885		-12.929631	8.485104	13.353453	-0.127093	3.235195	-0.597660	-0.791748	0.148682	-0.310303	-0.622819	26.671936	79.458336
05886		-14.662185	4.435329	12.714563	-0.585765	2.540791	-0.125456	-0.776367	0.157715	-0.301025	-1.005041	28.126645	79.352655
05887		-13.138985	-7.855304	12.163523	-0.386735	2.190548	-0.043086	-0.769287	0.162109	-0.297119	-1.252426	29.383449	79.294910
05888		-19.601577	-10.893528	12.596302	0.791534	1.095734	0.409998	-0.763184	0.150635	-0.314941	-0.669618	30.015218	79.551717
05889		-8.785714	6.548518	9.501026	0.739028	0.900694	0.321566	-0.756836	0.157227	-0.306152	-0.140773	30.536032	79.758817
05890		-8.555980	3.794255	10.158699	0.306222	0.406056	0.280301	-0.760254	0.156006	-0.314697	0.131143	30.768829	79.943999
05891		-4.757962	-2.237124	7.883441	0.260109	0.322733	0.183929	-0.753418	0.143555	-0.312744	0.344352	30.957086	80.066029
05892		-5.008098	0.348976	8.579590	0.306481	0.381955	0.108763	-0.751465	0.147949	-0.311279	0.559819	31.175571	80.139309
05893		-6.437812	1.600114	8.790988	0.205028	0.316249	0.081167	-0.751709	0.152344	-0.314453	0.707343	31.360020	80.194352
05894		-6.395500	0.460240	8.757806	0.144574	0.172656	0.063154	-0.744629	0.149170	-0.320068	0.814348	31.458603	80.236795
05895		-5.327617	0.001079	8.479501	0.123083	0.117615	0.058526	-0.754150	0.149658	-0.310547	0.906764	31.529365	80.275668
05896		-5.613413	-0.078909	8.512526	0.129478	0.092492	0.070034	-0.749756	0.153564	-0.306641	1.007403	31.581833	80.322299
05897		-5.532136	0.307916	8.529391	0.137654	0.064800	0.079406	-0.748291	0.152588	-0.306396	1.115396	31.622017	80.374871
05898		-5.415645	0.552286	8.533302	0.117249	0.060261	0.077663	-0.745361	0.148682	-0.310059	1.211686	31.655790	80.426458
05899		-5.335491	0.193273	8.610134	0.117096	0.070932	0.079997	-0.747559	0.147705	-0.318359	1.308364	31.699335	80.479735
05900		-5.561673	0.266224	8.504175	0.117346	0.059538	0.087955	-0.756592	0.149414	-0.306152	1.408499	31.732404	80.538418
05901		-5.184274	0.502756	8.332651	0.129361	0.060871	0.109723	-0.745117	0.145752	-0.308350	1.522834	31.769593	80.611762
05902		-5.193162	0.202673	8.420933	0.160718	0.082298	0.147462	-0.741943	0.148438	-0.310303	1.669346	31.814541	80.711179
05903		-5.159509	0.005383	8.365699	0.201391	0.085720	0.180937	-0.741455	0.142334	-0.307129	1.850824	31.864375	80.833336
05904		-5.271011	-0.199786	8.369755	0.236776	0.082770	0.211108	-0.747070	0.150146	-0.307617	2.063960	31.907814	80.976119
05905		-5.283073	-0.348565	8.428641	0.265347	0.071291	0.241416	-0.750732	0.149170	-0.311035	2.303862	31.947287	81.139202
05906		-5.331385	-0.241781	8.384805	0.306077	0.036386	0.281591	-0.744629	0.153564	-0.306152	2.581593	31.961424	81.328737
05907		-5.538035	-0.253882	8.542227	0.343672	0.005303	0.340087	-0.745361	0.143799	-0.305908	2.900734	31.959078	81.556676
05908		-5.481455	0.142549	8.517879	0.350851	-0.033629	0.356109	-0.744629	0.143799	-0.309082	3.229414	31.929126	81.794076
05909		-5.628158	0.629308	8.706963	0.313192	-0.033349	0.337885	-0.743164	0.145752	-0.310059	3.529200	31.902605	82.018772
05910		-5.541900	1.230663	8.564464	0.254676	-0.014638	0.296461	-0.742188	0.138916	-0.309082	3.781537	31.883617	82.216311
05911		-5.329436	1.264172	8.580067	0.183658	0.015855	0.232744	-0.752197	0.133789	-0.308350	3.970685	31.887650	82.372125
05912		-5.329644	1.233882	8.517042	0.132815	0.037856	0.179135	-0.753418	0.141602	-0.308105	4.112715	31.902272	82.493029
05913		-5.255781	0.836287	8.505755	0.102114	0.067622	0.158229	-0.751465	0.145264	-0.305420	4.230193	31.938295	82.601338
05914		-5.295733	0.647231	8.470338	0.088769	0.072819	0.129125	-0.743408	0.134033	-0.312500	4.330284	31.974604	82.690478
05915		-5.311976	0.564514	8.364978	0.080145	0.061128	0.116171	-0.749268	0.140137	-0.309082	4.420252	32.008412	82.770358
05916		-5.207377	0.387676	8.436233	0.090781	0.055114	0.121153	-0.752930	0.143311	-0.310791	4.518348	32.034714	82.853399
05917		-5.416020	0.539393	8.378536	0.101687	0.046640	0.123528	-0.744385	0.130371	-0.317627	4.623017	32.059666	82.937619
05918		-5.431921	0.750851	8.384434	0.104160	0.032100	0.121570	-0.744385	0.138916	-0.311279	4.728390	32.072553	83.019824
05919		-5.492905	0.771579	8.377866	0.104402	0.027409	0.122965	-0.748291	0.143555	-0.308838	4.833950	32.086293	83.102707
05920		-5.469643	0.756347	8.413643	0.097017	0.028397	0.120412	-0.749268	0.141846	-0.309082	4.934775	32.096869	83.183997
05921		-5.471502	0.985932	8.411049	0.086703	0.032294	0.107692	-0.749268	0.138428	-0.307617	5.024965	32.113922	83.256952
05922		-5.414953	0.937151	8.353566	0.072277	0.036272	0.091961	-0.741455	0.145264	-0.305420	5.101742	32.130216	83.319604
05923		-5.307813	0.789599	8.436384	0.056361	0.040430	0.075700	-0.743652	0.143311	-0.314209	5.163461	32.153389	83.371585
05924		-5.297617	0.726435	8.430132	0.055733	0.052383	0.075572	-0.745850	0.135498	-0.300049	5.225484	32.179604	83.424252
05925		-5.401262	0.810055	8.378503	0.058028	0.052982	0.079519	-0.742432	0.135986	-0.309326	5.290036	32.209625	83.479671
05926		-5.435244	0.874096	8.313736	0.055247	0.048911	0.074722	-0.741699	0.139648	-0.313721	5.351455	32.233806	83.531647
05927		-5.401044	0.780542	8.345632	0.055005	0.051407	0.077344	-0.746094	0.136475	-0.307617	5.413557	32.262944	83.585610
05928		-5.453219	0.850316	8.265794	0.059055	0.049084	0.084356	-0.738770	0.136230	-0.305176	5.480724	32.286603	83.644190
05929		-5.409751	0.675268	8.335527	0.065293	0.045353	0.094149	-0.737549	0.132813	-0.306885	5.554677	32.311257	83.709205
05930		-5.371015	0.595067	8.327463	0.076598	0.037835	0.106610	-0.733398	0.137695	-0.312012	5.639618	32.327128	83.782159
05931		-5.347543	0.304981	8.379520	0.100242	0.029805	0.133279	-0.740723	0.129395	-0.305664	5.747230	32.340522	83.872626
05932		-5.354470	0.493330	8.407441	0.117859	0.029783	0.147348	-0.736328	0.141602	-0.314453	5.870298	32.349213	83.972602
05933		-5.355476	0.749893	8.452685	0.129965	0.032534	0.148742	-0.741699	0.133301	-0.296387	6.000638	32.362913	84.073735
05934		-5.368788	1.091717	8.385937	0.126557	0.037968	0.152949	-0.743896	0.129150	-0.298828	6.131101	32.375550	84.178148
05935		-5.391733	1.355193	8.341080	0.108708	0.047544	0.136143	-0.743408	0.135010	-0.307617	6.245413	32.398185	84.271977
05936		-5.473971	1.313086	8.372438	0.075491	0.064493	0.108949	-0.740967	0.126221	-0.300537	6.331889	32.428346	84.348788
05937		-5.428220	1.126539	8.351923	0.051347	0.075312	0.091438	-0.738281	0.131104	-0.304199	6.398507	32.469380	84.414715
05938		-5.434152	1.044009	8.353080	0.039001	0.082120	0.087287	-0.735352	0.133057	-0.308105	6.457111	32.510810	84.478397
05939		-5.454517	0.976560	8.298191	0.031360	0.085624	0.087269	-0.737549	0.145020	-0.302002	6.511388	32.557861	84.542473
05940		-5.448475	0.911715	8.290823	0.029556	0.086342	0.088205	-0.742432	0.131592	-0.302979	6.565259	32.601530	84.607259
05941		-5.355411	0.899636	8.394228	0.036410	0.088601	0.089759	-0.744385	0.122803	-0.302979	6.623648	32.650006	84.673421
05942		-5.377912	0.946588	8.382233	0.040235	0.104723	0.089761	-0.733887	0.131348	-0.313232	6.685176	32.703922	84.740884
05943		-5.223969	0.609012	8.481594	0.079968	0.129514	0.090246	-0.736084	0.138428	-0.309082	6.770691	32.775494	84.810849
05944		-5.333232	0.629940	8.550929	0.142454	0.181405	0.108944	-0.734375	0.130615	-0.309326	6.901514	32.871545	84.897837
05945		-5.365802	0.633252	8.474483	0.189556	0.215721	0.136369	-0.733398	0.127686	-0.297119	7.071125	32.988623	85.006699
05946		-5.459266	0.887583	8.362390	0.213936	0.242821	0.155232	-0.734619	0.138184	-0.310791	7.263658	33.115854	85.131205
05947		-5.421691	0.931324	8.401483	0.232355	0.262214	0.165938	-0.742432	0.136475	-0.305420	7.472062	33.256544	85.265428
05948		-5.331455	0.400421	8.510570	0.275044	0.293697	0.179356	-0.731201	0.124756	-0.309326	7.712502	33.410066	85.412469
05949		-5.221857	0.387962	8.584667	0.477968	0.331997	0.178567	-0.734131	0.122070	-0.307373	8.071666	33.588297	85.563824
05950		-5.271553	1.031737	8.566558	0.558816	0.404768	0.170461	-0.731201	0.124268	-0.302490	8.479776	33.804053	85.718621
05951		-4.767876	2.637545	8.845830	0.556365	0.518015	0.160251	-0.723633	0.125977	-0.314209	8.890692	34.087396	85.880526
05952		-4.984943	1.725493	8.844937	0.270764	0.760314	0.142267	-0.722412	0.121094	-0.309570	9.148527	34.505188	86.059144
05953		-5.028414	1.332315	9.028200	0.415672	0.909981	0.142002	-0.724854	0.118896	-0.299072	9.502038	35.010162	86.258231
05954		-5.027642	1.382156	9.060677	0.381539	1.115832	0.154694	-0.709717	0.117432	-0.310303	9.859900	35.625822	86.495557
05955		-5.088887	1.170255	9.079788	0.388403	1.304383	0.173632	-0.708252	0.119873	-0.305176	10.249308	36.347850	86.776377
05956		-5.185808	1.288354	9.140603	0.404338	1.493705	0.180660	-0.702881	0.106934	-0.302734	10.674237	37.171019	87.095866
05957		-5.106305	1.287588	9.028445	0.479415	1.697213	0.192182	-0.697266	0.110352	-0.314209	11.175338	38.108306	87.463585
05958		-5.148444	1.397097	9.039073	0.522242	1.929689	0.217226	-0.684082	0.112793	-0.307617	11.748790	39.167540	87.899456
05959		-5.213730	1.443592	8.949644	0.593913	2.172675	0.239810	-0.665527	0.102783	-0.307617	12.418539	40.359194	88.411631
05960		-4.966278	1.924655	8.780392	0.659485	2.446946	0.248976	-0.657959	0.107178	-0.307129	13.188814	41.695139	89.006252
05961		-5.043507	2.108306	8.803584	0.682780	2.787870	0.246900	-0.650879	0.093262	-0.304932	14.050723	43.217158	89.700715
05962		-4.553535	2.765372	8.505590	0.667844	3.152177	0.211176	-0.630859	0.093262	-0.306885	14.986152	44.935694	90.492289
05963		-4.365409	3.241265	8.376850	0.586715	3.609445	0.116611	-0.622559	0.091309	-0.315186	15.959469	46.913587	91.376280
05964		-4.355790	2.597832	8.283815	0.501159	4.129484	0.065396	-0.591309	0.085938	-0.301758	17.034778	49.172134	92.433116
05965		-4.339920	1.780920	8.232315	0.515625	4.737223	0.111916	-0.573730	0.081299	-0.307617	18.405820	51.740354	93.824856
05966		-3.822904	2.212748	7.566147	0.509726	5.454367	0.073986	-0.547607	0.080811	-0.298828	20.131327	54.677280	95.611542
05967		-4.612490	2.070102	7.491393	0.371067	6.365584	0.001189	-0.517090	0.075439	-0.292725	22.332522	58.078998	97.995937
05968		-7.027760	-0.267009	7.214019	0.487074	7.100238	-0.068767	-0.492432	0.074219	-0.276367	25.395736	61.817258	101.208042
05969		-8.923551	0.036223	7.277812	0.820402	7.539894	-0.020718	-0.454834	0.067383	-0.266357	29.910173	65.653488	105.712617
05970		-8.544209	3.832341	6.065758	0.801569	7.794418	-0.166623	-0.414795	0.067383	-0.246826	36.067038	69.457367	111.870462
05971		-13.496213	3.795391	6.719427	0.455163	8.187738	-0.439104	-0.395752	0.071777	-0.227051	44.774553	73.204171	120.777522
05972		-17.491968	3.177263	7.890366	0.445663	7.972055	-0.594646	-0.357666	0.070313	-0.199463	57.331377	76.360493	133.515346
05973		-17.696552	4.954381	7.927825	0.160208	7.345197	-0.720567	-0.327881	0.068848	-0.181152	73.911001	78.497883	150.397451
05974		-18.379424	3.032157	8.519416	-0.048683	6.865788	-0.666314	-0.308594	0.058838	-0.162354	93.728226	79.314745	170.610157
05975		-15.756169	2.300520	6.160191	-0.061554	6.342908	-0.553245	-0.290527	0.056152	-0.130127	112.455799	78.795061	-170.287789
05976		-17.307579	2.485477	7.174475	-0.148843	6.013664	-0.491622	-0.275879	0.059326	-0.106689	127.212034	77.313548	-155.124858
05977		-14.033791	2.307451	7.234110	-0.453247	5.379266	-0.523501	-0.243896	0.052734	-0.089600	137.225679	75.459777	-144.559359
05978		-12.391710	2.268355	8.368420	-0.875253	4.911632	-0.490242	-0.236816	0.059326	-0.070557	143.942354	73.460577	-137.071250
05979		-8.064408	1.696827	8.532014	-1.161501	4.609850	-0.334261	-0.217285	0.045166	-0.047852	148.420609	71.374686	-131.678322
05980		-6.318612	1.466577	9.189368	-1.236590	4.565736	-0.003269	-0.205078	0.045166	-0.023682	151.375906	69.111737	-127.788334
05981		-11.667830	0.581321	7.328164	-1.195808	4.131217	0.135313	-0.196533	0.038574	-0.004395	153.249605	66.984590	-125.031558
05982		-23.800949	1.286843	15.782111	-1.423876	2.231409	0.197877	-0.178467	0.025391	0.003174	153.517040	65.791187	-123.851596
05983		-13.701725	-1.355249	13.211870	-1.328956	-0.388734	0.202670	-0.170898	0.022705	-0.000977	152.297062	65.944301	-124.355468
05984		-12.286840	-2.865328	11.567596	-0.757875	-2.057330	0.190633	-0.158936	0.021240	-0.010498	150.350885	66.926663	-126.007107
05985		-6.898081	-1.926234	8.098735	-0.204452	-3.293872	0.078767	-0.152588	0.009766	-0.025879	147.764882	68.532377	-128.675772
05986		-4.423357	-0.855075	6.026319	0.137526	-3.918003	-0.134612	-0.153320	0.014648	-0.048828	144.683574	70.442612	-132.051417
05987		-2.894225	0.059547	4.257942	0.260506	-4.245941	-0.410107	-0.144775	-0.000488	-0.075439	140.991004	72.535096	-136.102921
05988		-2.079854	1.038104	3.175144	0.237771	-4.364270	-0.698401	-0.141357	-0.003174	-0.083008	136.551402	74.681993	-140.873720
05989		-2.284045	2.341057	2.793516	0.028704	-4.346916	-1.009427	-0.134766	0.000244	-0.113037	131.035537	76.835836	-146.580909
05990		-4.057445	3.023034	3.073387	-0.318712	-4.343695	-1.307075	-0.126221	0.000244	-0.153320	123.757114	78.947386	-153.838589
05991		-5.529614	2.569766	3.451262	-0.575000	-4.460820	-1.537600	-0.137451	0.000000	-0.180908	113.038679	80.954369	-164.387684
05992		-7.577384	1.500080	3.974475	-0.612296	-4.726660	-1.618365	-0.140137	0.012207	-0.215576	96.162785	82.552375	178.916608
05993		-8.562422	0.412930	4.153882	-0.335235	-5.118758	-1.552590	-0.145752	0.010254	-0.254883	71.696876	83.141477	154.457427
05994		-9.104852	0.121655	4.102715	0.133924	-5.496620	-1.378345	-0.152588	0.018799	-0.297119	47.356085	82.204717	129.843697
05995		-9.140448	1.187644	3.808520	0.526758	-5.800056	-1.160855	-0.163330	0.029297	-0.326904	30.833709	80.012777	112.819673
05996		-9.519928	2.669501	3.537980	0.598744	-6.001374	-0.971375	-0.204834	0.020020	-0.372314	21.209784	77.156575	102.653536
05997		-9.740296	2.941990	3.116878	0.427828	-6.128724	-0.802587	-0.243896	0.029541	-0.406494	15.446495	73.951483	96.450331
05998		-9.702876	2.454625	2.773170	0.243137	-6.147396	-0.639987	-0.271729	0.019043	-0.444336	11.864149	70.613960	92.542967
05999		-9.702877	1.670480	2.512195	0.144093	-6.081569	-0.463306	-0.315186	0.033691	-0.463867	9.578039	67.226356	90.003983
06000		-9.967252	1.232953	2.589576	0.135380	-5.895460	-0.309346	-0.357910	0.028564	-0.493408	8.124643	63.915995	88.320931
06001		-10.890653	1.045564	2.856618	0.175703	-5.647001	-0.213238	-0.404053	0.027832	-0.507813	7.168951	60.712846	87.126679
06002		-11.775525	0.759409	3.081860	0.242439	-5.407222	-0.170317	-0.447510	0.029053	-0.529297	6.526079	57.648663	86.214253
06003		-12.162503	0.506087	3.500395	0.322194	-5.185497	-0.158732	-0.486084	0.027100	-0.545166	6.086110	54.693349	85.460677
06004		-12.027158	0.479704	4.107060	0.399107	-4.927754	-0.177188	-0.523926	0.028320	-0.544678	5.787924	51.895821	84.801100
06005		-12.312329	0.389869	4.912786	0.449648	-4.668020	-0.241619	-0.559326	0.023926	-0.547852	5.555136	49.236382	84.164161
06006		-13.079130	-0.044206	5.815319	0.507474	-4.439350	-0.306515	-0.599365	0.015869	-0.538574	5.383463	46.721362	83.539016
06007		-14.210709	-0.643862	6.451081	0.631325	-4.290604	-0.355806	-0.635742	0.021973	-0.544434	5.304859	44.281692	82.919467
06008		-15.656367	-1.019620	6.756343	0.811445	-4.221404	-0.390954	-0.661865	0.015625	-0.529785	5.351946	41.894486	82.304841
06009		-16.562376	-1.181093	6.562795	1.005059	-4.226008	-0.426232	-0.691650	-0.001221	-0.524170	5.521060	39.497099	81.678713
06010		-16.428397	-0.969963	5.946021	1.149403	-4.249598	-0.467304	-0.719727	-0.012207	-0.511719	5.780964	37.100694	81.032149
06011		-15.754127	-0.236818	5.447261	1.155509	-4.209415	-0.520575	-0.744385	-0.011719	-0.495850	6.048051	34.723661	80.356380
06012		-14.897520	0.493214	5.144134	0.986729	-4.121646	-0.566886	-0.770752	-0.023438	-0.488281	6.232740	32.410666	79.664200
06013		-13.946988	0.838833	5.015594	0.717765	-3.965725	-0.619983	-0.793213	-0.032959	-0.480957	6.279001	30.183321	78.958931
06014		-13.219937	0.833315	5.078255	0.441591	-3.752263	-0.615133	-0.814697	-0.041260	-0.468750	6.207765	28.084755	78.288764
06015		-12.961333	1.299477	4.953589	0.186672	-3.498410	-0.554794	-0.837891	-0.046143	-0.461426	6.044065	26.119640	77.691454
06016		-13.020541	2.264505	4.516327	-0.166356	-3.255975	-0.468158	-0.850098	-0.049561	-0.454590	5.734499	24.291719	77.183633
06017		-13.235200	2.864565	3.948300	-0.630514	-3.056000	-0.376770	-0.855713	-0.042725	-0.453613	5.208747	22.564683	76.765752
06018		-13.454718	2.769079	3.108098	-1.107384	-2.917595	-0.248802	-0.877686	-0.042969	-0.448975	4.462935	20.911233	76.459779
06019		-13.023583	1.577398	1.664112	-1.419381	-2.786559	-0.031204	-0.886963	-0.037842	-0.436035	3.603512	19.316820	76.319716
06020		-11.863942	0.331352	0.092535	-1.438301	-2.527771	0.284832	-0.900146	-0.031250	-0.438232	2.808569	17.861866	76.404832
06021		-10.889349	0.292375	-0.967404	-1.284786	-2.076106	0.602292	-0.913574	-0.020264	-0.428223	2.165229	16.657096	76.710428
06022		-10.728648	0.617685	-1.350182	-1.194258	-1.529444	0.888043	-0.928223	-0.005371	-0.434326	1.622065	15.764626	77.208533
06023		-11.284290	0.452337	-1.109006	-1.185017	-1.032590	1.100965	-0.925781	-0.001709	-0.432617	1.115459	15.158245	77.846886
06024		-11.657812	-0.614728	-0.698590	-1.123104	-0.644496	1.217230	-0.931641	0.003662	-0.427246	0.658580	14.778370	78.561478
06025		-11.698854	-1.718703	-0.322154	-0.860559	-0.336132	1.263591	-0.939209	0.010254	-0.430908	0.356602	14.581173	79.306886
06026		-11.396423	-2.342837	-0.173251	-0.472271	-0.066524	1.265775	-0.941406	0.013672	-0.432617	0.276044	14.539190	80.054642
06027		-0.900455	-3.089129	1.944563	0.331410	0.556296	1.194647	-0.936279	0.023682	-0.431885	0.647790	14.855860	80.763718
06028		1.735438	-1.515026	9.060181	0.555304	1.954749	1.169561	-0.922363	0.026123	-0.444336	1.157230	15.965317	81.475702
06029		0.951032	-0.473552	11.213674	0.548937	2.199154	0.920966	-0.916748	0.025146	-0.445313	1.639408	17.215298	82.056917
06030		-1.454634	0.020843	8.351086	0.331987	2.427452	0.466435	-0.899170	0.017334	-0.446533	1.931589	18.597296	82.381833
06031		-3.927258	-0.407859	7.251365	0.082740	2.841095	-0.147433	-0.876709	0.012939	-0.447998	1.969968	20.229865	82.349718
06032		-6.181864	1.160449	10.328722	-0.130741	2.961568	-0.621651	-0.865723	0.020020	-0.460938	1.780767	21.937642	82.026355
06033		-7.728587	1.730527	10.588790	-0.289068	2.847518	-0.837553	-0.844971	0.019775	-0.472412	1.434138	23.585016	81.554388
06034		-7.828730	3.487840	10.474814	-0.260041	2.751747	-0.568012	-0.833740	0.019531	-0.472168	1.155312	25.168764	81.234906
06035		-10.378590	2.557551	12.257536	-0.390510	2.589707	-0.300898	-0.809814	0.022949	-0.476563	0.861827	26.658806	81.070991
06036		-11.893745	-0.614497	12.206752	-0.433521	2.253160	-0.201927	-0.798096	0.024658	-0.483887	0.563386	27.951256	80.957438
06037		-10.676670	-3.692849	10.737306	-0.310969	1.883995	-0.273990	-0.780029	0.032959	-0.477783	0.305818	29.035956	80.786866
06038		-9.333608	-2.294654	10.009594	-0.086639	1.633562	-0.300189	-0.772217	0.023926	-0.490479	0.162342	29.972749	80.592177
06039		-14.792251	-2.125770	12.736990	0.288646	1.325725	-0.005260	-0.775879	0.027100	-0.486816	0.328632	30.736970	80.590912
06040		-9.359508	0.196551	8.673925	0.338725	0.310357	0.229729	-0.757568	0.027588	-0.494385	0.603403	30.913856	80.744388
06041		-5.894218	0.550026	8.595683	0.310083	0.297526	0.239614	-0.759033	0.017822	-0.486572	0.865456	31.087928	80.905487
06042		-5.886721	-0.260292	8.657451	0.278030	0.256836	0.173545	-0.759033	0.024414	-0.481689	1.087673	31.233520	81.023115
06043		-6.252394	0.696924	8.431378	0.251519	0.173850	0.131096	-0.753418	0.019531	-0.487549	1.279275	31.337012	81.111806
06044		-6.585399	1.850833	8.957011	0.156147	0.105742	0.022495	-0.762207	0.020996	-0.489258	1.378729	31.397441	81.127055
06045		-5.969379	1.576265	8.774247	0.033790	-0.006288	-0.050053	-0.755371	0.022461	-0.492920	1.381343	31.400112	81.091875
06046		-5.670393	0.545290	8.644432	-0.026280	-0.036869	-0.110677	-0.766357	0.027832	-0.488281	1.328575	31.380653	81.015538
06047		-5.818888	1.499408	8.934927	-0.099191	-0.059441	-0.183803	-0.763184	0.017334	-0.488281	1.208042	31.354554	80.889926
06048		-5.683103	1.739733	8.829989	-0.209384	-0.081425	-0.259874	-0.759766	0.019043	-0.488037	0.998174	31.310931	80.713100
06049		-5.294669	0.493180	8.647119	-0.271585	-0.075810	-0.298149	-0.762939	0.015869	-0.483887	0.739507	31.275717	80.511128
06050		-5.036733	0.127362	8.397529	-0.276546	-0.050094	-0.307390	-0.769287	0.026855	-0.488525	0.475233	31.249027	80.303258
06051		-5.030680	-0.118568	8.315390	-0.258901	-0.036134	-0.283654	-0.757324	0.024170	-0.487305	0.229386	31.234911	80.111704
06052		-5.005754	-0.653872	8.342046	-0.221502	-0.018240	-0.239996	-0.768066	0.033203	-0.489258	0.020365	31.224893	79.949379
06053		-5.504974	-0.575918	8.508457	-0.177604	-0.024291	-0.207026	-0.762207	0.027344	-0.487793	-0.152234	31.216387	79.809315
06054		-5.434406	-0.459237	8.517376	-0.153170	-0.046807	-0.176025	-0.761230	0.021729	-0.488281	-0.299737	31.189296	79.690039
06055		-5.256345	-0.480975	8.455584	-0.122661	-0.058000	-0.140953	-0.758789	0.027588	-0.487061	-0.417819	31.161115	79.594459
06056		-5.206633	-0.362897	8.491837	-0.082730	-0.052368	-0.103749	-0.758789	0.026123	-0.490967	-0.499717	31.130756	79.523797
06057		-5.575652	0.199344	8.714505	-0.078940	-0.059310	-0.087684	-0.760986	0.032715	-0.495605	-0.574222	31.101836	79.464018
06058		-5.852792	0.483847	8.880333	-0.126844	-0.101248	-0.117014	-0.764893	0.019043	-0.485352	-0.685629	31.043207	79.385003
06059		-5.574899	1.087255	8.854032	-0.211116	-0.139774	-0.177816	-0.759277	0.032227	-0.487305	-0.866238	30.967279	79.265976
06060		-5.458770	0.629846	8.811910	-0.299138	-0.162530	-0.231653	-0.761230	0.040039	-0.496338	-1.114866	30.871984	79.111675
06061		-4.950728	-0.184172	8.439884	-0.320546	-0.156864	-0.255667	-0.764404	0.031006	-0.487061	-1.383679	30.784415	78.942040
06062		-4.744844	-0.213041	8.355091	-0.304365	-0.119958	-0.262450	-0.765869	0.035645	-0.482422	-1.645120	30.711831	78.767761
06063		-5.091141	-0.275780	8.497166	-0.297470	-0.085908	-0.267952	-0.763672	0.040771	-0.495117	-1.904672	30.663243	78.589707
06064		-5.282537	-0.285729	8.531662	-0.296892	-0.094807	-0.263971	-0.768799	0.038818	-0.496826	-2.161852	30.603676	78.414799
06065		-5.320398	-0.205646	8.563166	-0.301170	-0.112373	-0.266109	-0.766113	0.038086	-0.489014	-2.421864	30.538524	78.239442
06066		-5.307349	-0.231120	8.529515	-0.309415	-0.136607	-0.264652	-0.768799	0.038574	-0.490967	-2.685011	30.453650	78.066201
06067		-4.895263	-0.503352	8.359879	-0.295019	-0.140435	-0.247921	-0.760498	0.049316	-0.485352	-2.933991	30.371518	77.904852
06068		-4.547706	-0.716671	8.340375	-0.262678	-0.101981	-0.225308	-0.760986	0.043701	-0.501953	-3.156821	30.306374	77.757603
06069		-4.706303	-1.051432	8.369504	-0.220354	-0.045385	-0.185597	-0.756836	0.043701	-0.493164	-3.343267	30.279434	77.634915
06070		-4.591037	-1.228507	8.238276	-0.155111	-0.011303	-0.137773	-0.765625	0.050049	-0.493652	-3.476608	30.268329	77.542638
06071		-4.351798	-1.328096	8.166453	-0.067038	0.068151	-0.088079	-0.770996	0.044678	-0.497559	-3.544991	30.309108	77.480032
06072		-5.388153	-0.757275	8.542688	-0.023760	0.093052	-0.056163	-0.763184	0.045654	-0.491211	-3.578034	30.360372	77.437501
06073		-5.146766	-0.528441	8.412017	-0.030232	0.050158	-0.039084	-0.769287	0.041260	-0.498047	-3.608757	30.392414	77.407957
06074		-5.085035	-0.527180	8.535462	-0.044937	0.047580	-0.041139	-0.764160	0.043213	-0.491455	-3.648021	30.418178	77.377198
06075		-5.524935	-0.073875	8.680446	-0.093501	0.019386	-0.062411	-0.763672	0.040283	-0.494629	-3.722206	30.431614	77.333434
06076		-5.121447	-0.043163	8.562677	-0.157865	-0.015384	-0.090169	-0.756592	0.055176	-0.489502	-3.841290	30.419458	77.272842
06077		-4.995601	-0.523794	8.554525	-0.204303	-0.022284	-0.110341	-0.770752	0.044678	-0.494629	-3.994008	30.406947	77.199202
06078		-4.700733	-0.684651	8.389355	-0.194347	-0.003463	-0.098169	-0.763672	0.050537	-0.499512	-4.136899	30.401021	77.132830
06079		-4.363755	-0.974727	8.322842	-0.170593	0.050335	-0.071149	-0.761963	0.049072	-0.502441	-4.258898	30.431188	77.081716
06080		-4.613848	-1.066111	8.414267	-0.122485	0.121551	-0.048853	-0.764893	0.048584	-0.492676	-4.347270	30.498570	77.041787
06081		-4.783273	-0.888382	8.399260	-0.085512	0.171765	-0.018815	-0.759277	0.057129	-0.501465	-4.406253	30.600068	77.019025
06082		-5.045598	-0.858938	8.575620	-0.048289	0.215252	-0.005346	-0.760742	0.052734	-0.494141	-4.440077	30.722827	77.002930
06083		-5.270874	-0.685043	8.535119	-0.042317	0.221580	0.006664	-0.758789	0.051025	-0.498779	-4.467171	30.853740	76.994303
06084		-5.159649	-0.939081	8.458592	-0.026226	0.213713	0.031117	-0.758789	0.049316	-0.499268	-4.475985	30.977237	77.002402
06085		-4.722334	-1.294794	8.188706	0.016507	0.235761	0.073793	-0.751709	0.046875	-0.496338	-4.446733	31.119126	77.037742
06086		-4.121970	-2.164847	8.251154	0.108247	0.320221	0.169380	-0.754639	0.047852	-0.494141	-4.333312	31.309522	77.132966
06087		-5.087313	-1.033597	8.797072	0.204124	0.390680	0.247892	-0.755859	0.047363	-0.496826	-4.139319	31.546980	77.277902
06088		-5.305063	-0.434736	8.566208	0.242084	0.438107	0.279472	-0.751465	0.049072	-0.503174	-3.911660	31.808660	77.443386
06089		-5.701418	0.039009	8.647253	0.231719	0.445686	0.232153	-0.739258	0.049805	-0.494629	-3.706128	32.075895	77.578109
06090		-5.650119	0.114639	8.646543	0.179953	0.436520	0.169006	-0.748779	0.050537	-0.491699	-3.550880	32.331679	77.672101
06091		-5.645375	-0.116209	8.511207	0.148043	0.431125	0.119217	-0.743164	0.043457	-0.496582	-3.431545	32.585919	77.733438
06092		-5.511241	-0.140734	8.454084	0.131981	0.442435	0.077317	-0.744385	0.049805	-0.497803	-3.335902	32.841644	77.766694
06093		-5.843901	0.094901	8.566276	0.106930	0.438501	0.017497	-0.732910	0.043457	-0.495850	-3.276766	33.096471	77.759738
06094		-5.811789	0.369344	8.515230	0.037671	0.408558	-0.065786	-0.732422	0.048096	-0.495850	-3.287379	33.328074	77.697213
06095		-5.605575	0.340802	8.459579	-0.039780	0.432277	-0.146545	-0.735352	0.043457	-0.499023	-3.374177	33.573791	77.577934
06096		-5.191261	-0.599231	8.408001	-0.052258	0.492762	-0.172919	-0.730957	0.048340	-0.499512	-3.480168	33.849750	77.437216
06097		-4.962608	-0.980462	8.583050	-0.028859	0.604865	-0.133602	-0.720703	0.047363	-0.503418	-3.561740	34.194154	77.317791
06098		-4.932761	-0.136625	9.027525	-0.073257	0.734472	-0.084654	-0.720215	0.042725	-0.498779	-3.653820	34.611140	77.225478
06099		-5.279554	-0.948228	8.445513	-0.177627	0.872892	-0.045335	-0.716553	0.043457	-0.504883	-3.795407	35.111498	77.152700
06100		-5.633390	-1.017839	8.277934	-0.142957	0.935167	0.000986	-0.705566	0.042236	-0.498535	-3.901310	35.646184	77.107716
06101		-5.683470	-0.319399	8.399637	-0.178653	0.992439	0.050002	-0.696045	0.045166	-0.502930	-4.010615	36.218249	77.092903
06102		-4.911648	1.363375	9.410016	-0.555043	1.085610	0.192400	-0.694824	0.051758	-0.497070	-4.279384	36.846637	77.172191
06103		-4.781984	-5.409738	8.257774	-0.560188	1.249266	0.295511	-0.687988	0.052979	-0.503418	-4.512900	37.575879	77.313678
06104		-5.288963	0.088880	9.008267	0.260277	1.498877	0.196120	-0.676514	0.045410	-0.508057	-4.326884	38.440810	77.370246
06105		-5.446799	-1.304023	8.373517	0.061388	1.598701	0.197745	-0.669678	0.052002	-0.499023	-4.255285	39.365046	77.425532
06106		-5.638458	0.590273	8.696744	0.096852	1.775301	0.145712	-0.652832	0.051758	-0.509033	-4.191836	40.385641	77.434741
06107		-5.934109	0.288014	8.368784	-0.040693	1.969457	0.064063	-0.640625	0.058105	-0.508057	-4.254974	41.515819	77.371312
06108		-6.158125	0.760142	8.524263	-0.206076	2.157864	-0.024362	-0.628174	0.052002	-0.503662	-4.469821	42.747575	77.224011
06109		-5.932077	-0.811459	8.340762	-0.178763	2.359657	-0.054546	-0.616699	0.058838	-0.492432	-4.703447	44.094650	77.030433
06110		-6.022152	0.468250	8.185200	-0.108433	2.596003	-0.131071	-0.600342	0.063232	-0.500488	-4.963808	45.570460	76.746386
06111		-6.208179	0.077928	7.968632	-0.165276	2.874510	-0.222812	-0.581299	0.052490	-0.496094	-5.346777	47.200977	76.345623
06112		-6.347650	0.050706	7.798950	-0.187313	3.161949	-0.284542	-0.553955	0.055176	-0.494141	-5.830923	48.988172	75.836629
06113		-6.165748	-0.725557	7.760189	-0.204783	3.458131	-0.323309	-0.531250	0.058105	-0.497314	-6.418707	50.939902	75.219703
06114		-6.566997	-0.890217	7.816301	-0.135361	3.773408	-0.362738	-0.508301	0.062744	-0.499756	-7.085483	53.062494	74.469526
06115		-6.496531	-0.908479	7.570839	-0.083875	4.056153	-0.417821	-0.488770	0.055176	-0.482910	-7.882289	55.336685	73.544119
06116		-6.794680	-0.927394	7.198489	-0.089815	4.452345	-0.482360	-0.455322	0.059082	-0.478027	-8.912661	57.820040	72.369106
06117		-7.540526	-0.951900	7.252869	-0.061739	4.841797	-0.494229	-0.428955	0.057373	-0.463623	-10.187382	60.509695	70.923859
06118		-7.866995	-1.040669	7.004161	-0.094142	5.249017	-0.490312	-0.402100	0.052734	-0.448975	-11.838472	63.408330	69.112588
06119		-9.029756	-2.337402	7.475395	-0.046647	5.588261	-0.379771	-0.362305	0.061523	-0.438477	-13.842738	66.482620	66.928288
06120		-8.952090	-2.068027	6.638870	0.147832	5.856063	-0.254782	-0.329590	0.062744	-0.421631	-16.277343	69.685381	64.211630
06121		-11.467944	-1.112110	7.018183	0.120433	6.191909	-0.151205	-0.284668	0.069580	-0.406250	-19.704937	73.034390	60.521049
06122		-12.719786	-1.225721	7.810469	-0.200642	6.319309	-0.061528	-0.261230	0.062744	-0.378662	-24.977240	76.373095	55.174745
06123		-14.175055	-2.674318	7.313899	-0.129091	6.238872	0.152726	-0.227539	0.055420	-0.345215	-32.802401	79.551832	47.250778
06124		-17.741938	1.685877	9.097748	-0.639237	5.993298	0.013133	-0.200195	0.066895	-0.323242	-46.881429	82.211884	33.365950
06125		-16.702570	-2.319773	7.531832	-1.242260	5.410702	0.224503	-0.177246	0.068115	-0.304443	-68.865112	83.998958	11.943185
06126		-13.739650	-2.978405	6.386426	-0.939273	5.343429	0.545056	-0.154785	0.064697	-0.272217	-100.071481	84.626134	-18.871036
06127		-17.379448	-2.798881	8.904365	-0.566731	5.025214	0.900670	-0.141602	0.050781	-0.250000	-128.838630	83.880253	-47.452885
06128		-12.224788	-1.822420	7.097005	-0.300803	4.591624	1.118365	-0.117188	0.053955	-0.229004	-147.533981	82.325269	-66.108895
06129		-11.739055	-0.991522	8.003749	-0.298062	4.380583	1.130975	-0.099854	0.040527	-0.214355	-158.935333	80.367987	-77.468639
06130		-7.473091	-1.906763	8.146541	-0.334287	4.188590	1.253079	-0.090332	0.040771	-0.184082	-166.540946	78.284278	-85.013699
06131		-4.803190	-2.863478	7.050657	-0.024064	4.374607	1.476721	-0.080811	0.024170	-0.158203	-172.208949	75.976826	-90.814641
06132		-13.556302	-3.971880	5.696249	0.505422	4.694228	1.482921	-0.062500	0.010254	-0.128418	-176.007813	73.386663	-95.054661
06133		-22.678030	-1.200035	14.040525	0.707261	2.809035	1.225848	-0.063721	-0.008057	-0.114258	-178.096900	71.819079	-97.670865
06134		-15.945312	-0.583363	11.899888	0.586474	0.733900	0.898927	-0.060547	-0.014648	-0.112549	-179.332654	71.410043	-99.329332
06135		-13.566148	-0.876925	11.448363	0.544998	-0.951727	0.669435	-0.065430	-0.018555	-0.110840	179.835782	71.963008	-100.536764
06136		-8.440347	-0.437465	8.618809	0.511793	-2.050952	0.559645	-0.067627	-0.030273	-0.137695	179.079729	73.134962	-101.638778
06137		-5.581712	0.613520	6.581928	0.349729	-2.630283	0.518846	-0.076416	-0.032959	-0.151367	178.132066	74.641638	-102.836194
06138		-4.091949	1.118135	5.217709	0.024287	-2.913742	0.465664	-0.080322	-0.048828	-0.175781	176.841993	76.297823	-104.185244
06139		-3.443549	0.906656	4.239164	-0.264813	-3.059186	0.414678	-0.108643	-0.052979	-0.185303	175.117220	78.037656	-105.800773
06140		-3.003914	-0.010775	3.628833	-0.398109	-3.146230	0.414120	-0.109131	-0.051025	-0.213135	172.716800	79.805349	-108.016140
06141		-2.743190	-0.945292	3.469925	-0.283964	-3.196479	0.483303	-0.133545	-0.054199	-0.234131	169.126125	81.579170	-111.491663
06142		-3.134113	-1.115871	3.961244	0.017285	-3.267927	0.596535	-0.147217	-0.065674	-0.254395	163.271108	83.318441	-117.409189
06143		-3.975000	-0.319226	4.676703	0.274879	-3.435731	0.711544	-0.162109	-0.081299	-0.277588	152.450597	85.004317	-128.445052
06144		-5.234119	0.878378	5.534547	0.326279	-3.722656	0.758142	-0.192627	-0.081543	-0.295410	130.191113	86.425911	-150.953184
06145		-6.202697	1.594722	5.945488	0.144315	-4.156762	0.736332	-0.212891	-0.084229	-0.312988	88.594499	86.851123	167.300153
06146		-6.243993	1.272723	5.906195	-0.088772	-4.607947	0.679687	-0.239746	-0.093994	-0.333496	52.459470	85.540455	131.141648
06147		-6.107790	0.507700	5.552141	-0.192584	-4.964265	0.619813	-0.273682	-0.096924	-0.358154	34.878861	83.205092	113.589893
06148		-5.827256	0.205717	5.113434	-0.160684	-5.205510	0.577797	-0.313232	-0.102539	-0.383545	26.198534	80.461009	104.914402
06149		-5.713882	0.949366	4.951723	-0.137845	-5.318887	0.491786	-0.346924	-0.106445	-0.392090	21.125584	77.545833	99.827110
06150		-6.263998	1.980175	5.063471	-0.266879	-5.360666	0.323227	-0.388916	-0.107422	-0.406250	17.571513	74.585700	96.321985
06151		-7.109341	2.234118	5.292595	-0.479358	-5.377892	0.141207	-0.426758	-0.104980	-0.421387	14.721235	71.593865	93.629321
06152		-8.024704	1.850143	5.638787	-0.630235	-5.408495	0.001135	-0.477051	-0.109863	-0.435059	12.357207	68.580919	91.497705
06153		-8.788629	1.472150	6.066603	-0.649076	-5.431526	-0.085711	-0.507568	-0.113281	-0.441895	10.413712	65.530304	89.790040
06154		-9.393496	1.107087	6.496823	-0.550711	-5.447068	-0.110173	-0.554688	-0.105469	-0.443115	8.896648	62.464310	88.451481
06155		-9.687782	1.133520	6.854995	-0.386237	-5.432041	-0.114092	-0.597168	-0.113770	-0.451660	7.745297	59.384703	87.385883
06156		-9.864899	1.735830	7.307713	-0.286126	-5.373423	-0.111018	-0.642578	-0.115723	-0.434082	6.857933	56.339223	86.529478
06157		-10.821151	2.036421	7.967946	-0.330443	-5.290784	-0.120753	-0.679199	-0.109619	-0.432129	6.084174	53.325478	85.812774
06158		-12.143964	1.596837	8.840204	-0.442130	-5.241747	-0.142651	-0.717529	-0.118652	-0.416260	5.347082	50.345470	85.195154
06159		-14.007762	0.175172	9.865869	-0.434756	-5.260764	-0.162629	-0.751953	-0.115234	-0.394043	4.689301	47.341663	84.650242
06160		-16.422057	-1.179995	10.610015	-0.181308	-5.377745	-0.208061	-0.788330	-0.117920	-0.377930	4.217677	44.279205	84.134739
06161		-18.716778	-1.328707	10.799537	0.208233	-5.584644	-0.326021	-0.817627	-0.128662	-0.346436	3.954560	41.091985	83.568321
06162		-20.044904	-0.847038	10.094442	0.499766	-5.798083	-0.531949	-0.834717	-0.135010	-0.320801	3.806720	37.798344	82.881863
06163		-20.349588	-0.435535	8.844105	0.620631	-5.890039	-0.791654	-0.839355	-0.135010	-0.293945	3.671437	34.452356	82.046688
06164		-20.208853	-0.396653	7.268287	0.632982	-5.804898	-1.037279	-0.845703	-0.144287	-0.279541	3.518420	31.170332	81.091440
06165		-20.068247	-0.657193	5.789207	0.634167	-5.547981	-1.215847	-0.856934	-0.142334	-0.259033	3.378660	28.032549	80.069823
06166		-20.502105	-0.690370	4.289770	0.631383	-5.184463	-1.285616	-0.852295	-0.135986	-0.252441	3.287656	25.110047	79.053215
06167		-20.529002	-0.304099	2.491960	0.574985	-4.745064	-1.252085	-0.855225	-0.138428	-0.249023	3.234426	22.431549	78.099879
06168		-20.262294	0.159053	0.469477	0.373738	-4.226795	-1.121571	-0.856201	-0.141846	-0.235352	3.148315	20.049462	77.265554
06169		-19.754061	1.088533	-1.519459	0.041504	-3.645186	-0.934019	-0.858398	-0.147461	-0.237549	2.950720	17.989329	76.581214
06170		-19.307478	3.804113	-3.457161	-0.540268	-3.022113	-0.862914	-0.854004	-0.151611	-0.240967	2.465292	16.283254	75.977500
06171		-19.367917	5.308440	-5.132985	-1.375383	-2.437384	-0.969393	-0.866211	-0.139404	-0.241455	1.510321	14.905837	75.349533
06172		-18.613991	2.721899	-6.993307	-1.907185	-1.909153	-0.980556	-0.863281	-0.144287	-0.253662	0.271060	13.820995	74.750810
06173		-15.821149	-1.495145	-8.695666	-1.568959	-1.273377	-0.596866	-0.854980	-0.138428	-0.252197	-0.707012	13.091123	74.400825
06174		-10.200669	-4.147867	-9.530358	-0.348468	-0.312659	0.160437	-0.855225	-0.135010	-0.258057	-0.883116	12.913388	74.496400
06175		-10.511537	6.165358	-11.112701	-0.053252	1.946306	1.200147	-0.847656	-0.133301	-0.265381	-0.750903	14.040746	75.185854
06176		3.065494	-0.762363	3.025605	-0.206336	3.148927	1.746249	-0.839844	-0.113770	-0.263184	-0.605989	15.856832	76.197883
06177		-9.330591	-1.389122	18.140394	0.065298	3.072277	1.771102	-0.824463	-0.117920	-0.261719	-0.265258	17.627766	77.242402
06178		-5.675731	-4.254938	11.553851	-0.020770	2.263148	1.244660	-0.821289	-0.107910	-0.268799	-0.041129	18.926502	77.988417
06179		-2.992917	-6.226004	5.345524	0.044261	2.596002	0.630967	-0.807129	-0.099854	-0.264404	0.115593	20.416855	78.372181
06180		-4.723481	-8.339192	8.328744	0.315688	3.104457	0.018721	-0.790527	-0.107178	-0.265625	0.304766	22.195660	78.389331
06181		-9.333734	-4.265570	11.586845	0.376335	2.986982	-0.762979	-0.776855	-0.118896	-0.257568	0.339302	23.912787	77.923226
06182		-8.029617	-1.012118	9.842919	0.361598	2.636172	-1.149466	-0.754150	-0.115967	-0.252686	0.249009	25.426721	77.205645
06183		-6.539899	7.370677	9.735158	0.345102	2.713542	-0.769257	-0.747803	-0.111816	-0.256104	0.233396	26.986907	76.720004
06184		-9.136967	9.492927	11.780374	-0.108296	2.642202	-0.288746	-0.730225	-0.109863	-0.258789	0.087933	28.501370	76.536439
06185		-11.425201	3.368461	11.204464	-0.529729	2.290253	-0.050757	-0.722168	-0.110840	-0.258301	-0.231493	29.817303	76.499897
06186		-18.419791	-8.837825	14.018819	-0.004653	1.957180	0.180296	-0.712158	-0.110840	-0.246826	-0.174629	30.939170	76.613553
06187		-12.937647	-7.926931	9.327614	0.606567	0.520018	0.370374	-0.716064	-0.110840	-0.254395	0.301949	31.241290	76.860230
06188		-8.407871	6.132232	9.580664	0.543384	0.555122	0.421173	-0.714844	-0.104736	-0.258789	0.763655	31.557236	77.144908
06189		-6.578330	1.033063	9.049733	0.267641	0.278683	0.316806	-0.713135	-0.112793	-0.251953	1.031161	31.718869	77.359485
06190		-7.063727	-0.676719	8.553460	0.231693	0.169456	0.213170	-0.710938	-0.109619	-0.251953	1.241983	31.813674	77.503884
06191		-5.432427	1.462974	8.542152	0.193275	0.111688	0.147430	-0.702881	-0.111328	-0.246338	1.406923	31.880600	77.603520
06192		-5.823927	1.424862	8.609401	0.115786	0.076627	0.097011	-0.719971	-0.116211	-0.255859	1.509808	31.923238	77.668791
06193		-5.753198	0.234768	8.477207	0.093910	0.046584	0.074435	-0.709717	-0.119385	-0.248047	1.591635	31.953647	77.718443
06194		-5.387447	-0.169914	8.363854	0.110240	0.018644	0.075039	-0.715820	-0.117188	-0.257080	1.683058	31.963264	77.767961
06195		-5.499727	-0.044902	8.417139	0.132151	0.008288	0.089629	-0.718506	-0.115234	-0.245117	1.791881	31.971318	77.827192
06196		-5.482099	0.182363	8.376372	0.155521	-0.021365	0.114683	-0.712158	-0.111816	-0.244873	1.922980	31.957125	77.902641
06197		-5.369725	0.610859	8.516964	0.160767	-0.022065	0.134952	-0.710693	-0.118652	-0.250244	2.063991	31.946645	77.991748
06198		-5.393690	0.314539	8.497917	0.156022	-0.014248	0.154893	-0.716309	-0.120850	-0.241699	2.209746	31.935356	78.094405
06199		-5.241856	0.030365	8.377642	0.183932	-0.026142	0.186919	-0.713623	-0.117432	-0.240967	2.382458	31.920910	78.218357
06200		-5.442376	0.363004	8.568773	0.182864	-0.037215	0.194574	-0.713867	-0.125977	-0.233643	2.557270	31.894988	78.346987
06201		-5.470672	0.606733	8.556186	0.149769	-0.048866	0.170545	-0.704590	-0.126709	-0.239746	2.704024	31.867313	78.459005
06202		-5.357130	0.669739	8.591802	0.126451	-0.033036	0.137292	-0.716309	-0.114746	-0.244629	2.825994	31.844804	78.548944
06203		-5.472723	0.723013	8.594411	0.096758	-0.022771	0.110184	-0.716797	-0.119385	-0.248047	2.921258	31.833354	78.620996
06204		-5.253001	0.599531	8.557744	0.078616	-0.009320	0.090867	-0.716797	-0.121826	-0.244385	2.999670	31.825528	78.680379
06205		-5.165213	0.301779	8.435035	0.060850	0.005642	0.071249	-0.712402	-0.118164	-0.236572	3.061065	31.831305	78.727183
06206		-5.236360	0.325940	8.448026	0.065431	0.020003	0.065505	-0.714355	-0.117920	-0.243896	3.123473	31.840924	78.770536
06207		-5.344721	0.613649	8.544447	0.058093	0.033587	0.054540	-0.716553	-0.119385	-0.236328	3.177912	31.863085	78.807131
06208		-5.407843	0.589496	8.529297	0.043638	0.040905	0.046362	-0.714600	-0.122559	-0.238525	3.221485	31.885204	78.838414
06209		-5.382340	0.545081	8.514897	0.047059	0.045798	0.054518	-0.717041	-0.114990	-0.241211	3.269918	31.914263	78.875525
06210		-5.455693	0.747153	8.457411	0.047877	0.053130	0.051135	-0.716064	-0.115234	-0.244385	3.317929	31.943174	78.910561
06211		-5.457252	0.764478	8.413196	0.034970	0.063965	0.050871	-0.722168	-0.116211	-0.239502	3.358613	31.982666	78.946012
06212		-5.507232	0.958084	8.442690	0.022639	0.059996	0.039663	-0.716309	-0.118164	-0.241943	3.388284	32.015849	78.973658
06213		-5.443886	0.999961	8.484392	-0.009322	0.067595	0.007380	-0.713867	-0.130127	-0.237793	3.388227	32.058843	78.979999
06214		-5.346933	0.895049	8.519264	-0.047839	0.086949	-0.023440	-0.720459	-0.116943	-0.230957	3.355508	32.109570	78.966143
06215		-5.359799	0.654792	8.450971	-0.074799	0.105568	-0.048725	-0.717773	-0.122559	-0.240234	3.298606	32.176120	78.936059
06216		-5.452735	0.540428	8.440011	-0.091075	0.111853	-0.062270	-0.710693	-0.119141	-0.240967	3.227537	32.242337	78.896777
06217		-5.420613	0.409546	8.346363	-0.090325	0.108993	-0.066279	-0.717041	-0.120605	-0.226563	3.155297	32.311315	78.854729
06218		-5.467219	0.407891	8.311114	-0.078106	0.101093	-0.061936	-0.713867	-0.119629	-0.237305	3.091357	32.371284	78.815028
06219		-5.442892	0.358531	8.253966	-0.073406	0.085700	-0.059674	-0.708740	-0.120117	-0.242188	3.030544	32.426631	78.776372
06220		-5.440461	0.458295	8.309874	-0.064171	0.078091	-0.056366	-0.704102	-0.122803	-0.239502	2.976007	32.473202	78.739433
06221		-5.387516	0.447597	8.310308	-0.064892	0.075690	-0.066018	-0.709473	-0.123779	-0.244385	2.917415	32.522922	78.695953
06222		-5.389640	0.435758	8.379525	-0.071906	0.078004	-0.068861	-0.706299	-0.116455	-0.248779	2.853747	32.569739	78.650375
06223		-5.403938	0.483251	8.361576	-0.079962	0.086289	-0.075296	-0.707764	-0.117432	-0.245850	2.783156	32.625674	78.600774
06224		-5.378831	0.352203	8.399728	-0.084671	0.093826	-0.082132	-0.708252	-0.119141	-0.241699	2.707410	32.681816	78.546500
06225		-5.469563	0.382947	8.311584	-0.081998	0.098303	-0.082429	-0.707520	-0.114502	-0.238770	2.633024	32.744676	78.492199
06226		-5.456252	0.312372	8.262326	-0.080913	0.094344	-0.077662	-0.705811	-0.127197	-0.244385	2.560859	32.800880	78.440740
06227		-5.457234	0.211233	8.261708	-0.069440	0.093281	-0.066952	-0.709717	-0.118652	-0.234131	2.499064	32.860339	78.396580
06228		-5.564473	0.334493	8.300329	-0.059512	0.088063	-0.053975	-0.711670	-0.114258	-0.237549	2.447628	32.912269	78.360872
06229		-5.478904	0.318954	8.257615	-0.058791	0.082888	-0.054057	-0.702881	-0.111328	-0.243408	2.396369	32.965378	78.325020
06230		-5.477902	0.419270	8.314163	-0.062108	0.085642	-0.052478	-0.705322	-0.117676	-0.242676	2.343827	33.015832	78.290112
06231		-5.456053	0.327286	8.288242	-0.063130	0.091653	-0.056036	-0.700195	-0.113281	-0.241699	2.289335	33.073926	78.252996
06232		-5.386145	0.213721	8.274774	-0.058275	0.096718	-0.052402	-0.707275	-0.112305	-0.242920	2.239039	33.130665	78.218284
06233		-5.439293	0.240306	8.216093	-0.047927	0.105238	-0.037801	-0.704346	-0.115723	-0.232910	2.200112	33.196050	78.193833
06234		-5.451742	0.388533	8.298496	-0.047461	0.113086	-0.039663	-0.704102	-0.114502	-0.238525	2.160878	33.261840	78.168117
