// General information: 
//  MT Manager version: 2022.2.0 
//  XDA version: 2022.2.0 build 7381 rev 124627 built on 2023-07-19
// Device information: 
//  DeviceId: 00B4C223
//  ProductCode: MTW2-3A7G6
//  Firmware Version: 4.6.0
//  Hardware Version: 2.0.0
// Device settings: 
//  Filter Profile: human(46.1)
//  Option Flags: Orientation Smoother Disabled, Position/Velocity Smoother Disabled, Continuous Zero Rotation Update Disabled, AHS Disabled, ICC Disabled
// Coordinate system: ENU
PacketCounter	SampleTimeFine	Acc_X	Acc_Y	Acc_Z	Gyr_X	Gyr_Y	Gyr_Z	Mag_X	Mag_Y	Mag_Z	Roll	Pitch	Yaw
32346		-5.173188	0.712241	8.488968	-0.003021	-0.000325	0.002177	-0.916748	0.232910	-0.619141	5.082607	31.414085	133.180315
32347		-5.173016	0.712160	8.489079	-0.001381	-0.003385	0.001905	-0.925781	0.223389	-0.620605	5.082498	31.412204	133.178409
32348		-5.192088	0.685267	8.479293	-0.002201	-0.001855	0.002041	-0.918457	0.223877	-0.624023	5.083212	31.411443	133.177276
32349		-5.172957	0.711773	8.489148	-0.007222	0.006238	0.000403	-0.921143	0.226563	-0.619873	5.079535	31.415131	133.174878
32350		-5.162582	0.730316	8.477697	-0.002628	-0.002620	0.003494	-0.914063	0.229980	-0.625977	5.080487	31.413859	133.174671
32351		-5.181671	0.703334	8.467905	-0.003549	-0.002179	0.001175	-0.922119	0.231445	-0.628662	5.078928	31.412705	133.172355
32352		-5.192987	0.724402	8.492666	-0.004268	0.000440	0.003767	-0.921875	0.221680	-0.627930	5.079131	31.413166	133.172512
32353		-5.184929	0.681164	8.533494	-0.003549	-0.002179	0.001175	-0.922119	0.218262	-0.625244	5.077577	31.412014	133.170167
32354		-5.161149	0.689286	8.464805	-0.005717	-0.000972	0.000445	-0.919189	0.230957	-0.630615	5.075748	31.411838	133.168019
32355		-5.194297	0.712630	8.525712	-0.003976	-0.002944	0.002628	-0.926025	0.225830	-0.625000	5.074431	31.410171	133.166594
32356		-5.181104	0.702203	8.468346	-0.001145	0.001853	0.004045	-0.926270	0.229004	-0.621094	5.076563	31.411424	133.167021
32357		-5.172189	0.710073	8.489758	-0.005751	-0.004033	0.003215	-0.929443	0.230469	-0.623535	5.074400	31.409100	133.165931
32358		-5.163224	0.717794	8.511213	-0.002595	0.000441	0.000724	-0.916992	0.230469	-0.627197	5.074500	31.409716	133.164054
32359		-5.201052	0.714958	8.471907	-0.002595	0.000441	0.000724	-0.924561	0.230957	-0.626709	5.073423	31.410074	133.161582
32360		-5.179080	0.712332	8.435876	-0.004796	-0.001413	0.002764	-0.919922	0.225098	-0.620605	5.072915	31.409528	133.160958
32361		-5.211425	0.695671	8.483417	-0.003022	-0.000324	0.002177	-0.923096	0.225830	-0.624023	5.072081	31.409378	133.159395
32362		-5.180580	0.700968	8.468768	-0.004898	-0.002502	0.000308	-0.923828	0.221191	-0.627197	5.070626	31.408335	133.157065
32363		-5.140823	0.714206	8.475523	-0.003977	-0.002944	0.002627	-0.911865	0.230713	-0.624512	5.069323	31.406671	133.155630
32364		-5.198600	0.724717	8.439736	-0.002202	-0.001855	0.002040	-0.919922	0.229492	-0.619629	5.070036	31.405910	133.154497
32365		-5.171180	0.708232	8.490527	-0.007391	-0.000971	0.003487	-0.927246	0.228516	-0.624512	5.067142	31.405329	133.153829
32366		-5.201869	0.702428	8.505314	-0.001247	0.000765	0.001590	-0.917480	0.223145	-0.626953	5.068327	31.406086	133.152549
32367		-5.169430	0.718731	8.457863	-0.004370	-0.000647	0.001311	-0.915283	0.227539	-0.629639	5.066419	31.405799	133.150378
32368		-5.191280	0.720825	8.494013	-0.004370	-0.000647	0.001311	-0.920898	0.225098	-0.625977	5.065674	31.405763	133.148828
32369		-5.169291	0.718048	8.458006	-0.005718	-0.000970	0.000445	-0.923096	0.231445	-0.624756	5.062690	31.405342	133.146094
32370		-5.201575	0.701146	8.505600	-0.004898	-0.002501	0.000308	-0.921631	0.232666	-0.629883	5.061235	31.404299	133.143764
32371		-5.191018	0.719608	8.494277	-0.004763	0.001649	-0.000005	-0.918701	0.223145	-0.625977	5.058722	31.405388	133.140922
32372		-5.200003	0.711054	8.472879	-0.008279	0.002534	-0.001601	-0.916016	0.224365	-0.623535	5.054820	31.407315	133.137614
32373		-5.168439	0.676073	8.444816	-0.002202	-0.001855	0.002039	-0.917236	0.229736	-0.621826	5.054387	31.406307	133.135837
32374		-5.181423	0.686145	8.502339	-0.005718	-0.000970	0.000444	-0.914551	0.229980	-0.618652	5.052557	31.406131	133.133688
32375		-5.170828	0.704629	8.491041	-0.004370	-0.000647	0.001310	-0.923584	0.227539	-0.634277	5.050659	31.405843	133.131593
32376		-5.149660	0.742093	8.468393	-0.003550	-0.002177	0.001173	-0.923340	0.233398	-0.622314	5.050288	31.404940	133.129861
32377		-5.190692	0.717332	8.494669	-0.004899	-0.002500	0.000307	-0.923828	0.235352	-0.617188	5.047690	31.403647	133.126966
32378		-5.201174	0.698060	8.506098	-0.004763	0.001650	-0.000005	-0.918701	0.226807	-0.622803	5.046332	31.404988	133.124671
32379		-5.158362	0.733016	8.447214	-0.004763	0.001650	-0.000005	-0.918701	0.227051	-0.617676	5.043829	31.406071	133.121802
32380		-5.160225	0.721437	8.479892	-0.008381	0.001448	-0.004057	-0.928223	0.226563	-0.625244	5.038980	31.407501	133.116786
32381		-5.192718	0.704146	8.527379	-0.006640	-0.000526	-0.001875	-0.916504	0.223389	-0.628418	5.034694	31.407440	133.112471
32382		-5.210506	0.687564	8.484643	-0.006078	0.004390	-0.003640	-0.921387	0.227295	-0.628418	5.031399	31.410527	133.107907
32383		-5.181765	0.681585	8.502497	-0.006112	0.001327	-0.000872	-0.921875	0.227539	-0.620605	5.027834	31.411491	133.104416
32384		-5.181044	0.732060	8.483120	-0.006112	0.001327	-0.000872	-0.922852	0.225342	-0.624268	5.025390	31.412691	133.101522
32385		-5.190830	0.672411	8.481092	-0.007033	0.001771	-0.003191	-0.924072	0.228516	-0.635986	5.020496	31.414006	133.096496
32386		-5.180338	0.690767	8.469755	-0.003124	-0.001411	-0.000280	-0.915527	0.230713	-0.623047	5.019886	31.413613	133.093837
32387		-5.180988	0.730568	8.483283	-0.004079	-0.004031	0.000168	-0.922607	0.226807	-0.633301	5.017685	31.411462	133.090801
32388		-5.181659	0.679185	8.502754	-0.003944	0.000119	-0.000143	-0.910645	0.222656	-0.624512	5.016700	31.411936	133.088324
32389		-5.171078	0.697758	8.491456	-0.004798	-0.001413	0.002761	-0.914551	0.232910	-0.622314	5.015075	31.411147	133.087105
32390		-5.181542	0.678657	8.502867	-0.002595	0.000442	0.000723	-0.920166	0.225586	-0.613281	5.015174	31.411761	133.085226
32391		-5.171860	0.737411	8.504921	-0.003124	-0.001411	-0.000281	-0.920410	0.224121	-0.626709	5.013439	31.411109	133.082007
32392		-5.191088	0.710302	8.495017	-0.004371	-0.000647	0.001309	-0.923340	0.227295	-0.620850	5.012692	31.411072	133.080456
32393		-5.179784	0.688609	8.470269	-0.006932	0.002859	-0.000735	-0.915039	0.227295	-0.623047	5.008760	31.412886	133.077132
32394		-5.181593	0.677202	8.502952	-0.004371	-0.000647	0.001309	-0.922607	0.223877	-0.626709	5.008013	31.412849	133.075581
32395		-5.162311	0.703662	8.512947	-0.004764	0.001651	-0.000006	-0.918945	0.228271	-0.625488	5.005543	31.413942	133.072702
32396		-5.191515	0.708581	8.494900	-0.005584	0.003181	0.000132	-0.922119	0.218018	-0.630127	5.003808	31.416149	133.070588
32397		-5.180392	0.687141	8.470017	-0.000292	0.003384	0.001142	-0.920898	0.225098	-0.622803	5.004359	31.418174	133.068541
32398		-5.190225	0.719326	8.461954	-0.002921	0.000762	0.004631	-0.926270	0.231445	-0.622070	5.005644	31.418776	133.069295
32399		-5.180543	0.687079	8.469930	-0.003023	-0.000324	0.002175	-0.920166	0.227295	-0.628174	5.004872	31.418618	133.067794
32400		-5.180602	0.686972	8.469902	-0.003741	0.002293	0.004769	-0.925537	0.221680	-0.620361	5.005782	31.420086	133.068729
32401		-5.199136	0.711109	8.440563	-0.003023	-0.000324	0.002175	-0.909912	0.227783	-0.626465	5.005017	31.419939	133.067162
32402		-5.202564	0.688964	8.505990	-0.003944	0.000120	-0.000144	-0.911865	0.231934	-0.629395	5.004031	31.420412	133.064684
32403		-5.200697	0.699736	8.473395	-0.001383	-0.003386	0.001900	-0.918457	0.232910	-0.626221	5.004030	31.418555	133.062962
32404		-5.181912	0.675479	8.502895	-0.003057	-0.003388	0.004941	-0.922852	0.227783	-0.634277	5.005218	31.416772	133.063680
32405		-5.189729	0.718594	8.462320	-0.001247	0.000764	0.001590	-0.917725	0.224609	-0.626221	5.005307	31.417283	133.061888
32406		-5.200070	0.699640	8.473788	-0.004833	-0.004476	0.005526	-0.917480	0.221924	-0.625000	5.005649	31.414850	133.062933
32407		-5.190025	0.758651	8.476064	-0.000462	-0.003830	0.004218	-0.919678	0.225342	-0.627441	5.006968	31.412609	133.062494
32408		-5.180156	0.726493	8.484141	-0.003023	-0.000324	0.002175	-0.932129	0.221191	-0.630371	5.007305	31.412713	133.061541
32409		-5.190461	0.707470	8.495637	-0.003159	-0.004474	0.002484	-0.927002	0.224365	-0.617920	5.006464	31.410188	133.059916
32410		-5.198972	0.699446	8.474478	-0.003877	-0.001857	0.005079	-0.922607	0.230957	-0.632813	5.007277	31.409272	133.060815
32411		-5.168121	0.705016	8.459817	-0.000427	-0.000766	0.001452	-0.920166	0.226807	-0.620117	5.007757	31.408915	133.058809
32412		-5.176805	0.697074	8.438546	-0.002203	-0.001855	0.002037	-0.925049	0.231201	-0.622803	5.008469	31.408152	133.057674
32413		-5.169490	0.694152	8.492718	-0.000361	-0.002744	0.006674	-0.911377	0.226318	-0.625488	5.010750	31.406408	133.059055
32414		-5.149929	0.721068	8.502845	-0.002203	-0.001854	0.002037	-0.925781	0.227051	-0.628418	5.011462	31.405646	133.057920
32415		-5.156822	0.724126	8.448922	-0.001282	-0.002299	0.004355	-0.916504	0.227051	-0.626221	5.012432	31.404278	133.057769
32416		-5.178491	0.726502	8.485157	-0.002631	-0.002621	0.003489	-0.917969	0.220215	-0.618408	5.013381	31.403006	133.057560
32417		-5.188809	0.707648	8.496631	-0.002529	-0.001535	0.005945	-0.920654	0.229248	-0.629150	5.014218	31.401990	133.058474
32418		-5.179016	0.675541	8.504654	-0.002102	-0.000768	0.004493	-0.918701	0.224365	-0.630371	5.015878	31.401725	133.059045
32419		-5.197400	0.699853	8.475408	-0.000427	-0.000766	0.001452	-0.917725	0.227539	-0.626953	5.016382	31.401377	133.057064
32420		-5.197132	0.700161	8.475548	0.001380	-0.004720	0.008853	-0.924805	0.229492	-0.627930	5.021434	31.398638	133.060318
32421		-5.167853	0.695087	8.493638	-0.002102	-0.000768	0.004493	-0.920410	0.226563	-0.619385	5.022036	31.398133	133.060382
32422		-5.166040	0.706104	8.460998	-0.002102	-0.000768	0.004493	-0.920166	0.220703	-0.625732	5.023695	31.397868	133.060953
32423		-5.197430	0.740717	8.489241	-0.001283	-0.002299	0.004355	-0.914551	0.234619	-0.621338	5.024673	31.396491	133.060718
32424		-5.186822	0.668501	8.483853	-0.001674	-0.000001	0.003041	-0.923584	0.227051	-0.620850	5.026095	31.396736	133.060363
32425		-5.177121	0.727650	8.485895	0.001023	0.000641	0.004774	-0.933594	0.227783	-0.624023	5.028630	31.397015	133.060770
32426		-5.187579	0.708900	8.497278	-0.002204	-0.001853	0.002037	-0.918457	0.221924	-0.615967	5.029342	31.396253	133.059635
32427		-5.156588	0.714523	8.482689	-0.002138	-0.003831	0.007257	-0.921143	0.229736	-0.627197	5.030797	31.393847	133.061225
32428		-5.156426	0.714607	8.482780	-0.001247	0.000765	0.001590	-0.921143	0.225098	-0.624756	5.031982	31.394603	133.059945
32429		-5.185517	0.720053	8.464779	-0.001145	0.001851	0.004046	-0.910889	0.230957	-0.628174	5.033078	31.395621	133.059877
32430		-5.166947	0.695749	8.494135	-0.004408	-0.003706	0.004073	-0.916504	0.225342	-0.623535	5.033179	31.393699	133.059994
32431		-5.195587	0.701082	8.476419	-0.001813	-0.004150	0.003349	-0.920410	0.229980	-0.626709	5.033474	31.391335	133.059171
32432		-5.184765	0.719935	8.465249	-0.003879	-0.001854	0.005077	-0.919434	0.229980	-0.623535	5.034285	31.390421	133.060069
32433		-5.175723	0.727787	8.486736	-0.002632	-0.002619	0.003488	-0.920898	0.233154	-0.624268	5.034202	31.388912	133.059400
32434		-5.175567	0.727614	8.486846	-0.004372	-0.000643	0.001308	-0.920166	0.228516	-0.621094	5.033455	31.388878	133.057849
32435		-5.185885	0.708684	8.498330	-0.002139	-0.003830	0.007256	-0.924316	0.227783	-0.628174	5.034932	31.386481	133.059628
32436		-5.164623	0.746361	8.475759	-0.003945	0.000124	-0.000143	-0.920654	0.227295	-0.631836	5.033948	31.386958	133.057152
32437		-5.167048	0.684079	8.527865	-0.003162	-0.004471	0.002482	-0.919189	0.231934	-0.622559	5.033175	31.384452	133.055617
32438		-5.194104	0.700246	8.477396	-0.004372	-0.000642	0.001308	-0.919678	0.221191	-0.627197	5.032428	31.384418	133.054066
32439		-5.165747	0.734670	8.508872	-0.003981	-0.002939	0.002621	-0.923584	0.226807	-0.627441	5.031277	31.382771	133.052687
32440		-5.173635	0.686493	8.474198	-0.004270	0.000444	0.003764	-0.923584	0.223633	-0.627930	5.031476	31.383234	133.052843
32441		-5.152528	0.724011	8.451551	-0.004373	-0.000642	0.001308	-0.913818	0.222168	-0.622314	5.029719	31.382963	133.050648
32442		-5.195564	0.688230	8.510327	-0.006010	0.002421	0.001585	-0.914551	0.229248	-0.621826	5.028224	31.384664	133.049462
32443		-5.164995	0.693213	8.495530	-0.007462	0.001015	-0.001738	-0.914307	0.224365	-0.630615	5.023691	31.385496	133.045453
32444		-5.203593	0.730429	8.469730	-0.002205	-0.001853	0.002036	-0.923828	0.227051	-0.625732	5.024402	31.384735	133.044317
32445		-5.154261	0.711514	8.484356	-0.004801	-0.001408	0.002759	-0.920410	0.224609	-0.626465	5.022895	31.383967	133.043144
32446		-5.193703	0.697778	8.477846	-0.004373	-0.000642	0.001308	-0.916016	0.230225	-0.616211	5.022147	31.383933	133.041593
32447		-5.192054	0.708401	8.445149	-0.006010	0.002421	0.001585	-0.921387	0.226807	-0.626465	5.019644	31.385386	133.039910
32448		-5.164844	0.691698	8.495745	-0.003024	-0.000321	0.002174	-0.923096	0.221924	-0.620605	5.019981	31.385492	133.038957
32449		-5.142837	0.689178	8.459727	-0.003554	-0.002173	0.001169	-0.925293	0.226074	-0.622559	5.018604	31.384345	133.036536
32450		-5.171908	0.694494	8.441761	-0.001535	0.004148	0.002734	-0.923096	0.231934	-0.620361	5.020125	31.386974	133.036220
32451		-5.163839	0.742411	8.476584	-0.004838	-0.004471	0.005521	-0.925293	0.228760	-0.627686	5.019449	31.384281	133.036771
32452		-5.162765	0.702381	8.463306	0.000493	-0.001212	0.003768	-0.928467	0.231445	-0.616455	5.022328	31.383798	133.036831
32453		-5.182765	0.715620	8.466839	-0.004904	-0.002493	0.000302	-0.924561	0.226563	-0.622070	5.019862	31.382492	133.034025
32454		-5.202873	0.728639	8.470326	-0.003843	0.001211	0.002313	-0.920654	0.226074	-0.623291	5.019825	31.383465	133.033254
32455		-5.182713	0.715064	8.466918	-0.004373	-0.000641	0.001307	-0.916748	0.231445	-0.622070	5.018089	31.383192	133.031117
32456		-5.172986	0.682579	8.474910	-0.004801	-0.001407	0.002758	-0.922607	0.234131	-0.625244	5.017578	31.382648	133.030490
32457		-5.184264	0.703478	8.499751	-0.003945	0.000126	-0.000144	-0.918457	0.222412	-0.625732	5.015610	31.382895	133.027835
32458		-5.211571	0.719657	8.449149	-0.002596	0.000445	0.000723	-0.919189	0.234131	-0.618652	5.015710	31.383511	133.025956
32459		-5.153452	0.708582	8.485093	-0.003983	-0.002939	0.002619	-0.914307	0.229248	-0.623047	5.014595	31.381874	133.024692
32460		-5.182383	0.713980	8.467212	-0.001144	0.001850	0.004046	-0.926514	0.233154	-0.623291	5.016727	31.383125	133.025118
32461		-5.173562	0.721691	8.488574	-0.007397	-0.000961	0.003480	-0.916260	0.229004	-0.631104	5.014018	31.382570	133.024683
32462		-5.172746	0.681374	8.475154	-0.001247	0.000765	0.001590	-0.922119	0.224365	-0.623291	5.015203	31.383325	133.023403
32463		-5.182373	0.713495	8.467259	-0.003024	-0.000321	0.002173	-0.927246	0.228271	-0.622314	5.014583	31.383224	133.021919
32464		-5.173396	0.721277	8.488710	-0.002634	-0.002619	0.003485	-0.920166	0.234619	-0.631104	5.015529	31.381953	133.021707
32465		-5.161851	0.700016	8.464059	-0.002206	-0.001852	0.002034	-0.920654	0.228760	-0.628906	5.015274	31.380963	133.020226
32466		-5.164256	0.729054	8.510260	-0.001675	-0.000001	0.003040	-0.927490	0.221680	-0.620605	5.016695	31.381208	133.019871
32467		-5.173578	0.761069	8.502562	-0.005045	-0.006640	0.000606	-0.921875	0.229004	-0.623291	5.014174	31.377552	133.016789
32468		-5.191696	0.693968	8.479388	-0.003165	-0.004470	0.002479	-0.917969	0.222656	-0.629639	5.014409	31.375275	133.015797
32469		-5.151968	0.707063	8.486121	-0.006542	0.000572	0.000579	-0.924072	0.227295	-0.625000	5.011259	31.375757	133.013278
32470		-5.190589	0.744393	8.460338	-0.003024	-0.000320	0.002173	-0.917969	0.219727	-0.623779	5.011596	31.375863	133.012325
32471		-5.162401	0.687652	8.497557	-0.003555	-0.002171	0.001167	-0.918701	0.223877	-0.620361	5.010278	31.374738	133.009906
32472		-5.171890	0.719588	8.489771	-0.004374	-0.000640	0.001307	-0.916016	0.231689	-0.624756	5.009529	31.374705	133.008354
32473		-5.180636	0.711517	8.468488	-0.003452	-0.001087	0.003624	-0.922852	0.226074	-0.625732	5.009159	31.374076	133.007944
32474		-5.171708	0.719179	8.489917	-0.004374	-0.000639	0.001307	-0.916992	0.223145	-0.625488	5.008411	31.374043	133.006393
32475		-5.200566	0.724548	8.472094	-0.001285	-0.002299	0.004351	-0.912842	0.225586	-0.620850	5.009509	31.372692	133.006198
32476		-5.142252	0.713859	8.508098	0.002130	-0.004277	0.003488	-0.921875	0.227295	-0.627197	5.013135	31.370474	133.005892
32477		-5.171067	0.719333	8.490294	-0.003946	0.000127	-0.000144	-0.923828	0.227295	-0.619873	5.011222	31.370732	133.002986
32478		-5.180588	0.751340	8.482486	-0.003881	-0.001853	0.005074	-0.919189	0.223389	-0.631836	5.012031	31.369818	133.003881
32479		-5.182208	0.740114	8.515236	-0.003946	0.000127	-0.000144	-0.918457	0.228027	-0.620605	5.010124	31.370070	133.000851
32480		-5.179710	0.710819	8.469113	-0.003024	-0.000320	0.002173	-0.925293	0.221191	-0.628174	5.010460	31.370177	132.999898
32481		-5.179807	0.710606	8.469071	-0.002986	0.002745	-0.000587	-0.913086	0.232178	-0.631592	5.009030	31.371938	132.996673
32482		-5.171064	0.718251	8.490387	-0.003024	-0.000320	0.002173	-0.923584	0.231689	-0.620605	5.009366	31.372045	132.995719
32483		-5.200004	0.723419	8.472536	-0.005724	-0.000958	0.000440	-0.927490	0.229004	-0.625488	5.006621	31.371655	132.993509
32484		-5.181500	0.698926	8.501812	-0.002000	0.000317	0.006946	-0.910645	0.230469	-0.626709	5.009224	31.371886	132.995784
32485		-5.159621	0.696548	8.465705	-0.003946	0.000128	-0.000144	-0.921143	0.226074	-0.626221	5.007332	31.372146	132.993047
32486		-5.170775	0.717481	8.490628	-0.004413	-0.003703	0.004066	-0.917480	0.218018	-0.616211	5.007428	31.370226	132.993161
32487		-5.169608	0.768439	8.471590	-0.001778	-0.001085	0.000583	-0.920654	0.223145	-0.625488	5.006991	31.369742	132.990313
32488		-5.179189	0.709334	8.469556	-0.002738	-0.003702	0.001027	-0.923340	0.224365	-0.620117	5.006990	31.367975	132.988395
32489		-5.168368	0.727931	8.458430	-0.004906	-0.002489	0.000300	-0.921631	0.230469	-0.625000	5.004626	31.366702	132.985408
32490		-5.167356	0.687482	8.445123	-0.005334	-0.003255	0.001749	-0.924072	0.226807	-0.619873	5.003402	31.365154	132.984000
32491		-5.178394	0.708383	8.470122	-0.003984	-0.002937	0.002616	-0.922119	0.232910	-0.625732	5.002358	31.363506	132.982828
32492		-5.180125	0.697171	8.502793	-0.002883	0.003829	0.001870	-0.924316	0.223389	-0.626953	5.002796	31.365996	132.981915
32493		-5.167931	0.726980	8.458779	-0.002206	-0.001852	0.002033	-0.922852	0.220215	-0.624512	5.002614	31.365014	132.980402
32494		-5.169442	0.715959	8.491569	-0.001285	-0.002299	0.004350	-0.922119	0.225586	-0.624756	5.004643	31.363881	132.980788
32495		-5.158735	0.734922	8.480343	-0.000428	-0.000766	0.001450	-0.924316	0.225098	-0.624512	5.005317	31.363548	132.978640
32496		-5.169231	0.716070	8.491687	-0.003350	-0.000002	0.006079	-0.912109	0.225586	-0.624268	5.006835	31.363641	132.980317
32497		-5.156813	0.746160	8.447786	0.001311	-0.002746	0.003626	-0.913086	0.228027	-0.622070	5.009213	31.362079	132.979765
32498		-5.180184	0.737604	8.516685	-0.000857	-0.001533	0.002900	-0.922363	0.233887	-0.627441	5.011007	31.361456	132.979226
32499		-5.168778	0.716389	8.491937	-0.003025	-0.000319	0.002173	-0.924805	0.227783	-0.624756	5.010472	31.361350	132.978211
32500		-5.188714	0.729582	8.495535	-0.003167	-0.004468	0.002476	-0.913818	0.228516	-0.622803	5.010706	31.359073	132.977217
32501		-5.169114	0.756070	8.505723	-0.003946	0.000129	-0.000144	-0.921143	0.228271	-0.618652	5.008854	31.359331	132.974431
32502		-5.148044	0.702414	8.488888	-0.004414	-0.003702	0.004065	-0.918457	0.227295	-0.622559	5.008949	31.357412	132.974544
32503		-5.198699	0.709887	8.507263	-0.005725	-0.000955	0.000439	-0.920898	0.224854	-0.622559	5.006245	31.357003	132.972016
32504		-5.147794	0.701784	8.489091	-0.004271	0.000447	0.003763	-0.925049	0.223633	-0.629883	5.006443	31.357467	132.972169
32505		-5.176822	0.707106	8.471189	-0.002596	0.000447	0.000723	-0.924805	0.228027	-0.632080	5.005690	31.357864	132.969657
32506		-5.186327	0.739127	8.463413	-0.005232	-0.002170	0.004205	-0.922607	0.225830	-0.626709	5.005412	31.356812	132.969954
32507		-5.188018	0.727922	8.496102	-0.002064	0.002298	0.001730	-0.919678	0.221680	-0.620605	5.005379	31.358227	132.968444
32508		-5.157330	0.733546	8.481317	0.000493	-0.001215	0.003766	-0.920166	0.223877	-0.623779	5.008258	31.357742	132.968502
32509		-5.188114	0.727883	8.496047	-0.005582	0.003194	0.000137	-0.921631	0.227295	-0.624512	5.005680	31.359730	132.965690
32510		-5.168054	0.714078	8.492572	-0.005725	-0.000955	0.000439	-0.919434	0.228271	-0.624756	5.003846	31.359560	132.963540
32511		-5.158464	0.681516	8.500443	-0.003843	0.001213	0.002313	-0.917725	0.229736	-0.621338	5.002966	31.360314	132.962484
32512		-5.197157	0.719123	8.474648	-0.002493	0.001531	0.003180	-0.923828	0.233643	-0.627930	5.004013	31.361426	132.962311
32513		-5.168147	0.713539	8.492561	-0.003454	-0.001085	0.003622	-0.921631	0.223877	-0.615723	5.003739	31.360798	132.962301
32514		-5.168152	0.713542	8.492557	-0.001143	0.001849	0.004047	-0.921875	0.223389	-0.627686	5.005871	31.362048	132.962727
32515		-5.168195	0.713526	8.492533	-0.003025	-0.000319	0.002172	-0.919189	0.230225	-0.625977	5.005362	31.361917	132.961045
32516		-5.157447	0.732338	8.481350	-0.003065	-0.003384	0.004930	-0.920898	0.227783	-0.626709	5.006541	31.360137	132.961755
32517		-5.185601	0.697689	8.450004	-0.003843	0.001214	0.002313	-0.921631	0.231934	-0.628662	5.005678	31.360902	132.960838
32518		-5.166332	0.724168	8.459997	-0.004661	0.002746	0.002453	-0.926025	0.225586	-0.626465	5.005268	31.362744	132.960252
32519		-5.198794	0.707466	8.507407	-0.000858	-0.001533	0.002898	-0.917480	0.228760	-0.634521	5.006234	31.361904	132.959454
32520		-5.179239	0.734165	8.517557	-0.003454	-0.001085	0.003621	-0.924316	0.227539	-0.616699	5.006805	31.361501	132.959423
32521		-5.166048	0.723984	8.460186	-0.002637	-0.002617	0.003481	-0.917480	0.222412	-0.623291	5.006927	31.360016	132.958946
32522		-5.187699	0.726290	8.496437	-0.002533	-0.001534	0.005937	-0.921387	0.228271	-0.615967	5.008817	31.359241	132.960437
32523		-5.156339	0.691740	8.468098	-0.001206	0.003831	-0.001168	-0.925537	0.228516	-0.621582	5.008329	31.361643	132.956922
32524		-5.167525	0.712796	8.493002	-0.004027	-0.005999	0.005371	-0.926758	0.231445	-0.624268	5.009030	31.358347	132.957773
32525		-5.156708	0.731639	8.481860	-0.001246	0.000766	0.001590	-0.926025	0.231934	-0.624512	5.009377	31.358845	132.956242
32526		-5.197150	0.667134	8.494460	-0.001390	-0.003383	0.001891	-0.914307	0.234863	-0.618408	5.010458	31.357217	132.954921
32527		-5.187091	0.726014	8.496832	-0.003454	-0.001084	0.003621	-0.916992	0.231201	-0.624268	5.010199	31.356577	132.955092
32528		-5.165870	0.763664	8.474302	-0.003026	-0.000318	0.002172	-0.917480	0.225098	-0.626221	5.010534	31.356684	132.954138
32529		-5.175664	0.704669	8.472100	-0.000429	-0.000766	0.001449	-0.924316	0.220215	-0.615723	5.011299	31.356382	132.952440
32530		-5.147242	0.739091	8.503625	-0.003558	-0.002167	0.001164	-0.925537	0.228271	-0.622803	5.010922	31.355484	132.950705
32531		-5.185116	0.736550	8.464379	-0.004661	0.002747	0.002453	-0.920898	0.222656	-0.622070	5.009689	31.357063	132.949259
32532		-5.175581	0.704047	8.472203	-0.004805	-0.001401	0.002754	-0.922852	0.231689	-0.618652	5.009174	31.356523	132.948630
32533		-5.167598	0.751670	8.507034	-0.002023	0.005364	-0.001027	-0.918701	0.225098	-0.621826	5.008335	31.359795	132.945423
32534		-5.175857	0.703410	8.472087	-0.006259	-0.002801	-0.000570	-0.922363	0.222656	-0.623291	5.005788	31.358622	132.942491
32535		-5.186264	0.684180	8.483506	-0.001779	-0.001084	0.000582	-0.928711	0.227051	-0.615479	5.005473	31.358158	132.939759
32536		-5.166791	0.710738	8.493620	-0.004272	0.000448	0.003761	-0.920898	0.223145	-0.621338	5.005670	31.358623	132.939913
32537		-5.207080	0.737189	8.500584	-0.005623	0.000131	0.002894	-0.923340	0.231445	-0.624023	5.003969	31.358692	132.938788
32538		-5.164940	0.721217	8.461098	-0.003662	-0.003250	-0.001293	-0.921875	0.225830	-0.620361	5.002645	31.357299	132.935346
32539		-5.197366	0.704432	8.508531	-0.001960	0.003381	0.004188	-0.916504	0.229248	-0.630371	5.003613	31.359193	132.935720
32540		-5.176073	0.742206	8.486046	-0.004029	-0.005999	0.005369	-0.923096	0.226074	-0.620117	5.004313	31.355898	132.936570
32541		-5.146802	0.736459	8.504120	-0.003947	0.000132	-0.000144	-0.923340	0.228027	-0.621338	5.002560	31.356189	132.933867
32542		-5.166163	0.709291	8.494123	-0.005830	-0.002034	-0.002020	-0.926270	0.226074	-0.620850	4.999778	31.355526	132.930011
32543		-5.184408	0.733227	8.465101	-0.004909	-0.002483	0.000296	-0.917236	0.226807	-0.625977	4.997526	31.354249	132.927213
32544		-5.165792	0.708289	8.494433	-0.005831	-0.002033	-0.002020	-0.924561	0.229248	-0.625244	4.994745	31.353586	132.923357
32545		-5.165654	0.707849	8.494553	-0.003130	-0.001400	-0.000286	-0.914551	0.228027	-0.625244	4.993373	31.353005	132.920492
32546		-5.174460	0.699484	8.473265	-0.009245	-0.000052	-0.001156	-0.917480	0.221680	-0.620361	4.988995	31.353430	132.917329
32547		-5.167138	0.695600	8.527438	-0.004092	-0.004016	0.000154	-0.926025	0.218994	-0.617920	4.987153	31.351344	132.914402
32548		-5.175835	0.687458	8.506196	-0.003947	0.000133	-0.000145	-0.925049	0.223633	-0.624756	4.986168	31.351823	132.911926
32549		-5.183506	0.730556	8.465885	-0.003171	-0.004466	0.002470	-0.926025	0.235352	-0.624268	4.985621	31.349308	132.909903
32550		-5.163090	0.717175	8.462571	-0.000858	-0.001534	0.002897	-0.919189	0.220947	-0.629395	4.987413	31.348684	132.909363
32551		-5.164653	0.705983	8.495317	-0.004806	-0.001401	0.002753	-0.918945	0.229736	-0.623779	4.986145	31.347951	132.908564
32552		-5.173438	0.698061	8.474006	-0.001675	-0.000001	0.003038	-0.924072	0.224609	-0.623291	4.987565	31.348196	132.908208
32553		-5.184682	0.719143	8.498886	-0.003026	-0.000317	0.002171	-0.930908	0.230225	-0.618896	4.987140	31.348094	132.906981
32554		-5.133676	0.711413	8.480721	0.001310	-0.002750	0.003623	-0.914551	0.225586	-0.625244	4.990390	31.346740	132.906854
32555		-5.184530	0.719395	8.498958	-0.001960	0.003381	0.004188	-0.919434	0.225586	-0.629395	4.991384	31.348630	132.907212
32556		-5.175008	0.687132	8.506726	-0.002209	-0.001850	0.002030	-0.924316	0.227783	-0.615967	4.992091	31.347869	132.906074
32557		-5.153760	0.724974	8.484224	-0.002001	0.000315	0.006944	-0.923584	0.232422	-0.621094	4.993935	31.347883	132.907996
32558		-5.182566	0.730639	8.466453	-0.001821	-0.004149	0.003336	-0.919922	0.220703	-0.618408	4.995249	31.345745	132.907597
32559		-5.173509	0.738527	8.487930	-0.000325	0.000315	0.003905	-0.927246	0.223145	-0.624268	4.996991	31.345892	132.907449
32560		-5.184091	0.719637	8.499205	-0.004273	0.000449	0.003761	-0.918213	0.223389	-0.630371	4.997188	31.346357	132.907601
32561		-5.184075	0.719481	8.499228	-0.003026	-0.000317	0.002171	-0.919434	0.228516	-0.620605	4.996797	31.346283	132.905979
32562		-5.163869	0.706078	8.495786	-0.002105	-0.000767	0.004486	-0.922607	0.233643	-0.617432	4.998451	31.346018	132.906545
32563		-5.182337	0.730524	8.466603	-0.002063	0.002299	0.001731	-0.910645	0.233643	-0.621338	4.998502	31.347398	132.905577
32564		-5.164047	0.705915	8.495691	-0.003843	0.001216	0.002312	-0.920654	0.225342	-0.628418	4.998464	31.348374	132.904807
32565		-5.184198	0.719356	8.499164	0.000596	-0.000135	0.006221	-0.924805	0.226807	-0.631104	5.001569	31.348214	132.906704
32566		-5.162403	0.717255	8.462984	-0.003739	0.002298	0.004769	-0.924316	0.224854	-0.630127	5.002479	31.349685	132.907639
32567		-5.182558	0.730527	8.466467	-0.003456	-0.001083	0.003619	-0.912354	0.227051	-0.625977	5.002333	31.349106	132.907149
32568		-5.175304	0.727257	8.520541	-0.000755	-0.000451	0.005353	-0.921387	0.221680	-0.630615	5.005071	31.348978	132.908314
32569		-5.204258	0.732949	8.502679	-0.001676	-0.000000	0.003038	-0.915283	0.231201	-0.617432	5.005790	31.349067	132.907535
32570		-5.153977	0.765041	8.498090	-0.003560	-0.002165	0.001162	-0.923828	0.226074	-0.629395	5.005412	31.348170	132.905797
32571		-5.184387	0.759325	8.513058	-0.004849	-0.004465	0.005506	-0.923584	0.225830	-0.621338	5.005011	31.345532	132.906706
32572		-5.173087	0.737527	8.488274	-0.010125	0.003471	-0.006226	-0.916748	0.226318	-0.626709	4.998474	31.348222	132.900361
32573		-5.164753	0.653358	8.515055	-0.003948	0.000135	-0.000145	-0.917725	0.224854	-0.631348	4.996776	31.348495	132.897487
32574		-5.142559	0.741956	8.473492	-0.003948	0.000135	-0.000145	-0.922363	0.218750	-0.625488	4.995791	31.348976	132.895011
32575		-5.151470	0.733826	8.452125	-0.005194	0.000901	0.001445	-0.926758	0.232666	-0.622559	4.993975	31.349637	132.892912
32576		-5.144378	0.730116	8.506133	-0.005194	0.000901	0.001445	-0.928955	0.226074	-0.625000	4.992851	31.350476	132.891543
32577		-5.171105	0.706486	8.441964	-0.003414	0.001984	0.000864	-0.921143	0.225586	-0.621094	4.991849	31.351705	132.889609
32578		-5.173630	0.735250	8.488141	-0.002493	0.001532	0.003179	-0.932373	0.229004	-0.616943	4.992895	31.352818	132.889437
32579		-5.184303	0.716059	8.499378	-0.004869	0.000587	-0.002461	-0.922119	0.223877	-0.628906	4.989856	31.353401	132.884992
32580		-5.154523	0.760992	8.498123	-0.007320	0.005186	-0.002035	-0.919678	0.224854	-0.623779	4.986434	31.356858	132.881547
32581		-5.127398	0.793838	8.529041	-0.021877	0.021693	-0.011614	-0.921143	0.226807	-0.628906	4.971152	31.370022	132.872179
32582		-5.161631	1.046819	8.558963	-0.044072	0.040152	-0.030609	-0.918213	0.234863	-0.630615	4.937776	31.394851	132.851652
32583		-5.163108	0.788811	8.508079	-0.067573	0.044645	-0.045836	-0.924072	0.232178	-0.625244	4.885088	31.422793	132.821356
32584		-5.197588	0.643610	8.512582	-0.073709	0.046024	-0.046734	-0.913818	0.227783	-0.629639	4.829230	31.451728	132.790312
32585		-5.183997	0.832295	8.542970	-0.083226	0.052464	-0.049530	-0.916992	0.229492	-0.628662	4.766436	31.484239	132.757764
32586		-5.237332	0.800290	8.512816	-0.104191	0.053480	-0.062775	-0.920166	0.239746	-0.633057	4.687634	31.518128	132.716292
32587		-5.209761	0.622505	8.473854	-0.108456	0.045360	-0.062391	-0.920410	0.237793	-0.627930	4.605603	31.547115	132.675020
32588		-5.243169	0.564653	8.473374	-0.105417	0.028960	-0.057211	-0.915771	0.229980	-0.621338	4.527258	31.566647	132.635829
32589		-5.206442	0.566643	8.479249	-0.094837	0.029353	-0.055183	-0.915527	0.225830	-0.625244	4.455008	31.586033	132.598168
32590		-5.178134	0.562197	8.463827	-0.082248	0.021278	-0.049380	-0.921387	0.226807	-0.624756	4.392421	31.600747	132.563758
32591		-5.209766	0.598857	8.459329	-0.070902	0.013950	-0.041979	-0.918945	0.231689	-0.622803	4.338067	31.610695	132.533375
32592		-5.231103	0.513445	8.467239	-0.057239	0.009543	-0.034121	-0.915527	0.233643	-0.625000	4.294832	31.617991	132.508568
32593		-5.220698	0.577996	8.437418	-0.043438	0.009282	-0.026538	-0.916260	0.224609	-0.619141	4.261493	31.624569	132.488829
32594		-5.141868	0.651657	8.432455	-0.037115	0.010064	-0.020719	-0.908447	0.242188	-0.622559	4.234506	31.631569	132.473027
32595		-5.195587	0.786379	8.459390	-0.029871	0.025152	-0.014717	-0.909424	0.236328	-0.621094	4.213509	31.646704	132.462031
32596		-5.256526	0.599369	8.464326	-0.046482	0.008971	-0.024402	-0.916260	0.233887	-0.628418	4.179818	31.653221	132.443692
32597		-5.226535	0.508858	8.453960	-0.043025	0.010090	-0.028010	-0.916504	0.232422	-0.625000	4.146223	31.660307	132.423029
32598		-5.239931	0.564719	8.492830	-0.037753	0.007179	-0.024230	-0.919678	0.235107	-0.625732	4.117540	31.665776	132.404708
32599		-5.208912	0.526643	8.464023	-0.032779	0.007642	-0.019280	-0.920654	0.234131	-0.630615	4.092812	31.671074	132.389521
32600		-5.218359	0.515719	8.442264	-0.025198	0.007658	-0.015040	-0.918213	0.229736	-0.629883	4.074568	31.676428	132.377387
32601		-5.198924	0.500275	8.438345	-0.014387	0.010133	-0.008018	-0.921143	0.227783	-0.620605	4.064410	31.682699	132.369767
32602		-5.188265	0.478332	8.412799	-0.006803	0.010145	-0.003774	-0.925781	0.243164	-0.625977	4.060738	31.689014	132.365314
32603		-5.151868	0.571416	8.447390	0.001070	0.013345	0.007873	-0.919922	0.233154	-0.630371	4.065096	31.696440	132.368593
32604		-5.221559	0.655534	8.417454	0.007205	0.011985	0.008773	-0.921631	0.234131	-0.623291	4.073924	31.703297	132.372656
32605		-5.213848	0.572691	8.442438	0.004661	0.018618	0.003996	-0.916016	0.233154	-0.632568	4.079125	31.713916	132.373523
32606		-5.216927	0.562154	8.474085	0.012846	0.011876	0.005907	-0.914307	0.236328	-0.623535	4.090172	31.720826	132.375658
32607		-5.225649	0.607525	8.433550	0.015419	0.008338	0.007939	-0.913574	0.231934	-0.621338	4.102680	31.725422	132.378771
32608		-5.198038	0.552145	8.469504	0.013114	0.005407	0.007482	-0.918701	0.228516	-0.629150	4.114276	31.728569	132.381656
32609		-5.178364	0.631745	8.461315	0.016880	0.003143	0.002716	-0.914307	0.240234	-0.628662	4.125643	31.730399	132.380793
32610		-5.229582	0.640257	8.479136	0.011475	0.001906	-0.000797	-0.915283	0.223877	-0.625000	4.133285	31.731887	132.377947
32611		-5.170182	0.641613	8.482351	0.015465	0.004864	-0.003375	-0.912354	0.231201	-0.619385	4.141745	31.734954	132.373202
32612		-5.134635	0.592793	8.539486	0.005392	0.024239	-0.009327	-0.914307	0.240479	-0.630615	4.143457	31.749558	132.365711
32613		-5.010886	0.588209	8.433588	0.008950	0.026420	-0.010462	-0.922363	0.235352	-0.620117	4.146230	31.765223	132.357410
32614		-5.011818	0.652294	8.545989	0.001557	0.061209	-0.016808	-0.914795	0.223633	-0.630615	4.144039	31.801264	132.346688
32615		-5.318043	0.637890	8.557284	-0.007339	0.073659	-0.018879	-0.916260	0.235840	-0.629395	4.135699	31.844240	132.334715
32616		-5.331564	0.730865	8.494994	-0.017105	0.074884	-0.023885	-0.912842	0.235596	-0.618896	4.120628	31.888386	132.319874
32617		-5.331412	0.723433	8.545218	-0.029662	0.074428	-0.033123	-0.920410	0.236084	-0.627197	4.094425	31.932384	132.298595
32618		-5.366746	0.633182	8.527595	-0.036121	0.079190	-0.032893	-0.911133	0.227539	-0.627930	4.065306	31.979346	132.277835
32619		-5.285440	0.622703	8.545300	-0.041040	0.084956	-0.043382	-0.910645	0.235840	-0.629883	4.029133	32.029766	132.249904
32620		-5.291367	0.628530	8.508342	-0.042425	0.094350	-0.038475	-0.913574	0.232910	-0.614258	3.994706	32.085595	132.226007
32621		-5.270384	0.668388	8.503230	-0.050130	0.102983	-0.039432	-0.911133	0.237061	-0.629639	3.955090	32.146120	132.201577
32622		-5.230067	0.603117	8.498164	-0.057464	0.127235	-0.043998	-0.912842	0.225342	-0.628662	3.910763	32.220936	132.175353
32623		-5.214179	0.538776	8.527735	-0.061211	0.151661	-0.044489	-0.915283	0.233643	-0.631836	3.864053	32.309458	132.149494
32624		-5.255362	0.509485	8.620026	-0.062099	0.181971	-0.041047	-0.904053	0.240234	-0.635742	3.819298	32.415416	132.127562
32625		-5.271529	0.553321	8.591883	-0.065831	0.207534	-0.039128	-0.897705	0.234619	-0.626709	3.773037	32.535629	132.107764
32626		-5.285879	0.489985	8.652603	-0.065830	0.243691	-0.038924	-0.896973	0.232422	-0.636963	3.728182	32.676766	132.089759
32627		-5.348050	0.623295	8.742374	-0.071960	0.282352	-0.037269	-0.896973	0.238281	-0.635742	3.680635	32.839644	132.074136
32628		-5.341731	0.581085	8.698754	-0.079277	0.313221	-0.037454	-0.903076	0.233154	-0.622559	3.629991	33.020458	132.059813
32629		-5.412894	0.637451	8.702241	-0.093681	0.343965	-0.035814	-0.894287	0.237061	-0.627441	3.571683	33.218454	132.047392
32630		-5.476623	0.426388	8.736709	-0.108585	0.371941	-0.027603	-0.895752	0.239990	-0.628174	3.508961	33.432475	132.041799
32631		-4.486799	1.067502	9.484120	-0.104822	0.424518	-0.006902	-0.889893	0.233887	-0.630371	3.456719	33.675496	132.052024
32632		-1.318955	-0.936089	10.555053	-0.140767	0.885696	0.045658	-0.879883	0.237305	-0.636963	3.415277	34.180823	132.117682
32633		-4.878669	0.402160	9.972948	0.075738	1.348665	0.004462	-0.867920	0.242676	-0.652344	3.493019	34.951660	132.174458
32634		-4.522310	0.121855	9.780061	0.067326	1.540219	0.069904	-0.856689	0.234131	-0.641113	3.599887	35.830318	132.287943
32635		-4.845899	0.379148	9.751542	0.175254	1.816721	0.043258	-0.841797	0.243652	-0.647949	3.768082	36.866969	132.398725
32636		-5.003469	0.691156	9.896630	0.213356	2.041901	0.046391	-0.832031	0.233643	-0.645020	3.972125	38.032787	132.529016
32637		-5.234565	0.614528	9.558019	0.245432	2.280269	0.040874	-0.817139	0.224121	-0.651611	4.206248	39.333594	132.675193
32638		-5.703345	0.237200	9.887958	0.244334	2.476037	0.059828	-0.792236	0.235840	-0.652588	4.465954	40.745981	132.857268
32639		-5.836817	0.768005	9.910225	0.218949	2.665939	0.056177	-0.770752	0.231201	-0.664551	4.728090	42.265089	133.060295
32640		-6.142435	0.860346	9.649484	0.070277	2.805747	0.090549	-0.741699	0.231201	-0.667236	4.944007	43.862961	133.313757
32641		-6.227040	-2.139741	8.781854	0.183715	3.044371	0.227025	-0.725098	0.223633	-0.669678	5.332020	45.587543	133.712452
32642		-7.295563	-0.578749	8.518862	0.482197	3.153142	0.321909	-0.692383	0.218506	-0.674561	5.989679	47.367590	134.234784
32643		-7.800893	2.443190	8.049274	0.337989	3.209357	0.298347	-0.662598	0.216553	-0.664795	6.598936	49.175469	134.788881
32644		-8.385123	1.564484	8.387505	-0.067299	3.105829	0.283533	-0.642822	0.226318	-0.665283	7.004751	50.923693	135.365138
32645		-7.036093	-0.960831	6.894451	-0.113271	3.069845	0.323235	-0.615967	0.222168	-0.670654	7.453067	52.644137	136.015598
32646		-9.696190	0.706297	7.502287	-0.008988	2.944901	0.261521	-0.586670	0.215332	-0.669434	7.953575	54.296642	136.641620
32647		-8.714201	1.982098	8.816657	-0.099982	2.591863	0.251158	-0.573730	0.219971	-0.675537	8.399856	55.744943	137.253645
32648		-7.642496	1.536364	10.392097	-0.270406	2.072299	0.136679	-0.547852	0.223633	-0.669678	8.624518	56.908140	137.706672
32649		-5.015177	0.106217	10.793935	-0.315850	1.516368	0.006629	-0.543945	0.218750	-0.665283	8.650701	57.765032	137.950229
32650		-4.505277	-1.093636	10.158148	-0.162220	1.034932	-0.224436	-0.528809	0.224121	-0.660156	8.494896	58.371070	137.873142
32651		-6.503510	-0.328547	11.485928	-0.024006	0.360465	-0.413292	-0.527832	0.226318	-0.664551	8.144872	58.607552	137.476330
32652		-3.624586	-0.384981	10.112145	0.133819	-0.283603	-0.465675	-0.534668	0.226074	-0.662354	7.752091	58.484016	136.923005
32653		-1.823365	0.708329	9.110759	0.280352	-0.622476	-0.399245	-0.536377	0.215820	-0.665527	7.465729	58.157952	136.395437
32654		-0.847212	1.902958	8.513156	0.238111	-0.782436	-0.307417	-0.539551	0.220459	-0.662842	7.230931	57.736336	135.954420
32655		-0.820931	2.441607	8.621186	0.043904	-0.889033	-0.233887	-0.547363	0.211914	-0.669434	6.946060	57.243823	135.584396
32656		-1.406849	2.125210	8.978441	-0.141749	-1.046285	-0.178663	-0.556641	0.214111	-0.667480	6.599380	56.661059	135.264641
32657		-1.806828	1.479569	9.208410	-0.186036	-1.261460	-0.132039	-0.569336	0.229980	-0.665283	6.256508	55.947020	134.978108
32658		-2.256835	1.366871	9.375706	-0.122223	-1.500428	-0.091598	-0.578857	0.219238	-0.671143	5.976699	55.098258	134.720525
32659		-2.652836	1.588037	9.480585	-0.066431	-1.750804	-0.075530	-0.587891	0.230713	-0.671143	5.732317	54.099801	134.464763
32660		-2.964496	1.642958	9.508749	-0.059016	-1.961476	-0.078206	-0.604736	0.224121	-0.670166	5.489223	52.986139	134.201387
32661		-3.246653	1.594398	9.463023	-0.066964	-2.139623	-0.097775	-0.617676	0.228027	-0.673096	5.228687	51.765235	133.918085
32662		-3.415980	1.394403	9.303028	-0.052486	-2.260553	-0.113658	-0.628418	0.229248	-0.667480	4.975324	50.481352	133.627989
32663		-3.596923	1.456868	9.175436	-0.036924	-2.298546	-0.134986	-0.651855	0.227539	-0.671143	4.730180	49.169536	133.331851
32664		-4.221116	1.378611	9.299370	-0.060373	-2.270925	-0.163744	-0.661377	0.233154	-0.677734	4.471962	47.880489	133.029980
32665		-5.446209	1.142873	9.622238	-0.110324	-2.243586	-0.200741	-0.676270	0.233398	-0.673340	4.179571	46.600804	132.714611
32666		-6.472695	0.488123	9.907207	-0.114220	-2.276153	-0.243809	-0.691650	0.238037	-0.677490	3.875784	45.310054	132.379482
32667		-7.173177	-0.147633	10.111987	-0.039099	-2.323604	-0.254569	-0.696777	0.231934	-0.678711	3.623677	43.984298	132.049163
32668		-8.378769	-0.076878	10.660316	0.009972	-2.370525	-0.270391	-0.704346	0.234619	-0.681152	3.405743	42.638477	131.719412
32669		-9.901908	-0.071842	11.290161	-0.021782	-2.503473	-0.304735	-0.734375	0.229980	-0.682861	3.163203	41.209512	131.371473
32670		-11.356198	0.010552	11.537722	-0.093885	-2.758869	-0.363985	-0.757080	0.232422	-0.693359	2.862036	39.642259	130.986082
32671		-11.611433	-0.499391	11.163649	-0.130934	-3.091745	-0.412942	-0.779053	0.232178	-0.687744	2.530874	37.877057	130.573112
32672		-10.959053	-0.916441	10.395492	-0.051214	-3.371690	-0.409298	-0.806396	0.230469	-0.684082	2.265762	35.957020	130.176387
32673		-9.954521	-0.884766	9.560568	0.081603	-3.505607	-0.348294	-0.841309	0.224365	-0.685791	2.120123	33.950988	129.836445
32674		-9.297772	-0.324486	8.792581	0.136161	-3.491352	-0.285394	-0.867188	0.219971	-0.683105	2.046286	31.958143	129.552606
32675		-8.709576	0.149504	8.153554	0.068423	-3.371690	-0.231168	-0.896973	0.214600	-0.674805	1.966267	30.025900	129.316554
32676		-8.573249	0.407648	7.745973	-0.083024	-3.169770	-0.212709	-0.928467	0.215088	-0.659424	1.818840	28.215052	129.106122
32677		-8.477846	0.231295	7.330339	-0.202264	-2.961614	-0.248728	-0.952148	0.210449	-0.650879	1.604133	26.517357	128.886056
32678		-8.069365	-0.498866	6.945932	-0.188904	-2.737940	-0.297018	-0.983398	0.219238	-0.649902	1.395662	24.953893	128.649342
32679		-8.478060	-0.695419	6.981302	-0.085740	-2.476107	-0.314979	-1.004883	0.208008	-0.637207	1.251840	23.534372	128.413017
32680		-9.811956	-0.192406	7.395868	-0.050498	-2.299930	-0.309825	-1.021240	0.209229	-0.636963	1.138113	22.220855	128.188328
32681		-10.624870	-0.082987	7.459968	-0.194755	-2.228762	-0.316984	-1.041016	0.207031	-0.633789	0.946919	20.942618	127.965620
32682		-10.934815	-0.435835	6.936302	-0.313676	-2.331483	-0.320107	-1.063721	0.212158	-0.622803	0.694169	19.609784	127.747530
32683		-9.913527	-1.157241	5.654929	-0.277286	-2.385044	-0.262860	-1.078125	0.208008	-0.607666	0.480373	18.240890	127.571141
32684		-8.611928	-0.994368	4.491276	-0.107659	-2.282531	-0.131824	-1.105469	0.208984	-0.600830	0.393495	16.933942	127.479287
32685		-7.780079	-0.058220	3.596476	-0.038511	-2.043673	-0.009888	-1.113525	0.209717	-0.584717	0.369009	15.759844	127.462919
32686		-7.633803	0.538779	2.986388	-0.130697	-1.759545	0.038223	-1.135986	0.204346	-0.576660	0.300493	14.751815	127.477375
32687		-7.351464	0.194063	2.581188	-0.240495	-1.482439	0.051747	-1.144531	0.206299	-0.570557	0.171008	13.899787	127.502080
32688		-6.946512	-0.874455	2.136654	-0.112721	-1.190500	0.127054	-1.155762	0.216309	-0.560303	0.125621	13.217715	127.573024
32689		-6.571622	-0.819020	2.000580	0.253225	-0.879052	0.306413	-1.169434	0.212402	-0.553955	0.312329	12.711516	127.748942
32690		-6.617886	0.661961	2.189124	0.499254	-0.563409	0.467431	-1.169678	0.211182	-0.557373	0.659491	12.386679	128.018387
32691		-6.799352	1.768300	2.700189	0.418557	-0.267736	0.558486	-1.168213	0.213135	-0.550537	0.970284	12.227516	128.341400
32692		-7.372484	1.452354	3.227591	0.183798	-0.043047	0.571886	-1.162598	0.212646	-0.552490	1.148519	12.197051	128.674022
32693		-7.664538	0.136516	3.719928	0.082068	0.079185	0.597586	-1.172363	0.211182	-0.553223	1.271662	12.234618	129.023060
32694		-7.674559	-0.597081	4.114149	0.202600	0.135155	0.645457	-1.167725	0.210449	-0.563232	1.470666	12.303449	129.401205
32695		-7.001212	-0.495793	4.105220	0.368483	0.212183	0.678061	-1.167969	0.213867	-0.566162	1.769397	12.414123	129.800102
32696		-6.143649	-0.124269	4.085843	0.445494	0.383602	0.673049	-1.171875	0.214355	-0.569336	2.113977	12.621004	130.200416
32697		17.339592	0.724080	22.147925	0.205019	1.391844	0.646991	-1.148193	0.216309	-0.581543	2.325889	13.404234	130.610121
32698		2.718152	-0.697801	15.405627	0.224211	0.869749	0.502208	-1.150146	0.229492	-0.586182	2.531349	13.890227	130.925575
32699		2.845702	-0.762823	3.324107	0.271239	1.650502	0.265726	-1.140137	0.225098	-0.590820	2.738391	14.827219	131.125188
32700		-2.536776	1.106452	6.017084	0.029596	2.520703	-0.175082	-1.123047	0.226318	-0.611084	2.748697	16.274935	131.090810
32701		-7.904084	2.654420	12.243272	-0.518424	2.438354	-0.922007	-1.104248	0.230225	-0.611572	2.310742	17.693160	130.601169
32702		-5.527031	1.121854	10.520783	-0.640917	1.983530	-1.038811	-1.090088	0.230469	-0.625244	1.762330	18.850369	130.015145
32703		-1.995129	2.082113	8.314701	-0.461585	2.114961	-0.638530	-1.068848	0.231689	-0.645996	1.381895	20.071188	129.660238
32704		-4.201878	3.175804	9.756876	-0.527561	2.387103	-0.365770	-1.054688	0.223389	-0.653564	1.012811	21.443236	129.464535
32705		-5.023556	-0.104095	9.738817	-0.582116	2.365210	-0.305606	-1.030273	0.238770	-0.657471	0.617611	22.800163	129.294095
32706		-5.240011	-2.638570	9.534751	-0.365008	2.414183	-0.222056	-1.019531	0.249512	-0.673340	0.359963	24.184655	129.165993
32707		-6.308413	-3.647514	9.654306	-0.295045	2.413394	-0.372848	-1.000244	0.242920	-0.677246	0.095799	25.567760	128.934213
32708		-6.414856	-3.902457	9.997795	0.006525	2.394395	-0.403998	-0.984131	0.236328	-0.690918	-0.012599	26.940035	128.674930
32709		-8.587732	-0.590303	10.368816	0.098343	2.269175	-0.300909	-0.967773	0.235352	-0.697998	-0.045839	28.239722	128.477033
32710		-9.390518	0.870433	10.225770	0.109399	2.005154	-0.150303	-0.942139	0.242676	-0.704834	-0.029515	29.388748	128.375530
32711		-9.030340	0.801020	9.872570	0.109344	1.696474	0.007673	-0.937744	0.239014	-0.708984	0.036452	30.360695	128.377981
32712		-16.261932	-3.339181	13.157587	0.481172	1.266974	0.375518	-0.922119	0.241943	-0.717773	0.443161	31.085936	128.629396
32713		-8.079625	-1.529076	8.299030	0.571312	0.298164	0.415289	-0.921143	0.233398	-0.724121	0.916190	31.254411	128.907043
32714		-7.324935	3.075745	9.480986	0.487785	0.284024	0.437831	-0.915039	0.228027	-0.721680	1.351638	31.412405	129.202036
32715		-5.646281	1.376633	8.709641	0.337001	0.192008	0.377637	-0.919189	0.234131	-0.713867	1.679479	31.517360	129.456275
32716		-5.176120	-0.131743	8.384528	0.334832	0.195359	0.330722	-0.913818	0.227051	-0.717285	1.991208	31.623447	129.680361
32717		-6.156150	0.907869	8.816651	0.313629	0.188667	0.240848	-0.912354	0.229980	-0.723633	2.259117	31.727094	129.844380
32718		-5.827588	2.267346	8.648625	0.191518	0.087908	0.117923	-0.911621	0.222900	-0.725342	2.413191	31.774964	129.923769
32719		-5.994491	1.361246	8.754172	0.105130	0.050301	0.011428	-0.902832	0.225586	-0.718750	2.479040	31.804276	129.930258
32720		-5.441759	0.610958	8.608609	0.059340	0.024627	-0.030979	-0.910400	0.223633	-0.715576	2.503712	31.819449	129.907696
32721		-5.399625	0.204443	8.458981	0.045829	0.018353	-0.037146	-0.910400	0.221680	-0.723145	2.517930	31.831707	129.880597
32722		-5.189777	0.003114	8.392850	0.059391	0.018391	-0.025495	-0.916992	0.223877	-0.717529	2.544477	31.843185	129.861551
32723		-5.349716	-0.074089	8.428239	0.078413	0.006335	0.012415	-0.909180	0.227295	-0.724365	2.594761	31.847317	129.867477
32724		-5.260471	0.058901	8.348515	0.100357	0.011403	0.036866	-0.905762	0.218018	-0.727539	2.666846	31.853184	129.890255
32725		-5.128435	-0.048014	8.365893	0.121428	0.018027	0.061440	-0.913330	0.220703	-0.721924	2.759375	31.862668	129.929579
32726		-5.455851	0.202641	8.490254	0.142992	0.015896	0.078637	-0.903076	0.219971	-0.722656	2.870846	31.869869	129.980678
32727		-5.466338	0.480666	8.510347	0.136612	-0.016299	0.075895	-0.916748	0.219971	-0.720459	2.976585	31.859167	130.028584
32728		-5.476007	0.631134	8.632658	0.114534	-0.032570	0.068896	-0.902832	0.228271	-0.726074	3.067377	31.838774	130.071419
32729		-5.450706	0.923178	8.606874	0.073608	-0.038537	0.057601	-0.913086	0.223633	-0.721924	3.130053	31.815799	130.106146
32730		-5.189867	0.633152	8.476726	0.055807	-0.020340	0.055035	-0.917969	0.220947	-0.731934	3.182453	31.802755	130.140029
32731		-5.232297	0.246813	8.444723	0.069979	-0.023564	0.075671	-0.917969	0.221924	-0.723877	3.249745	31.787700	130.187436
32732		-5.327143	0.252479	8.402834	0.079145	-0.027256	0.091296	-0.912354	0.218750	-0.730225	3.328184	31.769441	130.245405
32733		-5.132268	0.148741	8.426546	0.112536	-0.029284	0.123084	-0.910400	0.215088	-0.719482	3.436443	31.749396	130.324397
32734		-5.186471	0.238756	8.340881	0.137372	-0.033982	0.150973	-0.917236	0.211182	-0.724609	3.569116	31.725017	130.422110
32735		-5.109660	0.470238	8.346721	0.152901	-0.035986	0.160696	-0.917480	0.206787	-0.720947	3.713477	31.699462	130.525932
32736		-5.178126	0.615180	8.497266	0.158489	-0.028613	0.154624	-0.919189	0.218994	-0.721924	3.859490	31.677604	130.626144
32737		-5.351840	1.068407	8.603258	0.136787	-0.030570	0.137683	-0.916260	0.213867	-0.724609	3.986464	31.655603	130.714559
32738		-5.356805	1.232682	8.691163	0.082150	-0.026370	0.098990	-0.915771	0.216797	-0.730225	4.069054	31.636907	130.777371
32739		-5.251606	0.918784	8.602978	0.036881	-0.008643	0.052955	-0.913086	0.212402	-0.727783	4.109476	31.630676	130.809893
32740		-5.261305	0.696160	8.523947	0.014596	0.008382	0.027390	-0.910645	0.213379	-0.721680	4.129000	31.634702	130.826282
32741		-5.340938	0.978180	8.561948	-0.014580	0.011995	-0.013304	-0.908936	0.218506	-0.725586	4.117158	31.642971	130.815337
32742		-5.230618	0.557550	8.532359	-0.031940	0.013000	-0.022528	-0.919922	0.214600	-0.729980	4.092557	31.651687	130.798440
32743		-5.242116	0.378675	8.433955	-0.018128	0.015969	-0.017690	-0.912598	0.220215	-0.721680	4.077251	31.662395	130.784743
32744		-5.226577	0.495641	8.438383	-0.000667	0.012934	-0.003221	-0.915527	0.208496	-0.717773	4.077362	31.670280	130.780797
32745		-5.317015	0.809022	8.468641	-0.001921	0.013673	-0.001626	-0.911621	0.212402	-0.713867	4.076927	31.679018	130.777766
32746		-5.081699	0.853713	8.495123	-0.015987	0.024429	-0.011150	-0.914063	0.209961	-0.729736	4.065750	31.693795	130.769043
32747		-5.184070	0.990787	8.592189	-0.038191	0.048726	-0.039798	-0.913086	0.218994	-0.717773	4.031955	31.724101	130.742043
32748		-5.069847	0.932854	8.450157	-0.066607	0.057791	-0.057990	-0.909668	0.212158	-0.722412	3.976018	31.759811	130.703383
32749		-4.916887	0.258564	8.406972	-0.069100	0.078955	-0.068977	-0.905273	0.218506	-0.724609	3.914886	31.808487	130.658099
32750		-5.115504	0.369229	8.379717	-0.042345	0.086450	-0.059132	-0.906738	0.212158	-0.726074	3.873021	31.860561	130.619864
32751		-5.354985	0.507669	8.359116	-0.025577	0.073250	-0.045074	-0.913818	0.217773	-0.715088	3.845023	31.904977	130.590265
32752		-5.368585	0.714429	8.392363	-0.018419	0.055653	-0.042118	-0.912842	0.217041	-0.725342	3.822088	31.938758	130.561999
32753		-5.366541	0.706423	8.443800	-0.030642	0.048591	-0.049775	-0.909668	0.222656	-0.723633	3.788866	31.969239	130.528059
32754		-5.243703	0.544320	8.393489	-0.040933	0.047867	-0.055830	-0.910400	0.218018	-0.727783	3.747893	31.999058	130.490140
32755		-5.101960	0.306474	8.390781	-0.038528	0.059181	-0.055989	-0.907471	0.209473	-0.731445	3.708118	32.035785	130.452409
32756		-5.144652	0.029279	8.308051	-0.008472	0.074716	-0.026948	-0.901123	0.212158	-0.724609	3.696629	32.079850	130.435076
32757		-5.148792	-0.277687	8.250478	0.063248	0.084018	0.055034	-0.905273	0.211670	-0.725098	3.755464	32.126630	130.473314
32758		-5.371444	0.163694	8.311645	0.122630	0.066922	0.107495	-0.901123	0.210693	-0.732422	3.867223	32.161147	130.546487
32759		-5.516625	0.564868	8.471095	0.130872	0.037197	0.112213	-0.911377	0.214355	-0.722412	3.984297	32.178811	130.621353
32760		-5.452890	0.682272	8.488818	0.122581	0.030094	0.104670	-0.908691	0.223145	-0.727539	4.094225	32.192147	130.691058
32761		-5.328402	0.374078	8.363362	0.124964	0.029065	0.115543	-0.905762	0.216064	-0.718750	4.208995	32.204783	130.767882
32762		-5.338581	0.180044	8.415909	0.155730	0.023213	0.144380	-0.898193	0.216797	-0.731445	4.352091	32.212240	130.864138
32763		-5.418039	0.585553	8.413472	0.160328	0.005173	0.155740	-0.903564	0.214355	-0.722168	4.500947	32.209139	130.966914
32764		-5.294584	0.737015	8.482501	0.142938	-0.007590	0.140897	-0.907471	0.209961	-0.732178	4.634589	32.198754	131.059196
32765		-5.271774	0.910481	8.553417	0.116805	0.014171	0.128717	-0.902588	0.207764	-0.728760	4.749028	32.201653	131.144205
32766		-5.408243	1.060478	8.442304	0.089395	0.041751	0.110108	-0.905029	0.212402	-0.732178	4.842394	32.220604	131.218461
32767		-5.320282	0.678312	8.384996	0.070922	0.047693	0.102051	-0.901611	0.216553	-0.732178	4.922073	32.243695	131.287463
32768		-5.267761	0.512035	8.344023	0.082338	0.041599	0.112005	-0.903320	0.208496	-0.723389	5.012174	32.262276	131.363092
32769		-5.300013	0.971345	8.379596	0.079702	0.034350	0.101693	-0.902588	0.207764	-0.728760	5.096417	32.277592	131.431161
32770		-5.305568	1.011326	8.423057	0.062125	0.034095	0.079769	-0.909912	0.198486	-0.726318	5.163155	32.293361	131.484664
32771		-5.296626	0.947753	8.415446	0.048502	0.041465	0.068989	-0.906982	0.199707	-0.721436	5.218058	32.314288	131.531173
32772		-5.361889	0.785243	8.334257	0.039506	0.045020	0.053346	-0.904053	0.209229	-0.733887	5.262721	32.337587	131.567571
32773		-5.306365	0.548686	8.400724	0.048126	0.034072	0.061917	-0.902588	0.209229	-0.734131	5.314684	32.354599	131.608914
32774		-5.310291	0.738774	8.385935	0.056980	0.034545	0.067029	-0.901855	0.206055	-0.720703	5.374006	32.371136	131.653955
32775		-5.331750	0.810809	8.367491	0.052067	0.021189	0.059147	-0.899414	0.202393	-0.734863	5.426819	32.380875	131.692650
32776		-5.183614	0.773700	8.379700	0.042559	0.019778	0.045306	-0.908203	0.208984	-0.729248	5.469550	32.390102	131.722115
32777		-5.292654	1.005374	8.445486	0.032127	0.031630	0.032035	-0.900391	0.201660	-0.724121	5.501520	32.407224	131.743201
32778		-5.276695	1.177094	8.427159	0.007230	0.051249	0.005666	-0.900391	0.200195	-0.730225	5.510777	32.436553	131.747957
32779		-5.327294	1.181201	8.495194	-0.014444	0.076479	-0.020763	-0.897217	0.207520	-0.731689	5.498542	32.482136	131.736316
32780		-5.255158	1.073240	8.498354	-0.042925	0.111821	-0.051167	-0.897705	0.200439	-0.730957	5.460513	32.549123	131.706551
32781		-5.233589	0.798196	8.497412	-0.059169	0.137556	-0.066463	-0.889893	0.202881	-0.729004	5.408077	32.631995	131.667841
32782		-5.130157	0.547531	8.563489	-0.058723	0.180233	-0.051977	-0.894043	0.214111	-0.732910	5.362886	32.738009	131.641711
32783		-5.324416	0.781515	8.474985	-0.067727	0.217561	-0.040890	-0.901123	0.203369	-0.723877	5.317429	32.865077	131.625171
32784		-5.411726	0.906726	8.411333	-0.074186	0.240565	-0.035882	-0.888672	0.200439	-0.729980	5.271147	33.004625	131.613507
32785		-5.493487	0.987735	8.387442	-0.092849	0.260457	-0.049029	-0.894775	0.198486	-0.732910	5.209502	33.156558	131.593791
32786		-5.518249	1.016028	8.386960	-0.112155	0.276361	-0.068153	-0.891113	0.208740	-0.733154	5.130337	33.318176	131.561919
32787		-5.464881	0.886969	8.413514	-0.140104	0.296264	-0.082754	-0.886963	0.211670	-0.734375	5.029738	33.492205	131.520755
32788		-5.470367	0.741019	8.520726	-0.149587	0.313562	-0.081847	-0.877930	0.207520	-0.732422	4.924571	33.675647	131.480940
32789		-5.518047	0.787578	8.487561	-0.162488	0.335067	-0.075307	-0.875977	0.210205	-0.736084	4.814516	33.871324	131.446221
32790		-5.462637	0.663082	8.532521	-0.173893	0.367553	-0.063727	-0.880127	0.215576	-0.724365	4.703325	34.084605	131.420951
32791		-5.608819	0.832796	8.511742	-0.190283	0.395542	-0.046771	-0.877441	0.212891	-0.732422	4.589502	34.313357	131.408234
32792		-5.584529	0.966646	8.659824	-0.222201	0.425695	-0.050277	-0.873291	0.210693	-0.739014	4.456854	34.559152	131.394262
32793		-4.520285	0.007613	9.028996	-0.159967	0.532432	-0.063942	-0.866943	0.208740	-0.734863	4.357005	34.866790	131.375715
32794		-3.456942	0.861492	9.778480	-0.176834	0.874707	-0.059942	-0.860107	0.217773	-0.734863	4.259205	35.369494	131.377375
32795		-4.868304	0.515307	9.117662	-0.133225	1.179870	-0.056341	-0.849121	0.209717	-0.744385	4.196340	36.046508	131.396417
32796		-4.868201	0.755543	8.902840	-0.131658	1.395214	-0.053826	-0.842529	0.221680	-0.735352	4.142166	36.846399	131.427889
32797		-5.125564	0.906330	8.888517	-0.106730	1.613056	-0.087342	-0.822266	0.218994	-0.749268	4.094245	37.772145	131.445824
32798		-5.206241	0.963793	8.782208	-0.093301	1.828030	-0.125651	-0.808105	0.227539	-0.743408	4.043718	38.822358	131.446417
32799		-5.274327	0.970902	8.726889	-0.096056	2.041029	-0.165846	-0.791260	0.221680	-0.750000	3.978606	39.995760	131.426780
32800		-5.449553	0.327664	8.479515	-0.068058	2.259568	-0.181217	-0.768799	0.223633	-0.759766	3.928121	41.294832	131.405206
32801		-5.470270	0.560014	8.386281	-0.012753	2.483096	-0.188580	-0.752441	0.224121	-0.753174	3.911758	42.721660	131.388079
32802		-5.838752	0.764653	8.168876	0.001771	2.706698	-0.217658	-0.730713	0.218750	-0.765137	3.895516	44.277732	131.359286
32803		-6.029035	0.718811	7.981387	0.018141	2.904945	-0.238627	-0.698242	0.221680	-0.749756	3.882518	45.947507	131.322847
32804		-6.277688	0.558028	7.872896	0.015701	3.098134	-0.263125	-0.673096	0.221436	-0.764404	3.859287	47.729089	131.275153
32805		-6.312100	0.350099	7.534512	0.029637	3.298844	-0.278467	-0.640625	0.223389	-0.759277	3.839478	49.625428	131.222910
32806		-6.429501	0.062007	7.399755	0.066097	3.540362	-0.268142	-0.614502	0.222900	-0.766357	3.856502	51.659997	131.192632
32807		-6.724378	0.141756	7.282812	0.105161	3.807130	-0.263750	-0.582520	0.213623	-0.759277	3.912336	53.846202	131.183998
32808		-6.934596	0.756689	7.318289	0.132844	4.106147	-0.309258	-0.547119	0.218994	-0.749756	3.966451	56.205822	131.154015
32809		-7.168095	0.555914	7.187517	0.116157	4.403868	-0.393779	-0.500244	0.221436	-0.746582	3.952217	58.738098	131.055281
32810		-7.999141	0.544859	7.071114	0.059705	4.681825	-0.461434	-0.471924	0.216309	-0.740479	3.843921	61.432711	130.887953
32811		-7.695603	0.408593	6.744685	-0.014809	4.963601	-0.521619	-0.428223	0.224854	-0.732910	3.612458	64.289350	130.634661
32812		-8.995303	-0.854530	7.018177	-0.077921	5.221034	-0.476686	-0.383789	0.224365	-0.719727	3.364261	67.292204	130.408758
32813		-8.388325	-0.655623	5.405363	0.076964	5.629610	-0.390544	-0.333984	0.227051	-0.702148	3.312734	70.524331	130.303612
32814		-12.294269	1.066774	6.290117	-0.077680	5.794618	-0.436072	-0.287109	0.230225	-0.686035	3.062493	73.853494	130.084932
32815		-11.924226	1.532189	7.049025	-0.476744	5.803693	-0.489183	-0.241211	0.235596	-0.655029	2.301071	77.187095	129.578316
32816		-12.371611	0.459210	6.648610	-0.783349	5.781812	-0.483987	-0.200928	0.238770	-0.637207	0.908570	80.506677	128.614394
32817		-16.550112	-0.057635	7.554017	-1.159697	5.616976	-0.483330	-0.164063	0.247803	-0.616943	-1.987935	83.721166	126.359478
32818		-18.493356	-2.040791	6.562661	-1.104636	4.904506	-0.112287	-0.127197	0.250244	-0.590088	-5.563909	86.521898	123.404154
32819		-14.783621	-2.799777	6.085510	-0.633196	4.700081	0.342592	-0.099121	0.263428	-0.556885	-11.498627	89.214952	117.827350
32820		-15.205167	-1.090097	7.532992	-0.298083	4.396199	0.670095	-0.071777	0.257813	-0.531982	172.613842	88.235701	-57.892831
32821		-11.820325	-1.105266	6.007588	-0.216074	4.068912	0.861806	-0.043701	0.252197	-0.500732	169.929018	85.858872	-60.459335
32822		-9.935226	-0.552223	6.060793	-0.219854	4.061686	0.872888	-0.022461	0.245117	-0.485107	169.096802	83.479659	-61.171056
32823		-7.153091	-0.117315	6.138746	-0.306236	3.993301	0.880479	-0.011719	0.240967	-0.453125	168.556298	81.140970	-61.541977
32824		-4.744059	-0.075773	5.711256	-0.391850	4.128824	0.915187	0.011963	0.243896	-0.429932	168.143960	78.718380	-61.735268
32825		-4.211801	-0.574642	5.078165	-0.430706	4.384056	0.981238	0.033447	0.230713	-0.393066	167.790189	76.148804	-61.847503
32826		-17.344058	-0.729080	8.704543	-0.322252	4.029056	0.808037	0.047607	0.227783	-0.373291	167.751805	73.794868	-61.698731
32827		-16.426811	-0.806392	11.837449	-0.221883	2.009660	0.665543	0.055176	0.217529	-0.359131	167.226106	72.593309	-62.117769
32828		-14.777740	-0.162209	11.540954	-0.236611	0.237094	0.427117	0.055176	0.217529	-0.365967	166.442033	72.405552	-62.800434
32829		-10.938800	-1.080168	10.608327	-0.108004	-1.406224	0.216526	0.043457	0.220703	-0.365967	165.365285	73.163414	-63.865528
32830		-7.187271	-1.187961	8.707177	0.154967	-2.460047	0.106872	0.031006	0.219727	-0.382324	163.974248	74.507033	-65.408830
32831		-4.733934	-0.631768	6.834548	0.380969	-3.140780	0.046207	0.006592	0.226074	-0.415527	162.089249	76.228496	-67.584920
32832		-2.916913	0.665372	5.513867	0.421651	-3.532278	-0.015651	-0.010254	0.217773	-0.436768	159.448109	78.143462	-70.543487
32833		-2.316636	1.981265	4.588040	0.184029	-3.721936	-0.069865	-0.041992	0.215820	-0.459473	155.486166	80.138068	-74.686786
32834		-3.304246	2.187731	4.383606	-0.232711	-3.860698	-0.102978	-0.068359	0.214111	-0.481934	149.107013	82.127717	-81.009631
32835		-4.486695	1.559447	4.471068	-0.541480	-4.049182	-0.090876	-0.077881	0.227051	-0.510010	137.702148	84.038631	-92.185815
32836		-5.546570	0.751864	4.627697	-0.648020	-4.301810	-0.036393	-0.118164	0.236572	-0.535400	115.641339	85.556157	-113.963573
32837		-6.303836	0.232773	4.857540	-0.539714	-4.584203	0.025157	-0.151855	0.244141	-0.565674	79.719079	85.914001	-149.671245
32838		-6.689958	0.053264	4.947872	-0.310220	-4.886595	0.090847	-0.196045	0.249512	-0.589355	48.985314	84.610910	179.672251
32839		-6.889052	0.266863	4.984730	-0.070606	-5.140653	0.155599	-0.227539	0.247559	-0.612061	32.634483	82.294831	163.257432
32840		-7.335808	0.821878	5.113266	0.096048	-5.355802	0.202653	-0.269775	0.246582	-0.635742	24.181107	79.533890	154.641203
32841		-7.862731	1.466826	5.134983	0.114613	-5.542496	0.230838	-0.326904	0.253418	-0.654541	19.254981	76.524248	149.538274
32842		-7.988731	1.743733	5.034589	0.044604	-5.679780	0.249488	-0.371094	0.253906	-0.677734	16.105176	73.379833	146.248795
32843		-8.299837	2.117696	5.024248	-0.085813	-5.706849	0.232883	-0.430664	0.260986	-0.699463	13.865352	70.177629	143.941429
32844		-8.769744	2.242153	5.035410	-0.308636	-5.678150	0.217051	-0.483887	0.258301	-0.702393	12.129388	66.980014	142.264570
32845		-8.907427	1.245699	4.972667	-0.462208	-5.582769	0.211800	-0.531982	0.264160	-0.712158	10.732038	63.811616	141.017467
32846		-9.161649	-0.236356	4.909734	-0.411947	-5.404334	0.208601	-0.591797	0.270264	-0.723877	9.674589	60.743441	140.087035
32847		-9.828411	-0.905630	5.402131	-0.142043	-5.184263	0.164538	-0.639404	0.272217	-0.717773	8.936736	57.787788	139.321524
32848		-11.164215	0.154200	6.167793	0.138057	-5.004668	-0.012309	-0.683594	0.281982	-0.718750	8.356630	54.954435	138.526965
32849		-12.040820	0.860206	6.706726	0.149702	-4.921249	-0.254263	-0.744385	0.286621	-0.727295	7.709664	52.173658	137.614376
32850		-11.899533	0.386238	6.970179	0.114833	-4.831310	-0.503896	-0.799561	0.269775	-0.725342	6.989580	49.465579	136.597518
32851		-11.646752	-0.098016	7.333568	0.188950	-4.670249	-0.758155	-0.855957	0.290771	-0.719727	6.268713	46.848706	135.482552
32852		-11.660755	-0.090618	7.986208	0.326433	-4.477617	-0.988199	-0.909180	0.284180	-0.699707	5.609887	44.355892	134.295372
32853		-12.546743	0.421816	8.887798	0.410244	-4.291091	-1.201724	-0.963867	0.283691	-0.687988	4.987849	41.962462	133.039984
32854		-14.049169	0.292903	9.759515	0.435205	-4.186815	-1.343561	-1.022461	0.277588	-0.659668	4.406143	39.634951	131.764394
32855		-15.442710	-0.430414	10.115776	0.555083	-4.178063	-1.383643	-1.063965	0.270508	-0.644043	3.956978	37.296668	130.528068
32856		-16.231749	-0.704818	10.023174	0.763507	-4.209085	-1.312966	-1.126709	0.264893	-0.618652	3.729796	34.941153	129.396326
32857		-16.062749	-0.430089	9.387712	0.928069	-4.214982	-1.159120	-1.170166	0.261475	-0.583740	3.714174	32.566385	128.407532
32858		-15.702006	0.323402	8.671775	0.924603	-4.137760	-0.973562	-1.214844	0.241699	-0.547363	3.810517	30.237642	127.570812
32859		-15.630586	1.058292	7.947519	0.722811	-4.019833	-0.783960	-1.257080	0.240967	-0.500244	3.889888	27.962686	126.878060
32860		-15.015781	1.286524	7.143481	0.424101	-3.903841	-0.605705	-1.292725	0.241211	-0.470947	3.882292	25.754945	126.317767
32861		-14.444930	0.894584	6.629302	0.113691	-3.698965	-0.385484	-1.316162	0.241699	-0.423340	3.782077	23.648941	125.916679
32862		-14.256239	1.628871	5.806809	-0.207082	-3.462432	-0.178360	-1.348877	0.237793	-0.386963	3.569431	21.676086	125.666134
32863		-13.599141	2.721928	4.538689	-0.673755	-3.248765	-0.064255	-1.370361	0.234619	-0.345215	3.129743	19.814868	125.508086
32864		-12.333659	2.818436	2.977797	-1.180333	-2.963235	-0.016045	-1.376221	0.243896	-0.301270	2.423846	18.119818	125.409239
32865		-11.351095	1.916352	1.692748	-1.498353	-2.558440	-0.000725	-1.393066	0.252930	-0.265381	1.551162	16.650695	125.353236
32866		-11.079674	0.213122	0.842232	-1.421016	-2.126536	0.033191	-1.395996	0.256104	-0.243164	0.737393	15.432404	125.345559
32867		-11.313072	-0.832131	0.348710	-1.009709	-1.733868	0.136351	-1.404053	0.263428	-0.216797	0.179669	14.435163	125.415957
32868		-11.232292	-0.736175	-0.126151	-0.485996	-1.430223	0.343537	-1.393555	0.268799	-0.191162	-0.047808	13.615693	125.615736
32869		-10.485192	0.530274	-0.619729	-0.098941	-1.125327	0.612284	-1.399658	0.268311	-0.175781	-0.019471	12.968934	125.974392
32870		-9.672909	1.833163	-1.019975	-0.062224	-0.717583	0.861734	-1.398682	0.282227	-0.161377	0.058787	12.557827	126.478377
32871		-9.354192	1.871896	-0.933709	-0.210045	-0.255623	1.055416	-1.401123	0.288086	-0.159424	0.074452	12.409419	127.095404
32872		-9.209895	0.903124	-0.418851	-0.283671	0.199666	1.173573	-1.402832	0.305176	-0.153809	0.062714	12.523228	127.782074
32873		-9.571841	-0.057308	0.551143	-0.160748	0.599259	1.180838	-1.405518	0.314453	-0.137207	0.125414	12.865102	128.474070
32874		-3.911003	0.002262	2.751268	0.072588	1.251925	1.173019	-1.402832	0.336914	-0.147705	0.327671	13.579967	129.165248
32875		0.954225	-1.943855	8.128055	0.088915	2.091950	1.103908	-1.400391	0.341309	-0.152100	0.542908	14.773967	129.824879
32876		-2.932988	-1.152247	12.789643	0.265763	2.123351	0.954706	-1.398438	0.354980	-0.164795	0.851708	15.984056	130.405365
32877		-2.347726	-2.310047	8.224496	0.169442	2.072773	0.617620	-1.403809	0.367676	-0.181152	1.061966	17.165678	130.793056
32878		-3.845222	-2.097303	7.414830	0.106694	2.398557	0.149038	-1.398682	0.376221	-0.191650	1.161087	18.538285	130.908592
32879		-5.570571	-2.245648	9.720045	-0.052309	2.483462	-0.398351	-1.390137	0.373535	-0.198730	1.062668	19.965516	130.693878
32880		-5.653834	-3.427551	9.938240	-0.067194	2.382601	-0.850564	-1.399170	0.374268	-0.203125	0.850878	21.338847	130.195316
32881		-4.631651	-1.229525	9.168178	0.133473	2.384304	-0.900288	-1.411377	0.382324	-0.218994	0.727485	22.712253	129.656833
32882		-4.485492	1.793756	8.838238	0.098477	2.479584	-0.873349	-1.406250	0.381592	-0.220215	0.575783	24.138793	129.126903
32883		-5.616872	4.560676	9.969014	0.079312	2.638593	-0.606180	-1.410889	0.375000	-0.235840	0.467485	25.654066	128.756726
32884		-8.073337	3.979490	11.110145	-0.180309	2.526975	-0.351187	-1.407959	0.380127	-0.247559	0.270543	27.103407	128.540241
32885		-10.332399	0.675230	11.316333	-0.352295	2.307951	-0.192878	-1.407227	0.390625	-0.266602	0.013603	28.426537	128.416693
32886		-9.953242	-3.177479	10.391123	-0.253230	2.047720	-0.239947	-1.405029	0.390869	-0.272705	-0.207423	29.599767	128.254858
32887		-16.192775	-6.239402	13.298345	0.405071	1.791455	0.099056	-1.400391	0.400146	-0.275879	0.057933	30.627121	128.316438
32888		-11.669322	-1.333572	9.521662	0.702049	0.617345	0.385377	-1.403809	0.391113	-0.278564	0.594358	30.979793	128.573446
32889		-8.402184	3.913545	9.870970	0.538767	0.539914	0.403367	-1.409424	0.396729	-0.291260	1.045962	31.287288	128.845902
32890		-6.731492	1.207670	9.098030	0.312029	0.287063	0.272745	-1.400879	0.396240	-0.286865	1.323373	31.448750	129.030456
32891		-5.389120	0.014824	8.303310	0.276986	0.246719	0.208918	-1.401855	0.405273	-0.293213	1.558552	31.588708	129.172440
32892		-5.706567	1.097458	8.735278	0.249066	0.233771	0.154907	-1.399414	0.396240	-0.285645	1.759641	31.720293	129.278803
32893		-5.816353	1.323866	8.497231	0.181507	0.167165	0.122644	-1.406494	0.406250	-0.290283	1.909975	31.815461	129.362478
32894		-5.890024	0.553369	8.535471	0.146133	0.105895	0.111062	-1.402588	0.397705	-0.291748	2.035790	31.874189	129.437382
32895		-5.504768	0.665936	8.456818	0.111661	0.038586	0.071363	-1.403564	0.396484	-0.293457	2.126707	31.896536	129.483947
32896		-5.098056	0.800449	8.391685	0.085190	0.032035	0.045510	-1.404297	0.396973	-0.292236	2.193456	31.914183	129.513036
32897		-5.198679	0.624174	8.463157	0.054562	0.034096	0.022931	-1.412109	0.400391	-0.303711	2.234438	31.934938	129.526915
32898		-5.253024	0.404658	8.448105	0.038723	0.041662	0.004981	-1.405762	0.403809	-0.296875	2.260272	31.958969	129.528959
32899		-5.542992	0.656063	8.580398	0.007709	0.021966	-0.004658	-1.407959	0.392334	-0.294922	2.264425	31.973382	129.523933
32900		-5.310158	-0.120505	8.318771	0.016794	0.009724	0.011549	-1.403320	0.396484	-0.292480	2.279596	31.978979	129.529567
32901		-5.122974	-0.216762	8.253781	0.050910	-0.000509	0.038752	-1.402588	0.406982	-0.288330	2.323695	31.979536	129.553237
32902		-5.098732	-0.072362	8.416706	0.073628	0.009171	0.057653	-1.412354	0.396484	-0.294434	2.387907	31.983723	129.589981
32903		-5.587424	0.121472	8.459005	0.114623	-0.007847	0.100022	-1.406250	0.405029	-0.296631	2.490246	31.978524	129.654761
32904		-5.434115	0.453353	8.565640	0.129725	-0.004397	0.120014	-1.407471	0.406006	-0.294922	2.608672	31.973251	129.733191
32905		-5.477129	-0.037438	8.430979	0.142633	-0.031398	0.128195	-1.404297	0.399658	-0.283691	2.736683	31.953607	129.816189
32906		-5.228053	0.101429	8.434005	0.174186	-0.039152	0.146763	-1.396484	0.409180	-0.286377	2.889445	31.927386	129.911447
32907		-5.263582	0.225867	8.525429	0.194769	-0.029093	0.172406	-1.406982	0.403564	-0.296875	3.062942	31.907374	130.024136
32908		-5.348660	0.422482	8.583553	0.206385	-0.033110	0.187183	-1.413086	0.408691	-0.291992	3.248474	31.882852	130.146621
32909		-5.463631	0.715572	8.619233	0.183795	-0.039537	0.175693	-1.414551	0.403564	-0.297363	3.416434	31.856156	130.260894
32910		-5.339045	1.062154	8.650925	0.144665	-0.038425	0.129943	-1.416992	0.403809	-0.298340	3.545939	31.829995	130.344390
32911		-5.387902	1.392983	8.724233	0.080647	-0.007012	0.062488	-1.419678	0.403809	-0.289307	3.615216	31.825524	130.383669
32912		-5.241591	1.230857	8.670226	0.035195	0.035538	0.020004	-1.411133	0.403076	-0.294678	3.644578	31.845460	130.396242
32913		-5.410596	1.385080	8.676335	-0.026499	0.080811	-0.024506	-1.405273	0.415039	-0.291748	3.623642	31.894318	130.380758
32914		-5.333312	0.988817	8.556046	-0.080137	0.114221	-0.069324	-1.413818	0.409424	-0.296631	3.556868	31.962460	130.336467
32915		-5.160758	0.489465	8.514582	-0.096379	0.133661	-0.082752	-1.405029	0.400391	-0.291992	3.476208	32.043553	130.283793
32916		-5.232775	0.527025	8.485592	-0.093593	0.145849	-0.084386	-1.412354	0.409912	-0.293213	3.396745	32.130201	130.230323
32917		-5.328338	0.450713	8.395198	-0.084820	0.148391	-0.084520	-1.409668	0.397705	-0.294434	3.322055	32.219638	130.176679
32918		-5.363537	0.543310	8.387284	-0.082689	0.141026	-0.078335	-1.416016	0.403564	-0.293213	3.250588	32.303209	130.126745
32919		-5.394344	0.670924	8.448074	-0.095385	0.139568	-0.090245	-1.411621	0.409180	-0.288818	3.167254	32.387661	130.068514
32920		-5.365739	0.682554	8.416513	-0.121830	0.139405	-0.107475	-1.403564	0.400879	-0.293945	3.062406	32.471085	129.998380
32921		-5.307830	0.428993	8.493490	-0.138379	0.146461	-0.120218	-1.410156	0.404541	-0.288818	2.943264	32.560198	129.919602
32922		-5.462126	0.344684	8.397701	-0.141112	0.147033	-0.119669	-1.408203	0.409912	-0.295654	2.822575	32.648098	129.840909
32923		-5.462506	0.358605	8.347211	-0.128178	0.146371	-0.106601	-1.413330	0.396484	-0.289551	2.713748	32.736502	129.770800
32924		-5.470574	0.137364	8.245628	-0.113988	0.134473	-0.089285	-1.406738	0.402588	-0.299561	2.619087	32.816152	129.711845
32925		-5.496849	0.109987	8.195448	-0.081300	0.111231	-0.065922	-1.409180	0.401123	-0.291016	2.551139	32.883208	129.667906
32926		-5.590628	0.242869	8.199915	-0.056874	0.088352	-0.039014	-1.405273	0.408203	-0.303711	2.506782	32.935068	129.641522
32927		-5.604117	0.481553	8.305132	-0.051820	0.064497	-0.033784	-1.410400	0.399902	-0.303955	2.466704	32.974524	129.617923
32928		-5.539800	0.548097	8.278807	-0.059575	0.055081	-0.040140	-1.412842	0.404297	-0.307861	2.419759	33.007333	129.589685
32929		-5.501729	0.360822	8.322818	-0.061938	0.043753	-0.040115	-1.407959	0.402588	-0.298340	2.371151	33.035043	129.561091
32930		-5.411541	0.094102	8.266907	-0.051341	0.033687	-0.032063	-1.403564	0.397461	-0.298340	2.331538	33.055377	129.537688
32931		-5.391091	-0.087926	8.181406	-0.019419	0.031895	0.001917	-1.402588	0.406982	-0.297852	2.322717	33.075290	129.537419
32932		-5.448035	0.238785	8.224813	0.010844	0.014112	0.028346	-1.414063	0.403076	-0.306641	2.340942	33.083003	129.554727
32933		-5.487648	0.404544	8.264369	0.009843	0.003072	0.029290	-1.406982	0.405762	-0.301270	2.358630	33.085774	129.572346
32934		-5.440610	0.325621	8.329281	0.011596	0.007360	0.025989	-1.415771	0.401611	-0.302246	2.376309	33.089668	129.587860
32935		-5.363194	0.305640	8.362825	0.015624	0.008295	0.028709	-1.406006	0.412354	-0.297607	2.397182	33.095430	129.605235
32936		-5.322859	0.283958	8.355573	0.025544	0.019674	0.033066	-1.405518	0.404541	-0.292969	2.425693	33.106193	129.625946
32937		-5.361923	0.337139	8.295877	0.024081	0.037394	0.037484	-1.408936	0.398682	-0.305908	2.455157	33.128369	129.650173
32938		-5.297403	0.018899	8.325173	0.038754	0.049379	0.061057	-1.402588	0.404297	-0.290283	2.502205	33.155422	129.690923
32939		-5.358447	0.289249	8.416208	0.057201	0.061339	0.074630	-1.416016	0.406250	-0.298584	2.564974	33.190316	129.741323
32940		-5.358985	0.219137	8.383216	0.062693	0.075208	0.077394	-1.400635	0.405762	-0.304199	2.632394	33.231657	129.794151
32941		-5.450228	0.267812	8.423842	0.077788	0.075302	0.086159	-1.397217	0.407715	-0.303467	2.711655	33.274115	129.853023
32942		-5.492613	0.506192	8.408520	0.075656	0.084975	0.084770	-1.399902	0.405273	-0.304199	2.789619	33.320725	129.911406
32943		-5.525593	0.585189	8.334426	0.065434	0.091733	0.075453	-1.404785	0.407227	-0.300537	2.858266	33.372746	129.963694
32944		-5.545704	0.614169	8.353861	0.052492	0.093661	0.064609	-1.408447	0.400635	-0.301514	2.915713	33.424792	130.008760
32945		-5.596687	0.789089	8.333076	0.035503	0.096750	0.045800	-1.405518	0.409912	-0.313721	2.956304	33.480465	130.041083
32946		-5.586469	0.871007	8.320784	0.007799	0.105741	0.008948	-1.406982	0.407471	-0.313477	2.967443	33.541022	130.048519
32947		-5.498463	0.679826	8.399889	-0.022704	0.122733	-0.016189	-1.397461	0.404053	-0.306885	2.951797	33.613383	130.039290
32948		-5.419484	0.506588	8.337802	-0.031538	0.136119	-0.030166	-1.400879	0.407959	-0.305176	2.926098	33.692474	130.020895
32949		-5.342440	0.281240	8.292461	-0.029359	0.168834	-0.027853	-1.400146	0.398682	-0.315430	2.903027	33.791533	130.005179
32950		-5.366221	0.117548	8.314222	0.006648	0.199683	0.011801	-1.396973	0.406738	-0.306152	2.916450	33.905768	130.017833
32951		-5.551116	0.364544	8.304346	0.033484	0.223969	0.031221	-1.397461	0.411621	-0.307373	2.953172	34.034623	130.044812
32952		-5.672695	0.432567	8.305948	0.036387	0.217134	0.032067	-1.400879	0.411133	-0.308350	2.991985	34.158230	130.072284
32953		-5.754385	0.565865	8.298538	0.022014	0.207247	0.023524	-1.397461	0.408691	-0.315674	3.019044	34.277715	130.093596
32954		-5.696434	0.458612	8.271764	0.012564	0.200954	0.017312	-1.388428	0.413086	-0.313965	3.038329	34.392488	130.110476
32955		-5.634378	0.295659	8.317606	0.019633	0.201329	0.035802	-1.396729	0.411133	-0.321777	3.068903	34.508197	130.140274
32956		-5.694215	0.416106	8.308030	0.015144	0.196514	0.047378	-1.401855	0.413086	-0.319092	3.101582	34.619489	130.178060
32957		-5.772852	0.583928	8.369664	-0.010472	0.195093	0.053841	-1.399902	0.408447	-0.315918	3.122126	34.731033	130.220388
32958		-5.652028	0.666191	8.365476	-0.048246	0.212232	0.054346	-1.395020	0.416504	-0.329590	3.121828	34.851080	130.263816
32959		-5.418309	1.023676	8.605717	-0.119695	0.253761	0.072909	-1.392578	0.411621	-0.324463	3.088919	34.995587	130.321794
32960		-4.708386	0.215277	8.968249	-0.329564	0.397186	0.148747	-1.392578	0.418701	-0.325928	2.969500	35.218656	130.438021
32961		-4.249672	-1.017073	8.896101	0.054495	0.645507	0.138859	-1.386963	0.411377	-0.328613	3.072088	35.585284	130.556895
32962		-5.224828	0.054881	8.795543	0.048369	0.840930	0.179132	-1.382324	0.413574	-0.329346	3.193871	36.061096	130.713235
32963		-5.297058	0.827737	8.733619	0.105334	0.985575	0.164922	-1.385742	0.410889	-0.344971	3.348213	36.620837	130.867748
32964		-5.443797	0.569314	8.677404	0.091437	1.131190	0.130692	-1.372803	0.421875	-0.354492	3.486891	37.263680	131.007049
32965		-5.436818	0.762323	8.601016	0.125897	1.263955	0.107909	-1.368164	0.413086	-0.354980	3.642132	37.983901	131.139169
32966		-5.594104	0.665897	8.495967	0.128752	1.412936	0.084382	-1.364258	0.418701	-0.362305	3.796671	38.788958	131.265106
32967		-5.522940	0.668098	8.498387	0.171182	1.563264	0.058038	-1.347168	0.413574	-0.369629	3.972169	39.681517	131.383592
32968		-5.660588	0.647469	8.260071	0.195648	1.716853	0.042154	-1.342041	0.417725	-0.377197	4.164365	40.661367	131.503776
32969		-5.827521	0.727790	8.192147	0.234209	1.880232	0.039172	-1.330078	0.413574	-0.392822	4.389149	41.735073	131.637532
32970		-5.957917	0.657854	8.047616	0.273561	2.039045	0.030368	-1.322998	0.421143	-0.412598	4.646179	42.898733	131.782676
32971		-5.991883	0.675275	8.026560	0.301435	2.213768	0.022962	-1.311768	0.417725	-0.412109	4.932487	44.162597	131.943969
32972		-6.010509	0.779516	7.884492	0.327536	2.401230	-0.003915	-1.303223	0.422363	-0.421631	5.239806	45.533577	132.109975
32973		-5.962576	1.073172	7.865742	0.325249	2.615123	-0.033541	-1.283447	0.412598	-0.448730	5.553885	47.027982	132.283203
32974		-6.155228	1.382475	7.827730	0.288572	2.866825	-0.085912	-1.268555	0.414795	-0.458008	5.845668	48.667736	132.450266
32975		-6.326383	1.091476	7.685488	0.244477	3.134639	-0.148830	-1.252197	0.408936	-0.480713	6.105826	50.463601	132.604651
32976		-6.243026	0.331898	7.625141	0.276540	3.421869	-0.179215	-1.232178	0.404541	-0.493652	6.404268	52.424140	132.780349
32977		-6.472055	0.210440	7.365322	0.333885	3.734478	-0.177124	-1.206787	0.407715	-0.515625	6.791359	54.561882	133.020695
32978		-6.757936	0.585774	6.873543	0.347813	4.059329	-0.185042	-1.185303	0.415771	-0.531494	7.253101	56.883690	133.335116
32979		-7.343082	1.255482	6.497660	0.319194	4.376535	-0.258870	-1.163818	0.401611	-0.547607	7.724455	59.389590	133.671675
32980		-7.809970	1.333070	6.207584	0.253371	4.631448	-0.379215	-1.134766	0.395508	-0.565674	8.137888	62.048314	133.976180
32981		-8.284993	1.747910	6.053305	0.152598	4.886714	-0.505093	-1.105713	0.391357	-0.578369	8.459568	64.860884	134.235072
32982		-8.591834	1.699787	5.899429	0.006664	5.067257	-0.635519	-1.074219	0.396973	-0.596436	8.623640	67.786607	134.407196
32983		-7.822996	0.725099	5.132385	-0.008084	5.351432	-0.726060	-1.039551	0.395264	-0.620850	8.754231	70.880447	134.548886
32984		-9.674592	0.779152	4.800956	0.017808	5.660442	-0.800763	-1.001221	0.395752	-0.632324	8.901492	74.156161	134.689831
32985		-11.788893	0.398966	5.565573	0.072736	5.817275	-0.795019	-0.947021	0.393066	-0.649414	9.237627	77.519213	134.990694
32986		-11.507386	0.290158	5.462756	-0.078915	5.822610	-0.723398	-0.913330	0.388672	-0.663330	9.958171	80.878361	135.767332
32987		-12.696953	-0.453061	4.946994	-0.180191	5.910886	-0.628410	-0.883789	0.396240	-0.650635	12.103255	84.271661	138.031086
32988		-16.901608	-0.838554	5.951998	-0.299062	5.780480	-0.415641	-0.832764	0.392334	-0.655762	22.472525	87.519356	148.591914
32989		-16.251793	-1.158417	5.118447	-0.304453	5.238289	-0.134242	-0.787354	0.388428	-0.656738	129.123723	88.882849	-104.561844
32990		-14.783256	-1.452459	4.639412	-0.203265	5.099079	0.128107	-0.747803	0.394531	-0.646484	165.419221	86.254717	-68.130737
32991		-13.986522	-0.170798	5.051586	-0.224067	4.865733	0.339614	-0.719727	0.382324	-0.642090	169.850118	83.489774	-63.557069
32992		-14.969813	0.640002	5.296507	-0.436693	4.532895	0.310032	-0.678467	0.375732	-0.620850	171.421883	80.898121	-61.721074
32993		-12.438322	1.234579	4.942252	-0.778653	4.376860	0.248756	-0.650146	0.384033	-0.604980	172.174827	78.398213	-60.505016
32994		-11.677337	2.275452	5.927191	-1.274772	4.103695	0.059623	-0.614014	0.369873	-0.586670	172.674507	76.062926	-59.246540
32995		-9.794444	3.098282	6.465014	-1.884844	3.892126	-0.174311	-0.581055	0.380127	-0.570068	173.007185	73.865997	-57.786659
32996		-8.678124	2.276798	6.578577	-2.598284	3.776111	-0.331398	-0.554199	0.390381	-0.546143	172.988924	71.741643	-56.250176
32997		-7.425791	0.711669	7.062088	-2.699014	3.518005	-0.115457	-0.539063	0.395996	-0.522217	172.372542	69.755120	-55.267720
32998		-20.582231	-1.807492	10.357156	-2.429840	2.524810	-0.136405	-0.529297	0.406250	-0.497314	171.713273	68.333336	-54.485611
32999		-20.397131	-4.166795	15.540453	-1.793027	-0.407323	0.000808	-0.535645	0.403564	-0.480957	170.600482	68.569588	-54.580261
33000		-13.354471	-6.145702	11.623823	-0.578391	-2.441943	0.032914	-0.553955	0.385498	-0.471924	169.592629	69.944798	-55.306280
33001		-9.517479	-4.711410	9.430538	0.801779	-3.930966	0.150931	-0.586670	0.367676	-0.462402	168.569797	72.147915	-56.876062
33002		-5.642636	-2.539900	6.939363	1.749202	-4.674098	0.285317	-0.630859	0.337891	-0.441650	167.149506	74.732510	-59.405589
33003		-3.330630	-0.197063	4.873970	2.257243	-5.015334	0.394857	-0.683594	0.311768	-0.421143	164.740912	77.475508	-63.220887
33004		-1.891440	3.216279	3.790396	2.107982	-5.074095	0.466526	-0.714600	0.279541	-0.400635	160.241270	80.171442	-69.039735
33005		-2.514004	6.748887	3.999539	1.088662	-4.971262	0.400474	-0.745361	0.261719	-0.368652	151.766250	82.697616	-78.241039
33006		-3.760718	6.175489	3.933071	-0.185075	-4.948471	0.208331	-0.775391	0.249268	-0.322266	135.163242	84.928987	-94.832762
33007		-4.787074	3.480329	3.867979	-1.054127	-5.009590	0.125188	-0.783936	0.240479	-0.275146	100.542681	86.271702	-128.944023
33008		-5.708635	0.567425	4.274636	-1.288669	-5.152227	0.200597	-0.794922	0.222656	-0.232178	58.457357	85.577995	-170.388615
33009		-6.664704	-2.069327	4.542263	-0.873017	-5.343340	0.388165	-0.777588	0.219971	-0.191162	36.182197	83.292597	167.737917
33010		-7.480809	-2.384835	4.815434	-0.125479	-5.568921	0.606910	-0.764404	0.196045	-0.161377	26.576631	80.378496	158.107613
33011		-8.310861	-0.505171	5.103220	0.387300	-5.807242	0.752616	-0.738525	0.182373	-0.145020	21.871893	77.155891	153.084707
33012		-8.314403	1.531284	4.905915	0.410845	-6.000040	0.795293	-0.724609	0.169922	-0.132324	19.106433	73.775810	149.983316
33013		-7.970796	2.269252	4.486869	0.072877	-6.087342	0.746132	-0.706055	0.161621	-0.134033	17.047002	70.317658	147.773671
33014		-7.433249	1.892346	3.917972	-0.337034	-5.990695	0.653469	-0.689697	0.152344	-0.134277	15.325591	66.917375	146.130439
33015		-7.418755	0.694702	3.645011	-0.606906	-5.751899	0.552081	-0.683594	0.143311	-0.153076	13.832240	63.638386	144.867952
33016		-7.932667	-0.542220	4.097970	-0.628078	-5.417942	0.464842	-0.672363	0.150146	-0.175537	12.619339	60.556114	143.900247
33017		-9.164667	-0.983936	4.893830	-0.439003	-5.115311	0.341569	-0.673584	0.145752	-0.189453	11.652190	57.639698	143.064727
33018		-10.264024	-1.000880	5.682355	-0.226518	-4.923536	0.190170	-0.678711	0.125732	-0.202881	10.857858	54.852253	142.262634
33019		-10.921580	-1.002559	6.437470	-0.044155	-4.766181	0.007081	-0.694092	0.122070	-0.225098	10.160370	52.156599	141.424977
33020		-11.843012	-0.583656	7.196992	0.077226	-4.638175	-0.239302	-0.696777	0.124756	-0.234619	9.481639	49.561933	140.489751
33021		-12.514540	0.087453	8.117360	0.098945	-4.546060	-0.533965	-0.715576	0.121582	-0.246582	8.733384	47.028659	139.410123
33022		-13.800591	1.182378	9.239662	-0.010523	-4.483453	-0.902169	-0.731201	0.117188	-0.260254	7.821532	44.561384	138.143248
33023		-15.789468	1.603598	10.395046	-0.221447	-4.510959	-1.315009	-0.746094	0.120361	-0.269775	6.679932	42.082799	136.662680
33024		-17.635878	0.495238	10.864326	-0.275548	-4.671871	-1.681221	-0.772949	0.121338	-0.272705	5.451521	39.523001	135.021020
33025		-18.973689	-0.840891	10.489634	0.007376	-4.874511	-1.937481	-0.781982	0.118652	-0.282959	4.396664	36.826305	133.305336
33026		-19.367018	-1.072061	9.328135	0.479342	-5.016365	-2.076302	-0.802490	0.113281	-0.284912	3.683723	34.043213	131.597992
33027		-18.973218	-0.720531	7.699163	0.898799	-5.027052	-2.104163	-0.834473	0.109863	-0.286865	3.315287	31.233448	129.957010
33028		-18.157665	-0.365232	5.982778	1.146892	-4.880517	-2.012375	-0.855469	0.096191	-0.281982	3.221072	28.507559	128.443465
33029		-17.217882	-0.255715	4.661476	1.213677	-4.567543	-1.761138	-0.879395	0.083740	-0.278320	3.321960	25.945383	127.139790
33030		-15.944651	-0.043870	3.909437	1.113125	-4.170577	-1.293845	-0.886963	0.075195	-0.269043	3.553726	23.604853	126.164791
33031		-14.660115	1.951678	3.223604	0.698716	-3.710544	-0.759292	-0.909424	0.076172	-0.254150	3.718817	21.505252	125.546085
33032		-14.038208	5.095841	2.442997	-0.194854	-3.239353	-0.404034	-0.919922	0.069336	-0.260254	3.478413	19.667758	125.172675
33033		-13.707399	6.714846	1.298250	-1.397264	-2.809636	-0.279408	-0.932617	0.074463	-0.253662	2.595698	18.064574	124.911267
33034		-13.220075	5.190377	0.063424	-2.370681	-2.420420	-0.265574	-0.945557	0.083496	-0.246826	1.177383	16.683842	124.701936
33035		-12.615300	-0.138805	-0.722393	-2.496465	-2.054714	-0.185041	-0.947510	0.084961	-0.248291	-0.283773	15.504643	124.579935
33036		-11.418526	-5.374805	-1.701738	-1.298516	-1.666722	0.110246	-0.960449	0.097900	-0.244385	-1.005932	14.550643	124.654321
33037		-10.605006	-3.194889	-1.787439	0.217567	-1.230988	0.469834	-0.960693	0.098877	-0.237305	-0.808099	13.848139	124.941340
33038		-10.240791	1.492060	-1.132340	0.677704	-0.798459	0.655001	-0.965332	0.100586	-0.235352	-0.325702	13.394576	125.330000
33039		-9.663365	3.116415	-0.523602	0.229228	-0.370969	0.681918	-0.965088	0.110107	-0.241699	-0.099734	13.183125	125.730146
33040		-9.165151	1.368476	0.235409	-0.330869	0.044684	0.655027	-0.964844	0.097900	-0.240723	-0.199240	13.209907	126.113438
33041		-9.681658	-1.145241	1.598666	-0.415884	0.405941	0.590481	-0.963135	0.111084	-0.235596	-0.355226	13.444802	126.457919
33042		-10.144296	-2.497558	2.992366	-0.011192	0.587847	0.455075	-0.963135	0.118408	-0.246094	-0.296891	13.783288	126.722094
33043		2.490174	1.853263	13.188224	-0.236739	1.372622	0.423091	-0.953613	0.123535	-0.249023	-0.370262	14.572831	126.965340
33044		0.433087	-4.394656	13.013898	-0.259671	1.177765	0.297457	-0.945313	0.121826	-0.250000	-0.472969	15.249068	127.134428
33045		1.063400	-3.075315	8.413735	0.249793	1.480108	0.505155	-0.937988	0.123047	-0.247803	-0.248123	16.100066	127.427377
33046		-1.279741	-1.578166	5.594446	0.489623	1.964903	0.676786	-0.931396	0.127441	-0.260010	0.150150	17.226413	127.828978
33047		-3.722630	-0.402724	8.613506	0.570567	2.290058	0.618429	-0.937012	0.130371	-0.264893	0.595811	18.537158	128.208047
33048		-5.793963	0.257396	10.557490	0.326722	2.203685	0.201593	-0.918945	0.127197	-0.269775	0.830477	19.798474	128.344774
33049		-5.262176	-0.908080	9.239007	0.110222	2.047160	-0.246640	-0.911133	0.129639	-0.267334	0.849043	20.974506	128.210124
33050		-3.831619	-1.066719	8.720128	0.193144	2.082826	-0.427023	-0.899170	0.120117	-0.269775	0.871817	22.171656	127.964117
33051		-4.867575	2.141229	9.404154	0.060169	2.197082	-0.568656	-0.901367	0.125000	-0.278320	0.778217	23.436319	127.628032
33052		-5.432553	2.556223	9.409659	-0.076409	2.184447	-0.610261	-0.882813	0.124512	-0.282959	0.586596	24.692226	127.259199
33053		-6.816621	4.140884	10.315813	-0.185503	2.135077	-0.378459	-0.876221	0.129395	-0.294922	0.384114	25.918687	127.028510
33054		-7.832285	1.502767	10.770533	-0.390333	1.958270	-0.321841	-0.875000	0.136475	-0.295166	0.072365	27.041634	126.825190
33055		-9.219301	-1.491985	10.975621	-0.432320	1.776071	-0.327132	-0.863281	0.133545	-0.294189	-0.272381	28.060480	126.609574
33056		-9.071176	-2.844925	10.383096	-0.294629	1.586911	-0.391797	-0.850098	0.128662	-0.297607	-0.565319	28.968240	126.344197
33057		-8.999574	-1.235508	10.169197	-0.123459	1.381902	-0.358020	-0.850586	0.134033	-0.311279	-0.755306	29.759483	126.096005
33058		-12.326804	-2.064100	11.790469	0.185316	1.082176	-0.036209	-0.850342	0.136963	-0.305664	-0.664215	30.379401	126.060773
33059		-9.577950	-1.701838	9.294745	0.358752	0.339951	0.205752	-0.832031	0.139404	-0.307373	-0.389308	30.577579	126.192994
33060		-5.833504	1.170629	8.991333	0.320541	0.342964	0.197344	-0.844971	0.131348	-0.300049	-0.137775	30.774798	126.321008
33061		-5.801287	0.554880	8.788015	0.244960	0.258927	0.198662	-0.847168	0.131104	-0.312012	0.071515	30.925786	126.450999
33062		-5.444933	-0.739488	8.371847	0.240854	0.204315	0.212500	-0.838867	0.137695	-0.300781	0.284170	31.042684	126.591034
33063		-5.118302	-0.112045	8.435186	0.269828	0.192301	0.214893	-0.850586	0.135254	-0.306885	0.514489	31.154630	126.733220
33064		-5.342545	0.289067	8.487958	0.269496	0.181348	0.235927	-0.840576	0.131104	-0.303467	0.752791	31.257263	126.890188
33065		-5.273967	-0.172250	8.290149	0.274043	0.170801	0.215212	-0.848633	0.127686	-0.307617	0.986689	31.355889	127.033737
33066		-5.706213	1.059597	8.650315	0.254101	0.174073	0.142199	-0.839355	0.134277	-0.302734	1.184473	31.454310	127.128979
33067		-6.194637	2.194441	8.951900	0.148251	0.091933	0.073803	-0.842529	0.135010	-0.308350	1.297040	31.508743	127.177418
33068		-5.665999	1.413259	8.721572	0.034258	0.021293	0.006002	-0.835938	0.124023	-0.306152	1.320251	31.521116	127.179363
33069		-5.392466	0.629653	8.619163	-0.006773	0.016991	-0.028978	-0.835205	0.126221	-0.302979	1.307584	31.533961	127.157789
33070		-5.304827	-0.087492	8.370680	-0.007933	0.022846	-0.025099	-0.831543	0.129395	-0.304688	1.295698	31.547628	127.138853
33071		-5.322084	-0.028935	8.410063	0.016005	0.005974	-0.008754	-0.837158	0.124756	-0.303711	1.303105	31.553900	127.130700
33072		-5.351904	0.326940	8.542930	0.002025	-0.015687	-0.003548	-0.832275	0.132568	-0.302734	1.304193	31.545215	127.125660
33073		-5.112385	-0.308759	8.404266	0.018518	-0.006634	0.023769	-0.830078	0.129150	-0.305664	1.324369	31.543844	127.139172
33074		-5.267893	-0.227994	8.408965	0.057124	0.013525	0.051993	-0.831055	0.129150	-0.296875	1.376797	31.551145	127.171917
33075		-5.278284	0.051348	8.453713	0.094899	0.006122	0.096330	-0.839355	0.129150	-0.301270	1.466307	31.556023	127.234377
33076		-5.482986	0.370479	8.560713	0.099960	-0.009958	0.116580	-0.838867	0.135254	-0.300293	1.565791	31.548814	127.310142
33077		-5.021124	0.275569	8.313534	0.130800	-0.000001	0.164325	-0.837402	0.131836	-0.304199	1.699727	31.548887	127.418191
33078		-5.036307	0.167055	8.336746	0.177473	0.046340	0.207890	-0.834961	0.125000	-0.301514	1.876352	31.571980	127.556471
33079		-5.152261	0.523067	8.561147	0.198172	0.065744	0.221363	-0.839844	0.131592	-0.307861	2.069863	31.608010	127.704419
33080		-5.291649	0.604053	8.589280	0.189011	0.069728	0.215661	-0.839600	0.126465	-0.301758	2.256427	31.643554	127.848790
33081		-5.270487	0.337384	8.570530	0.180412	0.076406	0.199293	-0.838379	0.123779	-0.302490	2.432532	31.685374	127.982583
33082		-5.324500	0.390932	8.519311	0.172600	0.064869	0.183889	-0.846191	0.120361	-0.303467	2.598743	31.718179	128.105806
33083		-5.449593	0.523570	8.604843	0.151423	0.055214	0.161855	-0.833008	0.136475	-0.299805	2.744977	31.748211	128.214108
33084		-5.459605	0.863729	8.624458	0.112000	0.040459	0.119533	-0.833984	0.129883	-0.302979	2.853489	31.768329	128.293478
33085		-5.502260	0.975997	8.710829	0.047531	0.036869	0.057819	-0.838379	0.124268	-0.300049	2.903200	31.790527	128.331320
33086		-5.395668	0.774187	8.548497	-0.005394	0.032468	0.012330	-0.840820	0.129883	-0.306396	2.906362	31.809060	128.338319
33087		-5.237115	0.447771	8.437845	-0.025457	0.040884	-0.013567	-0.842285	0.126953	-0.298340	2.889077	31.835612	128.328279
33088		-5.228850	0.108170	8.333889	-0.005842	0.046040	-0.006531	-0.833984	0.128418	-0.308594	2.885524	31.862458	128.323029
33089		-5.191048	0.147717	8.273553	0.029214	0.050380	0.016878	-0.825684	0.132568	-0.305908	2.910536	31.893555	128.333812
33090		-5.044540	-0.012359	8.218520	0.068705	0.056745	0.055689	-0.827393	0.128418	-0.302246	2.972069	31.924701	128.370900
33091		-5.046638	0.086200	8.265068	0.113557	0.064239	0.083831	-0.834717	0.126709	-0.301025	3.069557	31.961677	128.427376
33092		-5.307724	0.507812	8.374868	0.128094	0.076501	0.096911	-0.835938	0.132568	-0.304688	3.180348	32.002737	128.493142
33093		-5.346129	0.618848	8.347410	0.121660	0.071574	0.091223	-0.836426	0.119873	-0.297119	3.285429	32.043482	128.555078
33094		-5.369830	0.670497	8.446756	0.109807	0.068435	0.079215	-0.827881	0.117188	-0.309326	3.379435	32.080315	128.608815
33095		-5.314108	0.569484	8.350840	0.099236	0.064554	0.065627	-0.832764	0.120850	-0.302246	3.462538	32.117747	128.653400
33096		-5.167113	0.617593	8.440896	0.090887	0.066754	0.049718	-0.823242	0.131104	-0.304199	3.535219	32.154518	128.687317
33097		-5.384302	0.780024	8.515606	0.074201	0.071372	0.032131	-0.828125	0.128906	-0.306641	3.592222	32.196934	128.709707
33098		-5.391599	0.596301	8.499959	0.049250	0.072173	0.018437	-0.841553	0.125000	-0.303467	3.630000	32.237876	128.722827
33099		-5.269948	0.435252	8.481661	0.049121	0.074258	0.013145	-0.836426	0.121094	-0.306396	3.665947	32.282599	128.732605
33100		-5.409861	0.558047	8.455988	0.044831	0.081888	0.013781	-0.831787	0.131348	-0.308838	3.699793	32.329253	128.743073
33101		-5.424822	0.554018	8.429816	0.030869	0.081213	0.017723	-0.827637	0.137207	-0.302490	3.727146	32.377761	128.756318
33102		-5.363406	0.389636	8.407437	0.037336	0.081103	0.031359	-0.836914	0.131592	-0.300293	3.763109	32.423299	128.778725
33103		-5.416102	0.613175	8.366036	0.038277	0.077546	0.036481	-0.824219	0.120850	-0.305664	3.801488	32.468984	128.804588
33104		-5.461884	0.782403	8.397405	0.035666	0.085258	0.034046	-0.829102	0.127686	-0.302979	3.837655	32.516770	128.829097
33105		-5.401590	0.796856	8.418162	0.023200	0.096073	0.021251	-0.835449	0.127197	-0.304688	3.862402	32.573606	128.845579
33106		-5.495578	0.888712	8.438350	0.003596	0.107542	0.002663	-0.823486	0.121582	-0.310059	3.869350	32.635327	128.849889
33107		-5.338028	0.685459	8.445989	-0.011613	0.116639	-0.014415	-0.832031	0.123779	-0.304688	3.861679	32.705287	128.843154
33108		-5.324297	0.528421	8.460707	-0.019397	0.136649	-0.018936	-0.837891	0.125244	-0.308105	3.848238	32.784480	128.834111
33109		-5.460648	0.688864	8.300439	-0.018604	0.138301	-0.021910	-0.835693	0.129883	-0.307617	3.834297	32.867087	128.823221
33110		-5.552821	0.746896	8.272497	-0.024226	0.129647	-0.032638	-0.826904	0.134766	-0.309082	3.812790	32.942796	128.804462
33111		-5.571020	0.810539	8.325646	-0.040535	0.118313	-0.050515	-0.822021	0.125732	-0.311523	3.775123	33.015057	128.773088
33112		-5.494817	0.738918	8.394516	-0.054468	0.119417	-0.066134	-0.818359	0.121582	-0.312012	3.723458	33.086152	128.730874
33113		-5.523848	0.677061	8.277260	-0.065705	0.118074	-0.077180	-0.832520	0.129639	-0.301758	3.661271	33.159212	128.681101
33114		-5.519825	0.544215	8.284484	-0.069737	0.114007	-0.077129	-0.828369	0.125000	-0.299561	3.596392	33.227538	128.630894
33115		-5.577248	0.613405	8.211370	-0.073767	0.109938	-0.077081	-0.816650	0.122803	-0.310547	3.529190	33.295847	128.580574
33116		-5.542139	0.297463	8.193449	-0.069069	0.110818	-0.057894	-0.825928	0.128906	-0.307861	3.471612	33.361582	128.543138
33117		-5.506659	0.061245	8.257213	-0.035127	0.098038	-0.017249	-0.826660	0.128174	-0.302490	3.448607	33.420947	128.533088
33118		-5.584914	0.380915	8.213266	-0.012556	0.079610	0.002483	-0.817871	0.126465	-0.305664	3.445374	33.466724	128.535622
33119		-5.543911	0.542182	8.269239	-0.012989	0.078822	0.003927	-0.826416	0.131104	-0.310059	3.442555	33.514370	128.539249
33120		-5.470294	0.505243	8.386378	-0.016419	0.093359	0.003719	-0.818359	0.129150	-0.307129	3.437893	33.567968	128.543195
33121		-5.394788	0.352407	8.406975	-0.013381	0.121399	0.018735	-0.823486	0.128174	-0.313721	3.441459	33.639443	128.558749
33122		-5.412265	0.192182	8.434068	0.005307	0.151635	0.053794	-0.826904	0.125732	-0.300049	3.469695	33.724641	128.599554
33123		-5.487923	0.423693	8.444987	0.011280	0.179113	0.064134	-0.820801	0.119385	-0.308105	3.506164	33.827496	128.648847
33124		-5.552335	0.686167	8.411225	-0.000950	0.196475	0.065926	-0.823975	0.120117	-0.317383	3.536771	33.937871	128.700124
33125		-5.581566	0.847747	8.454700	-0.026539	0.219986	0.050182	-0.816895	0.125732	-0.314453	3.547473	34.064530	128.741788
33126		-5.605513	0.747701	8.424874	-0.049450	0.255794	0.032697	-0.808350	0.132568	-0.315674	3.539136	34.209988	128.772849
33127		-5.562298	0.513906	8.444575	-0.062899	0.294088	0.041955	-0.819092	0.132324	-0.314941	3.527871	34.379295	128.812131
33128		-5.621980	0.544353	8.454771	-0.068049	0.314221	0.067063	-0.817139	0.127930	-0.312744	3.523969	34.556962	128.869597
33129		-5.532492	1.129341	8.619648	-0.125971	0.346575	0.084216	-0.808594	0.121338	-0.313477	3.494805	34.754784	128.940586
33130		-4.260636	-0.861700	8.908989	-0.234564	0.467662	0.114548	-0.807373	0.127441	-0.306152	3.418491	35.018624	129.037649
33131		-4.731111	1.459173	9.024637	0.004300	0.738700	0.055602	-0.806396	0.125000	-0.315186	3.462581	35.441633	129.105289
33132		-5.320141	0.101452	8.551154	-0.054529	0.876825	0.046810	-0.809570	0.134521	-0.308838	3.473495	35.941808	129.173149
33133		-5.325184	1.019648	8.582196	-0.058519	1.017103	0.015523	-0.800781	0.133301	-0.310547	3.473567	36.525257	129.225533
33134		-5.424398	0.485267	8.499086	-0.029874	1.141059	-0.005397	-0.791504	0.128662	-0.327393	3.484904	37.178352	129.268700
33135		-5.550549	0.780932	8.388776	-0.004787	1.271090	-0.016871	-0.783936	0.133057	-0.327637	3.510084	37.908060	129.310152
33136		-5.603294	0.587623	8.365627	0.008294	1.395168	-0.041558	-0.786377	0.125000	-0.324219	3.535814	38.707720	129.339854
33137		-5.575384	0.780685	8.416834	0.038730	1.526772	-0.062015	-0.778320	0.135498	-0.321289	3.574426	39.585105	129.361620
33138		-5.686580	0.487009	8.317255	0.056801	1.676309	-0.070594	-0.770264	0.138184	-0.326660	3.624579	40.546542	129.384989
33139		-5.892609	0.577959	8.198005	0.093268	1.827855	-0.072493	-0.763916	0.126953	-0.326660	3.701248	41.596296	129.416251
33140		-6.025578	0.332991	8.035434	0.149311	1.972455	-0.074426	-0.748535	0.127930	-0.322510	3.816068	42.727138	129.456031
33141		-6.058980	0.276141	7.937316	0.209171	2.114532	-0.066163	-0.738770	0.124512	-0.331787	3.978827	43.940286	129.514650
33142		-6.170472	0.258033	7.882861	0.259700	2.265419	-0.057075	-0.734863	0.127197	-0.330078	4.187132	45.237665	129.595748
33143		-6.281845	0.251438	7.709112	0.326601	2.431121	-0.055318	-0.723145	0.120605	-0.337891	4.450677	46.630730	129.698388
33144		-6.577322	0.401284	7.617552	0.370753	2.589669	-0.045758	-0.700439	0.124756	-0.338379	4.764570	48.112186	129.832782
33145		-6.545603	0.442454	7.467487	0.417551	2.755709	-0.030954	-0.686035	0.118896	-0.333740	5.140251	49.688299	130.010319
33146		-6.612254	0.486172	7.316380	0.472706	2.961372	-0.024944	-0.683105	0.126465	-0.330811	5.586562	51.379350	130.234240
33147		-6.541119	0.389871	7.124740	0.499507	3.212201	-0.001079	-0.666748	0.115723	-0.334473	6.114823	53.211703	130.536823
33148		-6.788730	0.520584	6.707353	0.518022	3.494969	0.026970	-0.650146	0.105225	-0.332520	6.743712	55.200297	130.942973
33149		-7.019711	0.786705	6.600782	0.527766	3.797924	0.010843	-0.624756	0.104736	-0.328369	7.458154	57.360159	131.435120
33150		-6.972367	0.561325	6.181989	0.550958	4.087761	-0.017964	-0.614014	0.116943	-0.332031	8.280278	59.682143	132.025779
33151		-7.609630	0.479797	6.132904	0.531048	4.420969	-0.035697	-0.585693	0.116211	-0.328125	9.241638	62.189876	132.774332
33152		-8.144640	0.568606	5.970354	0.507874	4.702148	-0.045565	-0.567383	0.114014	-0.328125	10.402347	64.849617	133.742798
33153		-9.031487	1.288211	5.919320	0.329369	4.898325	-0.072554	-0.551270	0.110107	-0.317871	11.719458	67.613097	134.972561
33154		-7.432056	0.704227	4.583404	0.350914	5.156364	-0.099607	-0.518311	0.109619	-0.311768	13.455471	70.509840	136.612711
33155		-9.716259	2.059831	4.631814	0.307837	5.439684	-0.234055	-0.494629	0.105225	-0.303223	15.643677	73.561630	138.724124
33156		-11.120854	2.384338	4.390152	0.128806	5.589801	-0.434336	-0.467041	0.103760	-0.294189	18.342757	76.698910	141.436641
33157		-12.853573	2.832658	5.825119	-0.111163	5.581974	-0.669289	-0.449707	0.114502	-0.276855	21.829526	79.836644	145.058809
33158		-12.592336	1.921599	4.720727	-0.454104	5.520710	-0.812817	-0.422363	0.107910	-0.268555	27.470351	82.910946	151.022542
33159		-14.665563	2.310121	4.935288	-0.869376	5.389300	-0.935159	-0.408691	0.116699	-0.255859	39.770040	85.797738	163.875674
33160		-17.516013	1.257665	6.226121	-1.221521	5.041721	-0.911974	-0.381836	0.122559	-0.244141	80.145231	87.827337	-154.999262
33161		-14.968351	-0.629864	3.924385	-1.274511	4.666656	-0.751626	-0.359375	0.134277	-0.238281	142.899215	87.146991	-91.469041
33162		-15.947892	-0.031329	5.498987	-1.145678	4.431105	-0.460085	-0.344727	0.138672	-0.206299	162.657869	84.976248	-71.012713
33163		-15.156872	0.575778	5.465392	-1.242819	4.095536	-0.356389	-0.328857	0.131348	-0.205566	169.126191	82.747785	-63.794838
33164		-12.829653	0.346542	4.679905	-1.434745	3.793421	-0.201454	-0.312744	0.137451	-0.176758	171.591127	80.623619	-60.476021
33165		-11.365618	0.254162	5.256592	-1.573277	3.666672	-0.104590	-0.301270	0.144287	-0.166016	172.596014	78.553381	-58.540595
33166		-9.512186	0.581805	5.578398	-1.675770	3.516388	0.051650	-0.292480	0.146240	-0.157959	172.684118	76.551442	-57.469803
33167		-8.398050	0.129471	5.091291	-1.717811	3.484458	0.217656	-0.273193	0.156494	-0.133301	172.244328	74.559497	-56.910160
33168		-7.053309	-1.024794	5.907634	-1.527261	3.333931	0.515758	-0.265869	0.151855	-0.121826	171.313175	72.626776	-56.971217
33169		-14.133739	-0.133862	9.040945	-1.308596	2.736516	0.643719	-0.261963	0.151123	-0.111572	170.227108	71.024632	-57.327690
33170		-19.687509	0.647472	15.602057	-1.124611	0.354348	0.839638	-0.258545	0.140869	-0.106201	168.336658	70.735839	-58.649238
33171		-10.624868	-0.612362	11.233340	-1.058620	-1.458716	0.873768	-0.246582	0.144531	-0.105713	165.763551	71.445169	-60.730374
33172		-8.583005	-1.590735	10.086811	-0.625084	-2.713233	0.864307	-0.254150	0.136719	-0.112061	162.623233	72.806851	-63.656044
33173		-5.634719	-1.023807	7.735917	-0.312933	-3.456105	0.812221	-0.264404	0.121582	-0.124512	158.707984	74.530877	-67.550730
33174		-4.339573	-0.862265	6.341242	-0.120890	-3.954558	0.689093	-0.260010	0.116943	-0.132080	153.720009	76.447458	-72.633237
33175		-3.773154	-0.365854	5.499151	-0.053185	-4.256681	0.470086	-0.277344	0.112793	-0.137939	147.226037	78.449535	-79.255618
33176		-4.738385	-0.115484	5.460119	-0.065981	-4.505447	0.189443	-0.269287	0.119629	-0.155762	138.344459	80.446839	-88.252137
33177		-5.775550	0.379071	5.568839	-0.058644	-4.860305	-0.094946	-0.278076	0.110107	-0.171631	124.689966	82.355806	-102.026302
33178		-6.750971	1.143357	5.513745	-0.139268	-5.270844	-0.344496	-0.287109	0.104980	-0.179688	102.364900	83.770965	-124.432366
33179		-7.137976	0.943619	5.382358	-0.239208	-5.676423	-0.497919	-0.299805	0.103516	-0.192139	71.570897	83.890242	-155.261110
33180		-6.999540	0.306900	5.153374	-0.184817	-5.999751	-0.544183	-0.309570	0.101807	-0.219971	45.614167	82.326827	178.706102
33181		-6.461215	-0.056641	4.606055	0.003387	-6.186167	-0.497473	-0.312988	0.096191	-0.242676	30.320862	79.676645	163.224915
33182		-5.615312	0.450877	4.062521	0.199835	-6.217308	-0.384057	-0.334717	0.090088	-0.251709	22.011231	76.568942	154.617668
33183		-5.372925	1.449796	3.855001	0.200229	-6.084848	-0.301075	-0.333984	0.080078	-0.281738	17.151447	73.328611	149.466923
33184		-5.942823	1.811595	3.984786	0.037088	-5.841672	-0.204581	-0.340820	0.077148	-0.303955	14.095410	70.136331	146.224954
33185		-6.680593	2.133561	4.648995	-0.162800	-5.602286	-0.144371	-0.354736	0.072021	-0.323975	11.942316	67.015874	144.011242
33186		-8.263572	2.120266	5.484002	-0.394027	-5.422252	-0.093043	-0.361572	0.063477	-0.348389	10.285670	63.978026	142.436546
33187		-9.111614	1.706601	6.137061	-0.576736	-5.318037	-0.034443	-0.383789	0.058594	-0.370605	8.935397	60.965276	141.284937
33188		-9.817929	1.090152	6.791332	-0.607017	-5.223500	-0.009992	-0.395020	0.055664	-0.393799	7.836335	58.005695	140.410302
33189		-10.472177	0.842346	7.353640	-0.532619	-5.157228	-0.004549	-0.421875	0.052002	-0.425537	6.948151	55.063759	139.709502
33190		-10.596482	0.506562	7.583502	-0.408165	-5.098221	-0.031552	-0.447021	0.040283	-0.454590	6.234552	52.164486	139.110654
33191		-10.433971	0.710857	7.963709	-0.279342	-4.965741	-0.109460	-0.464844	0.047119	-0.479980	5.635612	49.329067	138.541705
33192		-10.478597	0.613820	8.500236	-0.229061	-4.790897	-0.235245	-0.499756	0.050293	-0.508789	5.071556	46.609003	137.955761
33193		-10.649572	-0.002473	9.105067	-0.149558	-4.580939	-0.370128	-0.535645	0.055664	-0.527344	4.548386	43.999399	137.337867
33194		-11.163910	-0.419375	9.817275	-0.008214	-4.356007	-0.493348	-0.574707	0.048828	-0.543213	4.109350	41.532376	136.694587
33195		-11.944083	-0.278979	10.447269	0.095604	-4.131131	-0.601072	-0.607178	0.051025	-0.558838	3.733820	39.182724	136.027297
33196		-13.672631	-0.200236	10.918506	0.080201	-3.931045	-0.721182	-0.640625	0.046387	-0.567871	3.348662	36.960524	135.324144
33197		-15.807668	-0.488202	11.074951	0.025362	-3.821168	-0.867315	-0.674561	0.054199	-0.568115	2.917578	34.790224	134.560581
33198		-17.403647	-0.901326	10.956550	0.040513	-3.840791	-1.027617	-0.707275	0.050049	-0.567383	2.480496	32.620037	133.726633
33199		-18.385576	-1.205214	10.281696	0.127006	-3.929376	-1.184127	-0.742920	0.048828	-0.564453	2.083087	30.387074	132.823239
33200		-18.576382	-1.286989	8.906604	0.247072	-4.038949	-1.302311	-0.783203	0.049561	-0.554443	1.764991	28.099501	131.877225
33201		-18.062627	-0.932902	7.310318	0.335654	-4.052989	-1.361946	-0.817383	0.047607	-0.545166	1.527516	25.791784	130.924526
33202		-17.106549	-0.184859	5.828456	0.306045	-3.969540	-1.337518	-0.841553	0.048096	-0.537109	1.326652	23.537402	130.016975
33203		-15.714950	0.731367	4.407515	0.095858	-3.782386	-1.224751	-0.865723	0.027344	-0.517334	1.073825	21.378307	129.206103
33204		-14.627158	2.232413	3.235535	-0.343354	-3.487188	-1.079735	-0.894043	0.040771	-0.515625	0.637909	19.389969	128.512205
33205		-14.134909	3.195496	1.989304	-0.959510	-3.154583	-0.970397	-0.920166	0.041504	-0.511230	-0.099043	17.579786	127.914639
33206		-13.463448	2.632981	0.576972	-1.467415	-2.817092	-0.887804	-0.930420	0.044678	-0.494385	-1.086189	15.960723	127.398698
33207		-12.446194	0.375530	-0.918535	-1.477574	-2.414913	-0.780164	-0.950928	0.058350	-0.480225	-2.042232	14.561737	126.972505
33208		-11.320438	-1.486105	-2.197139	-0.916067	-1.921327	-0.560552	-0.955078	0.059326	-0.479492	-2.633911	13.448833	126.685926
33209		-10.882046	-1.273588	-2.835079	-0.198604	-1.375458	-0.273902	-0.970947	0.059814	-0.468262	-2.773201	12.652171	126.561019
33210		-11.389167	0.439831	-2.471308	0.175323	-0.897803	-0.038103	-0.971191	0.054932	-0.467529	-2.670062	12.137417	126.561580
33211		-11.380303	1.371699	-1.855128	0.093486	-0.529328	0.078615	-0.979492	0.054443	-0.459229	-2.601797	11.836054	126.619717
33212		-11.140212	0.412769	-0.979838	-0.093981	-0.217859	0.125741	-0.970947	0.049805	-0.463135	-2.637319	11.714763	126.696946
33213		-10.081538	-1.443583	-0.339611	-0.002464	0.093586	0.157480	-0.977295	0.044678	-0.463135	-2.618193	11.773556	126.784433
33214		-2.845367	-1.128838	1.349690	0.271030	0.946565	0.344864	-0.972168	0.054688	-0.468750	-2.423735	12.324178	126.959771
33215		2.757123	-3.096067	7.857912	0.284377	1.959811	0.444414	-0.964600	0.049316	-0.467041	-2.210857	13.458404	127.172113
33216		-1.991787	-3.739940	13.203841	0.771829	2.068783	0.531255	-0.955322	0.050293	-0.477539	-1.700528	14.653559	127.441874
33217		-1.852863	-2.775438	8.524242	0.939131	2.058239	0.502155	-0.946045	0.053467	-0.481445	-1.090263	15.841084	127.708022
33218		-4.471729	-2.032730	6.991397	0.963952	2.385341	0.256940	-0.929688	0.042236	-0.486816	-0.497924	17.209863	127.839651
33219		-6.055973	-0.807901	9.873734	0.867291	2.402384	-0.140393	-0.916016	0.043701	-0.492676	-0.027843	18.587690	127.746155
33220		-6.104918	0.503979	10.936362	0.526109	2.211832	-0.738804	-0.907959	0.031982	-0.495850	0.128247	19.855558	127.296861
33221		-4.306466	-0.190419	8.967979	0.441513	2.176602	-1.014407	-0.886475	0.029785	-0.488281	0.166325	21.106249	126.677459
33222		-4.037727	3.814396	9.170847	0.393347	2.364294	-0.827200	-0.869629	0.040283	-0.512451	0.205781	22.462641	126.169589
33223		-5.099289	6.174724	9.491733	0.176049	2.404368	-0.562422	-0.855469	0.023926	-0.514404	0.171895	23.843460	125.821661
33224		-5.743276	6.451189	9.808351	-0.004891	2.406957	-0.179374	-0.846924	0.024658	-0.515625	0.125439	25.223017	125.710357
33225		-6.926779	3.235702	10.071182	-0.353036	2.324671	-0.014052	-0.839355	0.022217	-0.528564	-0.078544	26.557249	125.699918
33226		-8.193151	-2.136565	10.736852	-0.377931	2.204158	-0.106625	-0.816406	0.034668	-0.529053	-0.327266	27.820111	125.623891
33227		-8.567480	-4.345483	10.197102	-0.287140	2.018514	-0.335984	-0.804199	0.038574	-0.530273	-0.599011	28.977605	125.392345
33228		-8.345621	-2.462074	9.713695	-0.068157	1.909216	-0.354891	-0.787109	0.033936	-0.540283	-0.759157	30.069200	125.141413
33229		-18.483401	-4.572946	13.743151	0.724286	1.218886	0.455373	-0.783936	0.030273	-0.528320	-0.193098	30.772630	125.434862
33230		-8.554269	1.600998	8.307993	0.545343	0.493854	0.417398	-0.778564	0.021484	-0.531982	0.264006	31.055645	125.711412
33231		-7.406296	1.919875	9.736239	0.386497	0.353530	0.411907	-0.777100	0.031738	-0.539795	0.630143	31.260145	125.986576
33232		-5.541136	0.342148	8.466291	0.297075	0.256960	0.337084	-0.778809	0.019043	-0.533447	0.920446	31.404978	126.212585
33233		-5.729557	0.090945	8.427432	0.279801	0.242523	0.304237	-0.779541	0.020264	-0.529053	1.190262	31.544612	126.417571
33234		-5.670436	0.538135	8.514812	0.258853	0.193647	0.299357	-0.778564	0.024414	-0.526367	1.446928	31.651839	126.619473
33235		-5.659968	0.149863	8.400650	0.254200	0.148559	0.305423	-0.778809	0.016846	-0.533203	1.703313	31.736091	126.825470
33236		-6.268139	0.479334	8.735896	0.243550	0.083540	0.293745	-0.769775	0.013916	-0.531250	1.949221	31.778838	127.022684
33237		-5.208695	0.977867	8.408243	0.253003	0.049555	0.300542	-0.779785	0.013916	-0.528076	2.202802	31.805032	127.224036
33238		-5.506893	0.945689	8.568201	0.236219	0.055356	0.266873	-0.778076	0.007813	-0.527100	2.435028	31.830824	127.402931
33239		-5.635448	1.240604	8.597578	0.196249	0.055509	0.207855	-0.773682	0.024414	-0.531982	2.623696	31.861408	127.542391
33240		-5.525837	1.136202	8.514671	0.145549	0.040344	0.142688	-0.777100	0.010498	-0.529297	2.759829	31.880960	127.637416
33241		-5.313786	0.760143	8.435330	0.104277	0.044864	0.060783	-0.777100	0.009033	-0.533447	2.843603	31.909018	127.677689
33242		-4.970773	0.501902	8.370580	0.074508	0.063539	0.017445	-0.782715	0.016602	-0.521240	2.894936	31.945186	127.689182
33243		-4.992750	0.238083	8.361965	0.054924	0.073597	-0.021713	-0.781006	0.007324	-0.527588	2.921619	31.991992	127.674898
33244		-5.453092	0.343323	8.355289	0.040286	0.053077	-0.034332	-0.777344	0.013672	-0.530029	2.934677	32.023678	127.651145
33245		-5.599509	0.251685	8.332087	0.035455	0.004370	-0.034844	-0.771240	0.013428	-0.536377	2.944202	32.031247	127.625603
33246		-5.475046	0.434083	8.439369	0.035755	-0.022972	-0.031775	-0.776123	0.020020	-0.524414	2.954175	32.019350	127.600941
33247		-5.525322	0.429261	8.491195	0.041957	-0.042968	-0.024401	-0.778076	0.012939	-0.524902	2.970274	31.999551	127.580790
33248		-5.422118	0.513290	8.454144	0.047389	-0.071867	-0.011030	-0.778564	0.019531	-0.527832	2.993433	31.959071	127.568407
33249		-5.341002	0.322442	8.392345	0.068010	-0.088764	0.021799	-0.783203	0.006592	-0.528076	3.040095	31.911696	127.577767
33250		-5.323771	0.162154	8.373384	0.116923	-0.075480	0.080739	-0.780273	0.010254	-0.525879	3.135668	31.866336	127.627014
33251		-5.278189	0.195311	8.384407	0.170016	-0.082170	0.139762	-0.776855	0.005371	-0.529541	3.282663	31.818919	127.715834
33252		-5.220924	0.392113	8.414593	0.192344	-0.085459	0.156733	-0.785889	0.003662	-0.525391	3.447949	31.765093	127.815514
33253		-5.222661	0.524243	8.491994	0.176395	-0.085097	0.155898	-0.784912	0.011475	-0.526855	3.603862	31.715005	127.914621
33254		-5.209365	0.659959	8.644136	0.161871	-0.069118	0.138087	-0.781738	0.005859	-0.531738	3.745093	31.670751	128.002026
33255		-5.393605	0.882204	8.671143	0.128893	-0.053686	0.117918	-0.784912	0.007813	-0.521973	3.860827	31.639627	128.076640
33256		-5.177327	0.325099	8.558648	0.119505	-0.032775	0.119048	-0.790283	0.005371	-0.528809	3.971726	31.616580	128.152654
33257		-5.170458	-0.218509	8.551001	0.158992	-0.017261	0.171023	-0.782715	0.003906	-0.529541	4.124146	31.603832	128.264431
33258		-5.414240	0.450207	8.540363	0.178309	-0.023602	0.207028	-0.784180	0.000488	-0.525879	4.299765	31.581990	128.399749
33259		-5.575341	0.640212	8.515521	0.185568	-0.035304	0.226185	-0.787598	0.000000	-0.524170	4.486065	31.555928	128.547382
33260		-5.429796	0.722227	8.467783	0.180294	-0.043544	0.235797	-0.788330	-0.001709	-0.524414	4.672107	31.520643	128.700661
33261		-5.284704	0.960797	8.526969	0.167720	-0.049147	0.234452	-0.783936	0.000488	-0.524414	4.850377	31.485492	128.852740
33262		-5.355753	1.186694	8.535972	0.138422	-0.034993	0.201798	-0.794189	0.001709	-0.519531	5.000462	31.455971	128.983394
33263		-5.215586	1.277889	8.565245	0.102704	-0.010159	0.163894	-0.785889	0.001221	-0.530518	5.117847	31.445951	129.090292
33264		-5.154773	1.345568	8.547451	0.072430	0.019032	0.126733	-0.797852	0.004395	-0.527100	5.205493	31.450670	129.173825
33265		-5.182195	1.330684	8.480954	0.036905	0.054045	0.083005	-0.798828	-0.002686	-0.523926	5.259098	31.481202	129.230566
33266		-5.180486	1.062963	8.497624	0.012268	0.072837	0.048899	-0.792480	0.003906	-0.524658	5.286893	31.520578	129.265397
33267		-5.179327	0.854147	8.461169	0.003405	0.085713	0.035069	-0.788818	0.000244	-0.522949	5.305729	31.571632	129.292132
33268		-5.274296	0.548802	8.388194	0.013305	0.089973	0.042128	-0.783936	-0.003418	-0.529541	5.332389	31.621120	129.323570
33269		-5.291359	0.584747	8.375365	0.023784	0.077170	0.052866	-0.791260	-0.005371	-0.526367	5.368946	31.666313	129.361770
33270		-5.288447	0.751247	8.333503	0.034590	0.057909	0.065285	-0.779541	-0.000977	-0.525879	5.414982	31.696230	129.406804
33271		-5.258546	0.892834	8.375971	0.038426	0.050634	0.068549	-0.783691	0.001709	-0.524170	5.464641	31.725381	129.453921
33272		-5.354397	0.932127	8.396867	0.029790	0.053411	0.070819	-0.792725	0.000732	-0.529297	5.509810	31.752365	129.502463
33273		-5.310900	0.808547	8.481207	0.032041	0.059481	0.068398	-0.796387	-0.001709	-0.521973	5.556166	31.786497	129.550144
33274		-5.285145	0.770429	8.482817	0.037242	0.069506	0.075089	-0.786377	-0.002441	-0.525146	5.607763	31.822354	129.602692
33275		-5.312399	0.983069	8.435003	0.035468	0.074564	0.070049	-0.778809	0.002197	-0.520508	5.657298	31.864906	129.652580
33276		-5.338102	1.154468	8.373942	0.026407	0.078033	0.054406	-0.782959	0.001221	-0.520264	5.695778	31.906722	129.691926
33277		-5.363494	1.130810	8.359367	0.004320	0.091681	0.031483	-0.785889	-0.004150	-0.528076	5.714537	31.961164	129.717184
33278		-5.291491	0.967900	8.415109	-0.003897	0.090548	0.018521	-0.777344	-0.002441	-0.523193	5.723424	32.012140	129.733332
33279		-5.274078	1.043576	8.454163	-0.013494	0.104964	0.004753	-0.791016	0.001953	-0.524658	5.723017	32.075662	129.741575
33280		-5.250825	0.815013	8.467628	-0.020559	0.131802	-0.006875	-0.777100	-0.002197	-0.525635	5.714791	32.151607	129.743432
33281		-5.300978	0.606494	8.500313	-0.013981	0.143305	0.003115	-0.777588	-0.003174	-0.526123	5.714926	32.237054	129.753166
33282		-5.384908	0.920720	8.426230	-0.001980	0.146419	0.010923	-0.779297	-0.003418	-0.526123	5.724287	32.320316	129.768016
33283		-5.415464	1.238291	8.301841	-0.019498	0.151828	0.005170	-0.782227	-0.002197	-0.528320	5.722338	32.410482	129.779739
33284		-5.418505	1.203581	8.302233	-0.039025	0.160979	-0.018264	-0.778076	0.002441	-0.526367	5.700467	32.503711	129.775868
33285		-5.407620	1.273661	8.338212	-0.061845	0.174298	-0.036006	-0.773682	0.004883	-0.524902	5.660149	32.609022	129.761232
33286		-5.442497	1.186888	8.338939	-0.084729	0.189642	-0.059063	-0.773682	-0.003906	-0.521484	5.598106	32.720883	129.731472
33287		-5.405551	0.986745	8.325895	-0.094649	0.208746	-0.069467	-0.770020	-0.003418	-0.524414	5.527795	32.847657	129.696163
33288		-5.462893	1.011395	8.287858	-0.102744	0.225023	-0.069957	-0.769043	-0.004639	-0.527832	5.452335	32.980233	129.660906
33289		-5.483072	0.947426	8.296076	-0.112518	0.232440	-0.080834	-0.771484	0.005127	-0.528564	5.368016	33.121041	129.618905
33290		-5.452028	0.875603	8.287494	-0.117499	0.233171	-0.083569	-0.771729	0.007568	-0.530273	5.278850	33.258902	129.574315
33291		-5.480790	0.801871	8.273528	-0.121495	0.240760	-0.087140	-0.765625	-0.001953	-0.529053	5.186793	33.404661	129.527892
33292		-5.366824	0.293609	8.344197	-0.084487	0.251352	-0.070157	-0.759766	0.007568	-0.533691	5.121684	33.552095	129.492964
33293		-5.438721	0.150557	8.372478	-0.028125	0.257803	-0.037554	-0.759766	-0.002686	-0.528564	5.101989	33.704938	129.481030
33294		-5.468238	-0.051040	8.381392	0.039917	0.277088	0.008823	-0.767090	-0.002197	-0.534912	5.138911	33.863004	129.501685
33295		-5.433522	-0.386768	8.475848	0.127303	0.279249	0.057816	-0.762207	0.003906	-0.533447	5.245581	34.023118	129.556833
33296		-5.117743	0.979320	8.627478	0.255319	0.299680	0.082867	-0.756836	-0.000977	-0.534424	5.435893	34.190056	129.630770
33297		-5.170872	0.305592	8.686154	0.109153	0.450726	0.119835	-0.762451	0.000244	-0.528076	5.563664	34.444234	129.741364
33298		-5.325659	1.309687	8.570242	0.160399	0.521399	0.117241	-0.752197	-0.005371	-0.534180	5.723085	34.735329	129.855781
33299		-5.385346	1.129188	8.508193	0.138381	0.619142	0.087782	-0.748779	0.004395	-0.530518	5.863949	35.086786	129.958339
33300		-5.291726	1.268813	8.619432	0.122389	0.723446	0.055585	-0.731445	0.001953	-0.527100	5.987914	35.496206	130.047090
33301		-5.341439	1.399426	8.580089	0.114143	0.842092	0.024428	-0.743652	-0.007813	-0.532227	6.101583	35.978034	130.124723
33302		-5.498387	1.420204	8.523310	0.093826	0.961612	-0.018652	-0.730469	-0.002686	-0.527832	6.191888	36.527401	130.182187
33303		-5.455457	1.124335	8.514577	0.101628	1.084491	-0.044683	-0.726563	-0.007080	-0.532715	6.283371	37.151254	130.232669
33304		-5.463940	1.174408	8.515553	0.077199	1.209427	-0.064280	-0.718750	-0.005615	-0.533447	6.359066	37.844480	130.280139
33305		-5.565437	1.240093	8.337522	0.079991	1.330664	-0.086237	-0.710205	-0.005859	-0.535156	6.434851	38.610897	130.323689
33306		-5.598170	1.328853	8.283260	0.072891	1.461922	-0.112255	-0.684082	-0.012451	-0.534424	6.502229	39.450869	130.360287
33307		-5.633519	1.383466	8.231867	0.057692	1.608985	-0.137542	-0.682617	-0.005859	-0.527832	6.559208	40.378827	130.392838
33308		-5.686749	1.287062	8.123948	0.048734	1.759710	-0.174321	-0.682373	-0.006592	-0.524414	6.602078	41.392314	130.411752
33309		-5.858689	0.605513	8.145982	0.090241	1.920540	-0.187205	-0.657471	-0.007813	-0.533447	6.674037	42.500649	130.437462
33310		-5.900887	0.478479	8.052681	0.190925	2.085695	-0.177942	-0.648438	-0.011230	-0.524902	6.820749	43.699815	130.488317
33311		-6.116810	0.685685	7.825146	0.229101	2.258530	-0.160396	-0.637207	-0.011963	-0.529297	7.016702	44.998251	130.576545
33312		-6.194597	0.673899	7.645771	0.276817	2.426891	-0.149396	-0.620117	-0.014404	-0.525391	7.265898	46.389075	130.699532
33313		-6.222908	0.824857	7.545360	0.305441	2.618913	-0.143462	-0.607178	-0.016602	-0.535156	7.563025	47.890238	130.862071
33314		-6.506805	0.850047	7.556999	0.307277	2.814336	-0.145701	-0.583496	-0.018066	-0.518066	7.891987	49.499800	131.062166
33315		-6.370543	0.720673	7.162205	0.315288	3.039957	-0.132631	-0.561768	-0.013184	-0.514893	8.278671	51.237319	131.325842
