// General information: 
//  MT Manager version: 2022.2.0 
//  XDA version: 2022.2.0 build 7381 rev 124627 built on 2023-07-19
// Device information: 
//  DeviceId: 00B4BCF6
//  ProductCode: MTW2-3A7G6
//  Firmware Version: 4.6.0
//  Hardware Version: 2.0.0
// Device settings: 
//  Filter Profile: human(46.1)
//  Option Flags: Orientation Smoother Disabled, Position/Velocity Smoother Disabled, Continuous Zero Rotation Update Disabled, AHS Disabled, ICC Disabled
// Coordinate system: ENU
PacketCounter	SampleTimeFine	Acc_X	Acc_Y	Acc_Z	Gyr_X	Gyr_Y	Gyr_Z	Mag_X	Mag_Y	Mag_Z	Roll	Pitch	Yaw
02234		-5.325931	-0.464553	8.278076	0.007912	0.002308	0.003879	-0.445068	-0.269775	-0.566895	-3.142422	32.656646	169.632255
02235		-5.341010	-0.482745	8.312860	0.001163	0.001453	0.001749	-0.445557	-0.259766	-0.565918	-3.137489	32.654520	169.637512
02236		-5.326032	-0.494380	8.261650	0.001794	0.001982	-0.002421	-0.442139	-0.268311	-0.571533	-3.134413	32.653058	169.639565
02237		-5.330864	-0.440863	8.271189	-0.000219	0.002108	-0.000500	-0.443848	-0.263916	-0.560547	-3.131110	32.651236	169.643269
02238		-5.303102	-0.460880	8.272234	0.000725	0.005668	0.000749	-0.445801	-0.268066	-0.571289	-3.127554	32.651981	169.647308
02239		-5.350593	-0.466794	8.282817	0.002190	0.000182	0.000052	-0.450928	-0.267578	-0.570801	-3.122629	32.649074	169.651458
02240		-5.327149	-0.463719	8.277339	-0.000438	0.004215	-0.001000	-0.448242	-0.266357	-0.566895	-3.120349	32.648928	169.654378
02241		-5.331954	-0.440736	8.270493	-0.000438	0.004215	-0.001000	-0.444824	-0.266846	-0.570313	-3.117397	32.648295	169.657663
02242		-5.300096	-0.453741	8.294305	-0.003421	0.007632	-0.005998	-0.447754	-0.268799	-0.575684	-3.118719	32.649945	169.657059
02243		-5.352174	-0.467671	8.281746	-0.002039	0.006978	-0.003749	-0.445801	-0.271240	-0.560547	-3.117747	32.650807	169.658374
02244		-5.328937	-0.495430	8.259714	-0.001053	0.008123	-0.003972	-0.444336	-0.269043	-0.566650	-3.116974	32.652795	169.659090
02245		-5.321013	-0.481031	8.305094	-0.003025	0.005832	-0.003525	-0.449219	-0.270752	-0.571289	-3.116461	32.653009	169.660600
02246		-5.302202	-0.485958	8.276455	-0.004625	0.008595	-0.006273	-0.452148	-0.268799	-0.565186	-3.118588	32.655193	169.659750
02247		-5.330896	-0.466647	8.274761	-0.006420	0.006612	-0.003853	-0.450439	-0.267578	-0.563477	-3.120156	32.655843	169.661008
02248		-5.326998	-0.490389	8.280974	-0.003420	0.007632	-0.005996	-0.444336	-0.266113	-0.564453	-3.121469	32.657471	169.660413
02249		-5.308457	-0.464821	8.268578	-0.003243	0.007940	-0.004022	-0.447021	-0.263428	-0.570068	-3.121306	32.658876	169.661507
02250		-5.332839	-0.468513	8.273404	-0.006857	0.010828	-0.004850	-0.449219	-0.269531	-0.571045	-3.124233	32.662377	169.661599
02251		-5.305676	-0.458843	8.290456	-0.004405	0.006487	-0.005771	-0.449219	-0.276367	-0.567871	-3.125348	32.662896	169.661557
02252		-5.334347	-0.470091	8.272342	-0.008281	0.013898	-0.005623	-0.454346	-0.272949	-0.563232	-3.129429	32.668122	169.660912
02253		-5.340084	-0.448199	8.264845	-0.011085	0.017623	-0.008644	-0.446045	-0.268799	-0.568604	-3.135650	32.674921	169.658504
02254		-5.337128	-0.442369	8.286836	-0.014217	0.013879	-0.009948	-0.449951	-0.268555	-0.559814	-3.144714	32.679995	169.654961
02255		-5.314225	-0.502026	8.248039	-0.017655	0.017074	-0.008799	-0.447998	-0.267090	-0.565918	-3.154746	32.686474	169.652465
02256		-5.311385	-0.496316	8.269949	-0.013908	0.016910	-0.004522	-0.448486	-0.269043	-0.560547	-3.161702	32.693448	169.652528
02257		-5.344931	-0.484937	8.244902	-0.010469	0.013715	-0.005667	-0.445801	-0.263428	-0.575195	-3.166400	32.698104	169.652286
02258		-5.341898	-0.478647	8.266977	-0.009308	0.015168	-0.003914	-0.447754	-0.268555	-0.565186	-3.170466	32.704110	169.652854
02259		-5.328006	-0.461159	8.231401	-0.011979	0.011649	-0.011361	-0.448486	-0.271240	-0.572998	-3.178080	32.707404	169.648817
02260		-5.367636	-0.484351	8.270774	-0.012308	0.014146	-0.001770	-0.447998	-0.278809	-0.574219	-3.183051	32.712890	169.650824
02261		-5.340984	-0.475402	8.287521	-0.015416	0.014844	-0.010210	-0.452637	-0.270264	-0.566895	-3.192278	32.718048	169.647448
02262		-5.341873	-0.507477	8.270356	-0.013862	0.014495	-0.005987	-0.451416	-0.269531	-0.566406	-3.199693	32.723596	169.646541
02263		-5.347155	-0.516209	8.246657	-0.013468	0.012693	-0.003517	-0.446045	-0.272949	-0.555176	-3.205300	32.727736	169.647796
02264		-5.324540	-0.514406	8.240621	-0.011452	0.012570	-0.005435	-0.450928	-0.267578	-0.567871	-3.211093	32.732193	169.647369
02265		-5.349026	-0.518482	8.245301	-0.006634	0.008721	-0.004336	-0.447754	-0.267822	-0.563477	-3.213004	32.734035	169.648218
02266		-5.326406	-0.485706	8.255825	-0.006460	0.009028	-0.002362	-0.447998	-0.263428	-0.572754	-3.214740	32.736570	169.650067
02267		-5.331292	-0.493643	8.232422	-0.002428	0.008783	-0.006200	-0.450439	-0.264160	-0.568604	-3.214928	32.738388	169.649646
02268		-5.347166	-0.482519	8.283122	-0.003021	0.005835	-0.003511	-0.446045	-0.267822	-0.569824	-3.215051	32.739062	169.650875
02269		-5.356046	-0.497752	8.236921	-0.005429	0.007759	-0.004060	-0.444336	-0.270020	-0.563232	-3.216150	32.740363	169.651948
02270		-5.328854	-0.487968	8.254112	-0.003413	0.007637	-0.005978	-0.448242	-0.264648	-0.563721	-3.217436	32.741986	169.651325
02271		-5.348889	-0.484251	8.281908	-0.002209	0.006675	-0.005703	-0.443848	-0.272705	-0.568115	-3.217273	32.742614	169.651322
02272		-5.325440	-0.511961	8.259951	-0.000831	0.006019	-0.003456	-0.449951	-0.270752	-0.562012	-3.216116	32.743388	169.652488
02273		-5.354288	-0.461890	8.274692	-0.001989	0.004567	-0.005208	-0.447266	-0.261475	-0.566895	-3.215601	32.742826	169.652902
02274		-5.311580	-0.463772	8.240923	-0.006761	0.006001	-0.007783	-0.446533	-0.271240	-0.564697	-3.219431	32.743442	169.651179
02275		-5.354480	-0.523993	8.241412	0.000374	0.005057	-0.003181	-0.444092	-0.274414	-0.563232	-3.216827	32.743225	169.652954
02276		-5.359639	-0.470670	8.250926	-0.000612	0.003911	-0.002961	-0.446777	-0.267822	-0.572998	-3.215312	32.742803	169.654444
02277		-5.331682	-0.490998	8.252106	0.001105	0.000763	-0.010303	-0.443115	-0.269043	-0.570068	-3.214820	32.739902	169.651539
02278		-5.323501	-0.476774	8.297821	-0.000958	0.003299	-0.006906	-0.450928	-0.270264	-0.570557	-3.214946	32.739017	169.650508
02279		-5.359795	-0.502269	8.234207	0.000247	0.002337	-0.006631	-0.444824	-0.264893	-0.569336	-3.213628	32.737133	169.650039
02280		-5.323386	-0.507894	8.281307	0.001498	-0.001039	-0.007835	-0.443359	-0.270020	-0.565918	-3.212597	32.733725	169.648571
02281		-5.308439	-0.489131	8.246505	0.004799	0.003012	-0.004549	-0.443115	-0.266357	-0.562500	-3.207918	32.732295	169.649492
02282		-5.347223	-0.510912	8.286455	0.003002	0.001025	-0.002138	-0.444824	-0.266113	-0.570557	-3.203969	32.730242	169.651735
02283		-5.336241	-0.499241	8.228877	0.007301	-0.003740	-0.006957	-0.448730	-0.268066	-0.564941	-3.198603	32.724872	169.651276
02284		-5.355440	-0.494760	8.257261	0.006270	-0.002472	-0.005259	-0.447754	-0.276367	-0.561768	-3.193862	32.720718	169.651610
02285		-5.332030	-0.461001	8.268402	0.004206	0.000064	-0.001863	-0.445557	-0.273438	-0.565186	-3.188475	32.717686	169.654469
02286		-5.335914	-0.498687	8.229123	0.004453	0.002400	-0.008493	-0.446777	-0.264404	-0.568848	-3.186052	32.716205	169.652192
02287		-5.332169	-0.460897	8.268318	0.004033	-0.000243	-0.003835	-0.449951	-0.266846	-0.568359	-3.181483	32.712935	169.653722
02288		-5.327721	-0.483864	8.274881	0.003814	0.001866	-0.004329	-0.442383	-0.268066	-0.572266	-3.177894	32.711291	169.654619
02289		-5.355962	-0.463958	8.273493	0.001451	0.001374	-0.006356	-0.442383	-0.266357	-0.578613	-3.175765	32.708866	169.654373
02290		-5.295630	-0.496646	8.298974	0.005658	0.001438	-0.008218	-0.441406	-0.267334	-0.563721	-3.172540	32.706881	169.652573
02291		-5.332204	-0.491501	8.251739	-0.001598	0.002763	-0.002741	-0.446289	-0.264404	-0.571533	-3.170858	32.705365	169.654732
02292		-5.351920	-0.487616	8.279752	-0.000958	0.003297	-0.006904	-0.449707	-0.266602	-0.562256	-3.170972	32.704452	169.653742
02293		-5.332762	-0.492241	8.251334	0.001012	0.005590	-0.007343	-0.447754	-0.271973	-0.562744	-3.169543	32.704408	169.652665
02294		-5.333119	-0.492467	8.251090	0.001404	0.003789	-0.004877	-0.447021	-0.264893	-0.566162	-3.167561	32.703816	169.652945
02295		-5.305204	-0.512669	8.252251	0.000247	0.002336	-0.006629	-0.442871	-0.270752	-0.570068	-3.166242	32.701932	169.652477
02296		-5.353016	-0.488737	8.278978	0.000420	0.002642	-0.004657	-0.449463	-0.264893	-0.570801	-3.164728	32.700714	169.652998
02297		-5.333659	-0.493196	8.250697	0.001452	0.001375	-0.006354	-0.447510	-0.263916	-0.567139	-3.162598	32.698289	169.652753
02298		-5.329652	-0.486150	8.273504	-0.001770	0.002456	-0.004712	-0.437012	-0.271484	-0.567383	-3.162357	32.696957	169.653382
02299		-5.329830	-0.486423	8.273372	0.002437	0.002521	-0.006573	-0.450928	-0.272705	-0.570557	-3.159767	32.695181	169.652944
02300		-5.329798	-0.486595	8.273383	-0.000124	-0.002721	-0.003449	-0.449707	-0.264648	-0.565918	-3.158007	32.690932	169.654337
02301		-5.306527	-0.453341	8.284424	0.001059	0.003176	-0.008819	-0.436035	-0.263916	-0.565918	-3.157044	32.689460	169.652348
02302		-5.315018	-0.468380	8.238445	-0.001598	0.002763	-0.002740	-0.435303	-0.267334	-0.559570	-3.155980	32.688362	169.654240
02303		-5.330266	-0.487457	8.273031	-0.000613	0.003910	-0.002959	-0.447998	-0.267090	-0.563721	-3.153839	32.687495	169.656207
02304		-5.326472	-0.480335	8.295709	0.000199	0.004750	-0.005150	-0.443604	-0.272461	-0.564697	-3.152663	32.687447	169.656246
02305		-5.331269	-0.457501	8.288922	0.000420	0.002642	-0.004656	-0.442871	-0.274414	-0.569336	-3.150527	32.685800	169.657107
02306		-5.331131	-0.488229	8.272428	-0.002803	0.003724	-0.003014	-0.448242	-0.264648	-0.562256	-3.150263	32.685237	169.658540
02307		-5.303533	-0.477939	8.289957	0.002830	0.000720	-0.004106	-0.432617	-0.274658	-0.566895	-3.146505	32.682509	169.659845
02308		-5.331618	-0.488710	8.272085	-0.003416	0.007633	-0.005973	-0.447021	-0.260986	-0.565674	-3.147758	32.684085	169.659226
02309		-5.336651	-0.466096	8.265135	0.001012	0.005591	-0.007339	-0.448242	-0.266602	-0.562500	-3.146328	32.684041	169.658152
02310		-5.317947	-0.440392	8.252990	-0.003367	0.005219	-0.007450	-0.447754	-0.262451	-0.567383	-3.148046	32.684173	169.656816
02311		-5.332964	-0.490180	8.271131	-0.001006	0.005711	-0.005423	-0.448975	-0.263916	-0.562500	-3.147070	32.684259	169.657040
02312		-5.309745	-0.487398	8.265585	-0.001818	0.004870	-0.003233	-0.442383	-0.269775	-0.569580	-3.146343	32.684326	169.658567
02313		-5.329677	-0.483521	8.293465	-0.001005	0.005711	-0.005422	-0.444824	-0.269531	-0.569336	-3.145367	32.684412	169.658792
02314		-5.315147	-0.464988	8.258390	-0.000834	0.006018	-0.003451	-0.451416	-0.281250	-0.566162	-3.144177	32.685141	169.659949
02315		-5.343161	-0.475594	8.240556	0.002831	0.000721	-0.004105	-0.447998	-0.267090	-0.568848	-3.140419	32.682413	169.661255
02316		-5.330578	-0.484048	8.292855	-0.000613	0.003910	-0.002958	-0.445313	-0.264160	-0.565674	-3.138871	32.681935	169.662778
02317		-5.315960	-0.465492	8.257838	-0.001005	0.005711	-0.005422	-0.449951	-0.264160	-0.566895	-3.137895	32.682020	169.663003
02318		-5.335363	-0.491963	8.269478	-0.000392	0.001802	-0.002464	-0.446777	-0.258545	-0.568359	-3.136001	32.680352	169.665165
02319		-5.316514	-0.466002	8.257453	-0.001818	0.004870	-0.003232	-0.443848	-0.270020	-0.572510	-3.134670	32.680025	169.666910
02320		-5.312733	-0.458971	8.280135	-0.000784	0.003603	-0.004928	-0.445313	-0.274658	-0.560791	-3.133942	32.679322	169.667314
02321		-5.331993	-0.485424	8.291865	0.000642	0.000535	-0.004160	-0.446533	-0.271240	-0.570068	-3.131456	32.676485	169.668589
02322		-5.308477	-0.482508	8.286527	-0.001597	0.002762	-0.002738	-0.451660	-0.271729	-0.567871	-3.130360	32.675351	169.670261
02323		-5.336966	-0.462605	8.284971	0.004750	0.005431	-0.003063	-0.448242	-0.274658	-0.555420	-3.125216	32.675349	169.672099
02324		-5.317484	-0.497163	8.240195	0.001356	0.006204	-0.003394	-0.446045	-0.269287	-0.562988	-3.122733	32.676145	169.673229
02325		-5.337208	-0.493161	8.268216	-0.000513	-0.000919	-0.005912	-0.441895	-0.271484	-0.567383	-3.121522	32.672421	169.673367
02326		-5.318187	-0.467295	8.256302	-0.000784	0.003603	-0.004927	-0.446045	-0.273926	-0.565918	-3.120784	32.671703	169.673615
02327		-5.286228	-0.480243	8.280344	-0.001989	0.004564	-0.005202	-0.441895	-0.275879	-0.561523	-3.120269	32.671139	169.674032
02328		-5.342553	-0.471171	8.261033	-0.000834	0.006018	-0.003449	-0.445068	-0.266357	-0.568359	-3.119059	32.671839	169.675078
02329		-5.319294	-0.468315	8.255531	-0.000784	0.003603	-0.004927	-0.452393	-0.265625	-0.561523	-3.117733	32.670734	169.675718
02330		-5.310925	-0.484317	8.284853	0.001235	0.003484	-0.006841	-0.450928	-0.271484	-0.573242	-3.116536	32.669872	169.674876
02331		-5.323801	-0.476305	8.232318	-0.003565	0.000467	-0.002302	-0.447754	-0.268311	-0.572754	-3.115778	32.667054	169.677415
02332		-5.315736	-0.462023	8.278038	-0.000954	0.003297	-0.006897	-0.454102	-0.262207	-0.566650	-3.115855	32.666099	169.676471
02333		-5.343814	-0.472940	8.260116	-0.001005	0.005711	-0.005419	-0.452148	-0.267822	-0.569580	-3.114878	32.666184	169.676698
02334		-5.316506	-0.462686	8.277506	0.000371	0.005057	-0.003174	-0.438477	-0.271240	-0.570313	-3.112860	32.666330	169.678352
02335		-5.316885	-0.462975	8.277247	-0.001989	0.004564	-0.005200	-0.445557	-0.263428	-0.559326	-3.112344	32.665766	169.678770
02336		-5.340867	-0.466664	8.282229	-0.004178	0.004376	-0.005257	-0.451172	-0.258301	-0.571777	-3.113677	32.665472	169.678802
02337		-5.336673	-0.490263	8.288569	-0.001989	0.004564	-0.005200	-0.448242	-0.266602	-0.567139	-3.113160	32.664907	169.679220
02338		-5.318007	-0.464473	8.276442	-0.000191	0.006553	-0.007606	-0.445068	-0.270752	-0.556641	-3.113118	32.665777	169.677834
02339		-5.331618	-0.426163	8.240031	-0.004008	0.004682	-0.003286	-0.450195	-0.274658	-0.563721	-3.113059	32.665340	169.679549
02340		-5.323418	-0.442695	8.269221	-0.006115	0.006525	-0.011933	-0.450684	-0.264404	-0.566162	-3.117975	32.666039	169.674800
02341		-5.358142	-0.488783	8.315320	-0.005826	0.009552	-0.006513	-0.445313	-0.276611	-0.574219	-3.120239	32.668287	169.674141
02342		-5.324063	-0.474918	8.252079	-0.005331	0.002922	-0.007008	-0.443359	-0.263672	-0.568848	-3.122837	32.667102	169.673050
02343		-5.296686	-0.465199	8.269510	-0.004569	0.006178	-0.007716	-0.445801	-0.267822	-0.565674	-3.124754	32.667382	169.671698
02344		-5.339973	-0.495412	8.286137	-0.004790	0.008286	-0.008207	-0.441895	-0.273193	-0.570801	-3.127588	32.669225	169.669681
02345		-5.316870	-0.493204	8.280515	-0.006927	0.005684	-0.009742	-0.442139	-0.265625	-0.567383	-3.131590	32.669160	169.666971
02346		-5.317766	-0.463706	8.296528	-0.005383	0.005336	-0.005528	-0.450439	-0.258789	-0.567871	-3.133722	32.669404	169.666751
02347		-5.298828	-0.468595	8.267946	-0.002823	0.010583	-0.008640	-0.446045	-0.269043	-0.563232	-3.135065	32.672175	169.664608
02348		-5.350856	-0.483065	8.254970	-0.003754	0.007021	-0.009901	-0.443848	-0.265137	-0.566650	-3.137898	32.673217	169.661573
02349		-5.347434	-0.476552	8.277427	-0.005826	0.009552	-0.006508	-0.453613	-0.264160	-0.567871	-3.140160	32.675465	169.660916
02350		-5.305263	-0.447850	8.260027	-0.004177	0.004376	-0.005252	-0.443848	-0.273682	-0.566650	-3.141476	32.675144	169.661117
02351		-5.344395	-0.470725	8.299605	-0.004959	0.007981	-0.010173	-0.453125	-0.263428	-0.570068	-3.144554	32.676379	169.658029
02352		-5.320871	-0.498901	8.277603	-0.004958	0.007981	-0.010172	-0.452637	-0.275635	-0.569336	-3.148188	32.677965	169.654618
02353		-5.325974	-0.476708	8.270622	-0.004567	0.006178	-0.007711	-0.442139	-0.264404	-0.564209	-3.150103	32.678246	169.653269
02354		-5.322410	-0.470093	8.293190	-0.004398	0.006484	-0.005741	-0.440674	-0.265137	-0.566162	-3.151757	32.679111	169.652849
02355		-5.330993	-0.485568	8.246984	-0.004736	0.005873	-0.009680	-0.455811	-0.267822	-0.573975	-3.154484	32.679154	169.650174
02356		-5.327949	-0.448725	8.285891	-0.005772	0.007138	-0.007983	-0.453125	-0.264160	-0.571045	-3.157766	32.680329	169.648381
02357		-5.351124	-0.513452	8.257980	-0.001394	0.007516	-0.007868	-0.442627	-0.270020	-0.567383	-3.157948	32.681370	169.646875
02358		-5.328489	-0.480721	8.268769	-0.007092	0.005378	-0.011705	-0.438232	-0.258545	-0.564453	-3.163313	32.681417	169.642575
02359		-5.301211	-0.471328	8.286176	-0.006924	0.005684	-0.009735	-0.451660	-0.276855	-0.560303	-3.167311	32.681350	169.639869
02360		-5.348478	-0.509163	8.279816	-0.004957	0.007981	-0.010166	-0.447510	-0.275879	-0.561279	-3.170932	32.682919	169.636393
02361		-5.334575	-0.460665	8.261045	-0.003583	0.007327	-0.007923	-0.449219	-0.271240	-0.563965	-3.172384	32.683849	169.634858
02362		-5.306817	-0.481240	8.262094	-0.001507	0.004798	-0.011314	-0.447998	-0.265381	-0.566162	-3.174378	32.683553	169.630584
02363		-5.335536	-0.462201	8.260338	-0.006810	0.008402	-0.006283	-0.447266	-0.264893	-0.566895	-3.177099	32.685150	169.630121
02364		-5.355334	-0.489191	8.271581	-0.003470	0.010046	-0.004472	-0.447510	-0.272705	-0.554199	-3.177824	32.688087	169.630653
02365		-5.332262	-0.486694	8.265987	-0.003695	0.004609	-0.011369	-0.443848	-0.272461	-0.563477	-3.180551	32.687353	169.626877
02366		-5.346556	-0.418285	8.245872	-0.003637	0.009741	-0.006440	-0.443604	-0.276611	-0.569092	-3.182073	32.690036	169.625728
02367		-5.310498	-0.454765	8.276221	-0.007367	0.009899	-0.010708	-0.441162	-0.266113	-0.559082	-3.186768	32.692350	169.622201
02368		-5.314692	-0.493616	8.236386	-0.006161	0.008941	-0.010433	-0.445068	-0.263184	-0.566895	-3.191187	32.694471	169.618458
02369		-5.354534	-0.486622	8.292149	-0.007478	0.007182	-0.014155	-0.446045	-0.269043	-0.564453	-3.197157	32.695119	169.612691
02370		-5.358474	-0.525523	8.252453	-0.006753	0.005988	-0.007759	-0.447021	-0.272949	-0.574707	-3.200878	32.695631	169.611123
02371		-5.355501	-0.488589	8.291409	-0.002376	0.006369	-0.007643	-0.446045	-0.268799	-0.572266	-3.201517	32.696022	169.609813
02372		-5.351447	-0.512222	8.297594	-0.001393	0.007519	-0.007857	-0.448975	-0.269043	-0.572998	-3.202238	32.697423	169.608015
02373		-5.328228	-0.509510	8.292121	-0.002968	0.003416	-0.004971	-0.449219	-0.271484	-0.564697	-3.202174	32.696210	169.608633
02374		-5.333092	-0.487043	8.285346	-0.002319	0.003956	-0.009123	-0.451904	-0.276611	-0.565186	-3.203814	32.695508	169.606124
02375		-5.318461	-0.468654	8.250380	-0.002209	0.006674	-0.005673	-0.438477	-0.271729	-0.565430	-3.203640	32.696136	169.606141
02376		-5.361595	-0.498744	8.266953	-0.001336	0.005106	-0.009336	-0.441162	-0.263672	-0.566650	-3.204809	32.696083	169.603228
02377		-5.310643	-0.485430	8.279319	-0.002802	0.003721	-0.003002	-0.448486	-0.267334	-0.562988	-3.203933	32.695108	169.605173
02378		-5.334616	-0.489123	8.284243	-0.004008	0.004679	-0.003274	-0.452393	-0.267578	-0.563232	-3.204406	32.695005	169.606730
02379		-5.343502	-0.473749	8.254533	0.000427	0.002649	-0.004639	-0.446533	-0.266113	-0.560303	-3.202260	32.693364	169.607604
02380		-5.311478	-0.486564	8.278717	-0.000946	0.003303	-0.006880	-0.445313	-0.270508	-0.570557	-3.202265	32.692335	169.606729
02381		-5.339540	-0.497662	8.260634	-0.003415	0.007632	-0.005944	-0.454834	-0.266846	-0.572021	-3.202901	32.693503	169.606526
02382		-5.359607	-0.493962	8.288437	-0.001429	0.003067	-0.000760	-0.446045	-0.265381	-0.568604	-3.200940	32.692562	169.609839
02383		-5.336293	-0.490861	8.283059	0.000370	0.005062	-0.003157	-0.445313	-0.263428	-0.564453	-3.198332	32.692348	169.611628
02384		-5.341252	-0.467974	8.276256	-0.000613	0.003912	-0.002942	-0.441895	-0.262207	-0.565918	-3.196722	32.691818	169.613482
02385		-5.313284	-0.488109	8.277467	-0.000945	0.003303	-0.006879	-0.449707	-0.268066	-0.560303	-3.196197	32.690480	169.612808
02386		-5.341155	-0.498958	8.259512	0.000593	0.002953	-0.002669	-0.447021	-0.272461	-0.570068	-3.193768	32.689396	169.614808
02387		-5.322487	-0.473025	8.247533	-0.004397	0.006482	-0.005728	-0.444824	-0.267334	-0.568604	-3.194864	32.689913	169.614795
02388		-5.314246	-0.488930	8.276801	0.004153	0.002491	-0.000370	-0.448975	-0.271729	-0.566650	-3.189542	32.688658	169.618231
02389		-5.341443	-0.529728	8.242526	0.001799	0.001995	-0.002396	-0.444580	-0.268555	-0.567871	-3.185773	32.686714	169.620652
02390		-5.344025	-0.408130	8.307964	0.000982	0.001150	-0.000214	-0.443848	-0.269043	-0.564697	-3.182182	32.684684	169.624223
02391		-5.353918	-0.480520	8.332769	0.002839	0.000732	-0.004092	-0.451904	-0.269531	-0.566406	-3.178414	32.681963	169.625540
02392		-5.328049	-0.449848	8.240358	0.002558	0.005253	-0.003097	-0.445068	-0.271973	-0.565674	-3.175053	32.682176	169.627044
02393		-5.343420	-0.468856	8.274806	0.000593	0.002953	-0.002669	-0.447998	-0.272949	-0.567139	-3.172095	32.680771	169.629243
02394		-5.347648	-0.476313	8.251700	-0.001430	0.003066	-0.000760	-0.447510	-0.270020	-0.561523	-3.170110	32.679814	169.632244
02395		-5.320234	-0.465877	8.269347	0.002450	0.002536	-0.006546	-0.441650	-0.266846	-0.566162	-3.167502	32.678048	169.631824
02396		-5.320332	-0.465858	8.269286	0.002189	0.000192	0.000059	-0.447510	-0.267090	-0.568604	-3.163086	32.675471	169.635645
02397		-5.344136	-0.469129	8.274328	-0.000613	0.003912	-0.002942	-0.446777	-0.274414	-0.572266	-3.160939	32.674605	169.637623
02398		-5.335878	-0.484911	8.303620	0.001741	0.004408	-0.000915	-0.448242	-0.260498	-0.569092	-3.157225	32.674426	169.640634
02399		-5.321165	-0.465981	8.268743	-0.000613	0.003912	-0.002942	-0.448975	-0.272705	-0.566406	-3.155078	32.673560	169.642611
02400		-5.320865	-0.496519	8.252148	-0.000447	0.004216	-0.000974	-0.447021	-0.272949	-0.573242	-3.152634	32.673249	169.645833
02401		-5.330370	-0.450495	8.238821	0.000593	0.002953	-0.002668	-0.442383	-0.267822	-0.571289	-3.149677	32.671843	169.648032
02402		-5.322076	-0.466219	8.268143	0.001741	0.004408	-0.000914	-0.447266	-0.266113	-0.565430	-3.145964	32.671682	169.651029
02403		-5.327033	-0.443301	8.261342	0.000039	0.004452	-0.007091	-0.447021	-0.265625	-0.570557	-3.144977	32.670995	169.650166
02404		-5.322780	-0.466531	8.267672	-0.000282	0.004521	0.000995	-0.452637	-0.266846	-0.568848	-3.141719	32.670925	169.654743
02405		-5.319286	-0.459449	8.290293	-0.001390	0.007519	-0.007850	-0.450928	-0.268555	-0.562256	-3.141892	32.671968	169.653250
02406		-5.347305	-0.470452	8.272206	-0.001595	0.002762	-0.002727	-0.445557	-0.267578	-0.562500	-3.140701	32.670735	169.655307
02407		-5.323963	-0.467487	8.266856	-0.001819	0.004870	-0.003214	-0.450195	-0.274414	-0.563232	-3.139364	32.670408	169.657064
02408		-5.305351	-0.441509	8.254862	-0.001001	0.005715	-0.005395	-0.442871	-0.267334	-0.564941	-3.138859	32.670786	169.656823
02409		-5.324767	-0.468029	8.266308	0.001576	0.004104	-0.002881	-0.451416	-0.273926	-0.561035	-3.135440	32.670031	169.658834
02410		-5.320518	-0.491165	8.272638	0.000370	0.005062	-0.003154	-0.447266	-0.273438	-0.562500	-3.133312	32.670109	169.660158
02411		-5.345117	-0.464253	8.293936	-0.001595	0.002761	-0.002727	-0.443848	-0.271484	-0.572021	-3.131626	32.668591	169.662324
02412		-5.321183	-0.491545	8.272188	0.001352	0.006212	-0.003367	-0.453613	-0.270752	-0.571777	-3.129042	32.669352	169.663362
02413		-5.330313	-0.476155	8.242297	-0.003413	0.007631	-0.005940	-0.452393	-0.264404	-0.563965	-3.129675	32.670520	169.663163
02414		-5.350457	-0.472405	8.270056	0.001576	0.004104	-0.002880	-0.447754	-0.270752	-0.565186	-3.126747	32.670051	169.665202
02415		-5.331803	-0.446190	8.258109	-0.001654	0.005174	-0.001245	-0.450195	-0.273193	-0.571777	-3.124601	32.669959	169.668285
02416		-5.300016	-0.458926	8.282204	-0.001000	0.005715	-0.005393	-0.447754	-0.273682	-0.567139	-3.124095	32.670360	169.668106
02417		-5.324087	-0.462453	8.287043	0.000370	0.005062	-0.003152	-0.453613	-0.264893	-0.569336	-3.121486	32.670145	169.669897
02418		-5.319866	-0.485737	8.293346	-0.001818	0.004870	-0.003212	-0.447998	-0.264648	-0.561523	-3.120633	32.670116	169.671498
02419		-5.352447	-0.473639	8.268697	0.000042	0.004453	-0.007087	-0.443359	-0.275879	-0.559082	-3.119644	32.669429	169.670637
02420		-5.310211	-0.444317	8.251585	-0.002696	0.006437	0.000450	-0.447998	-0.272705	-0.563477	-3.117963	32.670391	169.674285
02421		-5.329633	-0.471004	8.263002	-0.002965	0.003415	-0.004967	-0.446045	-0.271729	-0.571777	-3.117898	32.669177	169.674904
02422		-5.321510	-0.487222	8.292204	-0.003248	0.007935	-0.003970	-0.442383	-0.265381	-0.569824	-3.118195	32.670896	169.675520
02423		-5.322763	-0.457318	8.308183	-0.002206	0.006673	-0.005664	-0.447021	-0.265869	-0.567383	-3.118015	32.671524	169.675544
02424		-5.307580	-0.469240	8.256773	-0.003412	0.007631	-0.005937	-0.444824	-0.267822	-0.567139	-3.119142	32.673029	169.675370
02425		-5.332435	-0.442654	8.277896	-0.003024	0.005827	-0.003484	-0.443115	-0.265625	-0.565186	-3.118615	32.673241	169.676907
02426		-5.328255	-0.466296	8.284149	-0.005376	0.005330	-0.005511	-0.449707	-0.265869	-0.561279	-3.120652	32.673427	169.676927
02427		-5.301224	-0.456315	8.301596	-0.002429	0.008782	-0.006148	-0.447021	-0.270508	-0.566406	-3.120821	32.675247	169.676544
02428		-5.318373	-0.456072	8.225674	-0.008176	0.009049	-0.008509	-0.447266	-0.265869	-0.571533	-3.125618	32.677415	169.674339
02429		-5.325616	-0.491761	8.289300	-0.003799	0.009435	-0.008387	-0.448975	-0.261963	-0.562744	-3.127406	32.679538	169.672411
02430		-5.330898	-0.469445	8.282270	-0.003575	0.007327	-0.007901	-0.452148	-0.269287	-0.569092	-3.129329	32.680767	169.671139
02431		-5.307077	-0.497284	8.260399	-0.004557	0.006176	-0.007689	-0.442627	-0.272461	-0.563965	-3.131230	32.681047	169.669806
02432		-5.336526	-0.447930	8.274976	-0.004556	0.006176	-0.007688	-0.446045	-0.270508	-0.563965	-3.133594	32.681617	169.668016
02433		-5.308724	-0.468473	8.276090	-0.004556	0.006176	-0.007688	-0.439941	-0.272217	-0.564209	-3.135494	32.681898	169.666683
02434		-5.328950	-0.465260	8.303774	-0.003737	0.007023	-0.009866	-0.441406	-0.278320	-0.566895	-3.138198	32.682896	169.663133
02435		-5.333364	-0.473454	8.280454	-0.004719	0.005872	-0.009654	-0.451416	-0.261475	-0.569580	-3.140907	32.682941	169.660475
02436		-5.342522	-0.458589	8.250499	-0.005824	0.009546	-0.006475	-0.448242	-0.267822	-0.566895	-3.143623	32.685492	169.659509
02437		-5.319521	-0.456112	8.244943	-0.003737	0.007023	-0.009864	-0.444336	-0.263672	-0.563232	-3.145869	32.686188	169.656665
02438		-5.312196	-0.442454	8.290478	-0.006087	0.006526	-0.011891	-0.443604	-0.265869	-0.565186	-3.150663	32.686819	169.652474
02439		-5.359268	-0.480532	8.283871	-0.005924	0.006830	-0.009923	-0.451416	-0.268555	-0.565186	-3.154181	32.687403	169.649596
02440		-5.316404	-0.482241	8.250344	-0.005924	0.006830	-0.009923	-0.442139	-0.265625	-0.569580	-3.158156	32.688258	169.646622
02441		-5.332812	-0.471846	8.300923	-0.004780	0.008285	-0.008166	-0.441895	-0.262207	-0.558838	-3.160403	32.689729	169.644885
02442		-5.312916	-0.507015	8.256053	-0.001710	0.006914	-0.011766	-0.446289	-0.268066	-0.573730	-3.162654	32.690610	169.640766
02443		-5.314280	-0.477357	8.272016	-0.006481	0.009001	-0.002327	-0.444092	-0.263428	-0.569580	-3.163747	32.692676	169.642971
02444		-5.338424	-0.481265	8.276742	-0.002962	0.003415	-0.004960	-0.447510	-0.271729	-0.565186	-3.164160	32.691797	169.643712
02445		-5.342850	-0.489065	8.253412	-0.001448	0.009934	-0.006347	-0.446045	-0.268066	-0.568604	-3.163864	32.694270	169.643149
02446		-5.348178	-0.466599	8.246384	-0.003573	0.007328	-0.007892	-0.452148	-0.266846	-0.567627	-3.165750	32.695481	169.641239
02447		-5.340060	-0.482892	8.275592	-0.002799	0.003718	-0.002993	-0.452881	-0.267578	-0.568115	-3.164870	32.694504	169.643189
02448		-5.312947	-0.472801	8.293174	-0.003572	0.007328	-0.007891	-0.449219	-0.265625	-0.566406	-3.166758	32.695677	169.641822
02449		-5.318102	-0.450382	8.286264	-0.003186	0.005523	-0.005442	-0.441406	-0.264404	-0.567627	-3.167036	32.695655	169.642040
02450		-5.346790	-0.431126	8.284508	0.000047	0.004458	-0.007074	-0.445801	-0.268066	-0.564209	-3.166503	32.695265	169.641254
02451		-5.322879	-0.458793	8.262669	-0.006805	0.008393	-0.006257	-0.452393	-0.273682	-0.562012	-3.169212	32.696859	169.640810
02452		-5.328161	-0.436453	8.255674	-0.001384	0.007523	-0.007827	-0.445068	-0.268066	-0.564697	-3.169791	32.698128	169.638799
02453		-5.347516	-0.463634	8.267012	-0.005632	0.002309	-0.010919	-0.439697	-0.270020	-0.568604	-3.173417	32.696093	169.635415
02454		-5.320266	-0.454051	8.284674	-0.006902	0.005678	-0.009705	-0.454346	-0.267090	-0.564941	-3.177835	32.696338	169.632228
02455		-5.338781	-0.511727	8.279617	-0.003283	0.002808	-0.008890	-0.445068	-0.268799	-0.561523	-3.179379	32.694652	169.630205
02456		-5.348344	-0.466334	8.266325	-0.002301	0.003960	-0.009099	-0.456299	-0.270020	-0.567627	-3.180883	32.693837	169.627842
02457		-5.321855	-0.426234	8.300441	-0.006838	0.003266	-0.011188	-0.449463	-0.269287	-0.558594	-3.185317	32.692340	169.624240
02458		-5.333682	-0.439553	8.357521	-0.015348	0.012373	-0.011604	-0.446289	-0.276611	-0.568604	-3.195370	32.696225	169.619794
02459		-5.405165	-0.481952	8.355294	-0.020962	0.020475	-0.005576	-0.441162	-0.274902	-0.567383	-3.206189	32.704752	169.619352
02460		-5.371792	-0.064432	8.447211	-0.059838	0.036066	-0.019014	-0.446533	-0.269775	-0.567139	-3.244955	32.722069	169.607977
02461		-5.386322	-0.520993	8.329447	-0.101260	0.046396	-0.029342	-0.446289	-0.271973	-0.570068	-3.311074	32.744644	169.590351
02462		-5.450415	-0.349995	8.279909	-0.105182	0.029791	-0.027820	-0.445801	-0.270996	-0.565674	-3.378941	32.758030	169.573876
02463		-5.411900	-0.507929	8.369465	-0.119890	0.019383	-0.030211	-0.447021	-0.265625	-0.563232	-3.455506	32.765090	169.556686
02464		-5.492083	-0.268613	8.405457	-0.149948	0.016250	-0.049072	-0.449463	-0.267090	-0.565918	-3.556543	32.769906	169.526365
02465		-5.466605	-0.372595	8.349519	-0.168695	0.007187	-0.070094	-0.443115	-0.261475	-0.565430	-3.675486	32.768500	169.482546
02466		-5.437739	-0.402185	8.476784	-0.191968	-0.008822	-0.075603	-0.441650	-0.253906	-0.570068	-3.809750	32.757895	169.435666
02467		-5.420884	-0.541856	8.226089	-0.217898	-0.029830	-0.114441	-0.443848	-0.263428	-0.573975	-3.972236	32.733427	169.363437
02468		-5.261565	-0.860673	8.161316	-0.207178	-0.024904	-0.124875	-0.438721	-0.251465	-0.568115	-4.132847	32.711513	169.284474
02469		-5.176260	-0.978358	8.124560	-0.175991	-0.018523	-0.114582	-0.440430	-0.252930	-0.565186	-4.271527	32.693171	169.211780
02470		-5.140472	-0.949874	8.078230	-0.138306	-0.005872	-0.087293	-0.452393	-0.259277	-0.564209	-4.379344	32.683404	169.157811
02471		-5.194683	-0.857121	8.131921	-0.097695	-0.001760	-0.060166	-0.453857	-0.252441	-0.566650	-4.453619	32.676810	169.121270
02472		-5.195495	-0.836358	8.148060	-0.067819	0.006141	-0.038389	-0.453857	-0.255859	-0.571289	-4.503421	32.675798	169.099837
02473		-5.202944	-0.759158	8.174998	-0.042399	0.010950	-0.020201	-0.445313	-0.248291	-0.558838	-4.531731	32.678213	169.089750
02474		-5.252319	-0.739571	8.200955	-0.017531	0.017298	-0.006407	-0.439697	-0.248291	-0.560303	-4.541362	32.685040	169.089506
02475		-5.282492	-0.720906	8.198645	-0.002603	0.023784	0.006942	-0.447754	-0.254639	-0.562744	-4.537298	32.696013	169.097146
02476		-5.242403	-0.778392	8.234057	0.017699	0.019832	0.020714	-0.445313	-0.251221	-0.568359	-4.516875	32.705552	169.114609
02477		-5.213678	-0.765060	8.147549	0.035475	0.032188	0.034968	-0.458740	-0.259033	-0.567627	-4.480944	32.722581	169.140838
02478		-5.251560	-0.776015	8.208391	0.050561	0.033880	0.045339	-0.443115	-0.255127	-0.567627	-4.433042	32.741216	169.174206
02479		-5.364816	-0.683912	8.225269	0.060972	0.034595	0.051704	-0.450439	-0.260498	-0.562256	-4.376385	32.760319	169.211720
02480		-5.317863	-0.631771	8.254119	0.063625	0.030575	0.052702	-0.445068	-0.260010	-0.569092	-4.318151	32.777360	169.249815
02481		-5.320773	-0.623589	8.252865	0.066792	0.031935	0.052584	-0.443604	-0.262939	-0.568359	-4.257708	32.794917	169.288124
02482		-5.355924	-0.602601	8.227206	0.068985	0.032138	0.052671	-0.448486	-0.254395	-0.563721	-4.196408	32.812810	169.326029
02483		-5.371185	-0.576652	8.300152	0.071251	0.029940	0.051257	-0.450439	-0.257080	-0.562256	-4.133794	32.829102	169.363595
02484		-5.329285	-0.597977	8.249268	0.070666	0.026964	0.053921	-0.440430	-0.250244	-0.562988	-4.070874	32.843976	169.403047
02485		-5.327278	-0.612251	8.254393	0.074588	0.031588	0.053146	-0.447754	-0.256836	-0.567383	-4.005646	32.861217	169.441874
02486		-5.364066	-0.530441	8.262475	0.073919	0.025922	0.052347	-0.444336	-0.264648	-0.563232	-3.941380	32.875392	169.480363
02487		-5.342763	-0.518302	8.256595	0.071279	0.024852	0.046430	-0.441406	-0.267334	-0.568604	-3.880312	32.888447	169.514991
02488		-5.401718	-0.589959	8.289377	0.067060	0.019651	0.043341	-0.441895	-0.262207	-0.565430	-3.823082	32.898622	169.547130
02489		-5.437352	-0.509534	8.297834	0.060499	0.013960	0.038221	-0.443115	-0.267334	-0.566406	-3.770927	32.905082	169.576699
02490		-5.362649	-0.515692	8.289245	0.053851	0.005572	0.029627	-0.440918	-0.267822	-0.568604	-3.725978	32.906648	169.600286
02491		-5.366992	-0.516949	8.266154	0.047454	0.005275	0.031428	-0.442383	-0.262451	-0.564453	-3.683593	32.907849	169.625626
02492		-5.407564	-0.504586	8.321913	0.040659	0.008591	0.020291	-0.444824	-0.262451	-0.567383	-3.649722	32.910774	169.642757
02493		-5.329433	-0.484775	8.226620	0.040421	0.005598	0.014866	-0.448730	-0.260254	-0.569580	-3.617500	32.911532	169.656805
02494		-5.365232	-0.496364	8.288754	0.039373	0.006850	0.016576	-0.447998	-0.259766	-0.564941	-3.585695	32.913298	169.671790
02495		-5.341264	-0.519171	8.267032	0.037034	0.006359	0.014555	-0.448486	-0.268066	-0.565918	-3.555545	32.914468	169.685596
02496		-5.389233	-0.522148	8.276660	0.039893	0.007118	0.010488	-0.439941	-0.273193	-0.568848	-3.525685	32.916137	169.696312
02497		-5.367234	-0.484804	8.288142	0.036281	0.009990	0.009699	-0.445068	-0.264404	-0.566895	-3.497845	32.919201	169.706659
02498		-5.352819	-0.462105	8.253417	0.034769	0.010355	0.005505	-0.446045	-0.265869	-0.564697	-3.472833	32.922570	169.713575
02499		-5.420000	-0.492518	8.274156	0.029262	0.008514	0.003619	-0.438232	-0.268799	-0.561279	-3.451230	32.924572	169.719844
02500		-5.377992	-0.459894	8.257649	0.030622	0.007854	0.005857	-0.434814	-0.260254	-0.568604	-3.428395	32.926501	169.727159
02501		-5.371103	-0.443278	8.303480	0.023292	0.005780	-0.004168	-0.441406	-0.272461	-0.558350	-3.413035	32.926669	169.728235
02502		-5.223419	-0.505140	8.246923	0.017651	0.015641	-0.008609	-0.444336	-0.266357	-0.569580	-3.403160	32.932574	169.725406
02503		-5.200333	-0.551912	8.334160	0.012266	0.033618	-0.002657	-0.444092	-0.270752	-0.566162	-3.394169	32.948715	169.726386
02504		-5.371685	-0.493473	8.289529	0.012289	0.045619	-0.003232	-0.442383	-0.268799	-0.562256	-3.386030	32.971921	169.726072
02505		-5.437704	-0.400327	8.294036	0.005203	0.046546	-0.007824	-0.433594	-0.268799	-0.569580	-3.383286	32.995281	169.723013
02506		-5.431993	-0.328518	8.267113	-0.007381	0.052516	-0.019856	-0.438965	-0.259766	-0.569336	-3.392737	33.021884	169.710973
02507		-5.426083	-0.407382	8.260489	-0.019363	0.054563	-0.028980	-0.435547	-0.264648	-0.565918	-3.412121	33.049110	169.693144
02508		-5.397489	-0.453568	8.265521	-0.023053	0.054729	-0.033230	-0.436768	-0.265137	-0.573242	-3.435602	33.076524	169.672277
02509		-5.368061	-0.530722	8.253798	-0.030576	0.059875	-0.038746	-0.444336	-0.268555	-0.562500	-3.465206	33.106439	169.647524
02510		-5.356486	-0.566865	8.309279	-0.028227	0.065483	-0.031718	-0.441162	-0.260986	-0.566895	-3.491355	33.140012	169.626991
02511		-5.297047	-0.507419	8.301009	-0.032869	0.081609	-0.031347	-0.448975	-0.269287	-0.567871	-3.520060	33.182595	169.606329
02512		-5.305398	-0.481842	8.312701	-0.039695	0.097537	-0.031025	-0.435547	-0.258545	-0.568604	-3.553318	33.234464	169.585043
02513		-5.231402	-0.485783	8.345109	-0.050870	0.119963	-0.036334	-0.437500	-0.264404	-0.562988	-3.595186	33.298781	169.559246
02514		-5.231701	-0.352559	8.370040	-0.069776	0.154754	-0.042607	-0.431641	-0.260742	-0.562744	-3.651511	33.382930	169.527466
02515		-5.302100	-0.471223	8.377154	-0.083242	0.193804	-0.045367	-0.435303	-0.259033	-0.570068	-3.717305	33.489092	169.492023
02516		-5.249491	-0.492468	8.461295	-0.104191	0.238005	-0.053530	-0.435791	-0.262695	-0.569824	-3.799823	33.620343	169.448718
02517		-5.230957	-0.562828	8.484382	-0.110931	0.300175	-0.044305	-0.426025	-0.257813	-0.573730	-3.884195	33.787274	169.408635
02518		-5.279191	-0.786145	8.456908	-0.099989	0.363624	-0.005838	-0.431641	-0.260010	-0.570313	-3.949842	33.992073	169.391606
02519		-5.468372	-0.745541	8.442595	-0.082669	0.411796	0.014200	-0.424072	-0.261719	-0.569580	-3.998977	34.225050	169.385902
02520		-5.574132	-0.605647	8.434608	-0.078315	0.460592	0.023554	-0.419678	-0.257568	-0.573242	-4.043808	34.486359	169.383778
02521		-5.428844	-0.052394	8.805438	-0.111570	0.509575	0.057208	-0.415527	-0.253906	-0.567383	-4.095603	34.776959	169.402607
02522		-4.838813	-0.042664	9.176091	-0.437056	0.585649	0.187393	-0.414307	-0.255127	-0.574707	-4.284747	35.116563	169.507466
02523		-3.156210	-2.841470	9.422736	-0.129064	0.880077	0.158771	-0.405273	-0.262207	-0.570801	-4.317211	35.623271	169.576664
02524		-5.231952	0.246138	9.331529	-0.038506	1.165285	0.166023	-0.399170	-0.250977	-0.571777	-4.303248	36.293070	169.635536
02525		-4.795647	-1.082179	9.193554	-0.053267	1.358395	0.197033	-0.391846	-0.257324	-0.582520	-4.289281	37.074702	169.707609
02526		-5.149727	-1.098833	9.350673	0.030835	1.584157	0.211298	-0.374756	-0.249268	-0.583740	-4.226867	37.985580	169.779001
02527		-5.097102	-1.026475	9.234118	0.132439	1.802239	0.241809	-0.358643	-0.250488	-0.587646	-4.096436	39.022570	169.864318
02528		-5.474954	-0.799909	9.137947	0.161452	2.019131	0.265474	-0.344971	-0.248291	-0.585205	-3.941575	40.183837	169.960283
02529		-5.580115	-1.103089	8.965355	0.234660	2.229792	0.292689	-0.326172	-0.252441	-0.593018	-3.731956	41.466802	170.073060
02530		-5.857019	-0.907475	8.867654	0.296074	2.393976	0.344406	-0.303955	-0.260498	-0.586182	-3.457774	42.844507	170.227077
02531		-6.112346	-1.180269	8.691568	0.325730	2.552637	0.400912	-0.277344	-0.261230	-0.593750	-3.128103	44.314838	170.432470
02532		-6.275888	-1.230635	8.160808	0.412903	2.658093	0.433184	-0.256836	-0.257813	-0.588379	-2.716498	45.844677	170.678007
02533		-6.983051	-0.176671	7.955823	0.353940	2.787498	0.466957	-0.229248	-0.263916	-0.590576	-2.299520	47.448927	170.970555
02534		-7.830262	-0.203586	8.081407	0.163749	2.796188	0.472525	-0.211670	-0.269531	-0.587891	-1.964742	49.056028	171.291961
02535		-7.803470	-2.479572	7.291210	0.176158	2.756631	0.567680	-0.188232	-0.263672	-0.599609	-1.530042	50.641559	171.726713
02536		-7.380066	-1.837930	6.657992	0.531689	2.746681	0.669897	-0.163574	-0.270508	-0.587891	-0.779170	52.218644	172.295997
02537		-7.548831	0.187181	6.240152	0.519458	2.742153	0.720762	-0.138428	-0.278809	-0.588135	0.059344	53.789190	172.971344
02538		-8.723972	0.679245	6.182562	0.298880	2.753585	0.704623	-0.109375	-0.281982	-0.582520	0.820083	55.359560	173.693390
02539		-9.547364	-0.255597	6.194685	0.100661	2.563310	0.667140	-0.104980	-0.283936	-0.578125	1.496676	56.816965	174.437376
02540		-8.051311	-1.047545	5.263383	0.211616	2.559284	0.703780	-0.071045	-0.289795	-0.572510	2.333816	58.264819	175.284460
02541		-8.699763	-0.107047	5.437284	0.306199	2.522997	0.741119	-0.049805	-0.291504	-0.575928	3.340046	59.684290	176.252187
02542		-9.407650	0.543372	5.241699	0.204279	2.422383	0.720057	-0.041992	-0.289307	-0.563477	4.349435	61.037144	177.277568
02543		-9.305989	1.227956	5.024533	0.010633	2.296299	0.661914	-0.017334	-0.294678	-0.558350	5.268374	62.312986	178.312881
02544		-9.498119	1.000125	4.590017	-0.202215	2.151080	0.592711	-0.001221	-0.295166	-0.556152	6.056448	63.501593	179.326943
02545		-9.226326	0.797064	4.067175	-0.332005	2.026760	0.553093	0.015625	-0.294922	-0.551270	6.788066	64.616601	-179.649564
02546		-8.923247	0.720223	3.660802	-0.398715	1.907080	0.523209	0.032959	-0.285645	-0.545166	7.500726	65.659139	-178.613612
02547		-8.608726	0.763851	3.339002	-0.423588	1.836031	0.513793	0.042725	-0.293701	-0.540283	8.251951	66.657264	-177.528561
02548		-7.526168	0.400282	3.400898	-0.401531	1.788321	0.509497	0.051025	-0.283203	-0.532959	9.078738	67.621849	-176.382919
02549		-8.525270	0.958203	4.487587	-0.435339	1.640332	0.442312	0.067871	-0.293945	-0.535156	9.841769	68.503594	-175.292997
02550		-8.069716	0.998261	4.991315	-0.531151	1.361207	0.366601	0.086426	-0.282471	-0.529297	10.433839	69.229869	-174.333235
02551		-7.183927	0.411113	5.423141	-0.551821	1.103311	0.308185	0.093262	-0.275391	-0.518066	10.904261	69.814661	-173.495119
02552		-6.664535	0.186066	6.027158	-0.530871	0.824682	0.211771	0.101807	-0.273682	-0.517822	11.183338	70.250438	-172.875816
02553		-5.762455	-0.054585	6.498279	-0.516052	0.540304	0.074829	0.107422	-0.280273	-0.520996	11.183110	70.542040	-172.563707
02554		-5.209966	-0.336335	6.622642	-0.485769	0.287682	-0.090669	0.104248	-0.270264	-0.521240	10.855546	70.708676	-172.617106
02555		-5.146664	-0.322370	6.571882	-0.458020	0.076785	-0.271577	0.105469	-0.269531	-0.504639	10.187254	70.776598	-173.048541
02556		-5.478839	-0.072282	6.642974	-0.453338	-0.118540	-0.441343	0.110840	-0.262451	-0.515869	9.186612	70.746747	-173.834426
02557		-5.354705	0.018148	6.600697	-0.462492	-0.325523	-0.585744	0.107422	-0.258057	-0.516602	7.905425	70.608521	-174.912792
02558		-6.747479	0.607595	6.187585	-0.479794	-0.498879	-0.654558	0.107422	-0.248047	-0.519775	6.485901	70.366122	-176.128304
02559		-7.669505	1.165032	6.070750	-0.547644	-0.739459	-0.646933	0.094482	-0.244385	-0.524658	5.040942	69.978274	-177.332278
02560		-8.802869	1.154496	6.008048	-0.613181	-0.995568	-0.602274	0.089355	-0.235107	-0.523193	3.649391	69.429636	-178.442535
02561		-8.849727	0.508899	6.372742	-0.605215	-1.326305	-0.588834	0.079834	-0.232422	-0.524902	2.328336	68.684950	-179.487242
02562		-7.991799	-0.137588	7.093727	-0.503916	-1.669352	-0.629793	0.071533	-0.228760	-0.535156	1.073749	67.733470	179.471373
02563		-7.807674	-0.325013	7.562923	-0.386770	-2.005623	-0.744879	0.055664	-0.218506	-0.531982	-0.173363	66.584446	178.357127
02564		-7.963909	0.045598	7.255988	-0.339330	-2.325444	-0.882277	0.041748	-0.213135	-0.545898	-1.448972	65.238640	177.171630
02565		-6.967067	-0.071590	6.928864	-0.332985	-2.582668	-1.010517	0.022461	-0.207031	-0.547119	-2.730565	63.735598	175.961506
02566		-6.316139	-0.304747	6.589272	-0.265192	-2.660758	-1.055821	-0.009521	-0.195068	-0.560059	-3.886070	62.172153	174.833490
02567		-5.759289	-0.523102	6.302885	-0.162603	-2.623215	-1.021504	-0.019531	-0.190674	-0.567871	-4.832205	60.626034	173.860443
02568		-5.853973	-0.500318	6.376304	-0.024879	-2.531092	-0.934580	-0.039551	-0.194824	-0.578125	-5.532980	59.126699	173.065357
02569		-6.218180	-0.415798	6.578624	0.080375	-2.451550	-0.825933	-0.061279	-0.195801	-0.578125	-6.015330	57.678712	172.443357
02570		-6.645739	-0.361210	6.868897	0.143556	-2.402381	-0.713455	-0.077881	-0.191406	-0.582031	-6.324131	56.259473	171.975411
02571		-7.056948	-0.332620	7.266837	0.169125	-2.370424	-0.615016	-0.097900	-0.199219	-0.593994	-6.509835	54.867631	171.631043
02572		-7.452347	-0.401179	7.582465	0.176856	-2.357315	-0.520215	-0.114746	-0.191650	-0.595947	-6.598961	53.484844	171.394516
02573		-7.884693	-0.538202	7.953620	0.177088	-2.358588	-0.459369	-0.133301	-0.194580	-0.604004	-6.630607	52.109351	171.225608
02574		-8.324944	-0.759539	8.214351	0.168318	-2.374540	-0.406320	-0.152344	-0.200928	-0.608398	-6.621416	50.723991	171.112247
02575		-8.645383	-0.890752	8.318974	0.166206	-2.388347	-0.362536	-0.179688	-0.191895	-0.603271	-6.578930	49.337965	171.041560
02576		-8.732221	-0.989115	8.286246	0.168345	-2.402066	-0.326275	-0.197998	-0.201660	-0.615234	-6.509811	47.942199	171.003297
02577		-8.762046	-0.965954	8.214919	0.153224	-2.385753	-0.292882	-0.219727	-0.193848	-0.618164	-6.430397	46.562254	170.989938
02578		-8.955808	-1.096996	8.098604	0.126534	-2.349183	-0.263630	-0.238281	-0.196777	-0.613037	-6.353105	45.200672	170.994690
02579		-9.041095	-1.416136	7.891190	0.109921	-2.318801	-0.223277	-0.259033	-0.197021	-0.620117	-6.266560	43.863268	171.026246
02580		-9.247564	-1.685361	7.725945	0.109478	-2.248073	-0.149674	-0.276611	-0.193115	-0.624023	-6.148399	42.566427	171.105227
02581		-9.126021	-1.776626	7.475775	0.119952	-2.189839	-0.102476	-0.299805	-0.203125	-0.623291	-6.008077	41.309746	171.210204
02582		-9.488136	-1.642512	7.353637	0.093096	-2.108407	-0.067998	-0.322266	-0.203369	-0.622559	-5.876236	40.097266	171.328623
02583		-9.210823	-1.497723	7.130270	-0.002172	-2.010784	-0.070371	-0.339600	-0.205322	-0.620117	-5.809408	38.944205	171.433343
02584		-9.367060	-1.451560	7.089960	-0.098000	-1.936108	-0.117996	-0.355225	-0.196533	-0.621094	-5.825873	37.827102	171.495333
02585		-9.200378	-1.387061	6.963514	-0.215608	-1.855131	-0.162617	-0.377930	-0.194580	-0.621338	-5.932896	36.757393	171.520230
02586		-9.122247	-1.366589	6.967409	-0.303666	-1.796757	-0.259389	-0.389160	-0.188477	-0.614014	-6.132299	35.711677	171.475329
02587		-8.955682	-1.699773	6.958322	-0.323681	-1.768190	-0.382577	-0.406250	-0.188232	-0.608398	-6.389526	34.677895	171.348337
02588		-8.396866	-2.001540	6.929890	-0.227070	-1.754396	-0.521396	-0.421387	-0.191406	-0.607422	-6.640268	33.639321	171.131577
02589		-7.647296	-1.769706	6.833349	-0.053867	-1.713168	-0.657745	-0.436279	-0.188965	-0.614502	-6.836402	32.617516	170.826569
02590		-7.006743	-1.783115	6.787642	0.112805	-1.612579	-0.762311	-0.456543	-0.191162	-0.595459	-6.971205	31.642103	170.449690
02591		-6.698244	-1.948663	6.971339	0.298915	-1.509884	-0.799029	-0.479980	-0.198486	-0.604736	-7.007600	30.724945	170.045876
02592		-6.412324	-1.519893	7.136807	0.433949	-1.415939	-0.770650	-0.489014	-0.190430	-0.604492	-6.954474	29.860569	169.656397
02593		-6.377858	-0.786851	7.240576	0.463516	-1.351821	-0.768461	-0.498779	-0.207764	-0.589355	-6.879510	29.035862	169.265782
02594		-6.305808	-0.410741	7.286065	0.406775	-1.314578	-0.773500	-0.518555	-0.207031	-0.587646	-6.834774	28.229875	168.870779
02595		-5.992757	-0.318658	7.289537	0.325922	-1.304715	-0.763035	-0.520752	-0.206055	-0.579834	-6.826903	27.432849	168.484596
02596		-5.615531	-0.204546	7.182432	0.227402	-1.255940	-0.701981	-0.538574	-0.214600	-0.582275	-6.853981	26.665401	168.136301
02597		-5.185682	-0.289402	7.129202	0.189282	-1.214047	-0.615745	-0.555176	-0.214355	-0.575684	-6.874304	25.929840	167.842414
02598		-4.656217	-0.431925	7.105488	0.161284	-1.123338	-0.473461	-0.556641	-0.220703	-0.572266	-6.871241	25.253482	167.633055
02599		-4.551631	-0.389337	7.108554	0.168809	-1.032563	-0.332119	-0.571045	-0.224854	-0.571289	-6.826458	24.640612	167.506526
02600		-5.103330	0.045801	7.000279	0.135030	-0.966011	-0.214817	-0.577393	-0.222412	-0.567383	-6.772033	24.071671	167.448154
02601		-5.526348	-0.084655	6.862544	0.044075	-0.951456	-0.130716	-0.589844	-0.223145	-0.565674	-6.748238	23.518711	167.440995
02602		-6.620465	-0.366025	6.851396	-0.054428	-0.979790	-0.053014	-0.593994	-0.220703	-0.552734	-6.761302	22.953083	167.483886
02603		-8.089278	-0.579051	6.756140	-0.163718	-1.117128	-0.018662	-0.599609	-0.222168	-0.552734	-6.825012	22.313458	167.558370
02604		-8.526410	-0.871395	6.200596	-0.240897	-1.339868	-0.012213	-0.616699	-0.221191	-0.550293	-6.926174	21.546287	167.653799
02605		-8.171715	-0.998921	5.401463	-0.292001	-1.532051	0.015964	-0.632080	-0.214355	-0.538086	-7.045912	20.673341	167.781904
02606		-7.463443	-1.278136	4.375682	-0.289029	-1.594143	0.075560	-0.638672	-0.215820	-0.535645	-7.151602	19.768701	167.951786
02607		-6.814468	-1.857027	3.481188	-0.099718	-1.515839	0.278115	-0.653564	-0.216797	-0.535400	-7.112641	18.923926	168.237539
02608		-6.917625	-1.535597	3.231785	0.294048	-1.365858	0.638676	-0.662354	-0.203613	-0.531494	-6.788150	18.188260	168.724331
02609		-7.261366	0.519937	3.385029	0.581578	-1.247619	0.988916	-0.666504	-0.212402	-0.515869	-6.244734	17.539536	169.404850
02610		-6.897716	2.134230	3.386628	0.539834	-1.114954	1.192421	-0.672363	-0.206299	-0.510498	-5.701532	16.972635	170.189648
02611		-6.427797	2.382653	3.049881	0.293610	-0.880474	1.284098	-0.685791	-0.209717	-0.513184	-5.295746	16.538105	171.008700
02612		-6.547086	1.717193	2.664809	0.090226	-0.587904	1.291783	-0.678955	-0.205078	-0.504883	-5.015778	16.266962	171.812364
02613		-5.099012	0.752667	3.789342	0.043620	-0.241483	1.245112	-0.681885	-0.194580	-0.502197	-4.778011	16.187098	172.568658
02614		16.114804	0.974470	26.997241	-0.161593	1.146750	1.033376	-0.677734	-0.182861	-0.513672	-4.708975	16.889095	173.131219
02615		2.339041	-2.538981	15.398511	-0.337133	0.036895	0.850957	-0.676514	-0.182373	-0.515625	-4.752361	16.947456	173.640992
02616		2.396396	-3.434112	3.288031	-0.238457	0.692763	0.612694	-0.669678	-0.164795	-0.516113	-4.788480	17.369041	173.976340
02617		0.422937	-1.373083	4.146343	-0.247946	1.815762	0.175241	-0.650146	-0.173584	-0.520752	-4.924103	18.411252	173.992660
02618		-3.687782	-1.861137	10.595622	-0.563212	2.203620	-0.602313	-0.639160	-0.181885	-0.530762	-5.401871	19.634293	173.512700
02619		-4.983518	-3.663088	9.603119	-0.582433	2.049982	-0.934805	-0.627930	-0.174805	-0.542969	-5.971646	20.747148	172.824678
02620		-4.702833	-1.857653	7.765967	-0.444460	1.998145	-0.872961	-0.610840	-0.167969	-0.555420	-6.465747	21.827851	172.161768
02621		-2.769222	-1.246581	8.865556	-0.371211	2.155284	-0.804703	-0.595703	-0.169189	-0.567383	-6.923755	22.997786	171.514668
02622		-3.825037	-0.640121	9.396712	-0.314487	2.301689	-0.658387	-0.578125	-0.167725	-0.572510	-7.336543	24.256387	170.931350
02623		-5.233903	-0.697498	8.771885	-0.280093	2.338099	-0.486731	-0.560547	-0.178711	-0.578369	-7.703625	25.545267	170.437323
02624		-6.444252	-0.670159	9.524535	-0.134894	2.322953	-0.241203	-0.552734	-0.168213	-0.579590	-7.934306	26.841972	170.086989
02625		-6.838635	-0.520564	9.482399	-0.236819	2.194063	-0.135325	-0.537598	-0.168945	-0.590820	-8.198193	28.073057	169.805881
02626		-6.392954	-2.798538	9.379066	-0.136051	2.188090	-0.011147	-0.524414	-0.171387	-0.592773	-8.375167	29.309838	169.596882
02627		-8.495492	-3.019795	9.432073	-0.119287	2.090213	0.040139	-0.496582	-0.165283	-0.599121	-8.528084	30.495136	169.424387
02628		-9.626432	-2.881355	9.222768	-0.033481	1.816240	0.049778	-0.481689	-0.168213	-0.605225	-8.620201	31.525671	169.280480
02629		-16.070138	-5.495785	10.889584	0.366296	1.271427	0.442846	-0.473633	-0.163574	-0.608887	-8.317122	32.280890	169.454130
02630		-10.867239	-2.514891	8.710139	0.488083	0.326664	0.506293	-0.468750	-0.176758	-0.602295	-7.868784	32.504783	169.767124
02631		-6.856057	1.323955	9.070722	0.354861	0.085634	0.451920	-0.476318	-0.162109	-0.614014	-7.502101	32.585306	170.068134
02632		-5.670619	-1.201877	8.527926	0.284736	0.110538	0.385352	-0.468506	-0.181152	-0.609619	-7.200675	32.674329	170.322615
02633		-5.631353	-0.936908	8.187576	0.277529	0.093136	0.320828	-0.468506	-0.174072	-0.607666	-6.924927	32.747119	170.535987
02634		-5.514630	0.211723	8.540685	0.245858	0.073734	0.288115	-0.462646	-0.176025	-0.606689	-6.678463	32.806559	170.729061
02635		-5.598426	0.309930	8.432795	0.179656	0.037487	0.257450	-0.467041	-0.178467	-0.609863	-6.478809	32.841995	170.904849
02636		-6.214434	-0.049730	8.466038	0.124022	-0.003648	0.193299	-0.464600	-0.176025	-0.610840	-6.333130	32.850199	171.040261
02637		-5.417674	-0.583708	8.271371	0.097896	-0.042511	0.157502	-0.468506	-0.179443	-0.605225	-6.213648	32.833028	171.154514
02638		-5.608220	-0.687990	8.357993	0.076929	-0.035096	0.111301	-0.462402	-0.176025	-0.605469	-6.123799	32.817826	171.236690
02639		-5.748148	-0.460659	8.432542	0.045020	-0.033514	0.059759	-0.468506	-0.180664	-0.610107	-6.070978	32.799538	171.283932
02640		-5.636461	-0.837813	8.330873	0.014102	-0.037375	0.027405	-0.462646	-0.178955	-0.606445	-6.047872	32.777846	171.309364
02641		-5.429892	-0.881660	8.184444	-0.000522	-0.036272	-0.001460	-0.475342	-0.182617	-0.613281	-6.043539	32.754256	171.315281
02642		-5.179612	-0.803007	8.228974	-0.005243	-0.013524	-0.009782	-0.462402	-0.179688	-0.614746	-6.046092	32.743913	171.313793
02643		-5.170550	-1.117928	8.175651	-0.005522	0.004857	-0.021258	-0.465332	-0.178223	-0.617188	-6.053477	32.742562	171.303347
02644		-5.398176	-0.813512	8.264417	-0.013496	0.027920	-0.053997	-0.466309	-0.176025	-0.604980	-6.078580	32.753138	171.268923
02645		-5.736951	-0.073832	8.493732	-0.059306	0.020214	-0.110221	-0.464111	-0.185303	-0.610840	-6.149990	32.755098	171.197099
02646		-5.464935	-0.301598	8.449432	-0.119422	0.007708	-0.159706	-0.470947	-0.170166	-0.611816	-6.273681	32.747542	171.092569
02647		-5.506979	-0.620053	8.398370	-0.161088	0.010012	-0.197183	-0.470215	-0.179199	-0.611328	-6.434822	32.737924	170.962640
02648		-5.540285	-0.874840	8.303862	-0.196770	-0.004121	-0.219289	-0.467773	-0.181152	-0.606934	-6.624005	32.719265	170.818818
02649		-5.524263	-1.153513	8.307884	-0.204219	-0.010749	-0.223923	-0.468018	-0.173340	-0.613525	-6.818599	32.695340	170.672588
02650		-5.555485	-0.844972	8.259320	-0.212632	-0.032903	-0.229807	-0.466553	-0.167236	-0.606934	-7.019202	32.658769	170.524258
02651		-5.240458	-1.185074	8.181249	-0.208327	-0.044351	-0.217230	-0.473877	-0.167969	-0.604980	-7.211865	32.615369	170.385692
02652		-5.095970	-1.465500	8.039876	-0.175597	-0.031268	-0.192479	-0.467529	-0.167969	-0.602539	-7.377362	32.581626	170.262824
02653		-5.203472	-1.466003	8.127652	-0.131242	-0.020655	-0.149169	-0.459473	-0.173340	-0.614258	-7.501928	32.556079	170.168455
02654		-5.485200	-1.258436	8.272361	-0.113631	-0.018516	-0.133048	-0.470703	-0.166504	-0.610596	-7.610802	32.533570	170.084727
02655		-5.529554	-1.132833	8.273235	-0.118622	-0.036551	-0.133868	-0.465576	-0.160889	-0.610107	-7.721658	32.499852	170.002278
02656		-5.221329	-1.195494	8.110677	-0.108051	-0.038206	-0.127274	-0.473877	-0.175537	-0.610596	-7.824123	32.466353	169.924402
02657		-5.167365	-1.167343	8.144820	-0.082686	-0.028974	-0.102352	-0.463867	-0.172852	-0.607178	-7.903209	32.439167	169.862643
02658		-5.251844	-0.971617	8.264277	-0.078581	-0.014433	-0.102726	-0.476074	-0.166260	-0.603760	-7.980992	32.420900	169.799204
02659		-5.265497	-1.099657	8.342634	-0.095091	-0.012860	-0.115156	-0.467773	-0.162109	-0.609619	-8.072513	32.401683	169.727434
02660		-5.154689	-1.258690	8.256018	-0.085538	0.001239	-0.103359	-0.469238	-0.167236	-0.606689	-8.155221	32.392084	169.662167
02661		-5.449934	-1.093945	8.312476	-0.087675	-0.003854	-0.108436	-0.469727	-0.166748	-0.609863	-8.240468	32.378343	169.594127
02662		-5.049460	-1.255337	8.156095	-0.085212	0.001664	-0.099278	-0.478027	-0.164307	-0.597656	-8.321493	32.369155	169.531611
02663		-5.153817	-1.418882	8.128381	-0.054272	0.022582	-0.072424	-0.477539	-0.167236	-0.599121	-8.376012	32.373245	169.485192
02664		-5.239496	-1.028509	8.179072	-0.043682	0.028380	-0.057269	-0.470215	-0.162842	-0.610352	-8.419569	32.382592	169.448236
02665		-5.223496	-0.733296	8.285054	-0.063669	0.037912	-0.063100	-0.471924	-0.168213	-0.603271	-8.476961	32.396086	169.406529
02666		-5.110982	-1.216371	8.190001	-0.071127	0.067497	-0.066142	-0.473145	-0.161865	-0.597656	-8.541540	32.426780	169.359675
02667		-4.974133	-1.567221	8.086181	-0.045340	0.094100	-0.054262	-0.478271	-0.164795	-0.606689	-8.588364	32.472791	169.318161
02668		-5.005634	-1.665912	8.003170	-0.002784	0.131877	-0.012094	-0.467529	-0.162354	-0.602295	-8.597925	32.544505	169.300968
02669		-5.061517	-1.728837	7.966809	0.059722	0.152714	0.027272	-0.479492	-0.170166	-0.606201	-8.558352	32.630684	169.308256
02670		-5.080011	-1.419170	7.946314	0.108908	0.162214	0.064463	-0.467529	-0.168213	-0.607910	-8.477795	32.726086	169.339592
02671		-4.919045	-1.574928	8.051380	0.146235	0.196095	0.105549	-0.472168	-0.162842	-0.607666	-8.362240	32.843402	169.395621
02672		-5.644066	-1.369305	8.206204	0.163636	0.183495	0.116238	-0.467041	-0.162598	-0.609375	-8.232123	32.955026	169.460318
02673		-5.611920	-0.974098	8.260673	0.139230	0.141585	0.103033	-0.469482	-0.169678	-0.615479	-8.118050	33.041020	169.520674
02674		-5.307233	-1.292084	8.157776	0.120713	0.118898	0.090631	-0.466797	-0.172119	-0.614502	-8.018070	33.113735	169.574896
02675		-5.214445	-1.553675	8.049025	0.147562	0.122968	0.116702	-0.464355	-0.169434	-0.613037	-7.892784	33.190054	169.646778
02676		-5.336098	-1.482137	7.898100	0.203183	0.113962	0.159751	-0.461670	-0.180176	-0.603271	-7.719239	33.265125	169.748836
02677		-5.534897	-1.297008	8.114093	0.244839	0.078566	0.203128	-0.464600	-0.176025	-0.610352	-7.503258	33.322424	169.884133
02678		-5.647835	-1.051214	8.281663	0.226646	0.029952	0.193262	-0.458008	-0.178955	-0.607910	-7.299114	33.351632	170.017143
02679		-5.755816	-0.629163	8.332710	0.179381	-0.001481	0.153541	-0.453613	-0.177734	-0.611328	-7.134967	33.359082	170.126158
02680		-5.484093	-0.792339	8.288164	0.138731	-0.007666	0.129608	-0.457031	-0.178467	-0.622314	-7.003076	33.361779	170.219257
02681		-5.514401	-0.727138	8.307305	0.102137	0.003036	0.106796	-0.457520	-0.179688	-0.615479	-6.900856	33.368135	170.296117
02682		-5.509961	-0.767031	8.293701	0.074431	0.012383	0.084383	-0.458496	-0.178955	-0.608154	-6.823595	33.378857	170.356806
02683		-5.466139	-0.876999	8.163156	0.061427	0.020240	0.066613	-0.457275	-0.171631	-0.615479	-6.760490	33.392099	170.404929
02684		-5.408772	-0.995292	8.107661	0.058829	0.033737	0.062221	-0.452637	-0.166992	-0.612549	-6.701356	33.413365	170.448855
02685		-5.373520	-1.174660	8.019018	0.079138	0.034233	0.070810	-0.452148	-0.179932	-0.608887	-6.627082	33.434759	170.498782
02686		-5.361873	-1.198595	8.075107	0.108746	0.038984	0.091048	-0.460205	-0.173340	-0.616943	-6.528671	33.460803	170.562042
02687		-5.495852	-1.096622	8.122837	0.130256	0.029077	0.103593	-0.458740	-0.175537	-0.614258	-6.412453	33.481238	170.634855
02688		-5.496345	-0.895187	8.154221	0.132507	0.022430	0.110997	-0.457520	-0.184570	-0.611572	-6.292115	33.498908	170.713133
02689		-5.557685	-0.780917	8.189369	0.121626	0.023389	0.098509	-0.455322	-0.180908	-0.619629	-6.182414	33.515540	170.783028
02690		-5.543641	-0.830864	8.227871	0.116624	0.016898	0.083452	-0.460205	-0.180176	-0.614014	-6.081241	33.528123	170.843003
02691		-5.522935	-0.784904	8.242058	0.103424	0.017430	0.068883	-0.460693	-0.188477	-0.608398	-5.992841	33.539370	170.893168
02692		-5.621709	-0.579251	8.283531	0.088307	0.034486	0.047245	-0.461914	-0.181641	-0.614258	-5.922198	33.559670	170.927199
02693		-5.604408	-0.573813	8.254206	0.056854	0.038941	0.013130	-0.461426	-0.179199	-0.614990	-5.882354	33.579794	170.937760
02694		-5.527116	-0.907517	8.146198	0.048841	0.045705	0.001576	-0.460693	-0.190918	-0.623047	-5.851965	33.603773	170.939826
02695		-5.454926	-1.008964	8.058617	0.062022	0.035776	0.019975	-0.454834	-0.181152	-0.614014	-5.806417	33.622479	170.955330
02696		-5.444834	-0.892866	8.079595	0.080843	0.032295	0.033394	-0.452637	-0.186768	-0.621094	-5.745098	33.640646	170.980148
02697		-5.402320	-0.818448	8.106821	0.090224	0.034224	0.043523	-0.459229	-0.181641	-0.622070	-5.674358	33.659783	171.011939
02698		-5.368037	-0.811212	8.176963	0.090815	0.044599	0.047802	-0.452393	-0.181152	-0.618408	-5.602267	33.685722	171.045857
02699		-5.448063	-0.788200	8.182267	0.083965	0.050914	0.050521	-0.452881	-0.181152	-0.621826	-5.533006	33.714700	171.081405
02700		-5.454867	-0.720340	8.216407	0.073819	0.055657	0.051373	-0.456787	-0.183105	-0.617676	-5.469613	33.747064	171.117139
02701		-5.482467	-0.744763	8.199869	0.060844	0.052211	0.049533	-0.453125	-0.189209	-0.612305	-5.413934	33.776662	171.152027
02702		-5.456323	-0.845354	8.143905	0.059786	0.060222	0.044042	-0.452881	-0.187500	-0.620117	-5.361447	33.811169	171.182540
02703		-5.442883	-0.781792	8.149951	0.061313	0.057371	0.046677	-0.451660	-0.189453	-0.622803	-5.306690	33.843505	171.215229
02704		-5.377328	-0.735115	8.153235	0.057892	0.055553	0.042860	-0.451172	-0.189453	-0.628174	-5.255494	33.875231	171.245323
02705		-5.337814	-0.748203	8.250788	0.051439	0.069406	0.044200	-0.453613	-0.186523	-0.622070	-5.207681	33.914256	171.275648
02706		-5.537535	-0.480896	8.207007	0.036750	0.082717	0.037209	-0.443359	-0.197998	-0.623047	-5.171629	33.961132	171.300248
02707		-5.553801	-0.515188	8.264219	0.016388	0.084630	0.030008	-0.445801	-0.190918	-0.620117	-5.149797	34.008082	171.319949
02708		-5.558612	-0.601191	8.204764	0.002179	0.103096	0.020070	-0.450684	-0.193359	-0.611816	-5.140762	34.065685	171.331571
02709		-5.543682	-0.597479	8.194753	-0.016324	0.112057	0.015727	-0.448242	-0.193604	-0.611816	-5.144087	34.127548	171.339775
02710		-5.527410	-0.560010	8.225789	-0.031331	0.120470	0.013660	-0.441406	-0.187012	-0.613525	-5.157296	34.194732	171.345916
02711		-5.420996	-0.696310	8.211443	-0.048866	0.139742	0.003486	-0.440430	-0.194824	-0.611816	-5.184990	34.271763	171.343918
02712		-5.416459	-0.729861	8.283900	-0.062051	0.169344	0.003871	-0.442871	-0.193848	-0.620605	-5.221355	34.366317	171.340166
02713		-5.446194	-0.606503	8.293668	-0.076709	0.196820	-0.003470	-0.439941	-0.187744	-0.622559	-5.269846	34.475548	171.329606
02714		-5.586808	-0.492562	8.241049	-0.099557	0.228754	-0.013889	-0.437500	-0.177490	-0.615967	-5.336959	34.603026	171.309531
02715		-5.629038	-0.535781	8.212642	-0.123438	0.249343	-0.036468	-0.438477	-0.191162	-0.620361	-5.427433	34.740424	171.272302
02716		-5.605973	-0.727143	8.160231	-0.137256	0.268340	-0.042019	-0.433105	-0.192871	-0.627441	-5.529168	34.888880	171.229525
02717		-5.641480	-0.785293	8.181256	-0.140903	0.290166	-0.039397	-0.441162	-0.178955	-0.627197	-5.632977	35.049286	171.186766
02718		-5.649583	-0.749331	8.149287	-0.152048	0.302736	-0.045608	-0.428955	-0.187012	-0.612793	-5.746673	35.217007	171.138265
02719		-5.592639	-0.731676	8.214448	-0.157295	0.324590	-0.050978	-0.428955	-0.188721	-0.619873	-5.866718	35.396225	171.084021
02720		-5.763447	-0.688118	8.119259	-0.169602	0.352302	-0.057523	-0.423340	-0.178223	-0.625732	-5.998278	35.591301	171.022494
02721		-5.753451	-1.009753	8.064936	-0.169860	0.373347	-0.054160	-0.427490	-0.174072	-0.623535	-6.129975	35.797905	170.961130
02722		-5.873808	-0.946407	8.006711	-0.137428	0.381741	-0.030864	-0.418701	-0.182861	-0.618164	-6.234580	36.011166	170.914743
02723		-5.884749	-0.620102	8.127689	-0.132086	0.389448	-0.043212	-0.417480	-0.175049	-0.631104	-6.341974	36.227430	170.858516
02724		-5.902606	-0.452072	8.234829	-0.171274	0.420507	-0.059402	-0.418701	-0.175293	-0.621582	-6.480809	36.460781	170.787565
02725		-5.604127	-0.477316	8.507494	-0.255887	0.454792	-0.043948	-0.411865	-0.178711	-0.619385	-6.663996	36.713962	170.723806
02726		-5.283168	-0.023098	8.814002	-0.530116	0.566396	0.027064	-0.400635	-0.174561	-0.624023	-6.981001	37.035744	170.699390
02727		-5.042047	0.087283	9.246695	-0.966073	0.704574	0.150695	-0.398193	-0.157227	-0.630371	-7.503876	37.444340	170.747671
02728		-4.298499	-4.210669	7.981949	-0.155272	0.936794	0.036311	-0.389404	-0.155029	-0.630371	-7.627198	37.976801	170.689115
02729		-5.398320	-0.762754	8.552242	-0.359492	1.124593	0.036815	-0.383057	-0.159180	-0.633057	-7.880967	38.615375	170.609690
02730		-5.378297	-0.530764	8.650333	-0.204533	1.306831	0.014728	-0.375977	-0.163818	-0.625732	-8.071153	39.355609	170.491492
02731		-5.401597	-0.756086	8.486197	-0.312376	1.519524	-0.004781	-0.359863	-0.159180	-0.624512	-8.351410	40.214221	170.330996
02732		-5.525527	-0.319431	8.574176	-0.352090	1.757504	-0.039934	-0.339600	-0.152832	-0.621094	-8.696436	41.204153	170.109155
02733		-5.670089	-1.309045	8.457402	-0.386769	1.986854	-0.045934	-0.327393	-0.148682	-0.629395	-9.093666	42.322127	169.843348
02734		-5.649100	-0.998125	8.644168	-0.275848	2.226019	-0.061750	-0.303223	-0.144043	-0.630615	-9.470756	43.572533	169.519773
02735		-5.517943	-1.584089	8.356960	-0.227068	2.478131	-0.068501	-0.286621	-0.138916	-0.635986	-9.865907	44.963046	169.138041
02736		-5.739489	-2.233362	8.201284	-0.199146	2.731001	0.010409	-0.267090	-0.141602	-0.626221	-10.248974	46.502079	168.760461
02737		-6.007287	-2.292390	7.936046	-0.145337	2.971530	0.115023	-0.242920	-0.137939	-0.630615	-10.590549	48.185940	168.407339
02738		-5.934157	-2.390683	7.681261	-0.101648	3.197819	0.237394	-0.212158	-0.141113	-0.627441	-10.882763	50.008578	168.095964
02739		-6.741551	-2.116509	7.588912	-0.016683	3.389683	0.322350	-0.182129	-0.137695	-0.627686	-11.119776	51.947772	167.801397
02740		-6.415183	-1.433439	6.738089	0.044701	3.570573	0.372720	-0.155273	-0.134521	-0.630127	-11.338236	53.993000	167.493995
02741		-7.034841	-1.219041	6.346601	0.071466	3.791041	0.414978	-0.114258	-0.132080	-0.621338	-11.574532	56.166583	167.154184
02742		-7.307301	-1.164131	6.162182	0.108539	3.970565	0.453408	-0.080566	-0.141113	-0.610352	-11.827560	58.443890	166.778044
02743		-7.125922	-0.825937	5.837858	0.141620	4.155441	0.432925	-0.044922	-0.148438	-0.607178	-12.169026	60.821910	166.286672
02744		-7.775616	-0.812171	5.729816	0.136286	4.344719	0.417906	-0.011719	-0.136963	-0.598145	-12.650111	63.301432	165.652276
02745		-8.268158	-1.030055	5.279943	0.157574	4.484551	0.389023	0.025879	-0.144775	-0.590332	-13.307352	65.852995	164.823212
02746		-8.116892	-0.527585	4.924840	0.086443	4.647802	0.336442	0.062988	-0.152588	-0.567139	-14.312336	68.481980	163.677789
02747		-8.503374	-1.554651	4.411145	0.047409	4.806357	0.353871	0.095703	-0.149658	-0.543701	-15.680356	71.192477	162.190421
02748		-9.484292	-1.536895	4.201064	0.126262	4.994192	0.415737	0.135742	-0.151855	-0.535889	-17.469701	74.000294	160.238482
02749		-11.016734	-1.780428	4.163776	0.078442	5.064853	0.448064	0.176514	-0.152344	-0.521240	-20.061766	76.829381	157.513041
02750		-11.674629	-2.463636	3.997113	0.148428	4.954321	0.549938	0.208008	-0.153320	-0.496094	-23.611152	79.580129	153.799823
02751		-11.218579	-2.018662	3.755694	0.131396	4.968293	0.682439	0.241699	-0.161133	-0.470947	-29.264747	82.305198	147.998907
02752		-12.510585	-2.083574	3.249341	0.031046	4.993230	0.800602	0.281494	-0.165039	-0.447998	-40.475971	84.925398	136.701710
02753		-16.138507	-2.300642	4.133438	-0.032884	4.655740	0.914456	0.306152	-0.177979	-0.422607	-66.599062	86.986248	110.537193
02754		-14.822924	-2.374952	3.716981	-0.053597	4.352713	1.073772	0.337891	-0.176270	-0.396240	-121.029257	87.493481	56.082567
02755		-12.641729	-2.288407	3.400844	-0.061249	4.220507	1.204495	0.369873	-0.179443	-0.372803	-158.576526	86.017894	18.515865
02756		-13.163153	-1.894160	3.336160	-0.074756	4.038438	1.381638	0.395508	-0.189697	-0.351807	-173.740769	83.947980	3.337888
02757		-13.865542	-1.691088	3.284943	-0.136162	3.845715	1.414578	0.410400	-0.197754	-0.314453	178.892179	81.782116	-4.007999
02758		-11.378418	-1.174710	3.279958	-0.192805	3.698465	1.451348	0.427002	-0.208496	-0.289063	174.445837	79.621949	-8.402320
02759		-11.664752	-0.517649	4.013741	-0.398378	3.555860	1.395774	0.452881	-0.211914	-0.267578	171.508230	77.504263	-11.167498
02760		-9.144009	-0.190959	3.959474	-0.764982	3.440407	1.285765	0.463623	-0.220947	-0.241943	169.396437	75.443297	-12.889993
02761		-6.920244	-0.102751	3.969307	-1.146697	3.555338	1.225627	0.489990	-0.224854	-0.211670	167.711184	73.309799	-13.958901
02762		-6.866025	0.239045	4.574189	-1.581659	3.730495	1.150216	0.502686	-0.223633	-0.184570	166.292264	71.084541	-14.498774
02763		-6.444680	0.277545	6.525924	-2.120010	3.652353	1.035435	0.519043	-0.215576	-0.154297	164.918423	68.912426	-14.669491
02764		-19.709519	-1.080257	8.686576	-2.647463	2.777981	0.684192	0.522949	-0.217773	-0.127197	163.531054	67.280215	-14.531415
02765		-17.198565	-3.927545	9.920131	-2.837584	0.642086	0.292682	0.533203	-0.208008	-0.124512	161.777785	66.881145	-14.671336
02766		-15.815518	-5.040842	8.117101	-2.663518	-1.312252	-0.195325	0.521729	-0.199951	-0.133301	159.906872	67.635231	-15.046814
02767		-12.905831	-7.787567	7.480898	-1.849580	-3.089126	-0.519081	0.509033	-0.184326	-0.155273	157.925035	69.395506	-16.039098
02768		-9.504558	-7.657390	6.312469	-0.584829	-4.233310	-0.573771	0.494385	-0.177002	-0.190674	155.729116	71.763103	-18.013307
02769		-6.902822	-4.218564	4.970846	0.551837	-4.899195	-0.552885	0.475830	-0.164307	-0.225586	152.972512	74.433128	-21.225432
02770		-4.859488	-1.315203	3.728156	1.128244	-5.199048	-0.622041	0.441895	-0.167725	-0.264160	149.123594	77.222882	-25.861954
02771		-3.559032	0.772201	2.923230	1.354862	-5.170200	-0.668837	0.416260	-0.168945	-0.306641	143.305807	79.903398	-32.589103
02772		-3.288614	4.913148	2.775716	0.964509	-4.954799	-0.772014	0.388184	-0.165771	-0.344971	133.906479	82.342305	-42.660091
02773		-4.539374	6.267129	2.965560	0.001668	-4.723541	-1.056727	0.352051	-0.158447	-0.372803	117.968874	84.440561	-58.702665
02774		-5.475690	4.664638	2.839639	-0.756314	-4.533842	-1.347814	0.324951	-0.150146	-0.391846	89.585709	85.852887	-86.747953
02775		-6.524173	2.247893	3.174800	-1.076657	-4.439251	-1.527535	0.293457	-0.122559	-0.415283	51.311620	85.820533	-124.499067
02776		-7.325414	-0.811219	3.640476	-0.756387	-4.449775	-1.566830	0.259277	-0.104248	-0.444092	24.269290	84.306008	-151.202199
02777		-7.745803	-1.817105	4.019699	0.097619	-4.525897	-1.503274	0.212402	-0.092529	-0.476074	10.878796	82.074413	-164.742183
02778		-8.135846	-0.071992	4.530468	0.854633	-4.628897	-1.404711	0.178467	-0.085938	-0.487549	4.271952	79.535653	-171.930141
02779		-8.770380	2.478918	4.939387	1.082660	-4.756885	-1.324925	0.144531	-0.090088	-0.519043	0.713776	76.840583	-176.199357
02780		-9.549931	3.850880	5.004044	0.823365	-4.943438	-1.302343	0.088379	-0.091064	-0.537842	-1.593397	73.990528	-179.071003
02781		-9.282446	3.455374	4.700911	0.424497	-5.123941	-1.271368	0.057129	-0.082764	-0.552490	-3.253644	71.023054	178.932362
02782		-8.646404	2.497136	4.420061	0.168790	-5.173829	-1.188369	-0.002686	-0.077637	-0.566650	-4.436079	68.008270	177.566159
02783		-8.356032	1.453315	4.273298	0.148965	-5.078346	-1.076558	-0.033691	-0.068604	-0.583740	-5.194410	65.054080	176.645120
02784		-8.688853	1.262272	4.608463	0.272206	-4.902728	-0.947282	-0.092773	-0.062012	-0.593262	-5.588746	62.195245	176.029697
02785		-9.608521	1.644197	5.006783	0.318514	-4.737029	-0.828180	-0.131348	-0.060059	-0.595947	-5.763276	59.444628	175.619217
02786		-10.086384	1.379399	5.395225	0.271061	-4.622279	-0.733578	-0.177002	-0.043701	-0.600586	-5.843019	56.756220	175.340868
02787		-10.009866	0.496085	5.687870	0.234292	-4.509948	-0.636834	-0.215576	-0.048828	-0.602051	-5.847097	54.145633	175.171214
02788		-10.100123	-0.704382	6.107554	0.323971	-4.352733	-0.561317	-0.256592	-0.032471	-0.603271	-5.745528	51.620981	175.064065
02789		-10.892978	-1.802848	6.746654	0.497095	-4.169134	-0.489508	-0.297363	-0.041260	-0.609131	-5.509182	49.213391	174.999281
02790		-12.303253	-2.705893	7.785585	0.740352	-4.044992	-0.474876	-0.336426	-0.031738	-0.607178	-5.141888	46.869670	174.920900
02791		-14.743868	-2.455622	8.685161	0.941125	-4.055793	-0.549065	-0.371338	-0.035156	-0.606689	-4.714130	44.524536	174.763074
02792		-16.289435	-2.176819	8.939434	0.937639	-4.243425	-0.702638	-0.425049	-0.035156	-0.596680	-4.369219	42.058378	174.480746
02793		-16.301579	-2.644058	8.410859	0.857430	-4.437966	-0.883460	-0.462158	-0.042236	-0.594482	-4.145925	39.482093	174.068171
02794		-15.481852	-3.026316	7.513776	0.833630	-4.507315	-1.055650	-0.506592	-0.045410	-0.568115	-3.994667	36.853088	173.538121
02795		-14.367009	-2.840733	6.526537	0.837000	-4.397933	-1.222515	-0.554932	-0.058105	-0.557373	-3.887035	34.288083	172.896299
02796		-13.773405	-2.226357	5.803797	0.773985	-4.138307	-1.374267	-0.591553	-0.050781	-0.534668	-3.847851	31.859874	172.153537
02797		-13.548725	-2.022142	5.223906	0.666189	-3.850462	-1.550069	-0.635986	-0.059326	-0.520020	-3.900745	29.595737	171.300268
02798		-13.269741	-1.939144	5.179760	0.527042	-3.509810	-1.641748	-0.660889	-0.077637	-0.495605	-4.030939	27.515869	170.394015
02799		-14.087283	-1.925300	5.493683	0.439253	-3.251401	-1.678819	-0.696777	-0.078125	-0.475586	-4.188790	25.585801	169.474718
02800		-14.225688	-1.781012	5.407678	0.302667	-3.087705	-1.595933	-0.720215	-0.086670	-0.460693	-4.370913	23.745612	168.620283
02801		-13.457404	-1.185965	5.175014	0.096397	-2.994243	-1.406878	-0.748779	-0.101563	-0.435059	-4.595011	21.969317	167.897576
02802		-13.109655	0.302190	4.463514	-0.232692	-2.902235	-1.242841	-0.772217	-0.096680	-0.410156	-4.946547	20.246236	167.288798
02803		-12.112763	0.761455	3.307521	-0.655039	-2.751978	-1.079740	-0.790283	-0.104736	-0.385254	-5.485971	18.616855	166.791324
02804		-11.305908	0.295431	2.111795	-0.942806	-2.527049	-0.844801	-0.808105	-0.092773	-0.369873	-6.131905	17.121685	166.443023
02805		-10.709582	-0.620283	1.063408	-0.953340	-2.212373	-0.564045	-0.820557	-0.099121	-0.346680	-6.728630	15.823058	166.259975
02806		-10.331011	-1.258020	0.223444	-0.695322	-1.861443	-0.263826	-0.829102	-0.096680	-0.333984	-7.130721	14.741350	166.241518
02807		-9.900416	-0.950863	-0.293624	-0.366044	-1.477011	0.013397	-0.837158	-0.096924	-0.319824	-7.308989	13.899994	166.362938
02808		-9.865360	-0.016837	-0.443084	-0.221343	-1.078491	0.222296	-0.847656	-0.092041	-0.310059	-7.384200	13.299608	166.577884
02809		-9.910242	0.532565	-0.464610	-0.322898	-0.717473	0.338942	-0.851807	-0.084229	-0.307861	-7.509679	12.914412	166.834086
02810		-9.490618	-0.221332	-0.434486	-0.459620	-0.364773	0.393336	-0.850830	-0.077637	-0.295654	-7.713971	12.734201	167.095277
02811		-4.528479	-8.143058	-0.244457	-0.058834	0.062717	0.414111	-0.851807	-0.068359	-0.292236	-7.693229	12.798881	167.335218
02812		0.310917	0.100026	4.928206	0.947829	1.623954	0.803108	-0.837402	-0.061768	-0.302734	-7.069064	13.778447	167.684889
02813		-1.029982	-2.059738	12.072452	1.027718	1.764137	0.698904	-0.831787	-0.063965	-0.321289	-6.406694	14.826426	167.976666
02814		-1.800238	-1.145445	11.332696	0.881284	1.539379	0.549931	-0.819580	-0.057617	-0.326416	-5.840195	15.734473	168.207459
02815		-0.512394	0.881973	7.138478	0.632865	1.832489	0.173014	-0.824219	-0.056396	-0.338379	-5.476521	16.786204	168.206132
02816		-2.479002	1.793397	8.606955	0.279993	2.312504	-0.321082	-0.803711	-0.058594	-0.343750	-5.411217	18.085047	167.885985
02817		-4.438119	2.438556	9.874112	-0.114970	2.445662	-0.726629	-0.791016	-0.048096	-0.357666	-5.661123	19.436747	167.309385
02818		-5.636485	2.100405	9.622188	-0.298020	2.362475	-0.719235	-0.782227	-0.043701	-0.369873	-6.029886	20.738712	166.729812
02819		-4.921811	3.642813	9.845213	-0.435944	2.346206	-0.460577	-0.764404	-0.039063	-0.388428	-6.436766	22.043567	166.295222
02820		-5.201109	3.592559	9.513346	-0.638400	2.344341	-0.211750	-0.752441	-0.025879	-0.390625	-6.915376	23.361129	165.999286
02821		-5.813355	-0.056843	9.894584	-0.683314	2.345818	-0.036718	-0.746094	-0.019531	-0.404297	-7.387733	24.689337	165.797260
02822		-6.903035	-3.760369	9.681395	-0.738983	2.258747	-0.071380	-0.720947	-0.009033	-0.413330	-7.908413	25.964297	165.566076
02823		-7.118181	-7.380445	9.227548	-0.472898	2.238209	-0.231619	-0.719727	-0.004639	-0.424561	-8.332510	27.212389	165.220760
02824		-8.352636	-5.028661	9.782775	-0.270337	2.217334	-0.324271	-0.698730	0.000244	-0.430908	-8.680370	28.439351	164.804647
02825		-9.407647	-1.639589	9.727605	-0.198055	2.004999	-0.272220	-0.688965	0.006104	-0.440430	-8.973445	29.547934	164.431198
02826		-14.385996	-4.619340	11.505697	0.065337	1.591513	0.155259	-0.678955	0.012451	-0.445313	-8.964150	30.460801	164.372661
02827		-10.490006	-4.878145	8.370260	0.378941	0.593624	0.394166	-0.675537	0.014404	-0.450684	-8.641994	30.828816	164.575928
02828		-6.458485	0.070250	8.900986	0.422361	0.641214	0.368113	-0.669434	0.006348	-0.452881	-8.304140	31.222022	164.760190
02829		-6.691311	-0.646250	8.791486	0.359517	0.515970	0.332883	-0.666992	0.015137	-0.459961	-8.004873	31.539011	164.936578
02830		-6.849777	-1.380763	8.230588	0.347279	0.355934	0.299097	-0.663086	0.015381	-0.457764	-7.715343	31.763276	165.107283
02831		-5.556946	-0.126245	8.627502	0.322107	0.306655	0.232267	-0.663818	0.009277	-0.459961	-7.459505	31.952268	165.239628
02832		-6.198430	-0.046812	8.649667	0.247960	0.294834	0.163735	-0.664063	0.017090	-0.458740	-7.269586	32.130681	165.327903
02833		-5.883597	-0.657778	8.414817	0.192493	0.235239	0.073129	-0.657227	0.020508	-0.458496	-7.140020	32.266888	165.361394
02834		-6.115504	-0.036554	8.563076	0.134492	0.189260	-0.028304	-0.662842	0.013916	-0.461914	-7.078362	32.371374	165.330573
02835		-6.271676	0.667699	8.804974	0.027385	0.108757	-0.110436	-0.659424	0.011719	-0.463135	-7.103638	32.422626	165.251444
02836		-5.925083	0.052615	8.701868	-0.078358	0.028471	-0.175078	-0.658936	0.012451	-0.454346	-7.209615	32.425261	165.135313
02837		-5.479006	-0.844838	8.336614	-0.112894	0.012834	-0.193298	-0.660645	0.010742	-0.461914	-7.340898	32.415769	165.008423
02838		-5.173521	-1.113302	8.140721	-0.109977	0.004560	-0.183658	-0.662842	0.021484	-0.463379	-7.466866	32.403780	164.888661
02839		-5.257801	-1.030470	8.222604	-0.103292	0.011500	-0.170787	-0.656006	0.008301	-0.462158	-7.584386	32.394751	164.777114
02840		-5.470093	-1.354331	8.179261	-0.093344	0.000773	-0.144860	-0.660156	0.015381	-0.464355	-7.686584	32.383149	164.683875
02841		-5.660008	-1.064250	8.370386	-0.085719	-0.031356	-0.128852	-0.661865	0.014404	-0.461182	-7.776759	32.352682	164.604505
02842		-5.734764	-0.479909	8.467653	-0.124024	-0.060821	-0.164172	-0.663574	0.015625	-0.458252	-7.900296	32.304346	164.504100
02843		-5.383003	-0.993868	8.288314	-0.157408	-0.082623	-0.179152	-0.666260	0.014404	-0.460205	-8.046757	32.240509	164.396030
02844		-5.196108	-1.227800	8.278031	-0.151278	-0.069457	-0.177099	-0.672852	0.014160	-0.458740	-8.189655	32.185828	164.288225
02845		-5.506255	-1.244565	8.365969	-0.144410	-0.064898	-0.165743	-0.670166	0.013428	-0.457031	-8.324354	32.132694	164.187923
02846		-5.441538	-1.280137	8.238319	-0.150992	-0.086012	-0.160155	-0.670410	0.015381	-0.455811	-8.459786	32.069610	164.093536
02847		-4.877064	-1.376537	8.095209	-0.140188	-0.066559	-0.157101	-0.671631	0.011719	-0.453613	-8.588517	32.015873	163.999598
02848		-4.541537	-1.338564	8.017038	-0.118413	-0.026081	-0.130229	-0.664307	0.019531	-0.465088	-8.697562	31.988956	163.919545
02849		-4.896046	-1.343648	8.181406	-0.099419	0.026087	-0.103656	-0.671387	0.020264	-0.465820	-8.788840	31.992035	163.852074
02850		-5.150033	-1.238871	8.226710	-0.088108	0.039268	-0.089934	-0.668457	0.018799	-0.453613	-8.869808	32.005400	163.792250
02851		-5.152631	-1.140369	8.244199	-0.085832	0.063722	-0.072784	-0.661377	0.019287	-0.455078	-8.944506	32.032357	163.741422
02852		-5.147145	-1.311976	8.205382	-0.073247	0.083781	-0.058274	-0.668945	0.019531	-0.458984	-9.008309	32.073604	163.697977
02853		-4.689677	-1.670841	7.987655	-0.048432	0.107830	-0.034252	-0.664795	0.018066	-0.451416	-9.050510	32.128893	163.668092
02854		-4.614239	-2.099271	7.831805	0.017635	0.158451	0.033394	-0.657959	0.014648	-0.462158	-9.034002	32.220577	163.677858
02855		-4.632382	-1.987950	7.822284	0.099616	0.215045	0.104787	-0.667969	0.016357	-0.458496	-8.947820	32.349008	163.729674
02856		-5.361867	-1.764613	8.164637	0.151335	0.235677	0.159999	-0.665039	0.010742	-0.451904	-8.813398	32.495540	163.816533
02857		-6.384641	-0.931486	8.449536	0.135140	0.145106	0.157672	-0.665283	0.014893	-0.457275	-8.683241	32.588786	163.911897
02858		-5.405451	-1.247597	8.201726	0.110475	0.098471	0.137580	-0.656982	0.016357	-0.465332	-8.572042	32.655379	163.998631
02859		-5.629601	-1.069070	8.379272	0.100569	0.092185	0.124756	-0.651855	0.006592	-0.463867	-8.470256	32.715526	164.077764
02860		-5.706615	-0.428274	8.464554	0.050388	0.086246	0.071017	-0.664307	0.018311	-0.461426	-8.416714	32.769361	164.121243
02861		-5.748377	-0.489325	8.456185	-0.029874	0.057331	-0.001729	-0.658203	0.017334	-0.469727	-8.433727	32.799023	164.118794
02862		-5.401471	-0.977897	8.294339	-0.074664	0.054792	-0.034585	-0.649414	0.015381	-0.464600	-8.488566	32.826161	164.094284
02863		-5.285243	-1.282926	8.104643	-0.077422	0.063378	-0.041970	-0.654053	0.017334	-0.462402	-8.547905	32.855831	164.064026
02864		-5.172143	-1.576957	8.064295	-0.053127	0.081478	-0.020519	-0.657227	0.021484	-0.470947	-8.586779	32.899245	164.046224
02865		-5.421931	-1.452349	8.023489	-0.022526	0.084904	-0.000110	-0.657959	0.023926	-0.466797	-8.600580	32.944661	164.041947
02866		-5.553675	-1.424760	8.074740	-0.006897	0.065669	0.013679	-0.652832	0.020264	-0.460205	-8.599605	32.982033	164.048787
02867		-5.434313	-1.561965	7.994804	0.007784	0.060296	0.025063	-0.660645	0.012939	-0.465088	-8.585417	33.015663	164.064024
02868		-5.356095	-1.585370	7.991352	0.044386	0.057135	0.056616	-0.662842	0.024658	-0.461670	-8.538772	33.051869	164.100766
02869		-5.366188	-1.547492	8.007206	0.079259	0.056484	0.083823	-0.650635	0.015625	-0.460205	-8.461683	33.088294	164.156199
02870		-5.325971	-1.564239	7.932944	0.120064	0.064074	0.117780	-0.647705	0.023926	-0.476074	-8.349364	33.133470	164.233761
02871		-5.257899	-1.659846	7.905119	0.178078	0.067607	0.170959	-0.648438	0.020996	-0.465576	-8.183775	33.183191	164.347348
02872		-5.246245	-1.846066	7.860475	0.252172	0.068260	0.245209	-0.653320	0.016113	-0.469727	-7.948369	33.240596	164.511284
02873		-5.415546	-1.835652	7.936506	0.329955	0.055548	0.314645	-0.645508	0.017090	-0.471436	-7.641111	33.293852	164.724171
02874		-5.611508	-1.293382	8.150055	0.365479	0.020609	0.348986	-0.648682	0.019775	-0.476318	-7.299059	33.330486	164.963734
02875		-5.595833	-0.856782	8.219772	0.347496	-0.009228	0.332670	-0.646484	0.016602	-0.471680	-6.971265	33.346146	165.195299
02876		-5.515991	-0.803892	8.264239	0.320760	-0.019602	0.322038	-0.648682	0.012451	-0.469727	-6.662663	33.355795	165.420358
02877		-5.562418	-0.808391	8.234900	0.300910	-0.014781	0.295276	-0.650146	0.010010	-0.476074	-6.375130	33.363780	165.627115
02878		-5.423118	-0.596900	8.249400	0.278475	-0.005496	0.271286	-0.646729	0.016602	-0.472656	-6.110201	33.376418	165.816662
02879		-5.522273	-0.552201	8.284056	0.253653	0.002943	0.243209	-0.642090	0.016357	-0.471924	-5.869849	33.389795	165.986753
02880		-5.557303	-0.612461	8.265330	0.221717	0.000288	0.220493	-0.649902	0.014648	-0.472168	-5.656540	33.401478	166.141407
02881		-5.477498	-0.657785	8.203362	0.196094	0.008068	0.196103	-0.643311	0.007080	-0.472412	-5.466922	33.414099	166.279141
02882		-5.454984	-0.663733	8.159787	0.184447	0.014377	0.180666	-0.641602	0.008057	-0.476318	-5.290298	33.430813	166.405810
02883		-5.300858	-0.780816	8.161047	0.181711	0.025286	0.174742	-0.645996	0.015869	-0.478760	-5.117414	33.451430	166.528010
02884		-5.388261	-0.689072	8.200058	0.182960	0.038543	0.166643	-0.645752	0.018066	-0.483154	-4.947547	33.480583	166.643807
02885		-5.533585	-0.599122	8.193677	0.178045	0.033323	0.149791	-0.644043	0.011475	-0.475586	-4.786238	33.503976	166.748673
02886		-5.492905	-0.537024	8.201853	0.167043	0.021539	0.145587	-0.644775	0.016357	-0.473389	-4.632691	33.521880	166.851265
02887		-5.483166	-0.598448	8.174604	0.165132	0.026107	0.140816	-0.646240	0.010742	-0.482666	-4.481792	33.540271	166.950573
02888		-5.453222	-0.625501	8.160223	0.162379	0.019878	0.138065	-0.650146	0.022949	-0.484375	-4.333566	33.556441	167.048250
02889		-5.526037	-0.486055	8.181879	0.156715	0.007104	0.130438	-0.641357	0.011963	-0.480225	-4.190764	33.563105	167.141559
02890		-5.503758	-0.424805	8.218218	0.142878	-0.006714	0.114494	-0.638916	0.017090	-0.472656	-4.061830	33.562705	167.224496
02891		-5.529788	-0.420007	8.200028	0.127178	-0.005796	0.095479	-0.638428	0.008301	-0.473145	-3.948842	33.560248	167.294482
02892		-5.375273	-0.511029	8.243771	0.116232	-0.003175	0.084355	-0.650146	0.017090	-0.472900	-3.846681	33.560420	167.356580
02893		-5.390819	-0.555072	8.238506	0.109757	0.010159	0.075371	-0.646240	0.012939	-0.484375	-3.751707	33.566111	167.412034
02894		-5.462685	-0.593922	8.210985	0.103049	0.018702	0.071267	-0.644531	0.007324	-0.475830	-3.662584	33.578120	167.464185
02895		-5.453209	-0.627380	8.224221	0.099019	0.013382	0.068126	-0.649658	0.013428	-0.478516	-3.576557	33.585247	167.514559
02896		-5.485448	-0.509168	8.166903	0.096280	0.020059	0.070617	-0.638428	0.006836	-0.481445	-3.491555	33.597870	167.566251
02897		-5.520210	-0.411367	8.219217	0.091830	0.019254	0.068519	-0.640137	0.015625	-0.490479	-3.409596	33.608245	167.616690
02898		-5.562561	-0.299280	8.241637	0.078657	0.011699	0.057180	-0.640137	0.008545	-0.483154	-3.339560	33.615510	167.659546
02899		-5.507898	-0.163400	8.270541	0.064884	0.024830	0.037637	-0.644043	0.003662	-0.486816	-3.284872	33.627951	167.688591
02900		-5.476379	-0.161120	8.317831	0.030000	0.038726	0.016321	-0.643799	0.016846	-0.489258	-3.258790	33.649273	167.702356
02901		-5.471914	-0.212311	8.305817	0.008660	0.059515	-0.005378	-0.639893	0.009766	-0.483154	-3.253422	33.680132	167.700510
02902		-5.400814	-0.431603	8.210547	-0.014541	0.074099	-0.016025	-0.639648	0.012451	-0.477295	-3.265912	33.720620	167.690684
02903		-5.276791	-0.632664	8.308609	-0.018063	0.099724	-0.011476	-0.639648	0.006836	-0.484375	-3.279074	33.774280	167.683048
02904		-5.432365	-0.455614	8.233810	-0.021723	0.115136	-0.008838	-0.636230	0.017578	-0.483643	-3.293869	33.838451	167.676509
02905		-5.459108	-0.560673	8.159281	-0.024377	0.127876	0.004372	-0.637939	0.014404	-0.480225	-3.305224	33.908733	167.678632
02906		-5.428198	-0.580102	8.231045	-0.015716	0.137355	0.017143	-0.632324	0.011719	-0.484619	-3.307105	33.986458	167.689084
02907		-5.536275	-0.301834	8.270620	-0.029560	0.154801	0.018643	-0.637451	0.015381	-0.482178	-3.316522	34.072614	167.699967
02908		-5.514785	-0.262166	8.373042	-0.046996	0.176171	0.005196	-0.632080	0.007813	-0.489746	-3.341807	34.172133	167.700591
02909		-5.652293	-0.209502	8.303469	-0.072435	0.216319	-0.016505	-0.624512	0.017090	-0.480713	-3.390886	34.292302	167.684581
02910		-5.596995	-0.234635	8.262811	-0.096317	0.243848	-0.035504	-0.629395	0.013672	-0.480469	-3.462010	34.429120	167.654017
02911		-5.524303	-0.448905	8.279120	-0.112528	0.279673	-0.041471	-0.623047	0.004883	-0.487061	-3.545693	34.584614	167.617587
02912		-5.603267	-0.758295	8.183253	-0.105363	0.301810	-0.030837	-0.631348	0.004883	-0.496338	-3.622028	34.754659	167.587188
02913		-5.674430	-0.510227	8.189423	-0.097208	0.315519	-0.018431	-0.625488	0.013428	-0.494629	-3.689220	34.931411	167.564564
02914		-5.796438	-0.278681	8.178551	-0.104892	0.331953	-0.027684	-0.619873	0.018799	-0.497314	-3.765351	35.118732	167.534339
02915		-5.740469	-0.314445	8.185172	-0.118023	0.352719	-0.048066	-0.618652	0.015869	-0.492676	-3.857949	35.315571	167.488550
02916		-5.748481	-0.418591	8.191196	-0.127771	0.372238	-0.049941	-0.615234	0.012451	-0.491211	-3.958000	35.524966	167.439932
02917		-5.678135	-0.695652	8.167536	-0.137595	0.391163	-0.033741	-0.614258	0.019043	-0.497559	-4.057940	35.744223	167.401255
02918		-5.513881	0.031339	8.461932	-0.194083	0.419798	0.014383	-0.605225	0.020752	-0.482666	-4.171832	35.983279	167.394386
02919		-5.050999	0.026618	8.908373	-0.486183	0.572760	0.069313	-0.605225	0.019775	-0.493652	-4.435447	36.310555	167.417303
02920		-4.330665	-1.300981	8.895072	-0.176605	0.796230	-0.003906	-0.601318	0.022461	-0.495117	-4.560790	36.763671	167.374391
02921		-5.043304	-0.608521	8.921418	-0.239922	1.037593	0.012471	-0.584961	0.024902	-0.511719	-4.725110	37.353871	167.327460
02922		-5.192430	-0.176307	8.753642	-0.213094	1.233141	0.012449	-0.574707	0.029541	-0.503174	-4.883355	38.056860	167.266111
02923		-5.329745	-0.258611	8.575111	-0.251435	1.424700	0.001539	-0.582031	0.027100	-0.509033	-5.078761	38.867243	167.181271
02924		-5.473400	-0.184852	8.565967	-0.274465	1.611992	-0.011599	-0.557373	0.032471	-0.507080	-5.305575	39.784687	167.069292
02925		-5.504369	-0.766816	8.609158	-0.268655	1.815548	-0.015721	-0.557617	0.032471	-0.517822	-5.546061	40.816531	166.933269
02926		-5.437429	-0.810305	8.615176	-0.194292	2.031989	-0.015968	-0.535645	0.038574	-0.522949	-5.761892	41.972332	166.773059
02927		-5.481674	-0.901935	8.498623	-0.167914	2.255493	-0.011304	-0.516113	0.041016	-0.527344	-5.980905	43.254346	166.589583
02928		-5.604318	-1.179271	8.293855	-0.115813	2.502238	0.021373	-0.495361	0.039551	-0.526855	-6.177031	44.679227	166.400614
02929		-5.697666	-1.194359	8.208787	-0.083397	2.755768	0.064797	-0.478027	0.033936	-0.532227	-6.357384	46.249961	166.212651
02930		-5.886261	-1.410983	7.981144	-0.010148	3.010303	0.098509	-0.452637	0.041992	-0.540039	-6.505492	47.968002	166.016531
02931		-6.112991	-1.811790	7.632614	0.049810	3.235046	0.146648	-0.425781	0.033936	-0.546387	-6.618443	49.816204	165.826871
02932		-6.573730	-1.549691	7.314810	0.109967	3.413749	0.229976	-0.398193	0.038818	-0.557861	-6.666603	51.771861	165.681660
02933		-6.774548	-1.355446	7.019571	0.140453	3.573323	0.286281	-0.366699	0.036133	-0.561279	-6.678665	53.821619	165.563695
02934		-7.016268	-1.139720	6.533366	0.172668	3.763561	0.362846	-0.337158	0.040527	-0.563232	-6.635263	55.984984	165.494193
02935		-7.023197	-1.012849	6.442220	0.198671	3.962260	0.429729	-0.293457	0.045898	-0.572510	-6.538844	58.265646	165.471746
02936		-7.518749	-1.084143	6.323550	0.227696	4.151793	0.459112	-0.261963	0.044434	-0.572266	-6.412875	60.656208	165.464967
02937		-7.582921	-0.928736	5.966462	0.244463	4.332318	0.497795	-0.238770	0.034180	-0.582031	-6.246154	63.151937	165.493529
02938		-8.063389	-0.659720	5.679432	0.215849	4.513101	0.515407	-0.206299	0.041016	-0.575684	-6.080537	65.751582	165.538507
02939		-8.460076	-0.266087	5.543787	0.144955	4.665606	0.496250	-0.161377	0.031006	-0.571777	-5.983084	68.437017	165.552568
02940		-8.951402	-0.506710	5.487907	0.044345	4.850096	0.488482	-0.124268	0.034668	-0.559570	-5.977406	71.226831	165.530102
02941		-9.067738	-1.066334	4.875512	0.019965	5.012110	0.535447	-0.081299	0.033203	-0.556641	-5.929638	74.112047	165.566647
02942		-11.130077	-1.508585	4.513186	0.125484	5.185497	0.614695	-0.046143	0.034180	-0.551025	-5.645186	77.100145	165.784580
02943		-12.024912	0.021855	4.764772	-0.021140	5.090388	0.574868	-0.004395	0.025146	-0.541016	-5.405585	80.032023	166.039851
02944		-12.235933	-1.141630	4.049141	-0.244375	5.101498	0.630482	0.032959	0.034668	-0.527100	-4.864974	82.972026	166.726428
02945		-15.057921	-1.453621	4.115507	-0.346961	4.989078	0.682463	0.071777	0.027588	-0.511230	-3.058074	85.848215	168.739674
02946		-17.484424	-0.626947	4.417598	-0.612218	4.501527	0.706244	0.113770	0.034668	-0.492188	6.114524	88.420377	178.271169
02947		-14.035025	-2.439313	3.242720	-0.733676	4.163352	0.836546	0.127197	0.030518	-0.474121	141.289268	88.963794	-46.125092
02948		-13.769003	-1.681317	4.267320	-0.679638	3.941182	1.036128	0.151123	0.025146	-0.456055	157.629401	86.695623	-29.388339
02949		-12.669043	-0.429482	4.444178	-0.891398	3.815326	1.090020	0.176270	0.013184	-0.443848	159.795284	84.433193	-26.705574
02950		-10.625492	-0.215717	3.510547	-1.274487	3.688373	1.040963	0.196777	0.025146	-0.413330	160.391605	82.246800	-25.371641
02951		-9.466144	0.004364	3.814925	-1.720586	3.707270	0.961387	0.217529	0.012207	-0.398682	160.600964	80.062491	-24.163620
02952		-9.296109	0.185382	4.716544	-2.206537	3.634154	0.927916	0.229492	0.020752	-0.378662	160.321705	77.926678	-23.161700
02953		-10.013016	0.692186	5.368213	-2.825936	3.460691	0.833558	0.240967	0.025146	-0.356934	159.673055	75.901964	-22.166785
02954		-9.812067	-0.079807	4.750893	-3.406206	3.155917	0.737602	0.251465	0.033691	-0.328125	158.633543	74.066692	-21.223898
02955		-6.740515	-2.063895	4.977308	-3.353473	2.586317	0.643493	0.248779	0.039551	-0.311523	157.408770	72.556327	-20.498078
02956		-23.613523	-6.935778	10.605504	-3.046090	0.780138	-0.313017	0.236084	0.048340	-0.300049	156.720495	72.220069	-19.390638
02957		-15.122335	-9.423645	10.600397	-2.435699	-1.865839	-1.085266	0.211426	0.058838	-0.307373	155.760420	73.450616	-18.936326
02958		-9.882977	-11.628222	7.384778	-0.847185	-3.192468	-1.636180	0.162109	0.061279	-0.317627	155.628096	75.510819	-18.571567
02959		-6.810105	-9.561791	5.713883	0.938617	-4.136217	-1.865334	0.095947	0.053955	-0.334961	156.183868	78.112097	-18.554663
02960		-3.876589	-5.576580	4.240556	2.344987	-4.470697	-1.897813	0.041504	0.038818	-0.353271	157.467323	80.903450	-18.617809
02961		-2.310440	-0.823236	2.601446	3.104504	-4.468239	-1.880848	-0.032471	0.001953	-0.369141	159.727089	83.681960	-18.134343
02962		-1.582437	7.567638	3.047422	2.533309	-4.257101	-1.868584	-0.096191	-0.027588	-0.364990	164.151283	86.343154	-15.153047
02963		-3.790040	9.313490	3.828229	0.794241	-4.044106	-2.090839	-0.145996	-0.043945	-0.351318	-169.877941	88.780452	10.377929
02964		-3.598034	6.209355	3.227216	-0.437556	-3.953156	-2.221127	-0.188721	-0.051270	-0.329834	-54.228494	88.168241	126.294044
02965		-4.827738	3.120076	3.488140	-0.981741	-3.963321	-2.097802	-0.228516	-0.062012	-0.298340	-39.158810	85.713410	141.943372
02966		-5.510497	0.157713	3.863901	-0.805614	-4.043671	-1.780146	-0.258057	-0.075928	-0.271973	-33.787019	83.232882	147.800910
02967		-6.862337	-1.058215	4.448574	-0.118779	-4.164554	-1.359615	-0.301025	-0.094482	-0.227539	-29.608801	80.790696	152.086346
02968		-8.205810	-0.088366	5.068571	0.636010	-4.382575	-0.963003	-0.296631	-0.117676	-0.201904	-25.559495	78.299062	155.830684
02969		-9.031419	2.051685	5.590968	1.014950	-4.663285	-0.666284	-0.310547	-0.140381	-0.168701	-21.821546	75.696352	159.067710
02970		-8.932064	3.753236	5.622718	0.940045	-4.933185	-0.480116	-0.298584	-0.166016	-0.145752	-18.696092	72.938569	161.751864
02971		-8.308498	4.215968	5.290965	0.597694	-5.090648	-0.353041	-0.294678	-0.164307	-0.135254	-16.293424	70.093396	163.921862
02972		-7.484550	3.434103	4.701887	0.276218	-5.068682	-0.227026	-0.284668	-0.185547	-0.122803	-14.469446	67.247778	165.707546
02973		-7.086413	2.200570	4.462494	0.158045	-4.870698	-0.065881	-0.279053	-0.195557	-0.121582	-12.971411	64.525191	167.247555
02974		-7.513313	1.261040	4.751522	0.240779	-4.578499	0.084958	-0.268555	-0.207275	-0.120117	-11.620175	61.961314	168.603905
02975		-8.518891	0.814916	5.331307	0.391728	-4.338168	0.199707	-0.262695	-0.205322	-0.122803	-10.341194	59.540389	169.810582
02976		-9.233650	0.552830	5.993198	0.532170	-4.186421	0.248222	-0.247803	-0.216553	-0.134033	-9.141183	57.189125	170.859514
02977		-9.282134	0.097562	6.486156	0.651991	-4.067562	0.265539	-0.246826	-0.229004	-0.144043	-8.020603	54.904635	171.758112
02978		-9.400673	-0.295494	7.010094	0.724877	-3.939300	0.277191	-0.252686	-0.229980	-0.148682	-6.980511	52.676255	172.530045
02979		-9.571235	-0.873560	7.474518	0.778952	-3.819290	0.258365	-0.249512	-0.229492	-0.171631	-6.029774	50.515988	173.171727
02980		-9.897293	-1.678559	8.087723	0.859474	-3.696182	0.194948	-0.258057	-0.240723	-0.175781	-5.159827	48.407764	173.666110
02981		-10.522318	-2.239835	8.780433	0.994837	-3.596961	0.057419	-0.264893	-0.240479	-0.196045	-4.362912	46.353781	173.972399
02982		-11.403254	-2.276688	9.393384	1.112092	-3.524203	-0.157171	-0.278564	-0.242188	-0.212891	-3.668453	44.321753	174.050687
02983		-12.416368	-1.894860	9.966469	1.128180	-3.514342	-0.461125	-0.281006	-0.252686	-0.220215	-3.152966	42.293035	173.857675
02984		-13.120588	-1.751920	10.134832	1.037243	-3.526371	-0.815283	-0.294678	-0.258057	-0.236572	-2.870453	40.239496	173.382766
02985		-13.271567	-2.262269	9.794354	0.969377	-3.541340	-1.159663	-0.313965	-0.263184	-0.242188	-2.770731	38.177154	172.659657
02986		-13.046247	-2.619070	9.300060	1.006124	-3.494984	-1.455459	-0.328857	-0.269775	-0.246338	-2.748365	36.125890	171.739809
02987		-12.706330	-2.476205	8.706066	1.080592	-3.368207	-1.671559	-0.345459	-0.281494	-0.257813	-2.733695	34.149356	170.687123
02988		-12.416445	-1.951915	8.156992	1.107588	-3.178450	-1.824087	-0.364990	-0.293701	-0.257568	-2.722077	32.270158	169.547060
02989		-12.205282	-1.750444	7.707322	1.046588	-2.940013	-1.873406	-0.376953	-0.301270	-0.268799	-2.724537	30.533451	168.388760
02990		-12.141184	-2.059549	7.113447	0.980883	-2.711803	-1.750360	-0.386475	-0.304688	-0.265137	-2.689194	28.924389	167.323638
02991		-11.750669	-1.927259	6.536314	0.979893	-2.488538	-1.493295	-0.397705	-0.316406	-0.270508	-2.547675	27.457882	166.431740
02992		-12.072632	-1.028347	6.313291	0.884089	-2.275585	-1.128276	-0.412109	-0.324707	-0.264648	-2.335906	26.118858	165.774286
02993		-13.583160	0.602545	6.334148	0.522760	-2.173251	-0.755243	-0.427734	-0.324463	-0.275391	-2.215859	24.854395	165.353872
02994		-15.313316	1.747289	5.761039	-0.122518	-2.313244	-0.446442	-0.436768	-0.333740	-0.264893	-2.373863	23.511972	165.135650
02995		-15.153340	1.629767	4.453806	-0.814433	-2.617659	-0.184439	-0.453613	-0.323730	-0.262695	-2.853249	22.005855	165.099070
02996		-13.305239	0.529606	2.378723	-1.240633	-2.794217	0.088034	-0.465088	-0.325439	-0.262451	-3.506947	20.403722	165.252176
02997		-10.592588	-0.380113	0.140519	-1.228706	-2.647575	0.329511	-0.478027	-0.324463	-0.250000	-4.105071	18.899675	165.562837
02998		-8.746824	-0.877810	-1.513681	-0.865761	-2.147855	0.475025	-0.492920	-0.317627	-0.252441	-4.477981	17.687711	165.949484
02999		-8.764638	-0.864675	-2.229965	-0.377283	-1.489939	0.558835	-0.496826	-0.319580	-0.256348	-4.571424	16.859017	166.357983
03000		-10.172860	0.429352	-2.161170	-0.132213	-0.939449	0.559269	-0.509033	-0.329590	-0.247314	-4.536479	16.343767	166.739648
03001		-10.978380	1.110688	-1.886092	-0.229146	-0.569865	0.460663	-0.508545	-0.319580	-0.250000	-4.581388	16.036334	167.044332
03002		-10.436162	0.268615	-1.600725	-0.390411	-0.248974	0.384108	-0.507568	-0.305908	-0.247559	-4.736232	15.909130	167.288315
03003		-9.746770	-0.975883	-1.209357	-0.356572	0.115578	0.384516	-0.502197	-0.308594	-0.254395	-4.876929	15.990658	167.514569
03004		-4.071507	-0.608592	1.112373	-0.192016	0.823994	0.516361	-0.494629	-0.299561	-0.256836	-4.910111	16.484553	167.783434
03005		3.550188	-3.274445	6.880142	-0.126836	2.070746	0.601571	-0.497803	-0.308838	-0.262939	-4.905890	17.693229	168.040232
03006		-2.656329	-2.179446	12.624516	-0.026266	2.263451	0.530682	-0.475098	-0.286621	-0.272461	-4.854359	19.009406	168.246964
03007		-3.271429	-2.800196	8.612653	-0.169803	2.039522	0.157735	-0.471191	-0.293457	-0.275391	-4.952457	20.178500	168.240300
03008		-2.399621	-3.312940	6.115846	-0.186440	2.442645	-0.294071	-0.446289	-0.292969	-0.281006	-5.167658	21.555796	167.932378
03009		-3.842738	-3.054521	8.200717	-0.156120	2.840047	-0.658593	-0.436279	-0.291016	-0.285889	-5.470694	23.138159	167.366940
03010		-6.130550	-1.314896	10.253250	-0.137843	2.938871	-0.800034	-0.427734	-0.293457	-0.293457	-5.823383	24.766873	166.690276
03011		-7.122280	1.021041	9.138219	-0.116274	2.769533	-0.626275	-0.405518	-0.275879	-0.299805	-6.136340	26.304848	166.115577
03012		-7.210528	3.675343	10.185816	-0.151586	2.805789	-0.207294	-0.391602	-0.294678	-0.296875	-6.370312	27.888325	165.790185
03013		-9.317798	1.810283	11.455047	-0.362978	2.681441	0.042348	-0.378906	-0.283447	-0.307861	-6.656934	29.414700	165.623210
03014		-11.295053	-2.194834	10.538619	-0.526401	2.413687	0.067610	-0.362793	-0.279541	-0.310303	-7.028117	30.791095	165.481521
03015		-17.421270	-10.106371	12.308853	-0.074388	2.063196	0.258340	-0.346436	-0.284180	-0.320557	-7.065931	31.979669	165.488011
03016		-15.896756	-6.631498	8.703421	0.508357	0.465124	0.632983	-0.346191	-0.270020	-0.316162	-6.565138	32.286717	165.879982
03017		-8.217753	3.156901	9.189241	0.517289	0.309388	0.629501	-0.344482	-0.282715	-0.324463	-6.049926	32.499711	166.285778
03018		-6.080783	-0.221895	9.153408	0.338560	0.262928	0.455796	-0.349121	-0.284180	-0.306396	-5.696583	32.676248	166.579809
03019		-5.438841	-1.534965	7.727612	0.336190	0.269052	0.349923	-0.346436	-0.286865	-0.308350	-5.381380	32.846161	166.803690
03020		-6.787102	0.308216	8.629471	0.323355	0.277473	0.222812	-0.344727	-0.293701	-0.317383	-5.120009	33.016101	166.941813
03021		-6.305592	0.893193	8.350344	0.171670	0.064562	0.146780	-0.342041	-0.284424	-0.310303	-4.965534	33.057436	167.042121
03022		-5.626041	-0.995428	8.052158	0.163955	0.061759	0.141100	-0.340820	-0.288086	-0.312256	-4.817703	33.099607	167.138740
03023		-5.702449	-0.854647	8.074473	0.194467	0.025556	0.140217	-0.350342	-0.292969	-0.309082	-4.651113	33.117906	167.237122
03024		-6.107274	0.126323	8.519154	0.171103	-0.008907	0.109813	-0.340576	-0.296387	-0.309326	-4.508537	33.117872	167.316552
03025		-5.794132	0.619400	8.548511	0.089707	-0.060096	0.039100	-0.346924	-0.293701	-0.314209	-4.437092	33.082351	167.350643
03026		-5.593564	0.012695	8.512363	0.036211	-0.045997	0.003252	-0.348633	-0.289551	-0.312500	-4.410305	33.056272	167.359418
03027		-5.670236	-0.029840	8.433958	-0.004848	-0.046224	-0.034989	-0.344482	-0.292969	-0.312988	-4.421027	33.025378	167.342226
03028		-5.365127	-0.509421	8.139448	-0.026273	-0.052333	-0.053010	-0.343262	-0.288818	-0.304199	-4.450656	32.993190	167.313060
03029		-5.240632	-0.482402	8.145091	-0.016366	-0.042305	-0.052261	-0.349854	-0.286133	-0.311523	-4.474453	32.963754	167.283940
03030		-5.298914	-0.650468	8.177919	-0.019445	-0.036527	-0.055517	-0.346191	-0.290039	-0.314941	-4.501485	32.940449	167.252290
03031		-5.275952	-1.026254	8.136937	-0.000304	-0.029663	-0.053567	-0.351318	-0.285889	-0.317627	-4.516887	32.918155	167.221647
03032		-5.365288	-0.714812	8.130042	0.020490	-0.032476	-0.043759	-0.355225	-0.291992	-0.315186	-4.516803	32.897669	167.197793
03033		-5.349449	-0.583158	8.218977	0.029900	-0.042288	-0.035342	-0.340576	-0.286865	-0.302979	-4.507771	32.868984	167.180242
03034		-5.412910	-0.627264	8.216785	0.025650	-0.046783	-0.024891	-0.345215	-0.297852	-0.316895	-4.497335	32.841173	167.169990
03035		-5.416883	-0.802903	8.249089	0.028644	-0.057095	-0.014824	-0.338135	-0.294922	-0.310059	-4.481020	32.804956	167.167173
03036		-5.444852	-0.656756	8.237637	0.033203	-0.060245	-0.002076	-0.344971	-0.291016	-0.314209	-4.457481	32.770477	167.173119
03037		-5.362240	-0.521511	8.268627	0.036123	-0.046495	-0.000559	-0.342041	-0.299316	-0.314209	-4.431955	32.740951	167.179401
03038		-5.146165	-0.703802	8.252922	0.032613	-0.029001	-0.006106	-0.345703	-0.292969	-0.311523	-4.411139	32.724134	167.180934
03039		-5.328667	-0.711177	8.200729	0.045663	-0.014540	-0.000138	-0.343018	-0.288574	-0.316406	-4.380916	32.712877	167.185801
03040		-5.225670	-0.665234	8.255021	0.060835	-0.014249	0.012641	-0.339844	-0.288818	-0.316162	-4.337487	32.705285	167.199267
03041		-5.347498	-0.521692	8.303248	0.050720	0.009376	0.001519	-0.343994	-0.291504	-0.309326	-4.304432	32.707758	167.204015
03042		-5.012798	-0.664029	8.310979	0.039391	0.016799	-0.006566	-0.350098	-0.291016	-0.315674	-4.281193	32.717052	167.202846
03043		-5.214381	-0.788633	8.319706	0.035435	0.038789	-0.011066	-0.346924	-0.281494	-0.304688	-4.262321	32.735791	167.197557
03044		-5.391262	-0.708945	8.287077	0.037950	0.047142	-0.008556	-0.337891	-0.288574	-0.310791	-4.241481	32.762302	167.193500
03045		-5.478014	-0.674800	8.283994	0.046553	0.056557	0.004022	-0.340820	-0.289063	-0.315918	-4.211166	32.791834	167.197588
03046		-5.505336	-0.534686	8.318131	0.051957	0.071450	0.011396	-0.347412	-0.291260	-0.308594	-4.175607	32.833072	167.205905
03047		-5.370789	-0.773767	8.246860	0.056247	0.074672	0.015042	-0.348145	-0.290527	-0.311768	-4.136126	32.873409	167.216640
03048		-5.345737	-0.777888	8.268612	0.071306	0.087585	0.031377	-0.341309	-0.293701	-0.308350	-4.082476	32.924674	167.237841
03049		-5.415972	-0.474885	8.256123	0.075534	0.080614	0.033070	-0.343506	-0.293213	-0.318115	-4.025355	32.969121	167.260664
03050		-5.406347	-0.498453	8.311393	0.062898	0.084430	0.031501	-0.338623	-0.286865	-0.316162	-3.976295	33.018544	167.282230
03051		-5.338322	-0.462625	8.341209	0.052193	0.093608	0.034943	-0.342529	-0.293457	-0.317627	-3.932089	33.070459	167.305835
03052		-5.338041	-0.591875	8.223197	0.044181	0.109974	0.025339	-0.342529	-0.292969	-0.310303	-3.896589	33.134199	167.322123
03053		-5.278574	-0.808385	8.203297	0.051210	0.112246	0.035342	-0.349854	-0.301270	-0.316895	-3.853163	33.196756	167.345257
03054		-5.510760	-0.740727	8.149861	0.065707	0.115273	0.059588	-0.336182	-0.297852	-0.309082	-3.792543	33.264793	167.384841
03055		-5.549489	-0.484319	8.120603	0.071279	0.100765	0.068808	-0.350586	-0.292969	-0.312500	-3.724625	33.322004	167.431567
03056		-5.430654	-0.651131	8.209856	0.062211	0.098536	0.060734	-0.334473	-0.294434	-0.313721	-3.664980	33.380446	167.472901
03057		-5.372429	-0.923109	8.261891	0.064523	0.092194	0.068133	-0.338623	-0.298828	-0.317139	-3.600788	33.432645	167.519749
03058		-5.481756	-0.725234	8.181869	0.073132	0.094746	0.086172	-0.345459	-0.293457	-0.310547	-3.525034	33.489729	167.578870
03059		-5.553787	-0.344076	8.245408	0.068888	0.094533	0.087956	-0.343994	-0.288330	-0.315674	-3.450692	33.543858	167.639435
03060		-5.635480	-0.222971	8.237294	0.048404	0.102125	0.073111	-0.329834	-0.288330	-0.316895	-3.394000	33.604590	167.689525
03061		-5.560098	-0.240290	8.256535	0.024009	0.114598	0.056994	-0.336914	-0.294189	-0.320068	-3.357381	33.669052	167.728218
03062		-5.479156	-0.238176	8.344708	0.003114	0.126710	0.043185	-0.330566	-0.295898	-0.315186	-3.338374	33.742790	167.756934
03063		-5.604297	-0.194944	8.308646	-0.020195	0.147578	0.023537	-0.341553	-0.292725	-0.321533	-3.340476	33.824979	167.771393
03064		-5.570192	-0.320531	8.283456	-0.038945	0.169570	0.008021	-0.335205	-0.299805	-0.303955	-3.359890	33.922042	167.774232
03065		-5.566877	-0.296916	8.262938	-0.057071	0.187657	-0.004679	-0.335693	-0.291016	-0.313721	-3.394885	34.026211	167.767566
03066		-5.401020	-0.160406	8.318035	-0.086271	0.229407	-0.012795	-0.337158	-0.294434	-0.321045	-3.450899	34.156775	167.753434
03067		-5.593175	-0.358128	8.250535	-0.110385	0.262060	-0.026587	-0.326660	-0.291504	-0.315430	-3.526905	34.302720	167.728210
03068		-5.689694	-0.398416	8.199330	-0.121298	0.264124	-0.041411	-0.324707	-0.301270	-0.314209	-3.615310	34.452059	167.692319
03069		-5.708141	-0.219861	8.123100	-0.138008	0.268719	-0.057165	-0.333496	-0.292236	-0.314209	-3.719809	34.600625	167.644936
03070		-5.699209	-0.246313	8.133706	-0.155442	0.279655	-0.074102	-0.329590	-0.288574	-0.320068	-3.841689	34.757497	167.584836
03071		-5.742469	-0.254970	8.166737	-0.173374	0.291542	-0.099103	-0.320557	-0.292236	-0.310791	-3.984514	34.917301	167.506205
03072		-5.781278	-0.473820	8.109283	-0.176759	0.292055	-0.122727	-0.331787	-0.286865	-0.314697	-4.139320	35.079037	167.410430
03073		-5.780765	-0.631071	8.055168	-0.174625	0.278600	-0.133493	-0.320068	-0.294189	-0.308838	-4.297447	35.229650	167.307087
03074		-5.602556	-0.843441	8.109558	-0.149863	0.268541	-0.123163	-0.324951	-0.293457	-0.314941	-4.437524	35.377509	167.210862
03075		-5.784931	-0.658384	7.939423	-0.144724	0.262636	-0.099527	-0.324219	-0.297852	-0.322510	-4.565376	35.520112	167.130927
03076		-5.782615	-0.537187	7.931425	-0.146986	0.258432	-0.088738	-0.317871	-0.283447	-0.317383	-4.690496	35.663414	167.058281
03077		-5.622243	-0.265084	8.047837	-0.208188	0.265905	-0.065444	-0.314209	-0.290283	-0.320068	-4.841788	35.809204	167.001029
03078		-5.811921	-0.897028	7.864073	-0.288872	0.298153	-0.022256	-0.314697	-0.285889	-0.320801	-5.023133	35.978123	166.971635
03079		-5.847518	-0.888149	7.785240	-0.291766	0.268447	0.010662	-0.319092	-0.280762	-0.319092	-5.191812	36.128966	166.966642
03080		-5.825840	-0.876739	7.755913	-0.287951	0.249940	0.024479	-0.310547	-0.283691	-0.320801	-5.352205	36.272693	166.972082
03081		-5.723739	-1.171300	7.863725	-0.279745	0.232479	0.042386	-0.312012	-0.277344	-0.321777	-5.499900	36.404715	166.990913
03082		-5.478180	-1.706291	7.906591	-0.255984	0.252786	0.091245	-0.314941	-0.269775	-0.315430	-5.614470	36.553777	167.042629
03083		-5.346881	-1.283519	8.090587	-0.046432	0.322316	0.094140	-0.308594	-0.273926	-0.320557	-5.610470	36.739973	167.091506
03084		-5.690119	-1.232174	8.043411	-0.039539	0.381868	0.131628	-0.311523	-0.281006	-0.318115	-5.588940	36.964856	167.163035
03085		-5.849965	-0.586149	8.096997	-0.014485	0.435098	0.132576	-0.299072	-0.283203	-0.320313	-5.554233	37.217477	167.231976
03086		-5.922085	-0.322915	7.998162	-0.027194	0.487921	0.112466	-0.293213	-0.280518	-0.317871	-5.537511	37.501677	167.283102
03087		-5.905233	-0.356687	7.976371	-0.049874	0.538287	0.074171	-0.298828	-0.281494	-0.315186	-5.552240	37.809885	167.303427
03088		-5.939369	-0.543006	7.918528	-0.063290	0.590022	0.054694	-0.297852	-0.279785	-0.315186	-5.585667	38.149079	167.305882
03089		-6.003278	-0.476607	7.862559	-0.076576	0.632946	0.042757	-0.285889	-0.280273	-0.310303	-5.634021	38.509522	167.296356
03090		-6.093509	-0.404040	7.852092	-0.096285	0.674366	0.024705	-0.286865	-0.281982	-0.322754	-5.704267	38.895075	167.270079
03091		-6.103908	-0.505236	7.809960	-0.120942	0.712566	0.010819	-0.279785	-0.282715	-0.328369	-5.797435	39.299054	167.229956
03092		-6.054547	-0.661301	7.805820	-0.130338	0.753135	0.002602	-0.275146	-0.279053	-0.313721	-5.902807	39.728111	167.179544
03093		-6.049261	-0.734687	7.851601	-0.147054	0.814118	0.013154	-0.270996	-0.276855	-0.317871	-6.016907	40.189983	167.130852
03094		-6.083131	-0.660504	7.801657	-0.157022	0.884345	0.014065	-0.269531	-0.273682	-0.314209	-6.141301	40.694273	167.075637
03095		-6.094459	-0.853588	7.694351	-0.153682	0.964840	0.024135	-0.259521	-0.275391	-0.334961	-6.264707	41.242514	167.019538
03096		-6.174378	-0.724397	7.669687	-0.152086	1.042334	0.029393	-0.254395	-0.272217	-0.320068	-6.390715	41.837483	166.958823
03097		-6.267086	-0.562230	7.579637	-0.161380	1.122826	0.016053	-0.252686	-0.277832	-0.324463	-6.535745	42.474949	166.878374
03098		-6.282374	-0.816942	7.600214	-0.170771	1.206200	0.007520	-0.244141	-0.264893	-0.322754	-6.698613	43.161429	166.780634
03099		-6.221127	-0.999501	7.627956	-0.149037	1.304445	0.021181	-0.247070	-0.274658	-0.325684	-6.851421	43.902241	166.680682
03100		-6.263810	-1.214589	7.677704	-0.109168	1.425860	0.055181	-0.228027	-0.276855	-0.325928	-6.974332	44.716470	166.592264
03101		-6.374717	-1.124631	7.634532	-0.079180	1.551182	0.083830	-0.224854	-0.267090	-0.319336	-7.075954	45.601657	166.510915
03102		-6.546231	-1.006232	7.518132	-0.053602	1.690614	0.113424	-0.212402	-0.265869	-0.315918	-7.159171	46.570181	166.436116
03103		-6.566945	-0.948755	7.428423	-0.042772	1.833934	0.131451	-0.200439	-0.268799	-0.318848	-7.239585	47.619337	166.357843
03104		-6.632390	-0.892776	7.428164	-0.026095	1.988272	0.135269	-0.189697	-0.277832	-0.317871	-7.324567	48.758330	166.262046
03105		-6.675336	-0.849533	7.351111	-0.015372	2.146472	0.135759	-0.173828	-0.270020	-0.317627	-7.421699	49.985227	166.143793
03106		-6.705401	-0.748340	7.356847	0.000592	2.333756	0.132444	-0.169434	-0.271729	-0.317139	-7.536031	51.319884	165.993733
03107		-6.782062	-0.863623	7.326035	0.025932	2.539325	0.130212	-0.153564	-0.264648	-0.320557	-7.666945	52.769156	165.807060
03108		-6.847887	-0.909238	7.322730	0.041578	2.755807	0.140612	-0.135986	-0.272949	-0.312256	-7.816694	54.343399	165.589584
03109		-6.872579	-0.946156	7.137009	0.045624	3.013488	0.149625	-0.121338	-0.272949	-0.307861	-8.003534	56.062654	165.328511
03110		-7.016327	-1.222750	7.024017	0.075977	3.299672	0.173640	-0.108643	-0.267090	-0.301514	-8.211911	57.946956	165.026537
03111		-7.252985	-1.570116	6.831327	0.104250	3.594041	0.257413	-0.085693	-0.274902	-0.297852	-8.396414	60.003212	164.739901
03112		-7.460153	-1.485587	6.316346	0.123752	3.848724	0.351924	-0.060059	-0.281250	-0.291504	-8.544754	62.212343	164.487961
03113		-7.561320	-1.169471	5.973235	0.147279	4.097662	0.415496	-0.038574	-0.277832	-0.282227	-8.683581	64.566634	164.236745
03114		-8.582387	-0.873800	5.754669	0.155248	4.325528	0.419247	-0.021973	-0.286377	-0.276367	-8.900071	67.050658	163.900478
03115		-8.907652	-1.134108	5.311827	0.169810	4.480583	0.419122	-0.001709	-0.277100	-0.262451	-9.212181	69.621014	163.458513
03116		-9.209612	-1.235557	4.764259	0.192530	4.629159	0.459018	0.020996	-0.290039	-0.253174	-9.593632	72.278565	162.936937
03117		-9.531507	-1.371543	3.989197	0.222293	4.747345	0.536513	0.050781	-0.287842	-0.239014	-9.996558	75.008673	162.382922
03118		-11.267206	-0.549481	4.095639	0.236981	4.836323	0.563649	0.060791	-0.295898	-0.219727	-10.576707	77.790612	161.645128
03119		-11.357888	-0.735309	4.025109	0.094473	4.799456	0.564909	0.086426	-0.287109	-0.204102	-11.606187	80.549017	160.540724
03120		-11.733256	-1.248064	3.851142	-0.060677	4.775096	0.635232	0.116455	-0.302246	-0.189453	-13.260438	83.297089	158.904086
03121		-13.550155	-1.764891	3.714806	-0.094738	4.800796	0.752509	0.131592	-0.298584	-0.173584	-16.341482	86.065334	155.863703
03122		-15.861383	-1.442661	4.282072	-0.212531	4.435833	0.853054	0.145752	-0.308594	-0.151855	-26.657499	88.617214	145.659652
03123		-13.939852	-2.066611	3.394988	-0.309939	4.189148	0.981933	0.156006	-0.310303	-0.134766	-177.310248	88.836507	-4.823836
03124		-13.688910	-2.486691	4.237828	-0.364049	4.093514	1.155901	0.179932	-0.311768	-0.119873	169.984439	86.442973	-17.329807
03125		-12.534476	-1.741737	3.657094	-0.376758	3.980863	1.343517	0.188965	-0.326416	-0.103760	166.297884	84.053955	-20.813104
03126		-13.482417	-1.109572	3.767967	-0.616900	3.759521	1.361724	0.209717	-0.322754	-0.092041	164.251767	81.775741	-22.519918
03127		-11.061624	-0.418982	3.338372	-1.002288	3.660263	1.331487	0.217041	-0.333496	-0.068359	162.819378	79.550424	-23.390770
03128		-11.315332	0.413446	4.284745	-1.610575	3.528161	1.194762	0.223633	-0.337402	-0.054199	161.702756	77.420632	-23.590005
03129		-10.422835	0.179682	4.201197	-2.354858	3.332322	1.056709	0.236084	-0.334473	-0.034912	160.524589	75.420171	-23.415374
03130		-9.362754	0.226973	3.369837	-2.945981	3.175920	1.054808	0.244141	-0.330322	-0.013428	159.045491	73.508565	-23.200077
03131		-8.189175	-0.915784	4.786538	-3.293536	2.896655	1.228706	0.254395	-0.333252	-0.007324	157.042666	71.707875	-23.322710
03132		-15.008653	-2.670021	8.337329	-3.428837	2.038464	1.096925	0.257324	-0.330078	0.008545	154.784299	70.390426	-23.634799
03133		-21.556439	-4.532767	12.371305	-3.226785	-0.424366	0.838425	0.259033	-0.336670	0.000732	151.413316	70.391273	-25.252174
03134		-12.096720	-5.415382	9.633269	-2.857891	-2.403803	0.403377	0.254395	-0.335205	0.001465	147.153356	71.464369	-28.028175
03135		-9.701183	-6.223419	8.107193	-2.000085	-3.659175	0.047159	0.247559	-0.333252	-0.023193	142.119299	73.160177	-32.109951
03136		-5.022817	-4.599802	5.596593	-1.201192	-4.327304	-0.263534	0.244385	-0.341553	-0.053955	136.092785	75.143119	-37.659075
03137		-1.849397	-3.619959	4.006728	-0.467653	-4.439919	-0.572114	0.225342	-0.333008	-0.066162	129.120336	77.109736	-44.564976
03138		-0.717822	0.080696	3.180416	-0.034887	-4.228468	-0.952294	0.215088	-0.330078	-0.088135	121.191817	78.962226	-52.648327
03139		-2.117427	4.471092	3.611509	-0.284333	-3.962643	-1.518066	0.208252	-0.327637	-0.101563	111.803142	80.758034	-62.020110
03140		-3.988826	5.795420	4.194575	-0.998704	-3.884969	-2.183107	0.199707	-0.325684	-0.114990	98.731895	82.565355	-74.650592
03141		-4.943666	3.887402	4.483581	-1.442491	-3.983529	-2.694162	0.188232	-0.306885	-0.137695	77.932229	84.061375	-94.757380
03142		-5.502375	1.327214	4.734660	-1.249429	-4.168610	-2.914520	0.177979	-0.290039	-0.149658	48.045261	84.472976	-124.069152
03143		-5.925877	0.198414	4.957924	-0.553965	-4.358601	-2.869832	0.161621	-0.281494	-0.174561	21.537833	83.325770	-150.403253
03144		-6.260993	0.944506	5.248017	0.242901	-4.524233	-2.684126	0.145020	-0.275879	-0.194824	6.109546	81.144455	-166.111013
03145		-6.655871	2.502869	5.440946	0.789660	-4.667085	-2.440912	0.128174	-0.282227	-0.206055	-1.781224	78.514695	-174.586269
03146		-7.121347	3.597869	5.549642	1.009983	-4.779211	-2.176079	0.114258	-0.281738	-0.224121	-5.837380	75.684932	-179.340641
03147		-7.475847	3.958102	5.609861	1.036498	-4.855340	-1.883346	0.102783	-0.272217	-0.256592	-7.851033	72.790691	177.949232
03148		-7.824793	3.800073	5.684247	0.964786	-4.888356	-1.563853	0.084961	-0.290039	-0.266846	-8.719427	69.877158	176.448261
03149		-8.201142	3.077479	5.958386	0.879653	-4.899756	-1.213238	0.064209	-0.288818	-0.293945	-8.857470	66.993852	175.756459
03150		-8.740494	2.097336	6.406250	0.871735	-4.871637	-0.854461	0.043701	-0.286621	-0.303955	-8.487798	64.147880	175.612260
03151		-9.527208	1.389173	7.071387	0.929044	-4.864473	-0.536091	0.030518	-0.307861	-0.332031	-7.771845	61.342614	175.817057
03152		-10.444618	1.018241	7.598294	0.933314	-4.914649	-0.281886	0.004395	-0.308594	-0.351563	-6.885375	58.516014	176.221434
03153		-10.797328	0.391291	8.052448	0.867837	-4.993414	-0.082764	-0.025879	-0.317383	-0.366211	-5.959219	55.664814	176.730358
03154		-10.756207	-0.598651	8.370043	0.807145	-5.029151	0.041736	-0.041016	-0.326660	-0.393311	-5.072622	52.785631	177.250905
03155		-10.656430	-1.651313	8.718239	0.849761	-4.987763	0.114500	-0.062744	-0.329834	-0.408691	-4.208651	49.939586	177.731560
03156		-11.050928	-1.835426	9.369869	0.903808	-4.895914	0.116954	-0.096924	-0.341797	-0.421387	-3.399205	47.131629	178.118534
03157		-11.813309	-1.538530	10.176328	0.841376	-4.799753	0.030963	-0.130371	-0.341797	-0.444336	-2.742556	44.383449	178.360027
03158		-12.772718	-1.223706	10.947331	0.600564	-4.738652	-0.145420	-0.160645	-0.361816	-0.450928	-2.359189	41.654003	178.415662
03159		-13.498046	-1.587850	11.270788	0.281088	-4.702866	-0.373234	-0.190674	-0.355713	-0.464600	-2.282465	38.949938	178.283070
03160		-13.697874	-2.536951	11.027761	0.045616	-4.639013	-0.577094	-0.232422	-0.353027	-0.468750	-2.423313	36.267605	178.007649
03161		-13.869132	-3.085313	10.660512	-0.078257	-4.506368	-0.729728	-0.271484	-0.358887	-0.478027	-2.676144	33.666534	177.642341
03162		-14.439199	-2.883491	10.295884	-0.184521	-4.336990	-0.847144	-0.308350	-0.364014	-0.482422	-3.008598	31.148244	177.217678
03163		-14.630865	-2.515337	9.718327	-0.365428	-4.171222	-0.946205	-0.334961	-0.352783	-0.481934	-3.448818	28.728539	176.752431
03164		-14.428931	-2.564058	9.140570	-0.598765	-3.974101	-1.009821	-0.371826	-0.355957	-0.476807	-4.013687	26.407400	176.271740
03165		-14.511133	-1.864360	8.065207	-0.835664	-3.767051	-1.072904	-0.401367	-0.344482	-0.482910	-4.701756	24.205612	175.779070
03166		-13.563336	-1.198829	6.664194	-1.051281	-3.594843	-1.166215	-0.432373	-0.337402	-0.465820	-5.508364	22.084639	175.258039
03167		-11.818794	-0.009553	5.320069	-1.242741	-3.323488	-1.291840	-0.455566	-0.335205	-0.458008	-6.425329	20.110941	174.685065
03168		-10.402030	0.858086	4.211152	-1.398524	-2.909890	-1.489519	-0.483398	-0.331299	-0.460938	-7.450067	18.344230	174.004690
03169		-9.972380	-0.030132	3.286322	-1.284712	-2.432915	-1.712009	-0.504883	-0.328369	-0.441406	-8.430486	16.825394	173.191485
03170		-10.132439	-1.478827	2.244472	-0.744215	-1.993538	-1.800893	-0.522705	-0.322266	-0.441895	-9.100315	15.531952	172.314608
03171		-10.154543	-0.779615	1.239720	-0.121675	-1.634672	-1.668391	-0.537842	-0.329834	-0.432861	-9.379995	14.451356	171.497457
03172		-9.948742	1.599473	0.461558	0.092076	-1.323310	-1.424635	-0.549072	-0.340088	-0.424561	-9.495271	13.563561	170.799442
03173		-9.372203	3.093359	-0.055536	-0.162266	-0.970202	-1.148373	-0.546875	-0.346924	-0.426758	-9.716672	12.903055	170.232188
03174		-9.112831	2.788746	-0.341433	-0.559952	-0.601078	-0.848757	-0.554688	-0.343018	-0.425293	-10.129878	12.475333	169.805843
03175		-9.082002	0.746218	-0.215707	-0.707876	-0.244506	-0.514514	-0.559570	-0.342773	-0.427002	-10.591309	12.281945	169.538661
03176		-9.240314	-1.179743	0.519295	-0.441579	0.042418	-0.155319	-0.563232	-0.340088	-0.419922	-10.861990	12.285876	169.448482
03177		-9.066828	-1.578443	1.403545	0.023142	0.250775	0.140429	-0.565186	-0.334473	-0.420898	-10.835066	12.439604	169.505631
03178		-8.589560	-1.072952	2.395409	0.347331	0.443229	0.346783	-0.557129	-0.341797	-0.429688	-10.600824	12.723884	169.661188
03179		-8.361025	-0.593408	3.440130	0.373644	0.625054	0.464112	-0.553711	-0.344727	-0.431396	-10.339367	13.121817	169.866627
03180		-7.303199	-1.604785	4.509745	0.236759	0.790190	0.523899	-0.550049	-0.338867	-0.429199	-10.150421	13.619549	170.091389
03181		-6.113872	-2.799297	5.600587	0.229073	0.979734	0.549621	-0.548828	-0.346436	-0.432617	-9.964234	14.224680	170.313770
03182		-6.222015	-2.969921	6.769440	0.292019	1.057667	0.443822	-0.539795	-0.336182	-0.437500	-9.756710	14.864782	170.469267
03183		-5.991765	-3.406987	7.674564	0.367158	1.000779	0.234728	-0.530029	-0.341797	-0.445313	-9.533994	15.450003	170.511025
03184		-5.695992	-3.895943	8.308586	0.502247	0.879552	-0.019849	-0.533691	-0.340820	-0.442139	-9.270582	15.945333	170.417663
03185		1.229169	-6.603103	10.976840	1.000278	1.315266	-0.046475	-0.518799	-0.349609	-0.453125	-8.737144	16.682815	170.271293
03186		2.499742	-4.499883	7.858517	1.222042	1.544087	-0.032993	-0.509521	-0.354492	-0.456543	-8.081079	17.555064	170.119971
