// General information: 
//  MT Manager version: 2022.2.0 
//  XDA version: 2022.2.0 build 7381 rev 124627 built on 2023-07-19
// Device information: 
//  DeviceId: 00B4C3A0
//  ProductCode: MTW2-3A7G6
//  Firmware Version: 4.6.0
//  Hardware Version: 2.0.0
// Device settings: 
//  Filter Profile: human(46.1)
//  Option Flags: Orientation Smoother Disabled, Position/Velocity Smoother Disabled, Continuous Zero Rotation Update Disabled, AHS Disabled, ICC Disabled
// Coordinate system: ENU
PacketCounter	SampleTimeFine	Acc_X	Acc_Y	Acc_Z	Gyr_X	Gyr_Y	Gyr_Z	Mag_X	Mag_Y	Mag_Z	Roll	Pitch	Yaw
45984		9.541910	1.495100	-0.038483	0.057558	0.006829	0.001488	-0.409424	-0.268799	0.638672	91.917728	-81.079866	-178.646621
45985		9.579945	1.533680	-0.043756	0.056976	0.009449	0.003831	-0.400391	-0.266357	0.627197	91.920104	-81.082571	-178.613478
45986		9.576793	1.567468	-0.040314	0.053998	0.017250	0.005179	-0.400146	-0.262451	0.638184	91.900930	-81.085421	-178.559694
45987		9.563544	1.581878	-0.025165	0.051494	0.024520	0.005161	-0.410400	-0.267334	0.622314	91.846133	-81.089237	-178.470123
45988		9.550289	1.596309	-0.009867	0.042088	0.018801	0.005113	-0.399658	-0.260010	0.638672	91.814396	-81.092066	-178.410531
45989		9.560435	1.615464	-0.019582	0.034762	0.020804	-0.001967	-0.399170	-0.272461	0.644531	91.760896	-81.091783	-178.331511
45990		9.557204	1.649756	-0.015464	0.027517	0.014073	0.000930	-0.407227	-0.268311	0.643066	91.737583	-81.092121	-178.288896
45991		9.570545	1.634855	-0.028819	0.027863	0.007817	-0.001988	-0.407715	-0.262695	0.635986	91.730787	-81.091314	-178.263740
45992		9.593982	1.639397	-0.053907	0.023179	-0.002057	-0.002195	-0.401855	-0.264404	0.629639	91.763574	-81.089580	-178.280425
45993		9.552718	1.634994	-0.046181	0.016232	-0.001027	-0.001850	-0.392578	-0.259521	0.629883	91.779845	-81.088912	-178.283063
45994		9.560336	1.616057	-0.018629	0.012643	0.001574	-0.000705	-0.396729	-0.265381	0.632813	91.793490	-81.088094	-178.286484
45995		9.573711	1.600954	-0.032232	0.008350	0.008880	0.003748	-0.406738	-0.266602	0.628662	91.772169	-81.090658	-178.256974
45996		9.536941	1.611274	0.007187	-0.004064	0.003133	0.002508	-0.404541	-0.266357	0.627197	91.770912	-81.091708	-178.255000
45997		9.500118	1.621877	0.046529	-0.010728	0.004112	-0.002226	-0.403564	-0.264648	0.636475	91.751610	-81.090835	-178.239289
45998		9.538115	1.660742	0.041799	-0.015872	0.002582	0.001457	-0.403564	-0.260254	0.625977	91.745481	-81.091273	-178.239231
45999		9.510254	1.641079	0.036619	-0.026179	0.002040	0.001001	-0.404785	-0.258789	0.631348	91.726675	-81.092250	-178.231053
46000		9.523652	1.625841	0.023330	-0.029462	0.002074	0.004889	-0.401367	-0.269043	0.629883	91.714990	-81.094645	-178.233252
46001		9.523741	1.625313	0.023976	-0.031795	0.001045	0.006049	-0.411133	-0.263428	0.638672	91.697177	-81.098445	-178.230114
46002		9.547340	1.628956	-0.000416	-0.034962	-0.001007	0.008964	-0.407227	-0.268555	0.632324	91.694047	-81.103122	-178.244162
46003		9.564042	1.578972	-0.017036	-0.036704	-0.004653	0.007786	-0.408691	-0.262207	0.629639	91.693857	-81.107839	-178.261185
46004		9.576242	1.574021	0.041722	-0.043572	-0.002017	0.012821	-0.394287	-0.266602	0.637451	91.689920	-81.114709	-178.279410
46005		9.608821	1.547281	-0.027704	-0.044725	-0.008276	0.009304	-0.405762	-0.267578	0.634033	91.700237	-81.120161	-178.312189
46006		9.562052	1.537381	0.021936	-0.054055	-0.012394	0.013940	-0.403320	-0.267578	0.627441	91.728514	-81.127492	-178.369097
46007		9.554602	1.555431	-0.006302	-0.052514	-0.016063	0.008872	-0.405762	-0.268066	0.633301	91.761692	-81.132545	-178.430656
46008		9.549037	1.550329	0.034664	-0.052508	-0.016057	0.008874	-0.404053	-0.263916	0.634277	91.803854	-81.136899	-178.500717
46009		9.537128	1.553468	-0.024475	-0.049979	-0.015510	0.011432	-0.404785	-0.266602	0.630859	91.837379	-81.143448	-178.559811
46010		9.519525	1.552287	-0.041967	-0.053332	-0.017069	0.010632	-0.399902	-0.265137	0.629150	91.883127	-81.148776	-178.633977
46011		9.496256	1.546667	-0.017656	-0.049057	-0.012881	0.014374	-0.405273	-0.267090	0.634521	91.907989	-81.157029	-178.684291
46012		9.547845	1.569219	-0.037296	-0.044083	-0.013392	0.014793	-0.408691	-0.260742	0.637695	91.946173	-81.164797	-178.745437
46013		9.550008	1.544394	0.031877	-0.044916	-0.004068	0.011282	-0.410400	-0.261475	0.624268	91.940712	-81.171526	-178.760294
46014		9.566029	1.566848	-0.020363	-0.053517	-0.005073	0.015145	-0.408203	-0.271729	0.632324	91.942964	-81.179654	-178.790544
46015		9.609471	1.546232	0.040831	-0.058422	-0.010763	0.016871	-0.408447	-0.273193	0.640381	91.953447	-81.189451	-178.831094
46016		9.597619	1.548962	-0.018058	-0.057413	-0.018026	0.016280	-0.404541	-0.275879	0.631104	92.001586	-81.197971	-178.910036
46017		9.556640	1.542839	-0.010682	-0.057406	-0.018019	0.016282	-0.404053	-0.276123	0.625000	92.041312	-81.207071	-178.982230
46018		9.572150	1.502764	0.043632	-0.054597	-0.017510	0.013759	-0.400146	-0.272705	0.633057	92.089050	-81.214139	-179.059130
46019		9.569219	1.535680	0.045867	-0.054840	-0.021139	0.013164	-0.405029	-0.266846	0.631592	92.141527	-81.221347	-179.143843
46020		9.582701	1.519624	0.031059	-0.043992	-0.009219	0.011688	-0.406494	-0.271973	0.633057	92.164492	-81.227391	-179.189525
46021		9.631736	1.503783	0.050320	-0.046264	-0.006107	0.009735	-0.406738	-0.270020	0.631104	92.165623	-81.233083	-179.213922
46022		9.614050	1.503064	0.034026	-0.045014	0.000616	0.004487	-0.395752	-0.270264	0.638672	92.150531	-81.235215	-179.221689
46023		9.630535	1.453511	0.017073	-0.051416	-0.005072	0.005612	-0.408203	-0.265137	0.637939	92.145670	-81.238495	-179.243466
46024		9.630597	1.453103	0.017224	-0.047003	-0.006645	0.002696	-0.403320	-0.281006	0.632813	92.156168	-81.239446	-179.278278
46025		9.596448	1.501819	0.018115	-0.036823	-0.004061	0.004121	-0.394287	-0.262695	0.627686	92.154793	-81.241907	-179.295508
46026		9.614296	1.501468	0.035113	-0.023485	0.000579	0.002636	-0.403076	-0.273438	0.632813	92.151922	-81.242978	-179.303160
46027		9.614388	1.500856	0.035990	-0.012725	0.012003	0.009964	-0.401367	-0.275391	0.634766	92.106265	-81.249143	-179.260791
46028		9.587938	1.529776	0.065728	-0.006764	0.014565	0.004530	-0.402832	-0.266602	0.638916	92.061198	-81.251592	-179.216056
46029		9.613488	1.509453	0.111349	-0.014026	0.011501	0.013083	-0.405518	-0.273926	0.630615	92.017196	-81.259489	-179.176179
46030		9.563671	1.533255	0.165751	-0.015773	0.007868	0.011887	-0.403564	-0.270996	0.626953	91.992791	-81.266007	-179.157572
46031		9.541547	1.517325	0.118991	-0.021816	0.003735	0.012622	-0.400146	-0.266113	0.627686	91.971416	-81.273502	-179.146382
46032		9.546241	1.530913	0.150411	-0.018240	0.001127	0.011454	-0.396729	-0.268555	0.636475	91.970642	-81.279637	-179.153114
46033		9.510799	1.530138	0.117351	-0.017963	0.001109	0.006373	-0.391602	-0.274170	0.636963	91.962283	-81.283497	-179.150989
46034		9.545041	1.480546	0.116746	-0.017381	-0.001496	0.004018	-0.403076	-0.268799	0.639160	91.970848	-81.285323	-179.166671
46035		9.549591	1.495072	0.147718	-0.019433	-0.002541	0.000094	-0.395752	-0.273438	0.623291	91.975407	-81.285415	-179.179692
46036		9.568539	1.484784	0.092197	-0.016298	0.003169	0.002874	-0.408447	-0.273926	0.632324	91.967021	-81.286678	-179.177597
46037		9.569984	1.533537	0.126869	-0.016077	-0.000989	0.000899	-0.399414	-0.274170	0.633789	91.965310	-81.287314	-179.183799
46038		9.586385	1.484307	0.109536	-0.016658	0.001616	0.003256	-0.396484	-0.276855	0.631592	91.962571	-81.288765	-179.187626
46039		9.561053	1.503391	0.065740	-0.017959	0.001111	0.006375	-0.394775	-0.267822	0.626221	91.954088	-81.292489	-179.188734
46040		9.584565	1.507589	0.040979	-0.018765	-0.003569	0.002437	-0.399170	-0.264404	0.637451	91.969425	-81.293369	-179.212069
46041		9.592236	1.487722	0.068380	-0.016242	-0.003050	0.004993	-0.403320	-0.270508	0.627686	91.977522	-81.296352	-179.224929
46042		9.568845	1.482744	0.093263	-0.014939	-0.002543	0.001874	-0.406738	-0.270752	0.638916	91.991152	-81.296928	-179.244320
46043		9.574524	1.487306	0.051632	-0.005792	-0.000497	0.001340	-0.397217	-0.264160	0.629150	91.993758	-81.297885	-179.246333
46044		9.564363	1.467784	0.062348	-0.009147	-0.002046	0.000534	-0.397217	-0.272461	0.628906	92.008674	-81.297703	-179.263666
46045		9.564379	1.467691	0.062163	0.000775	-0.003113	0.001354	-0.400635	-0.271484	0.628906	92.025772	-81.298570	-179.277045
46046		9.551147	1.482273	0.075944	-0.001914	-0.005695	0.002891	-0.402832	-0.278564	0.630371	92.058801	-81.299662	-179.308510
46047		9.559924	1.452560	0.030221	-0.001804	-0.007774	0.001902	-0.406006	-0.272705	0.631104	92.091034	-81.300693	-179.340986
46048		9.567034	1.506056	0.022379	-0.006404	-0.005685	0.001112	-0.397217	-0.267090	0.625732	92.121223	-81.300761	-179.372180
46049		9.552342	1.471855	0.001573	-0.006655	-0.009319	0.000504	-0.399658	-0.272949	0.638916	92.156218	-81.301025	-179.408114
46050		9.611364	1.476346	0.009191	-0.008042	-0.011394	-0.001077	-0.399902	-0.273193	0.634277	92.206517	-81.299709	-179.460602
46051		9.621520	1.495880	-0.002695	-0.006796	-0.015031	-0.001093	-0.401855	-0.268311	0.629639	92.263890	-81.298833	-179.519991
46052		9.575753	1.476607	-0.026480	-0.003661	-0.009325	0.001690	-0.399414	-0.275391	0.633057	92.309346	-81.299134	-179.565040
46053		9.575767	1.476503	-0.027296	-0.006654	-0.009318	0.000505	-0.399902	-0.272949	0.626465	92.344802	-81.299332	-179.602066
46054		9.596634	1.442335	-0.014883	0.001935	-0.008318	-0.003364	-0.410400	-0.275879	0.632568	92.388915	-81.296754	-179.642513
46055		9.580248	1.491613	0.002014	-0.005353	-0.008811	-0.002614	-0.400879	-0.274902	0.633057	92.421635	-81.295190	-179.676732
46056		9.570057	1.472346	0.011934	-0.006183	-0.009841	-0.000864	-0.408691	-0.271240	0.629639	92.467150	-81.293997	-179.723304
46057		9.552234	1.472544	-0.005738	-0.009898	-0.012943	-0.001288	-0.392578	-0.272705	0.629883	92.513238	-81.293088	-179.772900
46058		9.556756	1.487467	0.024092	-0.007100	-0.012440	-0.003815	-0.400391	-0.269531	0.632813	92.567418	-81.290129	-179.828770
46059		9.572470	1.511949	-0.029447	0.000854	-0.012980	-0.002225	-0.403809	-0.279297	0.632568	92.621093	-81.288606	-179.879990
46060		9.573893	1.561163	0.003578	0.001434	-0.015582	-0.004584	-0.404297	-0.270752	0.626221	92.691694	-81.285106	-179.947527
46061		9.587112	1.546548	-0.012301	0.000443	-0.018677	0.001258	-0.397949	-0.273193	0.634521	92.765296	-81.285435	179.979940
46062		9.587126	1.546453	-0.013535	-0.004794	-0.007765	0.000719	-0.400635	-0.266846	0.631836	92.804044	-81.285164	179.941018
46063		9.574903	1.551162	-0.072405	-0.012190	-0.006180	0.002462	-0.398438	-0.276855	0.631592	92.825338	-81.286515	179.916098
46064		9.559207	1.526752	-0.020561	-0.021224	-0.010301	0.002016	-0.396729	-0.270752	0.635254	92.864387	-81.286909	179.867348
46065		9.564802	1.531344	-0.062875	-0.026543	-0.011320	0.001992	-0.402832	-0.274170	0.635254	92.896837	-81.287769	179.820948
46066		9.551569	1.546059	-0.049137	-0.035633	-0.009217	-0.000564	-0.399414	-0.272217	0.630859	92.923098	-81.286709	179.776783
46067		9.566319	1.580100	-0.029253	-0.038426	-0.009718	0.001966	-0.410400	-0.270996	0.635010	92.942108	-81.287640	179.737973
46068		9.597395	1.565140	-0.027172	-0.039451	-0.010234	0.000005	-0.403564	-0.268555	0.644043	92.970081	-81.286871	179.689863
46069		9.574026	1.560348	-0.002739	-0.037174	-0.013348	0.001947	-0.405273	-0.269531	0.627441	93.003207	-81.287761	179.640680
46070		9.574022	1.560368	-0.003215	-0.040114	-0.009190	-0.002332	-0.406250	-0.275146	0.631836	93.026436	-81.285678	179.596985
46071		9.549102	1.506979	-0.013219	-0.043155	-0.013323	-0.000414	-0.405029	-0.273682	0.639160	93.054553	-81.285193	179.547224
46072		9.577057	1.526459	-0.008172	-0.046645	-0.020569	-0.002822	-0.402344	-0.271484	0.639160	93.116374	-81.282472	179.460701
46073		9.569314	1.546357	-0.036715	-0.050102	-0.020031	-0.002629	-0.398682	-0.273926	0.636230	93.166570	-81.280443	179.385499
46074		9.568400	1.556074	0.034850	-0.047681	-0.017440	0.000917	-0.401123	-0.277344	0.632568	93.216835	-81.279935	179.310065
46075		9.556080	1.561108	-0.024433	-0.054848	-0.019998	0.000686	-0.406494	-0.271484	0.638184	93.264857	-81.279724	179.232125
46076		9.550585	1.556079	0.016319	-0.061405	-0.017370	0.000695	-0.404785	-0.274658	0.630615	93.306936	-81.279074	179.157018
46077		9.551450	1.546512	-0.057370	-0.058905	-0.024634	0.000641	-0.398682	-0.272949	0.631836	93.368940	-81.278760	179.064875
46078		9.551499	1.546149	-0.058976	-0.056888	-0.027751	0.007656	-0.394775	-0.273438	0.631348	93.453861	-81.281711	178.949043
46079		9.546094	1.540632	-0.018873	-0.050695	-0.021545	0.002840	-0.405518	-0.273682	0.635498	93.510773	-81.282642	178.865496
46080		9.598971	1.481476	-0.077621	-0.047137	-0.020524	0.007353	-0.398438	-0.263672	0.625977	93.574352	-81.285636	178.776909
46081		9.614530	1.441417	-0.024357	-0.047803	-0.019476	0.005018	-0.404297	-0.267090	0.635010	93.624816	-81.287980	178.704542
46082		9.598348	1.489717	-0.007317	-0.042952	-0.017942	0.006410	-0.397217	-0.273682	0.643066	93.681017	-81.290504	178.625846
46083		9.603153	1.503347	0.022682	-0.037074	-0.015900	0.009762	-0.395752	-0.278564	0.637207	93.726654	-81.295612	178.564982
46084		9.585369	1.503017	0.004950	-0.041547	-0.019487	0.002294	-0.402100	-0.279053	0.636719	93.788512	-81.295702	178.481380
46085		9.559080	1.531821	0.032279	-0.046228	-0.025691	0.007699	-0.398438	-0.284424	0.632080	93.864961	-81.299122	178.379736
46086		9.541318	1.531360	0.013484	-0.050896	-0.035508	0.007397	-0.400635	-0.274902	0.633057	93.982664	-81.301465	178.234221
46087		9.528258	1.609565	-0.081143	-0.042695	-0.032443	0.009589	-0.398193	-0.271729	0.635498	94.086329	-81.305656	178.106296
46088		9.554076	1.588470	-0.039816	-0.038203	-0.032468	0.011352	-0.395020	-0.281738	0.632324	94.201196	-81.310300	177.971009
46089		9.534635	1.539217	-0.093732	-0.035988	-0.029366	0.011193	-0.396729	-0.278320	0.631592	94.298529	-81.315465	177.854820
46090		9.532482	1.498585	-0.058241	-0.033923	-0.028349	0.015116	-0.388916	-0.278809	0.637695	94.401788	-81.322365	177.733760
46091		9.604893	1.487058	-0.066916	-0.034378	-0.031438	0.010782	-0.395264	-0.272217	0.632324	94.508605	-81.327074	177.607807
46092		9.535793	1.462399	-0.066951	-0.030771	-0.029887	0.006500	-0.395020	-0.282959	0.631104	94.617146	-81.328914	177.483234
46093		9.550806	1.495410	-0.048573	-0.031910	-0.024711	0.011254	-0.391846	-0.279297	0.630371	94.699744	-81.334196	177.383698
46094		9.529988	1.529050	-0.063143	-0.025206	-0.025254	0.007140	-0.398438	-0.280273	0.637939	94.794458	-81.336562	177.276339
46095		9.524738	1.523309	-0.023629	-0.030617	-0.027788	0.002422	-0.401367	-0.271484	0.635498	94.886890	-81.336571	177.167079
46096		9.544963	1.562352	-0.047130	-0.033750	-0.033452	-0.000380	-0.393066	-0.279053	0.633789	95.005034	-81.334183	177.031068
46097		9.575980	1.547565	-0.048035	-0.040694	-0.040127	-0.002604	-0.398682	-0.278320	0.635010	95.135865	-81.330713	176.879842
46098		9.544875	1.562698	-0.053120	-0.048061	-0.038524	-0.000813	-0.403076	-0.281006	0.640625	95.264470	-81.327723	176.724953
46099		9.604313	1.558424	-0.121019	-0.045420	-0.043695	-0.004986	-0.392578	-0.281494	0.643555	95.404455	-81.322581	176.560837
46100		9.591165	1.573038	-0.109750	-0.041850	-0.039100	0.005236	-0.397217	-0.266602	0.630615	95.540727	-81.322900	176.401789
46101		9.597174	1.504496	-0.121210	-0.035401	-0.043259	0.000479	-0.397217	-0.286621	0.631348	95.687547	-81.320779	176.238626
46102		9.573975	1.499383	-0.099450	-0.029947	-0.036568	0.002122	-0.392822	-0.278564	0.639404	95.819970	-81.319350	176.090369
46103		9.579134	1.504724	-0.144257	-0.027880	-0.039158	0.000324	-0.398438	-0.283936	0.629395	95.955143	-81.317177	175.939105
46104		9.563827	1.479807	-0.095406	-0.028555	-0.038100	-0.002004	-0.393555	-0.277832	0.640381	96.092326	-81.313199	175.786839
46105		9.545752	1.480519	-0.115130	-0.024281	-0.037598	-0.003963	-0.401611	-0.280273	0.632324	96.221556	-81.308617	175.644746
46106		9.545663	1.480865	-0.118017	-0.023780	-0.030357	-0.002691	-0.400879	-0.273438	0.630615	96.332086	-81.304631	175.522206
46107		9.568694	1.486316	-0.145765	-0.021359	-0.031395	-0.004862	-0.395508	-0.279053	0.632813	96.437988	-81.299983	175.407709
46108		9.573531	1.500921	-0.117403	-0.016408	-0.031948	-0.004495	-0.392090	-0.275391	0.635498	96.557662	-81.294796	175.280189
46109		9.565488	1.521208	-0.147527	-0.011839	-0.038214	-0.000688	-0.399658	-0.270996	0.640625	96.697434	-81.291888	175.136252
46110		9.552385	1.535748	-0.136443	-0.003894	-0.038796	0.000840	-0.393311	-0.275635	0.633789	96.851799	-81.289181	174.980888
46111		9.580396	1.555016	-0.134123	0.002686	-0.037270	-0.002292	-0.395752	-0.280762	0.640381	96.995340	-81.285380	174.844403
46112		9.570267	1.535602	-0.127466	0.008886	-0.041455	-0.001984	-0.394287	-0.271729	0.648926	97.165355	-81.280754	174.680611
46113		9.565161	1.521743	-0.162498	0.011907	-0.037322	-0.003893	-0.397705	-0.280273	0.640869	97.314242	-81.275828	174.543754
46114		9.580081	1.555909	-0.145761	0.015822	-0.038373	-0.005488	-0.391113	-0.279541	0.639404	97.474774	-81.269302	174.393572
46115		9.589939	1.576153	-0.160460	0.017993	-0.043025	-0.008298	-0.390137	-0.284424	0.632813	97.645070	-81.261296	174.235669
46116		9.579785	1.556929	-0.154071	0.026204	-0.036400	-0.000426	-0.389648	-0.273193	0.640625	97.806325	-81.257665	174.090768
46117		9.579698	1.557107	-0.157617	0.032238	-0.028139	-0.004254	-0.396729	-0.281006	0.641113	97.931715	-81.252961	173.985571
46118		9.572681	1.512454	-0.081370	0.036648	-0.021957	-0.004585	-0.392090	-0.275391	0.638916	98.043300	-81.248019	173.896977
46119		9.562591	1.493226	-0.073230	0.033444	-0.017798	-0.003731	-0.390381	-0.274170	0.636719	98.130832	-81.244432	173.832159
46120		9.547381	1.460150	-0.096304	0.023032	-0.027512	-0.011424	-0.391602	-0.278809	0.633545	98.251211	-81.235111	173.726770
46121		9.542063	1.447265	-0.130825	0.023563	-0.037831	-0.016444	-0.395020	-0.275391	0.637451	98.399589	-81.222610	173.593707
46122		9.520684	1.483270	-0.147357	0.031270	-0.042019	-0.015561	-0.393555	-0.278320	0.639648	98.575028	-81.209635	173.437374
46123		9.545256	1.529211	-0.214589	0.036474	-0.038949	-0.014573	-0.392334	-0.279053	0.642578	98.734783	-81.198006	173.301137
46124		9.560056	1.564293	-0.198030	0.037322	-0.030162	-0.013687	-0.390381	-0.282227	0.640137	98.870534	-81.187000	173.188464
46125		9.561649	1.604974	-0.238427	0.030004	-0.016675	-0.012307	-0.394531	-0.277344	0.641602	98.946514	-81.178433	173.131378
46126		9.548453	1.620488	-0.225745	0.027134	-0.015120	-0.008751	-0.388428	-0.282227	0.644043	99.023992	-81.171511	173.071764
46127		9.561557	1.615567	-0.169313	0.020469	-0.010429	-0.007677	-0.381348	-0.281982	0.634277	99.074307	-81.166102	173.035685
46128		9.540303	1.650618	-0.182946	0.014249	-0.010404	-0.004901	-0.396729	-0.280273	0.637207	99.129318	-81.161768	172.991334
46129		9.579480	1.616096	-0.155671	0.005124	-0.016570	-0.001200	-0.383057	-0.278320	0.643555	99.196428	-81.159433	172.926720
46130		9.530215	1.631420	-0.175410	-0.000181	-0.017572	-0.001178	-0.393311	-0.269775	0.642822	99.271338	-81.156530	172.853862
46131		9.561022	1.607239	-0.248117	0.001326	-0.018137	0.008189	-0.392090	-0.281494	0.634766	99.348539	-81.159356	172.781783
46132		9.582213	1.572159	-0.237735	0.005804	-0.021765	0.004209	-0.377441	-0.276611	0.648193	99.445311	-81.159074	172.690272
46133		9.600410	1.571073	-0.223622	0.000967	-0.023834	0.011646	-0.378906	-0.278564	0.639160	99.545408	-81.163176	172.591399
46134		9.554292	1.551207	-0.247805	-0.002371	-0.021212	0.007789	-0.392578	-0.277832	0.643799	99.637731	-81.164921	172.499652
46135		9.551372	1.584546	-0.245646	-0.004433	-0.018622	0.009593	-0.391113	-0.275146	0.642090	99.714454	-81.168341	172.421800
46136		9.551846	1.592819	-0.174243	-0.010175	-0.010813	0.004835	-0.398926	-0.268066	0.645996	99.762744	-81.169389	172.370089
46137		9.544937	1.538726	-0.168256	-0.021233	-0.008154	0.003184	-0.384277	-0.270996	0.645508	99.786710	-81.170379	172.340962
46138		9.544932	1.538683	-0.168924	-0.034173	-0.014773	-0.001296	-0.385986	-0.279785	0.643066	99.831797	-81.167570	172.278579
46139		9.511597	1.505402	-0.206626	-0.032566	-0.016846	-0.001722	-0.390381	-0.280762	0.637207	99.879272	-81.164739	172.215928
46140		9.539590	1.525121	-0.202238	-0.031089	-0.020447	-0.006857	-0.394775	-0.281494	0.642090	99.943109	-81.158215	172.136357
46141		9.516119	1.511832	-0.251008	-0.026694	-0.018418	-0.004128	-0.392090	-0.278809	0.638672	99.996161	-81.153925	172.068804
46142		9.544579	1.540328	-0.173789	-0.021144	-0.013803	-0.003526	-0.383057	-0.279541	0.639160	100.043580	-81.149919	172.011614
46143		9.603270	1.536022	-0.239787	-0.010958	-0.003550	0.000431	-0.390137	-0.266357	0.640869	100.055381	-81.149630	171.995314
46144		9.606740	1.510700	-0.171047	-0.002754	0.003638	-0.000521	-0.388916	-0.281738	0.643555	100.052045	-81.149059	172.000152
46145		9.621897	1.544506	-0.150154	-0.002860	0.005701	0.000483	-0.388916	-0.282471	0.645264	100.035147	-81.149789	172.021190
46146		9.606284	1.501929	-0.243034	-0.013956	-0.003525	-0.000719	-0.389404	-0.276611	0.643311	100.051218	-81.148391	171.999893
46147		9.572139	1.551185	-0.241010	-0.015944	-0.010738	-0.002552	-0.383789	-0.282227	0.645996	100.084593	-81.145677	171.960055
46148		9.549174	1.546467	-0.216583	-0.007080	-0.012338	-0.003813	-0.389404	-0.277588	0.647461	100.134484	-81.141643	171.908516
46149		9.548642	1.537854	-0.290214	-0.001295	-0.008263	0.000494	-0.386719	-0.279785	0.642090	100.169855	-81.140833	171.875207
46150		9.565056	1.497966	-0.236856	0.003560	-0.002600	-0.001233	-0.392090	-0.282227	0.642578	100.192238	-81.139230	171.857678
46151		9.573246	1.478197	-0.209801	0.001856	0.005688	-0.002876	-0.388672	-0.275635	0.636475	100.175811	-81.137982	171.877511
46152		9.555072	1.478753	-0.225522	-0.002054	0.006738	-0.001269	-0.394287	-0.279785	0.635010	100.161176	-81.137305	171.894192
46153		9.573197	1.478712	-0.208421	0.003362	0.009826	-0.005377	-0.385986	-0.269287	0.643311	100.128123	-81.135164	171.932326
46154		9.529109	1.508494	-0.194613	0.010158	0.006663	-0.001755	-0.394287	-0.279053	0.637939	100.120449	-81.134203	171.949044
46155		9.534267	1.523006	-0.163363	0.019585	0.002489	-0.005397	-0.385986	-0.277832	0.641357	100.124065	-81.131294	171.962039
46156		9.534231	1.523178	-0.163891	0.019221	-0.007361	0.001131	-0.392822	-0.268799	0.642334	100.174142	-81.130545	171.925562
46157		9.520743	1.529233	-0.222769	0.018055	-0.005236	-0.008607	-0.390625	-0.273682	0.641113	100.202935	-81.125028	171.912569
46158		9.566877	1.548739	-0.201519	0.020142	-0.004234	-0.004702	-0.384033	-0.266113	0.646973	100.238416	-81.121302	171.891398
46159		9.589675	1.554228	-0.227511	0.018993	-0.002671	-0.005651	-0.395752	-0.281738	0.636963	100.260957	-81.117699	171.886985
46160		9.604747	1.588407	-0.207576	0.019931	-0.000106	-0.002695	-0.383545	-0.272461	0.647461	100.282703	-81.115523	171.879594
46161		9.586546	1.588970	-0.224150	0.020281	0.001444	-0.003070	-0.380859	-0.276855	0.640869	100.292085	-81.113749	171.885287
46162		9.604663	1.588886	-0.207778	0.015571	0.005606	-0.002790	-0.384277	-0.276123	0.648193	100.290668	-81.112104	171.898812
46163		9.553637	1.564944	-0.187859	0.012678	0.003566	-0.004942	-0.394775	-0.263672	0.645020	100.288162	-81.109374	171.911886
46164		9.548404	1.550920	-0.218667	0.007504	0.004092	-0.000205	-0.385742	-0.277100	0.646240	100.289277	-81.109031	171.918170
46165		9.530678	1.560391	-0.162279	0.003325	-0.002064	-0.004936	-0.385254	-0.274902	0.641113	100.300719	-81.105893	171.915906
46166		9.525428	1.546408	-0.193641	0.003212	-0.004149	-0.000854	-0.389160	-0.271240	0.641357	100.328633	-81.104339	171.892576
46167		9.535333	1.566088	-0.204865	0.004818	-0.006223	-0.001281	-0.389160	-0.280762	0.639648	100.358249	-81.102778	171.869828
46168		9.543058	1.537330	-0.251193	0.008168	-0.004696	-0.000507	-0.391357	-0.271484	0.651367	100.391180	-81.101360	171.844294
46169		9.548269	1.551462	-0.220719	0.003450	-0.004683	0.002852	-0.386475	-0.273193	0.650146	100.417065	-81.102261	171.824376
46170		9.520207	1.531982	-0.226717	-0.002656	-0.002575	0.001555	-0.396240	-0.280273	0.647705	100.437520	-81.102220	171.805192
46171		9.562990	1.575936	-0.273307	-0.005974	0.003637	0.003410	-0.385010	-0.282959	0.648682	100.428582	-81.104279	171.815662
46172		9.626557	1.576206	-0.379279	-0.014567	0.016587	0.007925	-0.390137	-0.279541	0.644043	100.377421	-81.109813	171.862058
46173		9.680276	1.556989	-0.472995	-0.018670	0.034208	0.002296	-0.375977	-0.274170	0.642822	100.250532	-81.114283	171.981200
46174		9.778657	1.517230	-0.504850	-0.020870	0.060558	0.008289	-0.387695	-0.270020	0.645264	100.037052	-81.124427	172.188229
46175		9.897537	1.525189	-0.482515	-0.020992	0.088477	0.009406	-0.384033	-0.281006	0.642822	99.717508	-81.138127	172.504273
46176		9.996611	1.493718	-0.436203	-0.024462	0.110733	0.012830	-0.391357	-0.270020	0.641846	99.321369	-81.155241	172.894065
46177		10.041647	1.471789	-0.363996	-0.013748	0.132404	0.014992	-0.389160	-0.278076	0.646973	98.846116	-81.175435	173.370596
46178		9.968280	1.440941	-0.305003	-0.003268	0.150473	0.016538	-0.391602	-0.274170	0.632080	98.315446	-81.197063	173.908772
46179		9.925892	1.395036	-0.243232	-0.002735	0.157753	0.017815	-0.391357	-0.279541	0.633789	97.750061	-81.219561	174.482258
46180		9.767184	1.379521	-0.234317	-0.013426	0.157306	0.027643	-0.392822	-0.271973	0.635742	97.188261	-81.246403	175.045976
46181		9.693622	1.347352	-0.174468	-0.018931	0.156332	0.032748	-0.396729	-0.275635	0.636719	96.619063	-81.275584	175.613116
46182		9.655457	1.378570	-0.187880	-0.037004	0.157486	0.044358	-0.396484	-0.279785	0.634521	96.042712	-81.310243	176.177798
46183		9.651134	1.368530	-0.130422	-0.048848	0.158619	0.053209	-0.392334	-0.275879	0.634521	95.447117	-81.349468	176.754119
46184		9.659856	1.343305	-0.087039	-0.052567	0.165429	0.056454	-0.392822	-0.272949	0.639893	94.826404	-81.389649	177.354536
46185		9.625458	1.265302	-0.069302	-0.049235	0.183649	0.050084	-0.396729	-0.267334	0.641602	94.125554	-81.426228	178.038553
46186		9.694114	1.162637	-0.054251	-0.034592	0.199218	0.040374	-0.398926	-0.272949	0.629150	93.371433	-81.456287	178.784181
46187		9.691293	1.062522	-0.104823	-0.001227	0.207879	0.033354	-0.397949	-0.270996	0.629639	92.590906	-81.481427	179.578902
46188		9.803727	1.005122	-0.134063	0.048060	0.209111	0.031586	-0.408936	-0.278809	0.632568	91.835341	-81.503689	-179.626227
46189		9.805560	0.993227	-0.187075	0.089363	0.206776	0.031355	-0.409668	-0.279785	0.627930	91.101615	-81.524557	-178.829228
46190		9.761994	1.019629	-0.155870	0.129451	0.208100	0.031221	-0.403320	-0.272461	0.629883	90.389074	-81.543583	-178.030794
46191		9.687351	0.987441	-0.093943	0.159203	0.211093	0.031684	-0.405762	-0.272461	0.624268	89.671715	-81.561678	-177.211386
46192		9.596209	1.004248	-0.013807	0.151182	0.215979	0.032128	-0.407471	-0.267822	0.634033	88.934734	-81.578205	-176.375731
46193		9.469024	1.079701	0.139559	0.108135	0.202940	0.031446	-0.403809	-0.272705	0.630127	88.214295	-81.593243	-175.580985
46194		9.405534	1.189614	0.190170	0.057780	0.183151	0.033493	-0.407715	-0.272461	0.629639	87.545305	-81.608199	-174.868220
46195		9.394756	1.265441	0.112655	0.018082	0.142941	0.036134	-0.406738	-0.271240	0.631836	87.001160	-81.624845	-174.305877
46196		9.429390	1.286218	0.089846	-0.010758	0.114586	0.037437	-0.414307	-0.268311	0.628418	86.554104	-81.642260	-173.857186
46197		9.500277	1.248154	-0.008234	-0.034342	0.097106	0.042432	-0.410645	-0.270508	0.632813	86.152470	-81.662903	-173.467542
46198		9.490897	1.093226	-0.062514	-0.029010	0.085618	0.046666	-0.408691	-0.269043	0.627441	85.801732	-81.685843	-173.126810
46199		9.532214	1.019490	-0.027535	-0.003253	0.089568	0.048809	-0.418701	-0.269775	0.622070	85.442162	-81.709729	-172.761885
46200		9.503970	0.922564	0.008114	0.020423	0.090937	0.042299	-0.409912	-0.270508	0.629395	85.096511	-81.729312	-172.397711
46201		9.413435	0.881586	-0.030574	0.043810	0.104814	0.036737	-0.416260	-0.271973	0.623047	84.703479	-81.744905	-171.972520
46202		9.321410	0.899162	0.039072	0.079389	0.117023	0.026256	-0.412109	-0.267334	0.623047	84.292003	-81.753198	-171.507722
46203		9.238668	0.888578	0.063633	0.090969	0.116436	0.019001	-0.409912	-0.268311	0.627441	83.885176	-81.757138	-171.042165
46204		9.198230	0.956423	0.046276	0.082103	0.106654	0.011721	-0.411865	-0.267822	0.619141	83.521121	-81.756879	-170.623720
46205		9.171278	1.010051	0.013767	0.054537	0.091295	0.005637	-0.410400	-0.267822	0.628174	83.198921	-81.754019	-170.265045
46206		9.140451	1.024941	0.017645	0.036470	0.073221	0.000838	-0.407227	-0.268066	0.627197	82.945406	-81.749220	-169.984709
46207		9.047788	1.046168	0.082289	0.025744	0.051929	-0.010334	-0.420410	-0.265381	0.631836	82.770653	-81.739617	-169.791505
46208		9.036973	1.028056	0.096248	0.022731	0.034213	-0.017816	-0.416992	-0.262695	0.623535	82.672010	-81.726801	-169.675610
46209		9.063760	1.000386	0.070082	0.032411	0.009594	-0.024761	-0.413330	-0.262939	0.619385	82.672843	-81.712105	-169.652872
46210		9.180089	0.937313	0.123712	0.038611	-0.020730	-0.029476	-0.414551	-0.261230	0.624023	82.803636	-81.696647	-169.759636
46211		9.265696	0.914341	0.102847	0.037386	-0.039497	-0.028910	-0.416016	-0.268311	0.624023	83.000201	-81.683093	-169.932741
46212		9.269281	0.907041	0.197725	0.039937	-0.065079	-0.031473	-0.418945	-0.265625	0.625977	83.303999	-81.669417	-170.213591
46213		9.228624	0.930177	0.301049	0.039272	-0.088022	-0.037968	-0.418457	-0.272705	0.619385	83.692188	-81.653576	-170.580853
46214		9.182171	1.046941	0.340563	0.049165	-0.106861	-0.043262	-0.404785	-0.261963	0.627686	84.165850	-81.635165	-171.028068
46215		9.101160	1.139917	0.413184	0.058532	-0.121495	-0.041479	-0.406250	-0.254883	0.625000	84.693207	-81.618305	-171.526277
46216		9.039789	1.148927	0.463665	0.054429	-0.133383	-0.026969	-0.416992	-0.262451	0.627441	85.263028	-81.609337	-172.067678
46217		9.008712	1.092266	0.481988	0.044639	-0.142591	-0.001756	-0.413818	-0.260742	0.617920	85.848754	-81.614793	-172.628192
46218		9.071290	1.061622	0.474854	0.045739	-0.141461	0.017450	-0.416748	-0.264893	0.626465	86.432531	-81.629928	-173.188719
46219		9.110679	1.195677	0.353873	0.066876	-0.140468	0.034380	-0.411133	-0.260986	0.627930	87.015678	-81.654313	-173.736509
46220		9.232911	1.239183	0.321682	0.095867	-0.125462	0.049747	-0.411377	-0.260986	0.631348	87.564848	-81.685859	-174.232964
46221		9.372699	1.281680	0.307269	0.119255	-0.107867	0.049786	-0.411133	-0.252197	0.629395	88.055787	-81.716812	-174.656116
46222		9.467575	1.377457	0.234417	0.152811	-0.115238	0.067562	-0.404541	-0.261230	0.627197	88.603100	-81.757080	-175.117642
46223		9.628152	1.382598	0.232826	0.165965	-0.101603	0.087375	-0.414063	-0.260498	0.633301	89.101000	-81.808386	-175.520426
46224		9.780330	1.356379	0.171251	0.162393	-0.069153	0.099253	-0.416992	-0.250244	0.637451	89.478483	-81.865366	-175.804721
46225		10.024938	1.283990	0.122273	0.160191	-0.024907	0.090232	-0.400879	-0.255615	0.644775	89.673635	-81.917283	-175.903549
46226		10.251707	1.116336	0.165394	0.162819	0.018099	0.064395	-0.401855	-0.249512	0.638184	89.705588	-81.953737	-175.838546
46227		10.499953	0.907574	0.154282	0.197857	0.052268	0.011080	-0.410400	-0.254639	0.639404	89.615781	-81.959895	-175.628777
46228		10.632381	0.758777	0.021789	0.254429	0.100810	-0.047260	-0.401367	-0.250488	0.634521	89.368368	-81.931926	-175.228616
46229		10.597955	0.779045	-0.143886	0.320872	0.130150	-0.101951	-0.409912	-0.245117	0.637207	89.041515	-81.872516	-174.710062
46230		10.370615	1.069613	-0.355665	0.392164	0.136771	-0.150230	-0.409912	-0.241455	0.635742	88.745317	-81.784577	-174.180772
46231		9.954760	1.484368	-0.587383	0.469265	0.156848	-0.143212	-0.407959	-0.243652	0.622070	88.416221	-81.700476	-173.570379
46232		9.667947	1.803059	-0.637774	0.554091	0.208761	-0.088246	-0.414063	-0.241943	0.636475	87.940859	-81.645791	-172.766042
46233		9.413562	2.077356	-0.614936	0.590350	0.267687	-0.018838	-0.415771	-0.242432	0.636719	87.246085	-81.628676	-171.719495
46234		9.384621	2.272660	-0.503795	0.573095	0.318913	0.041795	-0.410400	-0.235840	0.634033	86.337555	-81.642049	-170.466250
46235		9.475364	2.338475	-0.435006	0.517941	0.386949	0.080545	-0.410400	-0.232910	0.631348	85.110838	-81.671563	-168.924567
46236		9.814557	2.385010	-0.262252	0.474119	0.424591	0.073383	-0.411377	-0.230957	0.633545	83.711869	-81.689469	-167.233125
46237		10.211536	2.253186	-0.171609	0.427908	0.404105	0.031780	-0.418945	-0.221924	0.635254	82.378559	-81.679474	-165.637052
46238		10.546052	2.177130	-0.158282	0.390948	0.368122	-0.028554	-0.415771	-0.229492	0.630615	81.208253	-81.632989	-164.224778
46239		10.752467	2.099085	-0.227826	0.344106	0.286643	-0.076326	-0.421387	-0.223877	0.629639	80.364537	-81.563509	-163.170684
46240		10.761421	2.076601	-0.251805	0.282160	0.183367	-0.120744	-0.419922	-0.221680	0.639893	79.924377	-81.477225	-162.559149
46241		10.529089	2.056146	-0.357110	0.231580	0.104301	-0.142864	-0.419678	-0.210938	0.625488	79.772330	-81.386095	-162.269020
46242		10.340898	2.007238	-0.476365	0.197942	0.050869	-0.179728	-0.425293	-0.217041	0.633545	79.830015	-81.279454	-162.209589
46243		9.930044	2.029858	-0.694946	0.178039	0.018072	-0.213124	-0.420654	-0.217773	0.629639	80.013248	-81.157496	-162.286260
46244		9.672724	2.082698	-0.826639	0.134968	0.041486	-0.237055	-0.422363	-0.220947	0.632080	80.103369	-81.019472	-162.296144
46245		9.462500	2.175353	-0.901169	0.013551	0.067293	-0.267622	-0.421631	-0.211914	0.635498	80.048019	-80.861745	-162.229573
46246		9.330615	2.221283	-0.771275	-0.090179	0.107883	-0.285516	-0.418945	-0.223145	0.630371	79.809975	-80.689734	-162.037692
46247		9.316794	2.248953	-0.717587	-0.159286	0.092988	-0.325939	-0.419922	-0.223145	0.625000	79.613665	-80.496495	-161.926194
46248		9.405538	2.277962	-0.832263	-0.196416	0.058561	-0.355753	-0.427979	-0.221924	0.622314	79.535942	-80.289832	-161.958437
46249		9.541249	2.249556	-1.057446	-0.199489	0.044908	-0.380230	-0.421875	-0.230225	0.632080	79.512382	-80.070925	-162.046142
46250		9.770100	2.089722	-1.058586	-0.109570	0.037241	-0.405101	-0.426025	-0.225586	0.631592	79.580358	-79.838677	-162.175860
46251		9.804204	1.922918	-0.940183	0.013797	0.072045	-0.409651	-0.416748	-0.219482	0.628174	79.607571	-79.600384	-162.189508
46252		9.574138	1.745434	-0.972923	0.076475	0.075418	-0.409726	-0.419189	-0.233398	0.627930	79.661037	-79.361559	-162.196245
46253		9.329048	1.769961	-0.941528	0.112361	0.073881	-0.398521	-0.413818	-0.239502	0.632813	79.731093	-79.129433	-162.194855
46254		9.204328	1.910059	-0.865349	0.117424	0.123170	-0.384194	-0.422363	-0.240479	0.628662	79.654319	-78.900104	-162.045033
46255		9.131440	2.137932	-0.640350	0.081188	0.185303	-0.357505	-0.418213	-0.231934	0.625000	79.372322	-78.679255	-161.707746
46256		8.985077	2.302388	-0.470525	0.043838	0.229732	-0.321309	-0.421387	-0.242676	0.626221	78.939501	-78.473568	-161.237467
46257		8.998568	2.433442	-0.310833	0.003764	0.251368	-0.285104	-0.426270	-0.238037	0.630371	78.420193	-78.285116	-160.700844
46258		8.894985	2.460640	-0.264470	-0.016099	0.243970	-0.254053	-0.422363	-0.242432	0.627441	77.909210	-78.113890	-160.185162
46259		8.866609	2.584442	-0.300010	-0.023389	0.222277	-0.219239	-0.421631	-0.240967	0.627197	77.444562	-77.964000	-159.718689
46260		8.862282	2.517616	-0.371631	-0.006219	0.204381	-0.190705	-0.424561	-0.241699	0.620605	77.030954	-77.831502	-159.296231
46261		8.916689	2.454200	-0.331891	0.018785	0.198797	-0.164844	-0.426514	-0.240479	0.622314	76.638805	-77.713603	-158.879207
46262		8.978518	2.284728	-0.253591	0.049309	0.204039	-0.156331	-0.424316	-0.236328	0.617676	76.253523	-77.599086	-158.452790
46263		8.953162	2.225527	-0.274780	0.049240	0.182929	-0.141556	-0.427002	-0.239746	0.623535	75.918595	-77.495242	-158.074868
46264		9.011300	2.177719	-0.308427	0.047848	0.164995	-0.123219	-0.419922	-0.243408	0.626221	75.622116	-77.403547	-157.739944
46265		8.977758	2.185874	-0.432066	0.050857	0.147691	-0.106639	-0.428711	-0.246338	0.622314	75.364605	-77.323256	-157.440839
46266		8.947020	2.226638	-0.497237	0.062309	0.136387	-0.095447	-0.434326	-0.235107	0.613037	75.136735	-77.250465	-157.167542
46267		8.909547	2.370288	-0.602758	0.064667	0.131297	-0.074709	-0.418945	-0.238770	0.613770	74.911001	-77.189737	-156.892709
46268		8.913410	2.428806	-0.602922	0.045856	0.133901	-0.048792	-0.435303	-0.234131	0.621094	74.654148	-77.142626	-156.599225
46269		8.900721	2.465875	-0.649943	0.033235	0.150982	-0.025275	-0.418945	-0.247803	0.612549	74.335231	-77.105662	-156.246857
46270		8.747271	2.598344	-0.548425	0.020862	0.153796	-0.001788	-0.422607	-0.235352	0.603760	73.988047	-77.080645	-155.875306
46271		8.728167	2.695466	-0.333073	0.030382	0.144956	0.025478	-0.427002	-0.238037	0.612061	73.650022	-77.071486	-155.508391
46272		8.933701	2.707277	-0.274871	0.000437	0.140491	0.023805	-0.428711	-0.239990	0.610352	73.306896	-77.061708	-155.152971
46273		8.746511	2.693389	-0.291029	-0.029272	0.121304	0.025808	-0.434082	-0.236816	0.617676	72.991667	-77.055704	-154.843061
46274		8.843562	2.638603	-0.391456	-0.037874	0.106980	0.018092	-0.427979	-0.238037	0.615479	72.711485	-77.047589	-154.574730
46275		8.694913	2.772987	-0.494930	-0.071480	0.086994	0.016734	-0.438232	-0.246338	0.617188	72.461276	-77.041816	-154.355982
46276		8.619179	2.778555	-0.647338	-0.101158	0.073552	0.054049	-0.428955	-0.239990	0.608398	72.197364	-77.058597	-154.141549
46277		8.667275	2.816012	-0.682113	-0.135548	0.092234	0.089938	-0.432617	-0.241699	0.611816	71.841344	-77.091231	-153.852757
46278		8.687686	2.826987	-0.620241	-0.176003	0.119102	0.121796	-0.428955	-0.237549	0.605225	71.370792	-77.136002	-153.470391
46279		8.598524	2.744433	-0.384398	-0.204322	0.108438	0.156950	-0.437500	-0.233154	0.608154	70.878283	-77.200951	-153.081917
46280		9.204184	2.541741	-0.256849	-0.235536	0.081552	0.141328	-0.437744	-0.250000	0.610596	70.440073	-77.261992	-152.767866
46281		9.117133	2.390296	-0.086532	-0.283548	0.024254	0.119845	-0.433105	-0.242676	0.608398	70.127461	-77.321906	-152.610439
46282		8.929538	2.383021	0.020264	-0.294343	-0.048548	0.121406	-0.441406	-0.244385	0.614990	69.979292	-77.396908	-152.628323
46283		8.886056	2.424742	-0.202529	-0.321522	-0.072509	0.124423	-0.436523	-0.245117	0.608398	69.871341	-77.478092	-152.702940
46284		8.791327	2.458828	-0.379782	-0.345649	-0.071450	0.123501	-0.440430	-0.255615	0.602783	69.746324	-77.558766	-152.774634
46285		8.866145	2.514605	-0.415861	-0.296158	-0.094426	0.099722	-0.427734	-0.246338	0.604248	69.728527	-77.631035	-152.926936
46286		8.983333	2.593731	-0.823106	-0.218516	-0.167978	0.078449	-0.437744	-0.247803	0.611084	69.955638	-77.706528	-153.284469
46287		9.128404	2.761552	-1.108803	-0.181120	-0.235762	0.064723	-0.429443	-0.249023	0.607422	70.390759	-77.787169	-153.832392
46288		9.351155	2.861371	-1.167778	-0.196592	-0.226384	0.070291	-0.434326	-0.254395	0.606689	70.793214	-77.868368	-154.356237
46289		9.440701	2.965254	-1.008171	-0.231139	-0.202965	0.094083	-0.427979	-0.243164	0.611084	71.104035	-77.957161	-154.806161
46290		9.544064	3.091379	-0.957274	-0.278020	-0.203687	0.115390	-0.429688	-0.253174	0.606201	71.374932	-78.057392	-155.242857
46291		9.448606	3.270277	-0.830715	-0.308014	-0.260380	0.139212	-0.431152	-0.255615	0.607910	71.764012	-78.180088	-155.817121
46292		9.450181	3.402012	-0.921670	-0.275269	-0.291019	0.168409	-0.422607	-0.243652	0.617920	72.235685	-78.323459	-156.456886
46293		9.658881	3.395937	-0.891561	-0.321121	-0.224992	0.183217	-0.424316	-0.254639	0.612793	72.508419	-78.462333	-156.919383
46294		10.066302	3.094489	-0.754534	-0.435469	-0.202183	0.185704	-0.428955	-0.252686	0.613281	72.657129	-78.598590	-157.322625
46295		10.675171	2.613019	-0.923488	-0.475304	-0.151861	0.171919	-0.419678	-0.256104	0.614746	72.666414	-78.718269	-157.606168
46296		11.174482	1.971685	-0.760109	-0.361584	-0.164778	0.139245	-0.415527	-0.260254	0.613281	72.804667	-78.822532	-157.955250
46297		11.680622	1.488965	-0.591694	-0.262300	-0.237361	0.081442	-0.421631	-0.250488	0.615723	73.260668	-78.906562	-158.569627
46298		12.063445	1.233624	-0.361771	-0.161274	-0.225730	0.023948	-0.419678	-0.263184	0.612549	73.793088	-78.956430	-159.203209
46299		12.355258	0.967418	-0.079632	-0.003289	-0.170158	-0.026780	-0.417236	-0.261719	0.608154	74.308021	-78.968198	-159.726153
46300		12.576454	0.506953	0.214731	0.201623	-0.106561	-0.098261	-0.415039	-0.266113	0.620605	74.812345	-78.930192	-160.119216
46301		12.816988	0.138290	0.628162	0.452451	-0.080266	-0.165070	-0.419434	-0.259033	0.611328	75.436161	-78.850338	-160.487556
46302		12.953060	0.016472	1.030807	0.725520	-0.115857	-0.243114	-0.416748	-0.254639	0.622559	76.358601	-78.731388	-161.001072
46303		12.199305	0.215886	0.802179	1.072688	-0.232166	-0.293734	-0.420898	-0.252930	0.625244	77.821589	-78.596858	-161.863106
46304		10.761651	1.132734	0.338092	1.448783	-0.365296	-0.305343	-0.414063	-0.246338	0.626709	79.841217	-78.465653	-163.073784
46305		9.312357	2.654626	0.325972	1.568515	-0.515551	-0.253943	-0.408936	-0.228516	0.634766	82.287375	-78.367515	-164.650365
46306		8.276168	4.071961	-0.084522	1.370662	-0.580220	-0.127563	-0.403076	-0.217529	0.642822	84.725102	-78.332263	-166.334419
46307		7.951529	5.364489	0.214477	0.983490	-0.494397	0.084669	-0.392822	-0.219971	0.637451	86.656911	-78.401536	-167.727778
46308		7.765355	6.121279	0.542358	0.478632	-0.414345	0.334201	-0.402100	-0.210205	0.644531	88.063940	-78.603433	-168.880675
46309		7.993765	6.011636	0.344530	0.046948	-0.289736	0.539377	-0.401611	-0.216309	0.637939	88.898478	-78.916005	-169.700586
46310		8.483058	5.099903	0.297078	-0.222218	-0.203405	0.648235	-0.400146	-0.208984	0.642822	89.357654	-79.288781	-170.294769
46311		9.114328	3.809829	0.603912	-0.414452	-0.169164	0.662225	-0.398682	-0.209717	0.639648	89.637851	-79.668047	-170.817669
46312		9.565532	2.419709	1.222408	-0.575683	-0.122539	0.566922	-0.407227	-0.209473	0.641602	89.700067	-79.992887	-171.212909
46313		9.595226	1.351221	1.792406	-0.707400	-0.097886	0.355352	-0.388916	-0.213135	0.644043	89.623168	-80.195775	-171.542455
46314		9.302683	0.652666	2.047949	-0.799608	-0.032391	0.069968	-0.397461	-0.221680	0.642090	89.281879	-80.235660	-171.657960
46315		8.781227	0.250192	2.195091	-0.817373	0.097651	-0.210637	-0.404053	-0.222412	0.640625	88.518740	-80.112872	-171.355067
46316		8.792640	-0.138769	2.188330	-0.807108	0.197230	-0.386369	-0.399414	-0.222412	0.644531	87.471056	-79.887337	-170.757722
46317		9.213769	-0.351511	2.245044	-0.803279	0.222335	-0.417856	-0.401367	-0.232910	0.634277	86.390811	-79.640613	-170.123634
46318		10.122905	-0.589215	2.268560	-0.824755	0.284093	-0.350178	-0.400879	-0.245850	0.636475	85.130770	-79.428204	-169.319745
46319		10.578270	-0.442290	2.139015	-0.740945	0.290646	-0.192052	-0.400635	-0.240967	0.630615	83.892140	-79.302026	-168.487707
46320		10.696039	-0.126714	1.852731	-0.493740	0.180117	-0.037854	-0.404297	-0.257324	0.626953	83.091233	-79.268553	-167.957419
46321		10.583920	0.289204	1.372062	-0.220936	0.097777	0.078750	-0.409912	-0.250732	0.628662	82.653373	-79.305799	-167.637033
46322		10.120935	0.762351	0.885790	0.016422	0.020048	0.131331	-0.402100	-0.253418	0.638428	82.561744	-79.378740	-167.531141
46323		9.792288	1.115405	0.575592	0.188496	-0.020415	0.146848	-0.409180	-0.249512	0.625732	82.686228	-79.463178	-167.544330
46324		9.692875	1.509132	0.547584	0.230171	-0.049294	0.164065	-0.407959	-0.243164	0.629883	82.916901	-79.559770	-167.641726
46325		9.776315	1.881223	0.371967	0.192008	-0.085173	0.177714	-0.401123	-0.246826	0.625977	83.236096	-79.666247	-167.850820
46326		9.738914	2.089735	0.290437	0.105883	-0.034733	0.205929	-0.406250	-0.243896	0.632080	83.340951	-79.785532	-167.892653
46327		9.756961	2.125407	0.237956	-0.001568	0.006660	0.240463	-0.412842	-0.239990	0.623047	83.241242	-79.921389	-167.788897
46328		9.618430	1.879691	0.426547	-0.117668	0.038087	0.267817	-0.407471	-0.238525	0.634033	82.957953	-80.070888	-167.566620
46329		9.439237	1.550134	0.487700	-0.200606	0.016988	0.271522	-0.406006	-0.243164	0.633301	82.687829	-80.223523	-167.405464
46330		9.213780	1.175170	0.146625	-0.236408	-0.005448	0.283472	-0.407959	-0.247314	0.625732	82.459368	-80.384779	-167.308037
46331		9.144119	0.917382	-0.116039	-0.231926	-0.016655	0.282338	-0.414795	-0.248535	0.632080	82.267711	-80.545866	-167.245193
46332		9.076397	0.675979	-0.345385	-0.239324	0.075319	0.296517	-0.411621	-0.245361	0.636963	81.740584	-80.707917	-166.846844
46333		8.831979	0.270979	-0.256253	-0.193166	0.144891	0.297343	-0.406982	-0.234131	0.627197	80.979560	-80.863434	-166.184748
46334		8.784688	0.040076	-0.327894	-0.151907	0.183155	0.266655	-0.415527	-0.246826	0.626709	80.099164	-80.996743	-165.378279
46335		8.609683	-0.197935	-0.206432	-0.108759	0.190892	0.229775	-0.410400	-0.239502	0.629395	79.217265	-81.106308	-164.545199
46336		8.568047	-0.269959	-0.218177	-0.053756	0.176039	0.198679	-0.413330	-0.249512	0.623779	78.421646	-81.198323	-163.768107
46337		8.586288	-0.360896	-0.322614	0.019538	0.173587	0.165809	-0.417725	-0.234619	0.626465	77.688581	-81.270466	-163.012102
46338		8.723390	-0.498159	-0.336733	0.092034	0.190933	0.129297	-0.416748	-0.242676	0.627686	76.950905	-81.318663	-162.209421
46339		9.167617	-0.299359	-0.269970	0.172940	0.251863	0.100629	-0.419922	-0.234863	0.618896	76.055972	-81.340981	-161.200749
46340		9.291033	-0.230237	-0.428973	0.284416	0.305408	0.068339	-0.416016	-0.231445	0.626465	75.055351	-81.335231	-160.020684
46341		9.518674	-0.231841	-1.119519	0.308231	0.306298	0.034437	-0.426025	-0.231689	0.621338	74.103706	-81.307662	-158.876253
46342		9.559052	-0.346693	-1.928999	0.304784	0.301327	-0.007426	-0.434570	-0.224854	0.625488	73.218608	-81.255039	-157.801076
46343		9.483459	-0.266625	-2.226140	0.386231	0.288486	-0.036123	-0.431641	-0.228516	0.615723	72.471150	-81.186740	-156.817684
46344		9.415059	-0.142905	-1.596463	0.497570	0.283222	-0.061332	-0.430176	-0.225098	0.618896	71.846456	-81.103639	-155.893866
46345		9.178801	0.204245	-0.754246	0.498841	0.300654	-0.093267	-0.431641	-0.225586	0.615967	71.216741	-80.998733	-154.964405
46346		8.741851	0.744350	-0.073727	0.420091	0.300151	-0.138270	-0.433350	-0.218506	0.618896	70.613734	-80.867734	-154.106965
46347		7.931669	1.128861	0.044330	0.353098	0.198162	-0.159322	-0.430908	-0.225586	0.619385	70.357752	-80.744205	-153.640144
46348		7.592320	1.524786	-0.287748	0.331721	-0.010114	-0.165775	-0.426025	-0.213867	0.622559	70.786304	-80.656670	-153.878743
46349		7.674256	1.589014	-0.938199	0.321468	-0.058293	-0.161553	-0.435059	-0.216064	0.621826	71.358340	-80.580379	-154.269399
46350		7.801014	1.343481	-1.253873	0.370346	-0.072299	-0.123792	-0.433594	-0.217285	0.628418	71.953051	-80.526176	-154.654109
46351		8.554210	1.052677	-1.178832	0.392617	-0.060576	-0.070060	-0.430908	-0.200684	0.625488	72.464015	-80.498971	-154.941461
46352		9.290786	0.750593	-0.914155	0.390302	0.040090	-0.001615	-0.427246	-0.208984	0.625000	72.570446	-80.491249	-154.819565
46353		9.664282	0.329143	-0.232676	0.409116	0.075990	0.043381	-0.430664	-0.200928	0.618652	72.527483	-80.502392	-154.535262
46354		10.452559	0.176279	0.453956	0.347392	0.084918	0.053314	-0.428467	-0.198486	0.629883	72.405956	-80.516924	-154.207177
46355		10.468579	0.132734	0.781263	0.261871	0.080720	0.048480	-0.432861	-0.198486	0.624023	72.256658	-80.529898	-153.900875
46356		10.496988	0.430840	0.570931	0.231864	-0.022282	0.052573	-0.426514	-0.185547	0.630127	72.419722	-80.562539	-153.928439
46357		10.530728	0.960095	-0.102249	0.235523	-0.097731	0.061541	-0.424072	-0.197754	0.621094	72.828650	-80.613504	-154.203434
46358		10.288244	1.405219	-0.658609	0.285008	-0.148337	0.067568	-0.426025	-0.184082	0.634521	73.429564	-80.675262	-154.643883
46359		10.192753	1.616751	-1.240690	0.327687	-0.179323	0.098785	-0.427246	-0.183350	0.626465	74.139681	-80.758849	-155.170893
46360		9.862842	1.482442	-1.248610	0.361892	-0.154688	0.145869	-0.428711	-0.184082	0.621094	74.748611	-80.863144	-155.574628
46361		9.959251	1.347748	-0.746127	0.305411	-0.123518	0.178156	-0.422119	-0.178223	0.631592	75.201807	-80.980597	-155.854095
46362		10.065582	1.214336	-0.281713	0.178647	-0.121678	0.202793	-0.418457	-0.187500	0.633789	75.558732	-81.110609	-156.108739
46363		10.428940	1.137641	0.006966	0.019324	-0.138621	0.218492	-0.422607	-0.176758	0.634766	75.883735	-81.252028	-156.424298
46364		10.620293	1.115000	0.114716	-0.143745	-0.197243	0.190068	-0.424561	-0.176025	0.631104	76.361713	-81.384824	-156.988069
46365		10.911761	1.104022	0.119071	-0.228207	-0.309951	0.141323	-0.416992	-0.178467	0.636719	77.274899	-81.504655	-158.041590
46366		11.442079	1.308372	0.208523	-0.281667	-0.358393	0.070678	-0.418457	-0.184814	0.642334	78.419936	-81.587398	-159.359301
46367		12.014142	1.657765	0.651809	-0.333897	-0.321781	0.003276	-0.410156	-0.184082	0.639893	79.470250	-81.625015	-160.612287
46368		12.361823	1.961332	0.702472	-0.408512	-0.412104	-0.028037	-0.410156	-0.188477	0.641357	80.850708	-81.649401	-162.241096
46369		12.726810	2.194743	0.903493	-0.536510	-0.480364	-0.026930	-0.410645	-0.194580	0.640625	82.434514	-81.674448	-164.150393
46370		12.409429	2.150726	0.792962	-0.636505	-0.526523	-0.028976	-0.408691	-0.194092	0.641357	84.146078	-81.692990	-166.245648
46371		11.701500	1.732025	0.637689	-0.592792	-0.578670	-0.066190	-0.400879	-0.196777	0.646484	86.107647	-81.683511	-168.569113
46372		10.936657	1.333794	0.914718	-0.432686	-0.601161	-0.123729	-0.394043	-0.187012	0.649414	88.242470	-81.629348	-170.974269
46373		10.019529	0.911769	1.110421	-0.225559	-0.590607	-0.179623	-0.394775	-0.198486	0.654785	90.424902	-81.530348	-173.308865
46374		9.469350	0.722200	1.144180	-0.024894	-0.508602	-0.215951	-0.387451	-0.197266	0.646973	92.344559	-81.399164	-175.261377
46375		8.879327	0.793989	1.116618	0.172777	-0.336781	-0.209865	-0.380371	-0.197510	0.654053	93.683073	-81.268809	-176.513014
46376		8.438036	0.959900	1.192466	0.357110	-0.136388	-0.155298	-0.380127	-0.195313	0.658203	94.364266	-81.174072	-176.992184
46377		8.228146	1.085365	1.432520	0.499054	0.105624	-0.070733	-0.379395	-0.198975	0.657471	94.258815	-81.138062	-176.593893
46378		8.265731	0.961022	1.974798	0.579111	0.377220	0.036737	-0.387207	-0.187012	0.659424	93.225584	-81.172688	-175.209367
46379		8.420008	1.156124	2.598480	0.628914	0.593871	0.171514	-0.390869	-0.177734	0.650391	91.423788	-81.284640	-173.019435
46380		8.837144	1.618598	3.044243	0.655661	0.697627	0.290227	-0.386230	-0.176270	0.658203	89.184424	-81.452690	-170.371399
46381		9.531668	2.212029	2.857243	0.674232	0.676607	0.328110	-0.397949	-0.164063	0.646240	86.937973	-81.627588	-167.707407
46382		10.169078	2.966285	2.270219	0.657047	0.569744	0.302735	-0.402832	-0.164551	0.646729	85.011100	-81.777440	-165.376657
46383		10.448050	3.235422	1.795676	0.635277	0.400901	0.202109	-0.409668	-0.158203	0.649658	83.719665	-81.870274	-163.701836
46384		10.136648	3.392428	1.383698	0.544279	0.296575	0.086714	-0.406006	-0.156982	0.653076	82.820632	-81.899484	-162.475649
46385		9.862630	3.317743	1.085034	0.364152	0.210216	-0.028730	-0.405518	-0.153076	0.640625	82.221352	-81.867586	-161.657001
46386		9.707074	3.241857	0.631790	0.146042	0.066938	-0.193656	-0.408203	-0.157471	0.647705	82.159169	-81.752255	-161.506581
46387		10.163272	3.163714	0.262286	-0.034591	-0.008291	-0.398484	-0.409180	-0.149902	0.652832	82.394110	-81.526672	-161.761384
46388		9.472445	3.113260	0.002966	-0.105117	-0.092232	-0.545852	-0.406250	-0.157715	0.644287	82.955172	-81.223003	-162.386717
46389		9.444270	2.873419	0.036798	-0.054936	-0.115006	-0.619781	-0.406006	-0.157227	0.653564	83.616185	-80.877949	-163.084922
46390		8.921906	2.485310	0.191050	0.007619	-0.091557	-0.615559	-0.404297	-0.164795	0.648926	84.180428	-80.532593	-163.649178
46391		8.856283	2.045074	0.086666	0.068437	-0.061956	-0.569870	-0.400635	-0.158203	0.643799	84.628146	-80.210933	-164.060619
46392		9.004613	1.759810	-0.133123	0.127990	-0.002820	-0.522183	-0.405762	-0.164063	0.648926	84.878295	-79.912887	-164.237056
46393		8.859538	1.714431	-0.331353	0.187624	0.048954	-0.457192	-0.400635	-0.172607	0.647461	84.971411	-79.649287	-164.219507
46394		8.975917	1.902817	-0.435008	0.216329	0.082674	-0.388037	-0.397949	-0.170410	0.647461	84.956579	-79.423395	-164.075303
46395		8.781391	2.082103	-0.506895	0.208259	0.155466	-0.311544	-0.399658	-0.165527	0.645020	84.702203	-79.237394	-163.692094
46396		8.626459	2.228541	-0.440052	0.169565	0.147739	-0.270367	-0.403809	-0.167236	0.650879	84.446660	-79.074921	-163.329904
46397		8.404103	2.432754	-0.386879	0.098411	0.131349	-0.254724	-0.400635	-0.167725	0.642822	84.203733	-78.922047	-163.022020
46398		8.194661	2.687089	-0.388343	0.013185	0.133604	-0.231507	-0.406006	-0.168945	0.648193	83.905206	-78.781946	-162.706967
46399		7.840117	2.811212	-0.502672	-0.056409	0.117601	-0.195825	-0.401123	-0.169922	0.647461	83.609775	-78.662863	-162.435652
46400		7.781214	2.851053	-0.543833	-0.128366	0.137428	-0.146906	-0.403320	-0.167480	0.645020	83.206130	-78.569985	-162.095843
46401		7.508432	2.859807	-0.508991	-0.192647	0.155556	-0.095651	-0.402344	-0.169189	0.638916	82.704328	-78.504414	-161.693355
46402		7.699663	2.749626	-0.654333	-0.218847	0.167669	-0.058675	-0.415771	-0.169922	0.640625	82.143744	-78.458225	-161.246127
46403		7.981727	2.633956	-0.780585	-0.206987	0.178803	-0.050443	-0.405762	-0.173096	0.635498	81.561303	-78.414830	-160.769500
46404		8.166776	2.522858	-0.883292	-0.197070	0.164439	-0.043807	-0.400879	-0.176270	0.643555	81.023692	-78.375587	-160.332849
46405		8.282440	2.365427	-1.118013	-0.195806	0.119869	-0.052591	-0.409668	-0.170410	0.637939	80.617830	-78.334618	-160.029790
46406		8.416582	2.318663	-1.323186	-0.191864	0.071971	-0.087519	-0.410645	-0.171387	0.635742	80.361691	-78.278202	-159.877392
46407		8.373380	2.323881	-1.308993	-0.206790	0.016514	-0.110342	-0.405029	-0.170654	0.635986	80.261755	-78.214022	-159.893101
46408		8.264658	2.515255	-1.164437	-0.295078	-0.035366	-0.116470	-0.413086	-0.174072	0.633545	80.252298	-78.151539	-160.053075
46409		8.117098	2.735563	-1.057051	-0.469067	-0.124756	-0.095710	-0.406494	-0.174316	0.641113	80.375150	-78.109221	-160.449986
46410		7.559287	3.102514	-1.158889	-0.609259	-0.220846	-0.028423	-0.404541	-0.187500	0.634033	80.641789	-78.113877	-161.076108
46411		7.638991	3.210515	-1.281444	-0.719125	-0.284914	0.008387	-0.399658	-0.186523	0.637207	81.005539	-78.144297	-161.865528
46412		7.176393	3.492481	-1.990678	-0.832062	-0.306014	0.043720	-0.401855	-0.179688	0.632813	81.347804	-78.195780	-162.699210
46413		7.044570	3.650626	-2.316687	-0.897070	-0.320880	0.089602	-0.410400	-0.193848	0.635498	81.683730	-78.273227	-163.563970
46414		7.372735	3.644458	-1.840331	-0.934090	-0.281765	0.126557	-0.389648	-0.211426	0.633789	81.881607	-78.367889	-164.309449
46415		8.280763	3.407896	-0.809087	-0.985676	-0.254837	0.110453	-0.394531	-0.202637	0.634033	81.992293	-78.450469	-164.995474
46416		9.600847	3.053072	-0.134667	-0.974710	-0.256079	0.049380	-0.384033	-0.212402	0.620850	82.137655	-78.498558	-165.710699
46417		10.770658	2.348481	0.050043	-0.848094	-0.260519	-0.012672	-0.393555	-0.208740	0.632080	82.397915	-78.510805	-166.468615
46418		11.600364	1.515648	-0.063085	-0.660540	-0.283998	-0.092795	-0.390625	-0.215820	0.629150	82.856136	-78.478754	-167.319365
46419		11.649513	0.477726	-0.417816	-0.406392	-0.369509	-0.151414	-0.390869	-0.213379	0.637207	83.715557	-78.416672	-168.430707
46420		11.245236	-0.141789	-0.611725	-0.163552	-0.432774	-0.179342	-0.389648	-0.213379	0.629395	84.881382	-78.338808	-169.713513
46421		10.662529	-0.097200	-0.911561	0.046803	-0.405112	-0.177188	-0.385254	-0.220459	0.635010	86.077687	-78.255228	-170.904474
46422		10.260285	0.520850	-0.864708	0.276184	-0.247729	-0.177767	-0.384277	-0.222900	0.641846	86.954338	-78.161883	-171.635277
46423		10.030505	1.437801	-0.276754	0.494235	-0.156700	-0.194257	-0.378174	-0.216553	0.626465	87.701738	-78.054244	-172.106473
46424		10.207821	2.607137	-0.365818	0.626752	-0.148450	-0.206909	-0.377686	-0.206787	0.631836	88.489089	-77.938241	-172.541201
46425		10.630472	3.964548	-0.359086	0.732207	-0.139867	-0.208436	-0.380615	-0.204346	0.624756	89.305878	-77.819692	-172.944328
46426		11.282461	5.180194	-0.007431	0.686477	-0.196826	-0.178173	-0.379883	-0.206299	0.632080	90.231054	-77.717675	-173.485437
46427		12.165325	6.108370	0.540683	0.497226	-0.243825	-0.124820	-0.372314	-0.192871	0.637207	91.164855	-77.643621	-174.146313
46428		12.831572	6.274816	0.544118	0.357240	-0.393087	-0.063365	-0.364502	-0.192139	0.640137	92.399726	-77.599888	-175.197917
46429		13.246346	5.514379	-0.906705	0.443272	-0.632529	-0.047072	-0.367188	-0.188721	0.637939	94.301575	-77.550699	-176.881754
46430		13.025205	3.916370	-1.271705	0.606062	-0.620731	-0.008885	-0.373047	-0.191650	0.647949	96.257775	-77.512375	-178.526462
46431		12.213481	2.414882	-0.786850	0.509101	-0.533991	0.082371	-0.357178	-0.189941	0.639404	97.959745	-77.520058	-179.967252
46432		10.641482	1.636240	0.173583	0.135182	-0.436198	0.164910	-0.352783	-0.183594	0.642090	99.229520	-77.575531	178.814805
46433		9.433475	1.713739	1.208123	-0.305959	-0.416376	0.194661	-0.355225	-0.180664	0.647705	100.222686	-77.643805	177.622067
46434		8.204087	2.083173	1.681197	-0.700310	-0.325053	0.128209	-0.355469	-0.191650	0.651367	100.729063	-77.681526	176.696085
46435		7.539965	2.468485	1.781843	-0.936457	-0.164738	-0.043589	-0.344727	-0.197021	0.640625	100.607247	-77.638129	176.275160
46436		7.536223	2.514300	1.831284	-0.948225	0.010368	-0.279762	-0.351563	-0.200684	0.642334	99.917201	-77.480815	176.428542
46437		8.343317	1.939183	1.534299	-0.769083	0.116703	-0.485019	-0.347656	-0.208740	0.635742	98.990640	-77.216308	176.930258
46438		10.108029	1.046341	1.314965	-0.545075	0.174689	-0.547471	-0.349854	-0.221680	0.635498	98.053820	-76.920318	177.574128
46439		12.012700	0.176315	0.874368	-0.338337	0.086999	-0.430685	-0.345459	-0.224121	0.628418	97.517607	-76.681299	177.929510
46440		13.145726	-0.393812	0.039562	-0.083355	-0.055262	-0.177811	-0.351074	-0.219727	0.631592	97.554557	-76.575568	177.845553
46441		12.877942	-0.335667	-0.089281	0.121048	-0.201904	0.074803	-0.348389	-0.219238	0.630127	98.139593	-76.601083	177.318987
46442		12.225375	0.255847	-0.361642	0.240693	-0.003948	0.259229	-0.349121	-0.211914	0.626221	98.385924	-76.747145	177.210674
46443		10.321686	0.597420	0.227336	0.313610	0.141697	0.407546	-0.354004	-0.214844	0.627197	98.377938	-76.988957	177.406777
46444		10.078061	1.429048	0.416072	0.260176	0.119356	0.488835	-0.347656	-0.212158	0.633545	98.419000	-77.275422	177.520673
46445		9.340681	2.122510	0.403978	0.102793	0.202883	0.556225	-0.361328	-0.206787	0.625000	98.179032	-77.606587	177.830178
46446		8.710814	2.631513	0.304711	-0.020824	0.194081	0.544035	-0.357910	-0.209961	0.628906	97.869292	-77.930175	178.138000
46447		8.151147	2.947812	0.226110	-0.178695	0.197113	0.494804	-0.360596	-0.205078	0.615234	97.426787	-78.225224	178.488961
46448		8.112407	2.983575	0.333769	-0.351059	0.157494	0.431796	-0.354980	-0.208252	0.611816	96.951281	-78.481401	178.772182
46449		8.341471	2.888055	0.381801	-0.540123	0.138728	0.406963	-0.357666	-0.206543	0.619629	96.396267	-78.721247	179.026088
46450		8.304308	2.440912	0.450247	-0.649927	0.149760	0.400688	-0.359619	-0.212402	0.616455	95.724380	-78.958056	179.334451
46451		8.628288	1.842874	0.563930	-0.654747	0.175337	0.409506	-0.364014	-0.209229	0.616211	94.955938	-79.200032	179.738491
46452		8.772920	1.112016	0.508813	-0.603116	0.254804	0.423108	-0.369141	-0.211670	0.610352	93.948518	-79.452555	-179.584919
46453		8.547083	0.334481	0.480680	-0.502906	0.314355	0.426764	-0.361084	-0.213623	0.609375	92.772971	-79.706300	-178.679152
46454		8.389268	-0.521865	0.476309	-0.371141	0.331633	0.420932	-0.378906	-0.215576	0.606201	91.563732	-79.954054	-177.663582
46455		8.311726	-1.002757	0.334913	-0.255188	0.274370	0.400430	-0.380127	-0.218262	0.601563	90.556857	-80.185580	-176.786438
46456		8.082700	-1.215433	0.025360	-0.175874	0.245190	0.341876	-0.366699	-0.216064	0.597168	89.649212	-80.381321	-175.964747
46457		8.036986	-1.009905	-0.196302	-0.067473	0.162079	0.274716	-0.375488	-0.214600	0.599854	89.060883	-80.537048	-175.404125
46458		8.347725	-0.745293	-0.257153	0.001877	0.181248	0.213419	-0.371582	-0.211670	0.598145	88.430717	-80.656665	-174.761218
46459		8.513790	-0.497756	-0.095800	0.060992	0.207585	0.154246	-0.378418	-0.208008	0.596436	87.735572	-80.740530	-174.018301
46460		8.734341	-0.254350	-0.125252	0.114091	0.234399	0.088979	-0.380615	-0.214355	0.593506	86.973613	-80.784933	-173.177037
46461		8.934789	0.052566	-0.234371	0.176889	0.261690	0.034494	-0.382813	-0.210449	0.588135	86.158532	-80.795318	-172.245651
46462		9.239606	0.240498	-0.237250	0.244492	0.299458	-0.002316	-0.382080	-0.210205	0.591797	85.256371	-80.780868	-171.186723
46463		9.181392	0.261614	-0.116509	0.315860	0.314357	-0.038559	-0.381104	-0.211426	0.579834	84.360842	-80.742318	-170.093173
46464		9.101018	0.272815	0.129329	0.383714	0.332523	-0.077253	-0.382813	-0.205566	0.582275	83.463324	-80.677859	-168.957886
46465		8.694365	0.255698	0.385334	0.483740	0.305368	-0.123700	-0.384521	-0.201416	0.582275	82.753040	-80.586357	-167.954269
46466		8.111478	0.251823	0.532196	0.574439	0.229255	-0.158929	-0.389160	-0.196777	0.585205	82.383691	-80.478868	-167.243078
46467		7.666138	0.430123	0.120861	0.670541	0.114612	-0.197554	-0.385986	-0.191650	0.579590	82.484092	-80.357946	-166.952504
46468		8.058943	0.779244	-0.782399	0.788623	0.035278	-0.217515	-0.382080	-0.199463	0.578369	82.923004	-80.231555	-166.936310
46469		8.082509	0.791721	-1.357987	0.910492	-0.010519	-0.176913	-0.383545	-0.195801	0.580322	83.561543	-80.131545	-167.052196
46470		8.286935	0.767050	-1.807838	1.028873	-0.078859	-0.129330	-0.379639	-0.191895	0.583252	84.464246	-80.062321	-167.367063
46471		9.001268	0.877096	-2.015551	1.091647	-0.035421	-0.032745	-0.387939	-0.187744	0.577148	85.228182	-80.045388	-167.505004
46472		9.446078	1.170872	-1.625436	1.032328	0.103477	0.030766	-0.384521	-0.175781	0.581787	85.486083	-80.057884	-167.163259
46473		10.712610	1.854179	-1.307863	0.826754	0.206410	0.130036	-0.381592	-0.168701	0.585693	85.264711	-80.122564	-166.455104
46474		10.650125	2.266783	-0.973393	0.592747	0.075809	0.198097	-0.381592	-0.176025	0.579102	85.312040	-80.231842	-166.155394
46475		10.783370	2.774061	-0.984801	0.303931	-0.022769	0.232029	-0.382568	-0.164307	0.570557	85.514653	-80.365353	-166.181736
46476		10.942929	3.026570	-1.372557	0.070093	-0.020618	0.232032	-0.379150	-0.170166	0.582031	85.575224	-80.498534	-166.199365
46477		10.802567	2.888405	-1.733145	-0.100634	-0.012910	0.174091	-0.389160	-0.172607	0.565430	85.530644	-80.598460	-166.210045
46478		10.941959	2.350565	-1.578377	-0.229975	-0.045185	0.103507	-0.381592	-0.171387	0.577637	85.539292	-80.659322	-166.349290
46479		11.401864	1.845169	-0.650041	-0.401170	-0.066644	0.014224	-0.387207	-0.165771	0.577393	85.553027	-80.670286	-166.593554
46480		11.884811	1.647843	-0.186451	-0.579252	-0.142238	-0.053632	-0.389404	-0.174072	0.576172	85.741293	-80.645548	-167.117630
46481		12.025357	1.632553	0.045713	-0.725841	-0.156299	-0.109686	-0.374756	-0.172852	0.575439	85.909556	-80.589252	-167.707116
46482		11.939679	1.860911	0.106166	-0.809468	-0.174372	-0.119135	-0.372070	-0.183350	0.568848	86.085660	-80.527841	-168.352730
46483		11.604222	1.704140	0.404975	-0.745688	-0.164922	-0.089560	-0.368408	-0.191895	0.562744	86.258403	-80.482799	-168.958491
46484		11.257333	1.453644	0.650681	-0.646476	-0.165532	-0.064248	-0.375000	-0.196777	0.556641	86.477346	-80.451769	-169.553020
46485		11.002788	1.323121	0.655872	-0.597497	-0.233399	-0.032769	-0.373535	-0.209229	0.566406	86.950206	-80.440524	-170.377129
46486		10.782253	1.490798	0.882138	-0.530753	-0.301902	0.018395	-0.372559	-0.207520	0.561523	87.681948	-80.458828	-171.424459
46487		10.810591	1.363362	0.830906	-0.390605	-0.404705	0.084119	-0.364746	-0.206299	0.562012	88.847875	-80.513814	-172.831016
46488		10.860344	0.997699	0.652351	-0.264754	-0.439805	0.133446	-0.364746	-0.209717	0.570557	90.218633	-80.591949	-174.371327
46489		10.418374	0.577972	0.517162	-0.089214	-0.418138	0.139327	-0.363281	-0.209229	0.569824	91.642404	-80.667596	-175.863627
46490		10.049618	0.207144	0.585989	0.187952	-0.426235	0.113213	-0.356689	-0.201172	0.562744	93.267959	-80.721490	-177.398664
46491		9.593696	-0.029611	0.432507	0.415541	-0.320027	0.090639	-0.358154	-0.205322	0.573486	94.665395	-80.760279	-178.570846
46492		9.106029	0.043775	0.317881	0.588806	-0.120890	0.097974	-0.350586	-0.207031	0.568604	95.470333	-80.809555	-179.041470
46493		8.643043	0.224196	0.792690	0.768513	0.142643	0.148943	-0.359619	-0.201660	0.568604	95.470984	-80.901979	-178.593741
46494		8.652164	0.552280	1.736190	0.879254	0.394896	0.246894	-0.362549	-0.201172	0.561279	94.645137	-81.062326	-177.244415
46495		8.720716	1.092615	2.472724	0.905965	0.617623	0.392514	-0.363770	-0.200439	0.564697	92.998914	-81.310143	-175.050883
46496		9.097859	1.900458	2.705798	0.888884	0.734917	0.527285	-0.370361	-0.184814	0.559082	90.781800	-81.625629	-172.290922
46497		9.733651	2.842736	2.640746	0.820556	0.740541	0.644013	-0.368896	-0.180908	0.546387	88.299131	-81.991259	-169.305271
46498		10.428778	3.723167	1.946901	0.720867	0.699907	0.701629	-0.380371	-0.175049	0.542480	85.654785	-82.371375	-166.216182
46499		10.595674	3.989445	1.475523	0.653349	0.547335	0.662285	-0.373047	-0.166260	0.552490	83.382167	-82.719240	-163.544095
46500		10.773000	3.651006	1.224217	0.536044	0.320826	0.516781	-0.376465	-0.160400	0.551514	81.948387	-82.989270	-161.786512
46501		10.549601	3.062000	1.092548	0.316032	0.262245	0.298384	-0.384277	-0.158203	0.549561	80.713563	-83.135630	-160.357415
46502		10.028407	2.325721	0.981930	0.144846	0.261897	0.026988	-0.380371	-0.163330	0.538818	79.562904	-83.125025	-159.111797
46503		9.582258	1.689642	0.952632	0.082105	0.079430	-0.238115	-0.377930	-0.166504	0.542725	79.462901	-82.982563	-158.960795
46504		9.501557	1.405276	0.703835	0.091463	-0.135727	-0.456553	-0.386475	-0.163086	0.545898	80.504929	-82.738346	-159.955098
46505		9.308631	1.212084	0.103832	0.167777	-0.211502	-0.596252	-0.378906	-0.169434	0.539307	81.936227	-82.419100	-161.298627
46506		9.096576	1.057839	-0.415416	0.273307	-0.182703	-0.641752	-0.379395	-0.172363	0.539307	83.217668	-82.067789	-162.430800
46507		8.969081	1.112860	-0.931685	0.365907	-0.184954	-0.610475	-0.383057	-0.170654	0.538330	84.445998	-81.731246	-163.456834
46508		8.887002	1.233501	-1.293055	0.449338	-0.094314	-0.534961	-0.377686	-0.171631	0.550049	85.265814	-81.430551	-164.022262
46509		8.841910	1.496452	-1.153652	0.523870	0.029602	-0.442925	-0.369873	-0.178223	0.543945	85.601408	-81.176030	-164.055230
46510		8.528069	1.819038	-0.861590	0.566080	0.056505	-0.366829	-0.373291	-0.178223	0.547607	85.832625	-80.963738	-163.957900
46511		8.651110	2.331708	-0.679660	0.532648	0.056768	-0.325961	-0.373779	-0.172119	0.543457	86.032009	-80.774918	-163.847855
46512		8.450409	2.899920	-0.502792	0.397895	0.116621	-0.308391	-0.373047	-0.173340	0.538818	85.941075	-80.593688	-163.521614
46513		8.194774	2.978447	-0.312220	0.282403	-0.003850	-0.333464	-0.375732	-0.181396	0.545410	86.207573	-80.402954	-163.624806
46514		8.031763	3.217765	-0.612524	0.118153	-0.020333	-0.319504	-0.368164	-0.177490	0.544189	86.423945	-80.220719	-163.772561
46515		7.724525	3.052998	-0.984651	-0.008363	-0.062902	-0.292221	-0.370117	-0.178955	0.545410	86.697021	-80.055395	-164.051536
46516		7.573876	2.933464	-1.068591	-0.099485	-0.069289	-0.258692	-0.371582	-0.176270	0.544189	86.922481	-79.909301	-164.335296
46517		7.405915	2.653999	-1.105308	-0.151608	-0.010326	-0.204130	-0.365234	-0.189209	0.543213	86.916837	-79.792395	-164.414661
46518		7.133575	2.416059	-0.972544	-0.173759	0.045794	-0.113322	-0.368896	-0.190186	0.541016	86.703458	-79.725795	-164.295919
46519		7.158249	2.304788	-0.972139	-0.174881	0.040799	-0.056108	-0.363525	-0.184814	0.540283	86.498482	-79.691845	-164.186223
46520		7.312024	2.430012	-0.995176	-0.189652	0.047139	-0.009718	-0.366943	-0.196045	0.535645	86.254745	-79.684280	-164.045855
46521		7.543996	2.570327	-0.787229	-0.219040	0.045737	0.031446	-0.371094	-0.194092	0.537354	85.992282	-79.699985	-163.903394
46522		7.617542	2.616445	-0.651279	-0.269049	0.002028	0.064408	-0.369873	-0.198975	0.538330	85.828407	-79.736422	-163.890438
46523		7.673702	2.586083	-0.591450	-0.365654	-0.059233	0.085278	-0.376953	-0.203125	0.539063	85.800327	-79.787091	-164.071488
46524		7.291727	2.534789	-0.687992	-0.457776	-0.098747	0.093991	-0.367920	-0.205078	0.541504	85.841566	-79.844637	-164.376796
46525		7.516765	2.430060	-0.885161	-0.549099	-0.132353	0.098950	-0.374512	-0.205078	0.531982	85.941833	-79.906025	-164.794869
46526		7.721196	2.377851	-1.171461	-0.678151	-0.115202	0.057998	-0.359863	-0.210449	0.540527	85.921911	-79.943565	-165.166199
46527		7.598822	2.312706	-1.619514	-0.756968	-0.188690	0.021987	-0.362305	-0.215332	0.537842	86.106377	-79.963005	-165.790597
46528		7.740441	1.992201	-1.753679	-0.763822	-0.196579	0.009934	-0.362793	-0.215332	0.543945	86.313377	-79.975833	-166.442167
46529		8.480724	1.844956	-1.708472	-0.703916	-0.177951	-0.009672	-0.359131	-0.220459	0.526855	86.502471	-79.975999	-167.040344
46530		9.150891	1.758145	-1.437046	-0.543086	-0.192770	-0.075275	-0.355713	-0.229492	0.527100	86.839437	-79.939047	-167.695486
46531		10.255469	1.745198	-1.542050	-0.344159	-0.289509	-0.134208	-0.355225	-0.236816	0.528564	87.608681	-79.869540	-168.673726
46532		11.508613	1.652378	-1.767663	-0.170002	-0.297110	-0.161804	-0.351318	-0.239746	0.533936	88.488102	-79.782337	-169.663080
46533		12.421544	1.592902	-1.944044	-0.005690	-0.254953	-0.182507	-0.352295	-0.236572	0.532471	89.317069	-79.679800	-170.505517
46534		12.550094	1.525717	-1.999790	0.166709	-0.244896	-0.173718	-0.349854	-0.232178	0.533691	90.192684	-79.580478	-171.295490
46535		12.551809	1.612491	-2.014031	0.282456	-0.221249	-0.160976	-0.346191	-0.234863	0.537598	91.050359	-79.486060	-171.999850
46536		12.192594	1.839229	-1.849960	0.421316	-0.139290	-0.137367	-0.350342	-0.234619	0.541016	91.720527	-79.405019	-172.432921
46537		11.941650	2.263042	-1.427901	0.544057	-0.070401	-0.112335	-0.350342	-0.226807	0.536377	92.250421	-79.338461	-172.651722
46538		11.816516	2.699893	-0.785854	0.633803	-0.039982	-0.069242	-0.348145	-0.231201	0.543213	92.736384	-79.297372	-172.773627
46539		11.700289	3.313904	-0.703707	0.650248	-0.081445	-0.046000	-0.348389	-0.232910	0.542236	93.363018	-79.267693	-173.029033
46540		11.514181	3.953566	-0.603517	0.622590	-0.150658	-0.037933	-0.336426	-0.224854	0.543701	94.176588	-79.239841	-173.490958
46541		11.372683	4.554935	-0.069028	0.469771	-0.284620	-0.051191	-0.344971	-0.225586	0.546875	95.301584	-79.196143	-174.358928
46542		11.194038	5.088737	0.506866	0.217161	-0.397753	-0.058407	-0.340576	-0.225830	0.557617	96.602840	-79.138680	-175.554026
46543		11.061906	5.487733	0.921500	-0.094253	-0.460783	-0.069262	-0.336182	-0.228027	0.544922	97.897699	-79.064794	-176.924249
46544		10.917201	5.357478	1.088150	-0.342632	-0.471991	-0.094250	-0.327881	-0.231934	0.556396	99.048911	-78.970923	-178.293827
46545		10.523859	4.333439	0.476811	-0.411093	-0.537327	-0.104445	-0.333496	-0.228516	0.556641	100.324657	-78.858706	-179.830216
46546		10.186979	2.658005	-0.252964	-0.375487	-0.499456	-0.077592	-0.326904	-0.243652	0.551514	101.497244	-78.760217	178.758252
46547		9.520330	1.413066	0.059863	-0.562866	-0.409250	-0.052776	-0.322266	-0.243896	0.560547	102.306866	-78.680712	177.607548
46548		8.757139	0.805536	0.976606	-0.899288	-0.291731	-0.049971	-0.314697	-0.244873	0.548828	102.583594	-78.616031	176.802853
46549		8.418686	0.917242	1.754110	-1.138885	-0.087117	-0.100405	-0.329834	-0.254639	0.552979	102.124099	-78.547616	176.609605
46550		8.066547	1.173422	2.401783	-1.327038	0.072038	-0.210936	-0.325195	-0.266113	0.539307	101.055546	-78.436837	176.927234
46551		8.003708	1.545899	2.701818	-1.494598	0.195240	-0.415263	-0.325195	-0.272461	0.544922	99.473109	-78.221208	177.672363
46552		9.032017	1.780455	2.467146	-1.484717	0.252032	-0.611037	-0.327393	-0.289307	0.539795	97.709540	-77.895996	178.608530
46553		10.795933	1.701390	1.811110	-1.344714	0.263572	-0.702504	-0.325439	-0.295410	0.542236	96.041380	-77.513135	179.531071
46554		12.225753	1.256729	1.232547	-1.121540	0.327356	-0.596980	-0.326416	-0.307861	0.531250	94.436669	-77.189110	-179.479787
46555		12.422812	0.645227	0.823732	-0.848632	0.144543	-0.424537	-0.316162	-0.296143	0.531982	93.527773	-76.951023	-179.042351
46556		11.730240	-0.026807	0.442736	-0.585418	0.030226	-0.224062	-0.323242	-0.313965	0.526611	93.095463	-76.823382	-178.939757
46557		10.859441	-0.234686	0.487775	-0.359319	0.066439	-0.008027	-0.316895	-0.314941	0.522949	92.736790	-76.819676	-178.779165
46558		9.918859	-0.247878	0.376970	-0.144272	0.013302	0.186782	-0.327881	-0.312012	0.525879	92.652237	-76.926472	-178.774115
46559		9.391805	0.195329	0.434027	-0.021495	-0.110799	0.357438	-0.321289	-0.319336	0.519531	92.969354	-77.126975	-179.108655
46560		8.947877	0.746155	0.328698	-0.033437	-0.059265	0.493331	-0.322266	-0.311279	0.522949	93.176674	-77.406934	-179.337739
46561		8.793250	1.644282	0.126505	-0.064024	-0.038947	0.583256	-0.325684	-0.312744	0.519531	93.338099	-77.738428	-179.537167
46562		8.385210	2.091217	-0.022838	-0.115808	0.002799	0.612953	-0.331055	-0.313721	0.520508	93.369925	-78.088638	-179.634476
46563		8.557472	2.403906	-0.091800	-0.209227	0.016820	0.610497	-0.341309	-0.311523	0.528320	93.313130	-78.437513	-179.695484
46564		8.359122	2.172938	-0.281592	-0.286197	0.024768	0.561513	-0.340332	-0.309814	0.524658	93.179354	-78.759047	-179.723207
46565		8.606226	1.667813	-0.547800	-0.288651	0.022482	0.470001	-0.333984	-0.310303	0.520508	93.034542	-79.027743	-179.740735
46566		8.372365	1.013478	-0.458380	-0.243663	0.064970	0.402300	-0.339111	-0.307373	0.528076	92.772462	-79.259365	-179.612950
46567		8.645142	0.601565	-0.235023	-0.174721	0.084230	0.396448	-0.336426	-0.313721	0.512695	92.483178	-79.487618	-179.417072
46568		9.003286	0.287763	-0.314133	-0.112357	0.123519	0.391911	-0.341064	-0.307617	0.519775	92.093188	-79.714361	-179.082943
46569		9.068184	0.098188	-0.543009	0.001409	0.182228	0.377690	-0.338135	-0.316650	0.520996	91.563889	-79.933189	-178.541043
46570		8.831621	-0.187835	-0.668089	0.116670	0.211973	0.333565	-0.351318	-0.309326	0.513428	90.975352	-80.126528	-177.872537
46571		8.542081	-0.324374	-0.734494	0.238676	0.262903	0.288849	-0.343018	-0.304932	0.515625	90.262980	-80.292959	-177.007656
46572		8.248496	-0.367788	-0.514379	0.338490	0.268583	0.228968	-0.346436	-0.300537	0.517334	89.561509	-80.423524	-176.096345
46573		8.162834	-0.362656	-0.472621	0.418479	0.265229	0.181339	-0.349365	-0.299561	0.515625	88.901413	-80.524811	-175.180805
46574		8.414729	-0.234399	-0.562790	0.467268	0.285905	0.125315	-0.348145	-0.300781	0.521973	88.185236	-80.592068	-174.180323
46575		8.592035	-0.011126	-0.607595	0.496603	0.339412	0.081713	-0.352783	-0.293457	0.514893	87.297692	-80.630741	-172.989352
46576		8.680537	0.346771	-0.665550	0.525818	0.334980	0.036356	-0.356934	-0.292236	0.510742	86.441897	-80.640747	-171.813591
46577		8.665383	0.562030	-0.588937	0.557527	0.319011	-0.005818	-0.354980	-0.286621	0.513916	85.671918	-80.624519	-170.706556
46578		8.472722	0.841052	-0.411199	0.576593	0.306688	-0.037015	-0.357910	-0.287842	0.510254	84.966064	-80.588765	-169.653188
46579		8.321022	0.980620	-0.348080	0.561916	0.251287	-0.064181	-0.362305	-0.283691	0.512939	84.460464	-80.538630	-168.811443
46580		7.824393	0.897895	-0.086016	0.544214	0.211412	-0.087438	-0.363281	-0.283936	0.512939	84.093255	-80.476454	-168.119927
46581		7.790720	0.875481	0.055932	0.523835	0.084731	-0.123695	-0.353760	-0.282959	0.511230	84.164321	-80.400778	-167.884820
46582		8.320915	1.094899	-0.428678	0.445966	0.161651	-0.125848	-0.366699	-0.273193	0.509521	83.933302	-80.319216	-167.388242
46583		7.940970	1.004821	-0.625599	0.493231	0.190318	-0.103208	-0.364746	-0.284668	0.506104	83.634653	-80.248446	-166.795748
46584		8.280285	1.077226	-0.881719	0.583565	0.119436	-0.088111	-0.362549	-0.281006	0.508545	83.618667	-80.190447	-166.437165
46585		8.251217	1.064013	-0.987187	0.631857	0.075130	-0.093346	-0.365967	-0.279541	0.522949	83.782327	-80.132413	-166.233089
46586		9.171158	1.463813	-1.051131	0.575714	0.057157	-0.077466	-0.364258	-0.262451	0.512451	83.964189	-80.084549	-166.079785
46587		9.771773	1.932711	-0.712447	0.417447	0.076661	-0.003266	-0.360596	-0.271240	0.522217	83.969365	-80.077933	-165.839524
46588		10.897989	2.500417	-0.715636	0.202719	0.040221	0.102024	-0.352539	-0.276123	0.517822	83.930374	-80.133395	-165.678967
46589		11.628422	2.769189	-1.195488	-0.009795	0.020464	0.186236	-0.364746	-0.268799	0.518799	83.806486	-80.238091	-165.556224
46590		12.109124	2.794396	-1.616600	-0.183549	0.008123	0.212206	-0.356689	-0.267090	0.521729	83.608056	-80.358201	-165.458535
46591		12.034933	2.511149	-1.757303	-0.326203	-0.063969	0.181934	-0.367920	-0.273438	0.517334	83.583633	-80.465717	-165.620600
46592		12.075967	2.071918	-1.807696	-0.486212	-0.163031	0.118797	-0.361084	-0.273926	0.513184	83.827479	-80.543382	-166.147212
46593		12.076164	1.624390	-1.935614	-0.556482	-0.236126	0.060514	-0.365479	-0.275146	0.509277	84.313465	-80.591657	-166.960388
46594		12.115900	1.626538	-2.137072	-0.515991	-0.281723	0.015386	-0.362549	-0.285645	0.512451	84.996033	-80.615214	-167.948832
46595		12.332228	1.819908	-1.630079	-0.553806	-0.197668	0.007960	-0.355713	-0.284180	0.505859	85.376725	-80.629045	-168.653678
46596		12.292351	1.889012	-0.751444	-0.687471	-0.150693	0.032926	-0.355713	-0.290039	0.509521	85.508016	-80.654434	-169.182877
46597		12.348523	2.045474	-0.481163	-0.838084	-0.285097	0.107956	-0.371582	-0.291504	0.509766	86.011138	-80.727957	-170.176742
46598		12.870502	2.542438	0.660161	-0.811028	-0.288381	0.245382	-0.355713	-0.298584	0.507324	86.520438	-80.878719	-171.160343
46599		13.144487	2.163044	1.753984	-0.546986	-0.339174	0.398255	-0.362549	-0.301758	0.507324	87.373074	-81.116628	-172.338346
46600		12.842349	0.745884	2.476789	-0.290887	-0.448731	0.486485	-0.352783	-0.301758	0.504883	88.830449	-81.403409	-173.978396
46601		11.843760	-0.187553	1.450817	-0.284472	-0.584822	0.485372	-0.358398	-0.307861	0.518555	90.935388	-81.681830	-176.268662
46602		10.743136	-0.591731	0.864308	0.019355	-0.660780	0.377568	-0.353760	-0.295410	0.510742	93.638936	-81.882483	-178.985980
46603		9.614329	-1.118511	1.125854	0.640111	-0.504565	0.204025	-0.354248	-0.296631	0.513428	96.125201	-81.973848	178.875809
46604		8.618529	-1.347186	1.047689	1.043496	-0.202964	0.056604	-0.349121	-0.288818	0.516113	97.583263	-81.991605	178.010194
46605		7.572958	-1.184227	1.232475	1.245482	0.073744	-0.004121	-0.356445	-0.288086	0.520752	98.014802	-81.994492	178.297439
46606		7.120169	-0.677720	1.757723	1.314669	0.262065	0.027271	-0.356445	-0.282471	0.525391	97.736275	-82.029955	179.342381
46607		7.055001	0.123813	1.969854	1.279766	0.394801	0.132193	-0.368408	-0.268799	0.525635	96.943569	-82.133596	-179.114639
46608		7.347459	0.762916	1.946942	1.234575	0.500777	0.295031	-0.361328	-0.268066	0.529053	95.709903	-82.332700	-177.152592
46609		7.996013	1.369523	2.120416	1.116491	0.635961	0.476302	-0.360596	-0.259033	0.530029	93.786173	-82.634647	-174.564606
46610		9.240265	2.166960	2.317186	0.967916	0.709022	0.618891	-0.369385	-0.253906	0.517090	91.256756	-83.006450	-171.453214
46611		10.833926	3.168363	2.240657	0.873042	0.709756	0.666778	-0.385498	-0.240234	0.516602	88.355467	-83.387169	-168.025187
46612		11.733181	3.920430	1.946493	0.932199	0.604093	0.625274	-0.381592	-0.238281	0.519531	85.679388	-83.726745	-164.791566
46613		11.402702	4.141862	1.402462	0.994377	0.454766	0.515746	-0.381348	-0.232422	0.519531	83.599495	-83.996648	-162.124068
46614		10.565464	3.848965	1.393100	0.958829	0.339729	0.340829	-0.383057	-0.222656	0.518066	82.068285	-84.165939	-160.029300
46615		9.724347	3.519907	1.106253	0.773880	0.257512	0.109669	-0.382568	-0.224854	0.511475	81.007610	-84.206323	-158.514653
46616		9.274633	3.207291	0.806477	0.590850	0.080470	-0.160292	-0.391846	-0.220947	0.513916	81.058663	-84.108256	-158.222630
46617		9.191933	2.833929	0.693476	0.448703	-0.025790	-0.441131	-0.392090	-0.215088	0.527588	81.830500	-83.860359	-158.737272
46618		8.782188	2.131508	0.515995	0.364581	-0.090872	-0.592943	-0.383301	-0.227051	0.517090	82.930775	-83.530323	-159.631030
46619		8.773149	1.589625	0.358718	0.266569	-0.033522	-0.612268	-0.390625	-0.220703	0.519531	83.617651	-83.183905	-160.165719
46620		8.500362	1.111136	0.431431	0.183064	0.105430	-0.550292	-0.390869	-0.220947	0.515381	83.535458	-82.863603	-159.974193
46621		8.308027	0.895205	0.341636	0.176804	0.105276	-0.462302	-0.384277	-0.229492	0.521484	83.419135	-82.593292	-159.751711
46622		8.232893	0.848932	0.223988	0.233998	0.126016	-0.372927	-0.378418	-0.227295	0.518555	83.212575	-82.372446	-159.405074
46623		8.281045	0.985054	0.238245	0.251526	0.150596	-0.299431	-0.379639	-0.219482	0.521484	82.893216	-82.191433	-158.934276
46624		8.647717	1.291061	0.166605	0.212026	0.185787	-0.285414	-0.383301	-0.234131	0.518066	82.418049	-82.015430	-158.328859
46625		8.333930	1.644402	0.257580	0.183195	0.190071	-0.264044	-0.385986	-0.226807	0.512207	81.922104	-81.850470	-157.718855
46626		8.192270	2.300581	0.305926	0.131667	0.117472	-0.250494	-0.386963	-0.217285	0.520264	81.691568	-81.698637	-157.406640
46627		8.001983	2.743152	0.122022	0.062290	0.121157	-0.216723	-0.387939	-0.240234	0.517578	81.399036	-81.565347	-157.071742
46628		7.801684	3.036293	0.107423	-0.063843	0.193287	-0.175414	-0.388428	-0.228760	0.516846	80.747316	-81.448709	-156.446719
46629		7.737123	3.103095	0.240930	-0.168236	0.210066	-0.125508	-0.395996	-0.235352	0.510986	79.960028	-81.357352	-155.744724
46630		8.000464	2.978057	0.269684	-0.243240	0.200473	-0.106973	-0.398193	-0.235107	0.508545	79.166577	-81.276142	-155.079993
46631		8.577816	2.814483	0.386335	-0.325833	0.230099	-0.092632	-0.390381	-0.243408	0.512939	78.222879	-81.197932	-154.310682
46632		8.994862	2.616025	0.460116	-0.403045	0.236739	-0.084069	-0.395020	-0.241699	0.503906	77.218330	-81.121940	-153.524697
46633		9.059685	2.470068	0.481558	-0.452334	0.167782	-0.070163	-0.399658	-0.240967	0.504150	76.434553	-81.060568	-152.990235
46634		9.271436	2.068752	0.364317	-0.476183	0.093829	-0.073327	-0.387695	-0.240967	0.500732	75.907107	-81.006887	-152.729408
46635		9.154847	1.705795	0.132357	-0.496570	-0.008520	-0.095730	-0.394775	-0.256104	0.499756	75.750993	-80.954576	-152.855916
46636		8.987631	1.447439	-0.111578	-0.475447	-0.105321	-0.135768	-0.392334	-0.258057	0.500244	75.976315	-80.893853	-153.356894
46637		8.616321	1.307100	-0.094276	-0.451640	-0.154983	-0.149130	-0.393311	-0.254150	0.501465	76.394422	-80.831740	-154.038969
46638		8.206612	1.360125	-0.366505	-0.431771	-0.184645	-0.132949	-0.391602	-0.262939	0.504883	76.904096	-80.782005	-154.802813
46639		7.894583	1.576764	-0.647242	-0.396323	-0.176234	-0.089209	-0.388428	-0.263184	0.503174	77.366557	-80.754290	-155.497910
46640		7.737076	1.993447	-1.020339	-0.370787	-0.108605	-0.030985	-0.395752	-0.261719	0.503174	77.563137	-80.750396	-155.909254
46641		7.357574	2.651267	-1.175516	-0.347988	-0.070350	0.052292	-0.391357	-0.266602	0.489258	77.580412	-80.787937	-156.125259
46642		7.421349	3.223399	-1.287498	-0.339207	-0.064773	0.153070	-0.395264	-0.268311	0.497803	77.505788	-80.881509	-156.243467
46643		8.075944	3.685999	-1.557926	-0.421353	-0.087460	0.189446	-0.395020	-0.262451	0.500244	77.438270	-80.997891	-156.416002
46644		8.204820	3.979845	-1.823334	-0.556592	-0.149173	0.217318	-0.393311	-0.268799	0.495605	77.490882	-81.137919	-156.789015
46645		8.495415	4.014211	-1.683638	-0.592652	-0.237641	0.232738	-0.403076	-0.270996	0.498291	77.843692	-81.296734	-157.485943
46646		9.636401	3.841481	-1.717040	-0.642403	-0.192484	0.200040	-0.392334	-0.278320	0.501953	78.041069	-81.431777	-158.054812
46647		10.024909	3.344881	-1.596706	-0.673406	-0.119078	0.186448	-0.392334	-0.283691	0.493896	77.969681	-81.549807	-158.369003
46648		10.775527	2.599724	-1.473652	-0.648560	-0.174316	0.151412	-0.394043	-0.288574	0.495605	78.151674	-81.655261	-158.925533
46649		11.526215	1.883840	-1.841703	-0.584347	-0.207224	0.082330	-0.391113	-0.279541	0.493164	78.565454	-81.724717	-159.678278
46650		11.771623	1.136764	-2.256860	-0.387329	-0.228553	0.033475	-0.388428	-0.291016	0.488525	79.217346	-81.768662	-160.558178
46651		11.684123	0.743442	-2.488249	-0.168655	-0.238250	-0.017752	-0.390625	-0.284912	0.498047	80.080673	-81.782454	-161.524403
46652		11.561657	0.844130	-2.475276	0.000035	-0.217109	-0.067266	-0.392090	-0.289307	0.494873	80.986676	-81.764746	-162.436745
46653		11.590159	1.031721	-2.065388	0.096036	-0.153289	-0.083104	-0.385498	-0.287109	0.496338	81.708490	-81.730144	-163.106921
46654		11.935346	1.176312	-1.674446	0.172617	-0.049761	-0.090524	-0.394775	-0.290039	0.500977	82.064546	-81.682635	-163.363733
46655		12.247062	0.829466	-1.118889	0.330013	-0.022815	-0.092371	-0.390381	-0.297607	0.497803	82.409738	-81.631226	-163.518006
46656		12.521146	0.599715	-1.143543	0.521787	-0.101810	-0.104598	-0.401611	-0.293457	0.502197	83.164990	-81.578884	-163.976177
46657		12.595539	0.942198	-1.224900	0.717807	-0.168988	-0.104929	-0.391602	-0.286621	0.494873	84.287724	-81.528970	-164.692028
46658		12.608778	1.652590	-0.850658	0.837789	-0.250673	-0.084512	-0.391113	-0.277588	0.506348	85.767508	-81.492910	-165.699807
46659		12.803670	2.348924	-0.264347	0.926638	-0.304342	-0.100689	-0.385254	-0.287109	0.513428	87.500460	-81.444745	-166.911934
46660		13.311631	3.029179	2.062711	0.686052	-0.190040	-0.120428	-0.381348	-0.283203	0.506104	88.642255	-81.379101	-167.666078
46661		12.882444	3.006603	3.850227	0.110262	-0.226402	-0.187816	-0.388428	-0.285400	0.515137	89.584811	-81.272577	-168.552229
46662		12.139254	3.689643	3.108383	-0.216969	-0.415078	-0.304926	-0.385254	-0.286865	0.515137	91.000659	-81.096235	-170.107734
46663		11.245785	3.734921	2.363786	-0.297101	-0.500931	-0.319573	-0.378662	-0.282471	0.510986	92.621599	-80.903039	-171.917670
46664		9.862523	3.384546	2.430847	-0.475570	-0.443994	-0.287166	-0.371582	-0.300781	0.512695	93.873875	-80.723864	-173.459167
46665		8.641043	3.183525	3.112301	-0.904729	-0.309218	-0.237657	-0.381104	-0.300537	0.508789	94.384049	-80.574040	-174.497857
46666		7.369145	3.340031	2.798514	-1.267147	-0.132878	-0.198972	-0.374756	-0.311279	0.515625	94.073672	-80.454231	-174.916194
46667		6.672182	3.240279	2.464904	-1.378180	-0.011557	-0.227183	-0.373047	-0.315186	0.509277	93.287513	-80.322599	-174.915849
46668		7.033933	2.842328	2.580519	-1.423328	0.137587	-0.293013	-0.381104	-0.322510	0.500000	91.980712	-80.158052	-174.414268
46669		7.360494	2.188665	2.915000	-1.488025	0.233115	-0.384864	-0.378662	-0.331787	0.495117	90.354410	-79.938997	-173.624689
46670		8.286387	1.149554	2.999824	-1.470752	0.244760	-0.474695	-0.380615	-0.346680	0.490234	88.755066	-79.665547	-172.852807
46671		10.054844	0.741927	2.698546	-1.462830	0.400456	-0.486365	-0.378662	-0.357422	0.488037	86.748517	-79.376859	-171.660459
46672		10.014633	-0.374484	2.275786	-1.135217	0.097330	-0.483017	-0.378906	-0.360107	0.486572	85.909356	-79.096808	-171.465269
46673		11.550567	-0.711087	1.904067	-0.959033	0.031273	-0.379441	-0.370117	-0.367920	0.480713	85.364282	-78.877573	-171.465659
46674		11.005369	-1.034535	1.209153	-0.771723	-0.000792	-0.220312	-0.379150	-0.369873	0.479248	84.988623	-78.751557	-171.530366
46675		10.379748	-0.778372	0.481641	-0.505583	-0.001656	-0.002074	-0.380615	-0.376953	0.480957	84.714964	-78.749502	-171.542720
46676		9.182050	-0.798986	0.664713	-0.303524	0.056384	0.232874	-0.383057	-0.371582	0.476318	84.324553	-78.878979	-171.318937
46677		8.304900	-0.466943	0.773830	-0.197723	0.033567	0.436929	-0.379395	-0.380615	0.477539	83.992530	-79.125236	-171.092266
46678		7.861064	-0.029003	0.699901	-0.184521	0.011996	0.577579	-0.384277	-0.375488	0.481201	83.673643	-79.453274	-170.872241
46679		7.485517	0.432206	0.495661	-0.145850	-0.017677	0.613619	-0.389648	-0.370361	0.469727	83.440678	-79.803027	-170.716603
46680		7.806560	1.033442	0.508127	-0.200777	0.005973	0.600975	-0.382324	-0.369873	0.469971	83.089490	-80.144361	-170.473716
46681		8.928456	1.807817	0.133211	-0.305331	0.118418	0.538341	-0.385986	-0.361084	0.471436	82.303605	-80.440991	-169.850175
46682		8.977470	1.884846	-0.059593	-0.268827	0.049233	0.431380	-0.387939	-0.367188	0.474609	81.787827	-80.681683	-169.480390
46683		9.823345	1.767038	-0.366728	-0.262828	-0.052685	0.339147	-0.396729	-0.368408	0.478271	81.661226	-80.877643	-169.500960
46684		10.152171	1.461176	-0.529316	-0.308851	-0.073182	0.238200	-0.388428	-0.375732	0.465332	81.632658	-81.018584	-169.648156
46685		10.159538	0.852860	-0.568712	-0.297014	-0.013766	0.160723	-0.398193	-0.366211	0.464844	81.438623	-81.110161	-169.620297
46686		10.072861	0.414987	-0.233171	-0.283920	0.017381	0.082135	-0.406494	-0.374268	0.468994	81.179920	-81.155004	-169.520042
46687		9.634686	0.202710	-0.158064	-0.289639	-0.011992	-0.011567	-0.396484	-0.378418	0.466553	81.077118	-81.148901	-169.580314
46688		8.970842	0.039532	0.069238	-0.254401	-0.032482	-0.066924	-0.395020	-0.375488	0.461914	81.099907	-81.113737	-169.747839
46689		8.340266	-0.033200	0.199521	-0.197180	-0.055588	-0.096920	-0.402344	-0.378418	0.468750	81.254865	-81.063188	-170.015487
46690		8.334800	0.024336	0.102321	-0.151599	-0.023908	-0.094681	-0.392822	-0.381104	0.465088	81.318508	-81.011470	-170.164784
46691		8.571976	0.178913	-0.014968	-0.122340	0.083546	-0.078712	-0.400879	-0.387451	0.469727	81.006684	-80.959046	-169.916540
46692		8.557076	0.215980	0.114589	-0.062377	0.147119	-0.048980	-0.398438	-0.381348	0.459961	80.490032	-80.917638	-169.426484
46693		8.499448	0.122801	0.244231	0.028826	0.130460	0.000424	-0.392090	-0.393311	0.461182	80.058454	-80.904816	-168.969263
46694		8.647231	0.112950	0.281199	0.093514	0.135065	0.055090	-0.400879	-0.384033	0.463379	79.613367	-80.922096	-168.461193
46695		8.685999	0.172599	0.020460	0.157487	0.130861	0.091429	-0.397461	-0.383789	0.460449	79.193670	-80.959440	-167.941454
46696		8.786755	0.335692	-0.327548	0.230336	0.108848	0.124778	-0.402100	-0.375000	0.460205	78.866319	-81.017647	-167.473323
46697		8.482055	0.484720	-0.521762	0.290066	0.123182	0.145262	-0.400879	-0.376953	0.462158	78.502220	-81.085118	-166.933198
46698		8.176604	0.514405	-0.520707	0.307748	0.096653	0.134788	-0.408447	-0.384033	0.470703	78.244566	-81.149507	-166.490884
46699		7.860743	0.565627	-0.885896	0.324381	0.048201	0.097693	-0.403320	-0.372803	0.464111	78.195955	-81.198423	-166.250373
46700		7.631407	0.451514	-1.381116	0.352621	0.049246	0.064108	-0.403076	-0.380127	0.462158	78.183454	-81.228512	-166.030223
46701		7.486115	0.289557	-1.621211	0.410237	0.029488	0.023205	-0.397705	-0.385986	0.465576	78.307313	-81.237884	-165.914561
46702		7.981818	0.151691	-1.762342	0.453038	0.063999	0.042615	-0.410889	-0.374512	0.462891	78.314386	-81.254272	-165.656023
46703		8.423471	-0.087692	-1.853639	0.536547	0.053524	0.027193	-0.402344	-0.361328	0.467529	78.420138	-81.263198	-165.448931
46704		8.820647	-0.349646	-1.664418	0.638213	0.045004	-0.017651	-0.402588	-0.379639	0.474854	78.647412	-81.248062	-165.305845
46705		9.539186	-0.486724	-1.231759	0.733065	0.085260	-0.023401	-0.408691	-0.361816	0.473145	78.788196	-81.225274	-165.020395
46706		10.468478	-0.534824	-0.755368	0.765266	0.109049	0.002103	-0.412598	-0.356689	0.477051	78.841094	-81.214230	-164.627191
46707		11.106730	-0.439058	-0.199512	0.695133	0.090837	0.043433	-0.406250	-0.357422	0.468750	78.892295	-81.228605	-164.273214
46708		11.656520	0.320403	0.109930	0.474029	0.060423	0.080423	-0.410156	-0.355225	0.479980	78.898399	-81.267045	-164.001527
46709		11.347078	1.644469	0.091182	0.206974	0.051258	0.083432	-0.401123	-0.353516	0.476318	78.783388	-81.308345	-163.762521
46710		10.990763	2.960244	-0.595799	0.040910	-0.018499	0.041299	-0.403564	-0.357178	0.473633	78.857792	-81.333507	-163.811011
46711		10.856980	3.894625	-1.603608	-0.049559	-0.045754	0.013603	-0.414063	-0.350830	0.477051	79.003535	-81.346250	-163.984459
46712		10.715086	3.930213	-2.280797	-0.076147	-0.063971	-0.000348	-0.413086	-0.356934	0.478760	79.209663	-81.352867	-164.234027
46713		10.822762	3.239763	-2.607666	-0.095219	-0.173362	0.030284	-0.413086	-0.355225	0.479736	79.793612	-81.387994	-164.877085
46714		11.369572	2.216641	-2.391116	-0.171568	-0.216997	0.079148	-0.409424	-0.365479	0.475586	80.468731	-81.453842	-165.656194
46715		11.991887	1.289355	-2.084172	-0.247995	-0.241091	0.123226	-0.408691	-0.362061	0.477051	81.180504	-81.545467	-166.516803
46716		12.342552	0.594797	-1.621629	-0.318496	-0.273998	0.158883	-0.409668	-0.358887	0.475586	81.972797	-81.658340	-167.499084
46717		12.539439	0.199529	-1.043434	-0.379035	-0.290600	0.168913	-0.406494	-0.375488	0.476563	82.818999	-81.776187	-168.571029
46718		12.440044	0.164257	-0.505438	-0.363677	-0.260966	0.148184	-0.405518	-0.368164	0.479248	83.587894	-81.877972	-169.555263
46719		12.334321	0.385739	0.232196	-0.284383	-0.142889	0.098511	-0.407471	-0.369629	0.477295	83.972738	-81.942846	-170.106025
46720		12.065806	1.052460	0.647224	-0.248118	-0.134306	0.077646	-0.405518	-0.367920	0.479004	84.354666	-81.994683	-170.632248
46721		12.065744	1.731808	0.660544	-0.370741	-0.281155	0.117278	-0.405029	-0.372803	0.482178	85.263773	-82.076070	-171.762212
46722		11.957094	2.084638	0.757675	-0.430251	-0.433727	0.226521	-0.404785	-0.373047	0.475342	86.763592	-82.222541	-173.522009
46723		11.413133	1.958689	1.922155	-0.257935	-0.398562	0.330601	-0.398193	-0.369141	0.486328	88.265871	-82.421479	-175.184485
46724		10.210690	1.410201	2.486969	0.072482	-0.356994	0.346509	-0.400879	-0.375000	0.471191	89.854949	-82.622988	-176.742250
46725		8.838711	0.658090	2.555702	0.513290	-0.297633	0.280401	-0.397217	-0.370605	0.477539	91.514195	-82.781256	-178.115966
46726		7.772296	0.137576	2.546627	0.947164	-0.229792	0.171664	-0.413818	-0.367432	0.485352	93.148540	-82.873723	-179.213183
46727		7.316133	-0.218923	2.040474	1.126993	-0.115088	0.089540	-0.402344	-0.361328	0.485596	94.367318	-82.920177	-179.788047
46728		7.305692	-0.076898	1.639720	0.995530	0.145813	0.077556	-0.405518	-0.368164	0.490723	94.306252	-82.970298	-179.148717
46729		7.618164	0.325729	1.907131	0.903810	0.369296	0.136523	-0.410645	-0.351563	0.494385	93.159673	-83.061776	-177.469225
46730		8.451787	0.709978	2.312430	0.968926	0.523762	0.230025	-0.413818	-0.346924	0.496094	91.281972	-83.204680	-175.015748
46731		9.595869	1.254503	2.626443	1.060071	0.676566	0.320758	-0.409912	-0.337158	0.488281	88.607031	-83.387940	-171.708188
46732		10.612037	1.866647	2.459582	1.182507	0.702134	0.404206	-0.417969	-0.341553	0.499023	85.675760	-83.598963	-168.072965
46733		11.156036	2.393964	1.733529	1.317082	0.614341	0.493522	-0.422607	-0.330811	0.488525	83.010198	-83.845690	-164.629412
46734		10.974872	2.854863	1.157181	1.359529	0.468849	0.549487	-0.432617	-0.321289	0.494873	80.863941	-84.119632	-161.684962
46735		10.289925	3.363364	0.843641	1.241985	0.395114	0.518880	-0.429688	-0.316895	0.497314	78.863181	-84.372504	-158.956025
46736		9.862374	3.883919	0.770913	1.060446	0.233780	0.380818	-0.439697	-0.308105	0.501465	77.677979	-84.558841	-157.151797
46737		9.729662	3.982450	0.679152	0.830952	0.095034	0.135358	-0.432617	-0.303467	0.500488	77.435765	-84.622784	-156.427269
46738		9.382536	3.651172	0.861832	0.582910	0.034076	-0.127359	-0.439697	-0.302734	0.502441	77.752916	-84.547249	-156.407320
46739		9.063133	3.149797	0.856398	0.354864	-0.073683	-0.339069	-0.439209	-0.310303	0.503906	78.808010	-84.365399	-157.259923
46740		8.501899	2.581495	0.747420	0.214654	-0.155621	-0.474418	-0.431152	-0.309082	0.498535	80.306658	-84.114097	-158.639516
46741		8.009151	2.051509	0.611000	0.138668	-0.167785	-0.529534	-0.437256	-0.304688	0.504883	81.751069	-83.829021	-160.008769
46742		7.718878	1.762661	0.245512	0.041977	-0.082300	-0.499446	-0.423340	-0.314941	0.509766	82.567250	-83.551767	-160.802677
46743		7.495298	1.583140	0.361028	-0.001314	0.034613	-0.433751	-0.429199	-0.312256	0.500244	82.688924	-83.302312	-160.922555
46744		7.587380	1.431796	0.586987	-0.010109	0.054867	-0.345234	-0.436035	-0.315918	0.509521	82.648896	-83.101905	-160.885027
46745		7.833517	1.469983	0.657405	-0.072115	0.091638	-0.265546	-0.427979	-0.317383	0.504639	82.359903	-82.943742	-160.632105
46746		8.116707	1.519585	0.596572	-0.160751	0.149078	-0.188241	-0.436279	-0.320801	0.509521	81.724803	-82.824910	-160.081843
46747		8.275496	1.695792	0.512455	-0.223526	0.108009	-0.148924	-0.434814	-0.319336	0.497314	81.228580	-82.730891	-159.707309
46748		8.586068	1.794553	0.559114	-0.282060	0.078632	-0.123383	-0.435547	-0.328125	0.502441	80.820696	-82.653870	-159.455964
46749		8.485879	1.953382	0.653451	-0.388140	0.090795	-0.114392	-0.433350	-0.330078	0.504639	80.299928	-82.580218	-159.151608
46750		8.390648	1.764719	0.732261	-0.446756	0.012954	-0.116085	-0.436279	-0.330322	0.500244	80.089163	-82.513271	-159.194147
46751		8.672320	1.738259	0.508451	-0.514289	-0.063462	-0.149346	-0.437988	-0.334961	0.501953	80.190935	-82.434705	-159.590497
46752		8.765167	1.583390	0.299518	-0.538944	-0.042424	-0.170214	-0.428711	-0.346191	0.491699	80.199950	-82.342600	-159.908074
46753		8.757794	1.424331	0.182531	-0.497706	-0.079579	-0.169273	-0.436523	-0.337158	0.500977	80.382097	-82.254179	-160.376079
46754		8.899560	1.365406	-0.152487	-0.436753	-0.129715	-0.152920	-0.435303	-0.347412	0.495361	80.787185	-82.179747	-161.034444
46755		8.811463	1.465013	-0.520048	-0.386318	-0.175156	-0.123623	-0.431641	-0.350830	0.494141	81.378628	-82.124789	-161.851350
46756		8.726316	1.574093	-0.558800	-0.335794	-0.205565	-0.073563	-0.429688	-0.353760	0.489746	82.085148	-82.099833	-162.755795
46757		8.683694	1.787577	-0.644927	-0.311292	-0.239598	-0.042574	-0.427490	-0.355225	0.499756	82.923978	-82.092973	-163.779177
46758		8.663636	2.008546	-0.957856	-0.282001	-0.268801	-0.057661	-0.427490	-0.359375	0.495850	83.903954	-82.077590	-164.928647
46759		8.462425	2.150072	-1.267000	-0.239910	-0.291605	-0.083889	-0.425049	-0.355957	0.497559	85.006270	-82.045237	-166.176849
46760		8.575494	2.189711	-1.335331	-0.210948	-0.299867	-0.128431	-0.423096	-0.360107	0.498535	86.160634	-81.984813	-167.461503
46761		8.383359	2.350367	-1.456178	-0.210889	-0.328069	-0.161948	-0.430420	-0.355957	0.504150	87.416384	-81.901943	-168.848224
46762		8.273495	2.643895	-1.699422	-0.214143	-0.369405	-0.142414	-0.429443	-0.365723	0.499268	88.805632	-81.827011	-170.372477
46763		8.117641	2.966467	-1.933029	-0.275918	-0.363886	-0.085829	-0.427246	-0.366943	0.490967	90.112058	-81.778929	-171.848505
46764		8.184413	3.273413	-1.864977	-0.376502	-0.350960	-0.009541	-0.427734	-0.369385	0.497559	91.299974	-81.770570	-173.263669
46765		8.387912	3.564123	-1.684820	-0.444019	-0.369644	0.041391	-0.422363	-0.370605	0.491699	92.530210	-81.786176	-174.760080
46766		8.746895	3.913998	-1.832839	-0.476708	-0.408897	0.082836	-0.419434	-0.367676	0.500977	93.912467	-81.819923	-176.429495
46767		9.605684	3.915757	-1.926600	-0.485547	-0.435173	0.101323	-0.416260	-0.375244	0.501221	95.414177	-81.856318	-178.223898
46768		10.477348	3.460349	-1.933725	-0.438292	-0.448017	0.081863	-0.410889	-0.378662	0.500488	96.996826	-81.874650	179.926754
46769		11.277301	2.764162	-2.056874	-0.316472	-0.442727	0.035374	-0.411377	-0.384277	0.506836	98.607495	-81.858910	178.120323
46770		11.631461	1.975033	-2.296678	-0.130894	-0.437480	-0.010067	-0.421631	-0.371826	0.515381	100.261992	-81.811495	176.376181
46771		11.557847	1.173594	-2.809022	0.070479	-0.472643	-0.040373	-0.414063	-0.385010	0.513184	102.122692	-81.734713	174.540682
46772		11.120705	0.644403	-3.193747	0.240522	-0.459916	-0.032657	-0.410889	-0.378906	0.510254	104.002338	-81.656203	172.783451
46773		10.948314	0.548190	-2.857077	0.316765	-0.386576	-0.009314	-0.402344	-0.379639	0.512939	105.642720	-81.592769	171.312469
46774		10.856924	0.804871	-2.276488	0.311582	-0.337645	0.021716	-0.411621	-0.384033	0.511230	107.109220	-81.549368	170.013492
46775		11.207547	1.264783	-2.209759	0.339057	-0.355087	0.035511	-0.400391	-0.385254	0.514160	108.658910	-81.504574	168.646640
46776		11.648146	1.684657	-2.288668	0.465472	-0.424709	0.037431	-0.406982	-0.378906	0.532471	110.514084	-81.442336	167.043474
46777		12.051792	2.071445	-2.162953	0.569615	-0.479339	0.004306	-0.412354	-0.372070	0.541748	112.547513	-81.342039	165.320439
46778		12.049371	2.376754	-1.189631	0.585098	-0.449916	-0.045515	-0.402588	-0.377686	0.532471	114.367330	-81.214546	163.821557
46779		12.032687	2.705482	0.066517	0.491746	-0.417703	-0.124666	-0.395020	-0.361816	0.538818	115.856032	-81.046385	162.603466
46780		11.632523	2.670164	1.194786	0.351867	-0.424024	-0.236896	-0.397217	-0.369873	0.538086	117.051620	-80.815624	161.599970
46781		11.568404	2.256273	2.048999	0.219179	-0.406494	-0.374310	-0.390625	-0.365723	0.548340	117.844364	-80.515971	160.927401
46782		11.471385	1.521259	2.565608	0.194086	-0.392010	-0.493616	-0.385498	-0.380371	0.556396	118.346525	-80.159661	160.533892
46783		11.031228	1.204646	2.423465	0.131967	-0.325116	-0.568357	-0.390869	-0.378174	0.548584	118.482073	-79.782673	160.476656
46784		9.981441	1.204217	2.496876	-0.106479	-0.192694	-0.604278	-0.388916	-0.386475	0.559814	118.066134	-79.424414	160.840588
46785		8.617246	1.478300	2.740616	-0.513533	-0.204224	-0.608297	-0.386963	-0.379883	0.552246	117.470963	-79.059666	161.150598
46786		7.892481	2.401869	2.491189	-0.890923	-0.227919	-0.603265	-0.382080	-0.397217	0.555420	116.759164	-78.691472	161.358875
46787		8.065296	3.374888	1.687260	-1.042957	0.003394	-0.574657	-0.385742	-0.405029	0.547119	115.446132	-78.394887	162.092672
46788		8.639541	3.795265	1.572944	-1.088705	0.286999	-0.556033	-0.385010	-0.413574	0.542725	113.473181	-78.172001	163.473635
46789		9.730909	3.791860	1.586973	-1.170653	0.456314	-0.554047	-0.381592	-0.416992	0.530029	111.094694	-77.975658	165.222997
46790		10.840867	3.209331	1.820109	-1.211436	0.451273	-0.561677	-0.387207	-0.434570	0.526611	108.768216	-77.760366	166.895750
46791		11.849371	2.349074	1.777273	-1.257401	0.400977	-0.563113	-0.389160	-0.436279	0.519531	106.608924	-77.521111	168.372806
46792		12.220793	1.353807	1.452542	-1.182430	0.217161	-0.598587	-0.381592	-0.453125	0.520752	104.989019	-77.224189	169.341686
46793		12.112710	0.478522	0.616128	-1.024086	0.225335	-0.520564	-0.389160	-0.454102	0.511719	103.542639	-76.965398	170.227683
46794		11.562990	0.284995	0.246793	-0.831271	0.298884	-0.371010	-0.388184	-0.460449	0.504150	102.155906	-76.795514	171.165641
46795		10.412258	-0.019390	0.518624	-0.686930	0.396184	-0.171940	-0.382813	-0.461914	0.510010	100.740223	-76.742630	172.219646
46796		9.597078	0.099283	0.215549	-0.533004	0.372464	0.047433	-0.382324	-0.468994	0.500244	99.570237	-76.806361	173.110910
46797		8.774089	0.326130	0.385228	-0.455037	0.372160	0.208012	-0.386719	-0.465088	0.499268	98.493699	-76.956305	173.952547
46798		8.121129	0.567396	0.329173	-0.402304	0.350243	0.317420	-0.391846	-0.465820	0.500244	97.517622	-77.163756	174.720653
46799		8.034407	1.005103	-0.018958	-0.315697	0.296406	0.413752	-0.399902	-0.469727	0.493164	96.727592	-77.418914	175.349003
46800		7.592671	1.114297	0.020948	-0.254310	0.312075	0.459150	-0.398926	-0.465820	0.487793	95.917020	-77.699526	176.032952
46801		7.407372	1.072038	0.033627	-0.178381	0.261155	0.447893	-0.404541	-0.468262	0.484131	95.247930	-77.968416	176.616736
46802		7.593690	0.979211	0.035630	-0.105436	0.173922	0.423907	-0.405273	-0.458740	0.481934	94.827643	-78.218586	176.987620
46803		8.709885	1.095599	-0.163671	-0.022226	0.190348	0.431582	-0.406982	-0.469238	0.482178	94.392605	-78.472800	177.422662
46804		9.249187	1.072714	-0.460553	0.086084	0.212195	0.416787	-0.411133	-0.460449	0.489990	93.936844	-78.719299	177.941007
46805		9.372976	0.430996	-0.546070	0.218341	0.204054	0.410168	-0.411621	-0.455566	0.484863	93.557206	-78.960464	178.459282
46806		9.692807	0.246640	-0.575912	0.280168	0.289217	0.369975	-0.416992	-0.453857	0.487549	92.933544	-79.181010	179.261037
46807		9.243179	0.003479	-0.577630	0.337261	0.291452	0.314987	-0.428955	-0.458008	0.486328	92.298818	-79.368021	-179.892553
46808		8.968554	-0.098597	-0.867428	0.438331	0.219239	0.233201	-0.421387	-0.452881	0.485596	91.913904	-79.505713	-179.242449
46809		8.485779	-0.054232	-0.838663	0.517611	0.214194	0.142863	-0.433350	-0.454346	0.492676	91.568664	-79.590445	-178.586181
46810		8.549786	0.209542	-0.738854	0.564226	0.225541	0.058383	-0.430420	-0.448730	0.495850	91.202801	-79.626578	-177.882469
46811		8.506808	0.441257	-0.704960	0.572968	0.275872	-0.000233	-0.435791	-0.447998	0.489502	90.677631	-79.628299	-177.011293
46812		8.626221	0.660810	-0.662940	0.582726	0.272896	-0.057307	-0.432617	-0.446289	0.488525	90.168217	-79.596209	-176.150870
46813		8.404178	0.774093	-0.768127	0.612685	0.207539	-0.094827	-0.440430	-0.447510	0.497070	89.883403	-79.541251	-175.500849
46814		8.297945	0.949507	-0.997819	0.627948	0.153907	-0.117748	-0.431641	-0.442139	0.502197	89.779054	-79.473132	-175.025739
46815		8.100473	0.993608	-1.107413	0.632207	0.092145	-0.116395	-0.431885	-0.444824	0.500000	89.869524	-79.405634	-174.745873
46816		8.448487	1.225763	-1.251230	0.588180	0.101836	-0.085524	-0.435059	-0.437500	0.508057	89.906645	-79.356122	-174.437684
46817		8.235630	1.166073	-1.279652	0.569869	0.041724	-0.050341	-0.436768	-0.443115	0.507813	90.116626	-79.326650	-174.315732
46818		8.586070	1.269079	-1.428856	0.539629	0.036835	-0.015881	-0.438965	-0.431885	0.501465	90.324450	-79.317228	-174.209503
46819		7.995586	0.916328	-1.279250	0.556982	0.014763	-0.004409	-0.434814	-0.438232	0.497803	90.609419	-79.314141	-174.171416
46820		8.088349	0.751345	-1.372419	0.634603	-0.071463	0.019572	-0.440186	-0.431885	0.508301	91.201755	-79.324285	-174.401101
46821		7.752183	0.262910	-1.607648	0.706068	-0.023612	-0.001485	-0.441895	-0.419678	0.512451	91.688955	-79.322466	-174.481948
46822		8.135383	-0.099289	-1.661840	0.828086	-0.012828	-0.032071	-0.439697	-0.417725	0.511963	92.209706	-79.303403	-174.525975
46823		9.164173	-0.217402	-1.881977	0.894097	0.099345	-0.053856	-0.434570	-0.420166	0.524170	92.426035	-79.274279	-174.221615
46824		9.210694	-0.418568	-1.418000	1.000906	0.074166	-0.035696	-0.437744	-0.412598	0.521240	92.781325	-79.255314	-173.996458
46825		9.958325	-0.177347	-1.071598	1.024273	0.021801	0.015074	-0.429932	-0.409912	0.528076	93.316481	-79.264071	-173.940795
46826		10.642985	0.749862	-0.593967	0.869338	0.124143	0.091012	-0.441650	-0.404297	0.532471	93.466000	-79.319849	-173.582961
46827		10.981908	1.791039	-0.134084	0.675178	0.158058	0.180424	-0.448486	-0.398438	0.532227	93.415977	-79.428000	-173.135527
46828		11.091763	3.065588	-0.203941	0.412688	0.091526	0.260465	-0.457031	-0.401123	0.533936	93.428728	-79.579615	-172.904938
46829		10.927228	4.077813	-1.012200	0.145612	-0.010526	0.311484	-0.453613	-0.401855	0.528809	93.617466	-79.756884	-173.009029
46830		10.515054	4.380702	-1.841481	-0.070080	-0.096196	0.341519	-0.451660	-0.402100	0.535889	93.967906	-79.947993	-173.402752
46831		10.447656	4.134752	-2.191600	-0.252925	-0.081333	0.310156	-0.448975	-0.400635	0.530273	94.172027	-80.121344	-173.754106
46832		10.710581	3.218504	-2.110439	-0.412083	-0.056197	0.251661	-0.446045	-0.396729	0.532959	94.193790	-80.262298	-174.012726
46833		11.406237	2.057489	-1.894797	-0.529678	-0.069210	0.197547	-0.448242	-0.398926	0.533936	94.183946	-80.371601	-174.307543
46834		12.262022	0.954099	-1.863367	-0.610220	-0.105153	0.154032	-0.447021	-0.400146	0.535156	94.239905	-80.454687	-174.715804
46835		12.664886	0.153002	-1.767333	-0.634304	-0.115127	0.126620	-0.450928	-0.412842	0.522461	94.315345	-80.521436	-175.157788
46836		12.838492	-0.357570	-1.166256	-0.561584	-0.179407	0.104102	-0.459717	-0.414795	0.534180	94.648633	-80.572356	-175.818787
46837		12.522121	-0.317614	-0.010917	-0.445148	-0.197259	0.070220	-0.455078	-0.418945	0.522705	95.107939	-80.602217	-176.540022
46838		12.177184	0.391060	0.302609	-0.348850	-0.268644	0.042089	-0.457275	-0.414063	0.527832	95.859753	-80.610976	-177.501576
46839		12.387289	1.911748	0.640638	-0.283366	-0.276043	0.110894	-0.448242	-0.417969	0.523438	96.707014	-80.656239	-178.522047
46840		12.295651	2.915983	0.659490	-0.266705	-0.322478	0.276972	-0.452881	-0.429932	0.528564	97.810643	-80.789743	-179.792067
46841		11.866164	2.916479	1.289609	-0.306430	-0.375437	0.443042	-0.457764	-0.416260	0.524414	99.211969	-81.008306	178.613759
46842		10.634227	2.410277	1.719598	-0.290215	-0.450603	0.514039	-0.461182	-0.415527	0.537109	101.017719	-81.252298	176.620934
46843		9.298458	1.544645	1.806918	-0.034014	-0.526865	0.467547	-0.461670	-0.415283	0.536865	103.323667	-81.449756	174.271659
46844		8.336584	0.526948	1.858370	0.282427	-0.440309	0.359105	-0.458740	-0.417480	0.541016	105.479006	-81.585569	172.259160
46845		7.575623	-0.277968	1.561521	0.524672	-0.218920	0.249325	-0.457520	-0.406982	0.542236	106.883219	-81.686928	171.146635
46846		7.139661	-0.583315	1.352659	0.689147	0.036404	0.184176	-0.455811	-0.408447	0.545898	107.366627	-81.793106	171.060212
46847		7.220239	-0.576096	1.705757	0.777717	0.229201	0.161950	-0.470215	-0.398193	0.549805	107.141392	-81.919840	171.740790
46848		7.614735	-0.350960	2.081242	0.848082	0.362953	0.183994	-0.457764	-0.396240	0.555908	106.439523	-82.080044	172.943305
46849		8.377043	0.097335	2.240176	0.971007	0.467370	0.241847	-0.473145	-0.386230	0.555420	105.410367	-82.286071	174.546570
46850		9.402259	0.885996	2.323127	1.022194	0.543042	0.338240	-0.473877	-0.385010	0.550293	104.119301	-82.552041	176.442908
46851		10.243599	1.700284	2.105922	0.983220	0.558154	0.453494	-0.484619	-0.370850	0.555664	102.734754	-82.878473	178.409563
46852		11.117951	2.749421	1.595853	0.918360	0.453536	0.530062	-0.483398	-0.364990	0.558350	101.718248	-83.229651	179.966701
46853		11.395537	3.639875	1.035168	0.872222	0.325668	0.547978	-0.497070	-0.364014	0.554443	101.190003	-83.573855	-178.995449
46854		11.445359	4.311494	0.744115	0.754578	0.235746	0.445399	-0.498779	-0.355469	0.556641	100.877798	-83.849518	-178.243350
46855		10.498074	4.167959	0.706724	0.613181	0.141528	0.268123	-0.494873	-0.348145	0.562500	100.765596	-84.014969	-177.774055
46856		10.175453	4.032058	0.513533	0.418733	0.019053	0.047759	-0.487061	-0.357910	0.561523	100.968340	-84.043234	-177.733634
46857		9.896607	3.716475	0.423066	0.222786	-0.008878	-0.201355	-0.493164	-0.349365	0.566650	100.949187	-83.928219	-177.582708
46858		9.494050	3.088495	0.343558	0.146539	-0.031054	-0.412880	-0.496582	-0.354004	0.559082	100.798333	-83.691880	-177.343470
46859		9.091145	2.399710	0.169405	0.146386	-0.023702	-0.543492	-0.494873	-0.348633	0.569336	100.504806	-83.382468	-176.960220
46860		9.032115	1.849838	-0.074886	0.153590	0.066375	-0.596781	-0.488037	-0.357666	0.569092	99.786163	-83.051925	-176.144844
46861		8.821611	1.355636	-0.051729	0.204139	0.176446	-0.586023	-0.484863	-0.353760	0.564697	98.682495	-82.735834	-174.911278
46862		8.691247	1.111313	0.154318	0.271047	0.244092	-0.510323	-0.487793	-0.356445	0.561279	97.468956	-82.465367	-173.527896
46863		8.770848	1.062314	0.307441	0.301299	0.284789	-0.446010	-0.501709	-0.356201	0.562988	96.220648	-82.230234	-172.090689
46864		8.497667	1.230085	0.232603	0.275410	0.283991	-0.364969	-0.495361	-0.360840	0.572021	95.070737	-82.037591	-170.767504
46865		8.453144	1.362468	0.312729	0.221798	0.270659	-0.274573	-0.497559	-0.364990	0.567383	94.025662	-81.892268	-169.580219
46866		8.273808	1.670946	0.430458	0.164383	0.270126	-0.209493	-0.500000	-0.362061	0.568359	93.004610	-81.781459	-168.450509
46867		8.117516	2.022123	0.446168	0.098675	0.201840	-0.169509	-0.502197	-0.364990	0.561279	92.246347	-81.688973	-167.623625
46868		7.898042	2.183886	0.338877	0.038506	0.140812	-0.148352	-0.497314	-0.363525	0.553711	91.712081	-81.606361	-167.058272
46869		7.841157	2.484393	0.049853	-0.016009	0.070582	-0.142456	-0.499512	-0.369141	0.560547	91.426163	-81.525101	-166.774917
46870		7.856958	2.563828	0.027289	-0.077911	0.048463	-0.119141	-0.499756	-0.367432	0.564697	91.198241	-81.457060	-166.586532
46871		7.850081	2.546858	-0.094496	-0.125072	0.065312	-0.106023	-0.496338	-0.367920	0.561035	90.881945	-81.396186	-166.335486
46872		7.862158	2.437115	-0.050328	-0.117433	0.041211	-0.101247	-0.495117	-0.371338	0.564941	90.666588	-81.338081	-166.182654
46873		8.227559	2.320994	-0.038996	-0.173677	0.043312	-0.103968	-0.505127	-0.371338	0.563721	90.411895	-81.277891	-166.021964
46874		8.411723	2.310461	-0.036797	-0.241793	0.046028	-0.096051	-0.504150	-0.375000	0.562988	90.112870	-81.222574	-165.856521
46875		8.578566	2.291299	-0.153115	-0.308437	-0.006506	-0.081997	-0.508301	-0.378174	0.558105	89.970749	-81.174706	-165.887786
46876		8.631531	2.332783	-0.238239	-0.348450	-0.027306	-0.062269	-0.507324	-0.384521	0.559814	89.884359	-81.138651	-165.999340
46877		8.363104	2.421838	-0.160619	-0.356464	-0.107453	-0.037413	-0.495361	-0.380859	0.558838	90.085271	-81.116312	-166.405611
46878		8.029667	2.566254	-0.202895	-0.366840	-0.186675	-0.006955	-0.507324	-0.384766	0.557129	90.571367	-81.111307	-167.107284
46879		7.636231	2.652001	-0.660112	-0.414685	-0.262498	0.016006	-0.507324	-0.389160	0.555176	91.307236	-81.117029	-168.088743
46880		7.283957	2.705361	-1.224007	-0.466884	-0.309923	0.044954	-0.503418	-0.396729	0.563721	92.194006	-81.136906	-169.253932
46881		6.997817	2.799621	-1.345021	-0.531357	-0.353614	0.083084	-0.496826	-0.391846	0.561523	93.215274	-81.173822	-170.591722
46882		7.328543	3.134110	-1.683514	-0.624145	-0.347418	0.102750	-0.500977	-0.391113	0.562012	94.177093	-81.219249	-171.923812
46883		7.530439	3.532622	-1.895451	-0.724642	-0.324314	0.121402	-0.498535	-0.394287	0.554199	95.011726	-81.272515	-173.184444
46884		8.198547	3.786692	-1.717175	-0.828820	-0.279453	0.147903	-0.501953	-0.397217	0.557861	95.643292	-81.341495	-174.300683
46885		9.118824	3.693688	-1.337169	-0.916705	-0.251593	0.149460	-0.501221	-0.406250	0.555664	96.132480	-81.410579	-175.322717
46886		9.991639	3.330148	-1.202638	-0.963255	-0.247896	0.151866	-0.493652	-0.408447	0.555420	96.595501	-81.480756	-176.345997
46887		11.050293	2.616608	-1.244969	-0.958268	-0.251388	0.143596	-0.503174	-0.408691	0.549316	97.081566	-81.543884	-177.388527
46888		11.649676	1.887393	-1.537244	-0.847804	-0.216997	0.156256	-0.504639	-0.418213	0.558838	97.518264	-81.616309	-178.317970
46889		11.949289	0.994457	-1.812660	-0.623681	-0.180624	0.165930	-0.500244	-0.409912	0.555420	97.958700	-81.695125	-179.120253
46890		11.891995	0.349261	-2.032366	-0.342329	-0.239298	0.114703	-0.495605	-0.414307	0.555908	98.772612	-81.739592	179.862110
46891		11.612974	0.199797	-2.442346	-0.105440	-0.296198	0.071993	-0.502197	-0.424805	0.551270	99.924296	-81.751273	178.641263
46892		11.365139	0.375610	-2.299095	0.065782	-0.217116	0.049741	-0.500732	-0.417236	0.564453	100.854170	-81.756216	177.742820
46893		11.306882	0.823485	-2.105147	0.163117	-0.164843	0.022765	-0.502930	-0.426270	0.552002	101.616236	-81.749154	177.071049
46894		11.541403	1.255229	-1.824115	0.262224	-0.150311	0.017505	-0.497803	-0.415527	0.561279	102.373767	-81.740372	176.460463
46895		11.934976	1.561994	-1.601865	0.357591	-0.173439	0.017751	-0.497803	-0.420166	0.574707	103.273270	-81.726756	175.762305
46896		12.163991	1.830967	-1.141861	0.434716	-0.192607	0.021397	-0.501465	-0.409912	0.562988	104.290931	-81.711636	174.988681
46897		12.290996	2.116795	-0.260179	0.462519	-0.199889	0.033880	-0.499756	-0.416260	0.571777	105.361524	-81.699566	174.178300
46898		12.204841	2.290436	0.638708	0.425029	-0.222448	0.020377	-0.494873	-0.402588	0.576904	106.477702	-81.675049	173.299442
46899		12.051898	2.374936	1.223191	0.396144	-0.234514	-0.058703	-0.492676	-0.402832	0.566406	107.523427	-81.602010	172.475645
46900		11.894533	2.463688	1.627391	0.471116	-0.353504	-0.210946	-0.491455	-0.409912	0.577637	108.841624	-81.423137	171.418835
46901		11.546412	2.773302	1.527013	0.497436	-0.463348	-0.356202	-0.498535	-0.410400	0.582031	110.321785	-81.140222	170.213536
46902		10.359443	2.762139	1.452359	0.347092	-0.464460	-0.391347	-0.490723	-0.395752	0.584961	111.592574	-80.834739	169.131289
46903		8.856543	2.987376	1.502205	-0.105281	-0.528656	-0.359227	-0.487061	-0.407227	0.586670	112.776541	-80.528068	167.874269
46904		7.570455	3.401039	1.395991	-0.670921	-0.558865	-0.280998	-0.478516	-0.410156	0.584473	113.763888	-80.252698	166.486066
46905		6.758836	3.540452	0.705758	-0.996654	-0.407551	-0.218636	-0.475342	-0.413574	0.592285	114.136115	-80.041663	165.532693
46906		6.484147	3.410063	0.449052	-1.097860	-0.114717	-0.211405	-0.485840	-0.429199	0.591797	113.579629	-79.903347	165.462102
46907		6.480345	2.782041	1.220060	-1.179257	0.081966	-0.277276	-0.482422	-0.430664	0.583984	112.323876	-79.773569	166.055561
46908		7.530074	2.122193	2.021245	-1.281416	0.283131	-0.415612	-0.472168	-0.443115	0.578125	110.292651	-79.609756	167.376942
46909		8.882915	1.571642	2.695493	-1.320578	0.355455	-0.582184	-0.481445	-0.456055	0.569580	107.917705	-79.359444	169.027109
46910		10.115081	0.801845	2.817248	-1.248615	0.319732	-0.687522	-0.482178	-0.470947	0.565674	105.696032	-79.034487	170.563627
46911		12.374656	0.273768	2.231429	-1.080310	0.159282	-0.710993	-0.472900	-0.471924	0.557617	104.104658	-78.662643	171.559012
46912		12.658055	-0.453262	1.266464	-0.848934	-0.077492	-0.687130	-0.468506	-0.479004	0.563232	103.380794	-78.268934	171.804456
46913		13.074405	-0.670492	0.515996	-0.662374	-0.172384	-0.549655	-0.472412	-0.488525	0.558838	103.120994	-77.938276	171.686345
46914		11.686919	-0.679555	0.363312	-0.537596	0.033186	-0.394648	-0.466797	-0.489746	0.560791	102.503707	-77.721291	172.005821
46915		10.924939	-0.189778	0.353243	-0.386845	0.032740	-0.199631	-0.471924	-0.493652	0.552734	102.092748	-77.612211	172.203731
46916		10.510689	0.326423	0.180463	-0.280065	0.055443	0.034175	-0.469238	-0.497559	0.549805	101.818281	-77.637254	172.323545
46917		9.438543	0.635354	0.338426	-0.195726	0.059641	0.240921	-0.478027	-0.496338	0.554199	101.687597	-77.778143	172.346574
46918		9.295106	1.051746	0.278215	-0.156253	0.073296	0.363673	-0.474365	-0.500488	0.546631	101.611775	-77.990012	172.335655
46919		9.086927	1.442140	0.295726	-0.139086	0.095579	0.423566	-0.485596	-0.492432	0.556396	101.514299	-78.237590	172.357850
46920		8.849798	1.668319	0.314849	-0.115280	0.074127	0.444863	-0.483643	-0.496338	0.553955	101.502687	-78.495143	172.305363
46921		8.957494	1.633244	0.247867	-0.119220	0.023823	0.440341	-0.487305	-0.494385	0.554932	101.625239	-78.743915	172.114696
46922		9.487088	1.646516	-0.208375	-0.111099	0.006726	0.436983	-0.487061	-0.498779	0.549072	101.810661	-78.989164	171.863930
46923		9.513621	1.268526	-0.555993	-0.035178	-0.011107	0.431065	-0.483643	-0.488770	0.543213	102.094776	-79.228342	171.558099
46924		9.822593	0.954771	-0.743994	0.022163	0.038021	0.401938	-0.491211	-0.492432	0.557373	102.262645	-79.457349	171.403287
46925		9.733332	0.513005	-0.674881	0.047096	0.181662	0.381832	-0.496826	-0.480957	0.546631	101.992659	-79.692001	171.709224
46926		9.616275	0.256568	-0.674495	0.093614	0.212880	0.357496	-0.496582	-0.483398	0.544678	101.626053	-79.916768	172.139287
46927		9.656138	0.205814	-0.764960	0.123520	0.247640	0.337577	-0.494141	-0.478760	0.552246	101.129583	-80.133329	172.719155
46928		9.390613	0.234329	-0.594792	0.165757	0.277880	0.298069	-0.504150	-0.472168	0.560059	100.513341	-80.330301	173.443905
46929		8.991195	0.300592	-0.495493	0.227428	0.294123	0.239627	-0.499023	-0.475586	0.541992	99.812218	-80.494198	174.290969
46930		8.664609	0.233846	-0.478847	0.293240	0.299368	0.176009	-0.510498	-0.472412	0.548584	99.073589	-80.621188	175.213134
46931		8.708138	0.167796	-0.568626	0.341011	0.318680	0.111065	-0.513428	-0.468262	0.545166	98.236566	-80.710658	176.263198
46932		8.887823	0.040767	-0.587166	0.364594	0.339624	0.051504	-0.515381	-0.469727	0.546631	97.299134	-80.765605	177.427737
46933		9.256953	-0.059104	-0.655267	0.394445	0.389055	0.012750	-0.516602	-0.469238	0.550049	96.174293	-80.798162	178.799992
46934		9.420921	-0.204054	-0.608071	0.463128	0.460311	-0.027994	-0.520508	-0.464111	0.546387	94.820515	-80.806924	-179.556723
46935		9.323940	-0.235960	-0.495988	0.558380	0.486935	-0.067297	-0.519043	-0.463623	0.537842	93.414086	-80.787743	-177.804194
