// General information: 
//  MT Manager version: 2022.2.0 
//  XDA version: 2022.2.0 build 7381 rev 124627 built on 2023-07-19
// Device information: 
//  DeviceId: 00B4C3A0
//  ProductCode: MTW2-3A7G6
//  Firmware Version: 4.6.0
//  Hardware Version: 2.0.0
// Device settings: 
//  Filter Profile: human(46.1)
//  Option Flags: Orientation Smoother Disabled, Position/Velocity Smoother Disabled, Continuous Zero Rotation Update Disabled, AHS Disabled, ICC Disabled
// Coordinate system: ENU
PacketCounter	SampleTimeFine	Acc_X	Acc_Y	Acc_Z	Gyr_X	Gyr_Y	Gyr_Z	Mag_X	Mag_Y	Mag_Z	Roll	Pitch	Yaw
44421		9.559012	1.621617	0.370969	-0.109564	-0.125448	-0.040728	-0.430420	-0.242920	0.619385	79.207817	-81.367753	137.129362
44422		9.596193	1.525548	0.360677	-0.117963	-0.128294	-0.042526	-0.435791	-0.244629	0.622314	79.651958	-81.357887	136.612640
44423		9.579143	1.403771	0.308091	-0.107461	-0.132624	-0.051953	-0.434326	-0.250732	0.625244	80.129103	-81.341550	136.071776
44424		9.639428	1.293942	0.275720	-0.081736	-0.133356	-0.056803	-0.430176	-0.248047	0.616699	80.615456	-81.322949	135.533525
44425		9.636933	1.245036	0.214996	-0.051235	-0.128928	-0.061879	-0.430664	-0.246826	0.617676	81.112737	-81.299281	135.004824
44426		9.688659	1.222802	0.196073	-0.028557	-0.118367	-0.062068	-0.418457	-0.246338	0.626465	81.569625	-81.275011	134.529734
44427		9.708767	1.302060	0.211988	-0.016605	-0.114980	-0.057213	-0.422607	-0.246582	0.621338	82.027308	-81.251551	134.061103
44428		9.705331	1.390518	0.108342	0.002502	-0.117643	-0.048949	-0.423828	-0.245605	0.626465	82.498228	-81.233626	133.588281
44429		9.723964	1.432185	0.091281	0.009794	-0.113665	-0.041689	-0.422119	-0.248779	0.621094	82.954361	-81.217743	133.136476
44430		9.762483	1.528748	0.084567	0.018569	-0.118187	-0.037886	-0.427002	-0.246826	0.621094	83.423797	-81.205027	132.675219
44431		9.717533	1.598246	0.147420	0.016565	-0.111606	-0.025239	-0.418213	-0.245361	0.629150	83.866527	-81.197279	132.240871
44432		9.699771	1.599515	0.174838	0.005559	-0.111990	-0.020785	-0.422852	-0.256348	0.620117	84.296206	-81.192964	131.813274
44433		9.618956	1.660224	0.175347	-0.011705	-0.110464	-0.013193	-0.411865	-0.249268	0.618408	84.713017	-81.191027	131.388754
44434		9.528564	1.614721	0.184958	-0.021369	-0.105359	-0.010063	-0.414795	-0.255615	0.624268	85.096667	-81.190802	130.988316
44435		9.445353	1.589403	0.245750	-0.040082	-0.098074	-0.013224	-0.407471	-0.245605	0.626221	85.451239	-81.187389	130.610321
44436		9.398645	1.602619	0.263200	-0.037461	-0.088532	-0.016448	-0.427246	-0.251709	0.627686	85.772372	-81.182167	130.263752
44437		9.435939	1.629696	0.335564	-0.046716	-0.075229	-0.021711	-0.420898	-0.244629	0.627686	86.040492	-81.172332	129.969386
44438		9.484209	1.655796	0.336371	-0.049709	-0.071682	-0.018328	-0.422363	-0.242676	0.635498	86.282397	-81.165521	129.700134
44439		9.531684	1.663392	0.321058	-0.062319	-0.072181	-0.013679	-0.417480	-0.240479	0.632080	86.527460	-81.159776	129.420043
44440		9.574536	1.704455	0.304241	-0.067415	-0.081254	-0.003386	-0.413818	-0.254150	0.626221	86.797155	-81.161985	129.115545
44441		9.614910	1.690387	0.237449	-0.069480	-0.091011	0.004621	-0.411621	-0.251465	0.626221	87.103529	-81.166875	128.769256
44442		9.655044	1.626132	0.260220	-0.056469	-0.107187	0.013210	-0.416016	-0.247559	0.630127	87.471161	-81.177656	128.365378
44443		9.615650	1.638061	0.309715	-0.043461	-0.123369	0.021787	-0.410400	-0.253906	0.624512	87.910533	-81.192433	127.899607
44444		9.580259	1.597501	0.342559	-0.028863	-0.131577	0.018416	-0.405029	-0.255615	0.635254	88.384814	-81.205974	127.405860
44445		9.607451	1.528876	0.293471	-0.018258	-0.136386	0.010263	-0.413818	-0.246826	0.635742	88.890679	-81.213146	126.887449
44446		9.520830	1.535377	0.350309	-0.023431	-0.139040	0.008233	-0.415771	-0.258057	0.628174	89.404254	-81.219516	126.355336
44447		9.477443	1.525877	0.239948	-0.036798	-0.161964	0.002655	-0.415771	-0.251709	0.633545	89.995937	-81.220935	125.739355
44448		9.526306	1.549858	0.231560	-0.045051	-0.165380	0.002377	-0.414307	-0.254639	0.630859	90.585872	-81.222254	125.117645
44449		9.608944	1.632901	0.301530	-0.048497	-0.154477	0.003769	-0.407227	-0.252930	0.635986	91.143348	-81.222465	124.529498
44450		9.615300	1.616023	0.305472	-0.040048	-0.139616	0.008469	-0.403564	-0.250732	0.637451	91.644360	-81.225814	124.001017
44451		9.689377	1.554114	0.246093	-0.010248	-0.123920	0.012364	-0.405029	-0.254150	0.637695	92.111700	-81.229933	123.526254
44452		9.680347	1.447119	0.242664	0.011044	-0.107658	0.014276	-0.401367	-0.248047	0.636230	92.530029	-81.235982	123.110859
44453		9.741267	1.399280	0.134246	0.036947	-0.093400	0.013138	-0.396729	-0.253906	0.636230	92.912121	-81.240309	122.749726
44454		9.745127	1.345634	0.109374	0.052151	-0.086374	0.017177	-0.398926	-0.250488	0.642578	93.277699	-81.247769	122.412049
44455		9.708748	1.355413	0.055191	0.060890	-0.067573	0.011800	-0.401367	-0.245605	0.640869	93.578041	-81.251537	122.147519
44456		9.635661	1.415386	0.095533	0.068603	-0.058239	0.009464	-0.401611	-0.256836	0.635742	93.848491	-81.255302	121.916527
44457		9.590934	1.512199	0.057494	0.063273	-0.058904	0.006611	-0.403076	-0.247070	0.634521	94.117050	-81.256059	121.685540
44458		9.552152	1.525407	0.111301	0.048556	-0.062724	0.007083	-0.406250	-0.249756	0.636719	94.385438	-81.257746	121.443773
44459		9.516736	1.554325	0.074993	0.049040	-0.064210	-0.001811	-0.407959	-0.245605	0.637207	94.663097	-81.253120	121.195326
44460		9.539163	1.539440	0.046760	0.045906	-0.060114	0.000199	-0.396729	-0.252441	0.637207	94.915566	-81.251095	120.971003
44461		9.551066	1.507546	0.075148	0.048338	-0.057733	-0.005803	-0.402832	-0.247803	0.634766	95.167005	-81.244177	120.748674
44462		9.548486	1.471916	0.036653	0.046515	-0.049571	-0.005690	-0.403809	-0.251465	0.637695	95.381157	-81.238597	120.560782
44463		9.601661	1.462654	0.037958	0.054580	-0.050489	-0.007132	-0.402344	-0.246582	0.638916	95.608214	-81.231050	120.366733
44464		9.631211	1.450289	0.044771	0.066191	-0.041140	-0.005075	-0.398438	-0.246826	0.641357	95.800540	-81.226264	120.213036
44465		9.666787	1.421732	0.069576	0.074467	-0.034874	-0.003767	-0.401611	-0.250488	0.645508	95.982039	-81.221349	120.076609
44466		9.665457	1.404066	0.048944	0.079163	-0.032586	-0.005168	-0.397217	-0.248779	0.643066	96.153436	-81.216729	119.950286
44467		9.664094	1.386516	0.028669	0.082119	-0.026987	-0.006704	-0.404297	-0.257324	0.644287	96.308726	-81.210508	119.844811
44468		9.657997	1.403166	0.007566	0.082148	-0.025554	-0.006156	-0.405029	-0.239014	0.642334	96.453371	-81.205390	119.744434
44469		9.611982	1.415664	0.031152	0.075822	-0.020221	-0.003243	-0.403809	-0.241455	0.645996	96.581295	-81.201499	119.662997
44470		9.623524	1.450994	-0.012076	0.069324	-0.020640	-0.002523	-0.397461	-0.241211	0.648193	96.701138	-81.199592	119.587900
44471		9.593827	1.464177	-0.027135	0.065868	-0.020312	-0.003576	-0.403564	-0.240723	0.645752	96.823383	-81.195453	119.506439
44472		9.599820	1.448417	-0.012514	0.059622	-0.019829	-0.000893	-0.396729	-0.242676	0.637207	96.938171	-81.194207	119.428864
44473		9.586431	1.462114	-0.066201	0.048153	-0.017138	0.000052	-0.402100	-0.234863	0.644775	97.040103	-81.192303	119.357685
44474		9.608725	1.446935	-0.089681	0.034747	-0.010595	-0.000556	-0.401855	-0.244385	0.646973	97.104438	-81.191940	119.318346
44475		9.586339	1.462559	-0.069599	0.025330	-0.010764	-0.009225	-0.396973	-0.243164	0.640625	97.165588	-81.185188	119.275204
44476		9.580179	1.479208	-0.088131	0.022309	-0.003774	-0.006134	-0.396484	-0.246582	0.643311	97.195379	-81.181787	119.260044
44477		9.618395	1.487635	-0.026490	0.018428	0.003926	-0.009245	-0.397461	-0.239258	0.647217	97.198658	-81.176071	119.271461
44478		9.601999	1.487760	0.012662	0.013565	0.003616	-0.008701	-0.403076	-0.246826	0.648682	97.197077	-81.171677	119.282805
44479		9.624166	1.473493	-0.008711	0.016602	0.004360	-0.010478	-0.399414	-0.239502	0.651367	97.197169	-81.165291	119.296390
44480		9.599125	1.452945	-0.019107	0.018806	0.009147	-0.005650	-0.399170	-0.238281	0.641846	97.179327	-81.163124	119.327043
44481		9.522732	1.393315	0.055229	0.011183	0.002700	-0.002137	-0.399658	-0.239258	0.645508	97.186244	-81.161360	119.330579
44482		9.495164	1.335772	0.011480	0.001385	-0.014830	-0.004216	-0.398682	-0.246094	0.648438	97.245420	-81.158491	119.276146
44483		9.511345	1.337062	-0.029446	-0.000545	-0.025012	-0.007849	-0.400879	-0.239990	0.647217	97.344136	-81.151466	119.179977
44484		9.571275	1.397087	-0.066529	0.004287	-0.018406	-0.007628	-0.405029	-0.237549	0.650635	97.417014	-81.146121	119.110433
44485		9.620998	1.440499	-0.047065	0.005979	-0.023159	-0.008030	-0.397705	-0.237793	0.642334	97.512358	-81.139087	119.021457
44486		9.654644	1.461009	-0.111262	0.000912	-0.022933	-0.008899	-0.397461	-0.243408	0.644043	97.597984	-81.133012	118.940554
44487		9.643019	1.426973	-0.073498	0.001099	-0.031207	-0.008795	-0.398926	-0.238525	0.641602	97.719146	-81.124883	118.822614
44488		9.666483	1.430863	-0.082033	0.002877	-0.033080	-0.008108	-0.400391	-0.236572	0.651611	97.842189	-81.118160	118.703098
44489		9.588099	1.420145	-0.102532	-0.000731	-0.030775	-0.010027	-0.398193	-0.243896	0.642578	97.959693	-81.109289	118.587794
44490		9.581865	1.436791	-0.122983	0.001548	-0.030842	-0.005423	-0.403809	-0.240967	0.641602	98.075770	-81.104251	118.474737
44491		9.556779	1.416214	-0.136684	0.005745	-0.030361	-0.010759	-0.398438	-0.239502	0.652344	98.194688	-81.094926	118.361753
44492		9.570186	1.403313	-0.088549	0.008482	-0.030060	-0.002783	-0.396729	-0.237305	0.645264	98.311648	-81.091452	118.252186
44493		9.586279	1.404214	-0.130725	0.021852	-0.030302	-0.001424	-0.401855	-0.236816	0.649658	98.444170	-81.087349	118.134771
44494		9.601019	1.386743	-0.189095	0.025135	-0.028655	-0.001247	-0.389893	-0.241211	0.653809	98.567407	-81.084884	118.029937
44495		9.618406	1.405936	-0.214835	0.036032	-0.020559	-0.004600	-0.393555	-0.241211	0.650635	98.670933	-81.079742	117.950094
44496		9.616937	1.388138	-0.233237	0.050328	-0.014232	-0.007455	-0.397461	-0.244873	0.651367	98.757561	-81.074429	117.892880
44497		9.634219	1.408069	-0.257912	0.067078	-0.004116	-0.015793	-0.406738	-0.242920	0.645996	98.813183	-81.064353	117.879532
44498		9.658888	1.431095	-0.248265	0.079169	0.005150	-0.022168	-0.397705	-0.239990	0.653564	98.831012	-81.052635	117.908809
44499		9.655131	1.485532	-0.233876	0.080587	0.013523	-0.022469	-0.399170	-0.239014	0.639648	98.827180	-81.040328	117.963483
44500		9.646513	1.574385	-0.220678	0.071770	0.011718	-0.026876	-0.399414	-0.233643	0.647217	98.816055	-81.026585	118.019475
44501		9.594200	1.604303	-0.211222	0.063379	0.010773	-0.016197	-0.397705	-0.238525	0.650879	98.815869	-81.017586	118.060480
44502		9.625036	1.611205	-0.183216	0.042615	0.004029	-0.012594	-0.400391	-0.239014	0.645752	98.824819	-81.011352	118.080529
44503		9.550601	1.655355	-0.152540	0.020371	0.001508	-0.007183	-0.391602	-0.235596	0.653564	98.838203	-81.006643	118.082848
44504		9.549199	1.637470	-0.168775	0.011076	-0.000181	-0.003246	-0.390625	-0.228027	0.643311	98.850454	-81.005141	118.079855
44505		9.546515	1.601043	-0.200831	0.014238	0.004884	-0.003409	-0.396729	-0.239014	0.648926	98.850343	-81.002867	118.092280
44506		9.556151	1.532880	-0.197229	0.024374	0.012184	-0.000397	-0.404785	-0.242432	0.647949	98.827724	-81.004173	118.134287
44507		9.584566	1.501903	-0.200534	0.035609	0.010028	-0.002768	-0.395020	-0.236572	0.649902	98.821827	-81.002713	118.164967
44508		9.595514	1.452135	-0.180778	0.045446	0.014975	-0.002253	-0.394043	-0.228271	0.652100	98.797624	-81.003080	118.217913
44509		9.579390	1.451601	-0.140601	0.044251	0.021549	0.002045	-0.399170	-0.233154	0.648438	98.758132	-81.005349	118.287619
44510		9.561988	1.432454	-0.116151	0.047688	0.021223	0.003093	-0.399170	-0.239990	0.649902	98.718860	-81.009526	118.361100
44511		9.586941	1.453670	-0.104354	0.042536	0.018557	0.001150	-0.400146	-0.237305	0.655273	98.688540	-81.011015	118.420526
44512		9.569933	1.519026	-0.140146	0.044562	0.017598	0.003798	-0.397461	-0.228760	0.649170	98.659164	-81.014935	118.477593
44513		9.611100	1.540456	-0.167656	0.041323	0.017390	0.004165	-0.388916	-0.231934	0.652832	98.633923	-81.018022	118.531171
44514		9.559164	1.568063	-0.157401	0.032985	0.015960	0.003128	-0.396240	-0.235107	0.645996	98.606660	-81.021555	118.582767
44515		9.559233	1.567762	-0.156208	0.019678	0.017636	0.002300	-0.395020	-0.234863	0.654785	98.567069	-81.023597	118.638317
44516		9.522215	1.577299	-0.200853	0.015356	0.012852	0.006024	-0.408203	-0.235352	0.654541	98.540402	-81.028329	118.676574
44517		9.514905	1.574203	-0.233602	0.021325	0.011438	0.001382	-0.393066	-0.239502	0.653809	98.523456	-81.029316	118.710152
44518		9.503588	1.539327	-0.191955	0.023482	0.014810	0.005645	-0.395996	-0.225830	0.656738	98.493002	-81.033982	118.755919
44519		9.533388	1.526211	-0.178571	0.026346	0.017516	0.002983	-0.394531	-0.240723	0.656006	98.457926	-81.036384	118.810764
44520		9.555785	1.510521	-0.198572	0.022949	0.019281	0.002469	-0.386963	-0.233643	0.658203	98.412878	-81.039591	118.872074
44521		9.569307	1.497345	-0.146030	0.016308	0.013099	0.001052	-0.404297	-0.225098	0.651855	98.386855	-81.040518	118.911930
44522		9.533553	1.525578	-0.175174	0.014766	0.008138	0.001041	-0.400635	-0.238037	0.642578	98.376118	-81.042133	118.935837
44523		9.540953	1.528193	-0.140817	0.009797	0.011245	0.001245	-0.402344	-0.239746	0.641602	98.353120	-81.043011	118.968855
44524		9.491203	1.485145	-0.160918	0.011208	0.011876	-0.000355	-0.397705	-0.229248	0.652100	98.318291	-81.043980	119.011469
44525		9.516106	1.506656	-0.149211	0.012748	0.016835	-0.000345	-0.388916	-0.231201	0.648438	98.276023	-81.044413	119.065705
44526		9.520925	1.472544	-0.146337	0.009547	0.010330	-0.000709	-0.403809	-0.232178	0.651611	98.252668	-81.045100	119.098603
44527		9.544517	1.475769	-0.151200	0.014226	0.004865	-0.003401	-0.400635	-0.232178	0.647217	98.252718	-81.042809	119.110856
44528		9.585594	1.497972	-0.179748	0.017287	-0.000702	-0.005911	-0.394775	-0.233398	0.649414	98.266695	-81.039786	119.110611
44529		9.565430	1.442869	-0.189017	0.023871	-0.003706	-0.006295	-0.397705	-0.228760	0.646240	98.301571	-81.035148	119.093202
44530		9.607729	1.483756	-0.202133	0.025163	0.000338	-0.008239	-0.398926	-0.230469	0.646729	98.316968	-81.030768	119.095740
44531		9.586567	1.518117	-0.165517	0.030948	-0.004879	-0.002771	-0.397217	-0.223389	0.647217	98.361924	-81.028028	119.072232
44532		9.577880	1.497153	-0.216074	0.025808	-0.007547	-0.004713	-0.395996	-0.234863	0.652100	98.407186	-81.025171	119.047172
44533		9.586436	1.518721	-0.167594	0.021206	-0.006939	-0.002213	-0.396240	-0.234375	0.644043	98.454204	-81.022568	119.015926
44534		9.533081	1.528502	-0.175346	0.019427	-0.005071	-0.002913	-0.391602	-0.234863	0.657959	98.487949	-81.020584	118.994264
44535		9.531767	1.510200	-0.192100	0.014740	-0.007349	-0.001483	-0.400635	-0.228027	0.649658	98.533087	-81.018353	118.961170
44536		9.509402	1.525688	-0.171772	0.010054	-0.009627	-0.000053	-0.397461	-0.232422	0.645752	98.581069	-81.017664	118.920926
44537		9.508095	1.507311	-0.188669	0.006412	-0.008778	-0.002523	-0.399902	-0.230225	0.652344	98.625958	-81.014713	118.883252
44538		9.558812	1.460941	-0.214571	0.008233	-0.009203	-0.001288	-0.395996	-0.229736	0.649170	98.668343	-81.013437	118.848234
44539		9.566168	1.463746	-0.181787	0.010182	-0.005296	0.001552	-0.398193	-0.230713	0.649902	98.705111	-81.013087	118.820969
44540		9.582424	1.463742	-0.221406	0.006993	-0.004058	0.002452	-0.392822	-0.229248	0.661621	98.731094	-81.014358	118.802076
44541		9.587225	1.429641	-0.220202	0.007864	-0.006706	-0.003588	-0.394043	-0.239258	0.648193	98.768746	-81.010969	118.772571
44542		9.588482	1.448171	-0.204934	0.006993	-0.004057	0.002452	-0.398682	-0.224121	0.648926	98.796845	-81.011991	118.748704
44543		9.609539	1.414121	-0.242592	0.008198	-0.002902	-0.000566	-0.384277	-0.229980	0.654297	98.822721	-81.010642	118.731315
44544		9.628299	1.451422	-0.250071	0.007873	0.001038	-0.002333	-0.398438	-0.234131	0.648682	98.830708	-81.009603	118.731756
44545		9.592469	1.479898	-0.279757	0.006019	0.007764	-0.002847	-0.397949	-0.231201	0.647705	98.815898	-81.007899	118.754295
44546		9.623426	1.486027	-0.251087	0.004522	0.004247	-0.002316	-0.395508	-0.236572	0.655029	98.806964	-81.007138	118.768180
44547		9.617308	1.501914	-0.268142	0.004283	0.011075	-0.003014	-0.399658	-0.228027	0.645020	98.779232	-81.005629	118.802795
44548		9.642239	1.523353	-0.256334	0.000308	0.017852	0.004995	-0.395752	-0.234863	0.652832	98.723975	-81.010171	118.861099
44549		9.602466	1.519924	-0.209910	-0.008754	0.021414	-0.000647	-0.392090	-0.234863	0.654541	98.653052	-81.010887	118.931880
44550		9.602545	1.519775	-0.207326	-0.009910	0.029448	0.004160	-0.396973	-0.230713	0.648193	98.551682	-81.015749	119.028966
44551		9.627556	1.540834	-0.193870	-0.016171	0.028511	0.006307	-0.391602	-0.234375	0.647461	98.454717	-81.020971	119.121807
44552		9.610161	1.521641	-0.167582	-0.024619	0.030495	0.004916	-0.394287	-0.220703	0.651855	98.340168	-81.026390	119.225308
44553		9.590226	1.465575	-0.173116	-0.034445	0.025549	0.004402	-0.394287	-0.231689	0.647705	98.242147	-81.030233	119.308616
44554		9.566725	1.462116	-0.164810	-0.031012	0.025226	0.005456	-0.403076	-0.236084	0.651855	98.144048	-81.035628	119.394712
44555		9.531728	1.424201	-0.115947	-0.037402	0.019958	0.005993	-0.398438	-0.233154	0.646973	98.065090	-81.039880	119.457004
44556		9.548139	1.424029	-0.152528	-0.029527	0.020997	0.003670	-0.394287	-0.231201	0.649170	97.979518	-81.043778	119.528147
44557		9.502234	1.436029	-0.123635	-0.025973	0.017260	0.005072	-0.391113	-0.235840	0.655273	97.916235	-81.047267	119.581198
44558		9.548335	1.423162	-0.148335	-0.020921	0.017039	0.005947	-0.403320	-0.233887	0.657471	97.853997	-81.051992	119.633104
44559		9.527312	1.456428	-0.109208	-0.020719	0.016510	0.007364	-0.402832	-0.232422	0.641113	97.797464	-81.056706	119.682369
44560		9.537764	1.471594	-0.164093	-0.018697	0.015556	0.010018	-0.397217	-0.234619	0.652588	97.740308	-81.063819	119.732224
44561		9.531905	1.486358	-0.180027	-0.020315	0.015453	0.010199	-0.393555	-0.221924	0.650391	97.689083	-81.070046	119.776348
44562		9.561754	1.472669	-0.165865	-0.020072	0.016367	0.012153	-0.392822	-0.232910	0.648926	97.632147	-81.078388	119.826340
44563		9.538365	1.468324	-0.158403	-0.021322	0.021506	0.015897	-0.400391	-0.229980	0.645752	97.561025	-81.088295	119.890019
44564		9.593121	1.475756	-0.133405	-0.024766	0.014088	0.013572	-0.402344	-0.234619	0.650635	97.508747	-81.097205	119.931512
44565		9.609727	1.474735	-0.170747	-0.029459	0.011810	0.014991	-0.396973	-0.229492	0.648682	97.467460	-81.105856	119.960270
44566		9.585085	1.451946	-0.180000	-0.032821	0.007278	0.013739	-0.401367	-0.228027	0.647949	97.434955	-81.114367	119.977013
44567		9.596895	1.485301	-0.219636	-0.031491	0.005024	0.011067	-0.398926	-0.229980	0.652100	97.415200	-81.120281	119.982798
44568		9.595850	1.465723	-0.234826	-0.027694	0.002196	0.014421	-0.399658	-0.229980	0.644775	97.404640	-81.128877	119.981843
44569		9.557274	1.479522	-0.174173	-0.032716	-0.003878	0.012808	-0.402832	-0.238037	0.650635	97.417407	-81.135122	119.954001
44570		9.571349	1.441879	-0.244994	-0.037571	-0.004185	0.013346	-0.393799	-0.230225	0.643066	97.422924	-81.142541	119.929039
44571		9.556375	1.458896	-0.189769	-0.044652	-0.003003	0.009813	-0.400146	-0.233398	0.644775	97.424286	-81.147148	119.905820
44572		9.540163	1.457443	-0.150365	-0.053919	-0.003235	0.014262	-0.396973	-0.238037	0.646729	97.418014	-81.155156	119.884210
44573		9.556702	1.456852	-0.188990	-0.056275	-0.006071	0.008574	-0.393555	-0.231689	0.655273	97.423362	-81.158833	119.850218
44574		9.540437	1.455714	-0.149733	-0.048147	-0.004122	0.008216	-0.402832	-0.235107	0.648682	97.422466	-81.163228	119.824626
44575		9.567646	1.405563	-0.169341	-0.044999	-0.006802	0.006777	-0.402588	-0.232910	0.645020	97.436122	-81.165828	119.788764
44576		9.545369	1.420241	-0.148183	-0.044684	-0.010750	0.008529	-0.397949	-0.242920	0.650635	97.459053	-81.170068	119.742926
44577		9.573811	1.388504	-0.152654	-0.035146	-0.015903	0.005289	-0.395508	-0.240967	0.651367	97.510966	-81.171138	119.674063
44578		9.573856	1.388074	-0.153708	-0.030292	-0.015598	0.004750	-0.396973	-0.236816	0.648438	97.559897	-81.172589	119.605696
44579		9.544298	1.400288	-0.166621	-0.033275	-0.007158	0.008355	-0.397705	-0.239990	0.648438	97.582421	-81.176045	119.567659
44580		9.575300	1.405162	-0.138495	-0.031861	-0.006523	0.006760	-0.401367	-0.227783	0.653809	97.597841	-81.179424	119.534443
44581		9.610653	1.442247	-0.184395	-0.028538	-0.003438	0.007483	-0.397705	-0.232422	0.650391	97.609079	-81.182664	119.510575
44582		9.628371	1.460558	-0.207109	-0.028901	-0.000931	0.005194	-0.403564	-0.231201	0.643799	97.605690	-81.185776	119.502155
44583		9.625032	1.512509	-0.191779	-0.038606	0.006193	0.007566	-0.396973	-0.231445	0.655518	97.575932	-81.189792	119.513935
44584		9.601516	1.508865	-0.185478	-0.053357	-0.000490	0.007015	-0.407471	-0.225098	0.646240	97.557125	-81.193962	119.506773
44585		9.541093	1.515577	-0.225351	-0.059683	-0.002875	0.008606	-0.396973	-0.237305	0.650391	97.549022	-81.197886	119.484419
44586		9.556297	1.497119	-0.279797	-0.056205	-0.001768	0.010204	-0.393066	-0.239258	0.644775	97.534216	-81.203806	119.472160
44587		9.543532	1.443131	-0.254585	-0.049557	0.004399	0.011659	-0.397217	-0.229004	0.648193	97.506697	-81.210011	119.475325
44588		9.566038	1.427006	-0.274923	-0.038422	0.005649	0.008987	-0.391113	-0.236084	0.654053	97.475492	-81.215639	119.488003
44589		9.582819	1.360538	-0.237392	-0.030973	0.006328	0.003301	-0.399414	-0.234863	0.655273	97.447458	-81.217239	119.502463
44590		9.590151	1.362676	-0.202708	-0.027734	0.006532	0.002942	-0.407227	-0.238037	0.644287	97.417646	-81.219448	119.518951
44591		9.596141	1.346845	-0.184454	-0.013728	0.002767	-0.003679	-0.400635	-0.235352	0.654053	97.409238	-81.216817	119.523550
44592		9.598661	1.383802	-0.151748	-0.004005	0.003381	-0.004755	-0.401611	-0.239502	0.658936	97.397901	-81.214545	119.536024
44593		9.515718	1.407038	-0.170351	0.007223	0.007514	-0.006335	-0.399414	-0.240234	0.649902	97.382792	-81.210754	119.559550
44594		9.541850	1.447161	-0.142456	0.005573	0.013706	-0.005392	-0.395020	-0.233643	0.644043	97.340287	-81.208746	119.606878
44595		9.520666	1.481444	-0.103795	-0.001687	0.009147	-0.011097	-0.402832	-0.238037	0.645020	97.311873	-81.202364	119.638703
44596		9.533521	1.535201	-0.127079	-0.008695	0.008831	-0.002040	-0.401855	-0.234863	0.643311	97.279602	-81.201977	119.669751
44597		9.532225	1.517122	-0.142593	-0.005222	0.002205	-0.001747	-0.398682	-0.233154	0.646484	97.279086	-81.200402	119.671296
44598		9.548592	1.517928	-0.181184	-0.011662	0.003234	-0.000487	-0.401855	-0.232422	0.656982	97.266319	-81.200531	119.681900
44599		9.603130	1.526350	-0.157600	-0.009796	0.004239	0.001293	-0.398193	-0.234375	0.644043	97.257138	-81.200831	119.689561
44600		9.588933	1.454877	-0.149075	-0.008219	0.002902	0.000569	-0.403320	-0.237549	0.645752	97.249151	-81.201517	119.697231
44601		9.588952	1.454773	-0.148890	-0.003040	-0.000742	0.001772	-0.401123	-0.232422	0.648926	97.262355	-81.201729	119.686158
44602		9.614765	1.387013	-0.185260	0.005021	-0.001668	0.000333	-0.401611	-0.238281	0.644775	97.277525	-81.201955	119.677740
44603		9.599629	1.404718	-0.130565	0.011172	-0.005039	-0.003431	-0.393555	-0.236816	0.644775	97.312201	-81.198896	119.653179
44604		9.580378	1.434368	-0.199584	0.011387	0.002158	-0.000708	-0.404541	-0.236816	0.642090	97.316918	-81.198703	119.657279
44605		9.545050	1.396559	-0.154368	0.018015	-0.007141	-0.001862	-0.396240	-0.228516	0.644775	97.363948	-81.196379	119.624184
44606		9.587583	1.436914	-0.167118	0.023004	-0.002515	-0.000766	-0.397949	-0.236572	0.652588	97.391878	-81.195935	119.614205
44607		9.563931	1.433922	-0.162394	0.026244	-0.002311	-0.001124	-0.395264	-0.241211	0.647949	97.426227	-81.194380	119.598714
44608		9.550683	1.447397	-0.214152	0.024867	-0.001510	0.001014	-0.395264	-0.237549	0.646484	97.453946	-81.194827	119.586095
44609		9.560505	1.486194	-0.148674	0.028149	0.000134	0.001200	-0.406494	-0.230469	0.646484	97.481526	-81.194773	119.578557
44610		9.534297	1.446691	-0.176124	0.024173	-0.002783	-0.004318	-0.395752	-0.230957	0.653320	97.509644	-81.192239	119.568025
44611		9.556602	1.431710	-0.198308	0.027772	-0.005090	-0.002390	-0.397217	-0.238281	0.656494	97.554412	-81.189752	119.542875
44612		9.576768	1.487331	-0.189512	0.022881	0.000898	-0.001094	-0.395996	-0.235352	0.651611	97.572069	-81.189218	119.540778
44613		9.551842	1.466093	-0.200458	0.021101	0.002770	-0.001787	-0.391113	-0.234131	0.643066	97.584491	-81.187664	119.544493
44614		9.559050	1.468850	-0.166925	0.022231	0.001062	-0.005882	-0.404297	-0.233398	0.645508	97.598152	-81.184398	119.545841
44615		9.604985	1.456981	-0.193919	0.017774	-0.000315	-0.002514	-0.398438	-0.238525	0.646484	97.619605	-81.182198	119.538487
44616		9.582583	1.472477	-0.172806	0.021013	-0.000110	-0.002873	-0.398926	-0.233887	0.649170	97.636393	-81.180631	119.536304
44617		9.604914	1.457348	-0.194683	0.026232	-0.002313	-0.001123	-0.397461	-0.236084	0.647705	97.670675	-81.179067	119.520871
44618		9.582555	1.472535	-0.173870	0.028297	-0.001840	0.002071	-0.402832	-0.234131	0.654053	97.701487	-81.180132	119.508539
44619		9.552923	1.485318	-0.186873	0.027763	-0.005094	-0.002387	-0.406250	-0.229248	0.652588	97.746176	-81.177634	119.483462
44620		9.597023	1.477695	-0.108139	0.022701	-0.004866	-0.003264	-0.395264	-0.237793	0.658691	97.781804	-81.175542	119.464966
44621		9.560095	1.488201	-0.154816	0.021326	-0.004062	-0.001127	-0.401855	-0.234619	0.648438	97.819631	-81.173834	119.443101
44622		9.560062	1.488356	-0.155370	0.014487	-0.001963	-0.002699	-0.397705	-0.233643	0.650146	97.841145	-81.172124	119.431017
44623		9.566009	1.472792	-0.138080	0.012709	-0.000091	-0.003393	-0.402100	-0.233154	0.650635	97.858362	-81.169438	119.425013
44624		9.582349	1.473504	-0.176974	0.009641	0.005468	-0.000868	-0.402832	-0.230469	0.657471	97.850206	-81.169415	119.441769
44625		9.611960	1.460864	-0.164186	0.006042	0.007771	-0.002799	-0.397217	-0.237061	0.654053	97.835181	-81.167680	119.464528
44626		9.616352	1.493110	-0.237620	0.006531	0.009586	0.001115	-0.395752	-0.233643	0.648682	97.811984	-81.169074	119.494136
44627		9.616392	1.493055	-0.236322	0.011038	0.020136	-0.000422	-0.406982	-0.235352	0.647217	97.755838	-81.169645	119.561407
44628		9.720172	1.502984	-0.327589	0.001387	0.036438	0.003776	-0.403320	-0.229248	0.640869	97.631348	-81.174617	119.690735
44629		9.748476	1.537847	-0.402407	0.000768	0.059806	0.002859	-0.400391	-0.230469	0.651611	97.425653	-81.179983	119.903389
44630		9.839723	1.494228	-0.464438	-0.005280	0.089273	0.011566	-0.398193	-0.229736	0.651123	97.106972	-81.193128	120.227712
44631		9.949362	1.509911	-0.407615	-0.014944	0.121038	0.018334	-0.404785	-0.232666	0.646240	96.673125	-81.211143	120.662110
44632		10.018752	1.413894	-0.366330	-0.019619	0.143393	0.024152	-0.400635	-0.232178	0.644043	96.150161	-81.234121	121.183640
44633		10.032508	1.331378	-0.224353	-0.020243	0.149783	0.033239	-0.406006	-0.239014	0.645264	95.608281	-81.261143	121.724219
44634		10.009093	1.192057	-0.052324	-0.021355	0.154358	0.038410	-0.400879	-0.236572	0.643066	95.041980	-81.291264	122.286393
44635		9.855513	1.135216	0.033976	-0.010464	0.145453	0.045115	-0.404053	-0.230469	0.645996	94.518569	-81.323278	122.813869
44636		9.703353	1.163284	0.058233	0.003891	0.115954	0.036976	-0.410400	-0.222168	0.647949	94.103862	-81.349418	123.237754
44637		9.549498	1.221756	-0.028565	0.012288	0.089309	0.033990	-0.410400	-0.233398	0.641357	93.795546	-81.371697	123.560778
44638		9.515514	1.313393	-0.125955	0.007911	0.092253	0.038959	-0.408203	-0.237549	0.640381	93.467765	-81.397503	123.902433
44639		9.507893	1.443791	-0.194794	-0.015545	0.116120	0.052668	-0.409424	-0.232666	0.640869	93.042157	-81.430749	124.327906
44640		9.575669	1.480669	-0.197988	-0.042865	0.155352	0.077623	-0.402832	-0.232178	0.640625	92.446397	-81.479471	124.906830
44641		9.777335	1.445578	-0.200129	-0.067506	0.206978	0.100355	-0.409912	-0.225342	0.643066	91.639578	-81.540529	125.687527
44642		9.828773	1.322088	-0.126052	-0.061888	0.241752	0.112876	-0.404785	-0.227051	0.636719	90.686225	-81.608098	126.619145
44643		9.942768	1.137544	-0.022554	-0.031157	0.254155	0.112147	-0.403564	-0.227783	0.635254	89.691206	-81.672240	127.610852
44644		9.958708	0.904908	0.068111	0.004576	0.247971	0.108705	-0.414795	-0.228516	0.622559	88.722707	-81.732650	128.595911
44645		9.937802	0.791446	0.173571	0.033835	0.230867	0.090432	-0.417480	-0.227539	0.638428	87.831334	-81.779911	129.520223
44646		9.796578	0.677513	0.176178	0.061593	0.208813	0.072144	-0.419434	-0.225586	0.640381	87.030941	-81.816016	130.368496
44647		9.660704	0.686854	0.148768	0.069921	0.185624	0.055764	-0.420410	-0.226563	0.631348	86.331462	-81.841237	131.119666
44648		9.458160	0.792301	0.088942	0.041187	0.161187	0.044914	-0.416260	-0.225342	0.632813	85.706569	-81.860735	131.778647
44649		9.280673	0.919644	0.038060	0.009899	0.140722	0.040778	-0.428467	-0.225830	0.624756	85.149567	-81.877107	132.351078
44650		9.174021	1.037310	-0.044112	-0.003276	0.132784	0.039283	-0.417969	-0.226074	0.631836	84.608481	-81.892983	132.899597
44651		9.176764	1.081575	-0.123166	-0.004721	0.142738	0.043224	-0.423340	-0.229248	0.634033	84.029655	-81.909065	133.485564
44652		9.163488	1.036563	-0.209877	0.003963	0.147923	0.034351	-0.423828	-0.223633	0.631104	83.431886	-81.919592	134.093443
44653		9.198135	1.004947	-0.165347	0.017171	0.145297	0.020369	-0.430420	-0.229492	0.627197	82.862765	-81.920806	134.682250
44654		9.177105	0.930255	-0.178886	0.008923	0.131959	0.003102	-0.419922	-0.229736	0.633057	82.345062	-81.913101	135.213145
44655		9.139579	0.894060	-0.123689	-0.010203	0.104949	-0.026345	-0.425781	-0.222900	0.628662	81.948212	-81.889514	135.612131
44656		9.151464	0.895748	-0.187299	-0.022780	0.079744	-0.055843	-0.427490	-0.221924	0.631348	81.659187	-81.851609	135.892905
44657		9.252074	0.889791	-0.320437	-0.023820	0.054055	-0.070397	-0.425781	-0.230957	0.643799	81.486391	-81.806767	136.057727
44658		9.383144	0.908525	-0.409901	-0.017568	0.032346	-0.077686	-0.421631	-0.229248	0.635254	81.404678	-81.760343	136.132352
44659		9.572744	0.919914	-0.458146	-0.008951	0.011468	-0.078358	-0.430420	-0.225830	0.625732	81.413957	-81.714569	136.121837
44660		9.591606	0.964113	-0.463850	-0.012550	-0.007989	-0.070573	-0.420898	-0.231445	0.630127	81.487506	-81.675605	136.042636
44661		9.594503	1.062474	-0.384704	-0.031651	-0.028500	-0.069675	-0.425293	-0.229248	0.628418	81.632336	-81.638110	135.881973
44662		9.572629	1.139941	-0.318764	-0.069585	-0.043988	-0.074621	-0.423340	-0.227539	0.624756	81.812569	-81.599740	135.660590
44663		9.458020	1.279619	-0.172162	-0.123892	-0.067637	-0.080836	-0.426025	-0.229492	0.630859	82.057441	-81.558907	135.345336
44664		9.414425	1.403939	-0.195847	-0.179330	-0.090975	-0.096651	-0.420654	-0.232422	0.635010	82.360580	-81.511486	134.938329
44665		9.408053	1.454335	-0.064157	-0.224596	-0.116806	-0.109631	-0.417725	-0.230957	0.626709	82.742130	-81.457451	134.426454
44666		9.382473	1.462193	-0.068456	-0.262712	-0.142993	-0.116988	-0.425293	-0.235840	0.628418	83.195479	-81.401307	133.818316
44667		9.420994	1.446484	-0.014116	-0.287290	-0.165727	-0.119642	-0.418457	-0.226563	0.630859	83.716594	-81.343578	133.128796
44668		9.428400	1.389568	-0.023694	-0.307274	-0.179932	-0.122835	-0.414551	-0.237061	0.629395	84.268652	-81.284812	132.398065
44669		9.444177	1.389236	0.048504	-0.308113	-0.190393	-0.130109	-0.421631	-0.243652	0.642578	84.856117	-81.220465	131.629122
44670		9.454695	1.405609	0.102639	-0.316479	-0.192267	-0.143058	-0.415771	-0.248047	0.632813	85.437212	-81.148461	130.860626
44671		9.468477	1.352926	0.124371	-0.316977	-0.195916	-0.159295	-0.410400	-0.239502	0.623535	86.026518	-81.065300	130.084376
44672		9.495733	1.355452	0.122776	-0.307891	-0.196911	-0.177314	-0.417236	-0.250244	0.632080	86.612684	-80.971495	129.316391
44673		9.528885	1.394531	0.047870	-0.288172	-0.194890	-0.202073	-0.407715	-0.254639	0.635742	87.195958	-80.861389	128.562556
44674		9.495130	1.391745	-0.011577	-0.267866	-0.170481	-0.216410	-0.411621	-0.252197	0.629639	87.688396	-80.742168	127.910651
44675		9.493407	1.499882	-0.079136	-0.241491	-0.136746	-0.232756	-0.409668	-0.258789	0.634521	88.068621	-80.611255	127.389176
44676		9.379829	1.559512	0.021504	-0.178408	-0.077176	-0.240091	-0.408203	-0.258545	0.634766	88.266672	-80.475512	127.088620
44677		9.194382	1.589952	0.126629	-0.112071	0.032120	-0.234554	-0.407715	-0.257324	0.631836	88.129991	-80.340058	127.166175
44678		8.861747	1.699340	0.196534	-0.069516	0.162548	-0.200927	-0.406250	-0.258789	0.628418	87.580800	-80.221892	127.687654
44679		8.627418	1.781680	0.118732	-0.060187	0.304149	-0.123777	-0.398438	-0.266602	0.630859	86.572798	-80.141649	128.679703
44680		8.384524	1.838355	0.247804	-0.032351	0.458786	-0.023824	-0.406494	-0.268311	0.627197	85.063609	-80.109136	130.195396
44681		8.357682	1.625258	0.656212	0.040126	0.619018	0.082832	-0.409912	-0.263184	0.625488	83.045441	-80.119143	132.271375
44682		8.402239	1.348093	1.167621	0.158270	0.707306	0.166862	-0.411865	-0.270264	0.622559	80.760179	-80.156990	134.684215
44683		8.783689	1.203948	1.321307	0.344595	0.679392	0.205093	-0.422607	-0.257080	0.618408	78.635017	-80.202637	137.045405
44684		9.761534	1.075190	1.167262	0.507221	0.567641	0.181957	-0.421631	-0.250732	0.614502	76.962808	-80.236093	139.037630
44685		11.053935	1.173564	0.516577	0.568884	0.441564	0.105595	-0.430908	-0.252930	0.622070	75.788870	-80.235013	140.563620
44686		12.104957	1.422985	-0.301390	0.603198	0.320402	-0.011442	-0.430908	-0.243408	0.615967	75.123143	-80.183025	141.592893
44687		12.563624	1.578242	-0.879828	0.630620	0.198684	-0.102704	-0.437256	-0.242188	0.623291	74.950841	-80.096528	142.138576
44688		12.406952	1.712403	-1.117881	0.584471	0.108298	-0.163891	-0.435791	-0.237305	0.624756	75.090950	-79.990352	142.340753
44689		11.832620	1.924867	-1.082682	0.492139	0.064208	-0.226950	-0.427490	-0.235352	0.619873	75.370812	-79.854980	142.346964
44690		11.039312	2.258398	-0.891768	0.421998	0.018777	-0.284418	-0.440918	-0.236816	0.621826	75.789719	-79.695110	142.171526
44691		10.227074	2.383853	-0.689703	0.401821	-0.051952	-0.330179	-0.426758	-0.240479	0.615723	76.436321	-79.518326	141.752275
44692		9.838771	2.462116	-0.691850	0.400381	-0.114981	-0.381402	-0.415527	-0.234375	0.626709	77.283396	-79.320920	141.126640
44693		9.607135	2.469766	-0.870683	0.366600	-0.118816	-0.433306	-0.437012	-0.228027	0.616943	78.130582	-79.092522	140.482102
44694		9.497202	2.556833	-0.982699	0.306886	-0.055378	-0.467404	-0.426270	-0.232178	0.628662	78.750859	-78.837062	140.034855
44695		9.408982	2.704742	-1.043185	0.225016	0.019456	-0.473680	-0.421387	-0.240479	0.622559	79.096623	-78.568234	139.817813
44696		9.282684	2.850977	-1.020244	0.139892	0.073375	-0.459456	-0.426514	-0.238037	0.629150	79.227193	-78.302167	139.769516
44697		9.265031	2.938876	-0.843899	0.074463	0.102420	-0.441740	-0.423096	-0.238770	0.628662	79.230731	-78.042211	139.813580
44698		9.250427	2.880696	-0.491028	0.015007	0.127278	-0.416394	-0.424316	-0.238525	0.621582	79.124513	-77.794584	139.934716
44699		9.328385	2.783124	-0.388107	-0.021812	0.167435	-0.384745	-0.422607	-0.247070	0.626465	78.883447	-77.559545	140.172772
44700		9.099689	2.709196	-0.293504	-0.047227	0.199523	-0.342578	-0.420410	-0.245605	0.624512	78.535415	-77.344996	140.505034
44701		8.973749	2.536279	-0.305950	-0.072700	0.216721	-0.309071	-0.427246	-0.244629	0.624512	78.124622	-77.146125	140.887615
44702		8.760458	2.487909	-0.248720	-0.092496	0.227984	-0.271803	-0.420898	-0.238770	0.617920	77.668585	-76.966838	141.305249
44703		8.498117	2.457149	0.005987	-0.113793	0.246695	-0.228405	-0.422852	-0.241699	0.613281	77.143389	-76.807992	141.781671
44704		8.487545	2.406339	0.072910	-0.139737	0.250997	-0.191373	-0.422607	-0.245605	0.620605	76.585147	-76.669104	142.280968
44705		8.535995	2.415943	0.110412	-0.178766	0.272493	-0.172870	-0.423584	-0.260986	0.614990	75.954280	-76.535548	142.828308
44706		8.727263	2.368705	0.190620	-0.182824	0.282277	-0.155837	-0.419922	-0.246826	0.609863	75.301534	-76.409226	143.394890
44707		8.906863	2.409837	0.316166	-0.186540	0.255324	-0.145701	-0.428711	-0.246582	0.602295	74.711228	-76.290488	143.896487
44708		9.011761	2.457766	0.272731	-0.192982	0.204192	-0.132691	-0.425049	-0.252441	0.617920	74.233382	-76.186470	144.282062
44709		9.115108	2.483031	0.174944	-0.183394	0.148080	-0.111737	-0.432861	-0.253174	0.615723	73.878318	-76.101376	144.543664
44710		9.192400	2.454733	0.168671	-0.163568	0.125187	-0.094378	-0.429688	-0.257813	0.606934	73.579171	-76.029916	144.761237
44711		9.174032	2.463414	0.255007	-0.149254	0.115243	-0.073315	-0.429932	-0.261963	0.603760	73.297233	-75.970616	144.967797
44712		9.102614	2.520232	0.201204	-0.128925	0.089898	-0.053628	-0.432861	-0.262207	0.597168	73.071244	-75.926611	145.128339
44713		9.091495	2.541742	-0.031146	-0.117451	0.109492	-0.037717	-0.427979	-0.262695	0.610107	72.799698	-75.887340	145.343056
44714		8.994056	2.587456	-0.114030	-0.126294	0.152386	-0.009463	-0.434326	-0.266602	0.607422	72.412116	-75.856353	145.671597
44715		9.061600	2.430908	-0.021372	-0.111511	0.150486	-0.010023	-0.433350	-0.260986	0.605713	72.039084	-75.824377	145.994553
44716		8.912232	2.401689	-0.251190	-0.100482	0.085633	-0.000813	-0.431641	-0.264160	0.604736	71.807172	-75.809034	146.178130
44717		8.936707	2.412624	-0.436471	-0.086113	0.082825	0.009834	-0.435547	-0.268311	0.610107	71.582079	-75.799305	146.363549
44718		8.917181	2.533834	-0.381059	-0.085043	0.120539	0.018862	-0.428467	-0.271484	0.601563	71.271199	-75.787869	146.637349
44719		8.757132	2.645176	-0.256111	-0.070259	0.133772	0.030549	-0.429932	-0.265869	0.605469	70.931684	-75.779444	146.950193
44720		8.534016	2.790519	-0.179572	-0.049204	0.146065	0.072456	-0.439453	-0.262695	0.599365	70.547966	-75.791310	147.319700
44721		8.624533	2.836374	-0.178568	-0.012736	0.162080	0.107732	-0.433105	-0.253174	0.601807	70.122201	-75.818043	147.755478
44722		8.857442	2.825208	-0.134527	-0.000023	0.160131	0.102499	-0.433105	-0.258789	0.603516	69.710995	-75.842117	148.184602
44723		8.825421	2.919684	-0.020819	0.015997	0.168250	0.123690	-0.428955	-0.259033	0.594238	69.272651	-75.874601	148.650226
44724		9.018259	2.925888	-0.077052	0.004888	0.183492	0.141876	-0.434326	-0.255127	0.607422	68.779664	-75.913236	149.165480
44725		9.069896	2.925862	-0.294185	-0.036604	0.126297	0.158729	-0.437744	-0.257813	0.606445	68.366422	-75.971360	149.573987
44726		9.142037	2.901532	-0.377294	-0.036091	0.054822	0.174580	-0.442139	-0.263184	0.606201	68.090611	-76.052974	149.841086
44727		9.253258	2.834360	-0.413385	-0.037895	0.017616	0.177210	-0.441650	-0.261475	0.590088	67.886846	-76.143239	150.032757
44728		9.450902	2.799764	-0.514762	-0.080391	-0.015151	0.150719	-0.436768	-0.259033	0.588379	67.751466	-76.226746	150.128284
44729		9.368873	2.883801	-0.670498	-0.122741	-0.038513	0.134269	-0.443359	-0.255615	0.592529	67.654823	-76.306217	150.159497
44730		9.320378	3.084861	-0.769123	-0.120057	-0.044375	0.141653	-0.437500	-0.250977	0.592285	67.566469	-76.391227	150.183499
44731		9.131026	3.174336	-0.757831	-0.124812	-0.018099	0.166709	-0.450928	-0.258301	0.596680	67.392659	-76.483359	150.292850
44732		9.034016	3.108990	-0.636574	-0.115740	0.016635	0.206863	-0.449219	-0.250488	0.599365	67.109667	-76.589268	150.519727
44733		9.178897	2.984767	-0.462505	-0.118994	0.026842	0.235592	-0.443848	-0.246338	0.589111	66.768834	-76.707381	150.804071
44734		9.271001	2.946594	-0.394273	-0.123641	0.014438	0.267376	-0.445313	-0.257324	0.597168	66.418673	-76.844986	151.095260
44735		9.392408	2.937921	-0.470843	-0.136316	0.004493	0.304062	-0.440186	-0.257813	0.598389	66.037945	-77.003339	151.410050
44736		9.393848	2.960508	-0.452852	-0.148331	-0.021726	0.336127	-0.446045	-0.253662	0.594482	65.671434	-77.184441	151.702797
44737		9.305740	3.114961	-0.594993	-0.154722	-0.079332	0.352434	-0.446777	-0.253174	0.596924	65.405606	-77.387040	151.888534
44738		9.323228	3.215771	-0.783786	-0.157223	-0.152022	0.365865	-0.451904	-0.253418	0.592773	65.291446	-77.614162	151.917308
44739		9.296121	3.365756	-0.853554	-0.194632	-0.185746	0.387296	-0.444092	-0.254150	0.594238	65.207432	-77.860218	151.893261
44740		9.558761	3.379224	-0.313388	-0.321488	-0.119463	0.398979	-0.441650	-0.261230	0.587646	64.875658	-78.096584	152.048282
44741		9.722652	3.118428	0.049376	-0.447009	-0.128254	0.393108	-0.444336	-0.249268	0.602539	64.486793	-78.331601	152.187978
44742		10.176516	2.749173	-0.032135	-0.436228	-0.159463	0.351965	-0.442871	-0.249512	0.593018	64.227800	-78.553147	152.201393
44743		10.459517	2.168215	-0.582700	-0.378118	-0.210311	0.292390	-0.449463	-0.251953	0.598877	64.199502	-78.756416	152.013375
44744		10.690696	1.679675	-0.985158	-0.273494	-0.209960	0.230728	-0.444580	-0.255371	0.600586	64.316586	-78.927976	151.738748
44745		10.787570	1.073810	-0.519790	-0.126642	-0.156263	0.173286	-0.444580	-0.251953	0.596436	64.449384	-79.056212	151.533619
44746		10.963814	0.647998	0.229865	0.004435	-0.067700	0.104661	-0.450928	-0.250488	0.601074	64.515671	-79.127308	151.473004
44747		11.341231	0.208771	0.983377	0.125468	0.006641	0.024665	-0.445557	-0.247070	0.599365	64.549117	-79.138427	151.516225
44748		11.916498	-0.317313	1.393038	0.277604	-0.006754	-0.071408	-0.442627	-0.247803	0.596191	64.833290	-79.103447	151.393164
44749		12.391890	-0.612361	1.213809	0.483329	-0.043086	-0.186161	-0.444824	-0.251465	0.602539	65.469061	-79.017015	151.031756
44750		12.225576	-0.542303	0.877453	0.795137	-0.108855	-0.300426	-0.440186	-0.240234	0.603516	66.590121	-78.885458	150.357683
44751		11.135510	0.450292	0.854353	1.100915	-0.287822	-0.366065	-0.436523	-0.233398	0.612549	68.408803	-78.754714	149.150885
44752		9.798675	2.077466	1.051094	1.203628	-0.579823	-0.314838	-0.430420	-0.227783	0.604004	70.991182	-78.701208	147.225061
44753		8.935313	3.532486	1.039832	0.975404	-0.697867	-0.165776	-0.427490	-0.225342	0.623779	73.614888	-78.732084	145.123618
44754		8.375175	4.585767	0.619147	0.612204	-0.529706	0.025168	-0.429932	-0.228516	0.617676	75.436236	-78.827162	143.628544
44755		7.934719	5.253542	0.275940	0.322897	-0.340194	0.225079	-0.417969	-0.226807	0.621094	76.437055	-78.999353	142.801298
44756		7.919922	5.121688	0.256554	0.098114	-0.249594	0.357932	-0.424805	-0.217529	0.629883	76.987666	-79.231652	142.301754
44757		8.470713	4.435602	0.616785	-0.109721	-0.142961	0.374133	-0.427979	-0.220459	0.623535	77.104763	-79.458622	142.122709
44758		8.965068	3.385006	0.962051	-0.284871	-0.067853	0.311844	-0.419678	-0.217041	0.616455	76.945764	-79.641202	142.122860
44759		9.613162	2.320301	1.217647	-0.423612	-0.068696	0.190218	-0.429443	-0.220215	0.619873	76.789032	-79.755986	142.039540
44760		10.211112	1.314810	1.555433	-0.480728	-0.067423	0.037919	-0.426025	-0.219238	0.628662	76.710472	-79.785651	141.843932
44761		10.426787	0.478198	1.994797	-0.491073	-0.075875	-0.108244	-0.422852	-0.228027	0.615479	76.753516	-79.734973	141.518341
44762		10.384777	-0.090824	2.127763	-0.498907	-0.076612	-0.225732	-0.418457	-0.232666	0.625488	76.880075	-79.618750	141.103585
44763		10.133762	-0.395001	2.110486	-0.478059	-0.059431	-0.295319	-0.427490	-0.235107	0.619629	77.004134	-79.461317	140.702964
44764		10.048228	-0.300612	2.093519	-0.444308	-0.047725	-0.322431	-0.420410	-0.234375	0.627441	77.127012	-79.287124	140.323129
44765		10.026958	0.051482	2.125382	-0.430279	0.027605	-0.290273	-0.419434	-0.241943	0.623535	77.005836	-79.121190	140.199591
44766		9.822166	0.486109	2.065189	-0.413104	0.087628	-0.204945	-0.427002	-0.242676	0.612793	76.668992	-78.995274	140.305914
44767		9.718177	0.822124	1.932583	-0.367018	0.109184	-0.114350	-0.418701	-0.254150	0.618896	76.236579	-78.916640	140.536312
44768		9.666637	1.161139	1.830120	-0.299180	0.118425	-0.027439	-0.425049	-0.252197	0.619873	75.762222	-78.884845	140.848968
44769		9.688657	1.452591	1.670390	-0.264317	0.147470	0.037856	-0.417969	-0.249512	0.614014	75.177594	-78.884381	141.294516
44770		10.142908	1.743774	1.558287	-0.259249	0.153353	0.090715	-0.432129	-0.250488	0.610107	74.540907	-78.911538	141.796001
44771		10.229419	2.056824	1.514649	-0.299687	0.110851	0.126022	-0.421143	-0.256348	0.623779	73.967188	-78.963565	142.209703
44772		10.168795	2.233495	1.320161	-0.335413	0.046989	0.149011	-0.427246	-0.251465	0.617432	73.532145	-79.037956	142.461174
44773		10.362019	2.499927	0.894221	-0.388320	0.034405	0.160983	-0.425537	-0.251465	0.614990	73.085479	-79.120433	142.693561
44774		10.002584	2.260471	0.738293	-0.462732	0.025779	0.160153	-0.424561	-0.245361	0.615479	72.618503	-79.203745	142.903415
44775		9.558502	1.890018	0.717609	-0.509319	0.010359	0.122252	-0.424072	-0.259033	0.612549	72.196671	-79.268531	143.039832
44776		9.396385	1.481188	0.709184	-0.578388	0.032453	0.111659	-0.437012	-0.262939	0.607178	71.680229	-79.323596	143.232621
44777		9.065316	1.044785	0.896240	-0.648740	0.046927	0.119625	-0.434326	-0.269043	0.602783	71.067789	-79.379793	143.481653
44778		8.882334	0.612396	0.901534	-0.686935	0.043048	0.159923	-0.439941	-0.266113	0.599365	70.400263	-79.458125	143.764202
44779		8.968217	0.656118	0.881458	-0.711102	0.065397	0.206415	-0.435791	-0.271484	0.603760	69.595636	-79.556309	144.172224
44780		8.713358	0.450836	0.822190	-0.685392	0.097312	0.275391	-0.429688	-0.281006	0.596436	68.623905	-79.683924	144.764901
44781		8.714535	0.368781	0.783383	-0.606705	0.162217	0.323426	-0.439941	-0.272949	0.602539	67.427502	-79.820910	145.631515
44782		8.585389	0.227557	0.834489	-0.489664	0.223155	0.349780	-0.437256	-0.284180	0.596924	66.057687	-79.954715	146.741707
44783		8.612512	0.056730	0.919737	-0.337590	0.274506	0.332380	-0.433594	-0.273926	0.593262	64.613589	-80.062132	148.015703
44784		8.679735	-0.160614	1.088293	-0.213814	0.310232	0.286211	-0.446533	-0.278809	0.589600	63.176802	-80.131474	149.353504
44785		8.720762	-0.376344	1.261047	-0.089760	0.311958	0.222219	-0.447998	-0.272217	0.588135	61.885998	-80.162043	150.615495
44786		8.741591	-0.463238	0.985762	0.006279	0.271290	0.137519	-0.452393	-0.273438	0.595215	60.897521	-80.157216	151.626110
44787		8.981441	-0.337302	0.688213	0.099299	0.239577	0.058831	-0.439209	-0.273193	0.584473	60.183361	-80.119147	152.412792
44788		9.203549	-0.019297	0.449176	0.170567	0.230473	0.010357	-0.447998	-0.273193	0.582275	59.622662	-80.058631	153.084861
44789		9.434540	0.300856	0.278669	0.221220	0.237772	-0.035844	-0.453613	-0.272705	0.581299	59.154555	-79.971702	153.692932
44790		9.536250	0.617290	0.279097	0.258356	0.252860	-0.059140	-0.449707	-0.271240	0.587646	58.714427	-79.868507	154.293666
44791		9.633416	0.761736	0.241040	0.282748	0.243078	-0.068716	-0.451416	-0.267822	0.591309	58.341198	-79.762354	154.841534
44792		9.622829	0.837612	0.262850	0.290281	0.213203	-0.072159	-0.455566	-0.270020	0.597412	58.067732	-79.663582	155.292011
44793		9.654509	0.887760	0.172847	0.280969	0.188981	-0.075115	-0.452881	-0.268555	0.581787	57.863752	-79.569817	155.667121
44794		9.445975	0.908968	-0.137564	0.293919	0.189865	-0.075798	-0.452393	-0.261475	0.581543	57.671873	-79.475819	156.036827
44795		9.229224	0.974226	-0.223403	0.330029	0.166677	-0.071846	-0.452148	-0.260010	0.583740	57.558116	-79.390068	156.348974
44796		9.071032	1.134009	-0.336949	0.318136	0.107709	-0.067523	-0.451660	-0.260986	0.587402	57.585373	-79.325159	156.510286
44797		8.853888	1.233498	-0.641995	0.305772	0.051866	-0.046816	-0.450439	-0.262939	0.585205	57.714809	-79.286757	156.560928
44798		8.750086	1.169109	-0.787248	0.272997	0.044905	-0.022315	-0.446777	-0.252441	0.587402	57.804787	-79.263072	156.631781
44799		8.862481	1.150468	-0.934829	0.219068	0.059561	-0.000469	-0.456299	-0.255127	0.588135	57.790050	-79.244815	156.778615
44800		9.045553	1.085917	-0.930307	0.175870	0.079399	0.034266	-0.447998	-0.252930	0.585449	57.645828	-79.238083	157.031608
44801		8.751246	0.566494	-0.634976	0.199658	0.024582	0.049556	-0.454590	-0.262207	0.583252	57.628694	-79.254688	157.169565
44802		9.158638	0.358128	-0.304395	0.175712	0.048294	0.013111	-0.453613	-0.260498	0.589111	57.597866	-79.247144	157.306421
44803		9.447429	0.432937	-0.014187	0.148990	0.091787	-0.003417	-0.455566	-0.249023	0.583008	57.466572	-79.217425	157.531039
44804		9.098358	0.333177	0.076267	0.191016	0.025636	-0.038689	-0.451904	-0.252686	0.583496	57.586083	-79.191851	157.523826
44805		9.418408	0.400812	-0.111446	0.227836	-0.034664	-0.072756	-0.452393	-0.247314	0.593262	57.931961	-79.167346	157.308667
44806		9.099710	0.344579	-0.173543	0.246983	-0.074767	-0.085608	-0.458984	-0.249512	0.597412	58.411472	-79.149369	156.967677
44807		9.379809	0.427304	-0.243366	0.237338	-0.067445	-0.096792	-0.449951	-0.244385	0.593994	58.880832	-79.122254	156.632295
44808		9.337619	0.430707	-0.174942	0.183292	-0.019536	-0.099688	-0.456055	-0.248535	0.592041	59.201306	-79.080208	156.416079
44809		9.586426	0.650907	-0.101541	0.142237	-0.004330	-0.085429	-0.458740	-0.248779	0.591064	59.434086	-79.039500	156.266072
44810		9.668514	0.810057	-0.045152	0.122813	-0.000686	-0.056041	-0.446289	-0.243652	0.591553	59.602751	-79.013180	156.168871
44811		9.748158	0.862898	0.083220	0.118460	-0.010147	-0.033098	-0.454346	-0.239502	0.586914	59.756741	-78.999859	156.085222
44812		9.864940	0.881992	0.034375	0.118731	-0.023234	-0.016919	-0.450195	-0.245850	0.595459	59.921860	-78.999405	155.989506
44813		9.887785	0.779424	-0.141953	0.152187	-0.031621	-0.016294	-0.448242	-0.246582	0.589844	60.124794	-79.000475	155.875681
44814		9.881811	0.635084	-0.418976	0.229872	-0.034526	-0.015294	-0.446777	-0.243896	0.593262	60.380419	-79.003921	155.752108
44815		9.952049	0.315000	-0.436386	0.331507	-0.027198	-0.036858	-0.452148	-0.235107	0.601318	60.704579	-78.993289	155.619452
44816		9.965128	0.040006	-0.465306	0.448213	-0.027633	-0.057791	-0.447998	-0.235840	0.592773	61.128464	-78.973383	155.452087
44817		10.148111	-0.172551	-0.443029	0.583834	-0.060526	-0.065072	-0.447754	-0.232666	0.598877	61.721585	-78.957300	155.192686
44818		10.515381	-0.205126	-0.065957	0.649567	-0.080152	-0.048463	-0.449219	-0.224854	0.600098	62.381592	-78.955680	154.902153
44819		10.816320	0.069870	0.332520	0.639924	-0.101278	-0.008340	-0.446777	-0.223633	0.595215	63.034957	-78.978081	154.614117
44820		11.067967	0.731692	0.547071	0.627981	-0.146976	0.027502	-0.439453	-0.213379	0.613281	63.759183	-79.031328	154.245643
44821		11.117172	1.606831	0.751810	0.590565	-0.218738	0.055634	-0.447754	-0.210205	0.608154	64.621145	-79.114597	153.716460
44822		11.296059	2.608805	0.692265	0.561942	-0.241869	0.060649	-0.442627	-0.210693	0.614014	65.536783	-79.205965	153.114642
44823		11.396396	3.653430	0.417142	0.499645	-0.230211	0.073396	-0.441162	-0.202148	0.611572	66.378584	-79.298072	152.553272
44824		11.608648	4.501689	0.209989	0.316301	-0.244132	0.144165	-0.434082	-0.201416	0.616211	67.084370	-79.430515	152.022071
44825		11.761158	5.078370	0.194578	-0.038503	-0.250632	0.253786	-0.443115	-0.198486	0.618896	67.486463	-79.620030	151.594801
44826		11.499724	4.915507	0.195121	-0.372678	-0.337626	0.372991	-0.431396	-0.194336	0.614014	67.828409	-79.892381	151.033028
44827		10.952866	4.032449	0.110303	-0.436646	-0.465860	0.468116	-0.435059	-0.203857	0.618652	68.433997	-80.240635	150.168303
44828		10.563444	2.529756	0.647335	-0.208889	-0.536264	0.452472	-0.431641	-0.198730	0.626221	69.477782	-80.593923	148.991254
44829		10.248431	0.742303	1.318958	0.221608	-0.614946	0.359164	-0.421875	-0.195313	0.627197	71.229822	-80.906081	147.348841
44830		10.119195	-0.663867	1.203906	0.472258	-0.655674	0.218951	-0.425781	-0.189697	0.618164	73.544214	-81.140207	145.282568
44831		10.170926	-1.175887	0.568416	0.523830	-0.564337	0.082741	-0.420410	-0.180420	0.633057	75.791753	-81.271199	143.316053
44832		10.055138	-1.036678	0.511389	0.579201	-0.437467	0.012996	-0.415039	-0.179688	0.634033	77.725411	-81.336658	141.698348
44833		9.852494	-0.555145	0.936972	0.649405	-0.355725	0.012970	-0.419922	-0.177246	0.634766	79.415325	-81.384002	140.369442
44834		9.586883	0.060255	1.364218	0.769831	-0.247835	0.096844	-0.416504	-0.170898	0.641357	80.738360	-81.463906	139.480073
44835		9.194933	0.622969	1.591410	0.898442	-0.131461	0.216467	-0.411621	-0.164307	0.640381	81.638188	-81.597615	139.094818
44836		8.911021	0.768693	1.747103	0.983968	-0.003977	0.333978	-0.410889	-0.153564	0.644775	82.049329	-81.788114	139.251552
44837		8.737705	0.837246	2.078948	1.019691	0.126722	0.443976	-0.411621	-0.158447	0.641113	81.891062	-82.029451	140.005567
44838		8.710953	1.112584	2.386168	1.050514	0.272473	0.510210	-0.411865	-0.141357	0.642578	81.074535	-82.296236	141.439801
44839		8.780046	1.753235	2.575982	1.027305	0.370120	0.529190	-0.415283	-0.125732	0.640625	79.723599	-82.559487	143.400434
44840		9.067246	2.389158	2.550739	0.949712	0.388574	0.487815	-0.417236	-0.119385	0.645996	78.168222	-82.791989	145.519670
44841		9.188241	3.059714	2.396297	0.828892	0.370847	0.403009	-0.419189	-0.104004	0.642090	76.593495	-82.970621	147.589269
44842		9.346293	3.605935	2.072271	0.682159	0.310101	0.266385	-0.418213	-0.109375	0.638672	75.289802	-83.076359	149.298991
44843		9.070369	3.804434	1.971699	0.547673	0.206313	0.108624	-0.417969	-0.101807	0.634766	74.543090	-83.105445	150.371288
44844		9.081011	3.647008	1.816726	0.412698	0.057937	-0.066102	-0.429932	-0.100586	0.634033	74.615218	-83.060829	150.539545
44845		9.413225	3.442151	1.338528	0.225931	-0.039193	-0.263147	-0.419434	-0.104980	0.642090	75.254696	-82.920827	150.029710
44846		9.563911	3.058059	1.063116	0.096166	-0.101880	-0.410851	-0.418213	-0.104004	0.643066	76.234132	-82.707603	149.100961
44847		9.836771	2.641227	0.760262	0.016667	-0.130516	-0.528180	-0.413818	-0.099121	0.640625	77.346276	-82.429770	147.993068
44848		9.929156	2.253104	0.567934	0.025199	-0.135874	-0.588395	-0.422852	-0.097900	0.629883	78.457573	-82.116854	146.889197
44849		9.920717	1.908615	0.365791	0.062079	-0.110833	-0.595279	-0.424805	-0.103271	0.641846	79.410647	-81.793963	145.966621
44850		9.977796	1.741219	0.034080	0.127195	-0.067725	-0.570403	-0.412354	-0.100586	0.644531	80.151922	-81.479540	145.294144
44851		10.128865	1.623213	-0.157971	0.224369	-0.021592	-0.510869	-0.424072	-0.104004	0.639648	80.692763	-81.192596	144.881150
44852		10.090366	1.491151	-0.157807	0.325516	0.013574	-0.445640	-0.418457	-0.114258	0.639893	81.101097	-80.939540	144.659731
44853		9.954969	1.525896	-0.194233	0.388758	0.041839	-0.375817	-0.417480	-0.106689	0.638916	81.392168	-80.722679	144.594572
44854		9.767936	1.601790	-0.213970	0.431359	0.069327	-0.320378	-0.414307	-0.102783	0.647217	81.579297	-80.535539	144.658547
44855		9.471146	1.782291	-0.223358	0.438756	0.085728	-0.284180	-0.415771	-0.097412	0.642822	81.694335	-80.366900	144.800873
44856		8.977360	1.990706	-0.196552	0.413754	0.071790	-0.261955	-0.421143	-0.101318	0.641846	81.832258	-80.212736	144.904618
44857		8.792747	2.394453	-0.115391	0.346028	0.089248	-0.242247	-0.415283	-0.103027	0.629150	81.864012	-80.067683	145.077683
44858		8.453203	2.805958	-0.050887	0.276815	0.113875	-0.236307	-0.405762	-0.093506	0.638184	81.778603	-79.924621	145.328685
44859		8.376529	3.096893	0.025035	0.246531	0.164182	-0.215491	-0.418701	-0.099365	0.644287	81.511214	-79.788392	145.747882
44860		8.132839	3.216528	0.185335	0.185621	0.241518	-0.187144	-0.421631	-0.088135	0.639893	80.965975	-79.661523	146.413429
44861		8.171947	3.273320	0.364157	0.121082	0.269360	-0.164960	-0.418945	-0.092773	0.638428	80.300472	-79.542768	147.164645
44862		8.355053	3.220393	0.267444	0.049526	0.248605	-0.169020	-0.423340	-0.101807	0.636719	79.676537	-79.422774	147.831569
44863		8.444084	3.027700	0.253282	-0.041149	0.231472	-0.171908	-0.420654	-0.094727	0.628662	79.066738	-79.301155	148.432116
44864		8.615262	2.905920	0.178929	-0.159851	0.214192	-0.167549	-0.419678	-0.093018	0.632813	78.452547	-79.183172	148.967652
44865		8.538385	2.691664	0.192661	-0.277796	0.181884	-0.161343	-0.422852	-0.107178	0.628662	77.872010	-79.070994	149.400802
44866		8.493669	2.492315	0.090761	-0.372241	0.151086	-0.141003	-0.426514	-0.097412	0.631104	77.324672	-78.973573	149.744763
44867		8.431562	2.365403	0.096748	-0.468230	0.111227	-0.123293	-0.426025	-0.098877	0.627930	76.830433	-78.890172	149.979089
44868		8.310229	2.426738	0.207983	-0.562843	0.089563	-0.097281	-0.428223	-0.109375	0.623291	76.332533	-78.824111	150.161615
44869		8.124142	2.508973	0.408836	-0.603972	0.036393	-0.059947	-0.427490	-0.110352	0.631836	75.936543	-78.785493	150.216604
44870		8.213428	2.462885	0.850835	-0.657743	-0.018222	-0.020466	-0.424805	-0.110596	0.629395	75.637574	-78.776732	150.141004
44871		8.006330	2.517185	0.502375	-0.695333	-0.080131	0.018395	-0.428711	-0.120850	0.628662	75.460946	-78.798133	149.919001
44872		7.979989	2.391035	-0.348451	-0.652629	-0.160022	0.049147	-0.422607	-0.132080	0.618896	75.512915	-78.848373	149.488742
44873		7.863773	2.435983	-1.316750	-0.621246	-0.235944	0.080306	-0.425293	-0.122070	0.620850	75.776462	-78.926203	148.861489
44874		8.068750	2.434741	-1.978584	-0.687358	-0.238427	0.103130	-0.428467	-0.122559	0.626709	76.001333	-79.016773	148.235095
44875		7.956180	2.599651	-2.080434	-0.810557	-0.191199	0.163270	-0.421631	-0.125244	0.623535	75.981211	-79.133785	147.786679
44876		8.336118	2.699101	-1.941225	-0.869128	-0.182046	0.210195	-0.425781	-0.140381	0.616455	75.873936	-79.275895	147.392972
44877		8.838298	2.574500	-1.343199	-0.849379	-0.212006	0.214438	-0.415771	-0.141357	0.619873	75.865308	-79.424428	146.910637
44878		9.390756	2.558123	-0.988678	-0.821794	-0.272932	0.167047	-0.413330	-0.135986	0.620605	76.101790	-79.555059	146.195342
44879		9.916595	2.642969	-0.897506	-0.786480	-0.263464	0.147310	-0.417236	-0.140137	0.613770	76.352761	-79.672697	145.486134
44880		10.329621	2.541390	-0.730988	-0.682399	-0.183382	0.129022	-0.416992	-0.152588	0.632568	76.444123	-79.769101	145.000091
44881		10.424288	2.232036	-0.552264	-0.542859	-0.197616	0.129952	-0.411621	-0.146729	0.628662	76.661269	-79.867563	144.467526
44882		10.326880	2.009118	-0.417984	-0.445772	-0.194089	0.149278	-0.415771	-0.156494	0.613525	76.920623	-79.976049	143.948906
44883		10.247970	1.978114	-0.486699	-0.379673	-0.191322	0.148592	-0.410400	-0.152100	0.618408	77.214035	-80.083264	143.434188
44884		9.971539	2.110857	-0.562611	-0.333054	-0.153865	0.144244	-0.407471	-0.154053	0.612549	77.429469	-80.183025	143.026049
44885		9.996809	2.260631	-0.766228	-0.287218	-0.132134	0.124629	-0.406738	-0.157715	0.627686	77.616176	-80.268795	142.673667
44886		10.313547	2.540935	-0.581890	-0.254412	-0.068588	0.087135	-0.406006	-0.159424	0.617920	77.648898	-80.325730	142.496838
44887		10.899610	2.711064	0.127172	-0.264963	0.010427	0.061262	-0.415771	-0.163574	0.608887	77.430121	-80.358407	142.568826
44888		11.371009	2.590316	0.500225	-0.286414	-0.004364	0.054768	-0.419189	-0.164063	0.609131	77.256682	-80.389299	142.582603
44889		11.712548	2.275687	0.183187	-0.208609	-0.118975	0.041160	-0.408936	-0.150879	0.602295	77.512198	-80.426897	142.206306
44890		12.057045	1.936651	-0.308162	-0.047734	-0.243782	0.005526	-0.403564	-0.156006	0.608643	78.309037	-80.458927	141.374859
44891		12.165018	1.759218	-0.586356	0.112911	-0.306151	-0.009126	-0.404053	-0.169922	0.613037	79.417172	-80.487340	140.320886
44892		12.193427	1.741070	-0.454415	0.220190	-0.312926	0.001802	-0.398438	-0.153564	0.606445	80.614947	-80.519058	139.238708
44893		12.135686	1.819476	-0.024063	0.269073	-0.339736	0.026073	-0.405518	-0.152344	0.617188	81.922179	-80.562981	138.073810
44894		12.151301	1.776009	0.283564	0.290472	-0.323227	0.036279	-0.406006	-0.166992	0.618408	83.197089	-80.607113	136.954500
44895		11.917191	1.737186	0.440199	0.329354	-0.293010	0.046223	-0.398682	-0.152100	0.616211	84.391617	-80.651139	135.939134
44896		11.479282	1.882448	0.835890	0.359948	-0.396925	0.060937	-0.387695	-0.149658	0.616211	85.977715	-80.704477	134.545092
44897		10.857911	2.117976	1.350926	0.311468	-0.476407	0.091656	-0.389160	-0.153809	0.623291	87.821915	-80.771165	132.861406
44898		10.086873	2.443701	1.760325	0.099446	-0.512075	0.114382	-0.391357	-0.148193	0.622070	89.699449	-80.842356	131.021459
44899		9.390348	2.867823	1.431897	-0.130602	-0.538427	0.110438	-0.381592	-0.151367	0.616455	91.560559	-80.901643	129.064748
44900		8.898513	3.148897	0.936603	-0.246204	-0.489017	0.086268	-0.388428	-0.148193	0.624512	93.200279	-80.938535	127.265728
44901		8.648034	2.926472	0.873260	-0.335510	-0.371155	0.051126	-0.380127	-0.152588	0.618408	94.363262	-80.953071	125.897469
44902		8.487222	2.345876	1.181267	-0.487866	-0.221525	0.001199	-0.384766	-0.155029	0.617188	94.893805	-80.942504	125.081649
44903		8.517468	1.772743	1.710286	-0.658523	-0.067854	-0.073955	-0.377441	-0.157227	0.625244	94.747985	-80.896324	124.851279
44904		8.646714	1.432803	2.152295	-0.804389	0.057920	-0.173434	-0.373291	-0.164795	0.613037	94.049467	-80.798756	125.096493
44905		8.777950	1.105577	2.510133	-0.904825	0.153600	-0.276328	-0.372803	-0.171387	0.615723	92.945508	-80.645432	125.693844
44906		9.112259	0.798828	2.653486	-0.932225	0.212533	-0.349406	-0.380371	-0.177002	0.608887	91.646594	-80.449306	126.473668
44907		9.180661	0.344932	2.609053	-0.894103	0.220760	-0.382402	-0.379150	-0.185059	0.612305	90.379700	-80.231863	127.243189
44908		9.482113	0.170596	2.391650	-0.832647	0.189074	-0.385919	-0.378174	-0.191162	0.616211	89.297414	-80.009584	127.861969
44909		9.185820	0.085545	2.378059	-0.787202	0.115577	-0.321392	-0.375977	-0.199219	0.604736	88.504916	-79.823639	128.212856
44910		9.331018	0.232832	1.948141	-0.737251	0.019273	-0.245098	-0.385742	-0.209229	0.599365	88.057156	-79.682189	128.242980
44911		9.045512	0.346548	1.591633	-0.694316	-0.066317	-0.172154	-0.379883	-0.208496	0.601807	87.896805	-79.584410	128.005646
44912		9.439495	0.866338	1.180485	-0.639385	-0.146305	-0.083722	-0.376709	-0.220215	0.600586	88.006327	-79.538781	127.526058
44913		9.519536	1.106772	0.463965	-0.544688	-0.197646	0.011215	-0.378906	-0.221191	0.601318	88.317198	-79.548289	126.896655
44914		9.511217	1.241969	-0.004135	-0.477421	-0.139790	0.107785	-0.371826	-0.225342	0.598145	88.481251	-79.611593	126.455954
44915		9.736116	1.232120	-0.159277	-0.421305	-0.141256	0.173190	-0.375000	-0.223145	0.604004	88.680766	-79.712241	126.011843
44916		9.816868	1.188012	-0.039882	-0.427196	-0.100984	0.235584	-0.375977	-0.223633	0.599121	88.751835	-79.847832	125.695109
44917		9.746912	1.091022	0.305591	-0.493512	-0.062602	0.268371	-0.372070	-0.225098	0.599854	88.662379	-80.001808	125.502842
44918		9.939532	1.092880	0.271808	-0.552838	-0.006855	0.284328	-0.375488	-0.228760	0.596436	88.355816	-80.164143	125.496644
44919		10.018030	1.079056	0.158146	-0.568291	0.006460	0.278505	-0.372070	-0.229248	0.589844	87.990387	-80.322967	125.541113
44920		9.715009	0.956722	0.063439	-0.564881	0.002704	0.271375	-0.376465	-0.235352	0.586670	87.634723	-80.477706	125.577678
44921		9.430019	0.818436	0.051750	-0.543252	0.014451	0.280356	-0.379395	-0.239258	0.583496	87.242127	-80.637275	125.664189
44922		9.827972	0.879367	-0.173011	-0.578134	0.025114	0.252416	-0.376709	-0.233154	0.591064	86.789569	-80.780428	125.791159
44923		9.600446	0.759820	-0.263269	-0.592739	0.073205	0.236669	-0.385742	-0.245850	0.586182	86.150189	-80.912678	126.098846
44924		9.264193	0.532677	-0.211607	-0.554888	0.114516	0.221641	-0.375977	-0.249023	0.581787	85.374236	-81.034013	126.566604
44925		9.182803	0.365136	-0.224302	-0.536784	0.114005	0.197272	-0.375488	-0.241943	0.583008	84.600945	-81.140424	127.042085
44926		9.142061	0.209102	-0.279732	-0.509885	0.149924	0.171351	-0.381104	-0.250244	0.570557	83.706599	-81.228964	127.655404
44927		9.253853	0.024713	-0.343885	-0.451255	0.225734	0.153010	-0.382324	-0.248047	0.572021	82.556543	-81.300102	128.561422
44928		9.394725	-0.199583	-0.269822	-0.342382	0.288566	0.126420	-0.380371	-0.249268	0.575928	81.234348	-81.348243	129.704302
44929		9.566116	-0.246691	-0.150063	-0.249261	0.350656	0.093195	-0.384521	-0.252686	0.567383	79.742384	-81.367330	131.072993
44930		9.557432	-0.327437	-0.083322	-0.145334	0.385969	0.056839	-0.384277	-0.251709	0.568115	78.202989	-81.356881	132.549528
44931		9.415207	-0.194014	-0.030292	-0.042055	0.407631	0.024662	-0.393311	-0.254883	0.565674	76.674980	-81.319571	134.074840
44932		9.198092	-0.129078	0.119081	0.052267	0.421824	0.015602	-0.391846	-0.257324	0.563232	75.173348	-81.269498	135.627858
44933		8.943566	0.067998	0.315368	0.101936	0.396142	0.001758	-0.393799	-0.269531	0.555908	73.823401	-81.209565	137.056883
44934		8.916902	0.253479	0.190379	0.092146	0.379049	-0.013485	-0.391846	-0.249023	0.560059	72.564971	-81.139541	138.387316
44935		8.817664	0.459502	-0.081089	0.109061	0.375658	-0.026959	-0.397949	-0.256104	0.551270	71.363862	-81.058032	139.670367
44936		8.735437	0.643237	-0.271443	0.146915	0.346832	-0.027189	-0.398926	-0.251221	0.554199	70.306035	-80.978349	140.829977
44937		8.735321	0.674549	-0.399497	0.205591	0.306560	-0.026231	-0.405029	-0.249268	0.552979	69.434441	-80.903659	141.835916
44938		8.919682	0.807357	-0.166916	0.221032	0.286299	-0.028578	-0.403076	-0.250488	0.545654	68.657778	-80.830060	142.754200
44939		8.796153	0.952093	-0.172701	0.227745	0.238016	-0.029230	-0.399658	-0.253174	0.547852	68.056419	-80.764103	143.499646
44940		8.643509	0.961822	-0.555101	0.290232	0.157033	-0.041585	-0.404785	-0.252686	0.543701	67.779537	-80.708613	143.952019
44941		9.123879	1.029227	-0.797332	0.324888	0.193630	-0.063822	-0.403809	-0.246338	0.548828	67.438386	-80.632467	144.490443
44942		8.745059	0.801827	-0.707939	0.380606	0.182646	-0.079150	-0.399414	-0.240967	0.543457	67.192451	-80.550728	144.964089
44943		8.307054	0.404257	-0.499181	0.424511	0.109785	-0.122473	-0.407715	-0.245361	0.551758	67.263436	-80.461614	145.142781
44944		9.242322	0.708230	-0.619878	0.369644	0.162182	-0.159512	-0.405518	-0.248291	0.546387	67.190892	-80.341887	145.434412
44945		9.112478	0.944471	-0.587993	0.394266	0.065651	-0.135662	-0.402588	-0.245850	0.545654	67.401281	-80.255597	145.454207
44946		9.275405	1.102725	-0.690204	0.404753	0.062424	-0.092933	-0.402588	-0.232178	0.545898	67.572916	-80.193262	145.518579
44947		9.392654	1.149804	-0.495002	0.371725	0.040583	-0.042516	-0.405762	-0.238037	0.551758	67.727067	-80.161816	145.582350
44948		9.655611	1.222407	-0.496551	0.267723	-0.041066	0.003767	-0.393311	-0.238037	0.545898	68.014881	-80.173249	145.449108
44949		9.915264	1.258672	-0.563189	0.128907	0.111768	0.040988	-0.404053	-0.235840	0.545410	67.707112	-80.170789	145.840482
44950		9.832522	1.179687	-0.318887	0.066566	0.084242	0.075039	-0.401611	-0.238037	0.538330	67.406190	-80.192709	146.187736
44951		10.002166	1.145015	-0.389542	0.012713	-0.002195	0.099637	-0.399170	-0.231445	0.539063	67.304621	-80.245813	146.302258
44952		10.072199	1.028940	-0.557413	0.003678	-0.006863	0.090129	-0.402588	-0.239990	0.537842	67.225306	-80.295609	146.387986
44953		10.047795	0.924322	-0.869320	0.054479	0.009873	0.052565	-0.396484	-0.244385	0.534912	67.169634	-80.321117	146.480192
44954		10.067654	0.749537	-0.908420	0.160444	0.028082	0.017199	-0.399902	-0.237793	0.534424	67.166294	-80.324653	146.579903
44955		10.197816	0.459608	-0.595119	0.265144	0.065869	-0.021328	-0.402100	-0.231445	0.531494	67.154261	-80.298679	146.750286
44956		10.309312	0.067707	-0.347717	0.368332	0.054027	-0.025924	-0.393555	-0.230713	0.541992	67.246504	-80.273748	146.873804
44957		10.625450	-0.106126	-0.001934	0.415312	0.029243	0.005816	-0.395508	-0.232178	0.536377	67.398749	-80.270296	146.964828
44958		10.947623	-0.053181	0.254378	0.408086	-0.018660	0.071062	-0.395020	-0.233887	0.529541	67.613549	-80.312834	146.986997
44959		11.140985	0.261166	0.172990	0.396627	-0.064577	0.127597	-0.399902	-0.233154	0.529785	67.891461	-80.394430	146.939671
44960		11.111183	0.714041	0.041437	0.445567	-0.116343	0.152926	-0.400635	-0.227783	0.535156	68.334648	-80.501468	146.751898
44961		11.071660	1.263048	0.494802	0.518001	-0.115278	0.153274	-0.401367	-0.226318	0.536133	68.820415	-80.607247	146.564385
44962		11.075803	1.754193	0.626049	0.539973	-0.083651	0.142665	-0.387695	-0.218994	0.531494	69.238676	-80.701618	146.456756
44963		11.242129	2.528610	0.189641	0.417008	-0.064934	0.133505	-0.397461	-0.227783	0.529785	69.538405	-80.786196	146.399210
44964		11.263379	3.435173	-0.287122	0.163915	-0.134086	0.161886	-0.388672	-0.217041	0.530518	69.894931	-80.900685	146.135957
44965		11.108294	4.038780	-0.355890	-0.097158	-0.271467	0.183310	-0.389893	-0.221680	0.535645	70.549689	-81.052016	145.420684
44966		11.148808	4.056963	-0.282274	-0.317512	-0.338709	0.211383	-0.391113	-0.230469	0.534668	71.306624	-81.230637	144.473382
44967		11.010573	3.231514	-0.115939	-0.420601	-0.359341	0.240862	-0.392334	-0.221680	0.534180	72.075908	-81.426169	143.455480
44968		10.819391	1.873843	0.437141	-0.336132	-0.447659	0.236096	-0.388916	-0.225098	0.531494	73.274019	-81.632297	142.052467
44969		10.457146	0.477308	1.291254	-0.054384	-0.586384	0.182481	-0.385986	-0.221924	0.543213	75.285881	-81.823768	139.992020
44970		10.236138	-0.538460	1.375676	0.254931	-0.682520	0.106408	-0.381348	-0.225098	0.534912	78.024183	-81.973854	137.376675
44971		9.870898	-1.086283	0.764904	0.451847	-0.666029	0.037889	-0.383789	-0.228271	0.538086	80.944647	-82.064515	134.693123
44972		9.571269	-1.049602	0.271083	0.528413	-0.542649	-0.012605	-0.373779	-0.215332	0.541016	83.487463	-82.099842	132.434389
44973		9.223323	-0.704142	0.601024	0.578030	-0.373930	-0.013969	-0.370850	-0.211426	0.548340	85.375454	-82.112203	130.866735
44974		8.973710	-0.221181	1.150657	0.645355	-0.241665	0.030268	-0.373535	-0.217041	0.537598	86.753366	-82.139342	129.851735
44975		8.767988	0.297529	1.275687	0.721655	-0.145567	0.103078	-0.364014	-0.208984	0.536621	87.765329	-82.201795	129.251661
44976		8.782106	0.611579	1.391079	0.800286	0.000439	0.191626	-0.369141	-0.209717	0.550781	88.211426	-82.311834	129.266888
44977		8.772788	0.732265	1.687560	0.909072	0.187658	0.293874	-0.373291	-0.209717	0.543945	87.898161	-82.475924	130.112456
44978		8.946528	1.070556	2.178579	0.981992	0.354744	0.386514	-0.365479	-0.203369	0.543701	86.840873	-82.688206	131.748703
44979		9.053742	1.582522	2.409978	0.995909	0.429291	0.426474	-0.375488	-0.188477	0.539063	85.350811	-82.914778	133.829779
44980		9.240536	2.374396	2.231989	0.960793	0.442721	0.413849	-0.373779	-0.187744	0.543945	83.670652	-83.127024	136.079742
44981		9.343718	3.227730	2.122279	0.906280	0.457895	0.400464	-0.375244	-0.183594	0.537354	81.769717	-83.320997	138.520985
44982		9.824370	3.619670	2.069694	0.852731	0.385978	0.268498	-0.375244	-0.180420	0.543701	80.185513	-83.438723	140.610458
44983		9.649081	3.512859	1.865998	0.806317	0.298527	0.133914	-0.380859	-0.171387	0.545166	79.074675	-83.483058	142.197609
44984		9.800006	3.306462	1.496928	0.683554	0.243940	-0.004001	-0.384766	-0.165283	0.545410	78.289734	-83.453769	143.384834
44985		9.753731	2.923300	1.214899	0.522027	0.134245	-0.134728	-0.388428	-0.169922	0.529297	78.089549	-83.362145	143.891471
44986		10.008611	2.745824	0.897238	0.376199	0.063374	-0.256246	-0.383789	-0.170654	0.537109	78.274423	-83.211306	143.925449
44987		9.992903	2.423097	0.832062	0.297453	0.004459	-0.355296	-0.379150	-0.162598	0.541260	78.774326	-83.010968	143.597612
44988		9.771173	2.099262	0.707975	0.288294	-0.070188	-0.440173	-0.375000	-0.172607	0.531982	79.649809	-82.770958	142.885009
44989		9.629819	1.847048	0.489401	0.289245	-0.105616	-0.497802	-0.375488	-0.179199	0.535156	80.668199	-82.499903	142.029291
44990		9.542645	1.753853	0.224987	0.277395	-0.078435	-0.526270	-0.376709	-0.171875	0.539551	81.519839	-82.209087	141.333640
44991		9.415579	1.775133	-0.062067	0.272179	-0.018612	-0.545937	-0.382568	-0.174316	0.529541	82.084350	-81.900599	140.925161
44992		9.308792	1.813887	-0.209631	0.300358	0.016005	-0.541903	-0.375732	-0.178711	0.545166	82.494465	-81.591764	140.687957
44993		9.313823	1.893552	-0.253666	0.329243	0.068609	-0.509347	-0.380127	-0.186768	0.535645	82.686789	-81.296875	140.688283
44994		9.217931	1.859339	-0.224699	0.338286	0.155691	-0.455354	-0.371826	-0.180908	0.540039	82.540354	-81.026720	141.035982
44995		8.961232	1.791008	0.014598	0.359172	0.190703	-0.408711	-0.374512	-0.178955	0.536377	82.275075	-80.779741	141.517105
44996		8.815147	1.755656	0.038303	0.368023	0.180069	-0.366325	-0.377197	-0.173340	0.529541	82.050639	-80.557784	141.961629
44997		8.684302	1.786958	0.048334	0.345336	0.192336	-0.342361	-0.374756	-0.185059	0.529785	81.775628	-80.347665	142.445204
44998		8.472107	1.966479	-0.026212	0.308317	0.193204	-0.304608	-0.376221	-0.186523	0.534424	81.474898	-80.158914	142.932999
44999		8.479252	2.252668	-0.043266	0.268529	0.233710	-0.265081	-0.385742	-0.186279	0.540527	81.016081	-79.988029	143.559047
45000		8.376204	2.472388	-0.015013	0.238350	0.254081	-0.216965	-0.374268	-0.180420	0.529541	80.469221	-79.841948	144.256668
45001		8.435545	2.670903	0.083388	0.203418	0.246924	-0.178883	-0.375732	-0.189697	0.535400	79.920670	-79.716489	144.936561
45002		8.596780	2.877923	0.042657	0.161901	0.233006	-0.145580	-0.374756	-0.182373	0.532715	79.387370	-79.610471	145.576503
45003		8.633987	2.989458	0.086292	0.126526	0.187748	-0.129282	-0.380127	-0.191406	0.524414	78.972885	-79.517176	146.075744
45004		8.883813	3.081753	0.034653	0.066452	0.166136	-0.109593	-0.379150	-0.185791	0.527832	78.585917	-79.437040	146.511707
45005		8.743704	2.978786	0.030286	-0.003024	0.111206	-0.102817	-0.384766	-0.186035	0.521729	78.324652	-79.366242	146.779817
45006		8.621947	2.932260	0.027958	-0.086327	0.051731	-0.109082	-0.383301	-0.191650	0.531982	78.200483	-79.298953	146.859591
45007		8.568159	2.835947	-0.239972	-0.180491	0.022034	-0.114587	-0.377930	-0.203125	0.521240	78.113974	-79.231785	146.846460
45008		8.430683	2.838513	-0.479620	-0.291117	0.002324	-0.118641	-0.378418	-0.199707	0.520752	78.025918	-79.164888	146.770144
45009		8.466972	2.936776	-0.631024	-0.385352	0.004200	-0.107697	-0.385498	-0.200195	0.525879	77.870913	-79.103723	146.707234
45010		8.510890	2.901409	-0.510082	-0.471197	-0.002163	-0.095351	-0.375000	-0.206299	0.526611	77.679250	-79.050437	146.631418
45011		8.506028	2.896445	-0.354292	-0.547014	-0.061155	-0.068773	-0.384033	-0.203857	0.531982	77.596898	-79.019139	146.400135
45012		8.410770	2.755665	-0.274197	-0.629630	-0.104151	-0.018715	-0.378418	-0.204102	0.519287	77.560698	-79.021302	146.073567
45013		8.283185	2.710619	-0.331714	-0.707561	-0.149509	0.013895	-0.377441	-0.215088	0.526611	77.589078	-79.047201	145.635794
45014		7.936750	2.702825	-0.493002	-0.734632	-0.177867	0.065061	-0.381348	-0.223633	0.524414	77.655046	-79.105209	145.144043
45015		7.732310	2.651679	-0.753134	-0.714892	-0.160451	0.120757	-0.374756	-0.226807	0.523438	77.647690	-79.192149	144.738549
45016		7.879498	2.547095	-1.049699	-0.696139	-0.142731	0.165435	-0.371094	-0.230957	0.513428	77.575271	-79.301978	144.410470
45017		8.338945	2.511149	-1.187057	-0.707227	-0.183395	0.158769	-0.371826	-0.234131	0.522461	77.623325	-79.413082	143.953345
45018		8.685732	2.564161	-1.325024	-0.746240	-0.221398	0.168589	-0.366699	-0.233398	0.525146	77.765452	-79.534160	143.378164
45019		9.250231	2.686009	-1.272019	-0.783224	-0.202045	0.177310	-0.368408	-0.242920	0.523438	77.827225	-79.657615	142.863174
45020		9.944952	2.731410	-1.086924	-0.747922	-0.173439	0.146496	-0.366943	-0.239014	0.514648	77.850451	-79.760229	142.408357
45021		10.493224	2.639891	-1.010100	-0.640079	-0.146699	0.102995	-0.373291	-0.241455	0.513428	77.882790	-79.835276	142.006937
45022		10.860730	2.335650	-0.842970	-0.526382	-0.171340	0.075983	-0.373779	-0.251465	0.522949	78.082349	-79.897890	141.502217
45023		10.839405	2.081641	-0.896033	-0.432816	-0.162987	0.054914	-0.368408	-0.254395	0.518799	78.324010	-79.947459	141.008965
45024		10.447440	1.981811	-0.948707	-0.307760	-0.175293	0.075304	-0.367920	-0.241211	0.523682	78.670952	-80.009335	140.481973
45025		10.104620	2.191129	-1.210461	-0.209906	-0.199043	0.079342	-0.371582	-0.253662	0.520996	79.149882	-80.075544	139.877676
45026		9.673843	2.455956	-1.503385	-0.136979	-0.277170	0.089940	-0.370117	-0.252197	0.516602	79.929386	-80.154582	139.011163
45027		9.587426	2.836597	-1.561856	-0.162072	-0.317762	0.103429	-0.371826	-0.257324	0.525146	80.829912	-80.243066	138.007126
45028		9.537288	3.142216	-1.462961	-0.240821	-0.347719	0.126590	-0.359131	-0.250244	0.517578	81.795364	-80.344296	136.892126
45029		9.846232	3.195381	-1.524383	-0.286779	-0.379629	0.119320	-0.356689	-0.260742	0.528564	82.862335	-80.440674	135.647390
45030		10.482317	2.892485	-1.266995	-0.218743	-0.354565	0.077123	-0.355469	-0.250977	0.525391	83.925915	-80.507243	134.446401
45031		11.209107	2.218576	-1.079640	-0.101765	-0.386531	0.012492	-0.356689	-0.254639	0.525635	85.195723	-80.534896	133.103962
45032		11.827376	1.628217	-1.174783	0.086550	-0.439198	-0.051913	-0.355957	-0.266846	0.527100	86.779313	-80.522011	131.553345
45033		12.012751	1.065192	-1.295615	0.345454	-0.436362	-0.083776	-0.356445	-0.256592	0.534912	88.493878	-80.483823	130.019697
45034		12.109637	0.719379	-0.918501	0.531019	-0.339705	-0.080071	-0.350098	-0.263428	0.526367	89.976800	-80.439639	128.829036
45035		11.794722	0.520774	-0.236873	0.599004	-0.261480	-0.060180	-0.355225	-0.259521	0.535156	91.216897	-80.403000	127.923523
45036		11.275642	0.493690	0.529609	0.628049	-0.272500	-0.046546	-0.345947	-0.255615	0.537598	92.509497	-80.370336	126.981921
45037		11.084241	0.789858	1.362192	0.607852	-0.403231	-0.050228	-0.345947	-0.245605	0.537354	94.215167	-80.327396	125.609101
45038		10.946166	1.251995	1.771578	0.544586	-0.447179	-0.088196	-0.345459	-0.249023	0.540039	96.008225	-80.253248	124.110902
45039		10.410318	2.000149	1.513713	0.520002	-0.536973	-0.140970	-0.343262	-0.246338	0.543213	98.026548	-80.134750	122.369080
45040		10.007786	2.757147	1.308028	0.479995	-0.571779	-0.184533	-0.331787	-0.246338	0.550293	100.066956	-79.977715	120.581118
45041		9.339169	3.254880	1.700128	0.221515	-0.558631	-0.188240	-0.329346	-0.238037	0.550537	101.852093	-79.810150	118.900839
45042		8.764460	3.719781	1.827723	-0.201316	-0.541082	-0.162412	-0.330811	-0.244385	0.551514	103.308418	-79.650553	117.308019
45043		8.441213	3.969432	1.523423	-0.550546	-0.444426	-0.141489	-0.328613	-0.253418	0.551758	104.242705	-79.510311	116.041411
45044		8.237469	3.893118	1.358116	-0.728614	-0.276107	-0.142070	-0.330811	-0.244385	0.552002	104.551743	-79.390763	115.307000
45045		8.323724	3.370200	1.419625	-0.824132	-0.115197	-0.182553	-0.327148	-0.260742	0.548096	104.290175	-79.272150	115.096744
45046		8.723602	2.759446	1.797770	-0.912418	0.012831	-0.243920	-0.322510	-0.268799	0.544189	103.565249	-79.136843	115.307254
45047		9.392740	2.219804	1.969620	-0.994722	0.106533	-0.300563	-0.324219	-0.271973	0.548584	102.496350	-78.981979	115.819532
45048		9.948481	1.475585	2.267914	-1.024579	0.159110	-0.330752	-0.336670	-0.279541	0.543457	101.266987	-78.813906	116.478883
45049		10.543166	0.908800	2.392286	-1.050098	0.087578	-0.338585	-0.324707	-0.282715	0.540283	100.246067	-78.631878	116.910476
45050		10.831195	0.318128	2.105516	-1.035239	-0.020962	-0.307615	-0.322510	-0.295654	0.530762	99.572189	-78.454894	116.997589
45051		10.473733	0.015965	1.735468	-1.034821	-0.039896	-0.237492	-0.326172	-0.289063	0.533447	98.991727	-78.316138	116.988969
45052		10.118090	-0.060981	1.543266	-0.984445	-0.100741	-0.170007	-0.329590	-0.303223	0.526367	98.640420	-78.209861	116.776319
45053		10.255759	0.145292	1.185231	-0.916297	-0.005801	-0.082788	-0.323486	-0.311279	0.527832	98.107550	-78.161689	116.788450
45054		9.902765	0.323253	1.011450	-0.765842	-0.048316	0.039145	-0.324463	-0.320557	0.533203	97.824272	-78.179003	116.634069
45055		9.941325	0.570589	0.717503	-0.611492	-0.032378	0.145103	-0.323242	-0.323730	0.523193	97.625118	-78.258145	116.483700
45056		9.686621	0.693659	0.721019	-0.520625	-0.030447	0.244672	-0.329102	-0.318115	0.526855	97.509559	-78.393834	116.301519
45057		9.799517	1.005612	0.592035	-0.508741	-0.067174	0.295847	-0.329102	-0.317871	0.516113	97.523576	-78.556108	115.993815
45058		9.838849	1.323516	0.356259	-0.500573	-0.091831	0.337631	-0.332520	-0.322510	0.527588	97.633318	-78.740001	115.593699
45059		10.018796	1.476107	0.036008	-0.483241	-0.081491	0.361354	-0.332275	-0.319336	0.523682	97.741148	-78.938190	115.205657
45060		10.323587	1.642945	-0.165527	-0.492495	-0.031357	0.364421	-0.332031	-0.331787	0.516846	97.705589	-79.141776	114.958764
45061		10.130048	1.508261	-0.225575	-0.472037	-0.027577	0.349563	-0.327881	-0.337891	0.520020	97.668525	-79.337401	114.725269
45062		9.847201	1.219319	-0.239905	-0.420085	-0.074971	0.327629	-0.327148	-0.335449	0.512695	97.801223	-79.516744	114.349711
45063		9.660604	0.900924	-0.299192	-0.410418	-0.058264	0.298220	-0.327881	-0.329590	0.516602	97.883480	-79.680709	114.031069
45064		9.365334	0.721484	-0.276928	-0.391619	-0.057914	0.268596	-0.335938	-0.329590	0.515869	97.968529	-79.827699	113.720854
45065		9.305874	0.701296	-0.441117	-0.334917	-0.018951	0.276331	-0.327148	-0.331299	0.516357	97.970746	-79.982238	113.527758
45066		9.142925	0.649201	-0.403451	-0.282545	0.019970	0.276330	-0.343750	-0.340820	0.514893	97.879223	-80.139809	113.460489
45067		8.898172	0.546565	-0.310880	-0.264602	0.083043	0.265315	-0.335938	-0.332520	0.516357	97.583406	-80.296095	113.610890
45068		8.862504	0.356332	-0.247936	-0.232588	0.145322	0.257127	-0.336426	-0.335693	0.518066	97.084903	-80.452073	113.985448
45069		8.689839	0.299932	-0.124231	-0.214963	0.214464	0.244080	-0.343994	-0.337158	0.515869	96.339165	-80.604600	114.620684
45070		8.871893	0.149193	0.062349	-0.156824	0.279261	0.228585	-0.347900	-0.332275	0.510010	95.372253	-80.750523	115.513508
45071		9.025923	0.040418	0.156293	-0.099734	0.320402	0.187215	-0.352295	-0.328613	0.503174	94.251161	-80.872127	116.595341
45072		9.045413	-0.018433	0.125059	0.000341	0.321433	0.140257	-0.346436	-0.328369	0.501709	93.145546	-80.963616	117.719135
45073		9.104365	0.018094	0.109523	0.128604	0.318633	0.099839	-0.347900	-0.335205	0.508545	92.096399	-81.028468	118.860029
45074		9.068366	0.103533	0.027128	0.241788	0.294183	0.068584	-0.350342	-0.329834	0.506592	91.183886	-81.072088	119.927888
45075		8.891857	0.185188	-0.013066	0.341759	0.258024	0.050801	-0.357422	-0.326172	0.504395	90.451549	-81.102698	120.871435
45076		8.718187	0.261396	-0.183010	0.424226	0.208250	0.039373	-0.350586	-0.326172	0.504639	89.943732	-81.125266	121.635217
45077		8.746650	0.388585	-0.447173	0.494241	0.189910	0.032224	-0.345215	-0.330078	0.508301	89.540764	-81.142659	122.333714
45078		8.535274	0.427677	-0.459758	0.565458	0.186952	0.013444	-0.357666	-0.324951	0.501465	89.188548	-81.148831	123.021782
45079		8.630994	0.596492	-0.475791	0.615072	0.165015	-0.006024	-0.357666	-0.319824	0.509766	88.946435	-81.143275	123.627527
45080		8.768635	0.790958	-0.519126	0.630678	0.171574	-0.020236	-0.366699	-0.317627	0.502930	88.691124	-81.129359	124.255301
45081		8.873137	0.975137	-0.753031	0.668827	0.145339	-0.050011	-0.356201	-0.313477	0.507324	88.558264	-81.098157	124.781692
45082		8.995097	1.002481	-0.610600	0.682557	0.148824	-0.065330	-0.357910	-0.310303	0.509277	88.424791	-81.058225	125.316287
45083		9.061646	1.010963	-0.511432	0.671072	0.137637	-0.098988	-0.362549	-0.309082	0.513184	88.332067	-80.998748	125.803471
45084		9.221360	1.042018	-0.570389	0.670086	0.134337	-0.127104	-0.361572	-0.304688	0.499512	88.258175	-80.923418	126.270644
45085		9.273338	1.061172	-0.680282	0.680509	0.128352	-0.144335	-0.360352	-0.298828	0.509033	88.217802	-80.837949	126.710484
45086		9.294173	0.868056	-0.854647	0.691390	0.116302	-0.159130	-0.359131	-0.300537	0.506592	88.232701	-80.744526	127.100264
45087		9.453817	0.709634	-0.929773	0.685540	0.108447	-0.173436	-0.350586	-0.300293	0.516602	88.276599	-80.642759	127.457862
45088		9.816545	0.772000	-0.953474	0.642217	0.147908	-0.168674	-0.363525	-0.295654	0.515625	88.163608	-80.543334	127.948890
45089		10.008141	0.844263	-0.943264	0.608247	0.170807	-0.147051	-0.364990	-0.296631	0.516846	87.956205	-80.455270	128.516583
45090		10.156159	1.047753	-0.927206	0.577738	0.193108	-0.111278	-0.358398	-0.289063	0.508301	87.658788	-80.387177	129.157366
45091		10.218742	1.148559	-0.909434	0.558669	0.212067	-0.078319	-0.369141	-0.281982	0.520508	87.287161	-80.336457	129.863051
45092		10.229758	1.309490	-0.849251	0.544098	0.228304	-0.050384	-0.362305	-0.279297	0.516113	86.854181	-80.300839	130.621956
45093		10.134758	1.487197	-0.807500	0.485628	0.226652	-0.022867	-0.369873	-0.283691	0.511230	86.390716	-80.279596	131.378507
45094		9.984071	1.567830	-0.735250	0.405262	0.222736	0.012796	-0.365479	-0.283691	0.519287	85.889328	-80.278257	132.126175
45095		9.900353	1.613907	-0.882923	0.317100	0.217836	0.050511	-0.365479	-0.286865	0.509521	85.342445	-80.297082	132.869399
45096		9.749651	1.485767	-1.131641	0.237735	0.217002	0.078826	-0.369141	-0.274170	0.506592	84.742840	-80.331306	133.619243
45097		9.949121	1.281171	-1.446626	0.187528	0.254433	0.100477	-0.368164	-0.279541	0.508789	83.975129	-80.373806	134.511014
45098		10.082757	0.878666	-1.575291	0.174833	0.289644	0.118691	-0.374756	-0.276855	0.517334	83.068405	-80.422685	135.535578
45099		10.647930	0.464540	-1.361231	0.224333	0.332827	0.092105	-0.373535	-0.285645	0.510254	82.045783	-80.449890	136.707018
45100		11.008570	0.087384	-1.285083	0.324972	0.354343	0.045291	-0.375488	-0.274170	0.505859	81.029510	-80.445818	137.929679
45101		11.287601	-0.098936	-1.081793	0.443459	0.353424	-0.010110	-0.376709	-0.276123	0.508301	80.116634	-80.406558	139.117181
45102		11.296701	-0.069940	-0.820242	0.507971	0.298808	-0.050529	-0.381348	-0.270264	0.496582	79.457881	-80.347983	140.083700
45103		10.962559	0.236405	-0.769556	0.572840	0.183081	-0.093976	-0.386963	-0.263916	0.509521	79.252242	-80.275340	140.629337
45104		10.630233	0.851994	-0.607167	0.587093	0.046171	-0.111986	-0.385742	-0.266602	0.507813	79.519861	-80.207770	140.702162
45105		10.132519	1.530217	-0.500527	0.483067	-0.075549	-0.099054	-0.377197	-0.274658	0.511230	80.112489	-80.159204	140.385681
45106		9.753456	2.060366	-0.726904	0.345698	-0.171709	-0.069787	-0.374756	-0.265869	0.505859	80.921035	-80.136339	139.769092
45107		9.517063	2.474113	-1.092811	0.220150	-0.230606	-0.024603	-0.371826	-0.270996	0.510498	81.822390	-80.141830	138.986313
45108		9.530841	2.856859	-1.159353	0.047181	-0.229056	0.024732	-0.368164	-0.268066	0.515625	82.601997	-80.173948	138.225570
45109		9.640804	3.195072	-0.822505	-0.191732	-0.143676	0.065793	-0.371582	-0.266846	0.510742	82.948907	-80.221271	137.766101
45110		9.634513	3.419708	-0.532922	-0.400110	-0.150771	0.117625	-0.375977	-0.280273	0.514404	83.186457	-80.298811	137.295640
45111		10.005856	3.505735	-0.645862	-0.616034	-0.121772	0.177006	-0.374512	-0.275146	0.517334	83.181874	-80.407356	136.946327
45112		10.293444	3.099240	0.009889	-0.778080	-0.026770	0.217625	-0.371826	-0.274170	0.512207	82.750909	-80.533120	136.934554
45113		10.429224	2.518258	0.364595	-0.720573	-0.107609	0.250035	-0.378418	-0.281250	0.509033	82.609271	-80.682644	136.663706
45114		10.567061	1.801139	0.912336	-0.421992	-0.284298	0.279650	-0.376221	-0.286621	0.506104	83.256727	-80.861780	135.766154
45115		10.429284	0.719134	1.583746	0.014389	-0.485012	0.283248	-0.372314	-0.278076	0.514893	84.908686	-81.051418	134.105808
45116		10.230235	-0.316119	1.756341	0.325953	-0.548968	0.238292	-0.371338	-0.274658	0.507324	87.060668	-81.209654	132.120130
45117		9.774694	-0.772280	1.042510	0.444597	-0.509282	0.141716	-0.373535	-0.270996	0.514160	89.206318	-81.299779	130.211029
45118		9.509774	-0.693070	0.953152	0.523018	-0.427244	0.063704	-0.372559	-0.277344	0.515625	91.125300	-81.335522	128.576147
45119		9.193363	-0.553868	1.300585	0.709373	-0.349292	0.041953	-0.363037	-0.267822	0.512207	92.863008	-81.351953	127.233592
45120		9.123388	-0.203598	1.364863	0.863052	-0.245984	0.072096	-0.363770	-0.271729	0.520508	94.316368	-81.384293	126.266825
45121		9.168021	0.219002	1.299387	0.915138	-0.125761	0.147458	-0.372070	-0.270264	0.526611	95.375896	-81.461703	125.729629
45122		9.271966	0.620383	1.403899	0.967930	-0.007709	0.242487	-0.363525	-0.258057	0.523926	96.067982	-81.599444	125.593618
45123		9.379254	1.048811	1.664581	1.004212	0.078115	0.317515	-0.368896	-0.250488	0.531250	96.486890	-81.784452	125.755787
45124		9.500641	1.489802	1.866119	1.028674	0.136900	0.357914	-0.371826	-0.244141	0.523193	96.709674	-81.997127	126.129068
45125		9.551763	2.023254	1.870391	1.021447	0.203864	0.363847	-0.377930	-0.243164	0.524414	96.645311	-82.217041	126.788932
45126		9.592055	2.543951	2.052575	0.997379	0.276111	0.334242	-0.368896	-0.236328	0.533447	96.224757	-82.425027	127.792917
45127		9.507868	3.056920	2.095319	0.945865	0.303453	0.268130	-0.375732	-0.227051	0.525635	95.584359	-82.595024	128.989467
45128		9.439673	3.440466	2.025143	0.882089	0.276704	0.183897	-0.377197	-0.223633	0.533936	94.954492	-82.714433	130.137218
45129		9.404829	3.709132	1.944510	0.776130	0.228280	0.105378	-0.382813	-0.223633	0.533691	94.426663	-82.784621	131.121612
45130		9.037801	3.735218	1.855194	0.620272	0.167090	0.020162	-0.370117	-0.223633	0.533936	94.047465	-82.803068	131.865286
45131		8.866142	3.741900	1.609618	0.454306	0.089967	-0.060828	-0.377930	-0.212402	0.531982	93.895784	-82.771199	132.284587
45132		8.878701	3.803024	1.446659	0.275813	0.025530	-0.157245	-0.378662	-0.219971	0.527588	93.904456	-82.682062	132.438557
45133		9.057696	3.759242	1.347944	0.123654	-0.032335	-0.279891	-0.382813	-0.211182	0.523193	94.045207	-82.520128	132.372105
45134		8.916482	3.534784	1.072714	0.039485	-0.088321	-0.381611	-0.376953	-0.215332	0.531738	94.338694	-82.298007	132.102414
45135		8.890866	3.220404	0.582825	-0.008629	-0.073172	-0.437678	-0.369629	-0.218018	0.530518	94.509693	-82.044070	131.928857
45136		8.947165	2.708190	0.300797	-0.027282	-0.028656	-0.468475	-0.374268	-0.229004	0.528564	94.472603	-81.774738	131.954238
45137		9.190615	2.348128	0.140349	-0.062877	0.008698	-0.477181	-0.372803	-0.227539	0.523438	94.273022	-81.501831	132.123596
45138		9.655649	2.112699	0.011475	-0.100510	0.037841	-0.475339	-0.369873	-0.227295	0.521240	93.955023	-81.231242	132.390777
45139		9.976193	2.050580	-0.141088	-0.138631	0.053282	-0.450359	-0.373779	-0.230469	0.529541	93.584252	-80.975104	132.689717
45140		10.109729	2.068378	-0.186553	-0.150153	0.068590	-0.402586	-0.381592	-0.240479	0.537842	93.180126	-80.746651	133.015728
45141		10.136468	2.102812	-0.127183	-0.166980	0.079084	-0.360529	-0.373535	-0.230957	0.528809	92.756176	-80.542057	133.352488
45142		9.819264	2.312141	-0.062701	-0.214967	0.077450	-0.297916	-0.374512	-0.235596	0.522217	92.334341	-80.372991	133.659205
45143		9.427841	2.447367	0.098486	-0.241770	0.071144	-0.234243	-0.374268	-0.239990	0.530029	91.939158	-80.239761	133.923644
45144		8.824572	2.505952	0.146420	-0.254613	0.057703	-0.177545	-0.381836	-0.250000	0.519531	91.594031	-80.138575	134.129752
45145		8.672523	2.575823	0.206706	-0.281348	0.049278	-0.143484	-0.366699	-0.242676	0.522461	91.270371	-80.056480	134.298733
45146		8.303017	2.508422	0.078061	-0.316737	0.041892	-0.129076	-0.379395	-0.253906	0.519531	90.954238	-79.982448	134.439432
45147		8.206772	2.425691	-0.073057	-0.357241	0.058269	-0.124264	-0.374512	-0.253662	0.519775	90.566849	-79.911097	134.629051
45148		8.277389	2.287151	-0.309217	-0.402378	0.083558	-0.157981	-0.377197	-0.258789	0.523193	90.075449	-79.820267	134.898076
45149		8.247359	2.254173	-0.474195	-0.454024	0.101123	-0.193471	-0.370117	-0.253662	0.512451	89.507534	-79.708625	135.214901
45150		8.561400	2.281224	-0.628344	-0.499831	0.131798	-0.214053	-0.381348	-0.260742	0.522705	88.827465	-79.584304	135.619192
45151		8.713709	2.353883	-0.670416	-0.550690	0.182594	-0.212930	-0.373779	-0.260742	0.521973	87.975666	-79.458881	136.168635
45152		8.868095	2.450135	-0.532853	-0.591196	0.235523	-0.187890	-0.369385	-0.270020	0.508789	86.951866	-79.344773	136.869733
45153		9.105410	2.466344	-0.407473	-0.604453	0.264979	-0.157312	-0.379639	-0.266846	0.508057	85.844699	-79.244772	137.648123
45154		9.243519	2.421438	-0.326802	-0.615917	0.267738	-0.119629	-0.394287	-0.271484	0.501465	84.729680	-79.163283	138.428170
45155		9.374384	2.286288	-0.374220	-0.639552	0.244767	-0.084530	-0.389648	-0.277344	0.505859	83.672726	-79.100470	139.135375
45156		9.446483	2.051931	-0.737301	-0.678945	0.216615	-0.046398	-0.382324	-0.285400	0.509277	82.671647	-79.058771	139.762963
45157		9.617630	1.972689	-0.977198	-0.730834	0.230848	-0.029735	-0.379395	-0.291016	0.507324	81.599042	-79.023384	140.433055
45158		9.420445	1.708304	-0.877931	-0.735787	0.309599	-0.014729	-0.389404	-0.291260	0.487793	80.293212	-78.986635	141.338086
45159		9.000232	1.559983	-0.817756	-0.690988	0.290966	-0.021107	-0.388184	-0.294922	0.494629	79.078077	-78.944531	142.176823
45160		8.850356	1.654169	-0.704425	-0.668161	0.207056	-0.021019	-0.388672	-0.303955	0.489502	78.124014	-78.908846	142.763130
45161		8.571782	1.836590	-0.520017	-0.708444	0.134213	-0.010988	-0.392578	-0.301025	0.489990	77.352783	-78.886052	143.139500
45162		8.395336	2.136058	-0.360851	-0.766385	0.105272	0.010026	-0.390625	-0.310547	0.487549	76.619109	-78.877678	143.443941
45163		8.379832	2.574499	-0.317209	-0.813428	0.082929	0.014294	-0.389404	-0.311523	0.487305	75.919235	-78.874080	143.686313
45164		8.480391	2.945854	-0.225088	-0.843247	0.045725	0.021026	-0.384766	-0.318359	0.477783	75.303070	-78.878860	143.826164
45165		8.687926	3.151847	-0.271686	-0.872908	-0.010150	0.020467	-0.385742	-0.322021	0.470947	74.826994	-78.891441	143.805721
45166		9.057389	3.050224	-0.409764	-0.857021	-0.077634	0.009179	-0.385254	-0.328369	0.478516	74.559071	-78.907850	143.582724
45167		9.369701	2.874094	-0.510940	-0.843163	-0.138391	-0.002892	-0.393799	-0.326904	0.471680	74.479233	-78.927183	143.175882
45168		9.618043	2.691810	-0.543148	-0.807442	-0.172260	-0.013321	-0.390137	-0.336426	0.483887	74.525240	-78.945760	142.662053
45169		10.140338	2.468964	-0.634209	-0.753659	-0.197483	-0.038736	-0.386963	-0.339844	0.480225	74.693109	-78.954155	142.055121
45170		10.245430	2.459408	-0.791297	-0.661200	-0.233224	-0.032651	-0.387451	-0.344727	0.471436	75.012627	-78.970546	141.348078
45171		10.243790	2.623849	-0.786761	-0.560555	-0.255005	-0.006941	-0.389893	-0.348633	0.472656	75.433501	-79.003715	140.596187
45172		9.976957	2.880593	-0.785724	-0.486575	-0.286182	0.025765	-0.392578	-0.343750	0.468506	75.968026	-79.058015	139.772241
45173		9.522035	3.224888	-0.777152	-0.442797	-0.307646	0.058822	-0.396240	-0.340332	0.468506	76.572554	-79.132317	138.902305
45174		9.218238	3.505065	-0.838824	-0.424825	-0.327182	0.083649	-0.390137	-0.345215	0.466553	77.240104	-79.220892	137.979414
45175		9.239058	3.886841	-0.785874	-0.452515	-0.316158	0.101100	-0.386475	-0.357422	0.463623	77.859310	-79.316206	137.089373
45176		9.455967	4.221306	-0.473391	-0.539227	-0.251855	0.107450	-0.387695	-0.361328	0.465332	78.247167	-79.405628	136.385043
45177		9.789634	4.296423	-0.345119	-0.639215	-0.231973	0.126567	-0.388428	-0.357910	0.470215	78.512916	-79.503107	135.746264
45178		10.227360	3.820121	-0.135256	-0.701654	-0.253236	0.152457	-0.378662	-0.361572	0.469482	78.803220	-79.616493	135.047092
45179		10.676685	2.971949	0.066778	-0.692022	-0.351095	0.162273	-0.385498	-0.362793	0.464844	79.406414	-79.745477	134.035034
45180		11.031089	2.245044	-0.072148	-0.603252	-0.474218	0.165294	-0.381104	-0.359131	0.462891	80.471602	-79.885308	132.606504
45181		11.042481	1.697707	-0.299708	-0.415787	-0.606560	0.160955	-0.384277	-0.370117	0.473389	82.105704	-80.028728	130.709109
45182		10.970531	1.355426	-0.367389	-0.208809	-0.692084	0.154281	-0.385986	-0.372314	0.462158	84.194450	-80.162822	128.472183
45183		10.800506	1.136759	-0.154292	-0.034878	-0.641728	0.144301	-0.372559	-0.366699	0.477295	86.271670	-80.275307	126.348116
45184		10.689929	0.801096	0.139947	0.107662	-0.528814	0.115212	-0.375000	-0.365234	0.479736	88.101342	-80.355041	124.559375
45185		10.672906	0.345869	0.422037	0.308769	-0.460760	0.066820	-0.377930	-0.366455	0.474854	89.842269	-80.397497	122.977099
45186		10.645303	-0.213770	0.811984	0.551280	-0.495609	-0.001278	-0.372070	-0.362061	0.483887	91.849117	-80.391445	121.266791
45187		10.576837	-0.455017	0.958161	0.777770	-0.552377	-0.060737	-0.375977	-0.362793	0.487549	94.156974	-80.339456	119.381988
45188		10.193751	-0.282005	0.842829	0.927976	-0.609398	-0.115761	-0.364014	-0.366699	0.492188	96.695815	-80.239240	117.350268
45189		9.628508	0.265227	0.379092	0.992572	-0.651959	-0.123012	-0.361084	-0.361328	0.505615	99.354891	-80.116525	115.232872
45190		9.222988	0.990480	0.228829	0.979798	-0.623552	-0.102621	-0.365723	-0.357910	0.510498	101.868755	-79.991724	113.255113
45191		8.916439	2.032696	0.298785	0.789982	-0.542858	-0.051907	-0.359619	-0.350342	0.512695	104.003035	-79.892252	111.551283
45192		8.857231	3.053318	0.436248	0.501055	-0.451990	0.009255	-0.349121	-0.348145	0.512695	105.708282	-79.829696	110.115125
45193		9.000178	3.645808	0.505261	0.232509	-0.369786	0.074299	-0.357422	-0.343750	0.524658	107.050046	-79.809880	108.891317
45194		9.355810	3.758687	0.526900	0.035241	-0.292564	0.108774	-0.357666	-0.350586	0.514648	108.074422	-79.817326	107.875658
45195		9.653155	3.529608	0.528696	-0.113457	-0.178158	0.093279	-0.349365	-0.345459	0.515137	108.652596	-79.834945	107.226270
45196		9.896060	2.925232	0.724707	-0.235396	-0.033192	0.038241	-0.360107	-0.347168	0.512695	108.666972	-79.848143	107.079368
45197		10.069740	2.239049	1.235900	-0.385108	0.086647	-0.037953	-0.351318	-0.352783	0.519531	108.154509	-79.842243	107.379892
45198		10.089563	1.624537	1.595440	-0.537828	0.159090	-0.116727	-0.352783	-0.351563	0.509033	107.258564	-79.804782	107.981860
45199		9.978847	1.069476	1.774862	-0.633275	0.220648	-0.201971	-0.361572	-0.356201	0.506104	106.050694	-79.729230	108.844616
45200		9.712397	0.623235	1.795041	-0.680753	0.270248	-0.267647	-0.348633	-0.356445	0.507080	104.627341	-79.620908	109.899710
45201		9.423915	0.181140	1.710269	-0.660854	0.286850	-0.302123	-0.358398	-0.363525	0.503174	103.167319	-79.491475	111.003375
45202		9.390749	-0.085794	1.740083	-0.604387	0.275734	-0.300245	-0.350342	-0.376465	0.495117	101.804534	-79.356397	112.042161
45203		9.338892	-0.087216	1.650620	-0.551597	0.246578	-0.283813	-0.357422	-0.370605	0.501221	100.598522	-79.223507	112.951983
45204		9.490826	-0.068876	1.460784	-0.468748	0.233656	-0.220936	-0.361084	-0.382080	0.490479	99.533688	-79.121125	113.767317
45205		9.247589	0.181120	1.504939	-0.399680	0.178339	-0.139278	-0.357910	-0.385986	0.494141	98.725473	-79.057773	114.361272
45206		9.765093	0.910171	1.126126	-0.379254	0.094156	-0.031320	-0.368652	-0.390869	0.488037	98.227051	-79.046943	114.652168
45207		10.118212	1.411530	0.491430	-0.265056	0.027201	0.099354	-0.361572	-0.392578	0.487305	98.046905	-79.104746	114.685047
45208		10.251669	1.718891	0.192327	-0.127830	-0.070097	0.216552	-0.368164	-0.388672	0.491699	98.281647	-79.220870	114.375997
45209		10.366745	1.705044	0.002334	-0.094593	-0.101162	0.322699	-0.367432	-0.383301	0.487793	98.685550	-79.394428	113.913876
45210		10.384527	1.600197	-0.243431	-0.124205	-0.132020	0.392418	-0.365723	-0.375732	0.496094	99.214488	-79.603777	113.308063
45211		10.517687	1.493274	-0.303698	-0.167614	-0.130802	0.434627	-0.366699	-0.384766	0.486572	99.762545	-79.836260	112.657534
45212		10.455670	1.369466	-0.337045	-0.211817	-0.104111	0.442837	-0.369629	-0.378174	0.493896	100.229865	-80.074798	112.064174
45213		10.265637	1.212459	-0.163895	-0.259272	-0.090788	0.413373	-0.372070	-0.382080	0.490234	100.635410	-80.297511	111.505912
45214		9.960123	1.082654	-0.033733	-0.308182	-0.093110	0.370225	-0.364990	-0.382324	0.489014	101.012440	-80.494869	110.948890
45215		9.673243	1.005380	-0.010926	-0.344107	-0.082826	0.337700	-0.369141	-0.386963	0.492432	101.332765	-80.674682	110.428399
45216		9.386260	0.859950	-0.150506	-0.338754	-0.059569	0.323877	-0.376221	-0.382813	0.488281	101.579521	-80.848820	109.986177
45217		9.040083	0.595038	-0.176845	-0.298277	-0.032584	0.318703	-0.370361	-0.384521	0.489990	101.765649	-81.023047	109.628689
45218		9.205185	0.416865	-0.222590	-0.251838	0.037875	0.326120	-0.377930	-0.386963	0.483154	101.737658	-81.209477	109.515351
45219		9.013194	0.022544	-0.304059	-0.171547	0.106605	0.331536	-0.375732	-0.381836	0.490479	101.509515	-81.407021	109.650763
45220		9.062126	-0.350468	-0.292994	-0.047778	0.159590	0.328845	-0.379395	-0.381592	0.486084	101.138528	-81.608850	110.002492
45221		9.188110	-0.639243	-0.323015	0.051301	0.230082	0.309084	-0.376953	-0.384766	0.484375	100.519377	-81.806751	110.661934
45222		9.070946	-0.727526	-0.172233	0.155033	0.265406	0.280955	-0.384033	-0.388916	0.492188	99.765291	-81.991209	111.517544
45223		8.892350	-0.737116	-0.141560	0.253186	0.287624	0.247663	-0.386475	-0.378174	0.478760	98.919870	-82.157207	112.521624
45224		8.983135	-0.436968	-0.074026	0.312098	0.321759	0.201532	-0.380127	-0.375977	0.480957	97.896328	-82.297718	113.739222
45225		9.063771	-0.184019	-0.217379	0.349258	0.364993	0.145601	-0.392334	-0.369873	0.479492	96.642741	-82.406203	115.210006
45226		9.180537	0.104712	-0.291616	0.398198	0.421683	0.104572	-0.399902	-0.370605	0.474854	95.114805	-82.489974	116.985458
45227		9.370439	0.361346	-0.272577	0.422533	0.479622	0.070600	-0.390869	-0.375488	0.479736	93.305156	-82.549824	119.058844
45228		9.366398	0.482195	-0.307537	0.438285	0.512519	0.046500	-0.401611	-0.372314	0.485840	91.325797	-82.587822	121.312154
45229		9.567524	0.557079	-0.348006	0.460212	0.519163	0.028322	-0.402100	-0.363281	0.483154	89.314342	-82.605121	123.610451
45230		9.546935	0.618325	-0.522855	0.473778	0.506577	0.007589	-0.406494	-0.363281	0.476074	87.361305	-82.600644	125.857505
45231		9.567843	0.728564	-0.583381	0.462044	0.463184	-0.005442	-0.402100	-0.360107	0.478027	85.604252	-82.580738	127.900348
45232		9.461441	0.702132	-0.615854	0.427691	0.379865	-0.020133	-0.403320	-0.355713	0.484375	84.207485	-82.549596	129.559940
45233		9.612778	0.809724	-0.659820	0.386703	0.329938	-0.046061	-0.414307	-0.358643	0.479980	83.033236	-82.501914	130.971752
45234		9.201796	0.757045	-0.756746	0.415889	0.318089	-0.082883	-0.413330	-0.362793	0.475830	81.963942	-82.430774	132.294540
45235		9.431555	0.894064	-0.764518	0.434330	0.331525	-0.120834	-0.415283	-0.365967	0.474121	80.899292	-82.333611	133.623777
45236		9.093800	0.897278	-0.682927	0.427155	0.319919	-0.121799	-0.415039	-0.361084	0.477295	79.907948	-82.234036	134.874946
45237		8.907656	0.865459	-0.613451	0.424630	0.268930	-0.120135	-0.417725	-0.358398	0.476563	79.151890	-82.137993	135.887707
45238		8.672472	0.810834	-0.557598	0.408202	0.256402	-0.115508	-0.414307	-0.355957	0.478271	78.452950	-82.044385	136.833252
45239		8.639480	0.641630	-0.569531	0.396207	0.259839	-0.112868	-0.409180	-0.361572	0.477051	77.752046	-81.950091	137.774333
45240		8.856584	0.483551	-0.563570	0.394275	0.297853	-0.116622	-0.414063	-0.357910	0.472900	76.923156	-81.847380	138.843491
45241		9.081833	0.411877	-0.430928	0.401248	0.331996	-0.114650	-0.430420	-0.353271	0.471680	75.990748	-81.738685	140.021868
45242		9.327510	0.394411	-0.104436	0.403733	0.368586	-0.122915	-0.415039	-0.353516	0.477051	74.957227	-81.617506	141.303851
45243		9.568885	0.521300	0.156596	0.360862	0.401926	-0.154808	-0.417236	-0.348633	0.473877	73.845530	-81.469908	142.640844
45244		9.508153	0.512879	0.462289	0.335850	0.388749	-0.189437	-0.425293	-0.344727	0.482178	72.846362	-81.302129	143.849661
45245		9.750168	0.580901	0.515109	0.333319	0.356476	-0.204148	-0.425049	-0.355713	0.469727	72.018492	-81.128775	144.884651
45246		10.032965	0.602530	0.266325	0.328690	0.332769	-0.203521	-0.419189	-0.355469	0.471680	71.302660	-80.958208	145.803550
45247		9.847985	0.650392	0.056158	0.383737	0.281441	-0.194618	-0.427490	-0.344971	0.464111	70.810452	-80.800233	146.528796
45248		9.908562	0.760726	-0.122416	0.440514	0.241876	-0.161151	-0.425781	-0.345459	0.474609	70.460206	-80.667342	147.142936
45249		9.878892	0.766511	-0.342902	0.470260	0.219194	-0.126696	-0.424561	-0.346191	0.471680	70.174531	-80.556555	147.709644
45250		9.854711	0.750244	-0.548222	0.514213	0.202064	-0.096172	-0.429932	-0.348877	0.472656	69.941468	-80.465488	148.248135
45251		9.688610	0.626878	-0.612006	0.559970	0.197325	-0.075698	-0.422607	-0.346436	0.474365	69.733818	-80.385679	148.788150
45252		9.663834	0.471116	-0.567738	0.593853	0.209124	-0.069107	-0.423340	-0.341797	0.471924	69.505853	-80.307108	149.367962
45253		9.752532	0.290800	-0.636597	0.611070	0.216694	-0.066064	-0.433350	-0.337891	0.467529	69.268079	-80.227855	149.968499
45254		9.964347	0.243946	-0.776756	0.648952	0.212620	-0.056114	-0.429688	-0.334961	0.472412	69.058530	-80.154813	150.561855
45255		10.295012	0.368909	-0.558640	0.650317	0.190086	-0.040320	-0.431885	-0.346680	0.475098	68.906572	-80.094082	151.098370
45256		10.582940	0.670855	-0.509470	0.623982	0.151844	-0.011758	-0.429932	-0.330811	0.474365	68.825259	-80.056842	151.547144
45257		10.611503	1.076430	-0.449432	0.594988	0.096689	0.014056	-0.427002	-0.335205	0.476563	68.866839	-80.044260	151.855102
45258		10.616483	1.458737	-0.413924	0.551936	0.018672	0.034314	-0.435059	-0.333984	0.485596	69.097141	-80.059229	151.945576
45259		10.672378	1.886047	-0.328616	0.480151	-0.035274	0.052863	-0.431641	-0.326660	0.483643	69.430784	-80.094601	151.890215
45260		10.664489	2.291144	-0.190087	0.377591	-0.083322	0.074547	-0.430908	-0.328125	0.477783	69.830266	-80.151713	151.707547
45261		10.722229	2.640288	0.011549	0.254706	-0.126902	0.086585	-0.431641	-0.323486	0.482422	70.285427	-80.223017	151.397794
45262		10.879374	3.001305	0.004321	0.117831	-0.205372	0.108465	-0.432617	-0.329102	0.492432	70.891674	-80.321151	150.854472
45263		10.904237	3.407724	0.158900	-0.040459	-0.275828	0.151416	-0.423828	-0.323486	0.480713	71.599424	-80.453956	150.117194
45264		10.981122	3.450325	0.555229	-0.240438	-0.287024	0.211200	-0.431152	-0.324463	0.483398	72.186191	-80.620415	149.386034
45265		10.753757	3.074056	0.489381	-0.371824	-0.313072	0.269802	-0.429443	-0.334473	0.478271	72.747318	-80.821675	148.605662
45266		10.520773	2.620337	-0.056228	-0.388909	-0.275323	0.320813	-0.426514	-0.325684	0.481445	73.144632	-81.043913	147.981128
45267		10.228758	1.908355	-0.481168	-0.406965	-0.209009	0.351519	-0.430420	-0.330322	0.484863	73.287290	-81.271116	147.604828
45268		9.843650	0.873098	-0.714022	-0.428335	-0.263612	0.338057	-0.427490	-0.322510	0.486816	73.647500	-81.499990	146.995784
45269		9.419582	0.064786	-0.469288	-0.320136	-0.391242	0.289292	-0.430176	-0.326172	0.487793	74.632163	-81.720479	145.819111
45270		9.224508	-0.446025	0.390375	-0.041566	-0.508958	0.212374	-0.426270	-0.320313	0.487793	76.374171	-81.911505	144.038561
45271		9.312737	-0.722228	0.753021	0.221139	-0.532212	0.133977	-0.425049	-0.323975	0.502197	78.508947	-82.052454	142.014714
45272		9.109212	-0.895489	0.383935	0.401762	-0.479911	0.074475	-0.422852	-0.331055	0.502930	80.646823	-82.144336	140.092082
45273		9.053212	-0.652158	-0.016994	0.536466	-0.445631	0.046502	-0.427002	-0.326172	0.495117	82.778520	-82.207110	138.254659
45274		9.170466	-0.130281	0.075629	0.599048	-0.387496	0.073182	-0.415771	-0.323730	0.502441	84.722743	-82.273099	136.642094
45275		9.242458	0.555786	0.581251	0.592738	-0.282132	0.136693	-0.416504	-0.325439	0.508789	86.224755	-82.363449	135.473210
45276		9.171235	1.194509	0.922737	0.586660	-0.188599	0.197183	-0.423096	-0.313232	0.507324	87.339307	-82.482413	134.691103
45277		9.138414	1.732885	1.270589	0.619300	-0.093199	0.236203	-0.420166	-0.324463	0.511963	88.074424	-82.619241	134.311620
45278		9.003962	2.152271	1.386085	0.666056	-0.008174	0.268157	-0.425781	-0.304932	0.513184	88.471506	-82.773000	134.299223
45279		8.789650	2.297579	1.620777	0.687460	0.096072	0.276630	-0.419678	-0.308594	0.515137	88.406221	-82.929388	134.766025
45280		8.600339	2.395731	1.846875	0.713227	0.214548	0.281172	-0.416504	-0.296387	0.513916	87.784475	-83.086322	135.807394
45281		8.539379	2.425231	2.085931	0.756775	0.313426	0.267136	-0.419678	-0.289063	0.516357	86.675953	-83.230010	137.364607
45282		8.786779	2.500281	2.135253	0.792096	0.392557	0.233977	-0.428711	-0.292480	0.522705	85.156761	-83.347720	139.354582
45283		9.121979	2.652937	2.165718	0.765478	0.438377	0.192015	-0.426758	-0.293457	0.509766	83.358826	-83.431611	141.610097
45284		9.520772	2.675422	2.087639	0.733300	0.448035	0.136796	-0.433594	-0.292236	0.516602	81.485683	-83.475452	143.921861
45285		9.906567	2.628994	1.902830	0.693093	0.425898	0.094407	-0.439209	-0.282959	0.511719	79.713740	-83.488587	146.109056
45286		10.056873	2.525639	1.603579	0.628759	0.378370	0.065228	-0.434082	-0.270996	0.512939	78.161532	-83.483651	148.037454
45287		10.124630	2.278780	1.337609	0.561539	0.276004	0.031675	-0.434570	-0.275146	0.513184	77.114282	-83.467214	149.419396
45288		10.215501	2.067802	1.055834	0.515436	0.161351	-0.023325	-0.436768	-0.267334	0.517578	76.665222	-83.433185	150.172258
45289		10.415944	2.097323	0.762301	0.445899	0.086953	-0.109998	-0.444336	-0.271484	0.512695	76.643182	-83.360078	150.455662
45290		10.237110	2.082205	0.559176	0.391967	0.035373	-0.182602	-0.437500	-0.268799	0.518555	76.916585	-83.253506	150.410151
45291		10.101567	2.159732	0.525316	0.322933	0.008582	-0.242963	-0.442871	-0.270752	0.508789	77.336198	-83.116407	150.177927
45292		9.926795	2.291739	0.592430	0.263802	0.009167	-0.278010	-0.441650	-0.276611	0.518555	77.739518	-82.959595	149.927585
45293		9.794245	2.380394	0.770310	0.217982	0.012657	-0.306819	-0.438477	-0.273926	0.515381	78.116374	-82.785857	149.677696
45294		9.622367	2.231733	0.914761	0.163882	0.020036	-0.338541	-0.437988	-0.277344	0.513916	78.441998	-82.593391	149.447843
45295		9.442109	2.112042	0.844214	0.089826	0.031708	-0.359297	-0.436768	-0.272949	0.514893	78.682146	-82.387686	149.261569
45296		9.425061	1.875674	0.815860	0.010033	0.053898	-0.389167	-0.437012	-0.276611	0.509277	78.797216	-82.162711	149.155075
45297		9.369128	1.929181	0.843552	-0.092682	0.083661	-0.403628	-0.434570	-0.277344	0.520508	78.743434	-81.926208	149.159803
45298		9.404446	2.024875	0.677733	-0.157242	0.114854	-0.400021	-0.437256	-0.284912	0.511719	78.529948	-81.688253	149.288336
45299		9.307345	2.169547	0.486962	-0.196064	0.150596	-0.373162	-0.436279	-0.294434	0.517090	78.151771	-81.461096	149.561123
45300		9.170286	2.176994	0.455046	-0.233593	0.146244	-0.340979	-0.438721	-0.300537	0.516113	77.757732	-81.252238	149.828225
45301		9.062144	2.169751	0.440234	-0.259201	0.155282	-0.315307	-0.434570	-0.291748	0.506836	77.314107	-81.056330	150.130942
45302		9.027641	2.045985	0.334444	-0.269875	0.172503	-0.299560	-0.437012	-0.299072	0.510498	76.805973	-80.866598	150.492856
45303		8.844773	2.041353	0.310462	-0.293344	0.160234	-0.293426	-0.445557	-0.305908	0.510498	76.340709	-80.681471	150.797997
45304		8.842002	2.073009	0.363271	-0.317105	0.130243	-0.297584	-0.445557	-0.302490	0.508789	75.978183	-80.497737	150.985305
45305		8.917552	2.042808	0.205559	-0.364796	0.106253	-0.297977	-0.441895	-0.311768	0.501709	75.679172	-80.317035	151.080640
45306		8.910575	1.987354	-0.045909	-0.407512	0.071762	-0.300510	-0.437988	-0.308594	0.507568	75.473583	-80.139701	151.056373
45307		8.864252	1.901905	-0.255479	-0.416048	0.023829	-0.322988	-0.436768	-0.316406	0.506348	75.436423	-79.956888	150.856146
45308		8.836003	1.896919	-0.452940	-0.385068	-0.076175	-0.358909	-0.438965	-0.321777	0.498047	75.748393	-79.768224	150.319175
45309		8.819833	2.005330	-0.643367	-0.359873	-0.131990	-0.367617	-0.431152	-0.315918	0.496338	76.236178	-79.581891	149.617847
45310		8.790947	2.193981	-0.654994	-0.364494	-0.145228	-0.347401	-0.437988	-0.322266	0.501709	76.724558	-79.407439	148.912845
45311		8.803054	2.354871	-0.752691	-0.392581	-0.118596	-0.299419	-0.432861	-0.329834	0.499756	77.068489	-79.255464	148.338050
45312		8.804720	2.570899	-0.677898	-0.465707	-0.085874	-0.247059	-0.437744	-0.338623	0.500488	77.227900	-79.128000	147.908259
45313		8.754435	2.779609	-0.432485	-0.559216	-0.068833	-0.194672	-0.429199	-0.342773	0.501709	77.245430	-79.027632	147.568165
45314		8.668614	2.978343	0.105332	-0.620754	-0.027032	-0.130320	-0.438232	-0.344238	0.497070	77.062914	-78.957847	147.395983
45315		8.334068	3.139007	0.224903	-0.633207	0.014555	-0.039466	-0.431152	-0.351074	0.504395	76.695655	-78.933643	147.404604
45316		8.227865	3.090157	0.141051	-0.597923	0.017112	0.039083	-0.426025	-0.347412	0.493408	76.287790	-78.952658	147.475416
45317		7.979478	2.934993	-0.022207	-0.558856	-0.034888	0.092326	-0.435791	-0.349365	0.494385	76.013108	-79.008532	147.433119
45318		7.757289	2.874392	-0.470047	-0.603188	-0.116624	0.139337	-0.436035	-0.350342	0.499756	75.913083	-79.101681	147.187373
45319		7.987501	2.856880	-1.221904	-0.709082	-0.182175	0.163108	-0.430420	-0.351318	0.483398	75.927796	-79.217453	146.762813
45320		8.129850	3.116547	-1.960197	-0.799035	-0.176766	0.208596	-0.441162	-0.362549	0.480225	75.846086	-79.357511	146.384494
45321		8.712931	3.352041	-2.019795	-0.855362	-0.096875	0.272831	-0.432617	-0.371582	0.482422	75.447776	-79.522450	146.295209
45322		9.383407	3.364443	-1.462735	-0.941740	-0.030208	0.270200	-0.437988	-0.364258	0.487061	74.794531	-79.675946	146.415321
45323		10.148832	3.265879	-1.045054	-0.974002	-0.073297	0.217867	-0.435059	-0.376465	0.479248	74.287719	-79.807217	146.367308
45324		10.931784	3.168762	-0.861000	-0.969872	-0.067904	0.158786	-0.442139	-0.372314	0.478760	73.813851	-79.904794	146.288809
45325		10.944901	3.011490	-0.341795	-0.926983	-0.067777	0.144996	-0.439697	-0.373047	0.472656	73.372139	-79.995244	146.202072
45326		10.764335	2.665447	-0.176696	-0.881029	-0.070016	0.125107	-0.440674	-0.377197	0.476563	72.980785	-80.074866	146.091586
45327		10.449381	2.309207	-0.298997	-0.811621	-0.080246	0.103301	-0.437256	-0.388428	0.473389	72.679262	-80.144793	145.929681
45328		10.312902	1.961687	-0.574695	-0.715371	-0.122377	0.086271	-0.437744	-0.389893	0.465820	72.584023	-80.212295	145.615084
45329		10.332632	1.745482	-0.850790	-0.584193	-0.174551	0.081741	-0.431885	-0.393066	0.463623	72.735495	-80.286618	145.125830
45330		10.344652	1.964303	-1.305757	-0.438777	-0.228589	0.083228	-0.432617	-0.395752	0.466553	73.150420	-80.370017	144.454614
45331		10.320363	2.336953	-1.679521	-0.309481	-0.281513	0.104581	-0.434326	-0.393311	0.468994	73.800463	-80.473132	143.619615
45332		10.476483	2.994973	-1.894092	-0.291883	-0.295330	0.132044	-0.439453	-0.399902	0.466797	74.499738	-80.591490	142.745862
45333		10.737045	3.578892	-1.781775	-0.481298	-0.243576	0.169133	-0.434814	-0.392334	0.473389	74.898875	-80.721552	142.065944
45334		10.716719	3.897336	-1.632030	-0.729167	-0.275527	0.190912	-0.435791	-0.399658	0.464355	75.263740	-80.867187	141.277876
45335		10.642433	3.912129	-1.448648	-0.840672	-0.321079	0.185827	-0.433350	-0.401123	0.462158	75.744501	-81.016064	140.307346
45336		10.595754	3.440995	-1.171433	-0.850690	-0.415676	0.151892	-0.437744	-0.407471	0.460449	76.615133	-81.156657	138.937592
45337		10.565473	2.686390	-1.216498	-0.759027	-0.517474	0.084438	-0.430908	-0.415039	0.461670	77.995308	-81.268724	137.105023
45338		10.305435	1.927159	-1.302206	-0.617501	-0.572890	0.029516	-0.431641	-0.406738	0.467285	79.743461	-81.347741	134.983596
45339		9.937511	1.410387	-1.553737	-0.473207	-0.605953	-0.026647	-0.433350	-0.417969	0.468262	81.758570	-81.388102	132.675220
45340		9.698407	1.069991	-1.774131	-0.287125	-0.611524	-0.077508	-0.431641	-0.414307	0.473877	83.942526	-81.386560	130.304897
45341		9.653080	0.874639	-1.601044	-0.138997	-0.547658	-0.106074	-0.432129	-0.426270	0.474609	85.970103	-81.353125	128.177603
45342		9.601374	0.676575	-0.751776	-0.119746	-0.422695	-0.133808	-0.426514	-0.425049	0.475098	87.530403	-81.289119	126.534696
45343		9.733599	0.524325	0.288498	-0.266776	-0.337778	-0.131421	-0.428955	-0.416016	0.465820	88.663344	-81.219740	125.237830
45344		9.723948	0.563948	0.927520	-0.407727	-0.339724	-0.140917	-0.422363	-0.427734	0.473877	89.707324	-81.140542	123.949764
45345		9.871765	0.755254	0.591690	-0.377045	-0.421115	-0.194289	-0.424805	-0.426025	0.477539	91.036498	-81.027054	122.389714
45346		10.060417	0.812194	0.376689	-0.155514	-0.427654	-0.236146	-0.410156	-0.434082	0.473633	92.474841	-80.883021	120.847806
45347		9.973716	0.734101	0.854106	-0.109934	-0.504040	-0.235717	-0.417480	-0.436523	0.478760	94.156518	-80.730814	119.084500
45348		9.698715	0.984713	0.973706	-0.290683	-0.587325	-0.239887	-0.406250	-0.439941	0.486328	95.965491	-80.562858	117.087093
45349		9.329850	1.690869	0.858487	-0.427418	-0.516959	-0.215528	-0.416016	-0.442139	0.488037	97.400789	-80.404995	115.387523
45350		8.887581	2.345585	1.006008	-0.572398	-0.401134	-0.202632	-0.407227	-0.444824	0.483154	98.328811	-80.257129	114.118164
45351		8.594669	2.585749	1.102995	-0.679980	-0.274146	-0.207705	-0.409912	-0.444824	0.482178	98.745649	-80.115357	113.303814
45352		8.615597	2.437294	1.335407	-0.708895	-0.136314	-0.226634	-0.404297	-0.459717	0.482178	98.679392	-79.973717	112.963488
45353		8.742830	1.992213	1.851315	-0.753986	-0.020783	-0.231134	-0.403076	-0.459961	0.475586	98.214660	-79.840213	113.000799
45354		8.898417	1.493278	2.341570	-0.849222	0.033977	-0.229463	-0.412109	-0.464844	0.474854	97.532871	-79.711195	113.204007
45355		8.999646	1.164037	2.590768	-0.959847	0.066897	-0.240880	-0.400146	-0.459717	0.475586	96.691573	-79.578253	113.504246
45356		9.095677	0.846737	2.573456	-1.003472	0.082788	-0.261396	-0.403076	-0.473145	0.466064	95.785133	-79.433135	113.846231
45357		9.379842	0.427764	2.373906	-0.965872	0.077383	-0.269621	-0.399414	-0.478271	0.462646	94.930300	-79.282769	114.157009
45358		9.712128	0.117243	2.239071	-0.897739	0.068992	-0.247686	-0.397217	-0.488037	0.454346	94.160417	-79.143133	114.421953
45359		10.011579	-0.128062	2.114404	-0.819584	0.075466	-0.202559	-0.403564	-0.494141	0.452393	93.437391	-79.029528	114.684137
45360		10.356000	-0.151227	2.187137	-0.773284	0.127038	-0.150720	-0.402100	-0.497070	0.449463	92.607296	-78.945944	115.083200
45361		10.379610	0.017652	2.252717	-0.710639	0.116037	-0.092927	-0.398193	-0.499023	0.441895	91.860472	-78.894698	115.433389
45362		9.713063	0.001279	2.082325	-0.580798	0.028347	-0.044092	-0.412598	-0.515381	0.448242	91.450835	-78.868846	115.516415
45363		9.905609	0.332923	1.859993	-0.473040	-0.030124	0.026314	-0.407471	-0.504883	0.438232	91.279596	-78.882892	115.418790
45364		10.081671	0.606957	1.345256	-0.358573	-0.064183	0.113591	-0.409424	-0.507080	0.447266	91.278296	-78.946151	115.215390
45365		10.322395	0.787665	0.800418	-0.243105	-0.084809	0.174776	-0.412598	-0.515381	0.443115	91.411184	-79.044507	114.942193
45366		10.324100	0.868909	0.631014	-0.144107	-0.086334	0.224015	-0.407227	-0.512451	0.444824	91.612104	-79.170572	114.658078
45367		10.437667	1.107716	0.554736	-0.129227	-0.045405	0.246762	-0.411377	-0.508057	0.439941	91.706866	-79.310522	114.490329
45368		10.453323	1.255692	0.399527	-0.126092	-0.028261	0.263977	-0.410889	-0.505127	0.441406	91.754267	-79.460314	114.373128
45369		10.751761	1.443008	0.173371	-0.107686	-0.013316	0.290052	-0.408447	-0.505371	0.438721	91.772189	-79.625564	114.296234
45370		10.866295	1.432107	-0.024609	-0.088147	0.016812	0.317029	-0.420166	-0.503662	0.442871	91.708024	-79.806545	114.314615
45371		10.769147	1.288226	0.000805	-0.070174	0.033990	0.328743	-0.411377	-0.498047	0.428711	91.599888	-79.994763	114.387680
45372		10.517753	1.162995	0.172907	-0.069342	0.071699	0.336321	-0.416992	-0.510254	0.439697	91.362810	-80.187616	114.592481
45373		10.227112	1.135551	0.374653	-0.080810	0.132814	0.324936	-0.427246	-0.504883	0.442627	90.904948	-80.374650	115.014097
45374		9.790031	1.044314	0.547415	-0.065352	0.193692	0.306270	-0.432861	-0.508057	0.440186	90.226769	-80.550420	115.668245
45375		9.345441	0.888980	0.623243	-0.031968	0.246034	0.275498	-0.431152	-0.505615	0.430664	89.362344	-80.707184	116.529855
45376		9.062122	0.656966	0.688415	0.027639	0.288587	0.255266	-0.426025	-0.503174	0.433350	88.351591	-80.849371	117.574293
45377		8.817678	0.441910	0.713572	0.084555	0.322185	0.251644	-0.429199	-0.496094	0.430664	87.223165	-80.985787	118.770160
45378		8.756252	0.280474	0.694850	0.140917	0.361873	0.246212	-0.432617	-0.497070	0.431885	85.946212	-81.113586	120.148960
45379		8.851830	0.125139	0.577881	0.214512	0.394338	0.252269	-0.436279	-0.499268	0.434814	84.553767	-81.238448	121.686510
45380		8.888511	0.034791	0.630904	0.329679	0.440821	0.264177	-0.442139	-0.489014	0.437988	83.004669	-81.360976	123.449050
