// General information: 
//  MT Manager version: 2022.2.0 
//  XDA version: 2022.2.0 build 7381 rev 124627 built on 2023-07-19
// Device information: 
//  DeviceId: 00B4C3A0
//  ProductCode: MTW2-3A7G6
//  Firmware Version: 4.6.0
//  Hardware Version: 2.0.0
// Device settings: 
//  Filter Profile: human(46.1)
//  Option Flags: Orientation Smoother Disabled, Position/Velocity Smoother Disabled, Continuous Zero Rotation Update Disabled, AHS Disabled, ICC Disabled
// Coordinate system: ENU
PacketCounter	SampleTimeFine	Acc_X	Acc_Y	Acc_Z	Gyr_X	Gyr_Y	Gyr_Z	Mag_X	Mag_Y	Mag_Z	Roll	Pitch	Yaw
41690		9.528693	1.453297	-0.150767	-0.000589	-0.000622	0.005651	-0.391113	-0.263428	0.647217	103.164701	-82.650857	179.892413
41691		9.551173	1.449213	-0.176775	0.000506	-0.000704	-0.001257	-0.401123	-0.252441	0.649414	103.180136	-82.649325	179.880221
41692		9.519618	1.438292	-0.133636	0.005641	0.000158	0.004181	-0.399658	-0.257324	0.640137	103.178841	-82.647761	179.887219
41693		9.578675	1.469604	-0.179225	0.004870	0.000704	0.001701	-0.395752	-0.267334	0.642578	103.193680	-82.648062	179.878149
41694		9.551270	1.448576	-0.176740	0.000958	0.003127	0.002426	-0.393311	-0.257080	0.642090	103.174188	-82.645918	179.898225
41695		9.573761	1.444464	-0.202398	0.000958	0.003127	0.002426	-0.390625	-0.261475	0.640381	103.177041	-82.646941	179.898981
41696		9.569604	1.477467	-0.210631	-0.000318	0.004377	0.001203	-0.397705	-0.256592	0.636230	103.151349	-82.644250	179.928189
41697		9.569611	1.477501	-0.210069	-0.004495	0.006642	-0.001810	-0.388184	-0.251465	0.642822	103.131609	-82.643366	179.948575
41698		9.601232	1.465328	-0.202973	-0.010030	0.008831	-0.001653	-0.393799	-0.259521	0.647949	103.078537	-82.639702	-179.996699
41699		9.592081	1.450878	-0.185067	-0.012028	0.001251	-0.002111	-0.393799	-0.257080	0.647705	103.077489	-82.637949	-179.999513
41700		9.601191	1.465732	-0.201964	-0.008435	0.003204	-0.001633	-0.393555	-0.262207	0.638428	103.049759	-82.633535	-179.973738
41701		9.587841	1.484492	-0.192821	-0.005958	0.004220	-0.002979	-0.390381	-0.255371	0.645996	103.038510	-82.631681	-179.962759
41702		9.560390	1.463818	-0.189899	0.000376	0.007346	-0.000108	-0.392578	-0.260254	0.645264	102.999519	-82.628651	-179.919623
41703		9.587883	1.461452	-0.142152	0.001652	0.006096	0.001115	-0.387695	-0.251953	0.645752	102.988627	-82.629323	-179.904607
41704		9.587884	1.484457	-0.190930	0.001493	0.008285	0.001717	-0.397949	-0.253662	0.646240	102.948789	-82.627426	-179.858142
41705		9.528868	1.452766	-0.144724	0.004129	0.007111	-0.000230	-0.390625	-0.267090	0.643311	102.933599	-82.627475	-179.837360
41706		9.578774	1.469765	-0.172531	0.002318	0.003204	-0.000744	-0.393555	-0.258301	0.645752	102.912816	-82.623567	-179.813621
41707		9.587906	1.484523	-0.189310	0.006606	0.008127	-0.001576	-0.395020	-0.253662	0.646973	102.893346	-82.622993	-179.787093
41708		9.538018	1.467483	-0.160676	-0.005113	0.000158	0.003293	-0.389160	-0.254639	0.640381	102.885961	-82.620974	-179.778406
41709		9.569658	1.455067	-0.154231	-0.000928	0.002735	-0.001879	-0.389404	-0.259277	0.646729	102.885140	-82.619541	-179.775035
41710		9.551337	1.472127	-0.218195	-0.001594	0.005627	-0.000020	-0.397949	-0.259033	0.645996	102.853482	-82.616333	-179.738907
41711		9.542982	1.492333	-0.135980	-0.000581	0.004220	-0.002535	-0.393066	-0.260498	0.643311	102.845825	-82.614721	-179.728442
41712		9.560456	1.464009	-0.185066	-0.004333	0.004454	-0.002413	-0.386230	-0.250488	0.646484	102.814326	-82.610067	-179.697795
41713		9.560416	1.464338	-0.184546	-0.003479	0.005235	-0.004326	-0.380615	-0.266846	0.643311	102.798898	-82.607583	-179.681169
41714		9.574486	1.480907	-0.128151	-0.003986	0.005939	-0.003068	-0.396729	-0.265381	0.639404	102.762567	-82.602652	-179.641558
41715		9.596901	1.477492	-0.153520	-0.004595	0.004297	-0.006151	-0.387695	-0.255859	0.641113	102.748795	-82.599027	-179.627245
41716		9.565231	1.490161	-0.159364	-0.010910	0.002189	-0.000291	-0.391357	-0.266113	0.645752	102.725718	-82.595257	-179.608106
41717		9.574334	1.505109	-0.176388	-0.008883	-0.000626	-0.005320	-0.385986	-0.255859	0.642334	102.731487	-82.591474	-179.615977
41718		9.587609	1.486991	-0.184945	-0.015618	-0.000703	-0.002596	-0.387451	-0.259277	0.641602	102.716690	-82.586014	-179.607632
41719		9.582616	1.439414	-0.159257	-0.014024	-0.006330	-0.002577	-0.387939	-0.257813	0.642822	102.746657	-82.583043	-179.642875
41720		9.573394	1.448310	-0.191961	-0.009258	-0.007971	-0.005214	-0.395508	-0.259033	0.649170	102.764415	-82.575221	-179.661445
41721		9.582439	1.463533	-0.209695	-0.006940	-0.004767	-0.005957	-0.395020	-0.259766	0.646729	102.788383	-82.570556	-179.686546
41722		9.559864	1.467989	-0.184091	-0.002841	-0.003516	-0.006734	-0.401123	-0.254639	0.643066	102.788391	-82.562508	-179.686752
41723		9.573844	1.508084	-0.177575	-0.005364	0.004847	-0.008629	-0.395996	-0.255859	0.649902	102.769486	-82.557568	-179.667706
41724		9.587080	1.490318	-0.185604	-0.011751	0.006254	-0.006559	-0.391846	-0.268066	0.646729	102.722653	-82.550916	-179.623594
41725		9.555358	1.480229	-0.141982	-0.012894	-0.000544	-0.008936	-0.390869	-0.255859	0.647705	102.722245	-82.545122	-179.627552
41726		9.568553	1.485741	-0.199888	-0.007679	0.001644	-0.007887	-0.393311	-0.266357	0.648682	102.696873	-82.537045	-179.605534
41727		9.545993	1.490153	-0.173509	-0.007231	0.005473	-0.004200	-0.394043	-0.258301	0.645264	102.678606	-82.534654	-179.588209
41728		9.545925	1.490659	-0.172887	-0.002625	0.006021	-0.006235	-0.399414	-0.256592	0.650391	102.638816	-82.528075	-179.549476
41729		9.550095	1.457840	-0.163596	0.004819	0.010084	-0.001534	-0.388672	-0.251953	0.642822	102.610380	-82.527750	-179.514931
41730		9.618245	1.481430	-0.175926	0.007035	0.010946	-0.006616	-0.392822	-0.258301	0.641357	102.555528	-82.521622	-179.449817
41731		9.586582	1.494089	-0.180921	0.008438	0.017901	-0.000501	-0.380371	-0.258789	0.646240	102.496863	-82.522839	-179.382691
41732		9.627362	1.473361	-0.141392	0.003011	0.006176	-0.002050	-0.390381	-0.258301	0.642334	102.465097	-82.518580	-179.343973
41733		9.568291	1.488147	-0.194458	-0.009126	0.000233	-0.000326	-0.389160	-0.260742	0.650391	102.471823	-82.517699	-179.352951
41734		9.559859	1.531359	-0.162237	-0.017003	-0.006646	0.000019	-0.391602	-0.256592	0.645752	102.484812	-82.513034	-179.372852
41735		9.541575	1.525162	-0.177505	-0.011788	-0.004457	0.001069	-0.395752	-0.256592	0.643311	102.511283	-82.512352	-179.403282
41736		9.523289	1.495826	-0.143278	-0.003084	-0.002657	-0.001740	-0.386963	-0.260254	0.645508	102.513180	-82.507258	-179.402617
41737		9.532381	1.510781	-0.160720	0.001522	-0.002108	-0.003773	-0.390869	-0.253906	0.647217	102.532686	-82.504158	-179.418331
41738		9.549897	1.459423	-0.160998	0.001362	0.000080	-0.003170	-0.385742	-0.258057	0.639160	102.524924	-82.498561	-179.404763
41739		9.540703	1.445117	-0.143782	-0.003504	-0.000623	-0.004874	-0.401123	-0.263184	0.653320	102.534182	-82.495029	-179.413045
41740		9.549794	1.460073	-0.161224	0.001943	-0.004142	-0.000638	-0.394531	-0.268311	0.644043	102.546145	-82.490352	-179.422693
41741		9.536426	1.478627	-0.152848	0.000160	-0.002188	-0.000603	-0.394775	-0.261963	0.632568	102.568158	-82.489013	-179.441722
41742		9.549765	1.460186	-0.161927	-0.000026	-0.005862	-0.000552	-0.387451	-0.254395	0.643311	102.585380	-82.484179	-179.460266
41743		9.531444	1.454189	-0.177448	0.002957	-0.005547	-0.003154	-0.381104	-0.251465	0.646240	102.620784	-82.480992	-179.491187
41744		9.558832	1.452103	-0.131021	0.000642	-0.008753	-0.002413	-0.389893	-0.256592	0.651367	102.651722	-82.474727	-179.512870
41745		9.576995	1.482013	-0.166368	-0.002356	-0.010078	-0.008545	-0.390625	-0.260986	0.646973	102.698043	-82.467951	-179.557873
41746		9.576861	1.505751	-0.216668	0.000642	-0.008752	-0.002413	-0.388184	-0.262451	0.645020	102.727753	-82.461701	-179.584654
41747		9.595091	1.489242	-0.153130	-0.000386	-0.008358	-0.008631	-0.389648	-0.266113	0.646729	102.767714	-82.455086	-179.622106
41748		9.585820	1.498314	-0.186266	-0.004916	-0.012426	-0.002807	-0.390869	-0.261230	0.640869	102.808819	-82.448117	-179.666669
41749		9.594902	1.513114	-0.204515	0.003034	-0.009065	0.000634	-0.397461	-0.255371	0.648682	102.862486	-82.446581	-179.715971
41750		9.590013	1.465168	-0.179598	0.005003	-0.007345	0.000547	-0.385986	-0.261963	0.642334	102.890693	-82.442218	-179.738794
41751		9.571709	1.458959	-0.195316	0.003381	-0.007580	-0.000020	-0.387939	-0.261475	0.645264	102.937619	-82.440498	-179.781096
41752		9.549178	1.485874	-0.219487	0.000745	-0.006409	0.001928	-0.394287	-0.264160	0.641602	102.961442	-82.436950	-179.802501
41753		9.580892	1.450253	-0.164540	0.003381	-0.007579	-0.000020	-0.389648	-0.251709	0.645508	103.008321	-82.435223	-179.844756
41754		9.540148	1.447705	-0.154205	0.011332	-0.004218	0.003420	-0.393311	-0.259766	0.650391	103.030026	-82.432862	-179.856552
41755		9.530977	1.456052	-0.186991	0.014822	-0.004606	-0.000441	-0.386963	-0.257080	0.643799	103.070519	-82.431278	-179.885753
41756		9.549277	1.462154	-0.172599	0.008434	-0.003202	0.001630	-0.393311	-0.260498	0.639404	103.084956	-82.428030	-179.892457
41757		9.545075	1.495043	-0.181740	0.005266	-0.007189	0.004286	-0.390137	-0.257080	0.638672	103.135416	-82.428743	-179.937235
41758		9.531024	1.455529	-0.188652	0.002290	-0.002656	-0.001293	-0.395752	-0.256348	0.638916	103.140478	-82.423970	-179.937659
41759		9.545041	1.495158	-0.182589	-0.002070	-0.004063	-0.004253	-0.390869	-0.255371	0.645752	103.165220	-82.420323	-179.960733
41760		9.576542	1.506414	-0.225966	-0.000263	-0.000155	-0.003738	-0.386963	-0.258789	0.639648	103.156169	-82.414543	-179.947331
41761		9.576491	1.506741	-0.225939	-0.002392	0.000313	-0.003047	-0.388184	-0.264404	0.640625	103.163548	-82.412138	-179.953076
41762		9.608171	1.471562	-0.170504	-0.002416	-0.005548	-0.003598	-0.395508	-0.255615	0.645264	103.176253	-82.405659	-179.965175
41763		9.598924	1.480358	-0.203071	-0.000954	-0.003125	-0.002428	-0.394043	-0.251465	0.645264	103.199429	-82.403150	-179.986025
41764		9.584879	1.440836	-0.209907	0.001009	-0.006253	0.005667	-0.396240	-0.258789	0.644043	103.226077	-82.401852	179.992856
41765		9.585636	1.498335	-0.195370	0.002714	-0.004688	0.001841	-0.394775	-0.261719	0.651611	103.262064	-82.401516	179.961201
41766		9.539949	1.471039	-0.208562	-0.001729	-0.007425	0.003275	-0.384033	-0.259766	0.643799	103.289213	-82.398696	179.932800
41767		9.549093	1.485387	-0.226388	-0.001890	-0.005238	0.003878	-0.391846	-0.259033	0.644775	103.326856	-82.399418	179.896812
41768		9.535781	1.503609	-0.218122	-0.001037	-0.004455	0.001965	-0.384033	-0.260254	0.646240	103.341632	-82.396209	179.884133
41769		9.558344	1.476449	-0.195066	-0.002660	-0.004690	0.001398	-0.387207	-0.257324	0.644531	103.374077	-82.395618	179.852944
41770		9.540067	1.470022	-0.210323	-0.003673	-0.003285	0.003914	-0.391357	-0.250488	0.645752	103.384826	-82.393637	179.843551
41771		9.540087	1.469833	-0.210762	-0.004121	-0.007112	0.000229	-0.385498	-0.262939	0.647705	103.425362	-82.392068	179.803355
41772		9.590078	1.463406	-0.190169	-0.006493	-0.005786	0.005916	-0.395264	-0.261963	0.649658	103.446795	-82.390911	179.782061
41773		9.567547	1.490221	-0.214200	-0.005237	-0.008048	-0.001596	-0.395264	-0.262695	0.643799	103.488744	-82.388194	179.739794
41774		9.549223	1.484033	-0.229738	-0.003005	-0.006174	0.002053	-0.394287	-0.261475	0.647217	103.508544	-82.384867	179.716687
41775		9.580874	1.471607	-0.224187	-0.006089	-0.008830	0.000317	-0.390869	-0.256348	0.648926	103.555128	-82.383105	179.669251
41776		9.571758	1.456928	-0.207695	-0.007711	-0.009064	-0.000249	-0.396973	-0.262695	0.642822	103.582680	-82.378104	179.638395
41777		9.576605	1.504760	-0.234186	-0.006594	-0.008127	0.001575	-0.398682	-0.264160	0.648193	103.627259	-82.377129	179.592689
41778		9.549306	1.460658	-0.183294	-0.013268	-0.012736	-0.000638	-0.397217	-0.255127	0.637207	103.665247	-82.371446	179.544197
41779		9.580827	1.471403	-0.227535	-0.009758	-0.012113	0.004232	-0.394043	-0.255371	0.652588	103.727221	-82.371399	179.479111
41780		9.545102	1.493343	-0.193878	-0.007628	-0.012581	0.003540	-0.392822	-0.261475	0.639160	103.772948	-82.368087	179.432539
41781		9.558452	1.474588	-0.203671	-0.005154	-0.011564	0.002193	-0.393555	-0.261719	0.651123	103.833162	-82.366964	179.371889
41782		9.571783	1.455952	-0.213331	-0.010182	-0.010079	0.001099	-0.399170	-0.263916	0.644531	103.864315	-82.362577	179.334573
41783		9.580856	1.470598	-0.231499	-0.010020	-0.012265	0.000495	-0.388184	-0.254883	0.646240	103.922843	-82.360401	179.272809
41784		9.531020	1.453439	-0.204293	-0.014460	-0.014999	0.001931	-0.390381	-0.256836	0.645264	103.972889	-82.355814	179.215420
41785		9.554356	1.484089	-0.166956	-0.014459	-0.014998	0.001931	-0.387695	-0.261719	0.646729	104.041594	-82.354041	179.140822
41786		9.540089	1.467869	-0.223946	-0.010363	-0.013747	0.001149	-0.386719	-0.258545	0.641602	104.088578	-82.349147	179.089978
41787		9.563440	1.498487	-0.186473	-0.012995	-0.012577	0.003101	-0.388428	-0.255859	0.646973	104.149237	-82.348343	179.024344
41788		9.540085	1.467576	-0.226045	-0.011639	-0.012495	-0.000071	-0.396729	-0.260498	0.645508	104.189242	-82.342946	178.981992
41789		9.580813	1.469805	-0.238213	-0.007621	-0.012577	0.003539	-0.385742	-0.259033	0.646240	104.253376	-82.342369	178.915957
41790		9.562481	1.463395	-0.254305	-0.009082	-0.014996	0.002369	-0.397217	-0.262451	0.650391	104.307015	-82.337988	178.858331
41791		9.544134	1.457049	-0.270469	-0.003365	-0.013513	0.002150	-0.390625	-0.256836	0.647217	104.375927	-82.336489	178.789935
41792		9.571766	1.454371	-0.224582	-0.001903	-0.011093	0.003320	-0.394775	-0.257080	0.640381	104.418325	-82.333204	178.746693
41793		9.567753	1.464037	-0.184570	-0.001215	-0.008124	0.002012	-0.392090	-0.266357	0.646240	104.466052	-82.332382	178.700916
41794		9.608520	1.466069	-0.196216	-0.000419	-0.002818	0.005046	-0.386963	-0.263916	0.645020	104.476626	-82.331237	178.690430
41795		9.626651	1.495431	-0.231086	-0.002418	-0.005539	-0.003599	-0.387207	-0.257813	0.645996	104.507017	-82.327668	178.661448
41796		9.617562	1.480797	-0.214365	-0.002998	-0.006171	0.002052	-0.389893	-0.258545	0.640137	104.527813	-82.324329	178.640725
41797		9.626424	1.518544	-0.281591	-0.011185	-0.008669	0.003621	-0.389404	-0.259033	0.650879	104.573723	-82.324309	178.591016
41798		9.576653	1.501227	-0.254039	-0.016234	-0.013037	0.001976	-0.386719	-0.257324	0.654053	104.614916	-82.319975	178.542983
41799		9.567375	1.509547	-0.287066	-0.011527	-0.010152	0.004275	-0.391357	-0.257324	0.647949	104.667403	-82.320092	178.486439
41800		9.539976	1.488470	-0.285307	-0.004275	-0.004919	0.000833	-0.400879	-0.254150	0.643066	104.681319	-82.316293	178.472825
41801		9.558329	1.494567	-0.270763	-0.003932	-0.003434	0.000179	-0.389648	-0.254150	0.647217	104.706118	-82.315109	178.448609
41802		9.580926	1.467516	-0.247598	-0.007337	-0.001714	-0.000344	-0.386963	-0.260986	0.641846	104.703011	-82.311216	178.452647
41803		9.566834	1.428078	-0.253874	-0.012257	0.002110	0.002912	-0.392090	-0.251465	0.649902	104.703208	-82.312352	178.448443
41804		9.549553	1.456288	-0.204028	-0.009807	-0.002729	0.001005	-0.381104	-0.264404	0.645508	104.705015	-82.309000	178.445661
41805		9.521918	1.458569	-0.251256	-0.001535	-0.003752	0.003221	-0.387939	-0.254639	0.641602	104.735747	-82.309454	178.416844
41806		9.517941	1.468238	-0.210707	-0.002653	-0.004686	0.001397	-0.392578	-0.263184	0.646484	104.750407	-82.305982	178.404414
41807		9.517941	1.468170	-0.211151	-0.002148	-0.005387	0.000137	-0.388916	-0.257568	0.650391	104.784144	-82.304485	178.372211
41808		9.563708	1.495139	-0.199179	-0.004114	-0.007103	0.000227	-0.390381	-0.251953	0.647949	104.805916	-82.300061	178.348668
41809		9.545335	1.489000	-0.214675	-0.004114	-0.007103	0.000227	-0.386475	-0.252930	0.645264	104.845617	-82.298358	178.309309
41810		9.604388	1.497539	-0.211862	-0.005757	-0.013190	-0.000896	-0.385254	-0.255127	0.646240	104.891033	-82.292446	178.267647
41811		9.603265	1.463161	-0.277555	0.001923	-0.009993	-0.001207	-0.394287	-0.259033	0.644287	104.944388	-82.289515	178.218000
41812		9.603222	1.463241	-0.278611	0.001581	-0.011477	-0.000553	-0.381836	-0.260254	0.648682	104.986597	-82.284035	178.180260
41813		9.590190	1.458261	-0.221498	0.003817	-0.009611	0.003095	-0.378662	-0.254395	0.652344	105.044104	-82.283529	178.127517
41814		9.571838	1.451831	-0.237557	0.007385	-0.013516	0.003010	-0.390137	-0.263672	0.650391	105.103382	-82.279608	178.076780
41815		9.558534	1.470157	-0.230112	0.004987	-0.013197	-0.000031	-0.381592	-0.257324	0.649170	105.172692	-82.276821	178.012801
41816		9.545206	1.488662	-0.222632	0.003365	-0.013429	-0.000595	-0.378174	-0.251709	0.638428	105.224091	-82.270954	177.964118
41817		9.508733	1.453012	-0.204319	0.000393	-0.013743	0.002016	-0.383545	-0.259033	0.643311	105.295156	-82.269198	177.895711
41818		9.558474	1.469914	-0.234131	0.004142	-0.013979	0.001883	-0.388916	-0.259033	0.646484	105.352504	-82.264614	177.847927
41819		9.541251	1.498011	-0.185856	0.007046	-0.014998	0.003663	-0.384277	-0.256836	0.648438	105.434244	-82.263555	177.772593
41820		9.536160	1.473183	-0.210961	0.006612	-0.012962	0.000532	-0.393066	-0.255127	0.642578	105.486556	-82.258398	177.726701
41821		9.576838	1.475481	-0.223629	0.008397	-0.014914	0.000489	-0.387939	-0.258789	0.653076	105.565064	-82.255576	177.655409
41822		9.536107	1.473107	-0.213867	-0.002346	-0.014906	-0.000368	-0.381836	-0.262695	0.651611	105.618526	-82.249662	177.602803
41823		9.545075	1.487988	-0.232521	0.000627	-0.014592	-0.002980	-0.380859	-0.261230	0.647949	105.687199	-82.244955	177.536942
41824		9.558270	1.469877	-0.242542	0.001653	-0.010140	-0.004943	-0.388916	-0.252930	0.645752	105.719221	-82.237124	177.506310
41825		9.589486	1.481301	-0.287138	0.008972	-0.014280	-0.005164	-0.383301	-0.256104	0.649902	105.788751	-82.231245	177.444409
41826		9.598762	1.473128	-0.256328	0.008649	-0.009910	-0.003953	-0.382324	-0.262939	0.652832	105.824731	-82.224095	177.418497
41827		9.598658	1.473608	-0.257452	0.015371	-0.009831	-0.006701	-0.391357	-0.257080	0.653320	105.878039	-82.218050	177.376666
41828		9.598539	1.474181	-0.258584	0.013246	-0.009362	-0.006003	-0.391113	-0.258789	0.648926	105.911674	-82.209821	177.350546
41829		9.581284	1.502946	-0.209677	0.006201	-0.005072	-0.002044	-0.384033	-0.256104	0.650146	105.945789	-82.207083	177.322782
41830		9.585106	1.493419	-0.251076	0.002518	-0.003505	-0.006300	-0.387207	-0.259766	0.650146	105.949199	-82.199648	177.323180
41831		9.571732	1.512444	-0.242484	0.000229	-0.000852	-0.004997	-0.387451	-0.253418	0.652588	105.959486	-82.195946	177.316014
41832		9.584554	1.517750	-0.300590	-0.001215	0.002583	-0.005609	-0.384277	-0.256592	0.656738	105.937330	-82.189855	177.340368
41833		9.603252	1.501185	-0.236160	0.000912	0.002115	-0.006307	-0.379639	-0.260254	0.652344	105.934591	-82.185898	177.346745
41834		9.580481	1.528872	-0.259184	0.001254	0.003599	-0.006962	-0.386963	-0.259033	0.641846	105.909079	-82.179150	177.375159
41835		9.562370	1.500127	-0.224337	-0.006083	0.001883	-0.007296	-0.394287	-0.262207	0.653076	105.902155	-82.174611	177.381714
41836		9.562257	1.500931	-0.223754	-0.006844	0.008286	-0.009217	-0.387207	-0.259766	0.638672	105.848945	-82.167454	177.431195
41837		9.552738	1.510456	-0.255065	-0.008304	0.005869	-0.010385	-0.389648	-0.253174	0.647949	105.821325	-82.161834	177.457356
41838		9.556907	1.478148	-0.245964	-0.007526	0.005319	-0.007908	-0.385742	-0.258789	0.642578	105.781752	-82.154944	177.497254
41839		9.593157	1.514794	-0.265019	-0.006953	0.005952	-0.013560	-0.384033	-0.254150	0.655762	105.751078	-82.147583	177.527280
41840		9.565584	1.495202	-0.261874	-0.009079	0.006420	-0.012862	-0.386963	-0.254639	0.648926	105.701671	-82.138080	177.575846
41841		9.588080	1.469530	-0.237747	-0.007892	0.008688	-0.015431	-0.381592	-0.258301	0.652832	105.657583	-82.130103	177.618871
41842		9.546813	1.491859	-0.274810	-0.006431	0.011107	-0.014263	-0.391113	-0.254639	0.651367	105.589902	-82.120537	177.687314
41843		9.583383	1.505584	-0.244075	-0.006267	0.008923	-0.014868	-0.381348	-0.259766	0.645508	105.546641	-82.112895	177.730447
41844		9.583213	1.506881	-0.242743	-0.001548	0.017662	-0.012017	-0.384766	-0.248291	0.654541	105.457993	-82.105582	177.822465
41845		9.564707	1.501813	-0.256012	-0.002230	0.014694	-0.010708	-0.383057	-0.265869	0.650146	105.398845	-82.101103	177.883973
41846		9.586896	1.499216	-0.280587	0.004331	0.016965	-0.012848	-0.392090	-0.253906	0.644531	105.316344	-82.093165	177.973118
41847		9.587105	1.477149	-0.229730	0.000746	0.015014	-0.013320	-0.392334	-0.256348	0.647705	105.254975	-82.087270	178.038593
41848		9.573617	1.496853	-0.219489	0.002369	0.015248	-0.012756	-0.386230	-0.251709	0.649170	105.177285	-82.079214	178.122573
41849		9.554757	1.515180	-0.282035	-0.003329	0.019616	-0.011975	-0.392822	-0.256348	0.645508	105.096953	-82.074728	178.204838
41850		9.560001	1.517615	-0.207038	-0.005455	0.020083	-0.011279	-0.392578	-0.250977	0.642090	104.998078	-82.068155	178.306882
41851		9.527826	1.554354	-0.260585	-0.012624	0.016178	-0.012225	-0.382080	-0.257568	0.651123	104.926026	-82.062987	178.375412
41852		9.537021	1.546945	-0.226909	-0.011179	0.012744	-0.011613	-0.384033	-0.250244	0.643555	104.853260	-82.055092	178.448242
41853		9.545921	1.562531	-0.243069	-0.008527	0.006720	-0.005393	-0.386963	-0.258789	0.647705	104.828446	-82.052300	178.471449
41854		9.536834	1.548406	-0.224784	-0.005539	0.012896	-0.007444	-0.388428	-0.259277	0.651611	104.763089	-82.046707	178.540466
41855		9.540783	1.539174	-0.264276	-0.011921	0.014292	-0.005356	-0.382324	-0.261230	0.649658	104.706399	-82.045033	178.593895
41856		9.541050	1.516406	-0.213352	-0.007829	0.015547	-0.006141	-0.385742	-0.260498	0.638184	104.630597	-82.040478	178.667143
41857		9.531366	1.548819	-0.293525	-0.005447	0.009375	-0.003658	-0.382813	-0.259277	0.640137	104.598935	-82.039019	178.699046
41858		9.522348	1.534214	-0.275527	0.000013	0.005855	0.000559	-0.385498	-0.257813	0.645020	104.572582	-82.036794	178.729196
41859		9.531681	1.525599	-0.243199	-0.001963	-0.001720	0.000089	-0.394043	-0.257813	0.645508	104.590776	-82.035809	178.712776
41860		9.536676	1.550125	-0.219575	0.004864	0.000702	0.001693	-0.387939	-0.257324	0.643066	104.588665	-82.033528	178.720665
41861		9.550072	1.531450	-0.228314	0.000608	0.001633	0.003084	-0.387207	-0.252197	0.646240	104.598131	-82.034688	178.714544
41862		9.549794	1.554679	-0.277412	-0.001444	0.003436	-0.000612	-0.388428	-0.254150	0.651611	104.579777	-82.031525	178.737975
41863		9.564102	1.570707	-0.221387	-0.002128	0.000465	0.000695	-0.382324	-0.260254	0.655518	104.589834	-82.031192	178.729674
41864		9.553850	1.544733	-0.318166	-0.013894	-0.003997	0.001788	-0.387207	-0.258789	0.640137	104.596972	-82.028226	178.717470
41865		9.531182	1.571607	-0.341904	-0.020124	-0.010640	0.002707	-0.382813	-0.254150	0.647949	104.642756	-82.027401	178.662684
41866		9.522149	1.556769	-0.325492	-0.015361	-0.012269	0.000056	-0.384521	-0.260254	0.648926	104.679496	-82.022307	178.621701
41867		9.553144	1.486824	-0.335631	-0.014512	-0.011482	-0.001857	-0.389160	-0.253906	0.652588	104.727027	-82.018819	178.568395
41868		9.549067	1.496909	-0.295164	-0.013816	-0.002656	-0.002601	-0.389404	-0.261475	0.653076	104.724007	-82.013651	178.566754
41869		9.593752	1.489945	-0.346929	-0.010993	0.005705	-0.004041	-0.389404	-0.253174	0.653809	104.703353	-82.011452	178.584336
41870		9.603026	1.481812	-0.314363	-0.006915	0.001105	-0.005387	-0.388184	-0.258545	0.650391	104.686439	-82.005313	178.599717
41871		9.593957	1.467421	-0.297106	-0.008446	-0.002653	-0.002169	-0.384277	-0.260986	0.655273	104.702184	-82.002936	178.582017
41872		9.539830	1.483694	-0.277355	-0.003685	-0.004282	-0.004821	-0.383789	-0.263672	0.645264	104.709215	-81.996287	178.574063
41873		9.535732	1.493911	-0.236909	-0.004368	-0.007253	-0.003516	-0.382813	-0.257080	0.650635	104.743995	-81.992493	178.539500
41874		9.494914	1.492011	-0.226342	-0.003787	-0.006611	-0.009166	-0.389648	-0.256104	0.640625	104.755645	-81.983085	178.527667
41875		9.540115	1.543434	-0.263546	-0.001483	-0.003406	-0.009907	-0.386230	-0.250488	0.644531	104.770244	-81.976307	178.515151
41876		9.508242	1.556608	-0.270335	-0.007886	-0.013719	-0.008944	-0.385498	-0.257080	0.647949	104.807271	-81.966103	178.480506
41877		9.544766	1.569810	-0.241515	-0.005747	-0.008329	-0.009077	-0.380371	-0.249023	0.641846	104.839522	-81.959062	178.447695
41878		9.543612	1.536337	-0.307135	-0.000048	-0.012694	-0.009862	-0.385498	-0.262451	0.654053	104.876790	-81.948440	178.418158
41879		9.539428	1.546986	-0.267583	0.004640	-0.015662	-0.008125	-0.383301	-0.258301	0.645752	104.944522	-81.940838	178.355523
41880		9.548011	1.481334	-0.252329	0.006602	-0.013942	-0.008214	-0.392334	-0.259521	0.652832	104.991455	-81.930893	178.313509
41881		9.565834	1.511556	-0.288373	0.003455	-0.017934	-0.005559	-0.383789	-0.255371	0.654053	105.069816	-81.924355	178.239449
41882		9.556312	1.520754	-0.322243	0.009671	-0.017142	-0.007042	-0.382324	-0.255371	0.646729	105.131950	-81.914628	178.184821
41883		9.579157	1.575238	-0.334564	0.014470	-0.011927	-0.000400	-0.388672	-0.255371	0.649902	105.198447	-81.911818	178.129118
41884		9.547360	1.587618	-0.342169	0.019399	-0.015736	-0.003662	-0.384033	-0.262939	0.650391	105.264231	-81.904162	178.079012
41885		9.552306	1.612208	-0.320133	0.020617	-0.012474	0.002506	-0.385986	-0.257568	0.647705	105.339346	-81.902857	178.018160
41886		9.561094	1.545536	-0.304295	0.015770	-0.001471	0.001939	-0.388916	-0.258545	0.640381	105.353145	-81.900404	178.014499
41887		9.507060	1.561404	-0.283934	-0.000594	0.010074	-0.001963	-0.391602	-0.251709	0.647705	105.323775	-81.900041	178.046909
41888		9.489127	1.531975	-0.248396	-0.014307	0.009741	-0.000209	-0.381104	-0.264404	0.650635	105.273932	-81.898210	178.093341
41889		9.534797	1.559373	-0.235149	-0.022253	0.000534	-0.004193	-0.385254	-0.256104	0.651123	105.266839	-81.895170	178.090715
41890		9.515952	1.577031	-0.299175	-0.024386	-0.004853	-0.004056	-0.388428	-0.257813	0.654053	105.264901	-81.888874	178.079813
41891		9.543628	1.574991	-0.252506	-0.027025	-0.009542	-0.002660	-0.387207	-0.259766	0.656738	105.295759	-81.885159	178.036090
41892		9.529793	1.617056	-0.293385	-0.020200	-0.007120	-0.001061	-0.388428	-0.249512	0.652832	105.307973	-81.880232	178.013109
41893		9.574830	1.586683	-0.296140	-0.028122	0.001234	-0.003357	-0.382324	-0.251221	0.649414	105.295676	-81.877759	178.012341
41894		9.606536	1.574633	-0.289605	-0.031938	0.000123	0.001168	-0.385254	-0.258789	0.648926	105.276343	-81.875208	178.022170
41895		9.597173	1.583137	-0.321403	-0.037040	-0.005587	0.003912	-0.391602	-0.255859	0.650391	105.293038	-81.875722	177.986956
41896		9.574287	1.528602	-0.310887	-0.038055	-0.010041	0.005868	-0.384766	-0.262207	0.648438	105.313392	-81.874231	177.947440
41897		9.588767	1.543944	-0.255511	-0.035151	-0.011058	0.007646	-0.382813	-0.267578	0.650391	105.356310	-81.875974	177.886831
41898		9.533758	1.524914	-0.300316	-0.032675	-0.004182	0.006865	-0.392822	-0.260254	0.645752	105.358129	-81.875822	177.864573
41899		9.515469	1.518313	-0.315052	-0.031827	-0.003391	0.004952	-0.382568	-0.255859	0.656982	105.370425	-81.877237	177.836820
41900		9.546811	1.529248	-0.358198	-0.023995	-0.002368	0.004030	-0.377197	-0.254639	0.652832	105.367463	-81.875891	177.828906
41901		9.542871	1.538927	-0.317015	-0.028782	-0.001715	-0.002047	-0.390381	-0.255615	0.650879	105.367568	-81.873692	177.815229
41902		9.557313	1.554735	-0.260419	-0.034538	0.007156	0.003708	-0.383301	-0.250488	0.646484	105.322323	-81.873594	177.847169
41903		9.547975	1.563294	-0.291247	-0.039393	0.006464	0.002019	-0.385498	-0.259521	0.653076	105.289015	-81.874883	177.861104
41904		9.584149	1.517577	-0.275649	-0.042184	0.009811	0.004593	-0.384766	-0.265137	0.653809	105.229877	-81.875690	177.903078
41905		9.589267	1.541674	-0.250382	-0.042858	0.006842	0.005893	-0.385742	-0.257080	0.647949	105.197181	-81.879173	177.914390
41906		9.593756	1.507907	-0.241032	-0.039789	0.003639	0.007056	-0.382080	-0.261475	0.651855	105.165373	-81.880381	177.925373
41907		9.626261	1.552544	-0.218537	-0.034155	0.003772	0.011222	-0.386963	-0.257324	0.648438	105.155134	-81.886349	177.919036
41908		9.607697	1.569054	-0.281255	-0.040173	0.012508	0.013250	-0.390381	-0.258789	0.650635	105.095436	-81.892323	177.959807
41909		9.621332	1.549342	-0.287777	-0.046858	0.024125	0.017156	-0.377930	-0.260986	0.648193	105.004943	-81.904604	178.027181
41910		9.679755	1.522171	-0.345374	-0.062543	0.032452	0.024542	-0.379883	-0.266113	0.647949	104.866271	-81.919756	178.134798
41911		9.734342	1.504074	-0.360491	-0.076174	0.049712	0.028044	-0.388672	-0.262207	0.650146	104.669511	-81.941760	178.292533
41912		9.743353	1.458625	-0.386403	-0.082978	0.069384	0.033162	-0.393066	-0.260498	0.641846	104.381419	-81.966868	178.536329
41913		9.797543	1.381989	-0.413715	-0.073372	0.084664	0.038350	-0.384033	-0.263428	0.652832	104.056203	-81.999301	178.825387
41914		9.842771	1.290146	-0.422559	-0.048048	0.103317	0.037347	-0.387695	-0.263184	0.642090	103.653477	-82.031064	179.206730
41915		9.847415	1.171765	-0.370377	-0.003118	0.112153	0.036978	-0.389893	-0.266113	0.643311	103.252080	-82.065855	179.613308
41916		9.879841	1.156258	-0.353363	0.050446	0.115975	0.024496	-0.394531	-0.257568	0.654053	102.836586	-82.091326	-179.936920
41917		9.776527	1.128260	-0.245224	0.096100	0.127799	0.022890	-0.387451	-0.262451	0.651367	102.409697	-82.119381	-179.447272
41918		9.759412	1.154286	-0.182999	0.128753	0.150785	0.009807	-0.390869	-0.265625	0.646729	101.880722	-82.139868	-178.836079
41919		9.656131	1.185892	-0.056511	0.120609	0.167186	0.004978	-0.395264	-0.258057	0.645508	101.286127	-82.161176	-178.163016
41920		9.539218	1.260419	0.031012	0.098372	0.185350	-0.001309	-0.397461	-0.259521	0.650879	100.582692	-82.177399	-177.395493
41921		9.435350	1.306888	-0.003518	0.079977	0.189350	-0.009508	-0.392822	-0.252441	0.643311	99.856644	-82.190598	-176.613297
41922		9.480607	1.300759	-0.038935	0.062274	0.171625	-0.013203	-0.393311	-0.262451	0.643555	99.176474	-82.196249	-175.886764
41923		9.531046	1.274207	-0.230900	0.077864	0.151210	-0.008474	-0.399170	-0.257568	0.643066	98.603847	-82.204184	-175.260673
41924		9.631731	1.240963	-0.403174	0.130966	0.133299	-0.012916	-0.396729	-0.254883	0.644287	98.119757	-82.204779	-174.695708
41925		9.650352	1.212974	-0.441857	0.192957	0.132310	-0.005834	-0.397461	-0.261230	0.640381	97.691445	-82.211262	-174.148731
41926		9.609925	1.210127	-0.421768	0.221477	0.120903	-0.003956	-0.413574	-0.254395	0.645996	97.315360	-82.214876	-173.639932
41927		9.515013	1.223343	-0.383586	0.220388	0.122298	-0.005171	-0.396484	-0.250732	0.644287	96.943498	-82.220018	-173.134081
41928		9.383944	1.317410	-0.296722	0.195906	0.117388	-0.013220	-0.402100	-0.251709	0.641846	96.561833	-82.217311	-172.633957
41929		9.252517	1.412674	-0.210968	0.152870	0.103301	-0.022585	-0.405518	-0.249023	0.646973	96.222059	-82.210443	-172.199533
41930		9.203182	1.478660	-0.211684	0.101876	0.078702	-0.027886	-0.403564	-0.248535	0.640381	95.942815	-82.196220	-171.856600
41931		9.240303	1.481607	-0.290806	0.052015	0.037495	-0.029242	-0.401611	-0.245850	0.646484	95.817676	-82.181170	-171.697122
41932		9.336936	1.458151	-0.431782	0.023212	0.008791	-0.026276	-0.402344	-0.257813	0.649902	95.786413	-82.163597	-171.647697
41933		9.436419	1.320972	-0.530988	0.010479	-0.009307	-0.033208	-0.400146	-0.250732	0.644531	95.830243	-82.143545	-171.682795
41934		9.508735	1.221347	-0.614449	0.009538	-0.012451	-0.035637	-0.398193	-0.250000	0.643311	95.875028	-82.119311	-171.724223
41935		9.525895	1.173581	-0.614896	0.026652	-0.003239	-0.048039	-0.400879	-0.256104	0.632324	95.896494	-82.091157	-171.727391
41936		9.542182	1.103889	-0.565016	0.026978	0.005307	-0.056293	-0.395508	-0.257080	0.642578	95.869248	-82.056229	-171.682898
41937		9.558673	1.092927	-0.500064	0.026187	0.003494	-0.063116	-0.399414	-0.249512	0.646240	95.856752	-82.019875	-171.652043
41938		9.525699	1.146185	-0.443655	0.026245	-0.016358	-0.065310	-0.400391	-0.248535	0.640137	95.914708	-81.978533	-171.694898
41939		9.446461	1.149553	-0.352461	0.027947	-0.026552	-0.070187	-0.400879	-0.244873	0.642334	96.021254	-81.936368	-171.783244
41940		9.433403	1.220400	-0.447074	0.028907	-0.045612	-0.074281	-0.397705	-0.243652	0.645996	96.192484	-81.888248	-171.933373
41941		9.400664	1.239375	-0.459043	0.038562	-0.052373	-0.075649	-0.390869	-0.249023	0.642090	96.402868	-81.841279	-172.120490
41942		9.359198	1.324512	-0.489743	0.043917	-0.064090	-0.076210	-0.391113	-0.248535	0.648926	96.652070	-81.790671	-172.339602
41943		9.416777	1.398254	-0.477022	0.041482	-0.068619	-0.071078	-0.397217	-0.239746	0.648926	96.925158	-81.744977	-172.588429
41944		9.483648	1.428373	-0.496442	0.023257	-0.071766	-0.068079	-0.396484	-0.248047	0.647461	97.191254	-81.698199	-172.835673
41945		9.481821	1.411779	-0.453904	0.011865	-0.072441	-0.063410	-0.392090	-0.244873	0.642578	97.460393	-81.656251	-173.097716
41946		9.467041	1.377996	-0.467487	0.007983	-0.079419	-0.059446	-0.400879	-0.250244	0.641357	97.745382	-81.613462	-173.374178
41947		9.497079	1.348959	-0.419185	0.005845	-0.090703	-0.059823	-0.389404	-0.250977	0.649170	98.077546	-81.571724	-173.703474
41948		9.509518	1.336462	-0.436364	-0.003149	-0.095068	-0.065131	-0.395752	-0.242676	0.645508	98.405976	-81.523969	-174.033827
41949		9.539546	1.308659	-0.389239	-0.018670	-0.102786	-0.077074	-0.389160	-0.249023	0.645752	98.753044	-81.470866	-174.392476
41950		9.556084	1.242498	-0.348300	-0.044941	-0.098835	-0.088914	-0.389893	-0.257813	0.650391	99.050583	-81.408824	-174.711221
41951		9.581455	1.331074	-0.343947	-0.068023	-0.084985	-0.102864	-0.386719	-0.246338	0.645508	99.278790	-81.342218	-174.978364
41952		9.625200	1.311715	-0.351847	-0.064266	-0.061489	-0.117708	-0.379395	-0.250000	0.643311	99.401694	-81.266937	-175.135523
41953		9.673203	1.341805	-0.384120	-0.025106	-0.041873	-0.137231	-0.384033	-0.250000	0.653320	99.469085	-81.184768	-175.215173
41954		9.743265	1.359666	-0.277600	0.033030	-0.025391	-0.157873	-0.384033	-0.254639	0.652344	99.489679	-81.090142	-175.208377
41955		9.736314	1.362824	-0.189173	0.094834	0.003725	-0.168841	-0.382080	-0.258545	0.650879	99.441494	-80.994398	-175.101494
41956		9.743255	1.325535	-0.056649	0.141301	0.048635	-0.169028	-0.389893	-0.259521	0.643555	99.255776	-80.900327	-174.828283
41957		9.622803	1.357075	0.003191	0.186465	0.090016	-0.162264	-0.380371	-0.247559	0.657471	98.966287	-80.816031	-174.423761
41958		9.426414	1.334697	-0.017920	0.237283	0.123371	-0.139288	-0.388428	-0.249023	0.641602	98.601374	-80.745001	-173.911331
41959		9.265441	1.425701	-0.091822	0.274407	0.161049	-0.106038	-0.392090	-0.253662	0.650391	98.157165	-80.697693	-173.298826
41960		9.165062	1.509072	-0.270234	0.277360	0.249820	-0.063606	-0.384277	-0.248779	0.656006	97.425027	-80.678118	-172.390984
41961		9.192559	1.578093	-0.347188	0.261062	0.386548	-0.020610	-0.391846	-0.246338	0.655518	96.236931	-80.692127	-171.032338
41962		9.297370	1.616382	-0.291768	0.256567	0.516204	0.012748	-0.398682	-0.246582	0.644043	94.595243	-80.724402	-169.214144
41963		9.473116	1.578580	-0.077414	0.261419	0.614021	0.032211	-0.400391	-0.241943	0.646240	92.609283	-80.764402	-167.047136
41964		9.629980	1.635221	0.044357	0.271639	0.670432	0.037593	-0.406982	-0.234131	0.637451	90.409581	-80.793247	-164.655786
41965		9.845061	1.741970	0.003782	0.282896	0.683850	0.029741	-0.411621	-0.242920	0.641602	88.163581	-80.804989	-162.213222
41966		9.831565	1.918249	-0.001898	0.325688	0.666088	0.008738	-0.406738	-0.238281	0.630615	86.004053	-80.787869	-159.830064
41967		9.532831	1.957356	0.022499	0.402271	0.602056	0.009017	-0.407471	-0.235596	0.634766	84.127794	-80.763031	-157.692625
41968		9.451022	1.888439	0.000298	0.440118	0.538393	-0.008959	-0.406494	-0.225586	0.636719	82.514988	-80.719299	-155.796845
41969		9.379214	2.041559	-0.254793	0.411838	0.491598	-0.014745	-0.415771	-0.230225	0.641113	81.069091	-80.670494	-154.089457
41970		9.582795	2.311496	-0.261771	0.353867	0.455135	-0.014087	-0.413330	-0.222412	0.633057	79.733616	-80.616478	-152.521428
41971		9.621202	2.432690	-0.212657	0.300931	0.401419	-0.025984	-0.427490	-0.218506	0.630615	78.572526	-80.558415	-151.166618
41972		9.693501	2.428736	-0.183090	0.273580	0.330045	-0.072689	-0.425537	-0.224609	0.632324	77.686118	-80.476304	-150.098612
41973		9.844540	2.457421	-0.332179	0.232498	0.248532	-0.147179	-0.429199	-0.223633	0.624023	77.117050	-80.362836	-149.383296
41974		9.949147	2.432449	-0.596612	0.149035	0.175660	-0.232389	-0.423340	-0.216553	0.627197	76.817580	-80.207817	-148.987731
41975		9.986174	2.248085	-0.903178	0.052922	0.071988	-0.321486	-0.416260	-0.225830	0.616455	76.869830	-80.018971	-149.006883
41976		9.789040	2.197034	-1.181931	0.024537	0.010449	-0.376644	-0.421631	-0.226807	0.623047	77.137271	-79.804782	-149.256215
41977		9.821779	2.121158	-1.319330	0.011486	-0.017079	-0.405569	-0.427002	-0.225830	0.628174	77.488420	-79.580123	-149.603323
41978		9.724881	2.232993	-1.450328	-0.022109	-0.002732	-0.413361	-0.423828	-0.231201	0.626953	77.769235	-79.346513	-149.896118
41979		9.749090	2.210819	-1.377260	0.002003	0.035597	-0.419641	-0.421875	-0.230957	0.625244	77.942500	-79.107044	-150.068207
41980		9.854806	2.280951	-1.285830	0.083843	0.023500	-0.413805	-0.430908	-0.230713	0.620361	78.187127	-78.869666	-150.263340
41981		9.970339	2.396280	-1.118015	0.125898	0.033655	-0.385002	-0.415527	-0.239990	0.624023	78.400192	-78.649618	-150.403905
41982		9.906347	2.464529	-0.777597	0.137936	0.056376	-0.345856	-0.425049	-0.229980	0.627441	78.530068	-78.446332	-150.451652
41983		9.707623	2.475770	-0.417613	0.121768	0.065187	-0.305223	-0.415527	-0.241699	0.623047	78.600886	-78.267378	-150.449599
41984		9.348910	2.550476	-0.262046	0.077685	0.073467	-0.263065	-0.417725	-0.230469	0.626221	78.602640	-78.108670	-150.400914
41985		9.115364	2.600427	-0.221499	0.016636	0.112946	-0.220662	-0.422119	-0.238525	0.627930	78.441801	-77.971751	-150.223634
41986		8.850930	2.655558	-0.187244	-0.011408	0.136891	-0.187149	-0.421143	-0.235596	0.624756	78.190472	-77.848288	-149.967102
41987		8.659952	2.643260	-0.266077	-0.020461	0.159665	-0.168307	-0.423828	-0.236328	0.625488	77.867685	-77.734851	-149.645709
41988		8.584941	2.583038	-0.214271	-0.024277	0.163434	-0.145435	-0.416016	-0.240479	0.614746	77.528229	-77.630916	-149.306570
41989		8.549702	2.532039	-0.096753	-0.020721	0.169116	-0.125653	-0.420898	-0.234131	0.623291	77.168506	-77.539338	-148.947256
41990		8.677642	2.420199	-0.073822	-0.029514	0.192492	-0.122446	-0.420898	-0.242188	0.614502	76.751106	-77.443517	-148.531120
41991		8.804916	2.367305	0.068729	-0.044191	0.204729	-0.112001	-0.430908	-0.239014	0.613525	76.292326	-77.353684	-148.083824
41992		8.990410	2.399194	0.108900	-0.059662	0.198339	-0.097036	-0.436768	-0.239746	0.615479	75.839271	-77.269751	-147.649920
41993		9.113476	2.474615	0.151010	-0.079863	0.179540	-0.073542	-0.421387	-0.243408	0.622070	75.409609	-77.203330	-147.253151
41994		9.109978	2.558253	0.129083	-0.113534	0.153549	-0.039445	-0.429688	-0.236816	0.616699	75.008378	-77.156485	-146.903384
41995		8.993501	2.664139	0.131285	-0.139546	0.121658	-0.001858	-0.429199	-0.244629	0.619141	74.644569	-77.137171	-146.609094
41996		8.954651	2.782755	0.083908	-0.137465	0.091876	0.033730	-0.435303	-0.241455	0.613525	74.333716	-77.139243	-146.365298
41997		8.902815	2.832531	-0.100193	-0.137661	0.057178	0.043865	-0.426758	-0.242676	0.615479	74.096484	-77.154491	-146.199730
41998		8.873611	2.884749	-0.237903	-0.134349	0.014455	0.046888	-0.435303	-0.241943	0.613037	73.964767	-77.175545	-146.138189
41999		9.024321	3.018268	-0.449615	-0.131501	0.013844	0.052595	-0.428467	-0.240479	0.615723	73.828948	-77.202280	-146.073030
42000		9.018529	3.098485	-0.515755	-0.152918	0.027328	0.068434	-0.420410	-0.245361	0.615234	73.639634	-77.233060	-145.962960
42001		9.083723	3.173152	-0.682577	-0.189551	0.035813	0.098468	-0.430664	-0.242432	0.614990	73.383050	-77.281327	-145.808105
42002		9.099761	3.251748	-0.799434	-0.228038	0.074936	0.144810	-0.432373	-0.248291	0.608154	72.977395	-77.345809	-145.520572
42003		9.175263	3.239928	-0.706763	-0.256782	0.104945	0.168660	-0.437012	-0.242920	0.620361	72.455408	-77.420231	-145.133297
42004		9.102675	3.265970	-0.524054	-0.255950	0.099856	0.193202	-0.429443	-0.250732	0.609619	71.925545	-77.505613	-144.735561
42005		9.110857	3.168639	-0.468649	-0.257173	0.099509	0.229386	-0.433105	-0.246826	0.611084	71.355269	-77.612437	-144.299328
42006		9.408726	3.105334	-0.278206	-0.289043	0.120246	0.226092	-0.430664	-0.246338	0.606934	70.714339	-77.710012	-143.807975
42007		9.537909	3.049914	-0.143982	-0.325868	0.102287	0.215127	-0.435547	-0.250244	0.607178	70.092741	-77.806551	-143.359833
42008		9.572543	3.023266	-0.041560	-0.370506	0.076094	0.229735	-0.436279	-0.253174	0.610352	69.494435	-77.912524	-142.959897
42009		9.452076	2.884533	-0.097721	-0.410069	0.042884	0.248977	-0.436523	-0.249023	0.603516	68.924169	-78.037274	-142.613930
42010		9.397712	2.670021	-0.435569	-0.409496	0.020070	0.262081	-0.437744	-0.244385	0.605469	68.395437	-78.170481	-142.308390
42011		9.332211	2.392486	-0.986519	-0.358577	0.018106	0.268491	-0.431396	-0.249268	0.604492	67.878959	-78.309524	-141.987566
42012		9.508130	2.199716	-1.205559	-0.268795	0.030878	0.263739	-0.435059	-0.250977	0.600830	67.383022	-78.440202	-141.632316
42013		9.618443	2.049858	-1.064731	-0.183236	0.033989	0.265942	-0.431396	-0.249268	0.602295	66.909282	-78.573214	-141.252892
42014		9.676843	1.904827	-0.879813	-0.121456	0.030343	0.257672	-0.446045	-0.251953	0.609863	66.487685	-78.699610	-140.888295
42015		9.772777	1.876967	-0.746938	-0.066096	0.051449	0.241917	-0.439209	-0.253174	0.611328	66.044121	-78.814816	-140.471541
42016		9.740045	1.896164	-0.580842	-0.022536	0.065317	0.225993	-0.441650	-0.251953	0.599609	65.607095	-78.915373	-140.034028
42017		9.573784	2.026380	-0.476217	0.006058	0.037119	0.212300	-0.445068	-0.251221	0.595215	65.262873	-79.017368	-139.676667
42018		9.357435	2.220000	-0.388791	0.023503	-0.006567	0.211067	-0.445801	-0.238037	0.600342	65.049487	-79.126424	-139.441041
42019		9.030032	2.389706	-0.400571	0.021196	-0.057737	0.228790	-0.444092	-0.244629	0.596680	64.939412	-79.259426	-139.313497
42020		8.698033	2.567200	-0.449981	-0.012854	-0.122131	0.243422	-0.436035	-0.237305	0.600342	64.974571	-79.413255	-139.351119
42021		8.450249	2.752034	-0.516163	-0.060784	-0.201278	0.257366	-0.447510	-0.234131	0.601807	65.180111	-79.595796	-139.592460
42022		8.173906	2.920930	-0.693080	-0.123960	-0.283453	0.267285	-0.440430	-0.240479	0.600586	65.590993	-79.800509	-140.076229
42023		8.162158	3.092149	-0.916291	-0.201261	-0.316632	0.277334	-0.438721	-0.243164	0.602051	66.051614	-80.019974	-140.658098
42024		8.418058	3.087199	-0.790915	-0.267223	-0.218413	0.277446	-0.437256	-0.240479	0.613770	66.207606	-80.213657	-140.966676
42025		8.665027	2.783047	-0.498371	-0.274622	-0.235896	0.268256	-0.438232	-0.248047	0.611084	66.425594	-80.408886	-141.344334
42026		9.380548	2.044661	-0.147681	-0.212142	-0.231499	0.220768	-0.430908	-0.241699	0.609131	66.753783	-80.575294	-141.794876
42027		9.999506	1.320400	-0.107639	-0.157389	-0.198370	0.142081	-0.442383	-0.245117	0.608154	67.116602	-80.694889	-142.250885
42028		10.474203	0.908990	-0.798515	-0.055432	-0.152751	0.026538	-0.436523	-0.250732	0.606445	67.566170	-80.740229	-142.733234
42029		11.000727	0.737377	-0.811810	0.175505	-0.173519	-0.063066	-0.431885	-0.240967	0.615967	68.327697	-80.744207	-143.399823
42030		11.487866	0.450880	-0.347266	0.421340	-0.194420	-0.124478	-0.431641	-0.243408	0.610107	69.386284	-80.715442	-144.222528
42031		11.904883	0.014598	-0.030423	0.626529	-0.109488	-0.165725	-0.427246	-0.227051	0.615967	70.315904	-80.647996	-144.797699
42032		12.200948	-0.479671	0.308991	0.880117	-0.024291	-0.179692	-0.425537	-0.232422	0.616943	71.127372	-80.553048	-145.103245
42033		12.114859	-0.721332	1.018778	1.035300	-0.097416	-0.176112	-0.423828	-0.219482	0.625732	72.239684	-80.474836	-145.626464
42034		11.164722	-0.131635	1.588146	1.000796	-0.307422	-0.176651	-0.424316	-0.221680	0.617188	74.011827	-80.426793	-146.836047
42035		9.958777	1.076524	1.639296	0.953656	-0.497496	-0.159418	-0.429199	-0.215576	0.625244	76.341383	-80.411364	-148.641311
42036		9.091444	2.448499	0.999145	0.935398	-0.674723	-0.084472	-0.421387	-0.204590	0.635742	79.198207	-80.443441	-150.989779
42037		8.963330	3.663259	-0.024495	0.914175	-0.752345	0.077698	-0.409180	-0.200439	0.631348	82.233627	-80.556745	-153.533218
42038		9.150296	4.738242	-0.022877	0.749324	-0.672153	0.282773	-0.412354	-0.194336	0.640381	84.898141	-80.758170	-155.792732
42039		9.508787	5.343020	0.466405	0.424732	-0.462613	0.431792	-0.408203	-0.190186	0.637939	86.689479	-81.024032	-157.357376
42040		9.801118	5.479651	0.763946	0.078491	-0.281089	0.466302	-0.409668	-0.187012	0.641846	87.703360	-81.295679	-158.332521
42041		10.260694	4.921243	0.901849	-0.176233	-0.145487	0.378438	-0.410400	-0.186035	0.640381	88.114068	-81.515017	-158.846915
42042		10.674586	3.782954	1.236393	-0.361271	-0.038874	0.210928	-0.411621	-0.196045	0.639648	88.048597	-81.633257	-158.984675
42043		11.360578	2.444634	1.709203	-0.559921	0.002904	0.007100	-0.411133	-0.197266	0.637451	87.728606	-81.636871	-158.982407
42044		11.952685	1.200460	2.120760	-0.770075	0.030759	-0.187623	-0.406494	-0.202393	0.646240	87.218325	-81.525287	-158.907903
42045		12.072771	0.310570	2.347979	-0.928827	0.026301	-0.332723	-0.405762	-0.209229	0.636230	86.666712	-81.333753	-158.885152
42046		11.693236	-0.204020	2.258981	-0.999047	-0.002978	-0.402123	-0.406250	-0.214844	0.634766	86.215437	-81.100593	-159.002781
42047		11.062954	-0.438473	1.932562	-0.976426	0.022907	-0.396552	-0.403320	-0.212646	0.633545	85.687071	-80.872686	-159.031153
42048		10.130521	-0.409259	1.894526	-0.907360	0.044336	-0.337915	-0.406006	-0.230957	0.632568	85.122793	-80.674576	-158.980990
42049		9.899027	-0.193236	1.833689	-0.800857	0.084695	-0.234358	-0.404053	-0.230957	0.640137	84.457685	-80.536137	-158.768831
42050		9.779134	0.365392	1.684577	-0.665663	-0.015490	-0.090311	-0.407227	-0.238525	0.634521	84.175278	-80.482529	-158.864273
42051		9.604670	0.727596	1.337998	-0.441538	-0.068976	0.007083	-0.410645	-0.241943	0.636719	84.166484	-80.490286	-159.108761
42052		9.279377	0.956305	1.249994	-0.288293	-0.053867	0.087839	-0.410156	-0.248047	0.632568	84.169081	-80.540556	-159.274160
42053		9.244226	1.143466	1.015020	-0.209062	-0.035464	0.165778	-0.401123	-0.249756	0.632568	84.124956	-80.636823	-159.347747
42054		9.033778	1.293712	0.685630	-0.121202	-0.048526	0.242233	-0.409180	-0.241943	0.638184	84.152411	-80.774747	-159.441733
42055		9.226807	1.497641	0.570480	-0.109285	-0.005682	0.294035	-0.403320	-0.244873	0.626465	84.014421	-80.942363	-159.362286
42056		8.870661	1.397890	0.624398	-0.189640	0.105772	0.321844	-0.406982	-0.245850	0.636963	83.411121	-81.116130	-158.857000
42057		9.041224	1.323002	0.662970	-0.291875	0.161168	0.326812	-0.407959	-0.245850	0.634033	82.516260	-81.290398	-158.117612
42058		8.707573	0.964742	0.695187	-0.395722	0.250438	0.323994	-0.414307	-0.241455	0.626465	81.196321	-81.450998	-157.007489
42059		8.783811	0.753331	0.747297	-0.415941	0.252447	0.292945	-0.413574	-0.251221	0.629639	79.828583	-81.592515	-155.862494
42060		8.430175	0.534379	0.742922	-0.386119	0.239825	0.261201	-0.410889	-0.249023	0.631348	78.512562	-81.710981	-154.751695
42061		8.765222	0.440139	0.763996	-0.327876	0.226385	0.252504	-0.421387	-0.242188	0.626221	77.251795	-81.825079	-153.664522
42062		9.016478	0.452021	0.539784	-0.336820	0.201104	0.297600	-0.422607	-0.242432	0.618652	76.012914	-81.961786	-152.603485
42063		9.012835	0.626736	0.530361	-0.293304	0.279906	0.358234	-0.419189	-0.244141	0.624023	74.374789	-82.119197	-151.116021
42064		9.069616	0.691005	0.427960	-0.200558	0.291559	0.387848	-0.416992	-0.247070	0.624268	72.648679	-82.282504	-149.485120
42065		8.957738	0.722103	0.405789	-0.144167	0.283226	0.375601	-0.427979	-0.248291	0.620361	70.930110	-82.436267	-147.831410
42066		8.459625	0.607097	0.580460	-0.092958	0.272662	0.365884	-0.424316	-0.239990	0.616943	69.238202	-82.577908	-146.174290
42067		8.552400	0.424866	0.521221	-0.092632	0.233349	0.295218	-0.432129	-0.249756	0.613281	67.758507	-82.686411	-144.732705
42068		8.484221	0.231486	0.523888	-0.098490	0.254844	0.232209	-0.434570	-0.247314	0.606445	66.265275	-82.749763	-143.279980
42069		8.554360	0.052947	0.666646	-0.108112	0.229061	0.164563	-0.434570	-0.244141	0.605713	64.970018	-82.781663	-142.033681
42070		8.947270	0.026616	0.644160	-0.110521	0.203673	0.109441	-0.440674	-0.238770	0.607178	63.883311	-82.785849	-140.998274
42071		9.309544	0.109073	0.548068	-0.114745	0.176765	0.061762	-0.432617	-0.237305	0.612793	62.992678	-82.772469	-140.163702
42072		9.431974	0.246575	0.143011	-0.074927	0.115729	0.045564	-0.437500	-0.238770	0.602295	62.413422	-82.763479	-139.618408
42073		9.281271	0.243769	-0.481546	0.038573	0.008694	0.047386	-0.437744	-0.236572	0.604248	62.316340	-82.785506	-139.495182
42074		9.179620	0.162787	-0.926650	0.143500	-0.052424	0.056322	-0.432617	-0.239746	0.602783	62.513347	-82.826285	-139.606325
42075		9.129926	0.117521	-1.226656	0.226952	-0.060089	0.073498	-0.435547	-0.240967	0.612549	62.747922	-82.879788	-139.708596
42076		9.060450	0.051930	-1.144442	0.281344	-0.052040	0.079803	-0.437500	-0.229980	0.614502	62.978240	-82.932389	-139.773932
42077		9.026864	-0.070221	-0.864823	0.275208	-0.036499	0.072322	-0.428467	-0.235352	0.617920	63.150190	-82.979071	-139.785220
42078		8.709468	-0.206619	-0.574681	0.281996	-0.056589	0.018630	-0.432129	-0.232422	0.606689	63.532918	-83.001595	-140.003186
42079		8.870599	0.037999	-0.430433	0.268820	-0.076420	-0.044627	-0.426514	-0.229980	0.608154	64.114231	-82.998209	-140.430599
42080		8.828948	0.345932	-0.781749	0.309174	-0.081929	-0.086665	-0.432861	-0.224854	0.614258	64.833361	-82.972036	-140.972225
42081		8.307186	0.403182	-1.136199	0.427758	-0.119174	-0.115922	-0.431152	-0.228516	0.619873	65.820382	-82.940391	-141.716713
42082		7.599338	0.120015	-1.224009	0.519691	-0.166544	-0.161570	-0.427979	-0.224609	0.620361	67.143238	-82.892001	-142.744989
42083		8.287583	0.263322	-1.276564	0.474968	-0.149921	-0.218229	-0.429932	-0.220215	0.618652	68.441400	-82.808844	-143.775965
42084		9.003211	0.520925	-1.392099	0.406452	0.001550	-0.198308	-0.425537	-0.215820	0.619629	69.015275	-82.701030	-144.114983
42085		9.003609	0.412502	-1.173420	0.486504	-0.046419	-0.161951	-0.433838	-0.215820	0.621582	69.755996	-82.623642	-144.577681
42086		9.387070	0.335386	-0.895162	0.475672	-0.066669	-0.132915	-0.429688	-0.214355	0.622803	70.526734	-82.563405	-145.075137
42087		9.868675	0.446994	-0.749806	0.412554	0.000026	-0.128231	-0.431885	-0.212891	0.633301	70.962517	-82.494100	-145.273162
42088		9.981493	0.542937	-0.424770	0.376995	0.055025	-0.143871	-0.425293	-0.210449	0.625000	71.178054	-82.404332	-145.267829
42089		10.089194	0.763864	-0.177285	0.312937	0.028910	-0.148253	-0.420166	-0.207520	0.631104	71.457735	-82.318605	-145.366017
42090		9.857966	0.861721	-0.006939	0.251005	-0.013905	-0.147868	-0.422852	-0.209961	0.626221	71.876644	-82.239150	-145.638650
42091		9.893361	1.056491	-0.085877	0.196894	-0.059145	-0.140439	-0.422119	-0.210693	0.628906	72.419611	-82.172970	-146.069723
42092		9.716332	1.204944	-0.552058	0.209088	-0.069039	-0.123191	-0.424072	-0.204590	0.625488	72.987330	-82.115761	-146.517180
42093		9.630199	1.198496	-0.946819	0.294372	-0.101454	-0.090320	-0.425293	-0.196045	0.632568	73.678352	-82.082849	-147.041451
42094		9.485349	0.981803	-1.163226	0.394304	-0.125976	-0.062494	-0.418457	-0.194092	0.632813	74.495214	-82.066627	-147.633024
42095		9.722189	0.729088	-0.956316	0.454400	-0.104421	-0.032553	-0.418457	-0.196289	0.635498	75.218955	-82.064203	-148.097797
42096		9.878700	0.447420	-0.574880	0.424465	-0.108541	0.022400	-0.425049	-0.193604	0.632324	75.894008	-82.090538	-148.528821
42097		10.298356	0.452279	-0.109649	0.315915	-0.084879	0.080841	-0.424561	-0.184082	0.628906	76.349962	-82.147086	-148.803296
42098		10.719114	0.460759	-0.019818	0.218578	-0.093830	0.127356	-0.410889	-0.184326	0.636475	76.754718	-82.228959	-149.080595
42099		11.226520	0.675087	0.184686	0.158679	-0.096985	0.148336	-0.415039	-0.179199	0.631348	77.117469	-82.324205	-149.351825
42100		11.694473	1.302184	0.558202	0.155768	0.009604	0.140033	-0.420166	-0.186035	0.632324	77.055592	-82.399608	-149.194513
42101		11.998833	2.031832	0.853414	0.216408	0.155105	0.116220	-0.417969	-0.182129	0.632813	76.429203	-82.443944	-148.434428
42102		12.360719	2.857190	0.641403	0.124575	0.130404	0.080896	-0.424561	-0.166992	0.633057	75.891845	-82.469548	-147.815622
42103		13.033325	3.619179	0.534315	-0.217497	0.039326	0.069886	-0.409180	-0.176758	0.638672	75.541473	-82.502720	-147.584820
42104		13.241636	4.344151	0.452427	-0.548185	-0.193411	0.101807	-0.417236	-0.184326	0.629150	75.961553	-82.584959	-148.320440
42105		12.949248	4.019499	0.699914	-0.624553	-0.439524	0.119570	-0.408936	-0.182373	0.639648	77.395458	-82.709566	-150.123950
42106		11.929419	2.679139	0.561919	-0.507491	-0.539119	0.080413	-0.409424	-0.196045	0.641113	79.437820	-82.814935	-152.471017
42107		10.701822	1.313226	0.531793	-0.184081	-0.613063	0.025809	-0.404785	-0.180420	0.641602	82.092887	-82.885714	-155.250090
42108		9.727035	0.102602	0.840054	0.131335	-0.658139	-0.046345	-0.403564	-0.187500	0.639648	85.219521	-82.898938	-158.320322
42109		9.254067	-0.538398	0.941694	0.288962	-0.582693	-0.111745	-0.392578	-0.182373	0.638916	88.097124	-82.854107	-161.050361
42110		9.098352	-0.658594	0.869255	0.363862	-0.402645	-0.126079	-0.399170	-0.174805	0.644531	90.164881	-82.783174	-162.919673
42111		8.829691	-0.596100	0.863497	0.464950	-0.215363	-0.053297	-0.393311	-0.179199	0.655029	91.414704	-82.750468	-163.907897
42112		8.915175	-0.430971	0.997250	0.609988	-0.015693	0.115576	-0.400635	-0.177734	0.646240	91.868854	-82.814214	-164.008819
42113		8.855301	-0.251825	1.223122	0.761825	0.201924	0.335718	-0.392090	-0.172363	0.653320	91.434679	-83.009335	-163.128358
42114		8.779188	0.239909	1.569513	0.811763	0.460623	0.528331	-0.390137	-0.157959	0.647949	89.744854	-83.312728	-160.953540
42115		8.935287	0.981324	1.811194	0.792116	0.539665	0.650368	-0.400635	-0.156982	0.654053	87.422764	-83.677300	-158.156548
42116		9.572816	2.015347	1.641910	0.742002	0.563688	0.670545	-0.407959	-0.143066	0.649414	84.629087	-84.036455	-154.914819
42117		10.270751	2.851312	1.691739	0.718875	0.567283	0.559436	-0.412109	-0.133301	0.642578	81.516034	-84.315310	-151.368531
42118		10.316300	3.311661	1.763935	0.746899	0.482836	0.400702	-0.408691	-0.125977	0.648682	78.786796	-84.492556	-148.191963
42119		10.180440	3.354160	1.871725	0.765413	0.336676	0.256585	-0.422363	-0.118408	0.636963	76.946237	-84.595628	-145.899407
42120		9.869638	3.179577	1.765641	0.690312	0.200633	0.059550	-0.416504	-0.114746	0.641113	76.102985	-84.600363	-144.650889
42121		9.633731	2.982537	1.309419	0.581619	0.042097	-0.100264	-0.413086	-0.120361	0.637207	76.352860	-84.538739	-144.564066
42122		9.610787	2.560243	0.791274	0.439781	-0.050152	-0.255993	-0.422607	-0.106201	0.640869	77.266105	-84.400731	-145.224258
42123		9.557222	2.158928	0.495249	0.358232	-0.057167	-0.379018	-0.421143	-0.109131	0.635742	78.271135	-84.195305	-146.024931
42124		9.315578	1.594459	0.497601	0.355363	-0.113401	-0.479420	-0.421387	-0.109375	0.641357	79.619376	-83.936267	-147.171563
42125		9.145745	1.086220	0.477456	0.384439	-0.115269	-0.532789	-0.408691	-0.107910	0.642822	80.929131	-83.646338	-148.264390
42126		9.070825	0.726748	0.481274	0.429959	-0.069644	-0.569675	-0.411865	-0.106934	0.645996	81.967988	-83.327500	-149.057897
42127		8.849729	0.594152	0.384359	0.493241	-0.113461	-0.582918	-0.407715	-0.109131	0.645752	83.164742	-83.004464	-149.975494
42128		8.977439	0.733214	0.016972	0.558840	-0.140658	-0.574207	-0.407471	-0.105225	0.650635	84.425738	-82.684047	-150.919559
42129		9.192700	1.217257	-0.530069	0.595212	-0.125201	-0.578125	-0.405273	-0.102539	0.641113	85.546260	-82.360016	-151.702640
42130		9.142679	1.919659	-0.990337	0.609017	-0.094968	-0.579205	-0.405518	-0.091553	0.650635	86.477294	-82.030640	-152.286031
42131		8.959924	2.442694	-1.092900	0.627445	-0.073369	-0.566379	-0.406250	-0.099121	0.649170	87.268037	-81.708534	-152.718553
42132		8.903125	2.961875	-1.190932	0.566211	-0.068768	-0.546383	-0.404053	-0.095947	0.645752	87.961852	-81.395213	-153.087777
42133		8.693103	3.288774	-1.200635	0.442284	0.010762	-0.498595	-0.404297	-0.099854	0.652588	88.249289	-81.109090	-153.119102
42134		8.457882	3.277006	-1.169946	0.336156	0.029399	-0.427241	-0.406250	-0.095947	0.644531	88.396976	-80.861647	-153.069291
42135		8.217091	3.158146	-0.979906	0.201762	0.042626	-0.360730	-0.401855	-0.101074	0.656006	88.410100	-80.653955	-152.962360
42136		8.149410	2.891330	-0.968709	0.084714	0.074050	-0.289768	-0.400635	-0.090088	0.645508	88.248289	-80.484433	-152.744699
42137		8.031657	2.577438	-0.942390	0.016930	0.132032	-0.225552	-0.400391	-0.093994	0.642578	87.848042	-80.352299	-152.325843
42138		8.193610	2.379374	-0.940979	-0.008261	0.189070	-0.170876	-0.406738	-0.095215	0.641602	87.250564	-80.247503	-151.719985
42139		8.438874	2.241624	-0.946331	0.009311	0.248085	-0.133484	-0.405029	-0.094238	0.640381	86.469735	-80.162981	-150.919081
42140		8.541651	2.249151	-0.838577	0.034535	0.294194	-0.103406	-0.404785	-0.094727	0.638916	85.563379	-80.089854	-149.974415
42141		8.573302	2.261730	-0.573994	0.020036	0.276318	-0.082922	-0.407959	-0.093018	0.634033	84.709387	-80.028765	-149.092641
42142		8.372529	2.299738	-0.389034	-0.021739	0.223013	-0.064876	-0.404541	-0.094482	0.638916	84.013036	-79.976957	-148.393532
42143		8.009278	2.297365	-0.161652	-0.108981	0.180264	-0.055669	-0.412354	-0.100830	0.642334	83.402339	-79.933646	-147.833629
42144		7.617785	2.361368	-0.067708	-0.217267	0.147853	-0.040485	-0.414307	-0.104248	0.639893	82.837554	-79.898235	-147.381711
42145		7.319936	2.395444	-0.098408	-0.341707	0.135339	-0.005157	-0.414795	-0.093018	0.639648	82.224225	-79.884969	-146.954468
42146		7.064047	2.300389	-0.254060	-0.421780	0.019648	-0.033976	-0.411133	-0.098633	0.627441	81.952294	-79.861910	-146.918984
42147		6.486874	2.282624	-0.899251	-0.428765	-0.128526	0.006777	-0.413330	-0.108398	0.636230	82.123320	-79.875714	-147.339161
42148		6.803458	1.973888	-1.214694	-0.420862	-0.244992	0.020019	-0.406250	-0.111328	0.636719	82.671167	-79.903375	-148.135804
42149		7.133106	1.519824	-1.114851	-0.376055	-0.303422	0.010042	-0.408203	-0.107910	0.635254	83.433818	-79.929846	-149.126149
42150		7.780698	1.169831	-1.361530	-0.286266	-0.372805	-0.049148	-0.405518	-0.107178	0.644043	84.499246	-79.921933	-150.369989
42151		8.689262	1.149392	-2.389008	-0.164541	-0.464857	-0.136792	-0.401367	-0.109619	0.640869	85.942260	-79.865688	-151.928389
42152		9.557400	1.426056	-3.419360	0.048272	-0.511396	-0.223416	-0.402100	-0.106934	0.633545	87.653823	-79.751781	-153.634320
42153		10.156246	1.832298	-3.495735	0.277203	-0.496467	-0.258929	-0.400635	-0.112305	0.638428	89.406606	-79.610342	-155.251360
42154		10.637807	2.455931	-3.309106	0.411278	-0.484876	-0.232052	-0.393799	-0.109375	0.632813	91.160203	-79.473428	-156.789777
42155		10.679085	3.160113	-3.079185	0.456843	-0.416182	-0.142978	-0.395020	-0.104980	0.633301	92.695001	-79.383027	-158.081684
42156		10.787948	3.673942	-2.552963	0.458005	-0.274470	-0.033113	-0.390625	-0.096436	0.638916	93.804310	-79.352451	-158.937997
42157		10.962488	4.092016	-1.855348	0.417766	-0.099284	0.067415	-0.386963	-0.096680	0.641357	94.371346	-79.386368	-159.268273
42158		10.936736	4.362478	-1.211891	0.370791	0.026268	0.149403	-0.388184	-0.100586	0.641602	94.555649	-79.470046	-159.234129
42159		10.899570	4.402416	-0.430781	0.338820	0.023955	0.178481	-0.382813	-0.092529	0.633789	94.731364	-79.572514	-159.212284
42160		10.924881	4.810211	0.071599	0.194339	-0.077587	0.127478	-0.384033	-0.087891	0.632080	95.135228	-79.638522	-159.504116
42161		11.082489	5.478724	0.324311	-0.031254	-0.175705	0.043578	-0.386230	-0.087402	0.626465	95.689601	-79.653295	-160.082753
42162		11.884810	5.844486	0.555317	-0.244756	-0.234106	-0.064369	-0.383057	-0.100830	0.626709	96.273474	-79.599533	-160.813345
42163		13.231107	5.572910	0.946774	-0.400750	-0.189307	-0.164096	-0.381348	-0.100342	0.634033	96.581713	-79.493346	-161.357157
42164		14.423260	4.475238	1.083348	-0.378209	-0.238739	-0.231136	-0.384033	-0.097168	0.631104	97.023468	-79.342373	-162.021504
42165		14.999427	2.585641	0.460857	-0.202941	-0.639267	-0.239136	-0.385742	-0.108887	0.627930	98.729638	-79.155783	-163.873383
42166		14.527696	0.811210	-0.159429	-0.090928	-0.906341	-0.141743	-0.372559	-0.105469	0.643555	101.266393	-78.982196	-166.504662
42167		13.358185	0.191743	-0.234177	-0.124374	-0.941096	0.013909	-0.365479	-0.101563	0.639404	103.903199	-78.871695	-169.260956
42168		11.935375	0.580946	0.181629	-0.256741	-0.810241	0.200657	-0.364746	-0.107422	0.637695	106.197520	-78.858705	-171.743909
42169		10.253632	1.063213	1.081872	-0.393959	-0.640806	0.348700	-0.368408	-0.103027	0.644531	108.069757	-78.940612	-173.878733
42170		9.059109	1.748222	1.439326	-0.510892	-0.585230	0.413964	-0.349854	-0.109375	0.647217	109.814590	-79.052630	-175.949287
42171		8.320416	2.624265	1.678508	-0.657752	-0.539645	0.378741	-0.353271	-0.109619	0.642334	111.346368	-79.146167	-177.889872
42172		8.117045	3.210659	1.836855	-0.859301	-0.456372	0.277858	-0.346436	-0.111328	0.646240	112.441397	-79.192850	-179.501060
42173		8.378872	3.408483	1.879490	-1.061452	-0.295144	0.136816	-0.340576	-0.129883	0.638672	112.818477	-79.199153	179.499035
42174		8.770113	3.062420	1.637930	-1.193842	-0.131627	0.006421	-0.345703	-0.133057	0.638672	112.513747	-79.169922	179.117683
42175		9.078286	2.588537	1.462130	-1.265559	-0.002392	-0.072280	-0.345459	-0.147217	0.642822	111.723184	-79.130067	179.187446
42176		9.236083	2.053529	1.520124	-1.346241	0.076522	-0.102530	-0.336914	-0.152100	0.634277	110.636196	-79.087597	179.513543
42177		9.203651	1.073532	1.357239	-1.379952	0.140752	-0.091071	-0.345459	-0.165283	0.625488	109.369831	-79.065222	-179.998845
42178		9.291105	0.262038	1.220261	-1.403565	0.161207	-0.037767	-0.345703	-0.169434	0.631592	108.083897	-79.070944	-179.503670
42179		9.076910	-0.237325	1.231063	-1.433905	0.199390	0.040044	-0.343750	-0.187500	0.625977	106.741639	-79.126151	-178.970288
42180		8.575552	-0.474442	1.074126	-1.410329	0.186001	0.118343	-0.356201	-0.187500	0.620850	105.504086	-79.217599	-178.528628
42181		8.123375	-0.692478	0.878584	-1.244696	0.148805	0.173214	-0.350342	-0.193604	0.617920	104.501683	-79.334712	-178.231122
42182		8.792151	-0.290454	0.580027	-1.050830	0.114620	0.193721	-0.345703	-0.196533	0.611084	103.711439	-79.455235	-178.035437
42183		8.858071	-0.150759	0.348558	-0.845765	0.115432	0.220383	-0.351318	-0.199951	0.613037	103.047131	-79.592600	-177.849552
42184		9.011525	0.199078	0.239080	-0.671544	0.109580	0.246272	-0.348145	-0.212402	0.614014	102.505421	-79.741089	-177.685862
42185		8.946219	0.312549	0.544305	-0.578130	0.092601	0.259269	-0.352051	-0.216553	0.617432	102.072095	-79.896771	-177.579032
42186		9.163510	0.608656	0.984604	-0.557299	0.101983	0.248633	-0.349609	-0.215088	0.606689	101.602560	-80.045272	-177.422393
42187		9.242866	0.757667	1.300911	-0.577993	0.108689	0.226858	-0.357422	-0.220947	0.598145	101.078513	-80.184225	-177.223492
42188		9.196937	0.778217	1.546059	-0.613051	0.102543	0.207479	-0.355469	-0.220459	0.610596	100.529058	-80.309178	-177.018416
42189		9.485543	0.945399	1.216725	-0.618721	0.090611	0.196557	-0.351074	-0.223633	0.596436	100.002908	-80.428537	-176.841203
42190		8.962947	0.793384	0.690198	-0.558129	0.094362	0.178623	-0.359131	-0.230957	0.604248	99.476378	-80.535797	-176.627728
42191		9.272579	0.988372	0.098893	-0.484923	0.053618	0.168873	-0.358643	-0.236328	0.604980	99.121358	-80.635561	-176.546387
42192		8.932862	0.764164	-0.382778	-0.376356	0.024896	0.175521	-0.358154	-0.227783	0.596680	98.923865	-80.734421	-176.560985
42193		9.384992	0.660394	-0.757957	-0.251003	0.000893	0.168524	-0.359619	-0.228271	0.593506	98.880592	-80.829217	-176.659735
42194		9.799714	0.615720	-0.916105	-0.204502	0.074423	0.154783	-0.358154	-0.233887	0.591797	98.593035	-80.920699	-176.483377
42195		9.910148	0.465098	-0.867764	-0.164287	0.090066	0.153170	-0.354004	-0.233887	0.586426	98.270537	-81.014412	-176.249037
42196		9.934303	0.310020	-0.871348	-0.138588	0.093404	0.136871	-0.364746	-0.228760	0.589600	97.933354	-81.097003	-175.984282
42197		9.898814	0.008610	-0.867915	-0.106808	0.098100	0.102317	-0.363525	-0.240234	0.595215	97.578006	-81.162026	-175.683466
42198		9.831061	-0.220305	-0.853163	-0.053715	0.094528	0.068317	-0.355713	-0.237061	0.584229	97.242640	-81.205313	-175.371423
42199		9.850340	-0.308233	-0.911739	-0.005994	0.112963	0.041026	-0.354736	-0.236328	0.583984	96.854118	-81.235952	-174.978667
42200		9.615698	-0.289279	-0.903230	0.064706	0.129227	0.015613	-0.359131	-0.241211	0.581299	96.430109	-81.250982	-174.508334
42201		9.460747	-0.094838	-1.047313	0.160214	0.147253	-0.007261	-0.360840	-0.235352	0.584717	95.986084	-81.255358	-173.963105
42202		9.286478	0.147351	-1.375257	0.247704	0.179041	-0.022190	-0.358398	-0.226074	0.582031	95.466611	-81.250614	-173.290099
42203		9.203493	0.301148	-1.659742	0.317028	0.205860	-0.016685	-0.361328	-0.226563	0.578369	94.891679	-81.251154	-172.521514
42204		9.182804	0.444745	-1.513125	0.323901	0.254318	0.016768	-0.364014	-0.233643	0.585449	94.148314	-81.269964	-171.577767
42205		9.101443	0.337268	-1.088292	0.271900	0.294967	0.032038	-0.365723	-0.228516	0.576904	93.224091	-81.298600	-170.482037
42206		8.709632	0.257235	-0.852051	0.218351	0.310176	0.026423	-0.365967	-0.232910	0.576416	92.204517	-81.319977	-169.320118
42207		8.351261	0.102351	-0.741414	0.237638	0.313460	0.009270	-0.374756	-0.223389	0.577881	91.177681	-81.330087	-168.140565
42208		7.852442	-0.129689	-0.825076	0.346784	0.283492	-0.026414	-0.379883	-0.229492	0.575928	90.323643	-81.315023	-167.071674
42209		7.683725	-0.139941	-0.985118	0.502166	0.268470	-0.071271	-0.366455	-0.221191	0.563965	89.619586	-81.273655	-166.065236
42210		8.275248	0.080832	-1.172187	0.607852	0.332394	-0.085077	-0.366943	-0.223145	0.574219	88.748946	-81.220247	-164.827957
42211		7.809821	0.041633	-0.990012	0.736480	0.269465	-0.073250	-0.365723	-0.227051	0.568848	88.194163	-81.173757	-163.836457
42212		8.045817	0.111160	-0.807036	0.784540	0.198944	-0.056309	-0.372314	-0.220703	0.562012	87.932572	-81.135801	-163.112748
42213		8.494591	0.109001	-0.530943	0.752461	0.218755	-0.049753	-0.367432	-0.211182	0.564941	87.581917	-81.102013	-162.318374
42214		9.190351	0.365641	-0.025786	0.658271	0.254320	-0.033675	-0.381348	-0.210938	0.567383	87.050946	-81.074142	-161.395071
42215		9.741024	0.745664	0.325130	0.526769	0.264203	-0.002234	-0.385498	-0.204346	0.565186	86.404100	-81.063851	-160.431662
42216		10.118297	1.152895	0.210084	0.413139	0.207739	0.030738	-0.368896	-0.213867	0.554199	85.892285	-81.071738	-159.669895
42217		10.504987	1.769257	-0.425505	0.282330	0.148119	0.070659	-0.375732	-0.205078	0.556641	85.507614	-81.105402	-159.113680
42218		10.389044	2.218004	-1.466303	0.241787	0.044682	0.098111	-0.370117	-0.203613	0.561523	85.469144	-81.157776	-158.930474
42219		10.481111	2.541334	-2.391432	0.256506	-0.010336	0.105634	-0.372559	-0.197510	0.559570	85.636679	-81.218236	-158.948184
42220		10.489703	2.396053	-2.956617	0.282778	-0.037910	0.095656	-0.378174	-0.200684	0.561768	85.928827	-81.272815	-159.075645
42221		10.756818	1.888417	-2.591846	0.234291	-0.020962	0.084143	-0.371338	-0.192139	0.557617	86.132394	-81.321387	-159.142678
42222		11.398631	1.739750	-1.919056	0.073893	-0.015284	0.083248	-0.368652	-0.202881	0.563965	86.227812	-81.367868	-159.191981
42223		11.836588	1.859571	-1.251461	-0.147474	-0.092493	0.077993	-0.375244	-0.200684	0.562744	86.486874	-81.415470	-159.536352
42224		12.139921	2.217213	-0.958562	-0.331015	-0.162526	0.058121	-0.370605	-0.212891	0.559570	86.918722	-81.452367	-160.160381
42225		11.841156	2.382550	-0.903337	-0.359335	-0.195426	0.006687	-0.367676	-0.203857	0.565430	87.469067	-81.461292	-160.921994
42226		11.767232	2.208321	-0.762325	-0.284904	-0.186432	-0.061973	-0.359863	-0.207275	0.552734	88.041644	-81.428236	-161.661537
42227		11.713523	1.800895	-0.392389	-0.214679	-0.171305	-0.113331	-0.357666	-0.217041	0.549561	88.592608	-81.365798	-162.340070
42228		11.743708	1.364029	0.278456	-0.172076	-0.144431	-0.112336	-0.369629	-0.214355	0.556641	89.062244	-81.301339	-162.910274
42229		11.653382	1.246398	0.877163	-0.164635	-0.079786	-0.060022	-0.362305	-0.218994	0.555176	89.282024	-81.267177	-163.224949
42230		11.387031	1.323509	1.513341	-0.051127	-0.113831	0.041426	-0.360596	-0.214844	0.552734	89.692829	-81.289695	-163.665664
42231		10.990805	1.524128	1.970099	0.079285	-0.173066	0.136271	-0.364990	-0.215576	0.546631	90.401562	-81.367234	-164.333536
42232		10.016554	1.386008	2.186265	0.390144	-0.206752	0.194359	-0.358887	-0.225586	0.550293	91.437863	-81.474851	-165.151095
42233		9.044433	1.096693	1.854130	0.671994	-0.217193	0.225899	-0.364014	-0.218262	0.549316	92.702970	-81.599195	-166.037765
42234		8.457133	0.928373	1.228544	0.686290	-0.127313	0.240478	-0.360352	-0.211914	0.552490	93.660655	-81.730838	-166.604008
42235		8.205223	0.953049	1.379426	0.727328	0.064167	0.252722	-0.363770	-0.207764	0.551025	93.902030	-81.877194	-166.423746
42236		8.439440	1.083406	1.867875	0.818116	0.275602	0.279350	-0.358887	-0.203613	0.553711	93.341722	-82.045043	-165.380331
42237		8.900654	0.954836	2.261390	0.906686	0.419734	0.318492	-0.361572	-0.192627	0.553223	92.198205	-82.238427	-163.698463
42238		9.357231	1.019638	2.309336	0.941530	0.468062	0.350411	-0.365479	-0.192383	0.547852	90.798756	-82.444390	-161.738101
42239		10.024788	1.553672	2.138356	0.868759	0.538813	0.378054	-0.365967	-0.187256	0.547607	88.945445	-82.659901	-159.363938
42240		10.369787	2.399894	1.883190	0.741071	0.538097	0.374447	-0.367676	-0.171387	0.551758	86.899934	-82.861510	-156.870115
42241		10.453025	3.177560	1.412849	0.632733	0.456124	0.334671	-0.375488	-0.177734	0.536377	85.061526	-83.034152	-154.649315
42242		10.225263	3.669452	1.034046	0.531525	0.356218	0.255112	-0.374268	-0.177979	0.536865	83.587254	-83.157825	-152.853717
42243		10.059147	3.716320	0.559550	0.322135	0.272886	0.109512	-0.372070	-0.169678	0.543213	82.426195	-83.200796	-151.495408
42244		9.743600	3.333526	0.418958	0.085683	0.257813	-0.074461	-0.380127	-0.175293	0.534424	81.323619	-83.136053	-150.331710
42245		9.531106	2.881095	0.314879	-0.064634	0.165286	-0.309155	-0.377686	-0.175781	0.544922	80.761673	-82.946110	-149.799813
42246		9.163491	2.500435	0.383946	-0.093519	0.064744	-0.464818	-0.381104	-0.185547	0.534668	80.774679	-82.675622	-149.863113
42247		8.951351	2.127076	0.503493	-0.040407	0.015025	-0.553924	-0.372559	-0.185059	0.536377	81.082493	-82.360638	-150.193825
42248		8.753439	1.702300	0.517377	0.082736	-0.017311	-0.584558	-0.378662	-0.191406	0.533936	81.586357	-82.029300	-150.650733
42249		8.850504	1.401249	0.187323	0.164737	-0.047582	-0.578113	-0.382080	-0.193115	0.534424	82.209988	-81.704964	-151.182253
42250		8.769001	1.184504	-0.251758	0.189284	0.021110	-0.532503	-0.371582	-0.192383	0.529785	82.526047	-81.399193	-151.388322
42251		8.957138	1.293104	-0.720841	0.182348	0.126079	-0.483869	-0.375488	-0.186768	0.530518	82.414032	-81.114619	-151.166182
42252		8.616978	1.445394	-0.556976	0.207759	0.163989	-0.443971	-0.376465	-0.199219	0.538086	82.176217	-80.848194	-150.801003
42253		8.781256	1.944616	-0.511530	0.207707	0.186768	-0.436573	-0.380371	-0.203369	0.539307	81.871595	-80.585376	-150.368645
42254		8.547649	2.584274	-0.457003	0.151611	0.221532	-0.425668	-0.371826	-0.210205	0.533203	81.436740	-80.323919	-149.835679
42255		8.232955	2.976290	-0.192001	0.100995	0.202962	-0.402582	-0.375977	-0.200195	0.538574	81.044423	-80.078007	-149.375719
42256		8.277457	3.300660	-0.169497	0.023804	0.101686	-0.375193	-0.379395	-0.209717	0.533203	80.937416	-79.854822	-149.249217
42257		7.961476	3.504820	-0.274927	-0.098803	0.046533	-0.309693	-0.375244	-0.218750	0.531006	80.901606	-79.675176	-149.267236
42258		7.779165	3.569338	-0.333509	-0.179815	0.053932	-0.222660	-0.365479	-0.213135	0.529541	80.757213	-79.542499	-149.221135
42259		7.602372	3.567544	-0.399189	-0.237948	0.024970	-0.132966	-0.370361	-0.217773	0.530029	80.622502	-79.464790	-149.219667
42260		7.560163	3.513677	-0.390652	-0.302412	-0.016649	-0.054509	-0.376709	-0.218750	0.524658	80.541347	-79.433664	-149.309251
42261		7.808584	3.285680	-0.443827	-0.364746	-0.016665	-0.000488	-0.379883	-0.219482	0.531738	80.394349	-79.434761	-149.369186
42262		8.026294	3.080231	-0.664996	-0.402902	-0.020491	0.029162	-0.373535	-0.222900	0.524414	80.224850	-79.451270	-149.427407
42263		8.016430	2.867884	-0.722377	-0.411860	-0.072726	0.044552	-0.375488	-0.223145	0.518066	80.197662	-79.483308	-149.636656
42264		8.129114	2.707665	-0.639373	-0.426079	-0.092913	0.041748	-0.364014	-0.234619	0.527100	80.229218	-79.513945	-149.912774
42265		8.063713	2.528945	-0.438602	-0.439893	-0.111821	0.034479	-0.370361	-0.229980	0.527588	80.312125	-79.544040	-150.250274
42266		7.896450	2.428149	-0.137659	-0.439904	-0.166424	0.016702	-0.373535	-0.241699	0.528564	80.576313	-79.567278	-150.770888
42267		7.544663	2.494163	0.080870	-0.454338	-0.240620	0.007079	-0.374756	-0.235840	0.524902	81.063951	-79.593059	-151.528264
42268		7.226564	2.586550	0.099543	-0.542634	-0.306026	0.007298	-0.361084	-0.243896	0.518066	81.709484	-79.621353	-152.496319
42269		6.970244	2.624930	0.043268	-0.649707	-0.356660	0.001071	-0.363281	-0.252197	0.520508	82.454844	-79.649861	-153.629353
42270		6.862594	2.624892	-0.301776	-0.679519	-0.405668	0.037940	-0.362305	-0.253418	0.522461	83.330925	-79.697986	-154.911256
42271		7.084940	2.468868	-1.001648	-0.660681	-0.416156	0.064822	-0.365234	-0.246826	0.528320	84.249794	-79.760407	-156.226677
42272		7.848924	2.373668	-1.903704	-0.655110	-0.399598	0.058190	-0.359375	-0.252441	0.525879	85.136701	-79.812469	-157.504863
42273		8.982061	2.380091	-2.277425	-0.660559	-0.327586	0.054844	-0.356201	-0.257324	0.530273	85.799434	-79.858285	-158.559553
42274		10.531633	2.470725	-1.857943	-0.602094	-0.210383	0.032337	-0.355469	-0.261230	0.528809	86.134432	-79.882865	-159.245757
42275		12.038786	2.670943	-1.399523	-0.505038	-0.120644	-0.018632	-0.356689	-0.266113	0.519287	86.246912	-79.876445	-159.650838
42276		12.971911	2.552783	-1.193503	-0.326818	-0.134490	-0.079202	-0.355225	-0.270020	0.521484	86.519855	-79.833607	-160.113695
42277		13.222937	2.339398	-1.117263	-0.155573	-0.147700	-0.094399	-0.351563	-0.274414	0.525391	86.929275	-79.784069	-160.617126
42278		12.589540	1.791358	-0.995106	0.011247	-0.192686	-0.071660	-0.350098	-0.275879	0.527344	87.571731	-79.745922	-161.258700
42279		11.466058	1.315119	-0.977940	0.136168	-0.174128	-0.018965	-0.342285	-0.271484	0.531250	88.214164	-79.738327	-161.829164
42280		10.545839	1.310262	-1.167912	0.239655	-0.202541	0.011639	-0.353027	-0.269043	0.528076	89.005899	-79.745368	-162.489453
42281		9.992088	1.712537	-1.569146	0.307264	-0.209002	0.024472	-0.345703	-0.272705	0.528320	89.854785	-79.760135	-163.170078
42282		9.873774	2.254477	-1.643442	0.370413	-0.181630	0.029625	-0.350830	-0.268555	0.525391	90.658199	-79.774173	-163.765982
42283		10.167907	2.878221	-1.530540	0.405672	-0.193940	0.019087	-0.341553	-0.260986	0.536621	91.519095	-79.782509	-164.401464
42284		10.612419	3.518456	-1.332980	0.399975	-0.229023	0.005813	-0.338623	-0.272461	0.539551	92.490657	-79.778698	-165.150891
42285		11.230206	3.954154	-0.782606	0.387711	-0.329445	-0.009731	-0.341553	-0.260010	0.533203	93.766622	-79.762289	-166.218617
42286		11.839852	4.219829	-0.228909	0.295340	-0.429065	-0.051587	-0.339844	-0.264648	0.531982	95.290299	-79.710715	-167.590095
42287		12.066936	4.192958	0.239428	0.206994	-0.487277	-0.103271	-0.342773	-0.255615	0.543213	96.907760	-79.621595	-169.110549
42288		11.862319	3.668720	0.236231	0.223232	-0.565264	-0.165043	-0.329834	-0.260010	0.545166	98.718706	-79.480995	-170.816970
42289		11.498878	2.711941	0.203479	0.277216	-0.585957	-0.194558	-0.331787	-0.261963	0.551025	100.556532	-79.314170	-172.521997
42290		10.773446	1.703820	0.163301	0.200566	-0.521471	-0.141516	-0.329834	-0.261719	0.552734	102.140901	-79.172866	-174.012781
42291		10.010250	1.066333	0.562724	-0.046459	-0.377568	-0.035489	-0.319336	-0.270996	0.541992	103.201121	-79.104800	-175.116319
42292		9.308273	1.155219	1.499166	-0.408352	-0.250158	0.065922	-0.324951	-0.265137	0.546875	103.747561	-79.105118	-175.906190
42293		8.517347	1.598627	2.174888	-0.758542	-0.126050	0.111119	-0.328613	-0.269287	0.539307	103.766921	-79.148986	-176.365337
42294		8.241143	2.106041	2.413400	-0.972841	-0.021010	0.037185	-0.321533	-0.278809	0.551514	103.306562	-79.163907	-176.459446
42295		8.399673	2.356803	2.471064	-1.079447	0.058284	-0.095266	-0.328369	-0.279053	0.545166	102.464948	-79.117368	-176.229117
42296		8.881236	2.446346	2.110948	-1.074081	0.085247	-0.249256	-0.322021	-0.291504	0.534180	101.458937	-78.984851	-175.826756
42297		9.698062	2.306594	1.946764	-0.988152	0.127816	-0.382561	-0.322510	-0.296875	0.542725	100.325945	-78.782714	-175.245970
42298		10.844608	2.212794	1.656938	-0.945389	0.122136	-0.434600	-0.327393	-0.306885	0.538574	99.238220	-78.546341	-174.684682
42299		11.403449	1.534541	1.184721	-0.810577	0.001284	-0.351780	-0.327148	-0.309082	0.528809	98.626975	-78.346661	-174.531697
42300		11.590551	0.822148	0.673705	-0.679073	-0.129910	-0.223259	-0.325928	-0.312012	0.525879	98.509311	-78.206272	-174.804652
42301		11.185490	-0.073591	0.249567	-0.512820	-0.150334	-0.044570	-0.315674	-0.307861	0.525391	98.614253	-78.167521	-175.208913
42302		10.768983	-0.666029	0.040826	-0.336910	-0.134307	0.121225	-0.322754	-0.323242	0.533936	98.843856	-78.221780	-175.636543
42303		10.332360	-0.703157	0.152401	-0.219867	-0.059119	0.285812	-0.324951	-0.318848	0.526367	99.011921	-78.377613	-175.933689
42304		9.373094	-0.538691	0.279766	-0.088754	-0.051907	0.419111	-0.319092	-0.311279	0.534424	99.301276	-78.607358	-176.276832
42305		8.833967	-0.045029	0.361467	0.025184	-0.111533	0.495782	-0.327393	-0.314697	0.527832	99.879968	-78.876106	-176.849035
42306		8.345762	0.439071	0.274703	0.053034	-0.129531	0.507970	-0.323975	-0.316895	0.533447	100.560711	-79.146851	-177.507590
42307		8.080222	1.095072	0.135770	0.042049	-0.124872	0.497179	-0.321289	-0.304199	0.529053	101.250808	-79.412306	-178.182300
42308		7.970252	1.353887	0.022424	0.062278	-0.128048	0.498443	-0.329834	-0.317383	0.530762	101.995768	-79.674761	-178.899670
42309		8.088317	1.386204	-0.147221	0.069817	-0.057314	0.467410	-0.323486	-0.308838	0.535400	102.540991	-79.928712	-179.409882
42310		8.406474	0.971536	-0.371088	0.102669	0.020488	0.438029	-0.330078	-0.310791	0.530518	102.857152	-80.173623	-179.667290
42311		8.333042	0.421278	-0.383786	0.141468	0.118399	0.384154	-0.329346	-0.311035	0.524902	102.848702	-80.402525	-179.573371
42312		8.613067	0.068891	-0.304489	0.207906	0.154548	0.362823	-0.341797	-0.303711	0.528809	102.734941	-80.622384	-179.333418
42313		8.677388	-0.331386	-0.379331	0.326058	0.164113	0.351672	-0.334229	-0.305176	0.522461	102.642114	-80.838837	-179.046966
42314		8.880849	-0.438083	-0.498057	0.434736	0.179492	0.329696	-0.340088	-0.299561	0.530273	102.528739	-81.043209	-178.676116
42315		8.699763	-0.413629	-0.598177	0.548775	0.215504	0.315776	-0.335449	-0.295654	0.530518	102.330835	-81.245705	-178.154501
42316		8.753771	-0.291336	-1.010609	0.643078	0.266423	0.264983	-0.344238	-0.291016	0.523193	101.939041	-81.423909	-177.381681
42317		8.709332	-0.183929	-1.134446	0.727154	0.377213	0.203492	-0.343262	-0.279053	0.526123	101.106255	-81.580586	-176.115297
42318		8.555290	0.109205	-0.845632	0.773510	0.389184	0.137510	-0.347168	-0.274902	0.526611	100.167979	-81.696954	-174.715172
42319		8.642680	0.582162	-0.841329	0.777360	0.329778	0.084150	-0.347412	-0.280029	0.531738	99.400222	-81.775874	-173.486193
42320		8.758579	1.043757	-0.914705	0.737124	0.271444	0.050008	-0.349121	-0.271973	0.522705	98.799814	-81.826598	-172.449035
42321		8.801852	1.365082	-1.088338	0.653185	0.196063	0.022784	-0.356445	-0.270752	0.530029	98.425727	-81.855651	-171.689949
42322		8.726191	1.572380	-1.122134	0.529299	0.127969	-0.003818	-0.350830	-0.276123	0.524414	98.231955	-81.861960	-171.183950
42323		8.550582	1.735543	-1.220993	0.411860	0.070150	-0.023911	-0.338379	-0.268555	0.533936	98.189005	-81.853472	-170.899082
42324		8.726699	1.776217	-1.327940	0.295585	0.069508	-0.028782	-0.353027	-0.274170	0.530273	98.079594	-81.840624	-170.613497
42325		8.494651	1.536631	-1.067433	0.228178	0.068097	-0.033870	-0.352295	-0.264404	0.532227	97.935043	-81.826179	-170.332289
42326		8.198163	1.014790	-0.763428	0.191175	0.012427	-0.045264	-0.346436	-0.266846	0.527832	97.983648	-81.799310	-170.266692
42327		7.914231	0.472218	-0.779609	0.178230	-0.060008	-0.073943	-0.344482	-0.262695	0.532959	98.292454	-81.751837	-170.472426
42328		8.398271	0.347600	-1.330957	0.233760	-0.008914	-0.115875	-0.345703	-0.270020	0.530762	98.407918	-81.683249	-170.449693
42329		8.314181	0.330810	-1.261022	0.383863	0.033180	-0.166524	-0.355713	-0.266602	0.531738	98.417488	-81.590972	-170.233963
42330		8.707818	0.360053	-1.063746	0.510862	0.014526	-0.200221	-0.348389	-0.262939	0.530762	98.554368	-81.476612	-170.072299
42331		9.045992	0.293104	-0.877208	0.577952	-0.051173	-0.205437	-0.350098	-0.262451	0.532959	98.970926	-81.355130	-170.155579
42332		9.968782	0.292488	-0.663776	0.517173	-0.075847	-0.138999	-0.357178	-0.263184	0.530029	99.477512	-81.267452	-170.364130
42333		10.825657	0.658343	-0.475003	0.291173	-0.087162	-0.039956	-0.348633	-0.254150	0.537842	99.951106	-81.235755	-170.671401
42334		11.545248	1.539645	-0.697759	0.051142	-0.070828	0.057460	-0.353760	-0.260742	0.533447	100.290465	-81.258957	-170.980954
42335		11.699680	2.300623	-1.304803	-0.062535	-0.074433	0.135090	-0.345215	-0.256836	0.535889	100.632210	-81.326605	-171.359827
42336		11.527889	2.683855	-2.135514	-0.115466	-0.113146	0.156510	-0.347168	-0.257568	0.528564	101.109673	-81.400343	-171.905489
42337		11.435105	2.615319	-2.600526	-0.179511	-0.087555	0.140835	-0.345215	-0.261719	0.532715	101.450298	-81.468922	-172.350865
42338		11.688875	2.479128	-2.364993	-0.285772	-0.052421	0.106168	-0.343506	-0.265625	0.522217	101.578133	-81.520367	-172.641349
42339		11.913623	2.543460	-2.030050	-0.422864	-0.125503	0.043090	-0.350830	-0.266602	0.528809	101.854127	-81.529187	-173.162246
42340		12.443414	2.615978	-1.869042	-0.585598	-0.200476	-0.000043	-0.348389	-0.272705	0.527344	102.285431	-81.502922	-173.933108
42341		12.980923	2.630086	-1.452022	-0.774908	-0.201155	-0.026048	-0.348389	-0.274414	0.532471	102.583538	-81.462760	-174.680377
42342		13.149355	2.411491	-1.280339	-0.896888	-0.226906	-0.016684	-0.345947	-0.278076	0.527588	102.912020	-81.422470	-175.527690
42343		13.516758	1.956346	-0.375472	-0.918859	-0.204954	0.040312	-0.344238	-0.278809	0.522949	103.190216	-81.417668	-176.338357
42344		13.348920	1.286598	0.409750	-0.790313	-0.326811	0.154309	-0.347656	-0.282959	0.524414	104.097800	-81.457106	-177.709547
42345		13.056478	0.206194	0.808834	-0.482977	-0.519139	0.278159	-0.337891	-0.287354	0.526611	106.030681	-81.532880	-179.940615
42346		12.383343	-0.838851	1.192649	0.065679	-0.543896	0.334246	-0.336426	-0.289307	0.528564	108.474076	-81.621028	177.631826
42347		11.106563	-1.532290	1.588714	0.671919	-0.460589	0.306817	-0.334229	-0.278320	0.532471	110.969549	-81.696536	175.501878
42348		9.932025	-1.723541	1.242519	1.102369	-0.343605	0.235624	-0.342285	-0.282227	0.529541	113.214626	-81.745283	173.875662
42349		8.782927	-1.361348	0.731041	1.343977	-0.154129	0.146010	-0.342285	-0.272217	0.539795	114.788281	-81.784765	173.066778
42350		7.752997	-0.583304	0.711826	1.409613	0.126120	0.101900	-0.345703	-0.267822	0.544189	115.322621	-81.866027	173.346983
42351		6.920253	0.467137	1.218520	1.256796	0.424474	0.101991	-0.339600	-0.262207	0.542236	114.671015	-82.020729	174.735451
42352		6.738169	1.601581	1.874045	1.013371	0.673917	0.150083	-0.349121	-0.254150	0.538330	112.955856	-82.253204	177.056997
42353		7.201405	2.414106	2.434881	0.849207	0.837817	0.223450	-0.350342	-0.241943	0.540527	110.466185	-82.548850	-179.937326
42354		8.332392	2.986392	2.607560	0.787358	0.906463	0.301693	-0.356934	-0.243652	0.525391	107.528058	-82.879452	-176.516672
42355		9.628469	3.584603	2.457428	0.750979	0.936253	0.357551	-0.360107	-0.239502	0.529541	104.197050	-83.222473	-172.724492
42356		10.712108	3.950792	2.053284	0.727446	0.873493	0.391991	-0.370361	-0.236328	0.531006	100.833557	-83.548397	-168.915210
42357		10.926675	4.180310	1.530599	0.688399	0.771365	0.357214	-0.376953	-0.230225	0.529541	97.597262	-83.820646	-165.259258
42358		9.445655	3.943408	1.337192	0.657748	0.681653	0.295243	-0.377441	-0.218262	0.526123	94.508576	-84.028234	-161.770548
42359		9.119401	3.441431	1.281201	0.637883	0.507130	0.173693	-0.385010	-0.227051	0.524902	92.146225	-84.143934	-159.025041
42360		9.667943	3.215247	0.934787	0.387229	0.468399	-0.066791	-0.383545	-0.217529	0.523438	89.771345	-84.108275	-156.411044
42361		9.837587	2.795912	0.824570	0.151232	0.435190	-0.338454	-0.383545	-0.223145	0.524414	87.543346	-83.908095	-154.080601
42362		9.614751	2.292373	0.704109	-0.000502	0.247216	-0.544572	-0.380371	-0.216797	0.520752	86.419910	-83.587196	-152.947213
42363		9.167655	1.729643	0.356018	-0.059684	0.078284	-0.604916	-0.382813	-0.223633	0.523193	86.207136	-83.238069	-152.764361
42364		8.886464	1.364442	0.221831	-0.093809	0.037329	-0.581133	-0.386719	-0.237061	0.519287	86.176317	-82.902568	-152.783952
42365		8.813247	1.117460	0.025707	-0.087149	0.044853	-0.527624	-0.386475	-0.240479	0.515381	86.099746	-82.598853	-152.754005
42366		8.718162	1.083216	-0.138562	-0.032841	0.057234	-0.487259	-0.382813	-0.236572	0.518066	85.994657	-82.316232	-152.663471
42367		8.694961	1.172218	-0.369597	0.041463	0.114109	-0.428215	-0.385254	-0.233643	0.515625	85.686708	-82.066429	-152.325564
42368		8.851924	1.310833	-0.551839	0.078794	0.215657	-0.378612	-0.378662	-0.240723	0.514893	85.000298	-81.838366	-151.583200
42369		8.540368	1.503922	-0.469666	0.095704	0.291038	-0.322187	-0.385498	-0.243896	0.520996	84.046736	-81.638365	-150.561130
42370		8.377672	1.797221	-0.261312	0.101716	0.277634	-0.279029	-0.389160	-0.246094	0.514160	83.175642	-81.460020	-149.617970
42371		8.430760	2.165404	-0.105620	0.057291	0.237081	-0.259530	-0.382324	-0.239746	0.514404	82.455409	-81.295218	-148.853201
42372		8.499789	2.430317	-0.107470	-0.003584	0.227332	-0.232753	-0.397461	-0.248779	0.509766	81.751587	-81.143496	-148.139489
42373		8.388584	2.548655	-0.182249	-0.061620	0.175642	-0.203348	-0.392334	-0.253662	0.515869	81.205065	-81.013117	-147.618906
42374		8.236585	2.554622	-0.192602	-0.128308	0.168636	-0.153874	-0.388916	-0.249023	0.510498	80.634140	-80.909077	-147.111580
42375		7.972240	2.358129	-0.242085	-0.180967	0.125393	-0.107663	-0.386475	-0.256592	0.509033	80.166162	-80.836060	-146.739508
42376		7.948419	2.155803	-0.320001	-0.205245	0.106840	-0.076641	-0.391846	-0.249512	0.506104	79.738406	-80.780405	-146.421610
42377		8.010113	2.042472	-0.385465	-0.237849	0.105285	-0.062753	-0.395508	-0.257080	0.501953	79.290323	-80.733883	-146.102594
42378		8.318723	2.047837	-0.321127	-0.274362	0.095164	-0.053332	-0.395020	-0.259521	0.500732	78.856312	-80.691816	-145.818352
42379		8.358460	2.189889	-0.120191	-0.325624	0.093798	-0.037366	-0.392578	-0.257813	0.513428	78.387001	-80.660059	-145.528714
42380		8.343194	2.396117	0.027423	-0.387583	0.020790	-0.032825	-0.402588	-0.261719	0.500732	78.132654	-80.637500	-145.492209
42381		8.187453	2.565331	0.261810	-0.462009	-0.077710	-0.032545	-0.391602	-0.267822	0.498535	78.167702	-80.628239	-145.792908
42382		8.033478	2.673030	0.483249	-0.544548	-0.181295	-0.035381	-0.389893	-0.269775	0.503906	78.512146	-80.627615	-146.454428
42383		7.632558	2.792026	0.429314	-0.644105	-0.265916	-0.009883	-0.388184	-0.275635	0.494873	79.068822	-80.651509	-147.389531
42384		7.224555	2.647334	0.178665	-0.692794	-0.287734	0.022005	-0.389404	-0.275391	0.501221	79.659130	-80.692473	-148.386211
42385		6.855805	2.584731	-0.869034	-0.696880	-0.365584	0.038486	-0.383301	-0.281250	0.497803	80.512029	-80.750057	-149.651883
42386		6.814616	2.537101	-2.125572	-0.716736	-0.422870	0.061518	-0.391113	-0.274902	0.500732	81.557634	-80.820673	-151.123349
42387		7.002774	2.533364	-2.709522	-0.809480	-0.375123	0.085728	-0.389404	-0.285645	0.498779	82.386530	-80.899075	-152.429557
42388		7.769465	2.505477	-2.356216	-0.903786	-0.334779	0.110067	-0.383057	-0.285889	0.498535	83.027058	-80.983924	-153.598538
42389		8.683563	2.718672	-1.860169	-0.901088	-0.298280	0.090095	-0.378174	-0.288818	0.502441	83.559306	-81.054862	-154.656978
42390		9.949462	2.740853	-1.544241	-0.774703	-0.241722	0.053354	-0.382568	-0.295898	0.488525	83.986692	-81.098141	-155.534752
42391		11.173752	2.564999	-1.138804	-0.577642	-0.184436	0.002489	-0.385254	-0.299561	0.483398	84.339171	-81.109992	-156.223410
42392		12.227042	2.310200	-1.049153	-0.374269	-0.209740	-0.060886	-0.386230	-0.298584	0.492920	84.924969	-81.084309	-157.029149
42393		12.413321	2.004839	-1.288566	-0.196269	-0.247474	-0.078056	-0.376221	-0.307617	0.493408	85.747456	-81.050916	-157.972460
42394		11.883930	1.692790	-1.511046	-0.038955	-0.282028	-0.048157	-0.381592	-0.307129	0.508789	86.774814	-81.031673	-159.030766
42395		11.071221	1.594933	-1.786529	0.055432	-0.274508	0.026549	-0.377441	-0.301758	0.501221	87.811320	-81.053899	-160.044808
42396		10.474047	1.504940	-1.849648	0.081323	-0.288423	0.107491	-0.378418	-0.316406	0.506592	88.915262	-81.117886	-161.110652
42397		10.407938	1.522922	-2.167020	0.094581	-0.276247	0.129605	-0.375488	-0.307373	0.505371	89.994634	-81.193197	-162.145064
42398		11.028488	1.743796	-1.850210	0.145301	-0.211410	0.097482	-0.373047	-0.302979	0.500000	90.880408	-81.245772	-162.952561
42399		11.909293	1.761984	-1.659832	0.293444	-0.257835	0.028160	-0.378906	-0.306641	0.495850	92.023460	-81.257654	-163.935851
42400		12.934741	1.651396	-1.510439	0.530661	-0.318274	-0.065736	-0.378662	-0.299561	0.504639	93.512321	-81.208806	-165.130033
42401		13.702762	1.559684	-0.967556	0.738503	-0.304010	-0.168971	-0.381104	-0.297119	0.510498	95.017582	-81.098726	-166.222082
42402		13.721812	1.524226	-0.480126	0.910173	-0.317726	-0.256011	-0.376221	-0.291748	0.518555	96.605387	-80.931868	-167.296952
42403		13.582065	1.570923	0.202715	1.053219	-0.271516	-0.319178	-0.371338	-0.303223	0.514893	98.032209	-80.730009	-168.127869
42404		12.717214	1.430398	0.575352	1.205634	-0.313820	-0.352803	-0.375244	-0.289063	0.520508	99.623987	-80.500120	-169.036428
42405		11.673504	1.814344	0.605473	1.272237	-0.435195	-0.367683	-0.364258	-0.290527	0.530273	101.580494	-80.246429	-170.278411
42406		10.715018	2.856506	1.369957	1.050358	-0.456957	-0.335127	-0.366455	-0.286377	0.523682	103.423890	-79.999666	-171.534088
42407		9.492959	4.007470	2.436602	0.453490	-0.410120	-0.232544	-0.360596	-0.282959	0.536621	104.791928	-79.812348	-172.656597
42408		8.384465	4.912127	2.913959	-0.260633	-0.471689	-0.071299	-0.359131	-0.282959	0.539795	106.034747	-79.698409	-174.066877
42409		7.803444	5.109410	2.727360	-0.797862	-0.549155	0.111606	-0.358887	-0.294922	0.530029	107.344353	-79.668425	-175.859533
42410		7.508784	4.448498	1.786828	-1.041994	-0.422709	0.220226	-0.349854	-0.288086	0.541504	108.235880	-79.711720	-177.368298
42411		7.605055	3.549002	1.319134	-0.992795	-0.145841	0.182232	-0.360596	-0.294922	0.530762	108.296693	-79.783773	-178.005037
42412		8.036451	2.788203	1.793989	-0.924909	0.106421	0.008818	-0.363281	-0.311523	0.533691	107.461100	-79.804380	-177.690381
42413		8.595370	2.130056	2.542762	-0.970347	0.296421	-0.255331	-0.351318	-0.309082	0.525879	105.782953	-79.711909	-176.546914
42414		9.681125	1.545781	3.013681	-1.086512	0.341924	-0.473931	-0.362793	-0.328613	0.532227	103.758462	-79.496407	-175.117632
42415		9.826045	0.700318	3.023156	-1.184327	0.265470	-0.621753	-0.361328	-0.328125	0.514160	101.882228	-79.182001	-173.895817
42416		10.986811	-0.187507	2.283661	-1.187869	0.183312	-0.614737	-0.361328	-0.336914	0.516602	100.328661	-78.853869	-173.002873
42417		11.632381	-0.727951	1.623275	-1.090260	0.056656	-0.483269	-0.359131	-0.345703	0.510498	99.316744	-78.585860	-172.604873
42418		11.124429	-1.066497	0.936348	-0.826676	-0.061889	-0.313439	-0.367188	-0.348633	0.506104	98.882985	-78.400361	-172.642077
42419		10.783159	-0.920852	0.480134	-0.553577	-0.019996	-0.133098	-0.359619	-0.354736	0.505859	98.574395	-78.322559	-172.647711
42420		9.663807	-0.594785	0.056989	-0.270641	0.057040	0.057062	-0.362793	-0.360107	0.510742	98.293209	-78.357283	-172.515547
42421		9.421076	0.163294	0.134568	-0.111740	0.056575	0.269307	-0.362549	-0.360840	0.510498	98.190372	-78.513963	-172.472795
42422		8.701944	1.019317	0.206504	-0.103952	0.008276	0.451302	-0.359131	-0.356201	0.503174	98.299462	-78.768236	-172.641489
42423		8.907249	1.952892	-0.117098	-0.145101	-0.020972	0.574910	-0.371338	-0.357422	0.510254	98.533677	-79.091650	-172.961730
42424		8.631996	2.538194	-0.260104	-0.233817	0.013441	0.615268	-0.367432	-0.351563	0.509033	98.644806	-79.439073	-173.207895
42425		8.755315	2.668085	-0.456463	-0.346951	-0.014754	0.577665	-0.367432	-0.355469	0.496826	98.775305	-79.764267	-173.539559
42426		8.795956	2.342475	-0.436665	-0.482561	-0.021602	0.479831	-0.370117	-0.356689	0.506348	98.811097	-80.031740	-173.853443
42427		9.338620	2.002196	-0.374835	-0.626090	-0.015615	0.355282	-0.376709	-0.358398	0.500000	98.692271	-80.230882	-174.093828
42428		9.389356	1.446901	-0.356143	-0.673476	0.007912	0.245983	-0.367676	-0.353027	0.504639	98.410682	-80.368593	-174.196298
42429		9.042846	0.700358	-0.350134	-0.619404	0.023140	0.182442	-0.372070	-0.364746	0.507813	98.078169	-80.473269	-174.215880
42430		8.891043	0.074700	-0.282270	-0.541448	-0.043277	0.138677	-0.372314	-0.369629	0.493164	97.989330	-80.546186	-174.437016
42431		9.007863	-0.258840	-0.447254	-0.464389	0.055194	0.110683	-0.368164	-0.369629	0.494873	97.597729	-80.612640	-174.306662
42432		8.462155	-0.547447	-0.324641	-0.347379	0.100053	0.144560	-0.367188	-0.374023	0.492188	97.126009	-80.699917	-174.027004
42433		8.608693	-0.526256	-0.418711	-0.219814	0.159648	0.151606	-0.372803	-0.365234	0.489014	96.517546	-80.796391	-173.535015
42434		8.173104	-0.484070	-0.382722	-0.090910	0.234569	0.153332	-0.376709	-0.379883	0.490723	95.702996	-80.895943	-172.759433
42435		7.996565	-0.347543	-0.139105	0.012529	0.279729	0.159183	-0.385742	-0.374512	0.482178	94.772582	-81.000799	-171.806910
42436		8.198290	-0.109952	0.022788	0.062143	0.323674	0.149391	-0.378906	-0.371094	0.478027	93.683470	-81.097834	-170.665061
42437		8.429092	0.341477	0.006818	0.079139	0.375236	0.139747	-0.390625	-0.360840	0.484375	92.390556	-81.188640	-169.307550
42438		8.773432	0.559808	-0.161837	0.153221	0.376067	0.127983	-0.384277	-0.372803	0.492676	91.107349	-81.266610	-167.917081
42439		8.862574	0.717974	-0.138706	0.202715	0.323695	0.114264	-0.389404	-0.356445	0.477539	90.028426	-81.333432	-166.704996
42440		8.875537	0.806536	-0.161797	0.204636	0.250999	0.087957	-0.397461	-0.365967	0.479492	89.208186	-81.381038	-165.753493
42441		8.874216	0.828919	-0.411300	0.204123	0.204304	0.058225	-0.390625	-0.371582	0.487305	88.560179	-81.411673	-164.976721
42442		8.513880	0.726939	-0.562515	0.268829	0.167533	0.041678	-0.389648	-0.370117	0.483643	88.084852	-81.430954	-164.336985
42443		8.318654	0.667387	-0.541199	0.332432	0.131135	0.011522	-0.396484	-0.359131	0.486084	87.788291	-81.434429	-163.841354
42444		8.100803	0.550453	-0.850124	0.356812	0.071077	-0.029544	-0.396973	-0.357666	0.488037	87.738909	-81.414188	-163.581373
42445		7.467814	0.350448	-1.238964	0.442351	0.011663	-0.065359	-0.395264	-0.364258	0.480713	87.970408	-81.376101	-163.556070
42446		7.662735	0.512359	-1.699184	0.557328	-0.004570	-0.097427	-0.387939	-0.367188	0.482910	88.330626	-81.318681	-163.594086
42447		7.863976	0.716925	-2.184456	0.636955	0.061509	-0.084917	-0.400635	-0.354492	0.484619	88.487118	-81.268638	-163.380094
42448		8.181860	0.748038	-2.174879	0.714676	0.024092	-0.060805	-0.393066	-0.357178	0.488525	88.824529	-81.231791	-163.303713
42449		9.137611	0.898181	-1.712056	0.655625	0.086012	-0.003312	-0.401367	-0.345703	0.493408	88.893710	-81.228470	-162.990518
42450		10.131690	1.126186	-0.975697	0.469612	0.163490	0.069502	-0.395752	-0.343994	0.496582	88.561712	-81.264534	-162.378784
42451		11.367218	1.648345	-0.576773	0.227199	0.169629	0.143817	-0.404785	-0.353027	0.495117	88.053595	-81.343603	-161.729963
42452		11.585636	2.118361	-0.505629	0.004264	0.115702	0.199952	-0.398193	-0.348633	0.490479	87.602861	-81.453946	-161.267998
42453		11.595850	2.562715	-0.762694	-0.167926	0.003041	0.216049	-0.401123	-0.348633	0.489014	87.472397	-81.577136	-161.230266
42454		11.495129	2.630388	-1.313657	-0.288828	-0.035791	0.200238	-0.397949	-0.350586	0.496826	87.425526	-81.691030	-161.346474
42455		11.253890	2.483902	-1.967923	-0.382932	-0.124722	0.181200	-0.407227	-0.349121	0.490723	87.680983	-81.797399	-161.823206
42456		11.304853	2.218274	-2.417741	-0.468476	-0.172192	0.165979	-0.404053	-0.355957	0.488037	88.090823	-81.894400	-162.504589
42457		11.633227	1.919926	-2.304687	-0.514671	-0.167972	0.146340	-0.403564	-0.354004	0.497803	88.470856	-81.980671	-163.183143
42458		12.029481	1.356799	-2.139418	-0.506804	-0.207771	0.141638	-0.408203	-0.355957	0.482178	89.032372	-82.062691	-164.039408
42459		12.436231	0.816108	-1.520644	-0.484547	-0.213038	0.147208	-0.408936	-0.359131	0.481934	89.641644	-82.147990	-164.931692
42460		12.670125	0.483046	-0.529014	-0.430464	-0.179235	0.149881	-0.404785	-0.369629	0.484863	90.158439	-82.232331	-165.698220
42461		12.852356	0.355120	0.261061	-0.461383	-0.159262	0.140325	-0.404053	-0.368164	0.486328	90.584246	-82.311658	-166.391608
42462		12.655342	0.642996	0.651694	-0.471198	-0.244422	0.142141	-0.399658	-0.366699	0.490967	91.382982	-82.388993	-167.465890
42463		12.713594	1.058000	1.344561	-0.323061	-0.374210	0.161487	-0.404541	-0.369141	0.488281	92.850138	-82.473020	-169.129570
42464		12.554682	1.139290	1.216419	-0.193763	-0.514198	0.225558	-0.401855	-0.375488	0.494873	95.062732	-82.579902	-171.469156
42465		11.965107	0.781798	1.069030	-0.067529	-0.551305	0.280067	-0.400146	-0.374268	0.496826	97.606553	-82.703938	-174.070008
42466		10.820697	0.386480	1.462146	0.193188	-0.507031	0.268392	-0.400146	-0.373535	0.489014	100.176402	-82.809160	-176.545129
42467		9.581925	-0.107004	1.637380	0.574923	-0.489634	0.207499	-0.399414	-0.371338	0.495361	102.896844	-82.868796	-178.951861
42468		8.413008	-0.411425	1.384342	0.941384	-0.407996	0.134592	-0.394043	-0.359131	0.503662	105.413165	-82.884522	179.059485
42469		7.539804	-0.521905	0.928963	1.168294	-0.231480	0.107607	-0.392578	-0.354736	0.501709	107.256126	-82.905520	177.879921
42470		6.953108	-0.356507	0.867342	1.169535	0.017189	0.125798	-0.402588	-0.347900	0.512695	108.038077	-82.975311	177.770756
42471		6.749314	0.020669	1.492188	1.106409	0.224609	0.195437	-0.392334	-0.348633	0.510986	107.965428	-83.120675	178.485657
42472		7.123044	0.463519	1.948966	1.075724	0.368501	0.283603	-0.399170	-0.341553	0.518311	107.313129	-83.337690	179.766648
42473		8.234256	1.119894	2.185093	1.065362	0.520681	0.369745	-0.398193	-0.333496	0.517578	105.967057	-83.625263	-178.261058
42474		9.664238	1.900113	2.312134	1.032491	0.657594	0.424157	-0.409180	-0.334473	0.515625	103.797712	-83.955243	-175.480565
42475		10.904072	2.871383	2.052066	1.007323	0.712424	0.453561	-0.416260	-0.321777	0.514404	101.059670	-84.296241	-172.144805
42476		11.712998	3.771907	1.554693	0.959698	0.669366	0.462197	-0.417236	-0.322754	0.517334	98.182299	-84.619885	-168.698330
42477		11.678453	4.254132	1.233635	0.895834	0.498403	0.377971	-0.431396	-0.314453	0.521484	95.921620	-84.869290	-165.909593
42478		10.518541	4.158453	1.119330	0.817146	0.331277	0.235086	-0.427246	-0.310791	0.512939	94.406220	-85.018832	-163.915154
42479		9.059578	3.564861	1.077970	0.716886	0.214916	0.103176	-0.424561	-0.300293	0.513184	93.464419	-85.085692	-162.554468
42480		8.976964	2.915913	0.898168	0.472138	0.096962	-0.086537	-0.430908	-0.302979	0.517090	93.076995	-85.037572	-161.891014
42481		9.171555	2.352737	0.676016	0.302145	-0.000806	-0.285686	-0.419189	-0.294922	0.513428	93.173678	-84.873553	-161.811202
42482		9.256347	1.838023	0.410887	0.290776	-0.028625	-0.443831	-0.428467	-0.309082	0.513672	93.375974	-84.616882	-161.844020
42483		8.974415	1.230671	0.385527	0.336305	-0.032129	-0.461085	-0.423096	-0.304199	0.512451	93.610253	-84.351508	-161.882718
42484		9.023900	0.894923	0.254162	0.334503	0.017644	-0.423236	-0.423340	-0.309814	0.523193	93.566154	-84.108238	-161.642761
42485		8.902259	0.776758	0.114836	0.347053	0.132693	-0.378944	-0.426758	-0.311523	0.525879	92.942115	-83.895224	-160.812259
42486		8.683119	0.756688	0.124712	0.400224	0.136708	-0.340828	-0.430664	-0.300537	0.517090	92.381671	-83.701934	-160.014866
42487		8.760041	1.030222	-0.114324	0.414545	0.120754	-0.325833	-0.420166	-0.302002	0.516602	91.954854	-83.517465	-159.343291
42488		8.861596	1.454016	-0.300232	0.344924	0.184333	-0.309532	-0.427979	-0.303467	0.522217	91.206992	-83.341266	-158.388563
42489		8.641392	1.786365	-0.504328	0.293264	0.171995	-0.291193	-0.418945	-0.303955	0.520752	90.535467	-83.175443	-157.540073
42490		8.493827	1.893817	-0.490414	0.279051	0.160305	-0.302244	-0.430664	-0.298828	0.522217	89.945286	-83.000838	-156.781494
42491		8.707144	2.303629	-0.457107	0.218391	0.133593	-0.328127	-0.431396	-0.309570	0.521484	89.477864	-82.811984	-156.181280
42492		8.523452	2.317619	-0.402118	0.132346	0.046762	-0.324078	-0.427002	-0.301758	0.516602	89.372083	-82.624209	-155.995128
42493		8.332076	2.285763	-0.319445	0.072025	0.014252	-0.303219	-0.426758	-0.311279	0.524170	89.379816	-82.449942	-155.958211
42494		8.179660	2.212053	-0.339728	-0.005023	-0.033390	-0.245646	-0.428711	-0.308350	0.520264	89.542928	-82.307509	-156.122581
42495		7.961789	2.267701	-0.469927	-0.109003	-0.009540	-0.166673	-0.425293	-0.316162	0.518799	89.540243	-82.211598	-156.179801
42496		7.902759	2.178979	-0.468040	-0.167421	0.022433	-0.096135	-0.427246	-0.316162	0.520264	89.367511	-82.154485	-156.099140
42497		7.952805	2.149683	-0.422852	-0.209509	0.048704	-0.039455	-0.432617	-0.320557	0.516113	89.061315	-82.131046	-155.908121
42498		8.090180	2.156349	-0.297310	-0.260700	0.087443	-0.006893	-0.428467	-0.325439	0.517578	88.563448	-82.124129	-155.553135
42499		8.206850	2.135600	-0.133110	-0.336778	0.067569	0.011526	-0.428467	-0.323242	0.510498	88.103082	-82.129173	-155.280085
42500		8.516962	2.146449	0.067755	-0.398887	0.033365	0.020361	-0.428467	-0.326660	0.523682	87.746619	-82.138199	-155.147755
42501		8.446235	2.102812	0.369149	-0.466293	-0.043582	0.016323	-0.427979	-0.322754	0.515869	87.671425	-82.148128	-155.338448
42502		8.414550	2.080824	0.570619	-0.528605	-0.151949	-0.000788	-0.428955	-0.334473	0.507813	88.012885	-82.148987	-155.985685
42503		8.169332	2.161301	-0.085439	-0.561700	-0.260078	-0.025428	-0.429932	-0.342529	0.514893	88.787350	-82.138151	-157.089268
42504		7.603703	2.416246	-1.013244	-0.533684	-0.377376	-0.032551	-0.423096	-0.336670	0.512695	90.059616	-82.119640	-158.679146
42505		7.212987	2.437346	-1.645585	-0.519586	-0.450264	-0.010045	-0.426025	-0.340332	0.514893	91.637499	-82.109567	-160.569532
42506		7.330406	2.434411	-2.303244	-0.608189	-0.470560	-0.005006	-0.417480	-0.352051	0.517578	93.241918	-82.093072	-162.537862
42507		7.473881	2.430544	-2.680904	-0.703249	-0.440472	0.028302	-0.420654	-0.353271	0.518555	94.673124	-82.091257	-164.386507
42508		8.018087	2.301672	-2.488773	-0.707842	-0.426166	0.023510	-0.424561	-0.351563	0.519287	96.037207	-82.079615	-166.169755
42509		8.726706	2.311600	-2.201956	-0.683284	-0.370594	0.013571	-0.420410	-0.361084	0.510742	97.179771	-82.062260	-167.715519
42510		9.744190	2.275567	-1.976797	-0.610667	-0.278621	-0.010749	-0.419189	-0.358643	0.515625	97.968436	-82.032758	-168.861568
42511		10.773140	2.177313	-1.658573	-0.449495	-0.204588	-0.040880	-0.419678	-0.357178	0.515137	98.526670	-81.992080	-169.682235
42512		11.938310	1.809162	-1.617141	-0.236241	-0.209973	-0.120714	-0.417236	-0.371094	0.515869	99.167764	-81.902824	-170.462756
42513		12.330743	1.523822	-1.656843	-0.050684	-0.222544	-0.195818	-0.410889	-0.360352	0.514893	99.898437	-81.770345	-171.227143
42514		11.903569	1.400643	-1.833040	0.120954	-0.249505	-0.225413	-0.415039	-0.359131	0.520996	100.783189	-81.615186	-172.047499
42515		11.309118	1.489280	-2.306709	0.293155	-0.267166	-0.229885	-0.414551	-0.368896	0.518555	101.798700	-81.455292	-172.901273
42516		10.681341	1.911432	-2.665890	0.428390	-0.254459	-0.211907	-0.410889	-0.359863	0.527588	102.823678	-81.303102	-173.685864
42517		10.501695	2.450548	-2.347635	0.433375	-0.168402	-0.159079	-0.405762	-0.367676	0.528809	103.558728	-81.191543	-174.175238
42518		10.515803	3.078595	-1.821603	0.348412	-0.145459	-0.106533	-0.409424	-0.364258	0.523438	104.194697	-81.109752	-174.612856
42519		10.861315	3.579688	-1.749271	0.259483	-0.141289	-0.059979	-0.407959	-0.360352	0.522217	104.799447	-81.055387	-175.071405
42520		11.352383	3.615105	-1.589723	0.276158	-0.182713	-0.049023	-0.405762	-0.366699	0.523682	105.561446	-80.998223	-175.678578
42521		11.651269	3.351124	-1.501855	0.277509	-0.283313	-0.088070	-0.401367	-0.365479	0.527588	106.623077	-80.903878	-176.589474
42522		11.604617	3.033124	-1.583291	0.269555	-0.400030	-0.161604	-0.405029	-0.362305	0.534668	107.971781	-80.744564	-177.795061
42523		11.209875	2.857131	-1.518649	0.236969	-0.458242	-0.217871	-0.397461	-0.366699	0.538818	109.385026	-80.541289	-179.086645
42524		10.836278	2.743601	-0.811718	0.153280	-0.469340	-0.254438	-0.400146	-0.369629	0.541992	110.683532	-80.309341	179.689778
42525		10.682562	2.579548	-0.133976	0.051315	-0.506707	-0.268297	-0.394287	-0.367188	0.538818	111.963066	-80.059578	178.424195
42526		11.027009	2.308325	0.604283	-0.025893	-0.512083	-0.297447	-0.394531	-0.372070	0.543945	113.113478	-79.786780	177.244877
42527		11.394513	1.862715	1.672756	-0.075179	-0.441167	-0.343839	-0.391602	-0.369873	0.544434	113.918158	-79.504249	176.386212
42528		11.358280	1.681438	1.959158	-0.063555	-0.469751	-0.403295	-0.385742	-0.378418	0.556641	114.686608	-79.179970	175.571262
42529		10.677231	1.621159	1.713598	-0.064842	-0.427336	-0.409733	-0.382813	-0.374512	0.551514	115.291146	-78.862694	174.920739
42530		9.609349	1.460966	1.949029	-0.234289	-0.377329	-0.359935	-0.388672	-0.382080	0.558350	115.696076	-78.580634	174.374797
42531		8.743714	1.638095	2.163522	-0.519668	-0.346788	-0.324615	-0.383545	-0.379395	0.559570	115.886450	-78.325649	173.879726
42532		8.160410	1.954027	2.150072	-0.740496	-0.249131	-0.309087	-0.386475	-0.397705	0.548828	115.713645	-78.101289	173.626480
42533		8.327464	2.162848	1.988872	-0.856095	-0.080213	-0.338873	-0.377686	-0.394775	0.558594	115.035375	-77.905104	173.821573
42534		8.933311	2.426783	1.918749	-0.929259	0.134827	-0.412872	-0.378174	-0.394531	0.549072	113.729632	-77.718797	174.616169
42535		9.653422	2.435896	1.945052	-0.987325	0.299584	-0.494079	-0.367920	-0.405762	0.549316	111.950907	-77.523514	175.861208
42536		11.003592	2.121597	1.860788	-1.027168	0.361141	-0.530222	-0.379395	-0.416504	0.538330	110.014068	-77.311273	177.245972
42537		11.163021	1.643029	1.970074	-1.036264	0.331694	-0.521927	-0.386475	-0.421631	0.530518	108.207436	-77.089988	178.492917
42538		12.314205	1.294334	1.222050	-1.002264	0.134318	-0.403445	-0.378906	-0.436768	0.531250	107.017678	-76.890379	179.127729
42539		11.057335	1.065407	0.508417	-0.817909	-0.126036	-0.281535	-0.387451	-0.442383	0.528320	106.653066	-76.714188	179.024046
42540		11.316704	0.812247	-0.007696	-0.593749	-0.191697	-0.141751	-0.378662	-0.445068	0.525635	106.662918	-76.602420	178.667255
42541		10.323140	0.676717	-0.344041	-0.385064	0.058833	0.052044	-0.373047	-0.448242	0.527832	106.350470	-76.639712	178.764795
42542		9.893341	0.565288	0.071618	-0.203292	-0.027451	0.254877	-0.375977	-0.448975	0.527588	106.477026	-76.772962	178.517974
42543		9.568686	0.738264	0.007787	-0.200364	0.023882	0.461571	-0.372803	-0.442139	0.525879	106.638312	-77.029479	178.237665
42544		8.467063	0.680319	0.117151	-0.173313	-0.005183	0.565473	-0.379883	-0.442139	0.524658	106.967659	-77.336464	177.800902
42545		8.249862	0.848630	0.005201	-0.199800	0.009071	0.655170	-0.389648	-0.444092	0.524902	107.339612	-77.695797	177.305841
42546		7.985517	1.058431	-0.263131	-0.258487	0.037109	0.701896	-0.387207	-0.436523	0.521729	107.665047	-78.083467	176.824310
42547		7.977764	1.119269	-0.369844	-0.312805	0.041969	0.678018	-0.398682	-0.440918	0.527100	107.957035	-78.459777	176.346187
42548		8.336927	1.197063	-0.529453	-0.322770	0.044487	0.622999	-0.396973	-0.436523	0.516113	108.206972	-78.804777	175.905379
42549		8.649544	1.077427	-0.507217	-0.315844	0.027911	0.539149	-0.398438	-0.433838	0.524902	108.455374	-79.102126	175.471036
42550		9.239422	1.177842	-0.672957	-0.309689	0.119009	0.447546	-0.406982	-0.439453	0.526123	108.367968	-79.364751	175.382147
42551		9.111896	0.951946	-0.615818	-0.278887	0.179294	0.373033	-0.401367	-0.436768	0.516113	108.052138	-79.598968	175.543976
42552		9.102337	0.736523	-0.707804	-0.221319	0.135208	0.311840	-0.404297	-0.437988	0.522217	107.827221	-79.790637	175.646455
42553		8.906851	0.547185	-0.668496	-0.171639	0.087659	0.250882	-0.408691	-0.431885	0.507080	107.716865	-79.941948	175.661778
42554		8.726598	0.502636	-0.741250	-0.125296	0.170159	0.193673	-0.414307	-0.442383	0.524902	107.311700	-80.074976	176.003051
42555		8.111991	0.351183	-0.721208	-0.064844	0.073580	0.153029	-0.409668	-0.441162	0.513916	107.203049	-80.170321	176.078742
42556		8.029933	0.352313	-0.856432	-0.026478	0.055187	0.138319	-0.412842	-0.433105	0.507568	107.153510	-80.253282	176.116388
42557		8.043650	0.316780	-0.972766	-0.017989	0.131581	0.148793	-0.414551	-0.442627	0.515137	106.877769	-80.355976	176.388784
42558		8.252983	0.255526	-1.075048	0.016998	0.150753	0.146496	-0.415527	-0.443848	0.508789	106.546236	-80.459150	176.737688
42559		8.426510	0.214388	-1.141080	0.043215	0.134394	0.134797	-0.417480	-0.441162	0.511475	106.270454	-80.554115	177.045516
42560		8.568559	0.268662	-1.244465	0.066456	0.116836	0.116961	-0.421143	-0.435547	0.505859	106.038772	-80.635094	177.321777
42561		8.765777	0.474190	-1.431208	0.085017	0.089774	0.087337	-0.420166	-0.442871	0.514160	105.881206	-80.696484	177.533934
42562		8.763125	0.576487	-1.576410	0.104213	0.080161	0.045382	-0.422363	-0.435059	0.509277	105.720211	-80.732030	177.760445
42563		8.779466	0.700137	-1.478103	0.098324	0.086498	0.021279	-0.431396	-0.434570	0.513672	105.514788	-80.756257	178.028767
42564		8.422479	0.593027	-1.082650	0.119789	0.112314	-0.008548	-0.424805	-0.432617	0.514893	105.200693	-80.766621	178.419467
42565		8.327993	0.555305	-0.947283	0.168878	0.094212	-0.035237	-0.430908	-0.438965	0.510010	104.955697	-80.760323	178.768824
42566		8.501403	0.530565	-1.405947	0.224522	0.147221	-0.055321	-0.430176	-0.435303	0.520508	104.540746	-80.749218	179.322546
42567		8.144845	0.377847	-1.808115	0.408560	0.147691	-0.114621	-0.422363	-0.434082	0.512939	104.184028	-80.705758	179.924285
42568		8.155855	0.313726	-1.781769	0.567700	0.171751	-0.167249	-0.425537	-0.430176	0.510498	103.794732	-80.634664	-179.348522
42569		8.374993	0.239413	-1.685563	0.679649	0.142063	-0.162241	-0.434082	-0.425293	0.516357	103.584657	-80.562797	-178.737764
42570		8.688003	0.160328	-1.507577	0.771097	0.075801	-0.117010	-0.431641	-0.432373	0.518555	103.686660	-80.506015	-178.390141
42571		9.562690	0.401669	-1.266715	0.704642	0.090208	-0.010836	-0.430420	-0.425537	0.516602	103.792217	-80.511445	-178.084715
42572		10.432191	0.854146	-0.874005	0.506029	0.111460	0.124851	-0.431885	-0.422119	0.524170	103.820559	-80.594316	-177.816344
42573		11.079249	1.541062	-0.671657	0.275842	0.086682	0.262280	-0.434326	-0.417969	0.523438	103.915412	-80.751297	-177.749193
42574		11.483187	2.439226	-0.938820	0.060348	0.022079	0.344185	-0.439453	-0.413330	0.521973	104.179736	-80.943852	-177.978704
42575		11.168584	3.117334	-1.478029	-0.108575	-0.062530	0.351488	-0.442383	-0.418701	0.521729	104.666892	-81.129139	-178.531752
42576		10.916570	3.340616	-1.822833	-0.231732	-0.081492	0.291209	-0.437988	-0.417969	0.521484	105.111733	-81.276516	-179.112985
42577		10.825241	2.962902	-2.111139	-0.338891	-0.062706	0.215744	-0.438721	-0.420898	0.527832	105.369606	-81.385488	-179.567147
42578		10.914589	2.150296	-2.050429	-0.440973	-0.052448	0.162185	-0.437988	-0.433350	0.526611	105.482279	-81.465123	-179.933240
42579		11.242110	1.227363	-1.927900	-0.546143	-0.105752	0.134291	-0.444092	-0.432617	0.521729	105.709568	-81.522086	179.523650
42580		11.630528	0.293822	-1.969108	-0.559646	-0.122167	0.135494	-0.439697	-0.429199	0.522949	105.994439	-81.575679	178.914942
42581		12.017834	-0.499956	-1.645761	-0.471528	-0.100034	0.150541	-0.441895	-0.422363	0.525391	106.271756	-81.641741	178.364639
42582		12.294249	-0.897529	-0.992712	-0.396099	-0.079716	0.168423	-0.447510	-0.431152	0.520508	106.540823	-81.719492	177.866871
42583		12.304516	-0.711239	-0.352492	-0.264235	-0.086952	0.162049	-0.446533	-0.428711	0.517822	106.915057	-81.793189	177.338855
42584		12.277565	0.014834	-0.213311	-0.068995	-0.181261	0.145242	-0.452393	-0.438477	0.522949	107.747421	-81.839853	176.461485
42585		12.247407	1.013148	-0.057812	-0.021379	-0.305795	0.158968	-0.447266	-0.440430	0.521973	109.109544	-81.869960	175.076210
42586		12.042333	2.034264	0.297052	-0.086224	-0.342596	0.221022	-0.445313	-0.437988	0.525635	110.668499	-81.920438	173.455072
42587		11.670179	2.557080	-0.028040	-0.200748	-0.391662	0.313015	-0.443848	-0.434570	0.528320	112.510000	-82.003655	171.482243
42588		10.945605	2.536922	0.035315	-0.247923	-0.391126	0.366768	-0.447754	-0.427246	0.524902	114.449223	-82.105235	169.384197
42589		9.993100	1.886498	0.723744	-0.080715	-0.336766	0.331999	-0.448486	-0.436279	0.525391	116.269699	-82.193434	167.502916
42590		9.126259	0.970711	1.323374	0.248285	-0.323070	0.257635	-0.446045	-0.434326	0.531982	118.117362	-82.238194	165.784985
42591		8.380161	0.209840	1.450673	0.565729	-0.271850	0.172821	-0.452148	-0.431396	0.535156	119.804841	-82.248278	164.412155
42592		7.901978	-0.000217	1.268819	0.778186	-0.104850	0.126747	-0.449219	-0.429932	0.535645	120.908762	-82.278653	163.751254
42593		7.648516	0.027581	1.259485	0.876966	0.149799	0.126731	-0.449951	-0.425293	0.549561	121.153629	-82.383948	164.014275
42594		7.644688	0.182809	1.547529	0.897508	0.378558	0.166801	-0.450684	-0.412109	0.532959	120.635758	-82.575459	165.058406
42595		7.940193	0.508054	1.846201	0.877531	0.558725	0.236290	-0.461182	-0.405518	0.548096	119.513620	-82.851915	166.699651
42596		8.636096	0.946602	1.925918	0.881115	0.668624	0.333391	-0.454102	-0.399170	0.546631	118.031044	-83.201989	168.704801
42597		9.662530	1.497290	1.721804	0.862087	0.775169	0.422836	-0.456299	-0.406006	0.544678	116.066885	-83.618729	171.182319
42598		10.851939	2.307324	1.394352	0.870740	0.788590	0.468098	-0.472656	-0.384521	0.541992	113.827565	-84.050846	173.939241
42599		11.676081	3.128059	1.003170	0.784737	0.687588	0.433456	-0.479980	-0.386719	0.539551	111.640500	-84.431239	176.592371
42600		11.262838	3.562435	0.792255	0.656101	0.575555	0.369823	-0.490234	-0.381836	0.541992	109.553567	-84.743911	179.068958
42601		10.664566	3.735193	0.887641	0.531546	0.435431	0.244752	-0.485596	-0.379395	0.538574	107.749803	-84.955677	-178.811101
42602		10.312121	3.575737	0.961268	0.329933	0.363801	0.031801	-0.494141	-0.371826	0.541504	105.729765	-85.031366	-176.590892
42603		9.982457	3.230817	0.996439	0.102244	0.253143	-0.242451	-0.486816	-0.378174	0.542725	103.805491	-84.933157	-174.597328
42604		9.806731	2.879591	0.964529	-0.042115	0.113893	-0.476745	-0.500977	-0.378174	0.537354	102.410557	-84.680049	-173.218252
42605		9.178641	2.353914	0.985853	-0.068338	0.100670	-0.606112	-0.492676	-0.383057	0.546875	101.064496	-84.350976	-171.902258
42606		8.790254	1.770682	0.832279	-0.055495	0.126466	-0.636426	-0.491943	-0.388672	0.544189	99.698991	-84.003461	-170.559072
42607		8.533529	1.275966	0.653469	-0.026386	0.158535	-0.638296	-0.495361	-0.395264	0.537354	98.339561	-83.655776	-169.203846
42608		8.388292	1.002798	0.302987	0.039392	0.200452	-0.606398	-0.486328	-0.389893	0.537354	96.968361	-83.324850	-167.798521
42609		8.496383	0.771539	0.038203	0.115211	0.282372	-0.570341	-0.487061	-0.394043	0.544678	95.411893	-83.016752	-166.161364
42610		8.678346	0.655612	-0.156134	0.186477	0.342269	-0.540258	-0.488281	-0.399170	0.535889	93.767634	-82.722053	-164.394116
42611		8.730840	0.840907	-0.326968	0.283299	0.344005	-0.486766	-0.492188	-0.398438	0.539063	92.317372	-82.453426	-162.764857
42612		8.706151	1.108764	-0.374569	0.364387	0.345470	-0.432432	-0.488037	-0.396484	0.537842	91.013049	-82.209752	-161.235586
42613		8.802488	1.532113	-0.368443	0.406972	0.266666	-0.407847	-0.496338	-0.403320	0.534180	90.142770	-81.977119	-160.118442
42614		8.663058	1.975915	-0.732566	0.387193	0.187823	-0.437530	-0.493896	-0.412842	0.539795	89.626662	-81.724494	-159.370412
42615		8.302971	2.291491	-0.925020	0.359521	0.078671	-0.437653	-0.500732	-0.400879	0.540771	89.552681	-81.472950	-159.084300
42616		8.410413	2.548564	-1.161481	0.327477	0.044827	-0.388586	-0.496338	-0.402832	0.544434	89.592206	-81.248376	-158.931879
42617		8.292025	2.542538	-1.218554	0.280080	0.074280	-0.301939	-0.493164	-0.397461	0.541260	89.500364	-81.074576	-158.673424
42618		8.123566	2.615317	-1.375415	0.312499	0.016738	-0.190184	-0.493408	-0.406006	0.541992	89.634037	-80.963751	-158.624776
42619		8.095741	2.925985	-1.506530	0.392672	-0.027422	-0.088181	-0.496338	-0.401855	0.547363	89.970938	-80.912805	-158.734999
42620		8.008212	3.179546	-1.242563	0.407088	0.037169	-0.015811	-0.494385	-0.395996	0.550781	90.081444	-80.901905	-158.607883
42621		8.011774	3.225348	-1.009403	0.347665	0.091911	0.028498	-0.494385	-0.400879	0.545654	89.963816	-80.917772	-158.283918
42622		8.094926	3.018061	-0.577073	0.241551	0.133942	0.051885	-0.500244	-0.395264	0.552002	89.631514	-80.945314	-157.804354
42623		7.844243	2.923935	0.020455	-0.010372	0.122827	0.067313	-0.495850	-0.401367	0.551270	89.192935	-80.982691	-157.363173
42624		7.471428	3.078944	0.134256	-0.337184	0.035623	0.082715	-0.495117	-0.399170	0.543213	88.876861	-81.027776	-157.235824
42625		7.294191	3.272202	-0.210895	-0.578202	-0.058006	0.085794	-0.496826	-0.406006	0.552490	88.762671	-81.077156	-157.452485
42626		6.819605	3.368272	-0.332093	-0.698312	-0.134954	0.066134	-0.498535	-0.405273	0.541260	88.862134	-81.114623	-157.955195
42627		6.788603	3.199311	-0.737090	-0.712234	-0.197141	0.052423	-0.490723	-0.398438	0.534424	89.187048	-81.146121	-158.693953
42628		6.880546	2.919145	-1.265279	-0.758244	-0.182940	0.041166	-0.494141	-0.406982	0.544678	89.435596	-81.168861	-159.382161
42629		7.319083	2.332899	-1.425526	-0.775897	-0.090339	0.051187	-0.497314	-0.415039	0.539307	89.335308	-81.198277	-159.727438
42630		8.024198	1.799467	-1.185706	-0.770343	-0.021544	0.042532	-0.495117	-0.417969	0.538330	88.982800	-81.220676	-159.814267
42631		9.026039	1.275252	-0.905185	-0.702957	-0.030677	0.007526	-0.501953	-0.423584	0.526123	88.705953	-81.224889	-159.938570
42632		10.246824	0.913033	-0.721770	-0.573113	-0.114448	-0.048320	-0.502441	-0.426514	0.535645	88.817052	-81.196489	-160.380098
42633		11.420054	0.749361	-0.737898	-0.396460	-0.220675	-0.118887	-0.506836	-0.428467	0.533936	89.422406	-81.129861	-161.219500
42634		12.048148	0.637420	-1.024544	-0.170925	-0.313904	-0.172164	-0.506592	-0.439453	0.525635	90.482149	-81.029240	-162.388152
42635		11.882447	0.755123	-1.530675	0.037093	-0.331043	-0.180300	-0.500000	-0.429688	0.537109	91.697371	-80.921831	-163.593976
42636		11.261533	0.983778	-1.890518	0.207732	-0.310913	-0.153350	-0.493652	-0.438965	0.534912	92.913239	-80.824745	-164.701628
42637		10.888693	1.390034	-1.840415	0.287267	-0.212924	-0.097656	-0.497559	-0.426270	0.542236	93.820866	-80.761154	-165.451250
42638		10.769615	1.924170	-1.318246	0.331328	-0.076970	-0.051778	-0.502930	-0.433105	0.542969	94.278627	-80.726309	-165.719348
42639		10.884262	2.469511	-0.784496	0.346581	0.008528	-0.030668	-0.497314	-0.422119	0.550293	94.451039	-80.708567	-165.689725
