// General information: 
//  MT Manager version: 2022.2.0 
//  XDA version: 2022.2.0 build 7381 rev 124627 built on 2023-07-19
// Device information: 
//  DeviceId: 00B4BCF6
//  ProductCode: MTW2-3A7G6
//  Firmware Version: 4.6.0
//  Hardware Version: 2.0.0
// Device settings: 
//  Filter Profile: human(46.1)
//  Option Flags: Orientation Smoother Disabled, Position/Velocity Smoother Disabled, Continuous Zero Rotation Update Disabled, AHS Disabled, ICC Disabled
// Coordinate system: ENU
PacketCounter	SampleTimeFine	Acc_X	Acc_Y	Acc_Z	Gyr_X	Gyr_Y	Gyr_Z	Mag_X	Mag_Y	Mag_Z	Roll	Pitch	Yaw
09283		-3.515074	-8.539565	3.396807	-0.001146	0.005666	-0.003545	-0.675049	0.243896	0.024658	-68.247691	20.571907	130.061744
09284		-3.496216	-8.537164	3.367607	-0.000257	0.004625	-0.006092	-0.675781	0.239014	0.027100	-68.247634	20.572515	130.062381
09285		-3.491851	-8.532921	3.391036	-0.001983	0.002526	-0.001697	-0.677734	0.246338	0.018555	-68.247813	20.573864	130.065281
09286		-3.522236	-8.517165	3.393071	-0.002879	0.005387	-0.004813	-0.669434	0.236816	0.024658	-68.249315	20.575297	130.065827
09287		-3.483815	-8.556233	3.393381	0.000837	0.003141	-0.001847	-0.677979	0.244629	0.024658	-68.248013	20.576697	130.068344
09288		-3.518344	-8.544775	3.372068	0.001475	0.004906	-0.004823	-0.674561	0.244385	0.020020	-68.246929	20.577993	130.069334
09289		-3.486980	-8.529053	3.414052	0.000441	0.000389	-0.004104	-0.682617	0.240723	0.024170	-68.245484	20.577607	130.072903
09290		-3.502741	-8.515046	3.363813	0.001475	0.004906	-0.004823	-0.683105	0.248291	0.025635	-68.244402	20.578929	130.073585
09291		-3.494680	-8.538179	3.366626	-0.000258	0.004626	-0.006091	-0.681396	0.239014	0.022705	-68.244363	20.578385	130.074295
09292		-3.486169	-8.529520	3.413713	0.000137	0.007378	-0.003834	-0.679932	0.243652	0.023682	-68.244464	20.580758	130.073963
09293		-3.505287	-8.564104	3.397871	-0.005054	0.004717	-0.001977	-0.674316	0.242188	0.028809	-68.246862	20.582424	130.075554
09294		-3.512763	-8.541339	3.394736	0.002614	0.001060	-0.006939	-0.679443	0.249512	0.029541	-68.244525	20.581780	130.078404
09295		-3.489570	-8.534547	3.389293	-0.002045	0.008529	-0.006659	-0.681152	0.230713	0.021240	-68.246334	20.581763	130.076767
09296		-3.507885	-8.537414	3.417914	-0.000259	0.004627	-0.006090	-0.674072	0.244629	0.019287	-68.246307	20.582304	130.077511
09297		-3.484820	-8.530589	3.412418	-0.000062	0.006003	-0.004961	-0.676758	0.244385	0.022217	-68.246340	20.582654	130.077695
09298		-3.484615	-8.530793	3.412119	-0.001597	0.007099	-0.005101	-0.681396	0.243408	0.018555	-68.247475	20.584299	130.077037
09299		-3.541675	-8.526544	3.395919	0.001914	0.005298	-0.008924	-0.679688	0.238525	0.017090	-68.246551	20.582390	130.076723
09300		-3.506556	-8.538351	3.416937	-0.003331	0.006819	-0.006369	-0.681641	0.242920	0.017822	-68.248748	20.583278	130.075384
09301		-3.487623	-8.535938	3.387793	0.003008	0.003813	-0.004680	-0.681641	0.239990	0.022217	-68.246562	20.583312	130.076877
09302		-3.510177	-8.543145	3.392867	-0.003134	0.008195	-0.005240	-0.682617	0.234375	0.018066	-68.248828	20.585085	130.075254
09303		-3.517567	-8.520501	3.389536	-0.000907	0.004684	-0.008774	-0.676025	0.244873	0.020996	-68.249385	20.583126	130.075323
09304		-3.509324	-8.543695	3.392365	0.002558	0.005245	-0.006237	-0.679199	0.235352	0.012451	-68.247887	20.583723	130.075095
09305		-3.482126	-8.532365	3.410728	0.001472	0.004909	-0.004819	-0.685547	0.247314	0.018555	-68.246811	20.583916	130.075932
09306		-3.489653	-8.509572	3.407639	-0.001348	0.004293	-0.004671	-0.680908	0.243896	0.021973	-68.247236	20.585173	130.076151
09307		-3.504344	-8.539781	3.415632	-0.000261	0.004629	-0.006088	-0.687012	0.240967	0.022949	-68.247199	20.584632	130.076860
09308		-3.508111	-8.544333	3.392012	0.005376	0.005862	-0.006384	-0.678955	0.244629	0.020264	-68.244208	20.585289	130.076586
09309		-3.488740	-8.510082	3.407299	-0.003137	0.008196	-0.005239	-0.679443	0.235107	0.024902	-68.246463	20.585957	130.075460
09310		-3.484780	-8.537657	3.386387	0.004926	0.007294	-0.007940	-0.669678	0.245605	0.025391	-68.244147	20.586059	130.074083
09311		-3.480256	-8.533372	3.410118	0.001274	0.003535	-0.005947	-0.676025	0.243652	0.020020	-68.243000	20.585361	130.075446
09312		-3.491806	-8.515045	3.383366	-0.000516	0.007437	-0.006515	-0.680176	0.242432	0.028076	-68.243688	20.586288	130.074696
09313		-3.483762	-8.538208	3.386045	-0.000066	0.006006	-0.004958	-0.677490	0.244629	0.020020	-68.243724	20.586640	130.074878
09314		-3.509930	-8.518107	3.411752	-0.001799	0.005725	-0.006227	-0.686279	0.238770	0.022461	-68.244795	20.587339	130.075093
09315		-3.486743	-8.511287	3.406335	0.002360	0.003872	-0.007362	-0.672119	0.243408	0.018311	-68.243206	20.585959	130.075943
09316		-3.490527	-8.515941	3.382429	-0.005255	0.003341	-0.003106	-0.677490	0.235352	0.025391	-68.245547	20.587800	130.077690
09317		-3.509067	-8.518825	3.410846	-0.000575	0.011621	-0.005813	-0.676025	0.240967	0.023682	-68.247065	20.588890	130.074486
09318		-3.474107	-8.530500	3.431980	0.002360	0.003873	-0.007361	-0.677246	0.234131	0.019531	-68.245494	20.588530	130.075409
09319		-3.485743	-8.512062	3.405421	0.002114	0.004856	-0.002131	-0.683594	0.245850	0.020752	-68.243825	20.590142	130.076886
09320		-3.504696	-8.546551	3.389954	0.001468	0.004912	-0.004816	-0.678955	0.240479	0.018066	-68.242768	20.591390	130.077247
09321		-3.489411	-8.516716	3.381631	-0.000264	0.004631	-0.006085	-0.674072	0.243652	0.016113	-68.242732	20.590850	130.077954
09322		-3.485133	-8.512477	3.405008	-0.002241	0.005334	-0.002124	-0.673828	0.237549	0.021240	-68.243662	20.593647	130.078532
09323		-3.495907	-8.538222	3.436575	-0.000069	0.006008	-0.004956	-0.679199	0.240479	0.024170	-68.243699	20.594000	130.078714
09324		-3.530417	-8.526955	3.414894	-0.002692	0.006766	-0.003680	-0.676758	0.248047	0.020752	-68.245302	20.596215	130.078688
09325		-3.476761	-8.535972	3.407175	0.002614	0.001066	-0.006932	-0.679688	0.237793	0.022949	-68.242972	20.594467	130.081230
09326		-3.476543	-8.536146	3.406960	-0.002752	0.010950	-0.002979	-0.683105	0.237549	0.021973	-68.245374	20.597983	130.078983
09327		-3.488278	-8.517820	3.380018	-0.000009	0.001825	-0.005657	-0.674072	0.249268	0.019775	-68.244597	20.597075	130.081383
09328		-3.494696	-8.539220	3.435327	-0.001802	0.005728	-0.006224	-0.680420	0.248535	0.027588	-68.245669	20.597757	130.081258
09329		-3.479642	-8.541267	3.382565	0.001908	0.005307	-0.008915	-0.674072	0.249512	0.021729	-68.244750	20.595856	130.080940
09330		-3.517613	-8.502652	3.381811	-0.000070	0.006009	-0.004955	-0.678711	0.242432	0.024658	-68.244752	20.597307	130.081680
09331		-3.497577	-8.544369	3.411090	-0.001997	0.004352	-0.007353	-0.680420	0.238037	0.018555	-68.245755	20.596034	130.082259
09332		-3.509051	-8.526033	3.384450	0.005371	0.005871	-0.006375	-0.675537	0.249268	0.027344	-68.242776	20.596621	130.081927
09333		-3.473891	-8.537658	3.405877	0.001456	0.006740	-0.010469	-0.680908	0.248291	0.022217	-68.242526	20.594196	130.080441
09334		-3.481281	-8.515016	3.402598	-0.003146	0.008199	-0.005235	-0.678955	0.244629	0.030762	-68.244755	20.595953	130.079851
09335		-3.503721	-8.522324	3.407601	0.002357	0.003877	-0.007357	-0.677734	0.245117	0.017334	-68.243169	20.594577	130.080700
09336		-3.495513	-8.545478	3.410429	-0.000523	0.007442	-0.006509	-0.681641	0.241943	0.023926	-68.243866	20.595452	130.079979
09337		-3.476124	-8.511281	3.425633	0.000563	0.007780	-0.007924	-0.679932	0.248535	0.017090	-68.244133	20.594603	130.078480
09338		-3.502611	-8.523040	3.406951	-0.000524	0.007443	-0.006509	-0.665771	0.238525	0.019775	-68.244835	20.595493	130.077251
09339		-3.479528	-8.516176	3.401489	0.001013	0.006349	-0.006368	-0.686279	0.242920	0.024902	-68.244433	20.595169	130.076918
09340		-3.494025	-8.546460	3.409492	-0.000913	0.004691	-0.008766	-0.683594	0.240967	0.025391	-68.245001	20.594212	130.076921
09341		-3.482878	-8.521076	3.377380	0.000314	0.008764	-0.002694	-0.680908	0.246826	0.024902	-68.245190	20.596355	130.076049
09342		-3.501394	-8.523919	3.406003	-0.000719	0.006068	-0.007636	-0.683105	0.241699	0.029541	-68.245822	20.596310	130.075853
09343		-3.509131	-8.533018	3.358472	0.001012	0.006350	-0.006366	-0.681396	0.241211	0.029297	-68.245421	20.595986	130.075521
09344		-3.515643	-8.554403	3.413763	-0.000526	0.007445	-0.006507	-0.675049	0.240479	0.018799	-68.246137	20.596788	130.075244
09345		-3.469749	-8.540476	3.403034	0.000560	0.007783	-0.007921	-0.674072	0.240967	0.015869	-68.246406	20.595941	130.073744
09346		-3.503971	-8.529288	3.381508	0.002097	0.006689	-0.007780	-0.669678	0.239014	0.017090	-68.245579	20.595943	130.072174
09347		-3.507372	-8.502144	3.402037	-0.000528	0.007445	-0.006506	-0.679932	0.238037	0.023926	-68.246290	20.595778	130.071186
09348		-3.495363	-8.552707	3.384059	0.001644	0.008123	-0.009334	-0.681641	0.240723	0.021484	-68.246140	20.595219	130.068791
09349		-3.502705	-8.530052	3.380893	-0.000722	0.006070	-0.007634	-0.669678	0.243652	0.029785	-68.246778	20.594161	130.068330
09350		-3.494169	-8.521433	3.428058	0.002096	0.006691	-0.007778	-0.678711	0.233643	0.019531	-68.245938	20.594139	130.067948
09351		-3.475021	-8.519041	3.398922	-0.002261	0.007164	-0.007775	-0.683594	0.239258	0.022705	-68.247688	20.593238	130.066833
09352		-3.501418	-8.530878	3.380145	0.000556	0.007786	-0.007918	-0.675781	0.242188	0.015381	-68.247998	20.593331	130.064753
09353		-3.482322	-8.528431	3.351079	0.001008	0.006353	-0.006363	-0.680176	0.240479	0.020996	-68.247600	20.593010	130.064419
09354		-3.496621	-8.526907	3.403424	-0.000723	0.006071	-0.007633	-0.669434	0.242188	0.024658	-68.248257	20.592952	130.063321
09355		-3.492383	-8.522632	3.426898	0.001845	0.007673	-0.002550	-0.681396	0.241211	0.020264	-68.247339	20.594940	130.063102
09356		-3.477422	-8.524530	3.374284	0.001901	0.005317	-0.008905	-0.684814	0.243164	0.011719	-68.246431	20.594025	130.062841
09357		-3.518270	-8.534582	3.408370	0.001708	0.003941	-0.010034	-0.672607	0.240967	0.028320	-68.245442	20.591238	130.063045
09358		-3.480134	-8.497722	3.394708	-0.003157	0.008203	-0.005231	-0.680908	0.240967	0.014648	-68.247723	20.592902	130.061558
09359		-3.506656	-8.509497	3.375967	0.001267	0.003545	-0.005936	-0.676514	0.239502	0.015869	-68.246581	20.592212	130.062917
09360		-3.509345	-8.558256	3.410584	-0.001811	0.005733	-0.006218	-0.680908	0.245117	0.024414	-68.247691	20.592825	130.061885
09361		-3.494104	-8.528475	3.402081	-0.000533	0.007449	-0.006502	-0.680420	0.238037	0.019775	-68.248406	20.592663	130.060896
09362		-3.501636	-8.505763	3.398896	0.001005	0.006356	-0.006361	-0.676514	0.242188	0.020508	-68.248025	20.593313	130.060442
09363		-3.493494	-8.528891	3.401663	0.000744	0.009166	-0.006786	-0.674316	0.237061	0.027588	-68.248374	20.593364	130.058413
09364		-3.501110	-8.538041	3.354077	-0.000918	0.004697	-0.008760	-0.680664	0.241699	0.024658	-68.248955	20.592352	130.058721
09365		-3.515459	-8.536556	3.406326	-0.000343	0.008827	-0.005372	-0.682129	0.248047	0.021240	-68.249747	20.593083	130.057205
09366		-3.492393	-8.529679	3.400818	-0.000727	0.006074	-0.007630	-0.690918	0.238281	0.015137	-68.250389	20.593025	130.056872
09367		-3.477120	-8.499925	3.392279	-0.002075	0.008545	-0.006642	-0.685547	0.241211	0.024902	-68.252217	20.593020	130.055229
09368		-3.483806	-8.553169	3.403119	0.000812	0.004981	-0.007488	-0.682861	0.233643	0.024414	-68.251785	20.592759	130.054684
09369		-3.495384	-8.534881	3.376282	-0.001169	0.005678	-0.003533	-0.678711	0.241699	0.019775	-68.252274	20.593800	130.055375
09370		-3.509891	-8.533327	3.428574	-0.000274	0.004641	-0.006075	-0.674805	0.249268	0.019287	-68.252283	20.594183	130.055796
09371		-3.468071	-8.523674	3.394401	0.001456	0.004924	-0.004804	-0.685059	0.245361	0.022217	-68.251218	20.594388	130.056627
09372		-3.517193	-8.542603	3.380970	-0.000920	0.004699	-0.008758	-0.681885	0.242920	0.022949	-68.251773	20.593459	130.056703
09373		-3.489989	-8.531277	3.399279	0.000179	0.003208	-0.004520	-0.675537	0.241211	0.020508	-68.251075	20.593451	130.058575
09374		-3.493743	-8.535924	3.375342	-0.002901	0.005395	-0.004803	-0.681152	0.243652	0.026367	-68.252615	20.594709	130.059081
09375		-3.485558	-8.527263	3.422322	0.000930	0.010546	-0.005652	-0.687744	0.236816	0.031006	-68.253044	20.595656	130.056524
09376		-3.515946	-8.511672	3.424302	-0.000276	0.004643	-0.006074	-0.678467	0.238037	0.026367	-68.253039	20.596025	130.057860
09377		-3.466267	-8.524955	3.393027	-0.000085	0.006019	-0.004944	-0.686279	0.240967	0.017578	-68.253087	20.596388	130.058037
09378		-3.488801	-8.532240	3.398080	0.001455	0.004926	-0.004802	-0.678955	0.239258	0.019287	-68.252053	20.597512	130.058583
09379		-3.488571	-8.532387	3.397947	-0.000085	0.006020	-0.004944	-0.677979	0.249756	0.025635	-68.252101	20.597875	130.058760
09380		-3.511076	-8.539739	3.402867	-0.000540	0.007454	-0.006497	-0.678223	0.242920	0.024170	-68.252821	20.598681	130.057923
09381		-3.461128	-8.521212	3.416117	0.002613	0.001080	-0.006918	-0.682861	0.239746	0.017578	-68.250494	20.596944	130.060461
09382		-3.510322	-8.540128	3.402668	-0.000614	0.011642	-0.005792	-0.684326	0.234863	0.029297	-68.252057	20.598982	130.056956
09383		-3.495141	-8.510339	3.394125	-0.002007	0.004361	-0.007343	-0.685547	0.237061	0.023438	-68.253066	20.597716	130.057532
09384		-3.505680	-8.536231	3.425652	-0.001363	0.004303	-0.004660	-0.675537	0.247070	0.021240	-68.253525	20.598715	130.058841
09385		-3.490616	-8.538191	3.372843	-0.000541	0.007455	-0.006496	-0.685791	0.242920	0.022705	-68.254246	20.598556	130.057850
09386		-3.490247	-8.506574	3.417040	0.001453	0.004928	-0.004800	-0.685547	0.243652	0.023193	-68.253183	20.599726	130.058719
09387		-3.490099	-8.538491	3.372618	0.001453	0.004928	-0.004800	-0.679443	0.245605	0.018311	-68.252121	20.599934	130.059549
09388		-3.489703	-8.506907	3.416765	-0.003094	0.004020	-0.005931	-0.679199	0.246094	0.028320	-68.253579	20.600305	130.060427
09389		-3.485540	-8.534566	3.395585	-0.003169	0.008208	-0.005225	-0.681396	0.245361	0.028564	-68.255855	20.600983	130.059296
09390		-3.481344	-8.530299	3.419043	0.002993	0.003835	-0.004658	-0.679443	0.241211	0.021240	-68.253669	20.601965	130.061788
09391		-3.488995	-8.507531	3.415935	-0.001629	0.007115	-0.005083	-0.671875	0.244141	0.020996	-68.254832	20.602486	130.061311
09392		-3.484871	-8.535108	3.394909	-0.001364	0.004304	-0.004659	-0.676758	0.241699	0.030273	-68.255253	20.603563	130.062447
09393		-3.507328	-8.542482	3.399847	-0.000279	0.004646	-0.006070	-0.684814	0.242432	0.022705	-68.255228	20.603035	130.063150
09394		-3.496074	-8.517100	3.367761	-0.001820	0.005739	-0.006212	-0.676758	0.241943	0.017334	-68.256324	20.603555	130.063709
09395		-3.491741	-8.512880	3.391251	0.001262	0.003553	-0.005928	-0.676025	0.242188	0.019531	-68.255186	20.602870	130.065065
09396		-3.506385	-8.543148	3.399145	-0.002717	0.006774	-0.003671	-0.678955	0.237793	0.025391	-68.256807	20.604996	130.064552
09397		-3.479529	-8.531799	3.417149	-0.003172	0.008209	-0.005224	-0.677002	0.244873	0.027100	-68.259085	20.605675	130.063421
09398		-3.509884	-8.516251	3.419132	0.004898	0.007332	-0.007900	-0.677979	0.242920	0.024414	-68.256788	20.605620	130.062702
09399		-3.501605	-8.539329	3.422097	-0.000280	0.004647	-0.006069	-0.676025	0.240479	0.024414	-68.256763	20.605093	130.063404
09400		-3.478442	-8.532417	3.416711	-0.000735	0.006082	-0.007622	-0.681396	0.244873	0.017578	-68.257418	20.604932	130.063226
09401		-3.489971	-8.514137	3.389918	0.002725	0.006650	-0.005078	-0.676270	0.248291	0.015869	-68.255993	20.605357	130.063015
09402		-3.481795	-8.537200	3.392805	-0.000280	0.004647	-0.006069	-0.687256	0.246826	0.026123	-68.255964	20.605801	130.063067
09403		-3.489324	-8.514556	3.389530	-0.003096	0.004022	-0.005930	-0.685547	0.236328	0.029785	-68.257417	20.605215	130.064156
09404		-3.503925	-8.513006	3.441878	0.003180	0.005215	-0.003525	-0.680908	0.239502	0.020508	-68.255337	20.607019	130.065662
09405		-3.484830	-8.542169	3.368752	0.002346	0.003897	-0.007336	-0.678955	0.244385	0.031738	-68.253759	20.605659	130.066503
09406		-3.499320	-8.540677	3.421070	-0.002908	0.005398	-0.004800	-0.670654	0.236328	0.024902	-68.255297	20.606834	130.067535
09407		-3.511005	-8.522429	3.394042	-0.001178	0.005683	-0.003528	-0.673828	0.249268	0.031738	-68.255792	20.607879	130.068226
09408		-3.476106	-8.533913	3.415353	0.000804	0.004991	-0.007478	-0.678223	0.244629	0.026123	-68.255319	20.607543	130.069449
09409		-3.498525	-8.541296	3.420337	-0.000093	0.006025	-0.004938	-0.683594	0.237793	0.034424	-68.255373	20.607910	130.069625
09410		-3.506151	-8.550369	3.372800	0.000992	0.006368	-0.006348	-0.678711	0.241699	0.025879	-68.254992	20.608434	130.070276
09411		-3.501872	-8.546157	3.396232	-0.001824	0.005742	-0.006209	-0.675293	0.239990	0.022949	-68.256082	20.608065	130.070325
09412		-3.486559	-8.516331	3.387917	0.001889	0.005335	-0.008886	-0.683105	0.238525	0.020996	-68.255190	20.607040	130.070134
09413		-3.474314	-8.535000	3.414459	-0.000094	0.006026	-0.004937	-0.681885	0.244629	0.026367	-68.255245	20.607408	130.070310
09414		-3.496828	-8.542350	3.419440	0.000174	0.003214	-0.004514	-0.682617	0.247559	0.024658	-68.254566	20.608266	130.072127
09415		-3.496595	-8.542543	3.419197	-0.001637	0.007119	-0.005079	-0.676514	0.245361	0.018066	-68.255735	20.608790	130.071649
09416		-3.485408	-8.517123	3.387108	-0.000283	0.004650	-0.006066	-0.679199	0.241943	0.025635	-68.255704	20.609188	130.072281
09417		-3.507825	-8.524518	3.392080	0.000990	0.006370	-0.006346	-0.684082	0.244873	0.020752	-68.255319	20.608879	130.071942
09418		-3.499518	-8.547633	3.394944	0.000802	0.004993	-0.007475	-0.677002	0.239258	0.019775	-68.254863	20.608553	130.072119
09419		-3.484274	-8.517749	3.386703	0.000990	0.006370	-0.006345	-0.679932	0.239746	0.028076	-68.254478	20.608244	130.071780
09420		-3.498890	-8.547992	3.394687	0.000360	0.004592	-0.003384	-0.672607	0.238037	0.019775	-68.253884	20.609961	130.073073
09421		-3.506629	-8.525231	3.391525	-0.000096	0.006028	-0.004935	-0.684082	0.241455	0.025391	-68.253940	20.610330	130.073248
09422		-3.483487	-8.518199	3.386379	0.002613	0.001089	-0.006910	-0.687500	0.242920	0.026855	-68.251637	20.609433	130.075541
09423		-3.471228	-8.536878	3.412904	-0.002096	0.008556	-0.006629	-0.677246	0.246826	0.018555	-68.253479	20.609438	130.073894
09424		-3.501588	-8.521439	3.414709	-0.000285	0.004651	-0.006065	-0.681641	0.247559	0.021729	-68.253462	20.609797	130.074576
09425		-3.497379	-8.548964	3.393798	0.000090	0.007405	-0.003805	-0.677002	0.238770	0.019043	-68.253597	20.611060	130.074224
09426		-3.527911	-8.533420	3.395695	-0.000098	0.006028	-0.004934	-0.676270	0.247070	0.024902	-68.253666	20.612302	130.073990
09427		-3.482162	-8.519207	3.385207	-0.001371	0.004308	-0.004655	-0.680420	0.241943	0.021973	-68.254085	20.612455	130.075206
09428		-3.500843	-8.522085	3.413860	0.002904	0.008034	-0.003941	-0.678955	0.243164	0.030273	-68.252746	20.614650	130.074643
09429		-3.481722	-8.519483	3.384964	-0.000472	0.003275	-0.007193	-0.676758	0.246826	0.021484	-68.252647	20.613234	130.075871
09430		-3.496275	-8.549784	3.392868	-0.002000	0.002528	-0.001694	-0.685059	0.242188	0.022949	-68.252830	20.615445	130.079370
09431		-3.462378	-8.517142	3.355629	-0.001013	0.008902	-0.008036	-0.682861	0.248047	0.017578	-68.254234	20.614775	130.077208
09432		-3.487852	-8.541374	3.439614	-0.000286	0.004653	-0.006063	-0.682861	0.244873	0.026123	-68.254227	20.615131	130.077460
09433		-3.526063	-8.534758	3.394250	0.001444	0.004937	-0.004790	-0.679199	0.247803	0.021240	-68.253171	20.615347	130.078288
09434		-3.472392	-8.543379	3.386881	-0.000100	0.006030	-0.004933	-0.676514	0.244873	0.022949	-68.253227	20.616593	130.078706
09435		-3.510660	-8.505050	3.385735	-0.002016	0.004368	-0.007335	-0.678223	0.250977	0.023926	-68.254243	20.615333	130.079281
09436		-3.494604	-8.519306	3.435761	-0.002458	0.003965	-0.003245	-0.678955	0.237549	0.025391	-68.255093	20.617057	130.081393
09437		-3.510172	-8.505499	3.385114	-0.000100	0.006030	-0.004932	-0.680420	0.237305	0.022217	-68.255151	20.617428	130.081567
09438		-3.501911	-8.528627	3.387860	-0.000744	0.006090	-0.007613	-0.677979	0.240967	0.024170	-68.255845	20.617151	130.080842
09439		-3.489714	-8.547293	3.414352	0.000170	0.003217	-0.004511	-0.683838	0.233887	0.022461	-68.255151	20.617150	130.082712
09440		-3.501252	-8.529020	3.387553	0.000984	0.006375	-0.006340	-0.680908	0.238037	0.034912	-68.254811	20.617609	130.082007
09441		-3.508792	-8.506338	3.384435	0.000798	0.004999	-0.007470	-0.684814	0.242432	0.030518	-68.254351	20.616411	130.082193
09442		-3.492576	-8.552329	3.390263	-0.000102	0.006031	-0.004931	-0.671631	0.245850	0.020752	-68.254430	20.617532	130.083682
09443		-3.500297	-8.529613	3.387047	-0.000102	0.006032	-0.004931	-0.674072	0.245361	0.020508	-68.254490	20.617904	130.083856
09444		-3.504058	-8.502422	3.407642	0.002527	0.005284	-0.006196	-0.682129	0.247314	0.028809	-68.252993	20.618322	130.084011
09445		-3.476971	-8.522739	3.381649	-0.002917	0.005402	-0.004796	-0.680664	0.239258	0.022461	-68.254529	20.618633	130.084574
09446		-3.499372	-8.530142	3.386670	0.005155	0.004538	-0.007460	-0.679932	0.245605	0.019043	-68.251494	20.618156	130.085369
09447		-3.521736	-8.537537	3.391754	-0.000561	0.007469	-0.006481	-0.678711	0.239746	0.022461	-68.252228	20.618009	130.084375
09448		-3.490885	-8.521663	3.433697	-0.001832	0.005747	-0.006203	-0.674072	0.241455	0.023438	-68.253346	20.618474	130.083946
09449		-3.498334	-8.530804	3.386075	0.000982	0.006378	-0.006338	-0.678711	0.240479	0.025879	-68.252966	20.618172	130.083605
09450		-3.490220	-8.522101	3.433286	-0.000289	0.004656	-0.006060	-0.674072	0.240967	0.023438	-68.252968	20.618441	130.084465
09451		-3.497776	-8.531185	3.385691	0.000081	0.007410	-0.003800	-0.678223	0.241211	0.019531	-68.253109	20.619708	130.084112
09452		-3.467039	-8.515216	3.427757	-0.000290	0.004656	-0.006059	-0.670410	0.248291	0.016846	-68.253113	20.619992	130.084438
09453		-3.516170	-8.534400	3.413875	-0.003192	0.008217	-0.005215	-0.675781	0.234863	0.024170	-68.255404	20.620677	130.083305
09454		-3.489050	-8.554705	3.387900	0.004881	0.007355	-0.007878	-0.677002	0.239746	0.021484	-68.253125	20.620577	130.081634
09455		-3.492750	-8.527511	3.408596	0.000980	0.006379	-0.006336	-0.681641	0.232910	0.020020	-68.252746	20.620276	130.081291
09456		-3.496340	-8.532166	3.384704	-0.001376	0.004311	-0.004651	-0.675781	0.238770	0.027344	-68.253218	20.621170	130.081647
09457		-3.496034	-8.532381	3.384476	-0.000291	0.004657	-0.006058	-0.677490	0.238770	0.023193	-68.253201	20.620651	130.082347
09458		-3.491832	-8.528159	3.407917	-0.000565	0.007472	-0.006479	-0.678711	0.246826	0.029297	-68.253967	20.621252	130.081527
09459		-3.491601	-8.528427	3.407482	-0.003195	0.008218	-0.005214	-0.675781	0.239502	0.023438	-68.256259	20.621938	130.080393
09460		-3.499303	-8.505753	3.404213	0.002523	0.005289	-0.006191	-0.677490	0.250000	0.024902	-68.254772	20.622274	130.081331
09461		-3.479068	-8.547205	3.434021	0.002613	0.001097	-0.006901	-0.678223	0.239502	0.019287	-68.252446	20.620550	130.083864
09462		-3.513266	-8.536191	3.412385	-0.000107	0.006035	-0.004927	-0.681885	0.239990	0.021240	-68.252511	20.621755	130.083980
09463		-3.463430	-8.549225	3.381304	-0.001377	0.004312	-0.004651	-0.676270	0.245605	0.010010	-68.252935	20.621912	130.085195
09464		-3.489989	-8.529379	3.406751	-0.001836	0.005750	-0.006201	-0.680664	0.245117	0.018555	-68.254056	20.622381	130.083863
09465		-3.501416	-8.511211	3.379821	0.000793	0.005004	-0.007464	-0.682617	0.240967	0.027100	-68.253599	20.621188	130.084046
09466		-3.485089	-8.557185	3.385712	0.000977	0.006382	-0.006333	-0.680420	0.239746	0.024902	-68.253239	20.621680	130.083573
09467		-3.511362	-8.569058	3.367039	0.002521	0.005291	-0.006189	-0.680908	0.243896	0.026611	-68.251748	20.621226	130.083883
09468		-3.488477	-8.530168	3.406324	-0.000017	0.001844	-0.005637	-0.678223	0.242676	0.023193	-68.250998	20.621091	130.086632
09469		-3.496155	-8.507532	3.403002	-0.003199	0.008219	-0.005213	-0.677002	0.249512	0.014160	-68.253293	20.621778	130.085498
09470		-3.487857	-8.530645	3.405763	0.002337	0.003914	-0.007319	-0.680908	0.240723	0.023926	-68.251725	20.621281	130.085762
09471		-3.468593	-8.527991	3.377010	0.001435	0.004945	-0.004782	-0.682129	0.238281	0.031006	-68.250675	20.621503	130.086587
09472		-3.521758	-8.519777	3.384099	0.001251	0.003568	-0.005912	-0.682861	0.241943	0.024902	-68.249577	20.621539	130.088431
09473		-3.490590	-8.535609	3.381957	-0.000478	0.003282	-0.007186	-0.673584	0.246338	0.021973	-68.249482	20.620128	130.089657
09474		-3.498206	-8.512953	3.378758	-0.000110	0.006037	-0.004925	-0.681885	0.248535	0.020264	-68.249558	20.621298	130.089975
09475		-3.486161	-8.531590	3.405133	-0.002924	0.005405	-0.004793	-0.677246	0.248291	0.022461	-68.251098	20.621611	130.090537
09476		-3.508770	-8.539010	3.409958	0.002886	0.008048	-0.003927	-0.677246	0.235596	0.017334	-68.249764	20.623802	130.089788
09477		-3.485712	-8.531838	3.404972	0.002612	0.001101	-0.006898	-0.681396	0.243896	0.022705	-68.247438	20.622081	130.092319
09478		-3.493334	-8.509183	3.401771	-0.003202	0.008220	-0.005212	-0.680908	0.242188	0.026855	-68.249775	20.623514	130.090355
09479		-3.511757	-8.544025	3.385758	-0.000112	0.006038	-0.004924	-0.675049	0.234863	0.027588	-68.249841	20.623891	130.090527
09480		-3.484879	-8.532490	3.404190	-0.000295	0.004661	-0.006054	-0.683594	0.236084	0.023682	-68.249863	20.624064	130.091732
09481		-3.511475	-8.512597	3.429806	0.001433	0.004947	-0.004780	-0.673584	0.235352	0.026855	-68.248814	20.624287	130.092557
09482		-3.507091	-8.540052	3.409076	0.001433	0.004948	-0.004780	-0.678711	0.249023	0.025879	-68.247817	20.625169	130.093294
09483		-3.522515	-8.526297	3.358427	-0.002926	0.005405	-0.004792	-0.678711	0.237305	0.023438	-68.249359	20.625483	130.093855
09484		-3.487769	-8.537573	3.379908	0.003161	0.005234	-0.003506	-0.676025	0.246338	0.023682	-68.247291	20.627208	130.095101
09485		-3.479960	-8.528800	3.427061	-0.003204	0.008221	-0.005211	-0.680664	0.243164	0.025146	-68.249589	20.627897	130.093966
09486		-3.506358	-8.540729	3.408134	0.002700	0.006673	-0.005054	-0.679688	0.233398	0.017334	-68.248188	20.629121	130.094110
09487		-3.509888	-8.545363	3.384319	-0.001564	0.002937	-0.005778	-0.669434	0.244385	0.015381	-68.248534	20.628386	130.095851
09488		-3.483047	-8.533799	3.402783	0.000347	0.004601	-0.003373	-0.682617	0.232910	0.021973	-68.247969	20.630034	130.095698
09489		-3.513597	-8.518368	3.404611	-0.001382	0.004315	-0.004648	-0.669189	0.237305	0.024414	-68.248396	20.630193	130.096912
09490		-3.478853	-8.529679	3.425995	-0.001199	0.005693	-0.003517	-0.681885	0.243408	0.022705	-68.248960	20.631901	130.097171
09491		-3.535992	-8.526026	3.409083	-0.001382	0.004315	-0.004647	-0.678955	0.247803	0.011230	-68.249386	20.632061	130.098385
09492		-3.482171	-8.534486	3.401957	0.002795	0.002481	-0.005764	-0.678711	0.245117	0.026855	-68.247154	20.632062	130.099300
09493		-3.512629	-8.519101	3.403775	-0.003206	0.008222	-0.005210	-0.677246	0.244141	0.021973	-68.249454	20.632752	130.098165
09494		-3.481665	-8.534905	3.401424	0.000164	0.003225	-0.004503	-0.676025	0.243652	0.024658	-68.248770	20.633526	130.100445
09495		-3.508001	-8.546850	3.382521	-0.001661	0.007132	-0.005065	-0.680176	0.242188	0.024902	-68.249954	20.634061	130.099962
09496		-3.485268	-8.508014	3.421584	-0.000480	0.003286	-0.007182	-0.681396	0.247070	0.015869	-68.249876	20.633393	130.101536
09497		-3.515179	-8.524513	3.379010	-0.000759	0.006102	-0.007600	-0.678467	0.240967	0.021484	-68.250540	20.632361	130.101064
09498		-3.480271	-8.535874	3.400418	-0.001383	0.004316	-0.004646	-0.673096	0.245361	0.017334	-68.250987	20.633306	130.101422
09499		-3.510717	-8.520517	3.402204	-0.000298	0.004664	-0.006051	-0.677002	0.242432	0.020264	-68.250975	20.632793	130.102119
09500		-3.487754	-8.513398	3.396949	0.000065	0.007419	-0.003790	-0.682373	0.243164	0.014893	-68.251139	20.634854	130.101128
09501		-3.514140	-8.525299	3.378106	0.000163	0.003226	-0.004502	-0.680664	0.242432	0.018555	-68.250450	20.634859	130.102994
09502		-3.509974	-8.521058	3.401615	-0.000760	0.006104	-0.007599	-0.675537	0.234863	0.014404	-68.251147	20.634597	130.101150
09503		-3.475075	-8.532365	3.423141	0.001429	0.004952	-0.004776	-0.681641	0.238770	0.018066	-68.250100	20.634823	130.101973
09504		-3.474837	-8.532482	3.423091	0.001429	0.004952	-0.004776	-0.681152	0.244141	0.024414	-68.249113	20.635740	130.101083
09505		-3.504925	-8.548895	3.380540	-0.000579	0.007482	-0.006468	-0.678467	0.247314	0.023193	-68.249860	20.635603	130.100082
09506		-3.489055	-8.563040	3.430695	-0.000118	0.006043	-0.004919	-0.685059	0.244873	0.022217	-68.249933	20.636749	130.100602
09507		-3.485912	-8.514649	3.395703	-0.000118	0.006043	-0.004919	-0.677979	0.236328	0.021729	-68.250004	20.637131	130.100771
09508		-3.485627	-8.514848	3.395498	-0.000300	0.004666	-0.006049	-0.689941	0.239258	0.019287	-68.250028	20.637315	130.101031
09509		-3.507951	-8.522353	3.400457	0.002332	0.003924	-0.007309	-0.679688	0.238281	0.024658	-68.248461	20.635975	130.101863
09510		-3.477007	-8.538096	3.398179	-0.002851	0.010980	-0.002946	-0.682129	0.239746	0.027832	-68.250979	20.639118	130.098962
09511		-3.499637	-8.545615	3.402790	-0.000300	0.004666	-0.006049	-0.672607	0.240234	0.025879	-68.250968	20.638606	130.099657
09512		-3.507239	-8.522981	3.399616	0.000785	0.005015	-0.007452	-0.682373	0.237061	0.018799	-68.250544	20.638083	130.100569
09513		-3.484112	-8.515910	3.394390	-0.000582	0.007484	-0.006466	-0.684082	0.243652	0.020264	-68.251292	20.637947	130.099567
09514		-3.533037	-8.535225	3.380529	-0.000020	0.001850	-0.005631	-0.675781	0.241699	0.025635	-68.250564	20.637757	130.100940
09515		-3.475434	-8.539205	3.397000	-0.001668	0.007135	-0.005062	-0.680176	0.235352	0.017578	-68.251753	20.638295	130.100455
09516		-3.506034	-8.523876	3.398615	-0.002471	0.003969	-0.003241	-0.675537	0.245361	0.023926	-68.252663	20.639797	130.101737
09517		-3.502072	-8.519597	3.422031	-0.000121	0.006045	-0.004917	-0.676758	0.246826	0.023682	-68.252735	20.640180	130.101905
09518		-3.505529	-8.524298	3.398078	-0.000764	0.006107	-0.007595	-0.680176	0.249023	0.020264	-68.253396	20.639914	130.102020
09519		-3.478220	-8.544492	3.372255	0.002691	0.006682	-0.005045	-0.684814	0.242188	0.030029	-68.251995	20.640364	130.101797
09520		-3.501149	-8.520173	3.421542	-0.000302	0.004668	-0.006047	-0.672852	0.252197	0.028809	-68.251992	20.640586	130.102993
09521		-3.485579	-8.522026	3.368921	0.000501	0.007835	-0.007867	-0.679199	0.239746	0.020020	-68.252303	20.639780	130.101474
09522		-3.500409	-8.520636	3.421145	0.000963	0.006395	-0.006319	-0.676025	0.237793	0.023193	-68.251933	20.640242	130.101813
09523		-3.484868	-8.522498	3.368462	-0.003115	0.004032	-0.005918	-0.675781	0.236328	0.022461	-68.253397	20.639665	130.102899
09524		-3.476516	-8.545542	3.371352	0.005039	0.008760	-0.006719	-0.682129	0.247559	0.024658	-68.251248	20.640295	130.100858
09525		-3.468615	-8.536779	3.418683	-0.000766	0.006109	-0.007594	-0.680176	0.241699	0.018799	-68.251917	20.639267	130.100383
09526		-3.525411	-8.533275	3.401898	0.002612	0.001111	-0.006887	-0.682373	0.247559	0.030762	-68.249607	20.638285	130.102711
09527		-3.479577	-8.518864	3.391627	-0.004767	0.009317	-0.005349	-0.678223	0.246582	0.023926	-68.253032	20.639134	130.100921
09528		-3.494069	-8.549347	3.399135	-0.000587	0.007487	-0.006462	-0.677246	0.241943	0.021240	-68.253779	20.639732	130.101084
09529		-3.487098	-8.496552	3.387763	-0.000587	0.007488	-0.006462	-0.679688	0.244385	0.019775	-68.254531	20.639600	130.100082
09530		-3.501408	-8.526996	3.395556	-0.000484	0.003292	-0.007176	-0.677490	0.239990	0.018555	-68.254463	20.638913	130.100852
09531		-3.519976	-8.530138	3.423994	-0.001852	0.005760	-0.006189	-0.685791	0.232666	0.028564	-68.255572	20.638559	130.100894
09532		-3.496288	-8.554867	3.374371	0.001581	0.008189	-0.009266	-0.678223	0.237305	0.022217	-68.255506	20.637672	130.098426
09533		-3.500345	-8.527768	3.394713	-0.002580	0.008166	-0.002525	-0.673584	0.237061	0.023682	-68.257221	20.639779	130.097930
09534		-3.473016	-8.547993	3.368744	0.001401	0.006812	-0.010396	-0.685547	0.240967	0.021973	-68.257060	20.638026	130.096195
09535		-3.472962	-8.516462	3.413069	0.001064	0.002203	-0.007030	-0.675293	0.244873	0.027832	-68.255853	20.636470	130.098069
09536		-3.498963	-8.528500	3.394300	0.000779	0.005022	-0.007446	-0.679199	0.244873	0.029785	-68.255428	20.635967	130.098631
09537		-3.475899	-8.521341	3.389175	0.001137	0.007778	-0.005184	-0.677246	0.237061	0.026367	-68.255149	20.636576	130.097754
09538		-3.498284	-8.528866	3.394080	0.003127	0.007101	-0.009119	-0.677246	0.238037	0.018555	-68.253934	20.635578	130.097377
09539		-3.497802	-8.529073	3.394058	0.002042	0.006751	-0.007716	-0.678223	0.246094	0.025146	-68.253132	20.634622	130.096509
09540		-3.474642	-8.521874	3.389123	0.002790	0.002492	-0.005753	-0.679443	0.239990	0.015381	-68.250918	20.634491	130.098286
09541		-3.488800	-8.552283	3.397159	0.001399	0.006814	-0.010394	-0.684326	0.251953	0.024902	-68.250712	20.632123	130.096775
09542		-3.500076	-8.534229	3.370150	-0.001057	0.008931	-0.008006	-0.685547	0.244141	0.024170	-68.252160	20.632215	130.094126
09543		-3.495968	-8.530022	3.393561	-0.000307	0.004673	-0.006042	-0.685303	0.240967	0.024170	-68.252154	20.631708	130.094819
09544		-3.483762	-8.548618	3.420162	0.000777	0.005024	-0.007444	-0.679688	0.245117	0.019775	-68.251746	20.631184	130.094985
09545		-3.495194	-8.530473	3.393225	0.000669	0.009220	-0.006729	-0.675537	0.245850	0.023193	-68.252147	20.631277	130.092936
09546		-3.472157	-8.523357	3.387942	-0.001857	0.005763	-0.006187	-0.680420	0.243408	0.024414	-68.253269	20.631654	130.092951
09547		-3.490768	-8.526499	3.416386	0.000776	0.005025	-0.007443	-0.683105	0.245605	0.019287	-68.252825	20.630476	130.093126
09548		-3.494030	-8.531330	3.392268	-0.004336	0.009734	-0.009425	-0.680664	0.250244	0.029053	-68.256433	20.629941	130.089974
09549		-3.497270	-8.536178	3.368125	-0.000487	0.003296	-0.007172	-0.681152	0.245850	0.026367	-68.256345	20.628542	130.091195
09550		-3.493181	-8.531969	3.391536	-0.002943	0.005412	-0.004785	-0.685547	0.235596	0.024414	-68.257893	20.629576	130.093122
09551		-3.489124	-8.527772	3.414886	-0.000774	0.006115	-0.007587	-0.677734	0.243652	0.024902	-68.258567	20.628553	130.092645
09552		-3.473433	-8.529608	3.362270	-0.000310	0.004675	-0.006040	-0.680420	0.244141	0.021484	-68.258610	20.628648	130.093370
09553		-3.465717	-8.520883	3.409400	-0.001682	0.007142	-0.005054	-0.672119	0.239502	0.019531	-68.259808	20.629192	130.092883
09554		-3.500034	-8.510069	3.387382	0.001417	0.004964	-0.004764	-0.679688	0.239258	0.020020	-68.258802	20.630097	130.093210
09555		-3.495347	-8.537544	3.366660	0.002036	0.006757	-0.007711	-0.681885	0.247559	0.027832	-68.258005	20.629145	130.092340
09556		-3.494869	-8.537825	3.366444	-0.001241	0.007558	-0.009132	-0.684814	0.245117	0.025146	-68.259387	20.628265	130.090891
09557		-3.490535	-8.533674	3.389971	0.001681	0.004002	-0.009972	-0.676514	0.241943	0.025146	-68.258421	20.625525	130.091075
09558		-3.509121	-8.536869	3.418356	-0.003233	0.008232	-0.005199	-0.675049	0.240479	0.021729	-68.260766	20.626874	130.090420
09559		-3.470836	-8.531327	3.360591	-0.000600	0.007495	-0.006454	-0.682373	0.248779	0.019043	-68.261526	20.626748	130.089416
09560		-3.485775	-8.529995	3.412754	0.000773	0.005029	-0.007439	-0.679199	0.235840	0.028320	-68.261110	20.626275	130.089181
09561		-3.492851	-8.539155	3.365164	-0.000135	0.006055	-0.004907	-0.669434	0.231201	0.023438	-68.261191	20.626666	130.089346
09562		-3.504218	-8.533319	3.440980	-0.000601	0.007496	-0.006453	-0.680176	0.245605	0.018311	-68.262027	20.627040	130.088487
09563		-3.484872	-8.530672	3.411985	-0.001862	0.005766	-0.006183	-0.681396	0.246338	0.028076	-68.263142	20.626691	130.088527
09564		-3.488117	-8.535457	3.387969	-0.000955	0.004741	-0.008714	-0.679688	0.245605	0.030273	-68.263750	20.625473	130.088817
09565		-3.479626	-8.558592	3.390675	-0.002947	0.005414	-0.004783	-0.677734	0.238525	0.023682	-68.265305	20.625794	130.089375
09566		-3.469009	-8.501276	3.403156	0.002322	0.003941	-0.007292	-0.678711	0.245361	0.027344	-68.263778	20.625079	130.091066
09567		-3.483129	-8.531712	3.411164	0.001856	0.005383	-0.008837	-0.680908	0.238770	0.028076	-68.262898	20.623236	130.090722
09568		-3.509073	-8.543839	3.392260	0.000481	0.007851	-0.007851	-0.680420	0.244385	0.021484	-68.263252	20.623041	130.090169
09569		-3.485969	-8.536710	3.387024	-0.001864	0.005767	-0.006182	-0.677002	0.250488	0.027832	-68.264369	20.622693	130.090210
09570		-3.490027	-8.509650	3.407410	-0.000314	0.004678	-0.006036	-0.679688	0.252441	0.022461	-68.264372	20.622899	130.091645
09571		-3.500582	-8.535658	3.438878	-0.000780	0.006121	-0.007581	-0.681641	0.239014	0.028809	-68.265050	20.621880	130.091167
09572		-3.515778	-8.521942	3.388297	0.003139	0.005257	-0.003483	-0.676758	0.241211	0.026123	-68.262997	20.623526	130.092857
09573		-3.465648	-8.534610	3.357609	-0.001071	0.008941	-0.007995	-0.678955	0.231934	0.017090	-68.264439	20.622886	130.090681
09574		-3.480603	-8.533356	3.409630	-0.000781	0.006121	-0.007581	-0.671143	0.240723	0.026367	-68.265185	20.622418	130.089354
09575		-3.502910	-8.541007	3.414387	-0.000024	0.001859	-0.005621	-0.680176	0.240967	0.018799	-68.264420	20.621539	130.091744
09576		-3.506206	-8.545698	3.390543	-0.000315	0.004680	-0.006035	-0.668945	0.242676	0.025879	-68.264456	20.621656	130.092262
09577		-3.479488	-8.534023	3.409099	-0.001400	0.004326	-0.004635	-0.683594	0.248291	0.019531	-68.264895	20.621825	130.093472
09578		-3.487290	-8.511411	3.405814	-0.000316	0.004680	-0.006035	-0.675049	0.244385	0.017578	-68.264907	20.622012	130.094376
09579		-3.482455	-8.538945	3.385004	0.000768	0.005034	-0.007434	-0.674316	0.241943	0.025879	-68.264469	20.620842	130.094550
09580		-3.505028	-8.546529	3.389665	-0.002134	0.006729	-0.000974	-0.685547	0.238525	0.017334	-68.265541	20.624127	130.095064
09581		-3.478586	-8.534774	3.408137	-0.000141	0.006059	-0.004903	-0.674561	0.240479	0.023438	-68.265626	20.624521	130.095228
09582		-3.478368	-8.534996	3.407806	-0.002952	0.005416	-0.004781	-0.685547	0.247559	0.024902	-68.267239	20.625432	130.094826
09583		-3.481708	-8.539679	3.383920	0.001527	0.000772	-0.005474	-0.681641	0.241699	0.028076	-68.265355	20.624400	130.097867
09584		-3.504096	-8.547271	3.388757	-0.001401	0.004327	-0.004635	-0.680664	0.244141	0.020264	-68.265820	20.625187	130.099823
09585		-3.466490	-8.509818	3.375590	-0.001401	0.004327	-0.004635	-0.682373	0.242188	0.024658	-68.266259	20.625357	130.101033
09586		-3.508016	-8.520405	3.408853	-0.000609	0.007502	-0.006447	-0.676514	0.240967	0.028076	-68.267061	20.625859	130.099779
09587		-3.476972	-8.536012	3.406684	-0.001226	0.005706	-0.003503	-0.678711	0.236572	0.020996	-68.267586	20.626924	130.100461
09588		-3.484072	-8.545166	3.359002	-0.000317	0.004682	-0.006033	-0.682373	0.240234	0.019043	-68.267638	20.626971	130.101168
09589		-3.499298	-8.543814	3.411065	-0.002311	0.005352	-0.002104	-0.681396	0.235840	0.026855	-68.268602	20.628705	130.102369
09590		-3.480010	-8.541092	3.382101	-0.000785	0.006125	-0.007577	-0.677246	0.239990	0.026855	-68.269348	20.628221	130.101311
09591		-3.498713	-8.544229	3.410627	0.001701	0.002151	-0.004342	-0.676270	0.239014	0.023193	-68.267550	20.628085	130.103825
09592		-3.475582	-8.536982	3.405672	-0.000492	0.003304	-0.007164	-0.686523	0.239746	0.022217	-68.267512	20.627246	130.105269
09593		-3.486903	-8.518950	3.378590	-0.002337	0.007214	-0.007722	-0.683105	0.233887	0.025635	-68.269313	20.626385	130.104138
09594		-3.482921	-8.514702	3.402057	0.001408	0.004973	-0.004755	-0.673340	0.243408	0.023193	-68.268356	20.627119	130.104383
09595		-3.489240	-8.567913	3.412906	-0.001228	0.005707	-0.003502	-0.681641	0.246826	0.024414	-68.268882	20.628184	130.105065
09596		-3.505284	-8.522480	3.406476	-0.000612	0.007504	-0.006445	-0.669678	0.247070	0.031738	-68.269667	20.628716	130.104435
09597		-3.500422	-8.549992	3.385689	0.002317	0.003950	-0.007284	-0.680176	0.244385	0.018555	-68.268112	20.627395	130.105259
09598		-3.481671	-8.515477	3.401395	-0.000493	0.003305	-0.007162	-0.681885	0.240967	0.024658	-68.268036	20.626661	130.107314
09599		-3.473305	-8.538534	3.404103	-0.001817	0.011350	-0.004327	-0.679199	0.250488	0.030518	-68.270096	20.628484	130.104600
09600		-3.507711	-8.527832	3.381834	-0.000146	0.006062	-0.004899	-0.674072	0.249268	0.025635	-68.270199	20.629500	130.105949
09601		-3.469225	-8.534449	3.427272	0.000764	0.005039	-0.007429	-0.678955	0.235107	0.030273	-68.269764	20.628334	130.106121
09602		-3.506964	-8.528266	3.381514	-0.000320	0.004684	-0.006030	-0.676514	0.244873	0.026367	-68.269793	20.628404	130.107905
09603		-3.499355	-8.519535	3.428703	-0.000615	0.007506	-0.006443	-0.672607	0.239746	0.021729	-68.270563	20.628285	130.106898
09604		-3.479978	-8.516774	3.399881	0.002195	0.008151	-0.006563	-0.685303	0.241455	0.020264	-68.269889	20.628842	130.105703
09605		-3.497961	-8.551728	3.383848	-0.002957	0.005418	-0.004778	-0.682129	0.236816	0.014893	-68.271450	20.629167	130.106261
09606		-3.474868	-8.544548	3.378656	-0.000494	0.003307	-0.007161	-0.685791	0.246338	0.023926	-68.271433	20.628336	130.105595
09607		-3.474440	-8.544866	3.378291	-0.002637	0.010039	-0.008132	-0.676025	0.245361	0.021973	-68.274003	20.627856	130.102765
09608		-3.527639	-8.537286	3.384574	-0.000790	0.006129	-0.007573	-0.680420	0.243408	0.016846	-68.274708	20.627487	130.102367
09609		-3.492719	-8.548440	3.406216	0.000467	0.007863	-0.007838	-0.682373	0.244385	0.027588	-68.275042	20.626702	130.100840
09610		-3.500511	-8.525880	3.402875	-0.000617	0.007508	-0.006441	-0.672363	0.231689	0.023926	-68.275847	20.627197	130.099560
09611		-3.503778	-8.530587	3.378961	0.002019	0.006776	-0.007691	-0.678467	0.238770	0.019775	-68.275061	20.626259	130.098685
09612		-3.499685	-8.526339	3.402574	0.001550	0.008220	-0.009235	-0.679688	0.239502	0.018066	-68.275028	20.625292	130.095766
09613		-3.464862	-8.537440	3.424235	-0.000446	0.008887	-0.005308	-0.678955	0.239014	0.024658	-68.275888	20.626071	130.094230
09614		-3.498931	-8.526775	3.402257	0.004482	0.004667	-0.010072	-0.679199	0.237549	0.024658	-68.273512	20.623962	130.093260
09615		-3.498250	-8.527078	3.402197	-0.001434	0.006196	-0.010246	-0.682129	0.244629	0.024414	-68.274793	20.621541	130.092135
09616		-3.504824	-8.536414	3.354518	0.001375	0.006843	-0.010364	-0.676270	0.242676	0.020752	-68.274644	20.619743	130.090740
09617		-3.488861	-8.550540	3.404900	0.001547	0.008222	-0.009232	-0.681641	0.243164	0.027344	-68.274542	20.618292	130.088693
09618		-3.465660	-8.543350	3.399809	-0.000794	0.006132	-0.007570	-0.670166	0.241455	0.021729	-68.275259	20.617870	130.088448
09619		-3.465234	-8.543548	3.399746	0.004825	0.007426	-0.007807	-0.680176	0.235840	0.019043	-68.273005	20.617009	130.087177
09620		-3.507491	-8.510110	3.374615	-0.003134	0.004041	-0.005908	-0.680908	0.239502	0.020752	-68.274534	20.616990	130.087411
09621		-3.487197	-8.551544	3.404082	-0.001092	0.008955	-0.007981	-0.683350	0.240723	0.020508	-68.275990	20.616361	130.085231
09622		-3.464068	-8.544325	3.398981	0.002014	0.006780	-0.007687	-0.679199	0.246094	0.020508	-68.275262	20.615974	130.083424
09623		-3.460735	-8.495941	3.364254	0.004181	0.007494	-0.010479	-0.677002	0.252930	0.033691	-68.273604	20.613705	130.081508
09624		-3.490232	-8.524982	3.424459	0.000288	0.006490	-0.008964	-0.678467	0.236816	0.020264	-68.273844	20.612703	130.082110
09625		-3.496813	-8.534291	3.376821	0.000116	0.005112	-0.010096	-0.676270	0.253662	0.017334	-68.274007	20.610133	130.081636
09626		-3.466393	-8.518092	3.419256	0.000929	0.006425	-0.006289	-0.679688	0.240234	0.028564	-68.273685	20.610526	130.080535
09627		-3.492365	-8.530244	3.400308	0.001227	0.003602	-0.005878	-0.681885	0.242676	0.030273	-68.272573	20.609881	130.081875
09628		-3.488323	-8.526013	3.423837	-0.001267	0.007579	-0.009110	-0.682617	0.244873	0.020508	-68.273980	20.608863	130.081592
09629		-3.491382	-8.530762	3.400016	0.002609	0.001137	-0.006862	-0.679932	0.248047	0.028320	-68.271661	20.607171	130.084111
09630		-3.491177	-8.530893	3.399899	-0.000113	0.011649	-0.003041	-0.677490	0.250977	0.025146	-68.272714	20.610364	130.082067
09631		-3.491122	-8.531053	3.399555	-0.001411	0.004333	-0.004628	-0.686768	0.244873	0.015869	-68.273160	20.610539	130.083276
09632		-3.482718	-8.554043	3.402388	-0.000157	0.006069	-0.004892	-0.683594	0.245850	0.022949	-68.273266	20.611610	130.083135
09633		-3.467958	-8.523928	3.394229	-0.000157	0.006069	-0.004892	-0.677979	0.241943	0.020264	-68.273363	20.612012	130.083296
09634		-3.521328	-8.516254	3.400771	0.001697	0.002159	-0.004334	-0.680664	0.245850	0.024658	-68.271599	20.612473	130.085474
09635		-3.463678	-8.519827	3.417683	-0.003778	0.004108	-0.008580	-0.682617	0.240479	0.025879	-68.273672	20.610497	130.085914
09636		-3.466906	-8.524541	3.393764	0.003122	0.005274	-0.003466	-0.677246	0.237549	0.023193	-68.271647	20.612036	130.087299
09637		-3.493176	-8.536674	3.374563	-0.005434	0.007529	-0.002395	-0.677734	0.236816	0.017822	-68.274859	20.614078	130.087195
09638		-3.497554	-8.509652	3.394766	-0.000499	0.003313	-0.007154	-0.679932	0.243896	0.027832	-68.274842	20.613182	130.087349
09639		-3.497201	-8.509874	3.394574	-0.000158	0.006070	-0.004891	-0.674072	0.235352	0.021973	-68.274939	20.613585	130.087510
09640		-3.480660	-8.555650	3.400453	-0.002496	0.003977	-0.003232	-0.678955	0.245361	0.027100	-68.275866	20.614931	130.089482
09641		-3.470536	-8.498269	3.412860	-0.001413	0.004334	-0.004627	-0.680176	0.243652	0.018555	-68.276313	20.615107	130.090689
09642		-3.502909	-8.563553	3.404773	-0.001112	0.001511	-0.004216	-0.672852	0.242920	0.019043	-68.276011	20.615493	130.093638
09643		-3.473574	-8.503138	3.388736	-0.000159	0.006071	-0.004890	-0.672363	0.237305	0.022461	-68.276109	20.615898	130.093799
09644		-3.476204	-8.551982	3.423015	-0.005606	0.006151	-0.003525	-0.677490	0.243164	0.027100	-68.279271	20.617597	130.093655
09645		-3.491209	-8.538405	3.372216	0.002609	0.001140	-0.006859	-0.681396	0.240723	0.023193	-68.276952	20.615907	130.096173
09646		-3.487255	-8.534122	3.395817	-0.002968	0.005422	-0.004773	-0.673096	0.245117	0.021729	-68.278552	20.616760	130.097107
09647		-3.478956	-8.557124	3.398487	-0.002327	0.005356	-0.002099	-0.679688	0.246094	0.021240	-68.279526	20.618498	130.098306
09648		-3.486963	-8.534564	3.395006	-0.003139	0.004044	-0.005905	-0.679443	0.242188	0.026611	-68.281019	20.618554	130.099301
09649		-3.517609	-8.519510	3.396462	-0.000943	0.002890	-0.003084	-0.675537	0.241211	0.021973	-68.280784	20.619246	130.101679
09650		-3.489988	-8.539433	3.370878	0.001224	0.003607	-0.005873	-0.672363	0.245361	0.021240	-68.279707	20.619132	130.103222
09651		-3.482568	-8.530619	3.418218	-0.000161	0.006073	-0.004889	-0.681152	0.249268	0.018799	-68.279806	20.619538	130.103382
09652		-3.489408	-8.539801	3.370546	-0.000331	0.004694	-0.006020	-0.680420	0.244873	0.018066	-68.279822	20.619705	130.103734
09653		-3.508285	-8.543024	3.398899	-0.000161	0.006073	-0.004888	-0.676758	0.238525	0.017090	-68.279921	20.620111	130.103894
09654		-3.466214	-8.532716	3.365113	-0.003272	0.008247	-0.005182	-0.682373	0.242920	0.020752	-68.282305	20.621386	130.101279
09655		-3.470637	-8.505656	3.385427	0.000140	0.003249	-0.004478	-0.680908	0.243164	0.026123	-68.281633	20.621412	130.103137
09656		-3.484823	-8.536092	3.393363	0.002779	0.002521	-0.005725	-0.680908	0.244385	0.021973	-68.279439	20.621151	130.105079
09657		-3.488010	-8.540776	3.369524	-0.001887	0.005782	-0.006166	-0.683105	0.239502	0.022705	-68.280571	20.620815	130.105114
09658		-3.484174	-8.536482	3.393048	0.001393	0.004987	-0.004740	-0.681885	0.240479	0.019287	-68.279595	20.621587	130.105494
09659		-3.492192	-8.513807	3.389866	0.000309	0.004628	-0.003346	-0.679688	0.244873	0.022217	-68.279012	20.622508	130.106825
09660		-3.483720	-8.536745	3.392851	-0.000030	0.001871	-0.005609	-0.679932	0.237549	0.022217	-68.278293	20.622183	130.108509
09661		-3.479828	-8.532426	3.416500	0.000139	0.003250	-0.004477	-0.676270	0.243652	0.024414	-68.277621	20.622209	130.110367
09662		-3.483159	-8.537140	3.392433	-0.003275	0.008248	-0.005181	-0.682861	0.241455	0.014648	-68.280008	20.623417	130.109100
09663		-3.482995	-8.537356	3.392059	-0.000944	0.002891	-0.003083	-0.680908	0.244629	0.028076	-68.279774	20.624109	130.111478
09664		-3.497315	-8.567873	3.399652	-0.002972	0.005424	-0.004771	-0.673096	0.242432	0.018799	-68.281384	20.624977	130.111450
09665		-3.490677	-8.515053	3.388296	-0.000805	0.006142	-0.007559	-0.677490	0.240723	0.033447	-68.282079	20.623976	130.110964
09666		-3.473992	-8.560850	3.394178	-0.001248	0.005716	-0.003492	-0.685547	0.242676	0.015137	-68.282650	20.625550	130.112432
09667		-3.481970	-8.538257	3.390841	-0.000333	0.004697	-0.006018	-0.672119	0.238037	0.020996	-68.282662	20.625063	130.113118
09668		-3.516082	-8.527720	3.368638	-0.000334	0.004697	-0.006017	-0.685059	0.243164	0.025391	-68.282728	20.625097	130.112307
09669		-3.481476	-8.538631	3.390407	0.000172	0.008833	-0.002621	-0.684326	0.240967	0.021484	-68.283008	20.627295	130.111410
09670		-3.481265	-8.538807	3.390181	-0.000503	0.003319	-0.007149	-0.683105	0.240479	0.013184	-68.282981	20.626400	130.112326
09671		-3.485549	-8.511787	3.410590	-0.000638	0.007522	-0.006426	-0.674561	0.241943	0.021729	-68.283767	20.626295	130.111312
09672		-3.457899	-8.531735	3.384866	-0.000166	0.006076	-0.004885	-0.681152	0.237305	0.027100	-68.283919	20.627241	130.109917
09673		-3.503124	-8.546989	3.394252	-0.000166	0.006077	-0.004884	-0.672607	0.241943	0.015625	-68.284021	20.627650	130.110075
09674		-3.484758	-8.512378	3.409923	0.000749	0.005058	-0.007410	-0.679932	0.238525	0.014160	-68.283648	20.626984	130.109668
09675		-3.479746	-8.539886	3.389024	-0.001723	0.007164	-0.005031	-0.681152	0.239746	0.024902	-68.284872	20.627545	130.109174
09676		-3.467769	-8.558367	3.415605	0.002168	0.008176	-0.006538	-0.678955	0.243652	0.018311	-68.284251	20.627991	130.106499
09677		-3.501983	-8.547790	3.393413	-0.000167	0.006077	-0.004884	-0.677002	0.242432	0.026611	-68.284354	20.628401	130.106656
09678		-3.487250	-8.517583	3.385465	0.002945	0.003905	-0.004588	-0.673096	0.245117	0.029541	-68.282247	20.629037	130.108079
09679		-3.478682	-8.540537	3.388475	-0.000809	0.006145	-0.007556	-0.673340	0.241455	0.026611	-68.282944	20.628039	130.107591
09680		-3.486580	-8.517992	3.385126	-0.000168	0.006078	-0.004883	-0.677734	0.240723	0.025635	-68.283065	20.628959	130.109424
09681		-3.497181	-8.544064	3.416538	0.000274	0.006506	-0.008949	-0.674561	0.241211	0.022705	-68.283326	20.627296	130.108416
09682		-3.477549	-8.541253	3.387832	0.000915	0.006439	-0.006276	-0.677002	0.237549	0.025635	-68.283032	20.627525	130.108338
09683		-3.473701	-8.536961	3.411401	-0.000337	0.004700	-0.006015	-0.680908	0.244873	0.021240	-68.283046	20.627040	130.109023
09684		-3.495988	-8.544761	3.416017	0.001524	0.008246	-0.009208	-0.673096	0.241211	0.026367	-68.283003	20.626087	130.106929
09685		-3.476279	-8.541969	3.387331	-0.000504	0.003321	-0.007146	-0.692139	0.242432	0.024658	-68.282927	20.624708	130.108141
09686		-3.487723	-8.523936	3.360177	-0.000783	0.011730	-0.005698	-0.679443	0.242920	0.019531	-68.284624	20.626340	130.105244
09687		-3.475698	-8.542413	3.386806	0.002303	0.003975	-0.007258	-0.688721	0.249268	0.032715	-68.283080	20.625040	130.106059
09688		-3.497952	-8.550207	3.391479	-0.000812	0.006148	-0.007554	-0.674805	0.237549	0.028076	-68.283803	20.624567	130.106360
09689		-3.486483	-8.524666	3.359612	0.000271	0.006509	-0.008946	-0.674805	0.242432	0.035645	-68.284065	20.622906	130.105352
09690		-3.500589	-8.555198	3.367387	0.002636	0.006734	-0.004993	-0.677002	0.246826	0.015137	-68.282740	20.623804	130.107307
09691		-3.504992	-8.528133	3.387855	-0.002063	0.004409	-0.007293	-0.686523	0.241699	0.022705	-68.283787	20.622577	130.107868
09692		-3.473662	-8.543576	3.385962	0.002161	0.008181	-0.006533	-0.679199	0.235352	0.021729	-68.283149	20.623109	130.105354
09693		-3.500901	-8.524098	3.411043	-0.003287	0.008253	-0.005176	-0.680664	0.239014	0.027100	-68.285498	20.623824	130.104208
09694		-3.469511	-8.539590	3.409086	0.001661	0.004045	-0.009929	-0.679199	0.239502	0.024170	-68.284619	20.621505	130.104165
09695		-3.480679	-8.521563	3.382209	0.001993	0.006803	-0.007664	-0.679443	0.245850	0.023438	-68.283852	20.620588	130.103280
09696		-3.476761	-8.517307	3.405775	-0.000814	0.006149	-0.007552	-0.677979	0.240479	0.019531	-68.284591	20.620089	130.102933
09697		-3.471555	-8.544837	3.384941	0.000743	0.005064	-0.007403	-0.677246	0.242188	0.021973	-68.284171	20.618942	130.103096
09698		-3.506956	-8.502612	3.406987	-0.001732	0.007168	-0.005027	-0.671387	0.239502	0.025391	-68.285445	20.620006	130.101939
09699		-3.498445	-8.525562	3.409905	0.002466	0.005358	-0.006123	-0.677002	0.242432	0.025391	-68.283994	20.619603	130.102225
09700		-3.478756	-8.522716	3.381281	-0.000981	0.004771	-0.008683	-0.680908	0.243408	0.028809	-68.284640	20.618187	130.102918
09701		-3.480869	-8.571653	3.415817	0.001350	0.006874	-0.010334	-0.684814	0.242920	0.019775	-68.284468	20.615864	130.101388
09702		-3.496941	-8.526414	3.409318	-0.002982	0.005428	-0.004767	-0.687256	0.239014	0.018311	-68.286084	20.616679	130.102085
09703		-3.491893	-8.553909	3.388387	0.000907	0.006445	-0.006270	-0.674072	0.239990	0.026367	-68.285755	20.616429	130.101720
09704		-3.477204	-8.523752	3.380267	-0.000485	0.008909	-0.005285	-0.672607	0.249023	0.026367	-68.286697	20.617663	130.099615
09705		-3.487953	-8.549796	3.411630	0.000907	0.006445	-0.006269	-0.677734	0.241699	0.027344	-68.286369	20.617413	130.099250
09706		-3.473060	-8.519658	3.403671	0.001824	0.005428	-0.008792	-0.685547	0.240234	0.017578	-68.285524	20.616139	130.100230
09707		-3.498740	-8.532020	3.384527	-0.000818	0.006152	-0.007549	-0.678711	0.240723	0.010010	-68.286228	20.615146	130.099742
09708		-3.460589	-8.538347	3.430204	0.002795	0.008119	-0.003855	-0.678711	0.239746	0.026123	-68.285022	20.617044	130.096295
09709		-3.486629	-8.550598	3.410972	-0.002984	0.005428	-0.004767	-0.681396	0.239502	0.017090	-68.286599	20.617378	130.096848
09710		-3.475180	-8.525024	3.379141	0.001658	0.004051	-0.009923	-0.682861	0.238037	0.022461	-68.285706	20.615116	130.096369
09711		-3.485649	-8.551115	3.410677	0.000905	0.006447	-0.006267	-0.676025	0.239014	0.027100	-68.285379	20.614867	130.096002
09712		-3.493654	-8.528537	3.407376	-0.000179	0.006085	-0.004876	-0.687500	0.238525	0.015869	-68.285545	20.615681	130.096254
09713		-3.493392	-8.528719	3.407188	0.000904	0.006447	-0.006267	-0.671875	0.242920	0.024170	-68.285219	20.615433	130.095887
09714		-3.493171	-8.528867	3.407046	0.000297	0.004637	-0.003337	-0.686768	0.236572	0.031006	-68.284690	20.616834	130.096296
09715		-3.465367	-8.548727	3.381458	-0.000820	0.006154	-0.007547	-0.681396	0.239014	0.025635	-68.285395	20.615842	130.095806
09716		-3.492474	-8.529264	3.406767	0.002773	0.002536	-0.005711	-0.678467	0.241699	0.022461	-68.283233	20.615398	130.098478
09717		-3.495485	-8.533911	3.383124	0.002297	0.003984	-0.007250	-0.678711	0.243164	0.023438	-68.281693	20.614104	130.099289
09718		-3.460841	-8.544731	3.405014	-0.002657	0.008187	-0.002501	-0.676270	0.237061	0.022461	-68.283487	20.616717	130.098789
09719		-3.495107	-8.534305	3.382520	0.000427	0.007897	-0.007804	-0.673096	0.247803	0.015137	-68.283848	20.615957	130.097250
09720		-3.491374	-8.529999	3.406054	0.001067	0.007828	-0.005133	-0.674316	0.234375	0.019043	-68.283643	20.617138	130.095528
09721		-3.468344	-8.522622	3.401059	-0.002069	0.004413	-0.007288	-0.684326	0.240723	0.020752	-68.284694	20.615915	130.096087
09722		-3.520254	-8.547116	3.362805	0.000902	0.006449	-0.006265	-0.682861	0.238281	0.022217	-68.284431	20.616080	130.094558
09723		-3.481981	-8.553425	3.408633	0.002296	0.003985	-0.007248	-0.681396	0.242432	0.026855	-68.282892	20.614788	130.095369
09724		-3.486516	-8.526302	3.429219	0.000294	0.004639	-0.003335	-0.680664	0.235107	0.023682	-68.282367	20.616133	130.096780
09725		-3.475281	-8.500653	3.397344	-0.001135	0.008983	-0.007952	-0.677979	0.238525	0.018555	-68.283851	20.615526	130.094589
09726		-3.489248	-8.531255	3.405085	0.002608	0.001159	-0.006841	-0.678711	0.243652	0.026123	-68.281598	20.614241	130.096208
09727		-3.488766	-8.531430	3.405142	0.001983	0.006814	-0.007653	-0.676758	0.244629	0.026367	-68.280838	20.613332	130.095318
09728		-3.458876	-8.514977	3.447756	-0.000183	0.006087	-0.004873	-0.672852	0.247559	0.017334	-68.280966	20.614242	130.096536
09729		-3.488231	-8.531765	3.404851	0.001376	0.005003	-0.004724	-0.673828	0.243164	0.023193	-68.279957	20.614508	130.097340
09730		-3.465304	-8.524289	3.399980	-0.000184	0.006088	-0.004873	-0.681885	0.242432	0.024170	-68.280075	20.615501	130.097392
09731		-3.487830	-8.532024	3.404612	0.001852	0.003555	-0.003185	-0.678955	0.245361	0.020264	-68.278381	20.616280	130.099368
09732		-3.487572	-8.532205	3.404424	-0.003153	0.004051	-0.005897	-0.679688	0.239746	0.021973	-68.279892	20.616218	130.100333
09733		-3.464480	-8.524789	3.399567	0.004787	0.007474	-0.007760	-0.682617	0.237061	0.022461	-68.277665	20.615393	130.099044
09734		-3.482141	-8.559864	3.383380	-0.005469	0.007531	-0.002392	-0.684570	0.233398	0.022949	-68.280951	20.617828	130.098339
09735		-3.464246	-8.525180	3.398823	-0.000954	0.002897	-0.003077	-0.678711	0.245117	0.021729	-68.280723	20.618525	130.100713
09736		-3.486747	-8.532983	3.403318	-0.001431	0.004346	-0.004615	-0.677734	0.241699	0.022705	-68.281231	20.619112	130.101396
09737		-3.463749	-8.525522	3.398472	0.002457	0.005368	-0.006112	-0.679688	0.243164	0.020020	-68.279786	20.618717	130.101677
09738		-3.494321	-8.510574	3.400082	0.001048	0.002246	-0.006988	-0.682617	0.243408	0.019287	-68.278620	20.617674	130.103191
09739		-3.473855	-8.551787	3.429971	-0.001594	0.002967	-0.005747	-0.676514	0.247559	0.022461	-68.278987	20.616964	130.104921
09740		-3.493499	-8.511044	3.399751	-0.000349	0.004710	-0.006004	-0.677979	0.243164	0.012207	-68.279021	20.617020	130.105331
09741		-3.493363	-8.511198	3.399505	0.000140	0.008848	-0.002606	-0.677734	0.246094	0.023438	-68.279322	20.619229	130.104427
09742		-3.484937	-8.534050	3.402496	0.000443	0.000434	-0.004060	-0.682861	0.240234	0.024902	-68.277894	20.619426	130.106980
09743		-3.487968	-8.538771	3.378616	-0.000827	0.006159	-0.007542	-0.679199	0.243164	0.020996	-68.278603	20.618439	130.106488
09744		-3.484286	-8.534486	3.402068	-0.001270	0.005726	-0.003482	-0.673828	0.246582	0.021973	-68.279188	20.619955	130.107027
09745		-3.480689	-8.530132	3.425613	0.000128	0.003262	-0.004465	-0.677979	0.244873	0.024170	-68.278525	20.619991	130.108879
09746		-3.498995	-8.521117	3.350983	-0.001747	0.007175	-0.005020	-0.684326	0.239746	0.024170	-68.279765	20.621092	130.108896
09747		-3.498075	-8.565428	3.409137	-0.000188	0.006091	-0.004870	-0.684326	0.238037	0.028076	-68.279881	20.621512	130.109048
09748		-3.491671	-8.512485	3.398020	-0.000035	0.001883	-0.005597	-0.678955	0.241943	0.026123	-68.279177	20.620991	130.111660
09749		-3.460238	-8.527827	3.396266	-0.000828	0.006161	-0.007540	-0.674805	0.245117	0.022461	-68.279888	20.620005	130.111167
09750		-3.477739	-8.563018	3.379925	-0.003309	0.008260	-0.005168	-0.677246	0.240967	0.027588	-68.282265	20.621201	130.110579
09751		-3.494093	-8.517716	3.373475	0.004015	0.004287	-0.005959	-0.676514	0.243408	0.025879	-68.279700	20.620659	130.111510
09752		-3.473692	-8.558851	3.403466	0.000416	0.007906	-0.007795	-0.681152	0.246582	0.027832	-68.280089	20.620336	130.111023
09753		-3.489928	-8.513579	3.397070	0.001209	0.003628	-0.005852	-0.681152	0.243408	0.026123	-68.278990	20.619711	130.112353
09754		-3.481342	-8.536472	3.400100	0.001055	0.007836	-0.005125	-0.676025	0.243408	0.024170	-68.278778	20.620823	130.112566
09755		-3.489283	-8.513971	3.396749	-0.000992	0.004783	-0.008672	-0.679932	0.241211	0.021973	-68.279397	20.618942	130.112602
09756		-3.480404	-8.536955	3.399848	0.004618	0.006103	-0.008884	-0.678711	0.243896	0.024658	-68.277108	20.617680	130.111878
09757		-3.468889	-8.511285	3.368274	-0.000514	0.003334	-0.007133	-0.680176	0.247559	0.031006	-68.277040	20.616310	130.113085
09758		-3.471216	-8.560076	3.402909	0.002614	0.006753	-0.004974	-0.690186	0.245361	0.028809	-68.275698	20.617286	130.114316
09759		-3.479180	-8.537561	3.399579	-0.001310	0.007612	-0.009076	-0.680420	0.246582	0.023438	-68.277098	20.615790	130.112651
09760		-3.509703	-8.522754	3.400975	0.002290	0.003995	-0.007239	-0.674072	0.242188	0.029053	-68.275581	20.614962	130.114248
09761		-3.481672	-8.542601	3.375426	-0.003475	0.006882	-0.006299	-0.676025	0.238281	0.030029	-68.277853	20.614789	130.113628
09762		-3.500625	-8.546017	3.403567	0.001972	0.006824	-0.007643	-0.685547	0.246582	0.028809	-68.277128	20.614260	130.114337
09763		-3.485903	-8.515794	3.395651	0.002133	0.008204	-0.006510	-0.677002	0.244873	0.025879	-68.276469	20.614256	130.112917
09764		-3.477299	-8.538682	3.398687	0.002133	0.008205	-0.006510	-0.675293	0.240967	0.017334	-68.275821	20.614714	130.112755
09765		-3.499643	-8.546573	3.403178	-0.000833	0.006164	-0.007537	-0.678711	0.242432	0.020752	-68.276534	20.613731	130.112263
09766		-3.507540	-8.524133	3.399750	-0.000834	0.006164	-0.007536	-0.686523	0.244385	0.020996	-68.277280	20.613217	130.110655
09767		-3.476154	-8.539417	3.398013	0.002131	0.008206	-0.006508	-0.679688	0.247314	0.024902	-68.276622	20.613214	130.109234
09768		-3.475859	-8.539587	3.397887	0.000888	0.006461	-0.006253	-0.683350	0.240723	0.026123	-68.276323	20.613463	130.108940
09769		-3.487330	-8.521570	3.370737	-0.000513	0.008924	-0.005270	-0.682617	0.242432	0.020752	-68.277226	20.614271	130.107391
09770		-3.468612	-8.530939	3.444933	0.001970	0.006827	-0.007640	-0.675049	0.245117	0.018066	-68.276514	20.613771	130.106318
09771		-3.474864	-8.540231	3.397287	0.000247	0.006532	-0.008922	-0.675293	0.240967	0.018311	-68.276793	20.612128	130.105302
09772		-3.486156	-8.522251	3.370231	0.002129	0.008208	-0.006506	-0.673828	0.241455	0.023682	-68.276157	20.612634	130.102772
09773		-3.482440	-8.517952	3.393790	-0.000836	0.006166	-0.007535	-0.678467	0.237305	0.024902	-68.276873	20.611652	130.102278
09774		-3.473810	-8.540926	3.396618	-0.000516	0.008926	-0.005269	-0.681885	0.241455	0.027100	-68.277814	20.612841	130.100886
09775		-3.496212	-8.548781	3.401161	0.003530	0.005745	-0.007488	-0.686035	0.240723	0.023193	-68.275941	20.611795	130.100642
09776		-3.455510	-8.506330	3.412304	-0.000517	0.008926	-0.005269	-0.688965	0.240967	0.026123	-68.276886	20.612969	130.099308
09777		-3.495685	-8.549147	3.400780	0.000885	0.006463	-0.006251	-0.677002	0.235596	0.022217	-68.276573	20.612733	130.098936
09778		-3.484388	-8.523429	3.369081	0.002127	0.008210	-0.006504	-0.675781	0.246582	0.017090	-68.275972	20.613053	130.097257
09779		-3.486621	-8.572244	3.403734	0.001807	0.005451	-0.008769	-0.684570	0.239990	0.022705	-68.275129	20.611262	130.096890
09780		-3.480224	-8.519361	3.392526	-0.000999	0.010378	-0.006804	-0.678223	0.242432	0.018311	-68.276749	20.612031	130.093360
09781		-3.476656	-8.515105	3.415837	-0.003002	0.005434	-0.004760	-0.680420	0.241699	0.027100	-68.278338	20.612371	130.093911
09782		-3.483134	-8.524331	3.368094	0.002605	0.006761	-0.004966	-0.677246	0.239746	0.020996	-68.277025	20.613307	130.093548
09783		-3.471055	-8.542739	3.394873	-0.000998	0.004789	-0.008665	-0.676025	0.250977	0.028076	-68.277648	20.611432	130.093582
09784		-3.475565	-8.515803	3.415207	-0.000839	0.006169	-0.007532	-0.683350	0.237061	0.019287	-68.278371	20.610942	130.093896
09785		-3.470115	-8.543341	3.394318	-0.000839	0.006169	-0.007532	-0.672607	0.240234	0.024170	-68.279088	20.609962	130.093402
09786		-3.478235	-8.520859	3.390803	-0.001604	0.008562	-0.003880	-0.682373	0.247314	0.021240	-68.280478	20.611800	130.091720
09787		-3.478058	-8.521048	3.390511	0.000882	0.006466	-0.006248	-0.673584	0.244629	0.025635	-68.280167	20.611567	130.091347
09788		-3.481299	-8.525766	3.366358	-0.005010	0.006081	-0.000855	-0.676025	0.236084	0.024170	-68.282728	20.614624	130.092930
09789		-3.474650	-8.517021	3.413101	-0.006451	0.010433	-0.005463	-0.676758	0.240234	0.022217	-68.287350	20.615649	130.090479
09790		-3.488716	-8.547797	3.420301	-0.000840	0.006171	-0.007530	-0.680176	0.240967	0.024170	-68.288115	20.615019	130.089751
09791		-3.474066	-8.517680	3.412051	-0.004568	0.006520	-0.004909	-0.684326	0.242920	0.020264	-68.290830	20.615510	130.089652
09792		-3.474007	-8.518007	3.411293	-0.007055	0.008616	-0.002540	-0.678711	0.237793	0.024658	-68.295235	20.618107	130.088500
09793		-3.491627	-8.553343	3.394395	-0.007694	0.008687	-0.005209	-0.684082	0.239258	0.031982	-68.300199	20.618897	130.087099
09794		-3.465627	-8.541493	3.412548	-0.008138	0.008249	-0.001154	-0.683838	0.239746	0.022217	-68.305053	20.622034	130.087869
09795		-3.500262	-8.531372	3.389076	-0.012348	0.010049	-0.000069	-0.683838	0.239502	0.023438	-68.312547	20.625849	130.086857
09796		-3.481107	-8.528529	3.359551	-0.007817	0.005418	-0.000751	-0.681641	0.241699	0.026367	-68.316620	20.628656	130.087786
09797		-3.466501	-8.542565	3.408978	-0.013597	0.013893	0.002049	-0.677734	0.235840	0.024658	-68.325432	20.634411	130.085065
09798		-3.481720	-8.529250	3.357086	-0.006133	0.007607	-0.005056	-0.678711	0.240479	0.027100	-68.329318	20.635370	130.084617
09799		-3.478354	-8.525142	3.379899	-0.009863	0.007955	-0.002435	-0.678955	0.249512	0.025146	-68.335158	20.637481	130.084259
09800		-3.497867	-8.528719	3.407235	-0.008142	0.008251	-0.001151	-0.685547	0.246826	0.019043	-68.339977	20.640785	130.085132
09801		-3.524082	-8.541268	3.387038	-0.008465	0.011084	-0.001552	-0.686035	0.241211	0.020264	-68.345574	20.644028	130.083193
09802		-3.473960	-8.553357	3.356078	-0.009068	0.009264	0.001369	-0.680420	0.242432	0.019043	-68.350950	20.648880	130.081833
09803		-3.475988	-8.521958	3.399388	-0.008624	0.009705	-0.002685	-0.683838	0.244385	0.025391	-68.356452	20.651228	130.080422
09804		-3.482752	-8.531316	3.350760	-0.008468	0.011085	-0.001550	-0.679443	0.241699	0.025146	-68.362078	20.654893	130.078178
09805		-3.473040	-8.518191	3.420978	-0.008625	0.009706	-0.002684	-0.682373	0.242188	0.020752	-68.367581	20.657242	130.076766
09806		-3.502644	-8.535215	3.376916	-0.010155	0.008897	0.002756	-0.676514	0.238037	0.024170	-68.373397	20.662703	130.076861
09807		-3.477149	-8.523288	3.394864	-0.010636	0.010351	0.001222	-0.681396	0.241455	0.022949	-68.379871	20.667268	130.075963
09808		-3.500305	-8.531325	3.398193	-0.010637	0.010351	0.001222	-0.676025	0.244385	0.027588	-68.386386	20.672175	130.074922
09809		-3.477954	-8.523936	3.392410	-0.008471	0.011089	-0.001546	-0.687744	0.245117	0.023682	-68.391989	20.675421	130.072978
09810		-3.512655	-8.513700	3.369016	-0.007834	0.011016	0.001123	-0.681641	0.247070	0.024658	-68.397014	20.680486	130.072486
09811		-3.477091	-8.556076	3.345891	-0.007197	0.010942	0.003793	-0.679932	0.237793	0.024902	-68.401433	20.686545	130.071829
09812		-3.479482	-8.524513	3.389394	-0.005030	0.011680	0.001024	-0.672607	0.239502	0.031738	-68.405008	20.691657	130.070504
09813		-3.500786	-8.564071	3.348735	-0.005187	0.010301	-0.000110	-0.667480	0.243896	0.018066	-68.408457	20.695501	130.069331
09814		-3.483842	-8.529155	3.364085	-0.003277	0.010079	0.007897	-0.686523	0.241455	0.024170	-68.410144	20.703982	130.070901
09815		-3.449017	-8.503495	3.453723	-0.009368	0.010208	0.006563	-0.677979	0.247070	0.015137	-68.415439	20.711362	130.071285
09816		-3.502525	-8.483807	3.355513	-0.019910	-0.000006	0.013346	-0.683594	0.241699	0.024658	-68.424200	20.720641	130.078001
09817		-3.430081	-8.532163	3.378008	-0.013988	0.004079	0.015420	-0.675781	0.248291	0.021729	-68.430200	20.731449	130.083869
09818		-3.485477	-8.524764	3.382595	-0.016003	0.004724	0.019326	-0.676758	0.251465	0.025879	-68.437188	20.744905	130.090405
09819		-3.461596	-8.512374	3.400212	-0.019387	0.000345	0.027934	-0.676758	0.243652	0.025391	-68.444527	20.761597	130.101217
09820		-3.500299	-8.469745	3.420705	-0.017358	0.003401	0.031496	-0.680176	0.239258	0.029053	-68.451026	20.781305	130.112280
09821		-3.427085	-8.468922	3.407986	-0.031507	0.000523	0.043917	-0.680908	0.237305	0.026123	-68.464063	20.806555	130.126585
09822		-3.492423	-8.550285	3.353713	-0.033379	0.002557	0.048971	-0.679199	0.241699	0.022461	-68.478226	20.835136	130.141395
09823		-3.481181	-8.483026	3.411473	-0.030090	0.005468	0.057884	-0.675293	0.240234	0.027344	-68.490326	20.868876	130.156014
09824		-3.533168	-8.533501	3.349339	-0.035113	0.005988	0.055179	-0.672119	0.254150	0.027344	-68.505653	20.901582	130.169717
09825		-3.534964	-8.528255	3.369905	-0.033572	0.010505	0.057221	-0.678711	0.242432	0.022705	-68.520816	20.936032	130.181300
09826		-3.531952	-8.550156	3.369656	-0.037168	0.006664	0.059117	-0.673340	0.245850	0.029541	-68.537090	20.971145	130.196219
09827		-3.543719	-8.558112	3.318676	-0.039360	0.000355	0.060021	-0.678711	0.245117	0.025879	-68.553260	21.004968	130.214213
09828		-3.579881	-8.541942	3.317213	-0.030155	-0.001961	0.061661	-0.671875	0.240234	0.030029	-68.563554	21.039523	130.234936
09829		-3.578395	-8.599416	3.249499	-0.030013	-0.006160	0.060929	-0.671387	0.248291	0.020264	-68.572940	21.072473	130.256850
09830		-3.568775	-8.500288	3.352975	-0.016601	-0.002816	0.057763	-0.672852	0.243896	0.028076	-68.575600	21.104780	130.276241
09831		-3.588184	-8.484580	3.301521	-0.007864	-0.009284	0.055974	-0.674561	0.250000	0.026611	-68.572028	21.134435	130.298836
09832		-3.584050	-8.505546	3.304870	0.005238	-0.014304	0.048631	-0.671387	0.240967	0.027832	-68.560513	21.159473	130.323453
09833		-3.618435	-8.488140	3.308184	0.023503	-0.018471	0.045145	-0.675049	0.249756	0.031006	-68.537923	21.181419	130.348890
09834		-3.632185	-8.399915	3.397555	0.037529	-0.022624	0.029672	-0.674561	0.253418	0.027588	-68.507718	21.194519	130.374323
09835		-3.623494	-8.451884	3.360911	0.055923	-0.027225	0.014244	-0.672852	0.246094	0.025879	-68.467240	21.198129	130.397830
09836		-3.647735	-8.492865	3.303876	0.076493	-0.032989	0.001647	-0.671143	0.246582	0.022461	-68.414820	21.194198	130.422380
09837		-3.613574	-8.469331	3.379318	0.097830	-0.037435	-0.007119	-0.666992	0.246582	0.035400	-68.349972	21.184233	130.446891
09838		-3.611283	-8.466371	3.389168	0.099638	-0.045034	-0.014017	-0.664551	0.238770	0.014648	-68.283114	21.169302	130.475151
09839		-3.591521	-8.397081	3.460110	0.107512	-0.050898	-0.025173	-0.674805	0.248535	0.024170	-68.211452	21.146817	130.503203
09840		-3.606646	-8.397532	3.499217	0.101818	-0.055871	-0.032397	-0.667480	0.246338	0.016602	-68.142689	21.119762	130.530069
09841		-3.578521	-8.387943	3.505012	0.098282	-0.058252	-0.047998	-0.679199	0.241455	0.027588	-68.076739	21.083508	130.557017
09842		-3.562408	-8.441068	3.474016	0.093359	-0.060043	-0.057006	-0.671143	0.243896	0.023193	-68.014052	21.042389	130.581298
09843		-3.536205	-8.549201	3.401695	0.089250	-0.062393	-0.056599	-0.671875	0.240967	0.020752	-67.953213	21.000622	130.608523
09844		-3.542490	-8.610374	3.375068	0.085943	-0.063428	-0.052385	-0.682617	0.249512	0.029297	-67.893778	20.961176	130.635592
09845		-3.537705	-8.577244	3.428784	0.084541	-0.057196	-0.043909	-0.675293	0.239990	0.029785	-67.835716	20.927214	130.662689
09846		-3.483233	-8.556228	3.451893	0.076420	-0.056373	-0.041296	-0.675781	0.247070	0.020752	-67.782315	20.895073	130.690372
09847		-3.510572	-8.507962	3.505352	0.060729	-0.050630	-0.032728	-0.674072	0.235840	0.028320	-67.738355	20.868418	130.716259
09848		-3.482224	-8.531601	3.462650	0.049067	-0.040632	-0.030145	-0.675781	0.244141	0.024414	-67.702942	20.845584	130.735811
09849		-3.478575	-8.531025	3.467733	0.040690	-0.031424	-0.026133	-0.677979	0.250244	0.024414	-67.673827	20.826571	130.752297
09850		-3.479173	-8.535167	3.448205	0.035759	-0.021620	-0.019564	-0.677246	0.246826	0.028076	-67.648985	20.813592	130.763943
09851		-3.434467	-8.567875	3.476784	0.024927	-0.010322	-0.013204	-0.674072	0.243652	0.023193	-67.632095	20.806017	130.771462
09852		-3.472717	-8.529372	3.477657	0.029499	-0.005623	-0.004584	-0.673828	0.238037	0.019043	-67.612836	20.804407	130.777732
09853		-3.435524	-8.490539	3.467093	0.025055	0.002734	0.003518	-0.671875	0.241455	0.028076	-67.597116	20.808536	130.781751
09854		-3.437581	-8.457395	3.513008	0.022604	0.010429	0.007713	-0.673096	0.233398	0.020752	-67.584049	20.816851	130.780829
09855		-3.472202	-8.477880	3.448157	0.027776	0.029974	0.011457	-0.680176	0.236328	0.023682	-67.571595	20.831137	130.771272
09856		-3.462983	-8.494240	3.476684	0.037310	0.041662	0.019032	-0.681641	0.249268	0.024414	-67.555492	20.852148	130.754385
09857		-3.520023	-8.484657	3.484537	0.035156	0.046546	0.023654	-0.679199	0.241943	0.028564	-67.541141	20.876523	130.738298
09858		-3.496309	-8.502515	3.460438	0.030039	0.049384	0.027254	-0.673096	0.248779	0.020264	-67.530030	20.903748	130.721179
09859		-3.511582	-8.525956	3.493162	0.031298	0.049289	0.032615	-0.672363	0.237549	0.024170	-67.517707	20.933474	130.705643
09860		-3.524454	-8.500929	3.490770	0.031917	0.049249	0.035304	-0.680420	0.243164	0.017578	-67.504838	20.964953	130.689721
09861		-3.497024	-8.433219	3.499111	0.032385	0.053423	0.038700	-0.679199	0.239014	0.019775	-67.492233	20.998813	130.673278
09862		-3.517310	-8.460943	3.507574	0.027134	0.071688	0.046676	-0.679199	0.247803	0.019043	-67.485755	21.041160	130.645949
09863		-3.526606	-8.393966	3.595193	0.023367	0.073927	0.043703	-0.676758	0.243652	0.018066	-67.482096	21.082171	130.619053
09864		-3.551536	-8.496056	3.466478	0.010154	0.085028	0.046081	-0.680664	0.241211	0.021973	-67.488129	21.127218	130.584777
09865		-3.577826	-8.496982	3.492272	-0.000128	0.086979	0.045817	-0.676758	0.244385	0.019531	-67.500471	21.172205	130.550946
09866		-3.612159	-8.475470	3.514001	-0.004986	0.083261	0.042391	-0.669434	0.243408	0.019531	-67.515214	21.214788	130.517334
09867		-3.595642	-8.466713	3.505988	-0.006422	0.074542	0.039702	-0.673340	0.246094	0.016357	-67.529187	21.253799	130.489087
09868		-3.549585	-8.441070	3.540798	-0.004586	0.083718	0.038378	-0.668945	0.253906	0.013428	-67.544173	21.294434	130.454408
09869		-3.558958	-8.375714	3.624660	-0.022476	0.086881	0.036568	-0.670166	0.246582	0.022461	-67.570212	21.334467	130.418370
09870		-3.551107	-8.458008	3.557562	-0.047049	0.097760	0.045632	-0.670898	0.245605	0.017334	-67.611847	21.382082	130.378144
09871		-3.600812	-8.493981	3.411786	-0.057045	0.102529	0.047630	-0.666260	0.244385	0.015869	-67.660082	21.431341	130.335709
09872		-3.613554	-8.510288	3.482298	-0.061615	0.099768	0.052084	-0.676270	0.249512	0.017090	-67.710065	21.482633	130.295244
09873		-3.603848	-8.475589	3.489085	-0.064643	0.101540	0.058559	-0.669434	0.250732	0.012207	-67.761628	21.537404	130.255800
09874		-3.593102	-8.404242	3.563062	-0.078397	0.101100	0.061314	-0.672852	0.247559	0.020264	-67.820820	21.593877	130.216402
09875		-3.569600	-8.452467	3.506879	-0.094363	0.105589	0.068708	-0.664795	0.251221	0.014893	-67.889524	21.654832	130.176851
09876		-3.579866	-8.453298	3.494391	-0.110866	0.107841	0.085800	-0.669434	0.257080	0.020996	-67.966784	21.725626	130.140218
09877		-3.572427	-8.495279	3.510603	-0.133941	0.111718	0.099994	-0.666260	0.254639	0.010986	-68.056957	21.804417	130.104169
09878		-3.616588	-8.481099	3.494884	-0.170689	0.101610	0.125519	-0.659668	0.252441	0.018066	-68.163931	21.894995	130.080172
09879		-3.570293	-8.513738	3.472954	-0.213825	0.094119	0.156077	-0.659912	0.251709	0.015625	-68.291540	21.999760	130.066704
09880		-3.609864	-8.486969	3.521685	-0.266682	0.090114	0.190264	-0.657959	0.246338	0.021240	-68.445762	22.122207	130.063935
09881		-3.610811	-8.486990	3.465037	-0.318428	0.116171	0.215174	-0.662109	0.256348	0.022461	-68.633343	22.263037	130.050507
09882		-3.704687	-8.472072	3.362135	-0.359995	0.144161	0.229388	-0.667236	0.258545	0.019287	-68.849903	22.417457	130.025230
09883		-3.718975	-8.494679	3.351530	-0.388407	0.168552	0.237634	-0.659912	0.260742	0.025879	-69.087783	22.580972	129.985309
09884		-3.751249	-8.507054	3.263459	-0.405066	0.184249	0.244525	-0.656494	0.260498	0.028320	-69.338523	22.751512	129.938757
09885		-3.777392	-8.400204	3.276645	-0.428192	0.216337	0.248144	-0.645264	0.255859	0.040771	-69.609974	22.929936	129.871642
09886		-3.838180	-8.358379	3.277040	-0.456408	0.237445	0.252037	-0.647461	0.256104	0.028809	-69.902671	23.114625	129.791991
09887		-3.736488	-8.341038	3.282244	-0.509831	0.278318	0.255194	-0.653564	0.261719	0.034180	-70.235890	23.308300	129.687852
09888		-3.712623	-8.464613	3.188110	-0.553387	0.316544	0.251019	-0.650146	0.270020	0.034912	-70.604213	23.506719	129.559974
09889		-3.716884	-8.598790	3.068048	-0.576718	0.364499	0.273022	-0.647949	0.271729	0.041016	-70.996554	23.725041	129.405600
09890		-3.695317	-8.641539	2.977220	-0.594914	0.399556	0.310390	-0.646973	0.269531	0.036133	-71.405992	23.969390	129.236166
09891		-3.696270	-8.650677	3.004444	-0.623062	0.430219	0.364937	-0.641602	0.269775	0.034424	-71.836295	24.247513	129.056836
09892		-3.745674	-8.795869	2.802808	-0.634002	0.465046	0.415504	-0.630859	0.288574	0.040527	-72.279360	24.558343	128.863733
09893		-3.828379	-8.990572	2.657970	-0.587736	0.494156	0.473588	-0.631836	0.282227	0.043701	-72.700968	24.904342	128.661050
09894		-3.843205	-8.943999	2.627700	-0.554028	0.521337	0.544473	-0.632324	0.290771	0.037354	-73.107213	25.292623	128.451763
09895		-4.016924	-8.812381	2.578727	-0.555294	0.533816	0.614635	-0.622803	0.283447	0.043945	-73.514940	25.719884	128.243916
09896		-4.041960	-8.892426	2.464678	-0.534331	0.563431	0.673005	-0.622070	0.283447	0.049072	-73.917258	26.182866	128.024258
09897		-4.200854	-8.950525	2.384350	-0.509109	0.547093	0.728673	-0.603760	0.291016	0.051758	-74.299946	26.672400	127.819964
09898		-4.278719	-8.887372	2.191060	-0.466826	0.533578	0.784314	-0.603760	0.300293	0.045410	-74.653880	27.189563	127.629182
09899		-4.415445	-8.881536	2.037072	-0.401560	0.507988	0.831355	-0.596924	0.304688	0.048584	-74.962942	27.727732	127.458030
09900		-4.468971	-8.735711	2.092961	-0.355877	0.487137	0.871369	-0.593262	0.300781	0.056396	-75.239879	28.284351	127.302644
09901		-4.550542	-8.664710	2.233680	-0.333885	0.497768	0.901413	-0.594238	0.312256	0.042236	-75.508234	28.858354	127.141666
09902		-4.441204	-8.640508	2.513464	-0.351998	0.526564	0.957216	-0.580322	0.310303	0.052979	-75.794940	29.466863	126.967342
09903		-4.378805	-8.581784	2.715944	-0.402376	0.583116	1.019468	-0.568848	0.323975	0.057861	-76.127620	30.116870	126.761911
09904		-4.314782	-8.631793	2.745528	-0.490981	0.668091	1.105560	-0.558105	0.319824	0.047852	-76.537338	30.825238	126.508816
09905		-4.365668	-8.556998	2.687548	-0.585715	0.767820	1.210290	-0.553467	0.328613	0.052979	-77.033972	31.603243	126.198204
09906		-4.526466	-8.504133	2.475118	-0.686290	0.864027	1.304259	-0.538574	0.325439	0.064209	-77.624208	32.443355	125.826721
09907		-4.707958	-8.523362	2.179524	-0.772873	0.952007	1.404849	-0.531494	0.338135	0.063232	-78.300953	33.346772	125.396156
09908		-4.848519	-8.699805	1.804239	-0.813933	0.993120	1.519010	-0.518799	0.343750	0.066162	-79.023839	34.314460	124.935419
09909		-4.954941	-8.629943	1.682794	-0.833431	1.028240	1.646810	-0.501953	0.349121	0.071289	-79.780885	35.352812	124.446207
09910		-4.857859	-8.498663	1.850107	-0.883212	1.079622	1.791178	-0.488525	0.363525	0.071533	-80.598843	36.472004	123.914489
09911		-4.902206	-8.334172	1.988055	-0.951903	1.143322	1.956672	-0.479004	0.361328	0.070801	-81.498562	37.684029	123.326980
09912		-4.932348	-8.215138	2.045272	-1.065920	1.242411	2.140838	-0.454590	0.368408	0.072510	-82.528969	39.000236	122.650532
09913		-5.064091	-7.978397	2.209873	-1.203997	1.369004	2.321354	-0.437256	0.379150	0.082520	-83.730364	40.417367	121.850065
09914		-5.294625	-7.810738	2.158124	-1.344189	1.501832	2.495243	-0.412354	0.388672	0.086426	-85.124734	41.926532	120.901964
09915		-5.741715	-7.720500	1.874131	-1.464322	1.628591	2.692481	-0.390625	0.386475	0.095947	-86.718962	43.534690	119.789280
09916		-6.274218	-7.791266	1.548596	-1.573237	1.716048	2.854843	-0.377686	0.397705	0.106689	-88.511212	45.212768	118.515538
09917		-6.820348	-8.035601	1.083123	-1.599054	1.768867	2.996428	-0.349365	0.401611	0.110107	-90.460329	46.941919	117.081884
09918		-7.719955	-8.079494	0.828948	-1.566582	1.792853	3.107330	-0.322754	0.408203	0.129395	-92.538635	48.697923	115.488702
09919		-8.331435	-8.842233	0.351491	-1.497279	1.786939	3.211559	-0.291260	0.404541	0.133545	-94.729971	50.473019	113.737794
09920		-9.594641	-9.314926	0.232046	-1.331770	1.788315	3.320594	-0.274170	0.405762	0.142822	-97.007568	52.264260	111.799184
09921		-9.964750	-10.156060	0.513643	-1.161120	1.755826	3.429791	-0.244629	0.423096	0.153564	-99.372507	54.069986	109.676161
09922		-9.316374	-10.903703	0.914223	-0.886007	1.793023	3.613761	-0.205811	0.415283	0.157715	-101.862142	55.919547	107.256684
09923		-9.158758	-11.208228	0.990767	-0.460096	1.877723	3.867804	-0.177490	0.415771	0.166016	-104.502473	57.836357	104.419537
09924		-9.631724	-11.149095	0.978179	-0.015003	1.952703	4.094994	-0.144531	0.402100	0.158447	-107.347219	59.789837	101.104645
09925		-10.543917	-11.079934	1.052875	0.378280	2.019946	4.251591	-0.112793	0.409180	0.162598	-110.493949	61.724111	97.250833
09926		-10.432474	-11.141370	0.806244	0.621659	2.135269	4.274332	-0.072510	0.394531	0.154785	-114.114329	63.530513	92.773401
09927		-9.162171	-10.513816	1.256209	0.712939	2.270072	4.173398	-0.038086	0.396484	0.162354	-118.328034	65.106859	87.645690
09928		-7.119871	-9.887162	0.877001	0.688987	2.370636	4.181734	-0.008057	0.382568	0.149902	-123.252443	66.475394	81.814247
09929		-6.468169	-9.862562	0.181379	0.809960	2.480205	4.303948	0.032715	0.376953	0.153320	-128.934830	67.637412	75.141214
09930		-7.198571	-10.138563	0.094785	1.070799	2.544724	4.368904	0.062744	0.356689	0.150146	-135.177762	68.525360	67.751362
09931		-6.281802	-11.745407	0.276491	1.398129	2.558539	4.211698	0.089111	0.339111	0.158691	-141.536997	69.039178	60.071854
09932		-6.588741	-8.945385	0.184005	1.686523	2.464723	3.627502	0.116455	0.318115	0.144775	-147.138381	69.108299	53.040506
09933		-4.113516	-6.625013	0.311004	1.795949	2.402494	3.044986	0.142090	0.311279	0.146240	-151.839404	68.812370	46.901890
09934		-11.236787	-8.975144	4.522293	2.097516	2.030621	2.618791	0.161865	0.299072	0.145752	-155.390221	68.441557	41.797672
09935		-18.908208	-14.539269	9.319234	2.123420	0.481442	0.930040	0.180664	0.288818	0.124512	-155.693260	68.415582	40.163619
09936		-13.073080	-11.092972	8.129183	1.951402	-0.657553	-0.811462	0.170898	0.294922	0.107178	-153.091600	68.559960	41.757025
09937		-9.770063	-7.867093	6.796545	1.375262	-1.533553	-2.145802	0.148682	0.300781	0.096191	-148.464111	68.731290	45.879353
09938		-6.971178	-6.499723	5.260453	0.745857	-2.064982	-3.100743	0.144287	0.311523	0.090576	-142.543629	68.705694	51.772243
09939		-4.654357	-6.252698	3.327518	0.415865	-2.390986	-3.681283	0.120605	0.326416	0.069092	-135.962532	68.371000	58.586551
09940		-2.460532	-5.797882	2.194594	0.388329	-2.519863	-3.863885	0.082520	0.340576	0.065430	-129.364457	67.724862	65.457453
09941		-1.088412	-5.226825	0.983642	0.525497	-2.542971	-3.809907	0.067627	0.357910	0.052246	-123.168891	66.830062	71.846749
09942		-0.166226	-5.328298	-0.011040	0.790009	-2.457981	-3.573188	0.041260	0.364258	0.044678	-117.570692	65.777508	77.463074
09943		0.133257	-5.651826	-0.741309	1.143646	-2.320236	-3.265463	0.014404	0.371338	0.024170	-112.585174	64.649858	82.231980
09944		-0.172121	-6.168050	-1.070513	1.494266	-2.121353	-2.999831	0.003174	0.384521	0.013672	-108.140829	63.462304	86.219586
09945		-0.839714	-6.600937	-1.113840	1.761399	-1.881657	-2.894953	-0.021729	0.383301	-0.007568	-104.210224	62.173215	89.503248
09946		-1.529625	-6.978955	-0.847108	1.906526	-1.622662	-2.951293	-0.046631	0.394043	-0.027100	-100.762636	60.723233	92.181916
09947		-2.335340	-7.091363	-0.542687	1.938129	-1.401928	-3.118133	-0.064941	0.407471	-0.045410	-97.782116	59.092952	94.342935
09948		-3.224778	-7.347083	-0.471792	1.885205	-1.267840	-3.301104	-0.098877	0.406494	-0.057373	-95.180373	57.294834	96.130617
09949		-3.854237	-7.625035	-0.329623	1.806112	-1.222075	-3.437039	-0.125488	0.415527	-0.077637	-92.883717	55.383007	97.646335
09950		-4.136722	-7.612721	-0.099914	1.715501	-1.227912	-3.520230	-0.158691	0.419678	-0.096924	-90.816252	53.388350	98.977426
09951		-4.504266	-7.675050	0.215324	1.591484	-1.271521	-3.564159	-0.196533	0.420410	-0.117188	-88.959983	51.347968	100.169682
09952		-4.883774	-7.935252	0.405950	1.456917	-1.331119	-3.594566	-0.239746	0.429443	-0.134277	-87.277753	49.262462	101.267818
09953		-5.254648	-8.337576	0.706160	1.345328	-1.396880	-3.607947	-0.273682	0.418213	-0.146973	-85.749613	47.153376	102.283356
09954		-5.607885	-8.738466	1.065758	1.257391	-1.458157	-3.603589	-0.313232	0.424072	-0.151855	-84.340475	45.021705	103.235794
09955		-5.987915	-9.252971	1.393185	1.190732	-1.534970	-3.582478	-0.351807	0.421631	-0.163086	-83.029346	42.887600	104.141657
09956		-6.450279	-9.736764	1.700413	1.163859	-1.627095	-3.539003	-0.406006	0.396973	-0.171631	-81.767372	40.751464	105.030252
09957		-6.754913	-10.181154	2.011742	1.173048	-1.740564	-3.471781	-0.434082	0.390625	-0.174805	-80.528100	38.635127	105.918084
09958		-7.203903	-10.494806	2.331735	1.209961	-1.862220	-3.370940	-0.477783	0.373779	-0.174561	-79.279386	36.543292	106.824296
09959		-7.808293	-10.713146	2.777821	1.230046	-2.011814	-3.244291	-0.510498	0.341553	-0.174805	-78.026000	34.496433	107.768386
09960		-8.287595	-11.117900	3.000165	1.236289	-2.179778	-3.105375	-0.557861	0.341064	-0.182373	-76.761498	32.483902	108.771444
09961		-8.911261	-11.711434	3.094178	1.235902	-2.351803	-2.979598	-0.578857	0.310791	-0.169922	-75.499972	30.505742	109.830529
09962		-9.605041	-12.129719	3.082780	1.207902	-2.523780	-2.889093	-0.605713	0.303467	-0.179443	-74.256124	28.526671	110.945153
09963		-10.006599	-12.490875	3.037648	1.166678	-2.669585	-2.835040	-0.632080	0.291260	-0.174805	-73.058492	26.539615	112.089653
09964		-10.210427	-12.562104	3.021168	1.151622	-2.769159	-2.798944	-0.662354	0.266602	-0.159912	-71.901319	24.528746	113.237654
09965		-10.286705	-12.087602	3.040583	1.083836	-2.854360	-2.733427	-0.698975	0.250488	-0.160645	-70.821623	22.523958	114.386539
09966		-10.149729	-11.640201	3.397481	0.935765	-2.892823	-2.680438	-0.728271	0.238037	-0.156982	-69.869247	20.516230	115.514964
09967		-10.290148	-11.476102	3.548995	0.746841	-2.894175	-2.646671	-0.752930	0.214844	-0.142090	-69.077780	18.516381	116.603043
09968		-10.343080	-11.330599	3.724761	0.523227	-2.878895	-2.644264	-0.780273	0.202637	-0.132568	-68.462293	16.503059	117.645497
09969		-10.297071	-11.176704	3.782630	0.319005	-2.827402	-2.662675	-0.818359	0.181396	-0.102783	-68.017979	14.487272	118.624434
09970		-10.265196	-10.923228	3.712895	0.114391	-2.768472	-2.687061	-0.833008	0.169678	-0.094971	-67.736222	12.460193	119.544453
09971		-10.195328	-10.771520	3.373240	-0.016284	-2.706746	-2.692592	-0.853027	0.153076	-0.085693	-67.572924	10.445309	120.414020
09972		-9.827772	-10.217107	2.792632	-0.054622	-2.664885	-2.640058	-0.883057	0.123047	-0.066406	-67.463144	8.460688	121.262839
09973		-9.356181	-9.351364	2.344135	-0.050613	-2.609737	-2.508523	-0.898682	0.108154	-0.045166	-67.382328	6.561098	122.103317
09974		-9.020341	-8.486069	2.012049	-0.039299	-2.523253	-2.321315	-0.913818	0.090088	-0.028076	-67.321320	4.774326	122.934213
09975		-8.812479	-7.795079	1.769933	-0.018280	-2.402824	-2.115549	-0.929443	0.065674	-0.010010	-67.276142	3.126410	123.742825
09976		-8.646010	-7.132250	1.474704	0.005969	-2.249045	-1.918486	-0.941650	0.050293	0.012207	-67.239661	1.612384	124.511620
09977		-8.527500	-6.808517	1.107579	0.059571	-2.078705	-1.735325	-0.954590	0.034668	0.026611	-67.194012	0.236095	125.229204
09978		-8.468065	-6.582749	0.507445	0.159023	-1.909210	-1.555933	-0.964844	0.021240	0.032715	-67.106308	-1.011815	125.895675
09979		-8.311782	-5.969837	-0.093066	0.286720	-1.744618	-1.364207	-0.969971	-0.001953	0.050781	-66.959028	-2.119924	126.515704
09980		-8.119878	-5.056007	-0.519291	0.371755	-1.572111	-1.145088	-0.976563	-0.012207	0.051025	-66.771236	-3.078245	127.091374
09981		-8.119484	-4.328983	-0.684455	0.355341	-1.367011	-0.893100	-0.977051	-0.028809	0.068359	-66.599279	-3.856575	127.613548
09982		-8.202266	-3.675780	-0.632084	0.234693	-1.159563	-0.646885	-0.982910	-0.031006	0.072266	-66.498041	-4.461586	128.081293
09983		-8.306037	-3.366699	-0.676253	0.040532	-0.947911	-0.424621	-0.993896	-0.042480	0.081543	-66.508083	-4.899666	128.488196
09984		-8.306472	-3.322449	-0.549800	-0.157591	-0.755312	-0.217656	-0.998535	-0.034424	0.090088	-66.628903	-5.186218	128.841543
09985		-8.192384	-3.591362	-0.421850	-0.326775	-0.567947	-0.004860	-0.986816	-0.041504	0.094482	-66.843977	-5.315704	129.145132
09986		-8.075263	-4.001237	-0.246488	-0.435190	-0.394372	0.232430	-0.993652	-0.046631	0.105225	-67.117455	-5.280954	129.410780
09987		-8.036984	-4.704009	-0.041508	-0.488116	-0.257245	0.474899	-0.998779	-0.045410	0.102051	-67.419459	-5.085308	129.657318
09988		-5.231766	-6.970341	1.050286	-0.575788	0.146729	1.050084	-1.002197	-0.035156	0.100830	-67.762175	-4.495907	129.813950
09989		-8.535188	-1.385835	-1.768950	-0.169159	0.589942	2.516209	-0.990234	-0.016113	0.100830	-67.874671	-3.031626	130.050185
09990		-0.997710	-5.391603	1.063133	-0.302286	0.724816	2.331164	-0.984619	0.001709	0.101074	-68.052653	-1.636101	130.170896
09991		0.390103	-10.939241	2.243449	-0.406322	0.722559	2.295290	-0.975586	0.022461	0.093750	-68.287336	-0.259648	130.280047
09992		3.791722	-6.017436	3.256599	-1.177381	0.832037	2.325449	-0.979736	0.039307	0.092773	-68.961559	1.156541	130.326159
09993		1.325875	-7.552623	1.068561	-1.693821	1.131878	2.715847	-0.966553	0.053955	0.099609	-69.934154	2.843022	130.269538
09994		-4.112140	-12.237203	0.695528	-1.424761	1.271478	3.069931	-0.958008	0.080322	0.085938	-70.756518	4.746163	130.179276
09995		-6.396891	-14.720356	1.900611	-0.949543	1.137102	2.874307	-0.943359	0.104492	0.081787	-71.308217	6.517281	130.102386
09996		-3.294331	-11.464496	3.267340	-0.672183	1.081093	2.781305	-0.937256	0.130859	0.083008	-71.703623	8.227060	130.024088
09997		-3.620463	-12.107775	5.071511	-0.435061	1.111332	3.108159	-0.921875	0.147461	0.078369	-71.960314	10.119647	129.978077
09998		-8.239227	-11.398559	6.471847	0.016856	0.791644	3.350320	-0.904541	0.168213	0.074707	-71.917828	12.087443	130.149439
09999		-8.191958	-11.282604	6.933667	-0.181041	0.503867	3.005356	-0.901855	0.200195	0.057861	-71.960982	13.816043	130.419981
10000		-7.173256	-12.174803	4.722811	-0.196785	0.411668	2.650847	-0.887451	0.216797	0.064697	-72.008787	15.335877	130.678002
10001		-6.305264	-11.273047	3.576809	-0.141273	0.416993	2.314167	-0.879883	0.233643	0.069824	-72.036364	16.672805	130.871784
10002		-8.877275	-11.482506	5.486578	-0.146366	0.513146	1.876445	-0.867432	0.241699	0.059814	-72.102959	17.788968	130.929960
10003		-9.085986	-12.060289	4.198569	-0.160252	0.367793	1.263006	-0.850830	0.251221	0.062988	-72.186441	18.544383	130.956895
10004		-5.801338	-13.474553	-0.148622	0.127251	0.269213	0.775654	-0.854492	0.263672	0.056152	-72.115567	19.017748	130.950262
10005		-5.106919	-11.129887	1.841315	0.373840	0.226175	0.581982	-0.858398	0.263672	0.047363	-71.906997	19.376919	130.933343
10006		-4.933086	-10.453999	2.286203	0.394011	0.063434	0.395652	-0.850098	0.262939	0.050537	-71.666964	19.606729	130.976399
10007		-4.028550	-10.187705	2.038059	0.410242	-0.010710	0.289941	-0.850098	0.263428	0.042725	-71.409526	19.764325	131.043033
10008		-4.015946	-9.391428	2.817161	0.365924	-0.029856	0.211081	-0.851563	0.263184	0.044434	-71.178675	19.876515	131.105997
10009		-3.793820	-9.372657	2.715926	0.301081	-0.043995	0.145037	-0.853027	0.264160	0.048340	-70.986263	19.948884	131.164618
10010		-3.550004	-8.900068	3.017407	0.251195	-0.041441	0.108081	-0.845215	0.260986	0.048584	-70.825455	20.002753	131.214564
10011		-3.408206	-8.667712	3.135561	0.193689	-0.032156	0.083545	-0.842041	0.264404	0.037354	-70.700872	20.043783	131.254483
10012		-3.363731	-8.669160	3.121002	0.162396	-0.019988	0.069789	-0.842285	0.261963	0.042969	-70.597662	20.080817	131.284623
10013		-3.282192	-8.570368	3.208626	0.135741	-0.021327	0.069357	-0.847900	0.261475	0.038818	-70.509302	20.116110	131.315608
10014		-3.409156	-8.644645	3.124907	0.118194	-0.022262	0.069956	-0.850098	0.262451	0.036377	-70.430864	20.152705	131.347227
10015		-3.407563	-8.757247	2.952565	0.118108	-0.022315	0.058137	-0.846924	0.267822	0.043701	-70.353127	20.181670	131.376602
10016		-3.432620	-8.709523	2.936367	0.137742	-0.011571	0.052482	-0.843506	0.270996	0.045166	-70.266781	20.210819	131.398599
10017		-3.523366	-8.732463	2.991539	0.162965	0.002493	0.041022	-0.843262	0.271973	0.049316	-70.169430	20.235284	131.410287
10018		-3.472759	-8.795990	2.884192	0.183868	0.012707	0.016930	-0.847656	0.267090	0.038330	-70.063991	20.249942	131.411061
10019		-3.470425	-8.786364	2.925045	0.216195	0.023487	-0.002150	-0.839111	0.268555	0.044434	-69.943392	20.255234	131.401784
10020		-3.440067	-8.620846	3.115568	0.247767	0.023546	-0.015838	-0.842773	0.269287	0.038818	-69.805876	20.254397	131.389510
10021		-3.426063	-8.504818	3.392440	0.248345	-0.002723	-0.021569	-0.847168	0.265381	0.027832	-69.663072	20.244091	131.391167
10022		-3.413987	-8.614527	3.255676	0.233744	-0.029093	-0.017723	-0.840576	0.262451	0.030518	-69.523300	20.231784	131.408613
10023		-3.441376	-8.703358	3.221259	0.221353	-0.043633	-0.012792	-0.841064	0.267334	0.032715	-69.387244	20.217954	131.435489
10024		-3.462439	-8.784708	3.234115	0.201841	-0.060170	0.009718	-0.846680	0.263428	0.032959	-69.257601	20.213990	131.476533
10025		-3.437086	-8.655289	3.329304	0.178209	-0.071588	0.028969	-0.832520	0.259766	0.036621	-69.137650	20.216726	131.528352
10026		-3.400056	-8.720550	3.277271	0.148710	-0.078166	0.043691	-0.840576	0.264893	0.026123	-69.032343	20.227103	131.587044
10027		-3.402694	-8.603488	3.348900	0.132980	-0.076688	0.051797	-0.848389	0.260986	0.035889	-68.935550	20.240819	131.646787
10028		-3.418759	-8.628385	3.368983	0.103549	-0.078001	0.056516	-0.839111	0.266602	0.028564	-68.855131	20.257899	131.708249
10029		-3.456173	-8.612517	3.357859	0.080752	-0.067912	0.062212	-0.850830	0.261475	0.030518	-68.789146	20.278837	131.765345
10030		-3.413915	-8.592017	3.357040	0.070235	-0.063968	0.056597	-0.841064	0.271240	0.028320	-68.730515	20.298737	131.818893
10031		-3.460998	-8.634458	3.329346	0.057161	-0.066535	0.067816	-0.850098	0.262451	0.037598	-68.677826	20.322843	131.876510
10032		-3.431440	-8.610312	3.402165	0.038824	-0.056887	0.073471	-0.842285	0.267334	0.029297	-68.637225	20.353133	131.929834
10033		-3.501716	-8.581124	3.387539	0.024783	-0.051272	0.071645	-0.844971	0.262939	0.031006	-68.605739	20.382392	131.979676
10034		-3.407328	-8.569267	3.373811	0.010435	-0.042836	0.069430	-0.847412	0.266602	0.036133	-68.584429	20.413411	132.024158
10035		-3.495566	-8.575647	3.340306	0.004128	-0.038472	0.068960	-0.849854	0.270020	0.031250	-68.567465	20.443879	132.066160
10036		-3.469065	-8.588176	3.339313	0.001201	-0.024144	0.061736	-0.842285	0.265381	0.030029	-68.555707	20.474683	132.098319
10037		-3.517790	-8.632660	3.304740	-0.002757	-0.017675	0.059597	-0.844238	0.259521	0.037109	-68.547512	20.504499	132.126417
10038		-3.499478	-8.622936	3.300238	0.000258	-0.010424	0.050580	-0.834473	0.269287	0.036377	-68.539871	20.532221	132.148289
10039		-3.516640	-8.571524	3.319334	0.002765	-0.006949	0.050061	-0.838623	0.265381	0.030762	-68.531373	20.559194	132.168164
10040		-3.494022	-8.557849	3.338942	0.009237	-0.004704	0.041667	-0.840088	0.273682	0.033447	-68.520413	20.583358	132.184797
10041		-3.471909	-8.513358	3.403798	0.009051	-0.006059	0.040537	-0.837891	0.268799	0.031982	-68.509220	20.605433	132.202046
10042		-3.425378	-8.523065	3.373279	-0.001136	-0.002716	0.041594	-0.844727	0.264404	0.028564	-68.504589	20.629971	132.217544
10043		-3.492182	-8.571936	3.366383	-0.009268	-0.001920	0.044299	-0.838623	0.276367	0.038086	-68.504409	20.654917	132.233290
10044		-3.485631	-8.544056	3.334567	-0.004342	0.001722	0.047696	-0.840332	0.267090	0.032959	-68.502007	20.683636	132.247636
10045		-3.502331	-8.523715	3.307527	-0.004373	0.016997	0.052229	-0.835205	0.274414	0.025146	-68.502187	20.716781	132.254388
10046		-3.512862	-8.463946	3.373589	0.017938	0.024960	0.050719	-0.846436	0.272461	0.027832	-68.491452	20.751990	132.256176
10047		-3.519350	-8.541789	3.362930	0.017135	0.029253	0.048820	-0.838867	0.276855	0.032471	-68.482046	20.785892	132.255187
10048		-3.545560	-8.608863	3.278601	0.027047	0.034279	0.049284	-0.843994	0.268066	0.034912	-68.468085	20.822296	132.251354
10049		-3.487083	-8.570446	3.388934	0.028954	0.035926	0.051698	-0.841553	0.270508	0.027832	-68.453026	20.859135	132.247225
10050		-3.471375	-8.529041	3.429775	0.019175	0.040099	0.060624	-0.837646	0.273682	0.030029	-68.443851	20.902806	132.242641
10051		-3.465631	-8.576141	3.410447	-0.004874	0.037799	0.074698	-0.833496	0.274902	0.028076	-68.446707	20.952298	132.242634
10052		-3.492572	-8.608372	3.390925	-0.036004	0.044516	0.098307	-0.831299	0.266846	0.033936	-68.467017	21.016974	132.244012
10053		-3.514566	-8.618187	3.314190	-0.051695	0.046446	0.118345	-0.837158	0.272217	0.030518	-68.494955	21.091547	132.248863
10054		-3.509109	-8.581196	3.323592	-0.070381	0.051965	0.139305	-0.827881	0.273682	0.036133	-68.533194	21.179639	132.255140
10055		-3.516676	-8.570284	3.362888	-0.073462	0.069333	0.162403	-0.828125	0.281982	0.025635	-68.574780	21.282508	132.256701
10056		-3.508313	-8.524678	3.417182	-0.092060	0.083794	0.180899	-0.832275	0.276855	0.027588	-68.628706	21.399446	132.253949
10057		-3.507288	-8.594303	3.388316	-0.125728	0.109239	0.200910	-0.832764	0.280518	0.036621	-68.705530	21.531187	132.241034
10058		-3.537692	-8.568726	3.369276	-0.160942	0.129796	0.225737	-0.828857	0.282959	0.034180	-68.805098	21.681602	132.221534
10059		-3.483920	-8.532627	3.405807	-0.207039	0.165184	0.252938	-0.839111	0.279785	0.029785	-68.936419	21.852660	132.187465
10060		-3.537486	-8.477343	3.474742	-0.252972	0.209109	0.284606	-0.820801	0.283691	0.028320	-69.101349	22.050742	132.134454
10061		-3.599052	-8.552328	3.308091	-0.322821	0.260868	0.305328	-0.816895	0.288330	0.033936	-69.316205	22.269133	132.055365
10062		-3.709114	-8.641611	3.143653	-0.363598	0.277344	0.329110	-0.823730	0.289551	0.035156	-69.556925	22.504445	131.970740
10063		-3.686039	-8.672503	3.096371	-0.392918	0.283830	0.350163	-0.816162	0.284668	0.037354	-69.814826	22.750877	131.885712
10064		-3.538765	-9.005907	2.947518	-0.404796	0.293077	0.398953	-0.813721	0.288818	0.030762	-70.078628	23.026155	131.804216
10065		-3.401826	-9.065653	2.958141	-0.394168	0.329177	0.473997	-0.814941	0.303467	0.036865	-70.339291	23.347418	131.715932
10066		-3.624974	-8.840190	3.077304	-0.407551	0.365569	0.563529	-0.808105	0.305664	0.033691	-70.610126	23.724705	131.622952
10067		-3.659343	-8.847563	3.024100	-0.430441	0.414370	0.631053	-0.803955	0.304199	0.033691	-70.901486	24.146225	131.512842
10068		-3.589873	-8.972320	2.967425	-0.457320	0.438523	0.718463	-0.800781	0.318359	0.035400	-71.208937	24.620128	131.403299
10069		-3.868733	-9.050203	2.797110	-0.453105	0.457270	0.810842	-0.794189	0.313721	0.032227	-71.512885	25.146027	131.298077
10070		-3.885997	-9.403642	2.550915	-0.389591	0.467927	0.907900	-0.784912	0.323975	0.038086	-71.777439	25.727156	131.202341
10071		-3.961838	-9.234695	2.580834	-0.302481	0.475378	1.009843	-0.779785	0.323242	0.040771	-71.987290	26.363757	131.119264
10072		-4.226412	-9.218283	2.482627	-0.232944	0.472646	1.100466	-0.764893	0.333984	0.044189	-72.150872	27.049986	131.052804
10073		-4.230047	-9.150746	2.381778	-0.131969	0.462207	1.173062	-0.763184	0.335938	0.041992	-72.248533	27.772897	131.005050
10074		-4.353880	-8.918204	2.459008	-0.063640	0.460247	1.246423	-0.751465	0.339355	0.035889	-72.301127	28.536359	130.971448
10075		-4.481290	-8.893100	2.364832	-0.009678	0.449724	1.319163	-0.733154	0.354492	0.035156	-72.313087	29.336766	130.958316
10076		-4.552472	-8.866966	2.367754	0.039022	0.447756	1.399495	-0.726318	0.356201	0.025146	-72.289033	30.181550	130.962330
10077		-4.556449	-8.707074	2.577104	0.075430	0.442613	1.477561	-0.729492	0.364258	0.023438	-72.233634	31.067165	130.986359
10078		-4.576399	-8.470203	2.807351	0.086679	0.463147	1.565224	-0.718750	0.368408	0.019043	-72.168589	32.004996	131.016356
10079		-4.664840	-8.281211	2.825938	0.084109	0.489478	1.667371	-0.693848	0.374756	0.023438	-72.101063	33.002311	131.052449
10080		-4.778334	-8.169043	2.777446	0.070796	0.522940	1.777246	-0.685059	0.383057	0.018311	-72.039248	34.066148	131.091451
10081		-4.936710	-7.990693	2.920190	0.047540	0.545267	1.888069	-0.668945	0.394775	0.007813	-71.983590	35.193535	131.141565
10082		-5.129241	-7.999918	2.807676	0.013771	0.564084	1.997896	-0.657227	0.404541	0.010010	-71.939012	36.384758	131.204765
10083		-5.317298	-8.062064	2.818186	-0.008132	0.571304	2.113433	-0.641113	0.408447	-0.001465	-71.891690	37.639451	131.291211
10084		-5.407968	-7.988124	2.782033	-0.033941	0.575040	2.250897	-0.617676	0.416260	0.000977	-71.838383	38.970233	131.408987
10085		-5.556615	-7.906338	2.771358	-0.048901	0.593523	2.404226	-0.609131	0.420410	0.010254	-71.774089	40.387051	131.553656
10086		-5.713945	-7.786092	2.803848	-0.063392	0.636375	2.544967	-0.585693	0.426758	0.001221	-71.710456	41.888571	131.705937
10087		-6.062450	-7.689376	2.673243	-0.089003	0.680153	2.687194	-0.570068	0.441406	0.002441	-71.652444	43.474656	131.866812
10088		-6.246638	-7.643527	2.654127	-0.101365	0.719464	2.835756	-0.544189	0.446045	0.001709	-71.588462	45.148967	132.041835
10089		-6.574939	-7.505057	2.899264	-0.124597	0.785635	2.986274	-0.520996	0.449219	-0.002930	-71.537147	46.916482	132.212391
10090		-7.056701	-7.221534	2.959071	-0.164651	0.884056	3.106560	-0.493408	0.464355	-0.007568	-71.535140	48.767554	132.342610
10091		-7.479037	-7.343824	2.930907	-0.236633	0.987989	3.202980	-0.473633	0.468994	-0.005371	-71.614981	50.689536	132.415751
10092		-8.406163	-7.664304	3.132546	-0.266813	1.063388	3.278186	-0.450439	0.481689	-0.010498	-71.747650	52.666383	132.441719
10093		-9.038400	-7.877639	3.249289	-0.282847	1.125916	3.323786	-0.417480	0.482910	-0.008789	-71.930309	54.678962	132.416251
10094		-9.157161	-8.186572	3.374188	-0.257039	1.206411	3.364672	-0.393555	0.492920	-0.008789	-72.164489	56.728165	132.311240
10095		-8.912381	-8.120530	3.544229	-0.243391	1.321327	3.451905	-0.355225	0.492676	-0.003906	-72.489124	58.844479	132.092494
10096		-9.235057	-8.762825	3.354237	-0.177802	1.434275	3.566725	-0.324463	0.495850	-0.001465	-72.888813	61.042087	131.748593
10097		-9.720045	-8.977668	3.862398	-0.082360	1.569033	3.665839	-0.299316	0.502930	-0.003174	-73.404522	63.314993	131.219018
10098		-9.876056	-8.987924	4.699627	-0.063349	1.749400	3.758060	-0.270752	0.492432	-0.009033	-74.190080	65.664273	130.389074
10099		-10.342710	-10.699930	4.433058	0.105949	1.888400	3.861436	-0.244629	0.488037	-0.008789	-75.195829	68.086176	129.229767
10100		-11.278673	-10.844425	4.188951	0.542450	1.991108	3.964735	-0.201172	0.484863	-0.008301	-76.323513	70.570408	127.692643
10101		-10.730682	-11.028114	3.705692	0.856824	2.101905	3.925593	-0.173828	0.480957	-0.022217	-77.863167	73.034560	125.555657
10102		-8.962845	-9.532670	4.050320	0.881445	2.248710	3.846730	-0.149414	0.472168	-0.027344	-80.350544	75.444472	122.447018
10103		-6.934780	-8.877694	3.600604	0.762817	2.373641	3.925074	-0.106689	0.464355	-0.032227	-84.314896	77.859298	117.924512
10104		-6.886520	-8.671230	3.204583	0.709951	2.464178	4.031242	-0.080566	0.456543	-0.037842	-90.654911	80.234338	111.054193
10105		-5.160235	-10.154262	3.119076	0.832167	2.471124	3.949907	-0.057373	0.442383	-0.036865	-100.859080	82.356940	100.251324
10106		-4.617936	-7.237102	2.334823	0.919956	2.440010	3.522885	-0.020264	0.433594	-0.045654	-116.649481	83.836251	83.817470
10107		-1.818105	-4.775602	2.189176	1.035403	2.408858	3.232488	-0.009521	0.423828	-0.052246	-137.900641	84.490731	61.862328
10108		-6.505700	-9.625314	3.046752	1.339295	2.227352	2.823667	0.011230	0.412842	-0.065186	-158.042384	84.267517	40.854251
10109		-17.672358	-18.301793	7.397380	1.719573	1.489702	0.964085	0.002930	0.404297	-0.075439	-164.601436	83.638790	33.268018
10110		-11.636156	-13.513118	7.763374	1.818434	0.741124	-0.802768	-0.020508	0.394287	-0.097656	-160.847581	83.101699	35.997888
10111		-8.471399	-9.806013	7.021732	1.421380	0.046390	-2.304707	-0.054932	0.388672	-0.110107	-150.567826	82.536779	45.537645
10112		-6.441399	-8.256314	6.218667	0.904987	-0.460791	-3.410510	-0.110596	0.406982	-0.116455	-137.521679	81.601840	58.184275
10113		-5.313227	-7.501002	5.014048	0.535551	-0.800607	-4.183655	-0.165771	0.396484	-0.122314	-125.212699	80.102390	70.338858
10114		-3.734220	-6.545245	3.460035	0.377464	-1.077865	-4.612764	-0.228516	0.394775	-0.141113	-115.253526	78.124454	80.257117
10115		-1.782911	-5.004632	2.701715	0.331511	-1.192537	-4.709462	-0.295410	0.386475	-0.141357	-107.992902	75.867641	87.512033
10116		-0.678652	-4.009322	1.900161	0.339189	-1.212421	-4.580044	-0.363525	0.365234	-0.144287	-102.777408	73.519184	92.715375
10117		-0.348279	-4.379275	1.306063	0.440751	-1.167358	-4.261053	-0.420898	0.333496	-0.149658	-98.994182	71.250705	96.418941
10118		-0.966654	-5.248756	0.971000	0.661657	-1.080014	-3.872584	-0.483887	0.308105	-0.150635	-96.081884	69.130134	99.109540
10119		-1.474339	-5.909684	1.053383	0.889150	-0.997984	-3.582427	-0.547363	0.272705	-0.149658	-93.708171	67.137060	101.117999
10120		-2.060196	-6.605070	1.268569	1.082901	-0.935508	-3.466479	-0.603516	0.226807	-0.138916	-91.648228	65.175478	102.689893
10121		-2.857037	-7.243012	1.512271	1.235199	-0.895232	-3.523791	-0.648926	0.177979	-0.136230	-89.820242	63.166408	103.934281
10122		-3.562059	-7.679986	1.932790	1.299005	-0.882407	-3.674931	-0.693604	0.117676	-0.133057	-88.175095	61.048941	104.951411
10123		-4.296919	-7.901843	2.101311	1.292123	-0.895577	-3.857066	-0.730957	0.051025	-0.118652	-86.713084	58.821353	105.785076
10124		-4.689739	-7.827674	2.038217	1.238307	-0.944284	-4.030574	-0.741943	-0.011475	-0.096680	-85.389184	56.476200	106.509843
10125		-4.616587	-7.823515	1.871309	1.184986	-1.007653	-4.132729	-0.755127	-0.071289	-0.072754	-84.185587	54.068541	107.148011
10126		-4.748720	-7.965542	1.628372	1.140238	-1.070259	-4.132784	-0.764160	-0.134033	-0.057129	-83.063283	51.642594	107.733432
10127		-4.932610	-8.405894	1.691219	1.099152	-1.114266	-4.073264	-0.752441	-0.192871	-0.050293	-82.028879	49.248426	108.258082
10128		-5.218591	-9.116777	1.737307	1.091170	-1.138597	-3.997356	-0.749756	-0.256836	-0.041748	-81.050347	46.881983	108.729684
10129		-5.782021	-10.218286	1.703626	1.143526	-1.154538	-3.963138	-0.735107	-0.315674	-0.019287	-80.103194	44.536225	109.137431
10130		-6.219972	-10.901049	1.735210	1.271855	-1.162604	-3.959397	-0.712646	-0.387451	0.000732	-79.132847	42.179241	109.485500
10131		-6.512435	-11.399013	1.940739	1.426346	-1.168884	-3.930016	-0.671143	-0.438965	0.027344	-78.127089	39.842162	109.772651
10132		-7.028403	-11.789900	2.226573	1.575743	-1.177609	-3.875956	-0.611816	-0.483398	0.043701	-77.070518	37.522405	110.014169
10133		-7.560713	-12.046428	2.583313	1.687531	-1.195273	-3.819988	-0.542236	-0.492188	0.063721	-75.985513	35.236745	110.213162
10134		-8.217028	-12.461123	3.022844	1.731411	-1.240458	-3.765457	-0.475586	-0.485352	0.068359	-74.887885	32.963687	110.396360
10135		-9.170493	-13.371310	3.385044	1.742324	-1.311325	-3.742196	-0.417236	-0.465332	0.064453	-73.797033	30.698553	110.571716
10136		-10.271023	-14.239904	3.635429	1.772598	-1.411111	-3.785546	-0.385742	-0.429199	0.041504	-72.690592	28.382213	110.749844
10137		-11.214087	-14.608835	3.699004	1.832299	-1.550364	-3.886949	-0.360596	-0.385498	0.024414	-71.555369	25.992036	110.936497
10138		-11.644296	-14.392003	3.691894	1.884671	-1.708513	-3.981430	-0.352539	-0.356201	-0.009033	-70.386029	23.509968	111.142962
10139		-11.930258	-13.730135	3.425280	1.905092	-1.874691	-3.998977	-0.355225	-0.317139	-0.028809	-69.203931	20.990604	111.381762
10140		-11.793500	-12.842225	3.229417	1.835290	-2.015593	-3.921747	-0.370361	-0.309814	-0.058350	-68.055305	18.471134	111.660381
10141		-11.742476	-12.228409	2.929702	1.706356	-2.103542	-3.790751	-0.384033	-0.288818	-0.067871	-66.988260	16.005083	111.961595
10142		-11.774320	-11.469713	2.911938	1.497673	-2.128474	-3.642337	-0.408936	-0.290771	-0.094971	-66.050052	13.599322	112.264007
10143		-11.866486	-10.684686	3.047831	1.186648	-2.090508	-3.502152	-0.427490	-0.271973	-0.098877	-65.310641	11.279042	112.540077
10144		-11.890235	-10.021094	3.088240	0.841300	-2.024473	-3.374299	-0.453369	-0.275391	-0.110107	-64.782795	9.031669	112.785061
10145		-12.087662	-9.362532	3.117563	0.552860	-1.909788	-3.218832	-0.470703	-0.264648	-0.110107	-64.437747	6.897797	112.989310
10146		-12.693164	-8.843802	2.931062	0.383242	-1.792113	-3.027793	-0.485596	-0.274170	-0.107178	-64.197291	4.885011	113.168711
10147		-13.135697	-8.201853	2.599854	0.378185	-1.707391	-2.781689	-0.505127	-0.270508	-0.107910	-63.967663	3.025325	113.356946
10148		-13.627351	-7.374637	2.300166	0.495092	-1.666682	-2.484129	-0.531250	-0.276611	-0.111572	-63.672784	1.323335	113.590898
10149		-14.148830	-6.428107	1.967314	0.661010	-1.703423	-2.121504	-0.539063	-0.266602	-0.116211	-63.290800	-0.198742	113.926044
10150		-14.374205	-5.331862	1.453862	0.796624	-1.836159	-1.720054	-0.550049	-0.276367	-0.106445	-62.839769	-1.556209	114.422236
10151		-14.290843	-3.976982	0.895458	0.844539	-2.032217	-1.302539	-0.565430	-0.280273	-0.100342	-62.382075	-2.753243	115.117809
10152		-14.010356	-2.370390	0.420639	0.698284	-2.263182	-0.860226	-0.578613	-0.284912	-0.090820	-62.032693	-3.795074	116.041173
10153		-13.274266	-1.051863	-0.120495	0.327598	-2.446063	-0.410668	-0.593750	-0.281006	-0.079102	-61.928669	-4.659979	117.175513
10154		-12.657795	-0.525371	-0.956868	-0.175884	-2.533654	0.032499	-0.601563	-0.274170	-0.074219	-62.140717	-5.324384	118.475841
10155		-12.047296	-0.930062	-1.469820	-0.688214	-2.491778	0.415307	-0.607178	-0.268066	-0.060791	-62.669200	-5.773601	119.862402
10156		-11.577375	-2.226757	-1.940573	-1.088406	-2.318949	0.703016	-0.608398	-0.262695	-0.055420	-63.432697	-6.015712	121.241062
10157		-10.801967	-3.741077	-2.297345	-1.302213	-2.036074	0.893320	-0.618896	-0.253662	-0.046631	-64.314106	-6.068523	122.525500
10158		-9.210329	-3.956485	-2.664362	-1.313555	-1.698216	1.032625	-0.627441	-0.237061	-0.025879	-65.184910	-5.946421	123.668600
10159		-6.345180	-8.505461	-2.410187	-1.281164	-0.718522	2.307718	-0.625488	-0.224365	-0.021484	-66.007035	-4.910907	124.598447
10160		2.114205	-4.347291	-0.344992	-1.091301	-0.364394	2.225174	-0.621826	-0.212402	-0.019043	-66.685267	-3.824000	125.307664
10161		3.442061	-12.453642	1.043368	-1.747016	-0.218438	1.800083	-0.621582	-0.200928	-0.011230	-67.716930	-2.920083	125.828034
10162		5.503347	-6.765924	-0.028929	-2.420095	0.055662	1.929027	-0.621338	-0.185059	-0.005615	-69.118723	-1.877826	126.209644
10163		2.487861	-9.604023	-2.790495	-2.611707	0.416565	2.400337	-0.618652	-0.162842	-0.000977	-70.620524	-0.502609	126.463277
10164		-1.481612	-13.745053	-3.336544	-1.915797	0.589469	2.778182	-0.616699	-0.155029	0.002197	-71.716738	1.115615	126.661748
10165		-3.459701	-15.482338	-2.506654	-1.067961	0.497867	2.858594	-0.611328	-0.145508	0.011230	-72.320658	2.763523	126.900464
10166		-2.658016	-13.717083	-0.974404	-0.428479	0.395283	2.846497	-0.598877	-0.131592	0.010742	-72.548822	4.389697	127.181536
10167		-1.759401	-12.135702	-0.160656	-0.177151	0.545779	2.885014	-0.586914	-0.120361	0.014648	-72.632052	6.062568	127.382834
10168		-2.998248	-14.217607	1.803338	0.112718	0.781370	2.986524	-0.584473	-0.107910	0.004883	-72.557206	7.832362	127.472330
10169		-7.089181	-12.967560	5.054913	0.578122	0.707978	2.997103	-0.574219	-0.097412	0.008057	-72.204934	9.593825	127.611374
10170		-7.197524	-10.210342	7.719322	0.399968	0.412691	2.714431	-0.577148	-0.096924	0.000488	-71.929149	11.149644	127.873702
10171		-5.772528	-9.286356	6.888911	0.153794	0.155344	2.502883	-0.565674	-0.086426	0.010986	-71.764207	12.542031	128.248188
10172		-4.568758	-9.090491	5.580902	-0.043374	0.031233	2.349210	-0.560791	-0.076416	0.011475	-71.693434	13.829455	128.668483
10173		-4.701416	-9.615861	4.286600	-0.151834	0.080696	2.138660	-0.555176	-0.063965	0.015869	-71.691702	15.009294	129.025027
10174		-5.094285	-9.742716	4.439898	-0.209535	0.177686	1.899524	-0.549561	-0.055420	0.012695	-71.742568	16.078494	129.283503
10175		-7.634265	-11.206554	4.732269	-0.362311	0.278621	1.474471	-0.545410	-0.056396	0.006836	-71.915823	16.932939	129.404572
10176		-5.433993	-11.316225	2.032086	-0.280162	0.179573	1.128611	-0.545410	-0.044434	0.010498	-72.043230	17.583840	129.516088
10177		-5.919357	-12.413063	1.692100	-0.113495	0.229278	0.881581	-0.532227	-0.041504	0.017578	-72.097113	18.106859	129.552654
10178		-5.274227	-11.655954	1.305500	0.051619	0.142353	0.557732	-0.539307	-0.040771	0.022217	-72.059426	18.440330	129.578936
10179		-3.793402	-10.157576	2.189931	0.165254	0.108611	0.468251	-0.541748	-0.042725	0.018799	-71.955396	18.716716	129.608458
10180		-3.949494	-9.931883	2.363131	0.187246	0.093028	0.381752	-0.543945	-0.040771	0.013428	-71.841061	18.945565	129.631148
10181		-3.636205	-9.314533	2.732562	0.197642	0.079217	0.301438	-0.535156	-0.043457	0.016113	-71.722641	19.125787	129.647214
10182		-3.567948	-9.056572	2.951788	0.163838	0.066050	0.256561	-0.532227	-0.034424	0.008789	-71.624053	19.281631	129.662528
10183		-3.527903	-9.221485	2.756369	0.127498	0.063750	0.211721	-0.530029	-0.047607	0.015869	-71.548262	19.410230	129.670979
10184		-3.629343	-9.221736	2.725942	0.102052	0.039968	0.181924	-0.540771	-0.041992	0.009521	-71.484650	19.520754	129.687409
10185		-3.533363	-9.169095	2.715274	0.087383	0.022418	0.156537	-0.539307	-0.035645	0.013184	-71.427300	19.611826	129.709338
10186		-3.435668	-9.002558	2.812371	0.081801	0.019114	0.138704	-0.523926	-0.037842	0.008301	-71.373964	19.695053	129.729644
10187		-3.477281	-8.863521	2.952357	0.065958	0.013511	0.119857	-0.535889	-0.038574	0.015869	-71.329439	19.764542	129.749769
10188		-3.403826	-8.797326	2.964382	0.049187	0.008804	0.103511	-0.524414	-0.045654	0.008057	-71.295012	19.826754	129.769303
10189		-3.619246	-9.040451	2.899509	0.014718	0.010588	0.083980	-0.536865	-0.035156	0.015625	-71.281581	19.876216	129.784200
10190		-3.617112	-9.013229	2.846022	-0.003899	-0.003991	0.048969	-0.521240	-0.037109	0.005127	-71.278646	19.906476	129.800496
10191		-3.376646	-8.772348	2.959294	-0.013676	-0.005638	0.032181	-0.523438	-0.039063	0.017578	-71.281724	19.924844	129.814641
10192		-3.426085	-8.709323	2.979491	-0.015665	0.001784	0.027486	-0.532227	-0.036377	0.008789	-71.288097	19.944518	129.823401
10193		-3.394873	-8.672329	2.944677	-0.010988	0.009614	0.020069	-0.529785	-0.035889	0.011963	-71.293439	19.959118	129.826371
10194		-3.424461	-8.687016	2.899675	0.006287	0.011515	0.013168	-0.537842	-0.035400	0.008057	-71.290102	19.972816	129.826713
10195		-3.442069	-8.720638	2.882379	0.025272	0.010207	0.011838	-0.522949	-0.035156	0.012695	-71.275333	19.983059	129.827734
10196		-3.372953	-8.690099	2.898289	0.050816	0.018323	0.005536	-0.527832	-0.041748	0.010986	-71.248340	19.993876	129.822656
10197		-3.402783	-8.670995	2.928196	0.062464	0.016790	0.004306	-0.531006	-0.035400	0.013672	-71.214064	20.001245	129.818408
10198		-3.451367	-8.689357	2.916929	0.080919	0.027381	0.000444	-0.530273	-0.040771	0.002930	-71.171955	20.010981	129.807109
10199		-3.355506	-8.562614	2.995283	0.100041	0.023997	-0.007177	-0.528564	-0.038086	0.012939	-71.118343	20.013464	129.796452
10200		-3.423049	-8.701391	2.906541	0.111270	0.035725	-0.009769	-0.529541	-0.034180	0.011475	-71.061181	20.019237	129.778334
10201		-3.476421	-8.808972	2.813460	0.134328	0.036907	-0.023101	-0.534912	-0.041016	0.010498	-70.991552	20.015519	129.757080
10202		-3.404828	-8.776462	2.838314	0.168158	0.049241	-0.035018	-0.521484	-0.044434	0.008789	-70.906193	20.010193	129.726150
10203		-3.395933	-8.715339	2.868109	0.198644	0.070744	-0.043907	-0.531250	-0.039795	0.006592	-70.807805	20.001629	129.681234
10204		-3.250401	-8.565308	2.970954	0.223122	0.098623	-0.056022	-0.536621	-0.041504	0.011230	-70.702141	19.994366	129.617624
10205		-3.078026	-8.268014	3.100275	0.272334	0.144649	-0.059586	-0.529785	-0.047852	0.004395	-70.577152	19.991525	129.526996
10206		-3.240098	-8.491463	3.047843	0.328534	0.189141	-0.045746	-0.531982	-0.042480	0.006348	-70.428186	20.007372	129.413406
10207		-3.398725	-8.613791	2.934528	0.381232	0.188236	-0.048943	-0.525879	-0.044189	0.008545	-70.248660	20.019123	129.299907
10208		-3.390325	-8.633985	3.116020	0.428259	0.185435	-0.045142	-0.526367	-0.041992	0.004883	-70.041827	20.035237	129.188634
10209		-3.564935	-8.763009	3.212987	0.437577	0.140660	-0.048422	-0.531494	-0.040283	-0.000244	-69.820662	20.038673	129.102572
10210		-3.557330	-8.700154	3.410639	0.410643	0.099837	-0.049808	-0.524170	-0.045898	0.001221	-69.607472	20.036065	129.039380
10211		-3.512974	-8.799642	3.280688	0.324465	0.052481	-0.048570	-0.526123	-0.049805	-0.000732	-69.433849	20.022324	129.003696
10212		-3.517033	-8.764662	3.326595	0.279423	0.032438	-0.045073	-0.525146	-0.045898	-0.003906	-69.282311	20.009017	128.979963
10213		-3.453382	-8.705261	3.357304	0.223109	0.025416	-0.040787	-0.528564	-0.045166	0.001465	-69.160915	19.994119	128.961322
10214		-3.421511	-8.633315	3.384488	0.186811	0.019031	-0.037736	-0.531006	-0.050049	0.001709	-69.059293	19.982100	128.946753
10215		-3.346879	-8.509572	3.469831	0.152368	0.002497	-0.032175	-0.524902	-0.052979	-0.000977	-68.973341	19.967170	128.942984
10216		-3.355577	-8.527577	3.362753	0.135674	-0.014127	-0.025060	-0.526367	-0.042480	-0.006592	-68.893625	19.955139	128.950015
10217		-3.440832	-8.718782	3.195008	0.134355	-0.022618	-0.016093	-0.526123	-0.043945	-0.007080	-68.811929	19.943622	128.964015
10218		-3.364577	-8.675480	3.268444	0.145375	-0.026426	-0.007502	-0.522949	-0.051758	-0.004883	-68.722971	19.938398	128.981863
10219		-3.329845	-8.550795	3.281509	0.156513	-0.025459	-0.002113	-0.525146	-0.048340	-0.005615	-68.626989	19.933710	129.000536
10220		-3.313379	-8.553921	3.371621	0.178434	-0.020701	0.008249	-0.523193	-0.054932	-0.005371	-68.519019	19.938024	129.018612
10221		-3.363358	-8.448129	3.473229	0.178144	-0.028713	0.015936	-0.528320	-0.050537	-0.003906	-68.408642	19.942206	129.043149
10222		-3.302511	-8.473728	3.464700	0.175845	-0.037825	0.014548	-0.536133	-0.051270	-0.008301	-68.298347	19.946187	129.072355
10223		-3.262418	-8.418186	3.517002	0.167878	-0.039695	0.029198	-0.531250	-0.058105	-0.004639	-68.190698	19.955006	129.106124
10224		-3.162085	-8.268424	3.669049	0.156976	-0.055425	0.042968	-0.526367	-0.057617	-0.008545	-68.085583	19.970234	129.151754
10225		-3.277615	-8.471857	3.486054	0.136935	-0.062562	0.064647	-0.532715	-0.053711	-0.011963	-67.988452	19.992874	129.206576
10226		-3.326541	-8.481783	3.507494	0.138134	-0.054235	0.074176	-0.527100	-0.051025	-0.008057	-67.891835	20.024769	129.258751
10227		-3.338665	-8.573987	3.416680	0.137372	-0.052337	0.084521	-0.525635	-0.049316	-0.010498	-67.794777	20.059991	129.312471
10228		-3.364892	-8.569841	3.457976	0.140272	-0.043661	0.095352	-0.530029	-0.054932	-0.013428	-67.697191	20.105237	129.363699
10229		-3.249413	-8.414921	3.578350	0.124146	-0.032573	0.105488	-0.528320	-0.054932	-0.009033	-67.609745	20.155708	129.411283
10230		-3.231528	-8.310281	3.790807	0.082100	-0.030364	0.122887	-0.519043	-0.057861	-0.011475	-67.545712	20.218291	129.461590
10231		-3.227051	-8.395683	3.688065	0.026547	-0.006897	0.141071	-0.527344	-0.046631	-0.013672	-67.516176	20.293129	129.503142
10232		-3.333491	-8.350044	3.839047	-0.034429	0.016565	0.160484	-0.525391	-0.044678	-0.003906	-67.524867	20.385833	129.535862
10233		-3.348840	-8.511327	3.640823	-0.100607	0.035830	0.180433	-0.530029	-0.050049	-0.007080	-67.573275	20.490875	129.562484
10234		-3.663349	-8.786147	3.464287	-0.155877	0.072307	0.187808	-0.520020	-0.045898	-0.008057	-67.660286	20.610255	129.569925
10235		-3.460688	-8.548921	3.550665	-0.192540	0.107502	0.182631	-0.519043	-0.049072	-0.003174	-67.775525	20.732107	129.556153
10236		-3.500708	-8.633746	3.546494	-0.238999	0.142507	0.203852	-0.523438	-0.039063	-0.004883	-67.923149	20.875194	129.526952
10237		-3.566292	-8.683673	3.481778	-0.288768	0.170912	0.227429	-0.524170	-0.050049	-0.006348	-68.103058	21.034380	129.486699
10238		-3.545110	-8.544308	3.565340	-0.340536	0.217374	0.226406	-0.523438	-0.046143	-0.005859	-68.322912	21.205204	129.418919
10239		-3.523351	-8.765923	3.361407	-0.405917	0.254791	0.245158	-0.519287	-0.046387	0.000488	-68.586652	21.391193	129.333282
