// General information: 
//  MT Manager version: 2022.2.0 
//  XDA version: 2022.2.0 build 7381 rev 124627 built on 2023-07-19
// Device information: 
//  DeviceId: 00B4BCF6
//  ProductCode: MTW2-3A7G6
//  Firmware Version: 4.6.0
//  Hardware Version: 2.0.0
// Device settings: 
//  Filter Profile: human(46.1)
//  Option Flags: Orientation Smoother Disabled, Position/Velocity Smoother Disabled, Continuous Zero Rotation Update Disabled, AHS Disabled, ICC Disabled
// Coordinate system: ENU
PacketCounter	SampleTimeFine	Acc_X	Acc_Y	Acc_Z	Gyr_X	Gyr_Y	Gyr_Z	Mag_X	Mag_Y	Mag_Z	Roll	Pitch	Yaw
46213		-1.300840	9.628912	1.142634	-0.008308	0.008663	-0.000947	-0.772217	-0.934814	0.147217	83.412561	7.520432	94.336621
46214		-1.295868	9.627069	1.109066	-0.003708	0.001859	-0.003983	-0.775879	-0.935059	0.137695	83.410996	7.518833	94.334230
46215		-1.284555	9.618709	1.129282	-0.007287	0.005340	-0.004836	-0.771484	-0.931396	0.139893	83.407317	7.517898	94.334525
46216		-1.283948	9.647508	1.111123	-0.007287	0.005340	-0.004837	-0.772461	-0.941650	0.142090	83.403956	7.517014	94.334076
46217		-1.276755	9.669833	1.146596	-0.003369	0.004386	-0.003187	-0.769531	-0.938721	0.139893	83.402443	7.515143	94.334158
46218		-1.285992	9.618351	1.130693	-0.004647	0.004465	-0.005558	-0.772217	-0.936768	0.146240	83.400522	7.514612	94.333159
46219		-1.256668	9.628963	1.117547	-0.002138	0.007420	-0.006271	-0.772705	-0.940186	0.148193	83.399944	7.514727	94.333866
46220		-1.280688	9.645351	1.078408	-0.005876	0.001431	-0.002476	-0.776367	-0.939453	0.146973	83.397118	7.512242	94.331330
46221		-1.273338	9.667686	1.113965	-0.006007	0.005261	-0.002466	-0.769775	-0.934570	0.143066	83.394259	7.510001	94.330123
46222		-1.269754	9.636913	1.098878	0.000032	0.007849	-0.007779	-0.767090	-0.941162	0.146240	83.395253	7.510957	94.330919
46223		-1.276831	9.609579	1.151943	-0.005665	0.002336	-0.004810	-0.770264	-0.935791	0.148926	83.392318	7.509945	94.327851
46224		-1.264467	9.630158	1.153349	-0.004646	0.004466	-0.005560	-0.771240	-0.937988	0.146484	83.390398	7.509415	94.326853
46225		-1.288556	9.646541	1.114178	-0.002687	0.003989	-0.004734	-0.774170	-0.939209	0.137695	83.389341	7.508400	94.323962
46226		-1.285039	9.615765	1.099029	-0.001325	0.003193	-0.007827	-0.764404	-0.941406	0.145508	83.389209	7.509076	94.322082
46227		-1.265109	9.658811	1.135119	-0.001879	0.005213	-0.003150	-0.769043	-0.942383	0.143311	83.388619	7.507342	94.322265
46228		-1.295644	9.647971	1.148679	-0.002814	0.002367	-0.007866	-0.770020	-0.931885	0.146729	83.387571	7.507986	94.319909
46229		-1.279218	9.637893	1.134590	-0.003969	0.009520	-0.003967	-0.774414	-0.936035	0.141846	83.386164	7.506933	94.321113
46230		-1.274585	9.636079	1.100594	0.000033	0.007851	-0.007780	-0.774414	-0.934082	0.144043	83.387159	7.507890	94.321910
46231		-1.293518	9.616984	1.133728	-0.002005	0.003592	-0.006282	-0.771729	-0.943115	0.146729	83.386386	7.507647	94.320957
46232		-1.268356	9.658309	1.135768	-0.001667	0.006119	-0.005485	-0.766357	-0.927979	0.151367	83.386297	7.507183	94.320912
46233		-1.281915	9.637494	1.134934	-0.002474	0.004895	-0.007070	-0.775391	-0.938477	0.139160	83.385445	7.507561	94.317551
46234		-1.270815	9.629148	1.154803	-0.001667	0.006119	-0.005485	-0.772705	-0.930176	0.146973	83.385356	7.507098	94.317506
46235		-1.266341	9.627320	1.120780	-0.001243	0.007931	-0.010154	-0.770508	-0.940430	0.148926	83.385314	7.509339	94.318699
46236		-1.267152	9.627205	1.120849	-0.001534	0.002289	-0.005495	-0.775146	-0.943115	0.141846	83.385014	7.508628	94.316455
46237		-1.296661	9.645294	1.115569	-0.002605	0.008726	-0.007062	-0.770020	-0.941895	0.138916	83.384297	7.509299	94.317482
46238		-1.285788	9.636957	1.135117	0.004977	0.003578	-0.010018	-0.774414	-0.936035	0.143555	83.387785	7.511248	94.315677
46239		-1.286593	9.636885	1.134818	-0.000178	0.006946	-0.005448	-0.767578	-0.935547	0.140381	83.388280	7.510863	94.317311
46240		-1.274460	9.657510	1.135732	-0.000302	0.005325	-0.008580	-0.778320	-0.939209	0.143311	83.388887	7.512108	94.316605
46241		-1.282788	9.634982	1.100667	-0.000514	0.004419	-0.006245	-0.773193	-0.950439	0.144531	83.389009	7.511965	94.316541
46242		-1.260032	9.618420	1.140056	0.001187	0.006153	-0.008541	-0.773926	-0.933594	0.144287	83.390531	7.513243	94.316313
46243		-1.289698	9.636501	1.134552	-0.000984	0.005723	-0.007034	-0.774414	-0.938232	0.148438	83.390505	7.513693	94.316180
46244		-1.285142	9.634692	1.100458	0.000168	0.004022	-0.007792	-0.768066	-0.934570	0.149658	83.391290	7.514404	94.314778
46245		-1.278391	9.657031	1.135383	0.000372	0.010381	-0.006987	-0.771729	-0.935791	0.140625	83.392490	7.515064	94.314885
46246		-1.274919	9.626284	1.119954	0.000638	0.002719	-0.007004	-0.771729	-0.938477	0.143555	83.393454	7.515241	94.312787
46247		-1.287405	9.634432	1.100091	0.000506	0.006550	-0.006996	-0.770996	-0.947021	0.145752	83.394320	7.515683	94.313723
46248		-1.276298	9.626124	1.119755	-0.000044	0.003116	-0.005458	-0.774170	-0.938965	0.147461	83.394936	7.515006	94.311957
46249		-1.275916	9.654989	1.100945	-0.000300	0.005326	-0.008582	-0.769775	-0.938232	0.139893	83.395297	7.516339	94.310528
46250		-1.263865	9.675601	1.101991	-0.002471	0.004896	-0.007075	-0.771973	-0.931396	0.141357	83.394642	7.516699	94.309676
46251		-1.278525	9.625815	1.119870	-0.000513	0.004420	-0.006247	-0.782471	-0.943115	0.142334	83.394758	7.516553	94.309924
46252		-1.290983	9.633958	1.100050	0.000506	0.006551	-0.006997	-0.764160	-0.939453	0.153564	83.395933	7.516978	94.310027
46253		-1.267067	9.646384	1.120633	0.000976	0.005248	-0.006208	-0.770508	-0.930176	0.150391	83.397075	7.516902	94.308213
46254		-1.279332	9.654538	1.100935	-0.003366	0.004386	-0.003194	-0.774902	-0.942139	0.140869	83.395903	7.515020	94.307325
46255		-1.280893	9.625515	1.119746	0.001446	0.003945	-0.005420	-0.771729	-0.938721	0.144775	83.397199	7.514338	94.305550
46256		-1.298537	9.635389	1.133915	0.000293	0.005645	-0.004662	-0.773682	-0.931885	0.138916	83.398206	7.513375	94.305288
46257		-1.286307	9.656033	1.134934	-0.002469	0.004896	-0.007076	-0.773926	-0.938477	0.136475	83.397250	7.513700	94.305588
46258		-1.282675	9.625268	1.119829	-0.002683	0.003989	-0.004741	-0.771729	-0.936279	0.138428	83.396426	7.512673	94.304370
46259		-1.287525	9.655829	1.135285	-0.002133	0.007424	-0.006280	-0.765869	-0.936035	0.148682	83.395776	7.512765	94.308149
46260		-1.295639	9.633281	1.100501	-0.004506	0.000634	-0.005578	-0.766846	-0.940674	0.142090	83.393648	7.511993	94.304950
46261		-1.283245	9.653933	1.101680	-0.000389	0.006042	-0.003116	-0.777100	-0.939697	0.139160	83.394068	7.510318	94.303536
46262		-1.313634	9.643050	1.115113	-0.003969	0.009520	-0.003976	-0.773193	-0.935059	0.139648	83.392928	7.509219	94.305544
46263		-1.260734	9.637308	1.141583	-0.003487	0.002765	-0.006328	-0.776855	-0.934082	0.140625	83.391193	7.508976	94.306156
46264		-1.256018	9.635511	1.107665	-0.000510	0.004422	-0.006249	-0.767334	-0.931885	0.145020	83.391633	7.508835	94.305087
46265		-1.279120	9.647028	1.156155	-0.003151	0.005293	-0.005531	-0.770996	-0.936279	0.145752	83.390369	7.508273	94.304959
46266		-1.291492	9.655146	1.136589	-0.001998	0.003594	-0.006289	-0.781494	-0.934814	0.145264	83.389894	7.508100	94.303411
46267		-1.295268	9.601963	1.086406	-0.002682	0.003990	-0.004742	-0.775879	-0.948242	0.148193	83.388848	7.506953	94.302356
46268		-1.292665	9.654950	1.136925	-0.002132	0.007425	-0.006281	-0.769287	-0.938477	0.143311	83.388584	7.507029	94.303009
46269		-1.287909	9.653153	1.103078	-0.004303	0.006993	-0.004775	-0.774414	-0.941406	0.145020	83.386813	7.506329	94.303177
46270		-1.289423	9.624101	1.122103	-0.003030	0.006914	-0.002399	-0.775391	-0.933594	0.145264	83.386030	7.504161	94.303795
46271		-1.277225	9.644737	1.123275	-0.002251	0.005806	-0.009415	-0.772705	-0.939453	0.146729	83.385318	7.505864	94.303413
46272		-1.278008	9.644611	1.123464	-0.003150	0.005294	-0.005533	-0.769775	-0.930664	0.149902	83.384317	7.505372	94.302892
46273		-1.278628	9.644507	1.123655	-0.001996	0.003594	-0.006290	-0.762207	-0.939209	0.140137	83.383685	7.505171	94.299231
46274		-1.292037	9.623666	1.122829	-0.002680	0.003990	-0.004744	-0.779541	-0.938232	0.145752	83.382862	7.504144	94.298014
46275		-1.292629	9.623559	1.123064	-0.003619	0.006598	-0.006322	-0.769775	-0.934814	0.145752	83.381408	7.504263	94.298594
46276		-1.263346	9.634272	1.110108	-0.005106	0.005769	-0.006363	-0.771484	-0.931885	0.141357	83.379315	7.504276	94.298291
46277		-1.252269	9.625947	1.129999	0.000980	0.005252	-0.006210	-0.765381	-0.937012	0.142822	83.380431	7.504139	94.297556
46278		-1.270139	9.635729	1.144475	-0.005909	0.004545	-0.007950	-0.769531	-0.932373	0.146240	83.377772	7.504974	94.296444
46279		-1.282594	9.643831	1.124933	-0.000173	0.006952	-0.005453	-0.772705	-0.931885	0.139648	83.378377	7.504611	94.295790
46280		-1.296139	9.622988	1.123910	-0.001445	0.007032	-0.007830	-0.772949	-0.939453	0.135254	83.378463	7.505542	94.296114
46281		-1.297017	9.622863	1.123972	-0.001914	0.008336	-0.008620	-0.777832	-0.938477	0.143799	83.378003	7.507000	94.300283
46282		-1.285057	9.643506	1.124912	0.001666	0.004858	-0.007757	-0.775879	-0.932617	0.142822	83.379710	7.507746	94.299364
46283		-1.268571	9.633536	1.110531	-0.001191	0.004820	-0.004705	-0.770508	-0.936768	0.139404	83.379554	7.506624	94.299849
46284		-1.291773	9.645033	1.158725	0.003154	0.005688	-0.007717	-0.769043	-0.937012	0.146484	83.382175	7.507402	94.299409
46285		-1.274491	9.664009	1.125499	-0.001228	0.007941	-0.010168	-0.767578	-0.945557	0.148926	83.382174	7.509789	94.300096
46286		-1.288173	9.643149	1.124411	0.000982	0.005254	-0.006212	-0.773926	-0.938477	0.145020	83.383531	7.509681	94.299508
46287		-1.271750	9.633169	1.110081	-0.001308	0.003200	-0.007840	-0.772217	-0.936523	0.140137	83.383211	7.510491	94.296257
46288		-1.290695	9.613984	1.143162	-0.000506	0.004425	-0.006253	-0.765137	-0.940186	0.146240	83.383654	7.510352	94.295190
46289		-1.278583	9.634656	1.144108	0.000513	0.006558	-0.007002	-0.777344	-0.946289	0.142822	83.384574	7.510895	94.295146
46290		-1.291067	9.642777	1.124282	-0.000974	0.005729	-0.007043	-0.762207	-0.940674	0.144531	83.384839	7.511293	94.294774
46291		-1.275708	9.603822	1.128783	-0.000838	0.001897	-0.007050	-0.775879	-0.933594	0.148193	83.384626	7.511631	94.292271
46292		-1.275385	9.632695	1.110026	0.000180	0.004030	-0.007800	-0.769775	-0.932861	0.145264	83.385418	7.512347	94.290874
46293		-1.280577	9.663230	1.125279	-0.000288	0.005334	-0.008590	-0.773193	-0.947510	0.148926	83.385866	7.513489	94.289048
46294		-1.277167	9.632480	1.109842	0.002021	0.001937	-0.010103	-0.770020	-0.941406	0.138916	83.387536	7.515378	94.286296
46295		-1.278065	9.632386	1.109620	0.001668	0.004861	-0.007760	-0.765381	-0.931396	0.140869	83.388976	7.516290	94.285817
46296		-1.278837	9.632296	1.109519	-0.000974	0.005729	-0.007044	-0.773438	-0.937256	0.147217	83.389242	7.516689	94.285446
46297		-1.279576	9.632186	1.109617	-0.002461	0.004900	-0.007085	-0.769531	-0.938232	0.138428	83.388368	7.517057	94.284213
46298		-1.272989	9.654493	1.144885	-0.002930	0.006203	-0.007876	-0.770752	-0.934814	0.145264	83.387541	7.517959	94.284058
46299		-1.298380	9.641808	1.124169	-0.000287	0.005335	-0.008592	-0.768555	-0.943848	0.144531	83.387879	7.519251	94.284265
46300		-1.283067	9.602873	1.128516	0.000846	0.009088	-0.006207	-0.764404	-0.933594	0.141357	83.389447	7.519394	94.285878
46301		-1.276411	9.625230	1.163450	0.000652	0.002728	-0.007011	-0.774902	-0.931396	0.150391	83.390157	7.519743	94.283506
46302		-1.287741	9.662321	1.124917	-0.001659	0.006124	-0.005499	-0.772949	-0.930908	0.135742	83.390073	7.519288	94.283465
46303		-1.289545	9.633254	1.143609	0.001201	0.006166	-0.008552	-0.773438	-0.944092	0.140137	83.391373	7.520396	94.284119
46304		-1.303155	9.612392	1.142416	0.000515	0.006561	-0.007005	-0.767822	-0.934326	0.136475	83.392554	7.520826	94.284228
46305		-1.272888	9.652188	1.110284	0.000515	0.006561	-0.007006	-0.775391	-0.939697	0.143555	83.393372	7.521358	94.287145
46306		-1.273589	9.652104	1.110214	-0.000503	0.004427	-0.006256	-0.769287	-0.935059	0.136475	83.393816	7.521222	94.286079
46307		-1.268152	9.645473	1.163915	0.001889	0.005773	-0.010099	-0.773438	-0.934814	0.144775	83.395382	7.523372	94.287751
46308		-1.293288	9.632799	1.143218	-0.005537	0.003948	-0.001699	-0.770508	-0.942871	0.145508	83.392945	7.520610	94.286713
46309		-1.276628	9.622830	1.129287	-0.002927	0.006204	-0.007880	-0.767578	-0.942871	0.144287	83.391907	7.521540	94.286320
46310		-1.276321	9.651703	1.110560	0.000985	0.005258	-0.006215	-0.771484	-0.933350	0.143066	83.393266	7.521436	94.285734
46311		-1.314332	9.618261	1.088595	0.000185	0.004033	-0.007804	-0.770020	-0.936768	0.144287	83.393823	7.522230	94.284146
46312		-1.290548	9.630742	1.109448	-0.001989	0.003597	-0.006299	-0.768799	-0.941406	0.148193	83.393352	7.522064	94.282600
46313		-1.291173	9.630654	1.109484	-0.000170	0.006956	-0.005460	-0.778809	-0.934814	0.148438	83.393998	7.521729	94.281685
46314		-1.279029	9.651363	1.110402	0.000986	0.005258	-0.006216	-0.775391	-0.936768	0.140625	83.395357	7.521625	94.281098
46315		-1.297774	9.632175	1.143393	-0.001875	0.005215	-0.003164	-0.774902	-0.939453	0.150635	83.394891	7.519614	94.281852
46316		-1.281233	9.622235	1.129143	-0.000420	0.009170	-0.008590	-0.776123	-0.942383	0.142578	83.395718	7.521118	94.283354
46317		-1.281097	9.651096	1.110338	-0.000282	0.005338	-0.008596	-0.767578	-0.938965	0.142822	83.396151	7.522353	94.282698
46318		-1.311801	9.640059	1.123582	-0.001657	0.006126	-0.005503	-0.773193	-0.934570	0.146729	83.396068	7.521900	94.282658
46319		-1.265361	9.641038	1.096236	-0.002924	0.006205	-0.007883	-0.769043	-0.940918	0.143311	83.395037	7.522832	94.282015
46320		-1.301508	9.631641	1.143649	-0.001656	0.006126	-0.005503	-0.772217	-0.936768	0.145020	83.394954	7.522379	94.281975
46321		-1.272171	9.642485	1.130542	-0.001986	0.003597	-0.006300	-0.766602	-0.942871	0.141357	83.394259	7.522282	94.280394
46322		-1.301758	9.660406	1.125221	-0.003612	0.006599	-0.006337	-0.771973	-0.944336	0.143555	83.393083	7.522335	94.280569
46323		-1.286389	9.621477	1.129736	0.001207	0.006170	-0.008555	-0.775879	-0.940918	0.138916	83.394334	7.523838	94.281039
46324		-1.287113	9.621385	1.129697	-0.001517	0.002293	-0.005510	-0.771484	-0.938232	0.149170	83.394043	7.523136	94.278797
46325		-1.274788	9.642097	1.130904	-0.003032	0.006913	-0.002411	-0.772217	-0.939209	0.140625	83.393027	7.520977	94.280211
46326		-1.288049	9.621217	1.130062	-0.002315	0.001069	-0.007099	-0.773926	-0.944580	0.140625	83.392172	7.521099	94.277160
46327		-1.258853	9.632054	1.116981	-0.001436	0.007037	-0.007843	-0.773438	-0.932373	0.140137	83.391946	7.522126	94.279912
46328		-1.293934	9.651621	1.145625	-0.002673	0.003991	-0.004755	-0.770996	-0.937500	0.143066	83.391126	7.521107	94.278695
46329		-1.284568	9.619253	1.096444	-0.001985	0.003598	-0.006302	-0.772705	-0.936279	0.148193	83.390396	7.520888	94.278538
46330		-1.302443	9.628981	1.110828	-0.002124	0.007431	-0.006296	-0.765869	-0.933594	0.145264	83.390136	7.520973	94.279194
46331		-1.290551	9.649650	1.111960	-0.001076	0.004116	-0.010187	-0.776611	-0.928467	0.137695	83.390051	7.523053	94.275720
46332		-1.279717	9.641332	1.131864	-0.002453	0.004902	-0.007094	-0.764404	-0.936523	0.145996	83.389406	7.523425	94.274871
46333		-1.263204	9.631411	1.117615	0.000989	0.005262	-0.006218	-0.766846	-0.926514	0.141602	83.390524	7.523256	94.275046
46334		-1.268411	9.661916	1.133100	-0.005894	0.004543	-0.007971	-0.767090	-0.937500	0.143066	83.387872	7.524103	94.273933
46335		-1.289112	9.618564	1.097158	-0.000168	0.006959	-0.005463	-0.770752	-0.944580	0.138916	83.388477	7.523696	94.273895
46336		-1.295283	9.620106	1.131253	-0.002452	0.004903	-0.007095	-0.775146	-0.941650	0.148926	83.387832	7.524068	94.273046
46337		-1.266038	9.630971	1.118202	-0.002123	0.007432	-0.006298	-0.774902	-0.932617	0.145508	83.387332	7.524258	94.274568
46338		-1.295713	9.648866	1.112755	-0.001294	0.003206	-0.007850	-0.775391	-0.937012	0.143311	83.387216	7.524949	94.272695
46339		-1.297404	9.619768	1.131692	-0.004298	0.006993	-0.004794	-0.774170	-0.929688	0.137939	83.385502	7.523997	94.274036
46340		-1.279802	9.638839	1.098804	0.000521	0.006567	-0.007011	-0.780762	-0.936523	0.140869	83.386686	7.524431	94.274149
46341		-1.256052	9.651365	1.119671	-0.001982	0.003599	-0.006304	-0.770264	-0.944580	0.148438	83.385922	7.524041	94.276510
46342		-1.298468	9.648459	1.113076	0.000053	0.007872	-0.007803	-0.771240	-0.941406	0.146729	83.386929	7.525013	94.277320
46343		-1.275764	9.631991	1.152735	-0.003140	0.005296	-0.005550	-0.771973	-0.934326	0.147461	83.385787	7.524679	94.275179
46344		-1.288290	9.640056	1.133003	0.000415	0.004951	-0.010148	-0.770264	-0.945801	0.142334	83.386761	7.526793	94.274155
46345		-1.284559	9.609340	1.117664	-0.001185	0.004824	-0.004716	-0.768555	-0.934082	0.141602	83.386660	7.525885	94.273113
46346		-1.289643	9.639876	1.132998	-0.000495	0.004432	-0.006263	-0.774902	-0.937012	0.147949	83.387107	7.525753	94.272049
46347		-1.273230	9.629969	1.118666	0.000744	0.007480	-0.009351	-0.771729	-0.936768	0.144287	83.388288	7.527536	94.272269
46348		-1.297243	9.646230	1.079224	-0.005536	0.003944	-0.001708	-0.771240	-0.937744	0.150391	83.385851	7.524779	94.271228
46349		-1.291581	9.639568	1.133409	-0.002918	0.006208	-0.007891	-0.765381	-0.938721	0.151855	83.384907	7.525681	94.269548
46350		-1.257937	9.619827	1.105128	-0.002917	0.006208	-0.007891	-0.767090	-0.942871	0.145996	83.384086	7.526593	94.269397
46351		-1.293152	9.639314	1.133782	-0.001980	0.003600	-0.006306	-0.772949	-0.938477	0.145264	83.383520	7.526641	94.264251
46352		-1.276507	9.629406	1.119776	-0.004297	0.006993	-0.004798	-0.769775	-0.937256	0.151855	83.381995	7.525844	94.264756
46353		-1.277050	9.629305	1.120024	-0.002811	0.007826	-0.004755	-0.767822	-0.938965	0.147949	83.381287	7.525076	94.263605
46354		-1.294932	9.638989	1.134511	-0.003934	0.004072	-0.007143	-0.768311	-0.935303	0.148682	83.379730	7.525421	94.262276
46355		-1.272785	9.627452	1.086557	-0.004296	0.006993	-0.004798	-0.768311	-0.934326	0.143311	83.378107	7.524699	94.260038
46356		-1.266367	9.649747	1.121990	-0.003711	0.004984	-0.009482	-0.775146	-0.936279	0.138184	83.376726	7.526436	94.259076
46357		-1.292523	9.607989	1.120100	-0.003969	0.009523	-0.004001	-0.773682	-0.936523	0.145264	83.375313	7.525316	94.263150
46358		-1.280386	9.628722	1.121233	0.000993	0.005267	-0.006221	-0.776123	-0.931641	0.143799	83.376677	7.525215	94.262569
46359		-1.304414	9.644990	1.081658	-0.003137	0.005297	-0.005554	-0.773926	-0.934082	0.150391	83.375511	7.524562	94.262616
46360		-1.281654	9.628529	1.121440	-0.002119	0.007435	-0.006303	-0.772705	-0.927979	0.146973	83.375254	7.524651	94.263274
46361		-1.282297	9.628423	1.121611	-0.003137	0.005297	-0.005554	-0.763428	-0.937988	0.138184	83.374207	7.523951	94.260661
46362		-1.258604	9.640944	1.142726	-0.002914	0.006210	-0.007894	-0.768555	-0.937256	0.144775	83.373389	7.524864	94.260509
46363		-1.283632	9.628207	1.121941	-0.000714	0.003522	-0.003925	-0.783203	-0.940430	0.145996	83.373401	7.523531	94.259693
46364		-1.284384	9.628117	1.121856	0.001581	0.003260	-0.010906	-0.768311	-0.939941	0.138184	83.374910	7.525963	94.257647
46365		-1.285492	9.627993	1.121644	0.001440	0.007094	-0.010901	-0.768066	-0.937988	0.145020	83.376370	7.528614	94.260061
46366		-1.285355	9.656883	1.102853	-0.001650	0.006131	-0.005512	-0.770508	-0.935059	0.148438	83.376290	7.528166	94.260023
46367		-1.304248	9.637586	1.135754	0.000995	0.005269	-0.006222	-0.764648	-0.939941	0.148438	83.377532	7.528102	94.257740
46368		-1.280584	9.650154	1.156541	0.000200	0.004044	-0.007813	-0.777344	-0.941895	0.142090	83.378336	7.528826	94.256350
46369		-1.288438	9.627632	1.121369	-0.000491	0.004435	-0.006266	-0.780762	-0.937256	0.145752	83.378605	7.528801	94.254950
46370		-1.277419	9.619368	1.141202	-0.000817	0.001906	-0.007064	-0.772949	-0.933594	0.141113	83.378672	7.528957	94.252382
46371		-1.289795	9.627454	1.121336	0.000995	0.005269	-0.006223	-0.770752	-0.939697	0.144287	83.379833	7.528661	94.253521
46372		-1.285094	9.625753	1.087121	0.001584	0.003262	-0.010907	-0.766602	-0.939209	0.145508	83.381344	7.531095	94.251476
46373		-1.290548	9.656258	1.102261	0.000995	0.005269	-0.006223	-0.773926	-0.938232	0.144531	83.382524	7.531135	94.250269
46374		-1.267902	9.639823	1.141907	-0.002912	0.006211	-0.007898	-0.771973	-0.935547	0.139648	83.381707	7.532051	94.250118
46375		-1.263140	9.638105	1.107937	0.000202	0.004045	-0.007814	-0.770264	-0.933838	0.147217	83.382267	7.532737	94.250532
46376		-1.269566	9.639612	1.141839	0.001219	0.006183	-0.008564	-0.774658	-0.940430	0.135986	83.383809	7.534029	94.250321
46377		-1.289134	9.625251	1.086787	-0.000489	0.004436	-0.006268	-0.772705	-0.939453	0.148682	83.384004	7.533882	94.251242
46378		-1.278162	9.616987	1.106639	-0.001283	0.003211	-0.007859	-0.767578	-0.934326	0.149658	83.383894	7.534577	94.249371
46379		-1.296184	9.626649	1.120875	-0.000632	0.008270	-0.006264	-0.775146	-0.937012	0.144775	83.384494	7.534703	94.247781
46380		-1.279650	9.616793	1.106599	0.000203	0.004045	-0.007815	-0.775635	-0.940674	0.142090	83.385299	7.535428	94.246392
46381		-1.267725	9.637540	1.107616	0.000672	0.002741	-0.007022	-0.769775	-0.939941	0.140137	83.386065	7.535545	94.246044
46382		-1.285831	9.647196	1.121792	-0.000590	0.002820	-0.009407	-0.772949	-0.933105	0.150146	83.386310	7.537095	94.243846
46383		-1.269343	9.637331	1.107583	-0.000489	0.004436	-0.006269	-0.778320	-0.937988	0.147461	83.386601	7.536946	94.242631
46384		-1.282667	9.616406	1.106469	-0.000488	0.004437	-0.006269	-0.779297	-0.940674	0.145508	83.387053	7.536817	94.241570
46385		-1.287940	9.646925	1.121701	0.000997	0.005271	-0.006225	-0.777344	-0.936523	0.147949	83.388281	7.536539	94.241978
46386		-1.288645	9.646848	1.121551	0.000529	0.006576	-0.007019	-0.775635	-0.943115	0.139648	83.389470	7.536978	94.242095
46387		-1.289350	9.646772	1.121401	0.000997	0.005272	-0.006225	-0.767090	-0.946289	0.147705	83.390624	7.536801	94.243526
46388		-1.302744	9.625845	1.120177	0.000205	0.004046	-0.007817	-0.776611	-0.937988	0.139648	83.391430	7.537527	94.242138
46389		-1.273512	9.636835	1.107109	-0.001973	0.003602	-0.006314	-0.772217	-0.940430	0.145996	83.390740	7.537495	94.241632
46390		-1.279793	9.638340	1.141162	0.000673	0.002742	-0.007023	-0.770752	-0.941406	0.140381	83.391723	7.537683	94.239548
46391		-1.292138	9.646407	1.121330	-0.001648	0.006132	-0.005517	-0.773926	-0.935791	0.139893	83.391410	7.537343	94.240696
46392		-1.288128	9.615725	1.106048	-0.000487	0.004437	-0.006270	-0.769775	-0.938965	0.146729	83.391862	7.537215	94.239635
46393		-1.288853	9.615633	1.106007	0.000206	0.004047	-0.007818	-0.772949	-0.942871	0.143311	83.392457	7.537941	94.239329
46394		-1.294220	9.646133	1.121282	-0.000487	0.004437	-0.006271	-0.770752	-0.936279	0.144287	83.392910	7.537813	94.238268
46395		-1.277456	9.636316	1.107083	-0.000712	0.003523	-0.003930	-0.780762	-0.938477	0.136230	83.392976	7.536347	94.237765
46396		-1.278035	9.636228	1.107181	-0.002440	0.004907	-0.007110	-0.772217	-0.934570	0.136475	83.392337	7.536727	94.236918
46397		-1.278758	9.636128	1.107217	0.000675	0.002743	-0.007024	-0.773682	-0.945557	0.148193	83.392927	7.536788	94.241155
46398		-1.292063	9.615192	1.106094	-0.001648	0.006133	-0.005518	-0.775391	-0.943848	0.136719	83.392849	7.536344	94.241119
46399		-1.268352	9.627807	1.127068	-0.000486	0.004438	-0.006272	-0.770264	-0.936035	0.150391	83.393032	7.536336	94.242910
46400		-1.280689	9.635861	1.107309	-0.001971	0.003603	-0.006316	-0.774658	-0.941162	0.141602	83.392570	7.536179	94.241368
46401		-1.268664	9.656610	1.108613	-0.003132	0.005297	-0.005564	-0.774902	-0.939209	0.143066	83.391441	7.535703	94.240705
46402		-1.300244	9.616370	1.140690	-0.003924	0.004072	-0.007156	-0.766113	-0.940674	0.143799	83.389889	7.536054	94.239376
46403		-1.294234	9.643679	1.088202	-0.002196	0.002688	-0.003975	-0.769287	-0.941895	0.145752	83.389037	7.534614	94.238009
46404		-1.271532	9.627271	1.128060	-0.003375	0.007517	-0.008700	-0.773193	-0.940918	0.139404	83.388045	7.536072	94.238556
46405		-1.313089	9.653155	1.102818	-0.002906	0.006213	-0.007906	-0.773926	-0.942871	0.142822	83.386987	7.537122	94.239772
46406		-1.255637	9.617292	1.114400	-0.005681	0.007772	-0.001718	-0.769043	-0.939941	0.146484	83.384753	7.534623	94.240930
46407		-1.296768	9.643230	1.089160	-0.000485	0.004439	-0.006272	-0.777832	-0.933594	0.135742	83.385026	7.534604	94.240168
46408		-1.274101	9.626833	1.128899	-0.002437	0.004908	-0.007112	-0.766602	-0.933105	0.142334	83.384388	7.534986	94.239323
46409		-1.299039	9.614008	1.108209	-0.004148	0.003158	-0.004816	-0.774902	-0.937256	0.138428	83.382370	7.533842	94.240766
46410		-1.286904	9.634768	1.109617	-0.002663	0.003994	-0.004771	-0.772461	-0.939209	0.135254	83.381555	7.532831	94.239552
46411		-1.287566	9.634638	1.109974	-0.005874	0.004542	-0.007998	-0.766357	-0.933838	0.142822	83.378537	7.533694	94.243583
46412		-1.288347	9.634495	1.110313	-0.002437	0.004909	-0.007113	-0.767090	-0.933350	0.144531	83.377899	7.534076	94.242739
46413		-1.289012	9.634373	1.110592	-0.004615	0.004463	-0.005611	-0.770020	-0.941406	0.145752	83.375845	7.533626	94.239586
46414		-1.272283	9.624550	1.096631	-0.001646	0.006135	-0.005521	-0.774414	-0.941162	0.138672	83.375767	7.533183	94.239552
46415		-1.277621	9.655025	1.112130	-0.003598	0.006604	-0.006361	-0.766113	-0.939697	0.133789	83.374363	7.533348	94.241524
46416		-1.290823	9.634070	1.111121	-0.000855	0.007361	-0.003928	-0.777588	-0.934570	0.145752	83.374844	7.532080	94.242300
46417		-1.267144	9.646692	1.132200	-0.002757	0.002379	-0.007912	-0.769043	-0.936279	0.145996	83.373550	7.532758	94.242546
46418		-1.292257	9.633840	1.111449	-0.002903	0.006215	-0.007909	-0.768799	-0.935791	0.145508	83.372736	7.533680	94.242399
46419		-1.292970	9.633719	1.111665	-0.003130	0.005299	-0.005567	-0.774658	-0.937500	0.145996	83.371650	7.533242	94.239776
46420		-1.281871	9.625476	1.131672	-0.001499	0.002300	-0.005525	-0.764893	-0.936279	0.139160	83.371367	7.532548	94.237541
46421		-1.294126	9.633533	1.111936	-0.001645	0.006136	-0.005522	-0.764893	-0.937988	0.139160	83.371098	7.532155	94.237658
46422		-1.290150	9.602839	1.096775	-0.003224	0.003685	-0.008708	-0.779541	-0.940430	0.144043	83.369903	7.533365	94.236005
46423		-1.294516	9.662313	1.093725	-0.004519	0.006077	-0.002473	-0.768799	-0.948730	0.134766	83.367970	7.531226	94.238103
46424		-1.271618	9.645928	1.133690	-0.003129	0.005300	-0.005568	-0.779053	-0.932861	0.145752	83.366979	7.530755	94.237587
46425		-1.296480	9.633104	1.112912	-0.002807	0.007830	-0.004770	-0.771484	-0.943359	0.147949	83.366093	7.530037	94.242109
46426		-1.285379	9.624858	1.132948	-0.003128	0.005300	-0.005568	-0.770996	-0.942627	0.150391	83.365101	7.529566	94.241593
46427		-1.292876	9.602342	1.097919	-0.001176	0.004831	-0.004728	-0.775391	-0.945801	0.139893	83.365172	7.528720	94.238475
46428		-1.273800	9.645555	1.134413	-0.003823	0.005689	-0.004022	-0.770996	-0.939941	0.150146	83.363825	7.527395	94.238286
46429		-1.287054	9.624568	1.133510	-0.002900	0.006217	-0.007911	-0.768555	-0.935547	0.144775	83.362865	7.528411	94.238860
46430		-1.282215	9.622900	1.099534	0.000068	0.007890	-0.007819	-0.770264	-0.938477	0.139893	83.363880	7.529393	94.239680
46431		-1.287671	9.653366	1.114933	-0.003127	0.005300	-0.005570	-0.770996	-0.939209	0.148438	83.362702	7.528987	94.239128
46432		-1.305619	9.662960	1.129272	-0.001643	0.006137	-0.005524	-0.773682	-0.934814	0.142334	83.362625	7.528547	94.239096
46433		-1.259925	9.635329	1.120873	-0.002432	0.004912	-0.007117	-0.771240	-0.940674	0.148193	83.361894	7.528881	94.237956
46434		-1.302338	9.632177	1.114090	0.000069	0.007891	-0.007820	-0.780029	-0.931885	0.143066	83.362910	7.529864	94.238777
46435		-1.267151	9.636677	1.154868	-0.000479	0.004444	-0.006276	-0.774902	-0.937744	0.145264	83.363281	7.529559	94.238751
46436		-1.303759	9.631987	1.114077	-0.002110	0.007443	-0.006320	-0.775146	-0.932617	0.143311	83.363027	7.529658	94.239415
46437		-1.291916	9.652728	1.115543	-0.005866	0.004543	-0.008007	-0.777832	-0.935059	0.142334	83.360271	7.530346	94.239708
46438		-1.263660	9.634778	1.121410	0.000685	0.002751	-0.007028	-0.769043	-0.937744	0.146484	83.361260	7.530536	94.237631
46439		-1.298962	9.654072	1.149708	-0.000854	0.007363	-0.003931	-0.773926	-0.935059	0.133545	83.361620	7.529179	94.239087
46440		-1.293845	9.652448	1.115736	-0.002110	0.007443	-0.006321	-0.766357	-0.941162	0.146973	83.361367	7.529278	94.239751
46441		-1.307116	9.631478	1.114543	0.001006	0.005282	-0.006230	-0.763428	-0.931885	0.141113	83.362486	7.529278	94.240622
46442		-1.266155	9.634464	1.121290	-0.000478	0.004445	-0.006277	-0.775879	-0.932617	0.132080	83.362942	7.529154	94.239568
46443		-1.284190	9.644039	1.135588	-0.003593	0.006606	-0.006368	-0.771240	-0.937744	0.138916	83.361457	7.529191	94.242479
46444		-1.279115	9.642413	1.101605	0.001474	0.003977	-0.005435	-0.776123	-0.940430	0.144775	83.363004	7.528556	94.241214
46445		-1.268179	9.634175	1.121486	-0.003216	0.003688	-0.008714	-0.770752	-0.940430	0.144043	83.361609	7.529766	94.241858
46446		-1.280725	9.642183	1.101749	-0.000249	0.005363	-0.008621	-0.777100	-0.942871	0.136230	83.362245	7.531036	94.241176
46447		-1.282438	9.613041	1.120535	-0.003593	0.006606	-0.006369	-0.775635	-0.933105	0.145752	83.360811	7.531179	94.244851
46448		-1.287944	9.643497	1.135937	0.000539	0.006589	-0.007027	-0.772705	-0.945557	0.152832	83.362005	7.531623	94.244978
46449		-1.282932	9.641869	1.101924	-0.001960	0.003608	-0.006325	-0.772461	-0.938477	0.145264	83.361564	7.531408	94.242197
46450		-1.289372	9.643302	1.135974	0.000220	0.004058	-0.007826	-0.777344	-0.931641	0.141602	83.362378	7.532139	94.240819
46451		-1.272696	9.633533	1.121887	-0.003124	0.005301	-0.005574	-0.774902	-0.940430	0.150146	83.361259	7.531502	94.242115
46452		-1.283986	9.665529	1.171165	0.002572	0.010876	-0.008526	-0.780273	-0.936279	0.141846	83.363927	7.533083	94.244603
46453		-1.315873	9.630252	1.114827	-0.001960	0.003608	-0.006326	-0.770264	-0.936279	0.147949	83.363394	7.532756	94.245221
46454		-1.262362	9.654133	1.123039	-0.002278	0.001077	-0.007125	-0.764160	-0.936035	0.137939	83.362557	7.532890	94.242179
46455		-1.275688	9.633141	1.121853	0.001705	0.004897	-0.007780	-0.774658	-0.938721	0.147461	83.364134	7.533774	94.239268
46456		-1.276391	9.633056	1.121779	-0.001640	0.006139	-0.005529	-0.777344	-0.942871	0.139893	83.364058	7.533335	94.239238
46457		-1.288722	9.641100	1.101899	0.000541	0.006590	-0.007029	-0.780762	-0.937256	0.138428	83.365092	7.533740	94.242026
46458		-1.277770	9.632885	1.121677	-0.000475	0.004447	-0.006280	-0.772949	-0.938477	0.143555	83.365550	7.533617	94.240974
46459		-1.295739	9.642462	1.135857	-0.001172	0.004834	-0.004733	-0.769287	-0.932617	0.148438	83.365433	7.532508	94.244518
46460		-1.291693	9.611816	1.120413	0.001936	0.005816	-0.010124	-0.764893	-0.942627	0.142334	83.367342	7.534663	94.243995
46461		-1.284890	9.663148	1.136900	-0.002893	0.006219	-0.007921	-0.770996	-0.942383	0.142334	83.366446	7.535745	94.240516
46462		-1.280979	9.632474	1.121548	0.002086	0.001980	-0.010126	-0.765137	-0.944092	0.148193	83.368152	7.537648	94.237791
46463		-1.294339	9.611474	1.120293	-0.001640	0.006140	-0.005530	-0.770508	-0.941650	0.150879	83.367949	7.537486	94.235713
46464		-1.269938	9.653168	1.122796	-0.002892	0.006220	-0.007922	-0.773682	-0.942139	0.144531	83.367140	7.538414	94.235569
46465		-1.282287	9.661182	1.103097	-0.001490	0.002303	-0.005532	-0.772705	-0.932617	0.142822	83.366813	7.537809	94.232084
46466		-1.266421	9.622411	1.107726	-0.002107	0.007446	-0.006327	-0.769775	-0.944824	0.139404	83.366561	7.537912	94.232750
46467		-1.302837	9.612562	1.154844	-0.002424	0.004915	-0.007126	-0.776367	-0.940430	0.146484	83.365711	7.538362	94.233435
46468		-1.267786	9.622199	1.108008	-0.001489	0.002304	-0.005533	-0.772705	-0.937988	0.144775	83.365433	7.537673	94.231203
46469		-1.314845	9.649529	1.116430	0.001010	0.005287	-0.006234	-0.771484	-0.943115	0.140381	83.366715	7.537518	94.231435
46470		-1.281449	9.601124	1.106999	-0.006319	0.002705	-0.003330	-0.768555	-0.938721	0.143066	83.363720	7.535602	94.229580
46471		-1.286897	9.631566	1.122572	0.000075	0.007898	-0.007828	-0.771240	-0.943359	0.147949	83.364526	7.536749	94.231127
46472		-1.298395	9.668625	1.083984	-0.000473	0.004448	-0.006282	-0.764160	-0.940918	0.143555	83.364985	7.536628	94.230075
46473		-1.299992	9.639491	1.102731	-0.002423	0.004915	-0.007127	-0.765625	-0.931152	0.148682	83.364253	7.537261	94.226858
46474		-1.271679	9.621615	1.108612	-0.002423	0.004915	-0.007127	-0.771973	-0.933594	0.148682	83.363622	7.537652	94.226018
46475		-1.284068	9.629627	1.088846	-0.000940	0.005754	-0.007080	-0.768311	-0.936768	0.146484	83.363949	7.537980	94.221859
46476		-1.277940	9.651958	1.124114	-0.001488	0.002304	-0.005534	-0.766357	-0.940918	0.140381	83.363672	7.537291	94.219626
46477		-1.302564	9.639089	1.103216	-0.003035	0.006914	-0.002438	-0.772461	-0.930908	0.140869	83.362733	7.535318	94.219163
46478		-1.308927	9.640493	1.137456	-0.003206	0.003690	-0.008724	-0.778320	-0.935547	0.135254	83.361547	7.536536	94.217513
46479		-1.275691	9.592088	1.127984	-0.001171	0.004836	-0.004736	-0.770752	-0.932373	0.152588	83.361383	7.535342	94.221545
46480		-1.280302	9.651577	1.124698	-0.000939	0.005755	-0.007080	-0.769531	-0.941895	0.147217	83.361666	7.535762	94.221191
46481		-1.305185	9.638686	1.103637	-0.000471	0.004450	-0.006284	-0.768311	-0.940186	0.143799	83.362179	7.535639	94.216621
46482		-1.294241	9.630473	1.123502	-0.000939	0.005755	-0.007081	-0.767334	-0.941895	0.141113	83.362463	7.536059	94.216267
46483		-1.265995	9.612616	1.129286	-0.001722	0.004530	-0.008677	-0.771973	-0.940674	0.141357	83.362002	7.537536	94.214913
46484		-1.295872	9.630231	1.123702	-0.002421	0.004916	-0.007130	-0.777344	-0.940918	0.150146	83.361373	7.537928	94.214074
46485		-1.308211	9.638235	1.103993	-0.001954	0.003611	-0.006332	-0.771240	-0.941650	0.142334	83.360831	7.537753	94.213276
46486		-1.267190	9.641319	1.111122	-0.003970	0.009526	-0.004034	-0.772217	-0.935059	0.145264	83.359688	7.536689	94.215290
46487		-1.309355	9.638034	1.104392	-0.001953	0.003611	-0.006333	-0.775879	-0.941162	0.133301	83.359106	7.536553	94.214270
46488		-1.274241	9.642603	1.145563	-0.003903	0.004077	-0.007179	-0.770264	-0.935791	0.138428	83.357564	7.536918	94.212945
46489		-1.293336	9.628177	1.090699	-0.002104	0.007448	-0.006332	-0.775879	-0.936035	0.149170	83.356955	7.537043	94.218860
46490		-1.311365	9.637701	1.104915	-0.001169	0.004837	-0.004737	-0.766113	-0.937500	0.144043	83.357058	7.536069	94.218136
46491		-1.270207	9.640810	1.112090	-0.004834	0.003543	-0.003287	-0.772705	-0.932373	0.147217	83.354946	7.534159	94.215282
46492		-1.300804	9.629393	1.125185	-0.000388	0.009209	-0.008629	-0.773682	-0.938965	0.143311	83.355791	7.535689	94.216807
46493		-1.271645	9.640597	1.112292	-0.001952	0.003612	-0.006334	-0.778564	-0.945557	0.145508	83.355278	7.535424	94.215383
46494		-1.289734	9.650121	1.126416	0.001014	0.005292	-0.006237	-0.774902	-0.940186	0.139893	83.356652	7.535332	94.214819
46495		-1.273029	9.640421	1.112238	-0.001251	0.003226	-0.007882	-0.773682	-0.936768	0.142822	83.356379	7.536028	94.216239
46496		-1.303676	9.628989	1.125312	-0.003118	0.005303	-0.005585	-0.777100	-0.935791	0.156738	83.355393	7.535567	94.215726
46497		-1.291760	9.649810	1.126760	-0.003118	0.005303	-0.005585	-0.772217	-0.943848	0.139893	83.354475	7.534906	94.213990
46498		-1.286556	9.648212	1.092990	-0.003118	0.005303	-0.005585	-0.764404	-0.948242	0.148926	83.353489	7.534445	94.213477
46499		-1.281296	9.641480	1.147141	-0.004285	0.006995	-0.004836	-0.777344	-0.935791	0.144287	83.351816	7.534022	94.212985
46500		-1.276085	9.639892	1.113323	-0.001787	0.009981	-0.005536	-0.766602	-0.931641	0.142822	83.351945	7.533843	94.215160
46501		-1.305838	9.657517	1.107551	0.000700	0.002762	-0.007036	-0.774414	-0.939697	0.148193	83.352845	7.533915	94.213482
46502		-1.277384	9.639692	1.113558	-0.007249	0.005314	-0.004935	-0.780762	-0.935059	0.142822	83.349498	7.533084	94.213019
46503		-1.266412	9.631448	1.133815	-0.002569	0.008756	-0.007133	-0.768066	-0.931885	0.145996	83.349013	7.533520	94.216188
46504		-1.302845	9.626634	1.092994	-0.002802	0.007836	-0.004788	-0.775391	-0.930176	0.147461	83.348406	7.532772	94.217182
46505		-1.266873	9.660273	1.115553	-0.004050	0.007916	-0.007183	-0.776611	-0.942627	0.140625	83.347083	7.533191	94.216480
46506		-1.280021	9.639235	1.114494	-0.001167	0.004839	-0.004740	-0.770508	-0.937012	0.142578	83.347188	7.532217	94.215757
46507		-1.280723	9.639141	1.114496	-0.000232	0.005375	-0.008633	-0.780273	-0.936768	0.146729	83.347646	7.533519	94.217319
46508		-1.298733	9.648649	1.128684	-0.002568	0.005609	-0.001645	-0.761963	-0.937500	0.139160	83.347033	7.530834	94.217245
46509		-1.269338	9.659915	1.115858	-0.000232	0.005375	-0.008633	-0.773926	-0.942139	0.140137	83.347549	7.532133	94.216959
46510		-1.295099	9.617916	1.113592	-0.004912	0.001932	-0.006436	-0.766602	-0.942139	0.136963	83.345274	7.531931	94.214454
46511		-1.283316	9.638724	1.115118	-0.002567	0.008758	-0.007135	-0.776611	-0.941650	0.134521	83.344563	7.532798	94.218358
46512		-1.284083	9.638613	1.115193	-0.000932	0.005761	-0.007086	-0.769775	-0.935791	0.139160	83.344850	7.533220	94.218007
46513		-1.283890	9.667567	1.096600	-0.001633	0.006146	-0.005539	-0.773193	-0.943848	0.145264	83.344471	7.532816	94.222353
46514		-1.285316	9.638445	1.115228	0.000316	0.005681	-0.004691	-0.766602	-0.931641	0.146484	83.345488	7.531870	94.222116
46515		-1.274443	9.630244	1.135047	-0.000697	0.006683	-0.009433	-0.776855	-0.929932	0.139893	83.345925	7.533744	94.220289
46516		-1.292748	9.639705	1.149208	-0.002099	0.007452	-0.006338	-0.766113	-0.936768	0.146240	83.345678	7.533853	94.220959
46517		-1.287606	9.638141	1.115212	0.000704	0.002765	-0.007038	-0.776855	-0.937500	0.143799	83.346588	7.533943	94.219034
46518		-1.275869	9.658983	1.116470	-0.002566	0.008758	-0.007137	-0.776611	-0.938232	0.145752	83.346164	7.534593	94.220401
46519		-1.259910	9.620253	1.121165	-0.002647	0.003999	-0.004792	-0.770264	-0.937256	0.148193	83.345290	7.533435	94.220975
46520		-1.307027	9.647425	1.129574	-0.000150	0.006988	-0.005490	-0.770996	-0.929688	0.135986	83.346132	7.533031	94.221436
46521		-1.290188	9.637772	1.115416	-0.000463	0.004456	-0.006289	-0.770264	-0.939697	0.139648	83.346479	7.532852	94.220594
46522		-1.290025	9.666713	1.096934	-0.003894	0.004079	-0.007188	-0.774170	-0.944092	0.146240	83.344942	7.533221	94.219272
46523		-1.262296	9.619887	1.121624	-0.002882	0.003077	-0.002446	-0.773926	-0.934082	0.156494	83.343809	7.530945	94.218593
46524		-1.280369	9.629349	1.135967	-0.003345	0.007534	-0.008736	-0.767578	-0.947754	0.145508	83.342832	7.532424	94.219150
46525		-1.291918	9.666381	1.097631	-0.001944	0.003615	-0.006340	-0.773682	-0.938721	0.143311	83.342479	7.532369	94.213849
46526		-1.287595	9.635773	1.082290	0.000706	0.002766	-0.007039	-0.780273	-0.941162	0.139404	83.343480	7.532566	94.211782
46527		-1.282613	9.629030	1.136139	-0.001396	0.007069	-0.007888	-0.770996	-0.937012	0.135010	83.343420	7.533447	94.215646
46528		-1.294949	9.637021	1.116391	-0.003113	0.005306	-0.005592	-0.772461	-0.943359	0.143311	83.342436	7.532989	94.215134
46529		-1.271537	9.649766	1.137654	-0.000929	0.005763	-0.007089	-0.768799	-0.937744	0.138916	83.342490	7.533519	94.217229
46530		-1.307956	9.644906	1.096764	-0.003579	0.006612	-0.006392	-0.776855	-0.940430	0.147949	83.341330	7.533603	94.217414
46531		-1.267962	9.619040	1.122494	0.000554	0.006605	-0.007039	-0.778564	-0.937500	0.141357	83.342430	7.534068	94.218262
46532		-1.285253	9.657568	1.117954	-0.001476	0.002309	-0.005543	-0.763672	-0.934570	0.146484	83.342159	7.533383	94.216034
46533		-1.268439	9.647908	1.103975	-0.002563	0.008760	-0.007141	-0.782715	-0.943604	0.145996	83.341666	7.534016	94.216988
46534		-1.328066	9.654062	1.111233	-0.003348	0.004383	-0.003247	-0.774170	-0.933105	0.145264	83.340499	7.532163	94.216104
46535		-1.257909	9.639628	1.124194	-0.000461	0.004458	-0.006291	-0.765137	-0.935791	0.144287	83.340932	7.531852	94.217011
46536		-1.288588	9.628123	1.137068	-0.001239	0.003232	-0.007890	-0.763184	-0.941650	0.138672	83.340846	7.532563	94.215155
46537		-1.288422	9.657087	1.118457	0.000006	0.003152	-0.005493	-0.773193	-0.941406	0.144775	83.341331	7.532198	94.211259
46538		-1.277393	9.648899	1.138443	-0.003111	0.005306	-0.005594	-0.774658	-0.941162	0.143555	83.340348	7.531741	94.210747
46539		-1.297068	9.605426	1.102095	-0.002096	0.007455	-0.006343	-0.772217	-0.941162	0.145752	83.340010	7.531887	94.212311
46540		-1.285305	9.626281	1.103465	-0.002096	0.007455	-0.006343	-0.772949	-0.937256	0.143066	83.339764	7.531999	94.212983
46541		-1.291023	9.656682	1.118951	-0.001941	0.003616	-0.006343	-0.768555	-0.934570	0.144043	83.339247	7.531874	94.211569
46542		-1.286487	9.626103	1.103638	-0.000384	0.006068	-0.003147	-0.782959	-0.936768	0.150635	83.339905	7.530075	94.211659
46543		-1.304542	9.635555	1.117874	-0.003888	0.004081	-0.007194	-0.774658	-0.940186	0.144043	83.338402	7.530256	94.210174
46544		-1.287783	9.625894	1.103946	-0.000926	0.005766	-0.007092	-0.768799	-0.937500	0.138672	83.338693	7.530682	94.209826
46545		-1.281140	9.677269	1.120518	0.000556	0.006608	-0.007041	-0.776123	-0.936768	0.150879	83.339743	7.531194	94.211173
46546		-1.271726	9.616169	1.089791	-0.001940	0.003617	-0.006344	-0.772949	-0.942383	0.144043	83.339298	7.531052	94.209641
46547		-1.294944	9.656106	1.119390	-0.001940	0.003617	-0.006344	-0.772705	-0.931396	0.144531	83.338865	7.530865	94.207564
46548		-1.278978	9.617415	1.123921	0.000556	0.006609	-0.007042	-0.770264	-0.939941	0.140137	83.340069	7.531319	94.207703
46549		-1.278934	9.646368	1.105328	-0.002872	0.006230	-0.007944	-0.771729	-0.937256	0.149170	83.339164	7.532236	94.208123
46550		-1.297072	9.655805	1.119528	-0.000695	0.003536	-0.003947	-0.777832	-0.940674	0.148682	83.339447	7.530724	94.206706
46551		-1.274954	9.615706	1.090108	-0.001162	0.004843	-0.004746	-0.775635	-0.939941	0.138916	83.339609	7.529680	94.204818
46552		-1.310535	9.634686	1.118351	-0.001628	0.006150	-0.005546	-0.775146	-0.938965	0.144531	83.339540	7.529252	94.204794
46553		-1.269493	9.637958	1.125485	-0.000695	0.003537	-0.003947	-0.771729	-0.942627	0.146729	83.339679	7.527704	94.205804
46554		-1.281633	9.645979	1.105592	-0.000457	0.004460	-0.006294	-0.771484	-0.942871	0.138672	83.340147	7.527589	94.204760
46555		-1.299802	9.655404	1.119820	-0.003419	0.002775	-0.006397	-0.768311	-0.941895	0.145508	83.338654	7.527586	94.203404
46556		-1.283817	9.616711	1.124430	0.000558	0.006610	-0.007043	-0.772461	-0.941162	0.140381	83.339859	7.528040	94.203544
46557		-1.307101	9.656647	1.153851	-0.001627	0.006150	-0.005547	-0.765625	-0.937988	0.143311	83.339668	7.527778	94.203564
46558		-1.284291	9.645592	1.105889	-0.001938	0.003618	-0.006346	-0.774414	-0.944580	0.140381	83.339224	7.527637	94.202033
46559		-1.284964	9.645488	1.106012	-0.002093	0.007457	-0.006347	-0.776367	-0.943604	0.141602	83.338830	7.527925	94.203131
46560		-1.286440	9.616317	1.124799	-0.003108	0.005307	-0.005599	-0.781494	-0.931885	0.137207	83.337849	7.527471	94.202620
46561		-1.298738	9.624304	1.104974	0.000248	0.004079	-0.007843	-0.763672	-0.928955	0.138672	83.338490	7.528027	94.206007
46562		-1.304612	9.654698	1.120310	-0.000922	0.005768	-0.007096	-0.773438	-0.937256	0.147949	83.338783	7.528455	94.205661
46563		-1.270330	9.635570	1.092068	0.000403	0.010451	-0.007045	-0.773193	-0.939941	0.151123	83.340131	7.529161	94.206616
46564		-1.301073	9.623999	1.104890	-0.002712	0.002392	-0.007947	-0.770508	-0.936523	0.136230	83.339137	7.529849	94.204274
46565		-1.277870	9.636757	1.126295	-0.002869	0.006232	-0.007948	-0.770752	-0.940430	0.142334	83.338268	7.530821	94.204206
46566		-1.319367	9.662334	1.100610	0.000716	0.002773	-0.007044	-0.766113	-0.944824	0.140625	83.339275	7.531020	94.202144
46567		-1.279300	9.636563	1.126328	-0.001626	0.006151	-0.005549	-0.779785	-0.946533	0.142334	83.339048	7.530854	94.202061
46568		-1.297465	9.645985	1.140437	-0.000455	0.004462	-0.006297	-0.769531	-0.938965	0.148682	83.339518	7.530741	94.201019
46569		-1.309619	9.653988	1.120594	-0.002331	0.006534	-0.004002	-0.772217	-0.938477	0.147461	83.339043	7.529503	94.201813
46570		-1.292638	9.644388	1.106658	-0.001935	0.003619	-0.006349	-0.780518	-0.942627	0.144775	83.338600	7.529364	94.200283
46571		-1.280734	9.665281	1.108155	-0.003345	0.004383	-0.003254	-0.769775	-0.936768	0.150635	83.337419	7.527445	94.200162
46572		-1.282202	9.636115	1.126859	-0.000372	0.009227	-0.008647	-0.765869	-0.937500	0.145264	83.338274	7.528986	94.201698
46573		-1.282940	9.635985	1.127133	-0.007239	0.005309	-0.004960	-0.774170	-0.943604	0.145996	83.334981	7.528264	94.197778
46574		-1.301053	9.645369	1.141559	-0.001625	0.006152	-0.005550	-0.773193	-0.936768	0.147217	83.334914	7.527839	94.197756
46575		-1.266499	9.626284	1.113524	-0.002330	0.006534	-0.004003	-0.777832	-0.933594	0.142578	83.334482	7.526560	94.197515
46576		-1.308567	9.622789	1.106571	-0.003105	0.005308	-0.005603	-0.777100	-0.928711	0.142334	83.333502	7.526109	94.197004
46577		-1.285246	9.635587	1.127904	-0.000919	0.005771	-0.007098	-0.776855	-0.938965	0.140137	83.333734	7.526210	94.199065
46578		-1.297484	9.643574	1.108085	-0.002796	0.007841	-0.004804	-0.764893	-0.934082	0.149414	83.333130	7.525472	94.200063
46579		-1.268903	9.625904	1.114068	-0.001467	0.002313	-0.005550	-0.774414	-0.940918	0.143555	83.332832	7.524804	94.197024
46580		-1.281146	9.633902	1.094143	0.000562	0.006615	-0.007046	-0.773193	-0.931152	0.140625	83.334040	7.525260	94.197167
46581		-1.299375	9.643308	1.108179	-0.001624	0.006153	-0.005552	-0.770752	-0.943604	0.138916	83.333873	7.524760	94.198605
46582		-1.300148	9.643199	1.108224	-0.000520	0.002857	-0.009446	-0.776611	-0.933350	0.142334	83.334156	7.526332	94.196429
46583		-1.276867	9.656007	1.129520	-0.002330	0.006535	-0.004004	-0.772217	-0.935791	0.143799	83.333576	7.525055	94.198874
46584		-1.283938	9.633492	1.094480	-0.004344	0.005390	-0.008006	-0.769287	-0.938721	0.140625	83.331872	7.525976	94.198250
46585		-1.273114	9.625275	1.114698	-0.003570	0.006616	-0.006406	-0.773193	-0.942139	0.139893	83.330618	7.526121	94.198716
46586		-1.308143	9.673210	1.124357	-0.000917	0.005772	-0.007100	-0.770264	-0.933350	0.144775	83.330914	7.526552	94.198372
46587		-1.286115	9.633143	1.094998	-0.001931	0.003621	-0.006352	-0.768066	-0.938965	0.143555	83.330378	7.526448	94.197421
46588		-1.257640	9.615460	1.101127	-0.005050	0.005772	-0.006460	-0.772461	-0.936523	0.142822	83.328312	7.526514	94.197120
46589		-1.287428	9.632908	1.095518	-0.001623	0.006154	-0.005553	-0.772949	-0.929932	0.144775	83.328175	7.526162	94.196753
46590		-1.281599	9.655206	1.131010	-0.004275	0.006998	-0.004860	-0.778809	-0.937256	0.146973	83.326659	7.525400	94.197263
46591		-1.306163	9.642172	1.110084	-0.003411	0.002777	-0.006406	-0.779297	-0.934570	0.142822	83.325338	7.525010	94.195518
46592		-1.260073	9.615025	1.102144	-0.003103	0.005310	-0.005606	-0.779053	-0.941650	0.152588	83.324360	7.524560	94.195009
46593		-1.277366	9.653489	1.097792	-0.002329	0.006536	-0.004006	-0.770508	-0.937256	0.141357	83.323990	7.523068	94.195983
46594		-1.278551	9.624321	1.116714	-0.005996	0.005227	-0.002565	-0.774902	-0.939453	0.149170	83.321375	7.520881	94.195631
46595		-1.308030	9.641777	1.111318	-0.004823	0.003539	-0.003311	-0.772949	-0.939453	0.143311	83.319284	7.519022	94.193780
46596		-1.296884	9.633592	1.131623	-0.004116	0.003158	-0.004859	-0.765381	-0.939941	0.149170	83.317571	7.518002	94.192086
46597		-1.261434	9.643615	1.085380	-0.006927	0.007842	-0.004168	-0.769775	-0.940674	0.148926	83.314609	7.517061	94.191000
46598		-1.309413	9.641458	1.112458	-0.000690	0.003541	-0.003951	-0.770020	-0.944580	0.141357	83.314895	7.515551	94.189587
46599		-1.292203	9.631919	1.098591	-0.004515	0.006073	-0.002512	-0.768555	-0.932373	0.142578	83.313153	7.513611	94.188478
46600		-1.274157	9.651441	1.066414	-0.006303	0.002695	-0.003366	-0.770264	-0.934326	0.138916	83.310165	7.511711	94.186618
46601		-1.287436	9.625000	1.153424	-0.004581	0.004466	-0.005661	-0.763672	-0.933838	0.141357	83.308170	7.511243	94.186210
46602		-1.258013	9.636437	1.140966	-0.002328	0.006537	-0.004007	-0.772949	-0.934326	0.140869	83.307742	7.509964	94.186513
46603		-1.300047	9.632904	1.133844	-0.001313	0.008689	-0.004754	-0.776367	-0.938721	0.146240	83.307950	7.509316	94.188051
46604		-1.265441	9.613882	1.105955	-0.004422	0.000626	-0.005661	-0.776123	-0.934082	0.143066	83.305865	7.508583	94.184850
46605		-1.283603	9.623255	1.120101	0.001339	0.007847	-0.005447	-0.768799	-0.937744	0.144775	83.307617	7.508066	94.186570
46606		-1.289564	9.653617	1.135504	-0.003165	0.003705	-0.008758	-0.770752	-0.939209	0.157227	83.306455	7.509302	94.184928
46607		-1.284271	9.652122	1.101746	-0.002793	0.007845	-0.004809	-0.769287	-0.940186	0.145752	83.306004	7.508653	94.181704
46608		-1.291778	9.624291	1.154479	-0.002858	0.006239	-0.007958	-0.775879	-0.935791	0.143311	83.305216	7.509602	94.181570
46609		-1.285729	9.651881	1.102156	-0.003565	0.006619	-0.006411	-0.775879	-0.929932	0.144287	83.304039	7.509714	94.181569
46610		-1.292349	9.653145	1.136357	-0.002634	0.004004	-0.004808	-0.768799	-0.935547	0.145996	83.303239	7.508722	94.180364
46611		-1.293654	9.623961	1.155137	-0.002634	0.004005	-0.004808	-0.773926	-0.942627	0.138672	83.302461	7.507607	94.178559
46612		-1.288378	9.622482	1.121257	-0.000669	0.006705	-0.009453	-0.769043	-0.933838	0.135498	83.302948	7.509438	94.178591
46613		-1.259220	9.633935	1.108586	-0.001619	0.006158	-0.005556	-0.777588	-0.941162	0.141846	83.302647	7.509118	94.181856
46614		-1.288984	9.651375	1.102784	-0.001619	0.006158	-0.005556	-0.767578	-0.935303	0.139648	83.302584	7.508695	94.181837
46615		-1.307139	9.660748	1.116814	0.000326	0.005696	-0.004700	-0.771484	-0.941406	0.141846	83.303479	7.507800	94.183250
46616		-1.308609	9.631558	1.135433	-0.002856	0.006240	-0.007960	-0.764404	-0.929443	0.145996	83.302692	7.508751	94.183116
46617		-1.261804	9.633565	1.108866	-0.001925	0.003625	-0.006357	-0.776123	-0.932617	0.142090	83.302232	7.508717	94.180237
46618		-1.292500	9.621875	1.121723	-0.002855	0.006240	-0.007961	-0.771973	-0.940186	0.145508	83.301445	7.509669	94.180104
46619		-1.274924	9.641410	1.089196	-0.001069	0.009619	-0.007107	-0.774902	-0.932129	0.144775	83.301915	7.510288	94.182488
46620		-1.275600	9.641316	1.089242	-0.001459	0.002317	-0.005556	-0.774902	-0.940918	0.146973	83.301655	7.509609	94.180265
46621		-1.270755	9.634494	1.143259	-0.002549	0.008774	-0.007162	-0.778809	-0.941162	0.151855	83.301275	7.510168	94.181351
46622		-1.283066	9.642470	1.123345	0.000730	0.002784	-0.007049	-0.772705	-0.931396	0.143555	83.302291	7.510369	94.179295
46623		-1.288960	9.672836	1.138770	-0.002792	0.007846	-0.004813	-0.775391	-0.936768	0.141602	83.301776	7.509486	94.179315
46624		-1.296544	9.621260	1.122324	-0.005285	0.004847	-0.004120	-0.775391	-0.945801	0.142090	83.299527	7.508159	94.178640
46625		-1.296997	9.621156	1.122693	-0.003805	0.005693	-0.004066	-0.770752	-0.940674	0.145020	83.298078	7.506896	94.180334
46626		-1.272888	9.663097	1.125616	-0.002082	0.007467	-0.006361	-0.770020	-0.937256	0.149170	83.297840	7.507019	94.181013
46627		-1.279702	9.640615	1.090628	-0.006299	0.002693	-0.003374	-0.769531	-0.942139	0.137695	83.294907	7.505234	94.176959
46628		-1.292566	9.619486	1.089601	-0.002082	0.007467	-0.006361	-0.769287	-0.936279	0.149414	83.294670	7.505357	94.177638
46629		-1.286123	9.670849	1.106580	-0.004270	0.007001	-0.004869	-0.773682	-0.942871	0.148926	83.293107	7.504771	94.177566
46630		-1.287478	9.641631	1.125497	-0.004575	0.004468	-0.005669	-0.777588	-0.949707	0.142822	83.291222	7.504299	94.176569
46631		-1.305620	9.650936	1.139944	-0.005284	0.004847	-0.004122	-0.771973	-0.936523	0.144043	83.288959	7.503124	94.175668
46632		-1.270883	9.631971	1.112342	-0.005749	0.006155	-0.004924	-0.773193	-0.938477	0.143311	83.286534	7.502341	94.175690
46633		-1.271450	9.631837	1.112848	-0.006054	0.003622	-0.005725	-0.775146	-0.938965	0.137207	83.283709	7.501857	94.174319
46634		-1.306432	9.679654	1.122845	-0.005283	0.004847	-0.004122	-0.779785	-0.937500	0.143555	83.281460	7.500531	94.173645
46635		-1.289833	9.641046	1.127807	-0.004598	0.001302	-0.000168	-0.770996	-0.936523	0.147461	83.279250	7.496605	94.174192
46636		-1.295636	9.647716	1.074212	-0.001760	-0.000214	-0.006358	-0.760254	-0.938477	0.142090	83.278622	7.496211	94.170462
46637		-1.319689	9.658426	1.122124	0.003828	-0.002528	-0.001435	-0.775635	-0.934570	0.145020	83.281068	7.493111	94.163298
46638		-1.250213	9.615367	1.153272	0.009319	-0.004884	-0.008315	-0.765137	-0.932861	0.151367	83.286420	7.493518	94.156756
46639		-1.291938	9.640925	1.126434	0.013957	-0.013236	-0.014448	-0.780029	-0.935547	0.148438	83.293873	7.496815	94.142284
46640		-1.292993	9.640924	1.125232	0.014484	-0.012938	-0.010496	-0.774902	-0.942627	0.144775	83.301563	7.497927	94.130971
46641		-1.264634	9.623494	1.129734	0.017909	-0.012552	-0.009585	-0.775879	-0.936279	0.141602	83.311284	7.498428	94.119997
46642		-1.270593	9.654038	1.143577	0.017667	-0.013480	-0.007237	-0.772461	-0.935547	0.140381	83.320785	7.497652	94.108593
46643		-1.295094	9.641154	1.120834	0.015561	-0.009177	-0.008097	-0.775146	-0.947754	0.135742	83.329255	7.497587	94.102325
46644		-1.265910	9.652843	1.106657	0.017751	-0.008709	-0.009592	-0.772949	-0.946289	0.139893	83.339141	7.498473	94.093502
46645		-1.249815	9.614404	1.109748	0.015260	-0.011709	-0.008899	-0.771484	-0.941162	0.140869	83.347067	7.499049	94.087630
46646		-1.285069	9.662412	1.117627	0.020874	-0.010853	-0.009485	-0.770020	-0.937256	0.148438	83.358582	7.499734	94.077583
46647		-1.297923	9.641529	1.114316	0.023511	-0.014854	-0.004674	-0.770996	-0.938232	0.143555	83.371272	7.497541	94.065978
46648		-1.285944	9.662771	1.113504	0.024525	-0.012698	-0.005425	-0.771729	-0.942139	0.139160	83.384776	7.495799	94.055143
46649		-1.264844	9.564950	1.119080	0.026170	-0.015690	-0.005370	-0.771484	-0.927979	0.142334	83.398796	7.493982	94.045293
46650		-1.269105	9.653750	1.095026	0.022583	-0.012237	-0.006286	-0.774658	-0.939941	0.152832	83.411216	7.492765	94.034666
46651		-1.283401	9.574782	1.128618	0.029212	-0.009225	-0.007626	-0.776855	-0.939941	0.143066	83.427649	7.492388	94.025990
46652		-1.263496	9.681804	1.037383	0.028505	-0.008843	-0.006080	-0.781006	-0.938721	0.151855	83.443717	7.491282	94.017324
46653		-1.259966	9.617347	1.125825	0.030064	-0.003228	-0.008388	-0.773193	-0.940430	0.140381	83.461027	7.491701	94.014387
46654		-1.301481	9.643038	1.096975	0.033658	-0.006676	-0.007478	-0.779297	-0.932861	0.143555	83.480197	7.491537	94.006873
46655		-1.254782	9.645408	1.067399	0.025873	-0.004844	-0.010901	-0.776367	-0.935059	0.148438	83.494789	7.493338	94.005160
46656		-1.303885	9.614375	1.110361	0.027112	-0.004919	-0.008499	-0.765381	-0.927979	0.146484	83.510332	7.493873	93.998588
46657		-1.268123	9.653688	1.042666	0.021740	-0.004852	-0.010262	-0.768066	-0.941162	0.150635	83.522736	7.495321	93.992451
46658		-1.293395	9.635685	1.107262	0.022919	-0.006537	-0.011009	-0.774658	-0.943604	0.148926	83.535734	7.497183	93.984787
46659		-1.299914	9.642268	1.051409	0.019252	-0.007853	-0.009562	-0.776123	-0.938965	0.143555	83.546477	7.498335	93.976610
46660		-1.260630	9.587958	1.094177	0.020431	-0.009538	-0.010309	-0.778076	-0.937256	0.150635	83.557829	7.499609	93.967268
46661		-1.290879	9.605452	1.086303	0.021987	-0.003924	-0.012623	-0.767334	-0.940430	0.143799	83.570344	7.502449	93.964824
46662		-1.239709	9.572205	1.130125	0.020751	-0.003848	-0.015028	-0.770264	-0.935547	0.149902	83.582265	7.506778	93.958446
46663		-1.268954	9.647676	1.084731	0.022701	-0.004303	-0.014176	-0.777588	-0.934814	0.148193	83.595117	7.510762	93.952842
46664		-1.282767	9.626649	1.081379	0.022008	-0.000769	-0.018141	-0.775146	-0.939941	0.147705	83.607963	7.517063	93.948034
46665		-1.295321	9.663586	1.040728	0.019109	-0.000855	-0.015093	-0.770996	-0.939209	0.152344	83.619036	7.521501	93.947185
46666		-1.257309	9.580282	1.102286	0.018173	0.001755	-0.016704	-0.777588	-0.940430	0.145264	83.629886	7.527146	93.943921
46667		-1.275365	9.647684	1.077113	0.016937	0.001829	-0.019110	-0.770752	-0.935059	0.144043	83.639880	7.534177	93.943459
46668		-1.289344	9.626536	1.074537	0.011078	0.000042	-0.016158	-0.771729	-0.944580	0.148682	83.646540	7.539404	93.939248
46669		-1.260978	9.638053	1.060901	0.005591	0.005553	-0.014778	-0.773438	-0.935547	0.148926	83.650266	7.544313	93.941176
46670		-1.291971	9.655247	1.054336	0.005776	0.004863	-0.020284	-0.777832	-0.942627	0.150391	83.654216	7.552195	93.939472
46671		-1.294503	9.626032	1.072850	-0.002033	0.003528	-0.018185	-0.781738	-0.934326	0.148926	83.653501	7.558716	93.940665
46672		-1.283998	9.646881	1.074044	0.001396	0.003926	-0.017283	-0.765869	-0.937256	0.153076	83.654895	7.564829	93.938615
46673		-1.269385	9.579248	1.097425	-0.000722	0.008220	-0.018150	-0.765625	-0.939209	0.147705	83.655348	7.571576	93.940993
46674		-1.288331	9.617433	1.092491	0.002651	0.007006	-0.020397	-0.771973	-0.931152	0.149658	83.657668	7.579659	93.940514
46675		-1.284333	9.615664	1.058226	0.001471	0.008691	-0.019654	-0.771240	-0.940674	0.147949	83.659332	7.587446	93.941578
46676		-1.292277	9.616965	1.091953	0.000589	0.012912	-0.018117	-0.771729	-0.940430	0.149902	83.660938	7.594603	93.944638
46677		-1.294346	9.616700	1.091833	-0.001413	0.011753	-0.022123	-0.776611	-0.940918	0.148193	83.661138	7.604040	93.948921
46678		-1.295888	9.645423	1.072855	0.002783	0.013385	-0.019621	-0.766602	-0.934326	0.151123	83.664025	7.612084	93.952158
46679		-1.315328	9.654625	1.086624	-0.002014	0.015359	-0.014276	-0.768799	-0.939697	0.156738	83.664270	7.617171	93.958654
46680		-1.281514	9.635578	1.058774	-0.004502	0.012352	-0.013569	-0.769043	-0.946777	0.154297	83.662956	7.621703	93.961684
46681		-1.271911	9.598478	1.097831	-0.004454	0.002137	-0.014338	-0.770020	-0.937256	0.146729	83.660936	7.626200	93.956911
46682		-1.213846	9.621697	1.071851	0.014763	-0.010442	-0.021535	-0.776855	-0.943359	0.145752	83.668854	7.633827	93.946336
46683		-1.293856	9.607621	1.109155	0.035899	-0.021928	-0.036553	-0.773438	-0.935791	0.146240	83.687670	7.649257	93.932661
46684		-1.296568	9.665505	1.067681	0.054907	-0.044092	-0.050850	-0.769531	-0.940918	0.148926	83.715759	7.671470	93.900895
46685		-1.354826	9.669362	1.035299	0.065785	-0.044938	-0.064693	-0.770264	-0.941162	0.153076	83.749703	7.701482	93.871302
46686		-1.284920	9.654205	1.007873	0.083796	-0.052721	-0.088552	-0.770020	-0.945801	0.151123	83.793329	7.744671	93.832234
46687		-1.305909	9.690464	0.960948	0.101052	-0.072013	-0.126642	-0.773438	-0.942139	0.154785	83.844851	7.808465	93.782398
46688		-1.300910	9.733653	0.986787	0.133807	-0.087857	-0.163524	-0.764404	-0.944336	0.150879	83.913662	7.892292	93.718571
46689		-1.330228	9.740457	0.952146	0.192734	-0.098824	-0.216299	-0.765137	-0.946777	0.156494	84.014635	8.005604	93.649603
46690		-1.276275	9.840185	0.832906	0.291865	-0.100690	-0.292639	-0.770264	-0.940918	0.159424	84.171669	8.162494	93.570980
46691		-1.155629	10.011364	0.623024	0.426961	-0.088034	-0.412846	-0.758789	-0.944824	0.157715	84.405796	8.388709	93.499349
46692		-0.667796	10.858375	0.476142	0.574540	-0.035235	-0.610101	-0.760742	-0.946045	0.170898	84.727353	8.730862	93.442282
46693		-0.674585	11.437360	0.773698	0.642771	0.127673	-1.069020	-0.752930	-0.960693	0.155762	85.098696	9.343186	93.465084
46694		-0.219725	13.622412	1.865696	0.439399	0.239020	-1.526962	-0.745361	-0.969482	0.180664	85.361744	10.222539	93.526423
46695		-0.833485	12.355628	0.675574	0.274362	0.302641	-2.100568	-0.732178	-0.976318	0.173096	85.533465	11.431550	93.615162
46696		-1.149275	12.366484	1.020843	0.245959	0.203025	-2.539847	-0.708252	-0.988281	0.175537	85.675506	12.887542	93.616338
46697		-1.615112	12.311054	1.125033	0.218574	0.038873	-2.789003	-0.700439	-1.005859	0.168457	85.777163	14.478045	93.517931
46698		-1.783809	12.049784	1.132185	0.185701	-0.133516	-3.089985	-0.676758	-1.008057	0.174561	85.826974	16.234271	93.300984
46699		-2.020653	12.346608	1.317745	0.150632	-0.261731	-3.357116	-0.648438	-1.025879	0.178467	85.823555	18.137633	92.994377
46700		-2.807598	13.342747	1.398831	0.084625	-0.259496	-3.569673	-0.621826	-1.040527	0.176758	85.768186	20.162651	92.675195
46701		-2.826517	15.297365	2.323004	-0.148421	-0.174120	-3.736272	-0.601563	-1.067139	0.177979	85.581356	22.285570	92.391674
46702		-3.748146	17.370767	2.763260	-0.489528	0.115338	-3.767120	-0.566162	-1.073975	0.164551	85.254251	24.438472	92.272020
46703		-2.275247	16.496141	3.202985	-0.704574	0.553879	-3.559940	-0.548584	-1.088623	0.164307	84.917113	26.493469	92.424922
46704		-3.015991	13.318280	3.000788	-0.659165	1.012584	-3.383255	-0.523193	-1.088623	0.152344	84.748346	28.472401	92.875753
46705		-2.112714	11.085845	3.284882	-0.526247	1.288950	-3.275733	-0.493896	-1.102539	0.142090	84.763896	30.404307	93.519226
46706		-0.013313	10.372988	2.884199	-0.383703	1.551646	-3.057649	-0.461182	-1.114502	0.135986	84.986438	32.224748	94.368668
46707		3.816573	9.352321	2.501350	-0.384871	1.634260	-2.459579	-0.439941	-1.125488	0.125732	85.291955	33.703490	95.334026
46708		8.121662	10.514997	2.162774	-0.405755	1.651167	-1.586865	-0.431641	-1.118652	0.116943	85.650076	34.680716	96.383402
46709		9.828250	11.191748	1.174565	-0.432591	1.868018	-0.736621	-0.424316	-1.121826	0.116699	86.124609	35.173199	97.643877
46710		6.543852	14.924718	2.289921	-0.599075	1.925527	0.033889	-0.411621	-1.124023	0.096436	86.557329	35.220406	98.988616
46711		9.230311	10.847170	2.130934	-0.777534	2.051469	0.689610	-0.418701	-1.117432	0.098633	86.948721	34.886592	100.444512
46712		7.947703	8.821452	1.892903	-0.780788	1.998714	1.128108	-0.419922	-1.123535	0.088623	87.310954	34.294574	101.869028
46713		7.147177	8.944328	2.248921	-0.697285	1.863374	1.434235	-0.422607	-1.114746	0.078857	87.650248	33.514078	103.192421
46714		6.090817	9.297783	2.445006	-0.648662	1.635862	1.729748	-0.431396	-1.115234	0.071533	87.911221	32.556268	104.351264
46715		5.202229	9.518148	2.518817	-0.644643	1.309705	2.051254	-0.443359	-1.116211	0.068848	88.033644	31.401377	105.278983
46716		4.519216	9.574711	2.513613	-0.647057	0.950317	2.335753	-0.456299	-1.106934	0.049561	88.012781	30.078926	105.961773
46717		3.971687	9.559931	2.344975	-0.639087	0.602759	2.554802	-0.480225	-1.104492	0.051514	87.867880	28.621207	106.412654
46718		3.571558	9.955745	2.133824	-0.651113	0.295296	2.749889	-0.488525	-1.095215	0.042236	87.615896	27.049784	106.670134
46719		3.062406	10.593345	1.841673	-0.741206	0.048117	2.934980	-0.513184	-1.092041	0.030029	87.239671	25.363427	106.779609
46720		2.587065	10.944764	1.555882	-0.892399	-0.145315	3.109412	-0.530518	-1.083496	0.020996	86.732431	23.576170	106.787446
46721		2.054618	11.035172	1.252245	-1.035356	-0.289050	3.250456	-0.555908	-1.085938	0.014893	86.116712	21.699039	106.729045
46722		1.460000	11.170197	0.835159	-1.140003	-0.390438	3.334054	-0.581543	-1.073486	0.011963	85.431909	19.773626	106.637465
46723		0.772626	11.142765	0.569924	-1.206890	-0.479442	3.357797	-0.612305	-1.066162	-0.002197	84.701875	17.824862	106.518216
46724		0.156309	11.050970	0.436468	-1.181659	-0.553873	3.332584	-0.627197	-1.056396	-0.007080	83.985985	15.889521	106.381518
46725		-0.432677	11.205566	0.492333	-1.058821	-0.625290	3.290077	-0.655518	-1.038818	-0.010498	83.338543	13.967773	106.223713
46726		-0.987597	11.731886	0.656338	-0.871328	-0.679277	3.278013	-0.691895	-1.034180	-0.023682	82.802485	12.052366	106.056543
46727		-1.558540	12.787090	1.028444	-0.678408	-0.735233	3.304661	-0.722168	-1.015869	-0.020264	82.378814	10.111627	105.875245
46728		-2.273013	13.773461	1.463898	-0.566299	-0.796238	3.392572	-0.752686	-1.004395	-0.026367	82.024478	8.119842	105.681497
46729		-2.974056	14.308981	1.941938	-0.540403	-0.871768	3.525378	-0.784912	-0.981201	-0.024902	81.688308	6.040723	105.467327
46730		-3.648252	14.249930	2.322145	-0.551784	-0.965031	3.646724	-0.812256	-0.948730	-0.033691	81.351978	3.888514	105.224644
46731		-4.146158	13.675220	2.532885	-0.536743	-1.076255	3.725538	-0.845215	-0.930420	-0.031738	81.030332	1.675908	104.937754
46732		-4.785482	13.106130	2.790912	-0.487271	-1.205012	3.711810	-0.867188	-0.890381	-0.022217	80.748516	-0.537428	104.589818
46733		-5.720049	12.588348	3.052083	-0.429258	-1.360247	3.624095	-0.900146	-0.876953	-0.023682	80.514718	-2.721655	104.154787
46734		-6.758789	12.394037	2.864006	-0.424727	-1.549356	3.495624	-0.918457	-0.853516	-0.011230	80.308237	-4.848556	103.608991
46735		-7.532357	12.067631	2.400461	-0.504938	-1.736470	3.301935	-0.941406	-0.822266	-0.007324	80.086749	-6.890494	102.943486
46736		-8.433743	11.077052	1.827078	-0.560694	-1.884006	3.058316	-0.964600	-0.791016	0.000000	79.871242	-8.808086	102.175343
46737		-9.328838	9.805245	1.201119	-0.493390	-1.973600	2.777455	-0.979736	-0.759766	0.015381	79.730992	-10.582409	101.328566
46738		-9.939518	8.503802	0.773090	-0.304257	-1.987156	2.478081	-0.994141	-0.747559	0.028320	79.732731	-12.186681	100.441013
46739		-10.149580	7.633261	0.524487	-0.072577	-1.909072	2.161343	-1.010498	-0.728760	0.035156	79.888248	-13.606348	99.557832
46740		-10.092040	7.053674	0.696071	0.116012	-1.725123	1.836340	-1.011230	-0.711426	0.051270	80.156709	-14.818033	98.738687
46741		-9.948331	6.787744	0.891377	0.213391	-1.448323	1.503080	-1.020996	-0.686523	0.067871	80.464305	-15.813353	98.037409
46742		-9.993288	6.911049	1.051571	0.158131	-1.114969	1.174891	-1.034424	-0.683594	0.071777	80.707738	-16.586093	97.492714
46743		-10.146300	7.002582	1.158994	-0.048880	-0.784596	0.868679	-1.029053	-0.660645	0.071777	80.791170	-17.155742	97.109280
46744		-10.411181	6.734469	1.157490	-0.307298	-0.456504	0.576521	-1.029785	-0.667480	0.075928	80.680894	-17.528001	96.891445
46745		-10.696186	6.027711	0.923511	-0.504423	-0.161992	0.288591	-1.026367	-0.664795	0.069824	80.413523	-17.711911	96.820614
46746		-11.541092	4.157673	0.149293	-0.580991	0.070557	-0.024445	-1.027588	-0.656494	0.070557	80.070476	-17.695420	96.856872
46747		-21.722352	-4.835403	-1.143354	0.969117	0.155806	-2.193670	-1.036865	-0.672119	0.066162	80.664494	-16.446295	96.725816
46748		-0.733239	-5.835293	-0.707624	2.287125	-0.245788	-3.209111	-1.016602	-0.703613	0.071533	82.092184	-14.653634	96.292086
46749		-0.272866	15.891108	0.225346	1.864203	-0.436230	-3.474017	-1.008789	-0.737061	0.084961	83.283507	-12.715579	95.773044
46750		1.927996	15.606622	-0.672790	0.518068	-0.818331	-3.595212	-0.997803	-0.765869	0.100586	83.726897	-10.725897	95.056110
46751		-0.263963	11.558488	-0.384931	-0.078417	-1.067570	-3.890310	-0.984619	-0.791260	0.109375	83.827460	-8.580525	94.191038
46752		-1.660348	11.569837	-1.961368	-0.417516	-1.084019	-4.128186	-0.966553	-0.811035	0.102051	83.703679	-6.300619	93.306183
46753		-1.232544	15.177932	-3.921589	-0.497974	-0.761801	-4.015400	-0.941162	-0.851563	0.115723	83.481806	-4.067125	92.609696
46754		0.184471	14.704524	-4.676616	-0.494427	-0.313489	-3.727784	-0.932617	-0.879150	0.109131	83.221967	-1.970410	92.180296
46755		-0.760829	18.926417	-3.915767	-0.329984	0.565959	-3.606949	-0.906982	-0.904785	0.107910	83.032565	0.116117	92.251797
46756		-2.160341	17.341053	0.033747	-0.896742	0.731675	-3.297615	-0.894043	-0.920410	0.093506	82.522880	2.039189	92.427070
46757		-4.568818	18.266245	4.632933	-0.768499	0.957132	-2.759910	-0.866211	-0.942383	0.089111	82.099995	3.675627	92.756327
46758		-6.350717	13.978503	5.985224	-0.452197	0.669666	-1.982320	-0.858887	-0.948975	0.078369	81.858037	4.849766	92.975331
46759		-5.044453	11.462749	6.104970	0.326707	0.294845	-1.294138	-0.852783	-0.957520	0.083496	82.051656	5.603769	93.036090
46760		-1.227072	10.509683	0.636171	0.834675	0.195267	-0.846808	-0.845947	-0.957275	0.082764	82.535132	6.095517	93.079044
46761		-1.211586	12.732466	0.389443	0.500427	0.235921	-0.841962	-0.846436	-0.967285	0.086182	82.830390	6.587523	93.149065
46762		-2.716901	11.797101	0.917163	0.317332	0.187288	-0.426067	-0.841309	-0.969482	0.087158	83.021699	6.838975	93.222880
46763		-1.475721	10.915438	1.023477	0.217563	0.149790	-0.279224	-0.830811	-0.977539	0.093994	83.154831	7.004484	93.286237
46764		-1.836931	11.381034	0.282694	0.079716	0.092100	-0.145755	-0.843018	-0.974365	0.094482	83.206231	7.089661	93.325879
46765		-1.480014	10.201663	0.751298	0.008644	0.058058	-0.079015	-0.838135	-0.974365	0.085205	83.215132	7.134928	93.350698
46766		-1.441350	10.115719	0.779360	-0.010966	0.020697	-0.056995	-0.834717	-0.975342	0.091553	83.210310	7.164749	93.355513
46767		-1.332432	9.836081	1.020550	-0.013305	0.002753	-0.042974	-0.831299	-0.977783	0.091309	83.203030	7.185773	93.351087
46768		-1.256184	9.639136	1.164603	0.002695	0.004822	-0.029042	-0.828369	-0.978027	0.093262	83.205138	7.198615	93.348704
46769		-1.247122	9.601940	1.200837	0.039223	0.012419	-0.015185	-0.834717	-0.978027	0.091064	83.228890	7.204484	93.351721
46770		-1.264451	9.704563	1.066483	0.061832	0.017522	-0.002600	-0.826172	-0.975830	0.084717	83.266020	7.203139	93.358428
46771		-1.234420	9.746114	1.028928	0.059719	0.018653	0.002050	-0.841797	-0.969971	0.075684	83.302109	7.199615	93.366191
46772		-1.264385	9.705846	1.054821	0.049340	0.019744	0.008002	-0.833252	-0.968994	0.092529	83.332330	7.192376	93.374882
46773		-1.222013	9.710177	1.057839	0.028333	0.012353	0.012793	-0.834717	-0.973145	0.085449	83.350077	7.182312	93.379748
46774		-1.216100	9.650980	1.059258	0.003655	0.021772	0.011996	-0.841064	-0.978516	0.090576	83.354297	7.172930	93.389865
46775		-1.184497	9.720969	1.009880	-0.024151	0.033330	0.011096	-0.838623	-0.969971	0.084961	83.343463	7.165221	93.406648
46776		-1.209208	9.614997	1.135340	-0.047757	0.046515	0.012692	-0.838867	-0.972168	0.083496	83.319998	7.157092	93.431006
46777		-1.201835	9.642410	1.087107	-0.055064	0.055683	0.019544	-0.840576	-0.982666	0.089844	83.293117	7.146078	93.461182
46778		-1.177617	9.596938	1.149583	-0.046607	0.063698	0.022200	-0.838623	-0.973633	0.080811	83.271608	7.133712	93.496042
46779		-1.217672	9.593036	1.145336	-0.029416	0.070438	0.024374	-0.831299	-0.972656	0.083740	83.260502	7.120959	93.535013
46780		-1.214512	9.680390	1.091580	-0.025863	0.065401	0.022105	-0.834229	-0.968750	0.091064	83.250984	7.108777	93.570847
46781		-1.243831	9.639446	1.124451	-0.023137	0.057538	0.015078	-0.838135	-0.979736	0.081299	83.242469	7.100456	93.601792
46782		-1.219391	9.657885	1.059221	-0.017700	0.041799	0.001046	-0.836670	-0.970947	0.088867	83.235769	7.098675	93.622664
46783		-1.233082	9.631018	1.146533	-0.009244	0.032529	-0.015217	-0.835938	-0.971436	0.086670	83.233188	7.105910	93.637211
46784		-1.217804	9.621334	1.133100	-0.010594	0.017606	-0.027912	-0.831787	-0.963135	0.080322	83.228603	7.118974	93.642242
46785		-1.226585	9.651175	1.149581	-0.014174	0.012422	-0.038301	-0.838623	-0.967773	0.090088	83.221578	7.137984	93.643688
46786		-1.196139	9.602796	1.140874	-0.008427	0.011029	-0.047554	-0.827393	-0.970703	0.083740	83.217601	7.161780	93.643606
46787		-1.225591	9.559878	1.138814	-0.009289	0.006614	-0.055485	-0.833008	-0.977539	0.078369	83.212813	7.190173	93.640545
46788		-1.196479	9.534952	1.198947	-0.001764	0.008611	-0.063882	-0.831543	-0.969727	0.071045	83.212340	7.223095	93.637958
46789		-1.232866	9.522401	1.210570	0.021333	0.010133	-0.070923	-0.843994	-0.965820	0.084717	83.225213	7.260508	93.635864
46790		-1.221901	9.541737	1.175017	0.038363	0.012102	-0.078194	-0.832031	-0.979492	0.085449	83.247859	7.301809	93.634320
46791		-1.276559	9.596941	1.159524	0.067038	0.012931	-0.088994	-0.833984	-0.975586	0.081543	83.286965	7.349694	93.632637
46792		-1.284066	9.684030	1.096267	0.088453	0.012712	-0.093773	-0.830078	-0.974121	0.094238	83.338226	7.399903	93.630450
46793		-1.288421	9.653372	1.071479	0.102913	0.006914	-0.109880	-0.834961	-0.969727	0.088379	83.397268	7.459279	93.624003
46794		-1.316800	9.691367	1.056303	0.115295	0.003848	-0.118188	-0.828125	-0.984863	0.083984	83.463044	7.522808	93.615216
46795		-1.299198	9.673944	1.050459	0.126979	0.001168	-0.124960	-0.829834	-0.973389	0.084717	83.535317	7.590411	93.604618
46796		-1.341162	9.632767	1.068427	0.149159	0.010916	-0.118743	-0.825684	-0.975830	0.098633	83.621030	7.654732	93.600019
46797		-1.345782	9.689506	0.981137	0.175776	0.023272	-0.112404	-0.833984	-0.980957	0.088623	83.723072	7.716612	93.603124
46798		-1.327176	9.730687	0.931814	0.184669	0.025294	-0.118556	-0.831543	-0.983398	0.091797	83.830268	7.781734	93.607025
46799		-1.339802	9.672996	0.950062	0.206578	0.032547	-0.125095	-0.824463	-0.978760	0.093018	83.950622	7.851397	93.614921
46800		-1.334825	9.692974	0.895232	0.237404	0.048170	-0.136962	-0.826660	-0.985596	0.097900	84.089735	7.928357	93.631154
46801		-1.384689	9.711778	0.898001	0.263816	0.056488	-0.146657	-0.831055	-0.984375	0.094971	84.244691	8.011665	93.651903
46802		-1.370575	9.666560	0.895799	0.285587	0.059712	-0.157339	-0.827393	-0.980713	0.096191	84.412285	8.100808	93.674042
46803		-1.393014	9.668805	0.900162	0.307491	0.069362	-0.167350	-0.821533	-0.991699	0.092529	84.593293	8.196502	93.701561
46804		-1.421976	9.705233	0.828509	0.339679	0.072390	-0.178646	-0.825928	-0.989258	0.101807	84.792921	8.298332	93.730450
46805		-1.387951	9.674262	0.841842	0.329271	0.069175	-0.200793	-0.825195	-0.992920	0.101074	84.986339	8.412915	93.756802
46806		-1.391041	9.607990	0.829942	0.415207	0.084889	-0.221136	-0.820801	-0.986084	0.104736	85.230221	8.539402	93.791568
46807		-1.467906	9.695440	0.700338	0.462559	0.083865	-0.257773	-0.818848	-0.991943	0.110352	85.501143	8.686981	93.824712
46808		-1.483256	9.687798	0.672377	0.507211	0.084501	-0.288413	-0.813965	-0.999268	0.109131	85.797619	8.851557	93.857529
46809		-1.508659	9.738970	0.634869	0.540578	0.082181	-0.327519	-0.814697	-1.003662	0.112549	86.113082	9.038584	93.888409
46810		-1.322925	10.036066	0.491280	0.563195	0.078612	-0.379878	-0.815918	-1.005615	0.116455	86.441054	9.254871	93.916227
46811		-1.215312	10.311317	0.229198	0.516740	0.194340	-0.577998	-0.802979	-1.003418	0.122559	86.752704	9.588612	94.005655
46812		-1.603494	10.276466	0.292335	0.476518	0.200886	-0.718725	-0.805664	-1.012207	0.116699	87.042001	10.002240	94.096227
46813		-1.612682	10.392673	0.298316	0.415495	0.196534	-0.837156	-0.798584	-1.011719	0.117432	87.296464	10.483433	94.183082
46814		-1.753987	10.374299	0.194767	0.324509	0.199278	-0.987116	-0.790771	-1.018311	0.128662	87.499413	11.049843	94.269565
46815		-1.853844	10.432358	0.351146	0.241528	0.180610	-1.113883	-0.785889	-1.034180	0.132080	87.653459	11.688429	94.344096
46816		-1.864264	10.600968	0.314894	0.144773	0.147679	-1.220564	-0.772949	-1.037842	0.124756	87.748584	12.386844	94.398338
46817		-2.034990	10.378563	0.241609	0.066596	0.115577	-1.320662	-0.770020	-1.043213	0.120605	87.795279	13.142097	94.432592
46818		-2.114441	10.376072	0.264032	0.010049	0.076995	-1.408946	-0.746582	-1.048828	0.115967	87.804222	13.946720	94.442508
46819		-2.202916	10.371359	0.292471	-0.033220	0.034669	-1.489785	-0.740479	-1.050781	0.114746	87.781969	14.796986	94.425613
46820		-2.323635	10.452383	0.330758	-0.059646	-0.013653	-1.579483	-0.733154	-1.067871	0.123047	87.735939	15.697220	94.377261
46821		-2.421664	10.306298	0.415328	-0.062977	-0.044629	-1.701600	-0.725342	-1.071289	0.120605	87.681136	16.666883	94.306590
46822		-2.452816	10.543878	0.452163	-0.059384	-0.092349	-1.861133	-0.698730	-1.079102	0.123047	87.617008	17.726414	94.201861
46823		-2.458538	10.606148	0.565533	-0.026593	-0.139269	-2.056089	-0.693115	-1.085449	0.125000	87.558847	18.896543	94.062149
46824		-2.278798	10.651956	0.862446	0.036257	-0.154006	-2.272246	-0.677002	-1.093994	0.126953	87.528163	20.189709	93.905751
46825		-2.452692	10.240440	1.091138	0.136877	-0.115803	-2.569051	-0.656250	-1.106934	0.120850	87.556799	21.653881	93.763633
46826		-2.386888	10.662484	1.084137	0.249870	-0.069503	-2.904651	-0.642822	-1.118896	0.126709	87.654168	23.311252	93.641606
46827		-2.400427	10.668796	1.272280	0.430774	-0.058270	-3.227396	-0.599609	-1.135498	0.126465	87.852767	25.154024	93.521823
46828		-2.260639	10.690777	1.804632	0.577425	0.030386	-3.853023	-0.570801	-1.145996	0.134033	88.153436	27.357176	93.451592
46829		-2.752019	10.878693	1.721482	0.822566	0.092971	-4.457566	-0.532959	-1.164795	0.145752	88.613535	29.907903	93.426211
46830		-3.842606	11.685120	1.468032	0.902708	0.119177	-5.122793	-0.493896	-1.165771	0.145264	89.136062	32.840135	93.434541
46831		-4.472347	12.870127	1.439680	0.853830	0.114762	-5.680710	-0.441162	-1.186279	0.152344	89.645153	36.091613	93.467920
46832		-7.107181	15.408443	1.445496	0.628051	0.135493	-6.093799	-0.391846	-1.198242	0.158691	90.056440	39.579672	93.550157
46833		-10.897358	19.104553	1.576620	0.267023	0.234299	-6.249282	-0.338623	-1.199219	0.149658	90.336083	43.155791	93.740358
46834		-12.922553	21.087100	1.323172	-0.158661	0.533528	-5.975385	-0.282227	-1.202881	0.148193	90.573802	46.573344	94.204815
46835		-9.671669	21.531334	2.556504	-0.554033	0.744426	-5.632650	-0.238525	-1.201660	0.145264	90.771997	49.791221	94.895399
46836		-7.132842	17.701798	1.214209	-0.993228	1.008479	-5.332350	-0.186279	-1.198975	0.143066	90.979050	52.833782	95.888431
46837		-4.726400	15.704016	0.958379	-1.149542	1.262595	-5.307174	-0.145752	-1.195313	0.125977	91.412288	55.854326	97.230865
46838		-1.878997	15.734730	0.980798	-1.241660	1.493516	-5.171454	-0.097412	-1.191650	0.112061	92.174008	58.785919	98.979626
46839		-0.827416	14.648973	0.968388	-1.377860	1.742049	-5.141104	-0.056885	-1.181152	0.103027	93.370178	61.675242	101.265468
46840		1.095823	13.720854	1.208305	-1.595574	1.976482	-5.262227	-0.017334	-1.159668	0.101318	95.119969	64.595739	104.249937
46841		1.918955	10.871358	1.511831	-1.961753	2.113386	-4.693088	0.026855	-1.146484	0.086914	97.323814	67.133339	107.894644
46842		10.039864	10.082869	-0.413035	-2.301268	2.170238	-3.546378	0.052246	-1.139893	0.071045	99.797451	68.955562	111.981862
46843		6.043302	17.809884	-1.288372	-2.590081	2.877013	-2.136433	0.070557	-1.127441	0.063477	103.245590	69.821081	117.249804
46844		1.204918	21.204950	-0.061937	-3.255621	2.915192	-0.004915	0.080566	-1.105713	0.041504	105.723568	69.403134	121.882266
46845		3.066375	12.892678	0.150846	-2.859959	2.997829	1.498573	0.072021	-1.125000	0.034912	107.664280	68.080788	125.721695
46846		1.541092	8.634045	0.209048	-2.312710	2.713424	2.484971	0.049072	-1.119141	0.023438	108.778643	66.239537	128.367499
46847		0.192866	7.209031	0.721245	-1.848100	2.253816	3.066042	0.032471	-1.125000	0.012939	109.113368	64.152588	129.901897
46848		-0.393305	6.451687	1.168561	-1.547918	1.780024	3.322023	-0.000244	-1.124756	0.004883	108.896823	62.018573	130.652691
46849		-0.659468	5.897514	1.432611	-1.317249	1.296591	3.378818	-0.014893	-1.134521	-0.018555	108.285534	59.940612	130.816373
46850		-0.928165	5.199236	1.536247	-1.064109	0.790225	3.388364	-0.048584	-1.144531	-0.018555	107.397052	57.951533	130.490057
46851		-0.939497	4.732653	1.659833	-0.747651	0.255606	3.415454	-0.074463	-1.149170	-0.026611	106.299786	56.029537	129.692407
46852		-0.536211	5.049446	1.774762	-0.442789	-0.236530	3.451310	-0.120117	-1.154541	-0.040283	105.086896	54.159863	128.521952
46853		-0.428388	6.146406	1.798517	-0.243504	-0.669451	3.487464	-0.149170	-1.158447	-0.050049	103.773604	52.313112	127.057026
46854		-0.377886	7.408992	1.752709	-0.229133	-1.036351	3.519782	-0.177734	-1.158447	-0.047119	102.342389	50.479859	125.392783
46855		-0.293153	8.240641	1.542110	-0.332826	-1.342048	3.566051	-0.214111	-1.152588	-0.066650	100.778998	48.624308	123.589428
46856		-0.442485	8.807824	1.322731	-0.500705	-1.582074	3.647298	-0.253662	-1.150635	-0.071777	99.111655	46.719368	121.721394
46857		-0.637831	9.263682	1.046081	-0.669059	-1.781317	3.745554	-0.294678	-1.155518	-0.080322	97.369397	44.733097	119.824113
46858		-0.808776	9.695760	0.826166	-0.784467	-1.924883	3.848123	-0.326416	-1.144287	-0.099365	95.631086	42.663911	117.957800
46859		-1.144820	10.079771	0.702276	-0.814150	-2.027105	3.970498	-0.377686	-1.136230	-0.115234	93.963121	40.484688	116.147865
46860		-1.836754	10.633440	0.597938	-0.774664	-2.094809	4.107239	-0.422363	-1.122803	-0.135498	92.426924	38.198360	114.423946
46861		-2.689113	11.111098	0.550927	-0.713005	-2.159285	4.245373	-0.457031	-1.111816	-0.137451	91.026600	35.794312	112.776377
46862		-3.450873	11.419658	0.499191	-0.647393	-2.209193	4.370654	-0.510498	-1.091309	-0.150879	89.770416	33.295215	111.214265
46863		-4.017156	11.729151	0.525534	-0.583776	-2.264364	4.455483	-0.565674	-1.078125	-0.169434	88.643546	30.714222	109.719590
46864		-4.532521	12.370409	0.523847	-0.519795	-2.308656	4.497939	-0.614746	-1.057373	-0.176758	87.646388	28.091749	108.293933
46865		-4.957429	12.991260	0.472345	-0.456079	-2.355909	4.548957	-0.671143	-1.029297	-0.192383	86.766788	25.411904	106.920502
46866		-5.029745	13.615844	0.430590	-0.373812	-2.392684	4.611399	-0.727295	-0.992188	-0.200439	86.015476	22.684755	105.600831
46867		-5.082817	14.474150	0.353665	-0.258249	-2.386924	4.682736	-0.773193	-0.955078	-0.207764	85.412414	19.896044	104.347085
46868		-5.023063	15.361815	0.425378	-0.156111	-2.324157	4.750238	-0.817627	-0.903564	-0.216064	84.955478	17.068164	103.185575
46869		-5.449100	16.198558	0.208122	-0.051340	-2.203772	4.805902	-0.867676	-0.847900	-0.212891	84.643056	14.200392	102.134096
46870		-5.516404	16.815516	0.413197	0.092312	-2.049720	4.840816	-0.891846	-0.799316	-0.219727	84.490715	11.324070	101.201402
46871		-6.038995	17.435956	0.830680	0.285216	-1.799152	4.881818	-0.915527	-0.748535	-0.224854	84.521886	8.430147	100.427019
46872		-7.387976	17.714915	1.393978	0.491739	-1.504959	4.935738	-0.947754	-0.687256	-0.233643	84.731462	5.529899	99.825725
46873		-9.023105	17.484809	2.216530	0.651960	-1.195970	4.975966	-0.952881	-0.649658	-0.242920	85.074805	2.618541	99.390833
46874		-10.592617	16.964665	2.976273	0.665570	-0.881641	4.926804	-0.958984	-0.598389	-0.240479	85.451410	-0.240281	99.117216
46875		-12.156130	16.152259	3.208125	0.503225	-0.562932	4.752553	-0.968750	-0.548828	-0.238525	85.743587	-2.990205	99.000108
46876		-13.287678	15.046708	3.226892	0.157300	-0.282476	4.433433	-0.959473	-0.507080	-0.236816	85.832962	-5.539270	99.021996
46877		-14.179482	13.790130	2.826507	-0.334587	-0.028834	4.007724	-0.958008	-0.472412	-0.233643	85.623893	-7.839801	99.173244
46878		-15.406537	12.225060	2.044123	-0.904562	0.109048	3.529712	-0.972900	-0.427734	-0.212646	85.071709	-9.854336	99.398933
46879		-16.884598	9.898335	1.244547	-1.397904	0.139879	3.043996	-0.968750	-0.388184	-0.211426	84.225681	-11.591876	99.641590
46880		-18.011825	6.803136	0.773789	-1.540880	0.108670	2.551857	-0.958740	-0.349121	-0.190918	83.296118	-13.042528	99.864324
46881		-18.786031	4.258984	0.484838	-1.338545	0.057346	2.057231	-0.965820	-0.315918	-0.184814	82.486870	-14.215666	100.044199
46882		-18.862388	2.862249	0.202250	-1.006497	-0.029915	1.558315	-0.954590	-0.284424	-0.169434	81.884525	-15.106620	100.148955
46883		-18.729449	2.499759	0.003849	-0.723058	-0.120606	1.029042	-0.960938	-0.257324	-0.154541	81.466609	-15.706532	100.163109
46884		-24.612448	-0.063577	-0.609400	-0.044023	-0.039666	-0.557834	-0.948486	-0.235107	-0.148438	81.462544	-15.397938	100.087409
46885		-23.820525	-8.740825	-2.777155	0.852111	-0.102522	-2.023254	-0.955566	-0.237305	-0.151367	82.011345	-14.264464	99.851689
46886		-27.718179	-4.660935	-1.530939	1.626524	-0.516777	-3.388089	-0.962158	-0.257324	-0.156250	83.074164	-12.382136	99.287921
46887		-2.924581	3.397415	0.399286	1.686089	-0.689098	-4.407690	-0.971680	-0.275146	-0.171143	84.173979	-9.920008	98.599069
46888		-2.646681	21.149984	-1.836813	0.982483	-0.745253	-4.557436	-0.989502	-0.296631	-0.162842	84.840967	-7.365571	97.913136
46889		0.685167	21.644877	-3.759520	-0.452839	-1.062648	-4.145668	-0.997314	-0.312012	-0.172363	84.671903	-5.059323	97.081780
46890		-2.348812	11.839556	-3.316155	-0.769988	-0.947643	-4.014348	-1.031250	-0.327637	-0.174805	84.284264	-2.826108	96.315022
46891		0.612901	9.794565	-5.461963	-0.077949	-0.343449	-4.155857	-1.046387	-0.342285	-0.188721	84.252932	-0.479910	95.878169
46892		-1.096164	22.232623	-6.541465	-0.138073	0.705097	-4.318971	-1.054688	-0.372803	-0.199219	84.176678	2.018838	96.027459
46893		-4.805000	24.689237	2.378531	-1.048855	1.197172	-3.754541	-1.061035	-0.403076	-0.211182	83.601384	4.227434	96.478083
46894		-12.565611	21.041455	11.472594	-0.332543	1.139764	-2.347291	-1.058838	-0.411377	-0.228760	83.454330	5.633382	96.974021
46895		-5.461671	12.315502	2.225569	1.287583	0.356340	-0.416245	-1.059814	-0.423096	-0.235352	84.210569	5.889449	97.149279
46896		0.851331	13.017745	-3.167529	0.522518	0.163605	-0.621193	-1.062988	-0.429688	-0.230469	84.516673	6.248901	97.204699
46897		-2.548201	12.707546	0.806781	0.133019	0.126023	-0.382193	-1.065186	-0.437256	-0.241455	84.599268	6.470870	97.253098
46898		-1.399912	9.238099	1.631041	0.153737	0.010504	-0.190105	-1.065186	-0.425781	-0.234619	84.687368	6.575943	97.245635
46899		-1.187185	10.800130	-0.228052	0.056840	0.019667	-0.099962	-1.073486	-0.437012	-0.240723	84.721280	6.631194	97.248573
46900		-1.421321	9.485536	1.052661	-0.026497	0.063830	-0.051499	-1.070313	-0.436035	-0.240723	84.710509	6.660013	97.279235
46901		-1.305542	10.080155	0.584886	0.025467	0.059073	-0.016426	-1.061523	-0.432617	-0.242432	84.729627	6.669691	97.309264
46902		-1.285203	9.947634	0.667352	-0.014405	0.072763	0.023882	-1.069092	-0.431641	-0.234375	84.726853	6.655966	97.349060
46903		-1.356169	10.124979	0.428742	-0.071403	0.042308	0.017714	-1.068359	-0.426514	-0.238037	84.689576	6.645296	97.371277
46904		-1.188684	10.009990	0.630963	-0.159883	0.025693	-0.005186	-1.072266	-0.431152	-0.236816	84.600130	6.645694	97.382493
46905		-1.154442	9.463574	1.111737	-0.143365	0.001201	-0.008225	-1.065186	-0.431641	-0.245605	84.518754	6.647650	97.379721
46906		-1.153066	9.491104	1.103627	-0.082632	-0.001018	-0.007209	-1.073242	-0.436768	-0.243896	84.471781	6.647762	97.375488
46907		-1.195005	9.451941	1.170569	-0.001785	-0.006713	-0.007048	-1.072510	-0.431152	-0.247070	84.470993	6.648610	97.368234
46908		-1.176679	9.629818	0.967445	0.061302	-0.017304	-0.016651	-1.073975	-0.418945	-0.238525	84.505344	6.653211	97.354126
46909		-1.216949	9.772847	0.889564	0.093248	-0.038430	-0.017902	-1.068848	-0.427979	-0.238037	84.556815	6.658531	97.328061
46910		-1.214098	9.900828	0.696972	0.096527	-0.051039	-0.030003	-1.075195	-0.433105	-0.240234	84.609015	6.668946	97.293859
46911		-1.180622	9.846994	0.736516	0.083735	-0.057963	-0.044909	-1.068604	-0.426514	-0.229736	84.653559	6.688677	97.255125
46912		-1.127311	9.812332	0.745233	0.082844	-0.051424	-0.046749	-1.072266	-0.429932	-0.240234	84.697769	6.708680	97.219821
46913		-1.144028	9.825974	0.662601	0.081611	-0.032642	-0.055237	-1.069336	-0.434570	-0.243164	84.742720	6.735699	97.195111
46914		-1.131477	9.746963	0.788859	0.078097	-0.030206	-0.065815	-1.071045	-0.435059	-0.235840	84.785496	6.767745	97.171021
46915		-1.179082	9.742989	0.771449	0.081944	-0.033797	-0.076543	-1.073242	-0.437012	-0.248535	84.830414	6.806900	97.144572
46916		-1.225370	9.767564	0.735796	0.064673	-0.040646	-0.079099	-1.069580	-0.434814	-0.241699	84.864678	6.846023	97.113838
46917		-1.220788	9.753660	0.805476	0.054581	-0.031532	-0.081612	-1.082275	-0.431641	-0.233154	84.894018	6.888224	97.088474
46918		-1.226730	9.816216	0.708935	0.039752	-0.029827	-0.081856	-1.071533	-0.431152	-0.237549	84.914695	6.929501	97.063851
46919		-1.236660	9.752215	0.798733	0.019637	-0.031401	-0.090238	-1.080322	-0.441895	-0.235352	84.923941	6.976653	97.038147
46920		-1.223637	9.653541	0.808127	0.021132	-0.028868	-0.087080	-1.075928	-0.434326	-0.237305	84.933948	7.020970	97.013822
46921		-1.171662	9.612839	0.876593	0.027263	-0.013984	-0.076853	-1.076172	-0.439209	-0.234619	84.948840	7.061376	96.998828
46922		-1.225559	9.638979	0.877923	0.040153	0.005045	-0.058404	-1.077881	-0.440186	-0.232910	84.972296	7.091048	96.995483
46923		-1.259991	9.690082	0.792357	0.041354	0.018637	-0.049238	-1.071289	-0.440674	-0.236816	84.997741	7.117339	97.000673
46924		-1.274844	9.697329	0.767943	0.028580	0.015386	-0.042071	-1.079346	-0.436035	-0.232178	85.015406	7.138206	97.004121
46925		-1.247020	9.737325	0.735280	0.022554	0.012497	-0.048704	-1.074707	-0.444336	-0.233643	85.029653	7.163888	97.005823
46926		-1.263459	9.681419	0.804985	0.014744	0.007233	-0.046690	-1.075195	-0.440186	-0.235107	85.038780	7.186986	97.004359
46927		-1.240860	9.635219	0.830573	0.017628	0.012860	-0.046673	-1.075928	-0.440186	-0.241943	85.050251	7.211529	97.006382
46928		-1.244887	9.634840	0.828940	0.011715	0.022441	-0.033890	-1.075195	-0.445068	-0.228760	85.058822	7.228072	97.014314
46929		-1.246242	9.663248	0.808769	0.004028	0.026926	-0.025026	-1.069336	-0.448486	-0.234863	85.063659	7.240954	97.025513
46930		-1.269034	9.643759	0.839893	-0.000103	0.038878	-0.020894	-1.075439	-0.439697	-0.239990	85.066738	7.250888	97.043553
46931		-1.254396	9.639518	0.773073	-0.011935	0.041670	-0.014624	-1.076416	-0.436035	-0.243164	85.063571	7.258560	97.063754
46932		-1.260797	9.664346	0.843109	-0.028753	0.045392	-0.012660	-1.072266	-0.435303	-0.232666	85.050764	7.264117	97.085951
46933		-1.255222	9.633279	0.831492	-0.041192	0.056682	-0.001150	-1.071289	-0.442383	-0.240967	85.032018	7.264851	97.115461
46934		-1.226495	9.615926	0.843598	-0.054661	0.064143	0.008021	-1.073975	-0.441895	-0.240234	85.005862	7.259552	97.149481
46935		-1.258503	9.575156	0.877272	-0.042835	0.076660	0.011580	-1.072021	-0.433594	-0.244873	84.987704	7.254042	97.191126
46936		-1.235598	9.623018	0.829522	-0.038294	0.078700	0.018126	-1.072998	-0.437500	-0.240723	84.972040	7.243728	97.234035
46937		-1.234701	9.623000	0.831066	-0.014934	0.085855	0.014710	-1.075195	-0.436523	-0.233887	84.970544	7.236914	97.281129
46938		-1.259499	9.697662	0.783849	0.009615	0.091307	0.010641	-1.078369	-0.442627	-0.237549	84.983185	7.231507	97.330912
46939		-1.230784	9.680842	0.789469	0.022908	0.091641	0.001223	-1.078613	-0.439453	-0.255127	85.003703	7.232662	97.380652
46940		-1.233805	9.618045	0.876671	0.059588	0.098532	-0.005219	-1.070557	-0.436523	-0.243164	85.045399	7.236626	97.433793
46941		-1.196750	9.628384	0.823113	0.113137	0.100647	-0.023033	-1.075439	-0.440674	-0.242432	85.118130	7.251995	97.487514
46942		-1.247819	9.655617	0.813096	0.150453	0.114975	-0.031293	-1.070557	-0.436523	-0.250244	85.212950	7.271509	97.548862
46943		-1.232015	9.675666	0.763386	0.195359	0.118387	-0.049022	-1.072754	-0.437500	-0.249756	85.333978	7.302377	97.611610
46944		-1.231901	9.611975	0.800173	0.240571	0.127744	-0.059875	-1.072021	-0.441895	-0.253418	85.481274	7.338543	97.679080
46945		-1.201795	9.594136	0.748519	0.287339	0.140279	-0.073995	-1.073975	-0.442871	-0.255371	85.656581	7.384325	97.753487
46946		-1.264673	9.686095	0.661105	0.325393	0.142070	-0.091598	-1.068604	-0.442871	-0.249756	85.853503	7.438818	97.828088
46947		-1.309340	9.796187	0.538729	0.341995	0.125863	-0.127472	-1.075439	-0.449951	-0.251953	86.058955	7.514081	97.892329
46948		-1.358630	9.872003	0.488632	0.347467	0.102736	-0.171774	-1.064209	-0.453369	-0.245117	86.265381	7.612373	97.941559
46949		-1.347610	9.882686	0.442535	0.347502	0.073051	-0.218561	-1.072998	-0.450928	-0.249023	86.469782	7.737348	97.972559
46950		-1.383265	9.859548	0.406044	0.344171	0.056604	-0.259841	-1.068604	-0.453613	-0.249023	86.670596	7.884078	97.992845
46951		-1.448518	9.908339	0.321560	0.337827	0.030174	-0.304882	-1.070313	-0.469238	-0.254150	86.865925	8.056833	97.997161
46952		-1.379833	9.901478	0.351633	0.333924	0.004216	-0.351440	-1.073486	-0.467041	-0.243408	87.056442	8.254239	97.985384
46953		-0.920209	10.186050	0.283426	0.357208	0.046880	-0.445222	-1.070068	-0.478027	-0.246338	87.263914	8.507748	97.996532
46954		-0.959818	10.371190	0.124559	0.394678	0.141689	-0.711463	-1.066162	-0.482910	-0.245850	87.499960	8.914895	98.056275
46955		-1.330466	10.717351	0.348838	0.383807	0.194415	-0.949349	-1.061035	-0.481689	-0.257080	87.734897	9.460374	98.142879
46956		-1.357817	11.187627	0.126682	0.307270	0.213260	-1.201403	-1.059814	-0.503662	-0.251709	87.927818	10.149111	98.236852
46957		-1.290490	11.704008	0.307745	0.177253	0.199310	-1.520847	-1.053955	-0.514404	-0.246094	88.045600	11.021334	98.318547
46958		-1.505944	11.548053	0.456549	0.113876	0.170838	-1.819307	-1.050781	-0.532959	-0.247314	88.123866	12.062677	98.379296
46959		-1.443375	11.649066	0.586145	0.110959	0.145767	-2.115973	-1.040527	-0.535889	-0.243652	88.197949	13.274412	98.421679
46960		-1.535352	11.830563	0.617864	0.202401	0.112822	-2.445866	-1.042725	-0.563477	-0.247559	88.319400	14.673386	98.440792
46961		-1.495958	12.008928	0.851119	0.357979	0.064616	-2.808069	-1.031006	-0.580078	-0.246826	88.522783	16.279939	98.429837
46962		-1.266149	11.948710	1.134559	0.589214	0.074863	-3.269717	-1.020264	-0.606934	-0.243408	88.860215	18.150142	98.426271
46963		-1.319592	11.885767	1.307416	0.799933	0.041665	-3.756081	-0.998535	-0.633057	-0.237793	89.314947	20.299450	98.411764
46964		-1.406984	11.426614	1.221448	0.943581	-0.002380	-4.267333	-0.991943	-0.657227	-0.227539	89.847533	22.740728	98.387259
46965		-1.823594	11.767021	1.027291	1.006495	-0.099808	-4.780033	-0.967285	-0.687500	-0.209229	90.400905	25.476582	98.327386
46966		-2.459402	11.697755	1.164143	0.820301	-0.181233	-5.498135	-0.946533	-0.721680	-0.194336	90.834340	28.624135	98.244862
46967		-3.501610	12.398855	1.675591	0.666235	-0.252087	-6.122687	-0.920654	-0.760010	-0.190430	91.166322	32.130974	98.144391
46968		-5.315466	15.319026	2.116113	0.362990	-0.160010	-6.493598	-0.894775	-0.796875	-0.172852	91.366400	35.849114	98.128593
46969		-9.630114	21.349721	2.329521	-0.122358	0.181147	-6.509833	-0.841797	-0.812256	-0.175293	91.445315	39.571879	98.370740
46970		-12.301378	24.485422	3.125049	-0.802294	0.628696	-5.999805	-0.811279	-0.830811	-0.160645	91.373673	42.996117	98.957501
46971		-9.010405	20.973687	1.870325	-1.238684	1.073766	-5.289759	-0.765137	-0.834473	-0.149658	91.335715	46.007715	99.914738
46972		-5.696801	15.180053	0.731670	-1.216642	1.450530	-4.998900	-0.713135	-0.824951	-0.150635	91.620327	48.846110	101.246419
46973		-1.906935	14.883852	0.719972	-1.103168	1.721630	-4.863979	-0.674805	-0.822510	-0.130127	92.282236	51.593595	102.928898
46974		0.763513	14.244972	1.010398	-1.143215	1.927139	-4.733775	-0.623535	-0.822754	-0.121826	93.256071	54.246256	104.969062
46975		0.910103	10.756353	0.661188	-1.293215	2.114237	-4.675908	-0.579346	-0.810059	-0.110840	94.535960	56.832303	107.418580
46976		0.756735	7.573994	0.844894	-1.438061	2.134862	-4.535292	-0.532715	-0.794189	-0.107178	96.045894	59.304325	110.166995
46977		7.860279	7.740610	-0.764226	-1.530670	2.141884	-3.842692	-0.506592	-0.787598	-0.093506	97.763467	61.337756	113.152056
46978		3.752532	13.352825	-0.568013	-1.678028	2.635181	-2.798521	-0.472656	-0.773438	-0.087646	100.070157	62.685407	116.851662
46979		0.152246	18.988055	0.344991	-2.277913	2.584244	-1.140511	-0.448242	-0.748535	-0.088135	101.833534	63.039943	120.298872
46980		2.552745	11.818385	0.594954	-2.220490	2.619260	0.158030	-0.423340	-0.728516	-0.071777	103.369113	62.621290	123.453862
46981		2.286123	7.467458	0.574933	-1.747894	2.439857	1.055643	-0.401611	-0.699219	-0.056885	104.646675	61.689342	126.030669
46982		1.428451	6.111842	0.846703	-1.305344	2.095644	1.610472	-0.378174	-0.679688	-0.038086	105.555311	60.482965	127.922028
46983		0.749119	5.885111	1.361571	-1.019391	1.723514	1.864525	-0.365967	-0.668213	-0.025391	106.092854	59.179090	129.219053
46984		0.323677	5.453436	1.763274	-0.848926	1.351328	1.979238	-0.346680	-0.660156	0.000977	106.297925	57.871628	130.028769
46985		0.139249	5.103622	2.046884	-0.695905	0.944279	2.082063	-0.331787	-0.652344	0.012207	106.176535	56.568029	130.358683
46986		-0.088899	5.356092	2.328886	-0.520964	0.512450	2.229993	-0.320068	-0.645508	0.032715	105.769872	55.256383	130.227051
46987		-0.275847	5.861814	2.630514	-0.337836	0.090779	2.429964	-0.299072	-0.653076	0.039063	105.114876	53.893184	129.661184
46988		-0.353532	6.311486	2.791851	-0.179565	-0.309008	2.658219	-0.294434	-0.656494	0.059326	104.262374	52.462179	128.723753
46989		-0.468563	6.830084	2.840893	-0.092346	-0.678034	2.864784	-0.284424	-0.662354	0.063477	103.227565	50.952127	127.473437
46990		-0.665913	7.430131	2.817407	-0.092497	-1.013531	3.031287	-0.277100	-0.668945	0.080322	102.035521	49.381499	125.989191
46991		-0.920192	7.984192	2.623660	-0.173111	-1.316564	3.153761	-0.278809	-0.682617	0.083252	100.686113	47.749785	124.322673
46992		-1.020206	8.615098	2.411083	-0.289616	-1.566327	3.280825	-0.282715	-0.699951	0.091797	99.224536	46.050353	122.547327
46993		-1.251558	9.188266	2.102264	-0.392366	-1.760480	3.438873	-0.273682	-0.706787	0.104248	97.697479	44.240275	120.711697
46994		-1.446013	9.646555	1.762140	-0.456466	-1.917069	3.637262	-0.287842	-0.710449	0.106934	96.169520	42.300751	118.863245
46995		-1.614366	10.107262	1.473158	-0.498879	-2.034504	3.854160	-0.297363	-0.731689	0.101318	94.675974	40.202045	117.033219
46996		-1.807430	10.582454	1.121295	-0.514602	-2.104949	4.051025	-0.302490	-0.742676	0.090576	93.270759	37.966560	115.271154
46997		-2.019535	11.159390	0.868462	-0.537021	-2.139300	4.226988	-0.319824	-0.748779	0.085449	91.959455	35.591863	113.596636
46998		-2.426280	11.852783	0.673063	-0.583014	-2.125592	4.366393	-0.337158	-0.750977	0.097656	90.750851	33.115904	112.045841
46999		-2.789752	12.518407	0.459595	-0.658169	-2.102123	4.474311	-0.365723	-0.763428	0.084229	89.616490	30.544279	110.611732
47000		-3.199166	13.026400	0.333915	-0.748094	-2.055970	4.542665	-0.383057	-0.764893	0.093018	88.550695	27.919222	109.305778
47001		-3.590104	13.457944	0.231287	-0.832698	-2.007690	4.578088	-0.398926	-0.765381	0.088867	87.539666	25.246042	108.114256
47002		-3.982372	13.749265	0.237386	-0.866213	-1.974308	4.583080	-0.425049	-0.764893	0.078369	86.601289	22.561873	107.021721
47003		-4.445493	14.234005	0.256478	-0.810607	-1.933812	4.561243	-0.450928	-0.770508	0.069092	85.772696	19.867808	106.016849
47004		-4.920213	14.651864	0.275585	-0.696699	-1.926845	4.535098	-0.477539	-0.758789	0.072998	85.073830	17.185630	105.071506
47005		-5.202113	15.070042	0.358817	-0.516100	-1.926879	4.494073	-0.499268	-0.758545	0.072510	84.530644	14.508348	104.166172
47006		-5.485252	15.769620	0.579160	-0.300561	-1.924326	4.444623	-0.528320	-0.750000	0.082031	84.160213	11.861517	103.293755
47007		-6.059458	16.392782	0.907332	-0.104767	-1.905032	4.385282	-0.539551	-0.730469	0.079102	83.945677	9.236458	102.449702
47008		-6.920432	16.654946	1.425222	0.089682	-1.867555	4.326078	-0.561279	-0.720703	0.093262	83.885633	6.654323	101.637501
47009		-8.429990	16.443711	1.792351	0.302027	-1.810324	4.259504	-0.579590	-0.718018	0.097168	83.985671	4.105253	100.856120
47010		-9.927038	15.918635	2.427340	0.535097	-1.741113	4.177974	-0.594238	-0.704102	0.108887	84.255663	1.617855	100.104910
47011		-11.309258	15.225425	3.050408	0.765577	-1.579636	4.085641	-0.602539	-0.703369	0.120605	84.689902	-0.811272	99.425279
47012		-12.514130	14.337904	3.555226	0.916594	-1.324392	3.965482	-0.612549	-0.700684	0.136230	85.235344	-3.145111	98.865334
47013		-13.558396	13.716698	3.835740	0.889811	-0.975244	3.792152	-0.634277	-0.686768	0.155029	85.774543	-5.365797	98.473341
47014		-14.955097	13.424702	3.474772	0.458771	-0.632506	3.556765	-0.644043	-0.674316	0.154297	86.062933	-7.428165	98.252208
47015		-16.732228	11.973033	2.627743	-0.426745	-0.405509	3.237479	-0.659424	-0.668213	0.166016	85.833811	-9.304364	98.146434
47016		-17.849861	8.728656	1.669550	-1.304384	-0.261260	2.782135	-0.669678	-0.654297	0.158691	85.091978	-10.909138	98.119598
47017		-18.877544	5.471591	0.690452	-1.837724	-0.135116	2.186876	-0.673340	-0.652588	0.161377	84.031138	-12.171755	98.158481
47018		-19.875915	2.465525	-0.215362	-1.981856	-0.053571	1.510163	-0.673096	-0.649902	0.156982	82.881934	-13.038868	98.225035
47019		-20.119585	0.432939	-0.851777	-1.763093	-0.017048	0.819918	-0.674805	-0.645752	0.155029	81.860051	-13.512156	98.275882
47020		-19.779837	0.001277	-1.138414	-1.300019	0.032682	0.183589	-0.679199	-0.644043	0.158936	81.108559	-13.617524	98.307852
47021		-27.890698	-4.266901	-2.569818	0.126731	0.027416	-1.671079	-0.671387	-0.649414	0.152344	81.212709	-12.673819	98.169700
47022		-24.837144	-11.686286	-3.515387	1.883026	-0.199386	-3.143429	-0.651367	-0.665771	0.150146	82.370487	-10.911644	97.788421
47023		0.462025	5.858458	1.099421	2.335860	-0.529405	-3.929152	-0.633545	-0.687256	0.163574	83.808766	-8.715987	97.205068
47024		-1.071193	19.773903	-1.924047	1.412798	-0.605945	-4.155706	-0.618896	-0.701172	0.165039	84.697052	-6.385637	96.612899
47025		0.347885	20.531415	-2.845467	-0.038805	-1.069811	-3.910597	-0.600586	-0.720459	0.161621	84.751244	-4.213320	95.790016
47026		-3.110518	12.773675	-1.454371	-0.807766	-1.184911	-3.799271	-0.583496	-0.725586	0.162109	84.338215	-2.114809	94.902706
47027		-1.044165	9.672204	-3.714984	-0.523562	-0.856257	-3.815196	-0.559814	-0.748779	0.161133	84.051959	0.008014	94.190452
47028		0.431199	16.611655	-5.644501	-0.110213	0.038719	-3.892901	-0.545898	-0.745117	0.158203	83.985504	2.224679	93.976870
47029		-2.708385	26.184049	-2.466439	-0.729865	0.920018	-3.601130	-0.533936	-0.759521	0.149414	83.585459	4.330556	94.275063
47030		-11.204377	24.953570	7.243296	-0.983864	1.130162	-2.484733	-0.513428	-0.770508	0.138672	83.064703	5.815809	94.751434
47031		-6.488035	12.834308	2.991603	0.699848	0.625822	-0.032456	-0.529785	-0.761719	0.145508	83.502804	5.874198	95.104342
47032		0.396008	9.385927	0.848296	0.411620	0.250985	-0.301391	-0.511719	-0.765625	0.134277	83.752110	6.057780	95.225579
47033		-1.869569	12.958120	-1.285223	0.330097	0.200214	-0.240784	-0.515137	-0.762939	0.146973	83.952724	6.205349	95.322521
47034		-1.043392	8.795385	1.638127	0.219491	0.116220	-0.170638	-0.517822	-0.771484	0.146484	84.085138	6.305549	95.375681
47035		-1.479891	10.834800	0.035555	0.080536	0.116569	-0.113992	-0.520508	-0.766846	0.143066	84.138799	6.375471	95.432860
47036		-1.226533	9.574895	1.157773	-0.025974	0.162877	-0.030114	-0.519043	-0.773193	0.138428	84.134615	6.398200	95.521276
47037		-1.351386	9.527894	1.199826	0.057025	0.130836	-0.000403	-0.507813	-0.765869	0.138428	84.176560	6.404129	95.593364
47038		-1.238803	9.933243	0.649469	0.062848	0.133239	0.036143	-0.519775	-0.764648	0.136719	84.221820	6.387278	95.668667
47039		-1.318144	10.008326	0.657957	-0.007474	0.135397	0.046114	-0.516113	-0.766357	0.138916	84.227370	6.366827	95.746064
47040		-1.259678	10.062616	0.652831	-0.073493	0.104350	0.045048	-0.518555	-0.767578	0.139648	84.192682	6.343216	95.805306
47041		-1.183685	9.896281	0.793501	-0.138724	0.066429	0.029892	-0.522949	-0.766357	0.134033	84.118529	6.328037	95.842215
47042		-1.030545	9.468040	1.144322	-0.126987	0.051730	0.019750	-0.516602	-0.766113	0.136230	84.049674	6.315865	95.869831
47043		-1.091713	9.414719	1.193631	-0.059788	0.033714	0.020997	-0.509766	-0.763428	0.132813	84.018608	6.303830	95.887476
47044		-1.207251	9.665720	1.033710	-0.000696	0.013939	0.008405	-0.517334	-0.766846	0.137695	84.019651	6.295899	95.892756
47045		-1.219982	9.680245	0.957906	0.023035	-0.010357	0.001598	-0.520020	-0.770508	0.139160	84.033117	6.292245	95.883963
47046		-1.142451	9.747726	0.969583	0.053465	-0.029970	-0.003300	-0.508057	-0.769775	0.139404	84.062356	6.288372	95.863366
47047		-1.137807	9.753070	0.876579	0.063233	-0.044244	-0.014308	-0.514648	-0.767334	0.137207	84.096611	6.291743	95.834184
47048		-1.157279	9.762860	0.883852	0.066596	-0.055762	-0.017082	-0.508545	-0.765381	0.131348	84.131662	6.294233	95.797979
47049		-1.156974	9.856375	0.768447	0.050832	-0.050793	-0.025245	-0.512939	-0.768311	0.148926	84.158322	6.303441	95.764392
47050		-1.150374	9.755340	0.895909	0.029826	-0.044778	-0.025840	-0.513916	-0.767822	0.148193	84.172932	6.311595	95.733974
47051		-1.069104	9.645617	0.953290	0.034328	-0.047070	-0.035011	-0.510742	-0.769531	0.141113	84.190296	6.326560	95.701948
47052		-1.035332	9.626814	0.923826	0.044636	-0.037162	-0.034581	-0.513916	-0.764404	0.143555	84.213803	6.340158	95.675392
47053		-1.105463	9.634055	0.956206	0.065920	-0.026408	-0.032731	-0.519775	-0.779297	0.142090	84.250568	6.354989	95.655351
47054		-1.163086	9.790640	0.806294	0.056426	-0.023125	-0.027840	-0.513672	-0.769775	0.139404	84.281755	6.365576	95.637249
47055		-1.170873	9.850128	0.797849	0.040451	-0.024626	-0.036657	-0.521973	-0.765137	0.140625	84.304003	6.382723	95.618010
47056		-1.186570	9.828738	0.793771	0.013294	-0.030157	-0.041315	-0.513184	-0.764404	0.136963	84.309933	6.400606	95.595111
47057		-1.133864	9.765001	0.827735	-0.009409	-0.031477	-0.042624	-0.519775	-0.772705	0.141602	84.303126	6.420727	95.571597
47058		-1.117715	9.719960	0.889319	-0.018165	-0.028590	-0.039245	-0.505859	-0.767578	0.144287	84.291130	6.437516	95.549710
47059		-1.116226	9.659914	0.895310	-0.018127	-0.016656	-0.035511	-0.516357	-0.772705	0.139404	84.280308	6.454374	95.535092
47060		-1.097815	9.643869	0.938227	-0.017235	-0.005721	-0.026967	-0.518311	-0.774902	0.140137	84.270389	6.465462	95.527025
47061		-1.113464	9.593383	0.956589	-0.010833	0.009977	-0.018971	-0.512695	-0.769531	0.139404	84.265561	6.474366	95.528628
47062		-1.149186	9.669697	0.945960	-0.008751	0.017586	-0.014244	-0.515625	-0.775146	0.142578	84.262091	6.479534	95.534664
47063		-1.150532	9.669428	0.947075	-0.018565	0.018286	-0.010091	-0.514648	-0.774170	0.139404	84.253420	6.483812	95.541538
47064		-1.162541	9.676785	0.929154	-0.039765	0.016184	-0.014459	-0.516357	-0.770752	0.140137	84.232089	6.489024	95.546756
47065		-1.182537	9.685527	0.946424	-0.050733	0.015328	-0.015886	-0.512207	-0.768799	0.141602	84.204752	6.496400	95.551588
47066		-1.159400	9.644979	0.923777	-0.061879	0.009669	-0.014878	-0.509033	-0.761719	0.144287	84.170324	6.501477	95.553038
47067		-1.099849	9.603686	0.998871	-0.065590	0.008330	-0.013507	-0.514160	-0.778320	0.144287	84.134029	6.507059	95.553983
47068		-1.151778	9.635684	0.955879	-0.051310	0.010233	-0.017442	-0.507568	-0.770996	0.139160	84.105677	6.513633	95.555599
47069		-1.178623	9.674783	0.988167	-0.039556	0.007472	-0.023816	-0.509521	-0.769043	0.142822	84.084163	6.525002	95.555430
47070		-1.147329	9.661910	0.911202	-0.030074	-0.006075	-0.029360	-0.509033	-0.767578	0.142578	84.066833	6.537405	95.546977
47071		-1.175266	9.701027	0.941892	-0.023348	-0.006238	-0.036863	-0.515381	-0.760742	0.137207	84.053614	6.555364	95.538153
47072		-1.178886	9.700379	0.944040	-0.018602	-0.013007	-0.039641	-0.512939	-0.774170	0.136719	84.042327	6.573210	95.525102
47073		-1.174996	9.698283	0.912434	-0.019766	-0.012930	-0.042089	-0.512695	-0.779785	0.143066	84.030674	6.593713	95.512114
47074		-1.185606	9.728005	0.929673	-0.023444	-0.017516	-0.046990	-0.506104	-0.767090	0.142578	84.016254	6.615472	95.496026
47075		-1.202097	9.706001	0.930436	-0.026089	-0.018301	-0.049518	-0.515381	-0.769775	0.143799	84.000556	6.639851	95.479495
47076		-1.148189	9.671058	0.948377	-0.035750	-0.009572	-0.041538	-0.511230	-0.766846	0.135742	83.979637	6.658970	95.468279
47077		-1.131899	9.625541	1.011600	-0.037664	0.002800	-0.038681	-0.513184	-0.766846	0.146973	83.958772	6.678403	95.464488
47078		-1.164719	9.641832	1.007149	-0.025202	0.014839	-0.036533	-0.511719	-0.776123	0.135498	83.945553	6.696137	95.467567
47079		-1.152092	9.573976	1.032767	-0.011161	0.027103	-0.027960	-0.513184	-0.769043	0.142578	83.941566	6.710899	95.478357
47080		-1.135751	9.593473	1.000742	0.009066	0.041183	-0.034068	-0.515625	-0.771240	0.139404	83.949770	6.728821	95.496698
47081		-1.137822	9.557791	1.070826	0.035033	0.055538	-0.034299	-0.512695	-0.772461	0.139160	83.974120	6.748876	95.523418
47082		-1.153434	9.536757	1.063235	0.069417	0.069351	-0.029274	-0.512939	-0.766602	0.131592	84.018851	6.765738	95.558229
47083		-1.173035	9.604576	1.029797	0.105494	0.076948	-0.030401	-0.511475	-0.769775	0.143066	84.085060	6.784772	95.597495
47084		-1.179905	9.611686	0.963613	0.125779	0.080777	-0.037200	-0.508301	-0.771240	0.136475	84.162833	6.806746	95.638437
47085		-1.232166	9.638692	0.954704	0.152463	0.086784	-0.042880	-0.504150	-0.773926	0.135498	84.256568	6.833329	95.682673
47086		-1.204929	9.709539	0.889288	0.172282	0.082285	-0.057528	-0.503418	-0.766357	0.141357	84.360998	6.866846	95.723392
47087		-1.241013	9.727251	0.862871	0.194059	0.077357	-0.071279	-0.509521	-0.773193	0.149902	84.477787	6.908916	95.760717
47088		-1.182487	9.721498	0.804870	0.219454	0.064740	-0.099738	-0.509277	-0.775391	0.145020	84.607827	6.965387	95.789183
47089		-1.201613	9.752529	0.795069	0.267885	0.054154	-0.145140	-0.501221	-0.769043	0.141113	84.764909	7.048167	95.809422
47090		-1.228583	9.852071	0.635050	0.295196	0.031666	-0.201968	-0.505371	-0.769043	0.148682	84.935459	7.161121	95.813886
47091		-1.207494	9.879059	0.648461	0.333327	0.007186	-0.274124	-0.504395	-0.770752	0.143066	85.125970	7.315050	95.801150
47092		-1.171363	9.871206	0.574662	0.414603	-0.004964	-0.361857	-0.499756	-0.779053	0.144531	85.361349	7.517525	95.777648
47093		-1.236683	9.937311	0.537374	0.495340	-0.009724	-0.458353	-0.502441	-0.775391	0.146484	85.642363	7.775996	95.748070
47094		-1.119814	10.232543	0.469846	0.556942	-0.007512	-0.578383	-0.489258	-0.773926	0.149170	85.957885	8.102309	95.715882
47095		-0.398602	11.013906	0.082862	0.599036	0.142216	-0.896377	-0.489502	-0.781250	0.150391	86.308645	8.617323	95.759807
47096		-0.915380	11.541779	0.472518	0.535591	0.254656	-1.372881	-0.494873	-0.785400	0.158936	86.631267	9.407583	95.854814
47097		-1.252083	12.107205	0.728155	0.364862	0.263708	-1.725713	-0.481689	-0.788330	0.160156	86.857464	10.400378	95.947649
47098		-1.322070	12.424323	0.425325	0.126575	0.226438	-2.066397	-0.467529	-0.803711	0.162842	86.942922	11.585812	96.010945
47099		-1.499430	12.486488	0.275691	-0.029189	0.139491	-2.431023	-0.457764	-0.795654	0.160156	86.927822	12.977946	96.013084
47100		-1.578074	12.205030	0.431939	-0.112177	0.029950	-2.755893	-0.444580	-0.798340	0.157959	86.846770	14.551751	95.938961
47101		-1.641577	11.740417	0.807531	-0.055184	-0.056722	-3.104093	-0.434570	-0.820557	0.154785	86.779165	16.322583	95.799371
47102		-1.413942	11.980594	1.026549	0.058319	-0.168388	-3.469389	-0.421875	-0.828369	0.162842	86.747385	18.297965	95.577384
47103		-1.353339	11.094039	1.389962	0.154433	-0.215205	-3.976548	-0.393555	-0.820313	0.172119	86.746843	20.562433	95.306348
47104		-0.878757	11.611606	1.821898	0.363891	-0.270478	-4.368686	-0.373291	-0.836182	0.165283	86.836911	23.049103	94.985200
47105		-1.622054	10.618418	2.293054	0.479321	-0.214402	-4.973957	-0.357422	-0.839600	0.172607	86.985467	25.884761	94.678168
47106		-2.095488	11.463059	1.901161	0.507571	-0.161394	-5.712249	-0.321289	-0.852783	0.179199	87.139952	29.144808	94.381143
47107		-3.200927	12.090962	2.104327	0.393263	-0.209533	-6.332278	-0.285156	-0.851074	0.179443	87.184640	32.758902	94.028065
47108		-5.617040	15.387688	2.231946	0.166435	-0.102304	-6.657494	-0.255859	-0.853760	0.189453	87.106669	36.561931	93.721873
47109		-10.095391	20.780890	3.319779	-0.240189	0.154223	-6.808119	-0.214355	-0.855469	0.191406	86.874431	40.458043	93.568637
47110		-12.422003	25.672506	4.066739	-1.061152	0.573385	-6.401320	-0.187744	-0.855225	0.176758	86.365699	44.134880	93.715090
47111		-9.411199	22.580995	3.307581	-1.749101	1.043454	-5.669030	-0.156006	-0.864258	0.180664	85.743798	47.412022	94.244773
47112		-6.532937	15.751082	1.344520	-1.889013	1.513264	-5.338915	-0.134277	-0.842041	0.182373	85.379753	50.525077	95.195820
47113		-2.622946	15.142044	1.442712	-1.665772	1.811009	-5.173711	-0.111816	-0.849121	0.176758	85.443522	53.558054	96.485985
47114		0.234023	14.863633	1.642378	-1.558893	2.063754	-5.033581	-0.081787	-0.835205	0.179443	85.922454	56.519282	98.158850
47115		1.769444	12.816851	1.555599	-1.569468	2.316339	-5.082279	-0.051758	-0.835449	0.187256	86.844963	59.503943	100.305246
47116		2.791019	10.944796	1.740883	-1.705393	2.511865	-5.199998	-0.020264	-0.823975	0.183350	88.228084	62.539398	103.001529
47117		3.012204	8.614610	1.410458	-1.871686	2.603762	-4.814420	-0.001709	-0.815430	0.188477	90.115744	65.314036	106.295223
47118		10.411666	8.157681	-1.526701	-1.927627	2.752386	-3.850204	0.018066	-0.812012	0.187256	92.738338	67.477811	110.360848
47119		1.752160	18.951264	0.022118	-2.285625	3.306664	-2.272719	0.039551	-0.799805	0.198242	96.361568	68.620436	115.677798
47120		1.770118	19.232940	0.508867	-2.745786	3.310106	-0.187237	0.041016	-0.808594	0.192139	99.596240	68.460184	120.842577
47121		2.523999	11.808787	0.904245	-2.337911	3.336932	1.332543	0.046387	-0.819092	0.192139	102.504077	67.336832	125.425821
47122		1.331819	8.042200	0.913669	-1.665092	3.048565	2.397067	0.035156	-0.827393	0.203369	104.697606	65.587785	128.857654
47123		0.213832	6.652104	1.432327	-1.130035	2.599949	2.999677	0.028564	-0.836670	0.220459	106.095959	63.528192	131.122669
47124		-0.469483	5.774181	1.948567	-0.752977	2.120550	3.249377	0.017090	-0.860107	0.215820	106.877987	61.395587	132.490004
47125		-0.890074	5.086459	2.434201	-0.478307	1.630780	3.282011	0.002441	-0.875488	0.224365	107.192914	59.317154	133.167810
47126		-0.844717	4.862158	2.790027	-0.301067	1.107416	3.218570	-0.013916	-0.887451	0.240967	107.115129	57.365544	133.278071
47127		-0.752184	5.317148	3.113845	-0.219219	0.612944	3.147867	-0.019043	-0.899414	0.233154	106.693811	55.530890	132.923884
47128		-0.752981	6.175501	3.351739	-0.197508	0.147550	3.117452	-0.034424	-0.914063	0.240723	105.980978	53.790569	132.187804
47129		-0.773348	7.094012	3.462841	-0.256946	-0.284383	3.160416	-0.048828	-0.927246	0.239746	104.975512	52.081646	131.113337
47130		-0.792126	7.881149	3.368074	-0.375555	-0.689393	3.258224	-0.067627	-0.948242	0.247070	103.703663	50.368090	129.757047
47131		-0.833593	8.490292	3.047286	-0.531110	-1.063310	3.384603	-0.084961	-0.958496	0.237549	102.186529	48.606641	128.163286
47132		-0.887570	8.853272	2.617493	-0.675777	-1.409642	3.518807	-0.103516	-0.991699	0.232178	100.489604	46.785620	126.391568
47133		-0.999182	9.190452	2.196604	-0.776847	-1.705930	3.677199	-0.131592	-0.999023	0.219971	98.683088	44.862127	124.495253
47134		-1.197135	9.654269	1.830015	-0.838480	-1.970535	3.849439	-0.153320	-1.013428	0.206055	96.838836	42.825885	122.525647
47135		-1.367490	10.230177	1.479651	-0.862347	-2.169631	4.047939	-0.190674	-1.029053	0.196777	95.021012	40.637776	120.539220
47136		-1.549373	10.808699	1.190216	-0.843508	-2.327440	4.255594	-0.227295	-1.030273	0.184814	93.294345	38.298983	118.582474
47137		-1.710833	11.483618	0.893529	-0.808849	-2.429829	4.462024	-0.267090	-1.042236	0.179199	91.691296	35.795003	116.693300
47138		-1.937418	12.044503	0.676031	-0.752936	-2.466862	4.660071	-0.302246	-1.043945	0.166260	90.256560	33.145591	114.919779
47139		-2.234199	12.667961	0.466455	-0.685189	-2.463929	4.834084	-0.347656	-1.039551	0.157227	88.997065	30.355733	113.274747
47140		-2.644169	13.037132	0.338434	-0.586872	-2.421630	4.964383	-0.395508	-1.038086	0.154541	87.935432	27.471338	111.773377
47141		-3.098643	13.467368	0.383295	-0.461143	-2.378138	5.061025	-0.434082	-1.017578	0.148438	87.066033	24.503508	110.394424
47142		-3.425271	14.122231	0.543154	-0.337564	-2.344606	5.122375	-0.476074	-1.014160	0.149658	86.373905	21.492596	109.116358
47143		-4.093354	15.036446	0.716054	-0.241696	-2.337245	5.129824	-0.517578	-0.993408	0.151367	85.820304	18.457420	107.903072
47144		-4.463184	16.161654	1.241340	-0.168917	-2.354087	5.110128	-0.552002	-0.986816	0.154785	85.381962	15.430709	106.728664
47145		-5.426929	17.495336	1.883333	-0.076559	-2.389694	5.088050	-0.606445	-0.956787	0.163086	85.058883	12.399756	105.569082
47146		-7.008905	18.846607	2.530770	0.023922	-2.492820	5.134672	-0.632813	-0.946777	0.183105	84.849260	9.339549	104.380649
47147		-9.091399	20.084550	2.734621	0.120378	-2.667297	5.249315	-0.670898	-0.911621	0.204590	84.747231	6.194089	103.115987
47148		-11.720661	20.380025	2.770723	0.268858	-2.841953	5.369271	-0.704346	-0.887695	0.224854	84.794314	2.978039	101.767438
47149		-14.416713	19.634823	3.053979	0.533088	-2.928310	5.449090	-0.731445	-0.850586	0.259277	85.067194	-0.291189	100.368087
47150		-16.483388	18.146848	3.277230	0.831016	-2.803479	5.421493	-0.753662	-0.820557	0.275879	85.589337	-3.522024	99.016294
47151		-17.958992	16.151428	3.597427	1.003988	-2.485728	5.237076	-0.772949	-0.784424	0.301025	86.272641	-6.626001	97.800269
47152		-18.869517	13.887319	3.797980	0.898336	-2.008837	4.858592	-0.792969	-0.757813	0.318359	86.928017	-9.477016	96.803300
47153		-19.875442	11.684706	3.316170	0.353519	-1.533923	4.275858	-0.797119	-0.731201	0.331543	87.274401	-11.976492	96.032422
47154		-20.692368	8.649149	2.228881	-0.535529	-1.143271	3.503386	-0.811768	-0.714844	0.341064	87.097459	-14.017332	95.458634
47155		-21.281721	4.940517	0.987980	-1.249256	-0.724447	2.608807	-0.820801	-0.694336	0.339600	86.469974	-15.539679	95.113242
47156		-21.929443	2.154971	-0.081518	-1.587557	-0.303754	1.710736	-0.821289	-0.687500	0.341309	85.592574	-16.533406	94.999712
47157		-22.450559	1.086849	-0.850327	-1.592166	0.083381	0.925596	-0.817871	-0.690186	0.333252	84.653553	-17.062971	95.093210
47158		-25.755703	-2.071894	-4.129417	-1.384399	0.390186	0.292937	-0.816162	-0.683594	0.328857	83.788407	-17.211412	95.340292
47159		-29.783436	-4.142233	-0.890763	-0.062201	0.431034	-2.036717	-0.807861	-0.702637	0.334229	83.718745	-16.028206	95.460824
47160		-21.564050	-9.951688	-1.820132	1.685595	0.075791	-3.498765	-0.804199	-0.719971	0.341309	84.728921	-14.033356	95.293346
47161		1.154344	12.077836	-2.021815	1.670559	-0.110482	-4.127723	-0.788330	-0.732178	0.343750	85.746655	-11.683827	95.024124
47162		4.225515	21.609463	-4.121566	0.013702	-0.483086	-4.125284	-0.764160	-0.758301	0.340088	85.839436	-9.350750	94.563667
47163		0.007758	14.261971	-2.530761	-1.100697	-0.795070	-4.131015	-0.750732	-0.785400	0.339844	85.301600	-7.028115	93.916978
47164		-3.461287	10.902865	-0.923836	-1.125950	-0.672475	-4.140464	-0.733887	-0.810791	0.343262	84.718219	-4.702222	93.320443
47165		-1.372462	11.847994	-3.263591	-0.861614	-0.274520	-4.034925	-0.714844	-0.828369	0.340820	84.249160	-2.418110	92.937840
47166		-0.894715	18.056383	-2.765030	-0.790705	0.369378	-4.076579	-0.686523	-0.858887	0.335693	83.797702	-0.077044	92.901928
47167		-2.497944	20.609135	-2.121764	-1.113276	0.821085	-3.824780	-0.672119	-0.868164	0.322754	83.164873	2.151730	93.117547
47168		-3.344047	17.713078	5.183162	-1.541243	1.103221	-3.289138	-0.653076	-0.877930	0.307617	82.303630	4.097019	93.503675
47169		-11.705213	18.353372	12.599340	-0.360313	0.957910	-2.222862	-0.649414	-0.897705	0.305420	82.129148	5.431355	93.873344
47170		-5.311792	13.924031	0.807818	1.259083	0.280162	-0.315557	-0.638672	-0.892578	0.306396	82.864235	5.627508	94.006411
47171		0.781760	13.569059	-2.551716	0.196563	0.151181	-0.406829	-0.644531	-0.901855	0.317383	82.983284	5.868084	94.060988
47172		-2.392805	9.969895	1.659581	-0.093341	0.180844	-0.265261	-0.646973	-0.894775	0.311035	82.939115	6.027585	94.142516
47173		-1.243318	9.260098	1.498816	0.080479	0.057633	-0.147354	-0.645996	-0.895508	0.317383	82.988389	6.113911	94.162117
47174		-1.341690	10.823169	0.341732	-0.000364	0.097661	-0.080865	-0.634521	-0.893066	0.314453	82.994072	6.162692	94.209146
47175		-1.403817	9.696830	1.275633	-0.009676	0.074954	-0.029185	-0.641602	-0.902344	0.318359	82.993707	6.182961	94.247005
47176		-1.221290	10.054934	0.845061	0.033118	0.034314	-0.007694	-0.637451	-0.894043	0.315918	83.015263	6.185699	94.262950
47177		-1.294669	9.980122	0.882305	-0.000960	0.027936	0.009362	-0.636719	-0.902832	0.313965	83.017299	6.180703	94.276617
47178		-1.174398	9.874971	0.983243	-0.044304	0.006606	0.002992	-0.639893	-0.899658	0.313477	82.992869	6.175431	94.277462
47179		-1.107234	9.648710	1.185107	-0.059565	-0.025270	-0.015999	-0.642090	-0.899658	0.306885	82.957868	6.181079	94.258910
47180		-1.148308	9.702408	1.145776	-0.051407	-0.036354	-0.027386	-0.636719	-0.903076	0.310059	82.926490	6.190056	94.233039
47181		-1.160727	9.738977	1.113085	-0.055044	-0.049551	-0.029960	-0.639893	-0.900146	0.312988	82.892460	6.201840	94.199596
47182		-1.141196	9.721799	1.158300	-0.030783	-0.064670	-0.035693	-0.635498	-0.900391	0.312012	82.871072	6.213503	94.156928
47183		-1.126116	9.712226	1.147048	-0.001234	-0.072747	-0.045101	-0.636475	-0.898926	0.312988	82.866295	6.232161	94.109122
47184		-1.162781	9.765555	1.068351	0.020969	-0.088273	-0.061268	-0.640625	-0.900879	0.312500	82.872863	6.256677	94.051120
47185		-1.189495	9.810630	1.009296	0.013981	-0.103433	-0.068021	-0.634766	-0.896973	0.317871	82.874662	6.286130	93.984115
