// General information: 
//  MT Manager version: 2022.2.0 
//  XDA version: 2022.2.0 build 7381 rev 124627 built on 2023-07-19
// Device information: 
//  DeviceId: 00B4C223
//  ProductCode: MTW2-3A7G6
//  Firmware Version: 4.6.0
//  Hardware Version: 2.0.0
// Device settings: 
//  Filter Profile: human(46.1)
//  Option Flags: Orientation Smoother Disabled, Position/Velocity Smoother Disabled, Continuous Zero Rotation Update Disabled, AHS Disabled, ICC Disabled
// Coordinate system: ENU
PacketCounter	SampleTimeFine	Acc_X	Acc_Y	Acc_Z	Gyr_X	Gyr_Y	Gyr_Z	Mag_X	Mag_Y	Mag_Z	Roll	Pitch	Yaw
61271		-2.642773	9.289914	1.832974	-0.002114	-0.000738	0.003038	-1.104004	-0.441895	-0.130615	79.604260	15.795537	121.857916
61272		-2.625995	9.285418	1.815891	-0.003284	0.001917	0.000798	-1.106201	-0.442871	-0.117432	79.604641	15.795771	121.859091
61273		-2.625976	9.285366	1.816187	-0.003572	-0.000196	-0.000050	-1.103760	-0.444092	-0.119141	79.601776	15.795598	121.857701
61274		-2.633962	9.304526	1.803831	-0.004485	0.000492	0.001893	-1.100098	-0.445557	-0.132813	79.601274	15.795067	121.858159
61275		-2.617702	9.266053	1.829739	-0.006568	0.003835	0.001597	-1.105225	-0.441650	-0.121582	79.597397	15.794405	121.860140
61276		-2.658269	9.275294	1.823285	-0.005061	-0.003736	0.000197	-1.113525	-0.451172	-0.117920	79.595841	15.794392	121.857940
61277		-2.601487	9.280298	1.842353	-0.004191	-0.001098	0.002357	-1.101563	-0.443604	-0.123291	79.592580	15.792781	121.856081
61278		-2.633909	9.270399	1.848381	-0.002996	0.004031	0.001647	-1.110596	-0.450928	-0.124268	79.593488	15.792756	121.858585
61279		-2.609421	9.299420	1.830276	-0.005943	0.001033	-0.001194	-1.104248	-0.443359	-0.127930	79.589464	15.793379	121.858501
61280		-2.625401	9.284961	1.819085	-0.002990	0.000327	0.001262	-1.104980	-0.445801	-0.120605	79.589774	15.793187	121.858794
61281		-2.641929	9.289404	1.836774	-0.005067	-0.000033	0.000581	-1.111572	-0.450684	-0.118408	79.586143	15.792687	121.857942
61282		-2.641213	9.270472	1.808296	-0.004779	0.002081	0.001430	-1.104736	-0.442627	-0.126465	79.585712	15.792582	121.859281
61283		-2.601224	9.279916	1.844652	-0.005942	0.001033	-0.001194	-1.102539	-0.440674	-0.112549	79.581712	15.793196	121.858740
61284		-2.657951	9.274775	1.826385	-0.002083	0.003343	-0.000296	-1.101563	-0.447754	-0.129639	79.582977	15.794195	121.860631
61285		-2.609277	9.299015	1.832538	-0.005398	0.001178	0.003836	-1.113281	-0.443604	-0.118896	79.579471	15.791999	121.860425
61286		-2.632904	9.251016	1.822595	-0.004767	-0.005326	0.000659	-1.115479	-0.438232	-0.112549	79.577844	15.791560	121.857343
61287		-2.641549	9.288998	1.839371	-0.007149	0.003310	0.000286	-1.112793	-0.443115	-0.124512	79.573582	15.791531	121.856066
61288		-2.640897	9.270071	1.810813	-0.001495	0.000163	0.000631	-1.104736	-0.445557	-0.121338	79.574704	15.791677	121.856196
61289		-2.648851	9.289269	1.798367	-0.004484	0.000490	0.001893	-1.106934	-0.443115	-0.120361	79.571572	15.790491	121.855638
61290		-2.632749	9.303601	1.810359	-0.004778	0.002080	0.001430	-1.101563	-0.440674	-0.123535	79.571141	15.790386	121.856976
61291		-2.616562	9.265103	1.836166	-0.005072	0.003670	0.000967	-1.104736	-0.446045	-0.123291	79.568167	15.790058	121.858151
61292		-2.616696	9.317847	1.822715	-0.005072	0.003670	0.000967	-1.110352	-0.436279	-0.129883	79.567808	15.790379	121.860370
61293		-2.657819	9.293157	1.858822	-0.003571	-0.000197	-0.000050	-1.109863	-0.437988	-0.121338	79.565053	15.790208	121.859378
61294		-2.616466	9.264938	1.837138	-0.001201	-0.001426	0.001094	-1.108887	-0.444336	-0.121338	79.566103	15.789928	121.858627
61295		-2.624426	9.284124	1.824756	-0.006566	0.003833	0.001598	-1.107178	-0.448975	-0.118896	79.562337	15.789248	121.859396
61296		-2.624415	9.284024	1.825280	-0.005648	-0.000557	-0.000731	-1.107666	-0.441162	-0.122803	79.560925	15.790088	121.858956
61297		-2.615873	9.298686	1.795650	-0.003283	0.001916	0.000799	-1.105469	-0.438477	-0.122314	79.558726	15.789684	121.859171
61298		-2.641573	9.254401	1.885951	-0.002370	0.001230	-0.001144	-1.104004	-0.444336	-0.117676	79.559464	15.790942	121.859733
61299		-2.640364	9.269491	1.814557	-0.003902	0.001013	0.003205	-1.106934	-0.444580	-0.116699	79.556845	15.789081	121.859345
61300		-2.632288	9.303083	1.813688	-0.001495	0.000163	0.000631	-1.104980	-0.445313	-0.125244	79.557967	15.789227	121.859474
61301		-2.624312	9.283774	1.826698	-0.004735	-0.001244	-0.002675	-1.104736	-0.439941	-0.120117	79.554353	15.790459	121.857629
61302		-2.624377	9.283671	1.827129	-0.004778	0.002079	0.001430	-1.107422	-0.452393	-0.125977	79.553922	15.790354	121.858966
61303		-2.648830	9.307366	1.832113	-0.003609	-0.000577	0.003668	-1.101318	-0.444336	-0.123779	79.551255	15.788084	121.858585
61304		-2.623859	9.283669	1.827882	-0.004190	-0.001100	0.002356	-1.109863	-0.448975	-0.122803	79.550682	15.787128	121.858161
61305		-2.615652	9.264395	1.841029	-0.005066	-0.000034	0.000581	-1.109131	-0.451660	-0.125244	79.547187	15.786658	121.857868
61306		-2.622987	9.264735	1.799770	-0.002989	0.000326	0.001262	-1.112793	-0.440918	-0.119873	79.547497	15.786466	121.858161
61307		-2.624330	9.302356	1.857827	-0.001164	-0.001046	-0.002624	-1.105469	-0.443359	-0.120850	79.545992	15.787678	121.856395
61308		-2.639694	9.269114	1.817452	-0.002701	0.002439	0.002111	-1.108643	-0.451172	-0.120850	79.546829	15.787227	121.858017
61309		-2.599617	9.278576	1.853631	-0.003571	-0.000197	-0.000050	-1.110107	-0.445313	-0.129883	79.544169	15.787097	121.857171
61310		-2.615054	9.298161	1.799556	-0.002995	0.004029	0.001649	-1.106201	-0.446533	-0.125732	79.545077	15.787072	121.859674
61311		-2.639540	9.269007	1.818221	-0.003571	-0.000197	-0.000050	-1.110352	-0.442383	-0.123047	79.542419	15.786925	121.859578
61312		-2.631666	9.302523	1.817461	-0.003864	0.001393	-0.000513	-1.105957	-0.445068	-0.131592	79.542345	15.787844	121.860304
61313		-2.598970	9.259511	1.825868	-0.003571	-0.000197	-0.000050	-1.110840	-0.449219	-0.121826	79.539698	15.787688	121.859752
61314		-2.624206	9.301998	1.859792	-0.004484	0.000489	0.001893	-1.102051	-0.451172	-0.113037	79.539196	15.787157	121.860208
61315		-2.623450	9.283145	1.831129	-0.001495	0.000163	0.000631	-1.106689	-0.442139	-0.123291	79.537843	15.786700	121.859487
61316		-2.655972	9.273230	1.837079	-0.003277	-0.001787	0.000412	-1.115723	-0.449463	-0.126953	79.537626	15.786767	121.858451
61317		-2.631370	9.302318	1.818937	-0.002994	0.004029	0.001649	-1.108398	-0.444580	-0.126465	79.536054	15.786094	121.860403
61318		-2.639075	9.268723	1.820340	-0.005396	0.001174	0.003836	-1.104004	-0.442139	-0.125244	79.535195	15.784540	121.861471
61319		-2.655596	9.273145	1.838048	-0.004158	0.002983	-0.000975	-1.106934	-0.445068	-0.125000	79.532723	15.785242	121.862421
61320		-2.639117	9.268587	1.820975	-0.002370	0.001230	-0.001144	-1.114990	-0.443115	-0.121582	79.533461	15.786500	121.862983
61321		-2.623183	9.282900	1.832752	-0.001494	0.000163	0.000631	-1.105469	-0.443848	-0.120605	79.532127	15.785996	121.861921
61322		-2.647091	9.287774	1.808651	-0.002696	-0.001264	0.001724	-1.104004	-0.446777	-0.128662	79.532365	15.785378	121.861332
61323		-2.638860	9.268520	1.821687	-0.004483	0.000488	0.001893	-1.106445	-0.443115	-0.118408	79.529419	15.784230	121.861366
61324		-2.622833	9.282863	1.833439	0.001494	-0.000163	-0.000631	-1.104248	-0.444336	-0.122314	79.532164	15.785053	121.861168
61325		-2.606142	9.278364	1.816380	-0.007766	0.002404	0.002692	-1.108643	-0.440430	-0.116943	79.527681	15.783644	121.861275
61326		-2.638627	9.268411	1.822579	-0.003571	-0.000197	-0.000051	-1.112305	-0.448242	-0.119873	79.527535	15.784137	121.861120
61327		-2.614069	9.297462	1.804591	-0.005065	-0.000035	0.000580	-1.108643	-0.443848	-0.116943	79.524163	15.783649	121.859068
61328		-2.638525	9.268276	1.823411	-0.004777	0.002078	0.001430	-1.104980	-0.442627	-0.123047	79.523732	15.783544	121.860405
61329		-2.630479	9.301826	1.822739	-0.004483	0.000488	0.001893	-1.099854	-0.438477	-0.119385	79.520824	15.782379	121.859211
61330		-2.654833	9.272670	1.841548	-0.005983	0.004353	0.002912	-1.112061	-0.450195	-0.124023	79.520108	15.781678	121.862041
61331		-2.580956	9.254300	1.814312	-0.004445	0.000870	-0.001825	-1.103516	-0.434814	-0.126465	79.517181	15.782661	121.861335
61332		-2.646044	9.287356	1.812325	-0.003939	0.000628	0.006923	-1.108398	-0.444580	-0.128662	79.517161	15.779311	121.862418
61333		-2.613734	9.263174	1.849877	-0.009515	0.004538	-0.000857	-1.106934	-0.440430	-0.127197	79.511940	15.780097	121.864243
61334		-2.646003	9.287138	1.813499	-0.004734	-0.001242	-0.002676	-1.105225	-0.447754	-0.121826	79.510884	15.781960	121.863191
61335		-2.646623	9.305874	1.842851	-0.003901	0.001010	0.003205	-1.115234	-0.447998	-0.120605	79.508458	15.780125	121.863577
61336		-2.621739	9.282143	1.838643	-0.006270	0.002240	0.002061	-1.095459	-0.437500	-0.127686	79.507215	15.779682	121.865077
61337		-2.621617	9.282087	1.839099	-0.004776	0.002077	0.001430	-1.114502	-0.439453	-0.128174	79.504414	15.778952	121.865603
61338		-2.645591	9.286933	1.815151	-0.003570	-0.000197	-0.000051	-1.101563	-0.448242	-0.131592	79.504268	15.779445	121.865447
61339		-2.630223	9.267157	1.869765	-0.002658	-0.000882	-0.001995	-1.106689	-0.444824	-0.125000	79.502111	15.780333	121.864953
61340		-2.637523	9.267600	1.828294	-0.001537	0.003482	0.004738	-1.099609	-0.450928	-0.121582	79.503857	15.778512	121.867471
61341		-2.637264	9.267632	1.828503	-0.002984	-0.003378	0.000872	-1.105957	-0.450195	-0.124023	79.501223	15.777577	121.865546
61342		-2.612597	9.296703	1.810621	-0.006559	0.000127	0.001210	-1.109863	-0.446533	-0.117188	79.499455	15.777393	121.865717
61343		-2.621047	9.281838	1.841165	-0.004771	-0.001625	0.001041	-1.106201	-0.445801	-0.126465	79.496095	15.776526	121.864010
61344		-2.628333	9.282251	1.799911	-0.002988	0.000325	0.001262	-1.110840	-0.445557	-0.126953	79.496404	15.776334	121.864303
61345		-2.636818	9.267409	1.830278	-0.005064	-0.000035	0.000580	-1.104492	-0.441162	-0.126953	79.493114	15.775869	121.864110
61346		-2.620174	9.262880	1.813360	-0.003570	-0.000198	-0.000051	-1.101074	-0.443848	-0.121826	79.492969	15.776362	121.863954
61347		-2.620231	9.262792	1.813729	-0.004152	-0.000720	-0.001364	-1.108154	-0.445313	-0.117676	79.490049	15.776925	121.862320
61348		-2.645533	9.305191	1.847859	-0.008057	0.003991	0.002231	-1.110596	-0.445801	-0.131592	79.488067	15.776570	121.864864
61349		-2.636708	9.267106	1.831969	-0.001201	-0.001428	0.001092	-1.107422	-0.442871	-0.123291	79.486808	15.775670	121.863387
61350		-2.620560	9.281457	1.843781	-0.002407	0.000846	0.002574	-1.099854	-0.443848	-0.123291	79.487573	15.774793	121.864127
61351		-2.620533	9.281384	1.844185	-0.006227	-0.001079	-0.002046	-1.105225	-0.443848	-0.118164	79.483408	15.775708	121.862138
61352		-2.620543	9.281303	1.844581	-0.002700	0.002436	0.002113	-1.107910	-0.439941	-0.121826	79.484244	15.775257	121.863759
61353		-2.652424	9.305461	1.807966	-0.005976	0.000648	0.002523	-1.112305	-0.448975	-0.118164	79.480644	15.773757	121.862202
61354		-2.603636	9.276762	1.828118	-0.005357	0.001555	0.000118	-1.102539	-0.437012	-0.124268	79.479758	15.774338	121.863090
61355		-2.628049	9.247582	1.846863	-0.003901	0.001008	0.003205	-1.104736	-0.451904	-0.122314	79.477434	15.772497	121.862293
61356		-2.627414	9.281592	1.804643	-0.005645	-0.000558	-0.000733	-1.102783	-0.446533	-0.122803	79.476022	15.773336	121.861852
61357		-2.620067	9.281011	1.846723	-0.005361	0.005256	0.000509	-1.102783	-0.448730	-0.130127	79.473474	15.773522	121.865080
61358		-2.651454	9.286335	1.781265	-0.006558	0.000126	0.001210	-1.103027	-0.441162	-0.126221	79.471705	15.773338	121.865250
61359		-2.659840	9.271507	1.811613	-0.002118	0.002957	0.003426	-1.102783	-0.453369	-0.125244	79.470733	15.771612	121.867769
61360		-2.618988	9.262137	1.818861	-0.004482	0.000486	0.001892	-1.110107	-0.436279	-0.117920	79.470231	15.771082	121.868224
61361		-2.643557	9.285796	1.823908	-0.005068	0.003666	0.000970	-1.110840	-0.445313	-0.121826	79.467630	15.770799	121.869113
61362		-2.626870	9.281306	1.806907	-0.002988	0.000324	0.001261	-1.104492	-0.437012	-0.123535	79.467940	15.770607	121.869404
61363		-2.627356	9.247203	1.849747	-0.001787	0.001752	0.000170	-1.113525	-0.442627	-0.123291	79.466896	15.770544	121.868531
61364		-2.635980	9.285226	1.866208	-0.002699	0.002436	0.002113	-1.104492	-0.440918	-0.126465	79.467733	15.770093	121.870152
61365		-2.651349	9.304969	1.812068	-0.001787	0.001752	0.000170	-1.106934	-0.444824	-0.127930	79.466692	15.770032	121.869781
61366		-2.602616	9.276311	1.831853	-0.001201	-0.001428	0.001092	-1.103516	-0.439941	-0.127441	79.467741	15.769753	121.869028
61367		-2.643160	9.285661	1.825174	-0.005063	-0.000036	0.000579	-1.101807	-0.455566	-0.126953	79.464559	15.769299	121.868797
61368		-2.643725	9.304380	1.854516	-0.002988	0.000324	0.001261	-1.107178	-0.444092	-0.125732	79.464868	15.769107	121.869088
61369		-2.634415	9.300416	1.795765	-0.001494	0.000162	0.000631	-1.106445	-0.443604	-0.121094	79.463784	15.768708	121.870160
61370		-2.650890	9.251983	1.826929	-0.001783	-0.001950	-0.000222	-1.106689	-0.450684	-0.129883	79.464379	15.769113	121.868960
61371		-2.618198	9.261840	1.821507	-0.002695	-0.001267	0.001722	-1.104004	-0.444824	-0.115479	79.462420	15.767919	121.868335
61372		-2.626654	9.299910	1.837965	-0.000331	0.001205	0.003257	-1.104004	-0.444092	-0.117920	79.464451	15.766696	121.869360
61373		-2.634560	9.266283	1.839206	-0.004732	-0.001241	-0.002678	-1.109131	-0.446777	-0.121826	79.461222	15.767972	121.865831
61374		-2.650654	9.251869	1.827849	-0.001787	0.001752	0.000170	-1.103271	-0.440918	-0.113770	79.462415	15.768545	121.866840
61375		-2.602047	9.276063	1.833917	-0.001205	0.002273	0.001483	-1.104248	-0.449219	-0.129395	79.461893	15.767833	121.865926
61376		-2.651166	9.270645	1.856961	-0.001205	0.002273	0.001483	-1.105469	-0.436523	-0.119141	79.463541	15.767720	121.867383
61377		-2.642566	9.285449	1.827109	-0.002075	-0.000360	-0.000682	-1.101807	-0.443604	-0.126709	79.462033	15.767954	121.866226
61378		-2.586043	9.290330	1.845886	-0.000582	-0.000521	-0.001313	-1.111328	-0.439453	-0.123535	79.463510	15.769124	121.865742
61379		-2.626506	9.246867	1.852630	-0.000620	-0.000907	0.002404	-1.104248	-0.437012	-0.126221	79.462845	15.767541	121.864327
61380		-2.625931	9.280935	1.810172	-0.002657	-0.000881	-0.001996	-1.103271	-0.446777	-0.120117	79.463056	15.769057	121.863558
61381		-2.635355	9.284742	1.869497	-0.004732	-0.001241	-0.002678	-1.104980	-0.441162	-0.127930	79.459846	15.770323	121.861388
61382		-2.634227	9.300019	1.798091	0.000582	0.000521	0.001313	-1.099609	-0.445313	-0.118652	79.462233	15.770122	121.861801
61383		-2.634626	9.265930	1.840889	-0.004482	0.000485	0.001892	-1.111084	-0.431641	-0.121338	79.459587	15.769014	121.861642
61384		-2.609925	9.295065	1.822844	-0.001201	-0.001429	0.001091	-1.110840	-0.439941	-0.123047	79.460636	15.768734	121.860889
61385		-2.642456	9.285156	1.828755	-0.003569	-0.000198	-0.000052	-1.106445	-0.446533	-0.120850	79.458345	15.768542	121.857300
61386		-2.625781	9.280673	1.811734	-0.002988	0.000323	0.001261	-1.105713	-0.450439	-0.123779	79.458654	15.768350	121.857591
61387		-2.625662	9.280633	1.812111	-0.004770	-0.001627	0.001039	-1.106934	-0.441895	-0.121826	79.455509	15.767532	121.856539
61388		-2.608896	9.276149	1.795231	-0.004481	0.000485	0.001892	-1.109375	-0.453125	-0.123535	79.455007	15.767002	121.856993
61389		-2.609410	9.294863	1.824609	-0.004774	0.002075	0.001431	-1.104980	-0.442627	-0.118652	79.452468	15.766330	121.857711
61390		-2.649838	9.251329	1.831762	-0.006557	0.000125	0.001209	-1.112793	-0.447998	-0.115967	79.450700	15.766146	121.857881
61391		-2.633154	9.299721	1.801203	-0.002406	0.000844	0.002574	-1.104004	-0.443604	-0.126465	79.449371	15.764678	121.856219
61392		-2.625040	9.280418	1.814113	-0.003862	0.001392	-0.000512	-1.103760	-0.444336	-0.122314	79.449297	15.765597	121.856942
61393		-2.633567	9.265536	1.844386	-0.002695	-0.001267	0.001722	-1.107422	-0.447754	-0.131104	79.447440	15.764408	121.856267
61394		-2.640841	9.266054	1.802963	-0.001494	0.000161	0.000631	-1.108398	-0.445557	-0.118164	79.448561	15.764555	121.856395
61395		-2.616857	9.261031	1.827539	-0.004150	-0.000719	-0.001365	-1.104980	-0.438232	-0.125000	79.445877	15.765164	121.855555
61396		-2.633386	9.265431	1.845173	-0.002113	-0.000747	0.003035	-1.100342	-0.445801	-0.124512	79.446570	15.763860	121.855413
61397		-2.625414	9.298960	1.844534	-0.004732	-0.001240	-0.002678	-1.109619	-0.446289	-0.118896	79.443434	15.765145	121.854024
61398		-2.624883	9.280103	1.815951	-0.003569	-0.000198	-0.000052	-1.099854	-0.439697	-0.126221	79.443288	15.765637	121.853867
61399		-2.633474	9.265178	1.846316	-0.005355	0.001554	0.000119	-1.110352	-0.445313	-0.123291	79.440336	15.765636	121.853724
61400		-2.616993	9.313502	1.815867	-0.005644	-0.000558	-0.000734	-1.102539	-0.441650	-0.125977	79.438924	15.766475	121.853282
61401		-2.642150	9.250131	1.877149	-0.002075	-0.000360	-0.000683	-1.113037	-0.443115	-0.126465	79.437528	15.766720	121.852309
61402		-2.617059	9.313366	1.816468	-0.003280	0.001913	0.000801	-1.101807	-0.442139	-0.122559	79.437909	15.766954	121.853480
61403		-2.625686	9.298462	1.846655	-0.002368	0.001231	-0.001143	-1.111084	-0.434570	-0.123535	79.436591	15.767613	121.853041
61404		-2.624544	9.260897	1.788900	-0.002657	-0.000880	-0.001996	-1.109863	-0.450439	-0.128174	79.436802	15.769129	121.852272
61405		-2.601316	9.274594	1.842366	-0.000581	-0.000521	-0.001313	-1.107666	-0.445068	-0.118164	79.436230	15.769684	121.850671
61406		-2.649910	9.303269	1.822872	-0.000616	-0.004610	0.002011	-1.107910	-0.449463	-0.125977	79.437136	15.768551	121.848157
61407		-2.625172	9.279560	1.818307	-0.000581	-0.000521	-0.001313	-1.104492	-0.447754	-0.124512	79.436587	15.769165	121.846949
61408		-2.633324	9.298793	1.805736	-0.000581	-0.000521	-0.001313	-1.102783	-0.448730	-0.120361	79.438064	15.770334	121.846465
61409		-2.641980	9.283906	1.835777	-0.000289	-0.002111	-0.000853	-1.098389	-0.437012	-0.129150	79.437457	15.770555	121.845289
61410		-2.617361	9.260172	1.831169	-0.000289	-0.002111	-0.000853	-1.105713	-0.433350	-0.119629	79.438862	15.771298	121.843924
61411		-2.633555	9.298684	1.805961	-0.000874	0.001070	-0.001773	-1.106934	-0.440186	-0.123047	79.438385	15.772257	121.842381
61412		-2.625586	9.279388	1.818584	0.000289	0.002111	0.000853	-1.110352	-0.439697	-0.120605	79.440844	15.772482	121.843674
61413		-2.625574	9.279388	1.818603	-0.001786	0.001752	0.000171	-1.097412	-0.447510	-0.124756	79.440029	15.772426	121.842250
61414		-2.609075	9.274869	1.801571	-0.004732	-0.001240	-0.002678	-1.103027	-0.446289	-0.122314	79.438973	15.774288	121.841196
61415		-2.659038	9.288083	1.853731	0.001786	-0.001752	-0.000171	-1.111084	-0.445801	-0.124512	79.439659	15.774178	121.841072
61416		-2.618479	9.278651	1.860781	-0.002657	-0.000881	-0.001996	-1.096436	-0.439453	-0.126953	79.439870	15.775694	121.840303
61417		-2.634039	9.298383	1.806810	-0.003861	0.001392	-0.000512	-1.105469	-0.443604	-0.121094	79.437802	15.776042	121.840913
61418		-2.626026	9.279042	1.819715	-0.001782	-0.001950	-0.000223	-1.112305	-0.445557	-0.117920	79.438396	15.776447	121.839712
61419		-2.649951	9.284011	1.795554	-0.000912	0.000682	0.001944	-1.113525	-0.443604	-0.125488	79.438002	15.775321	121.838150
61420		-2.625306	9.260247	1.791148	-0.006229	0.002622	-0.001654	-1.105713	-0.438721	-0.122314	79.436734	15.777013	121.839468
61421		-2.634143	9.298140	1.807907	-0.002364	-0.002471	-0.001536	-1.107178	-0.441895	-0.114746	79.434900	15.777484	121.836052
61422		-2.642786	9.283178	1.838300	-0.007141	0.003304	0.000290	-1.103027	-0.448975	-0.121826	79.433275	15.778152	121.837982
61423		-2.618169	9.259384	1.833992	-0.002075	-0.000360	-0.000683	-1.103516	-0.447510	-0.118652	79.431997	15.778434	121.835997
61424		-2.626268	9.278611	1.821562	-0.002075	-0.000360	-0.000683	-1.104004	-0.455078	-0.125000	79.432663	15.779265	121.835676
61425		-2.626241	9.278573	1.821797	-0.002987	0.000322	0.001261	-1.103760	-0.447754	-0.121338	79.431039	15.778592	121.836743
61426		-2.642139	9.264236	1.810387	-0.003280	0.001912	0.000802	-1.095947	-0.441650	-0.124756	79.431420	15.778826	121.837914
61427		-2.617512	9.293344	1.792529	-0.006555	0.000123	0.001209	-1.109619	-0.442383	-0.119873	79.427715	15.778118	121.838335
61428		-2.617321	9.240422	1.806485	-0.001493	0.000161	0.000631	-1.106934	-0.441162	-0.124023	79.428835	15.778264	121.838462
61429		-2.618555	9.277809	1.864870	-0.008345	0.005575	0.001775	-1.109131	-0.447266	-0.120850	79.424995	15.777727	121.839883
61430		-2.617984	9.311875	1.822769	-0.003568	-0.000199	-0.000052	-1.101318	-0.446289	-0.127686	79.424850	15.778220	121.839725
61431		-2.625216	9.259490	1.795187	-0.006555	0.000122	0.001209	-1.104736	-0.449463	-0.119141	79.421161	15.777501	121.840080
61432		-2.642466	9.282538	1.841984	-0.003861	0.001391	-0.000512	-1.104004	-0.444824	-0.133545	79.421087	15.778420	121.840802
61433		-2.625825	9.278070	1.824950	-0.002987	0.000321	0.001261	-1.103027	-0.439697	-0.122559	79.419482	15.777705	121.842033
61434		-2.634360	9.263138	1.855266	-0.005354	0.001552	0.000119	-1.112305	-0.443359	-0.126953	79.418596	15.778285	121.842918
61435		-2.633707	9.297247	1.813126	-0.004188	-0.001109	0.002351	-1.105713	-0.447021	-0.125732	79.416109	15.776725	121.841254
61436		-2.642278	9.282304	1.843434	-0.004446	0.004572	-0.001430	-1.104248	-0.436768	-0.128662	79.416179	15.778496	121.843738
61437		-2.625653	9.277843	1.826351	-0.002405	0.000842	0.002575	-1.103027	-0.438232	-0.116699	79.415034	15.777041	121.844366
61438		-2.625598	9.277833	1.826486	-0.000581	-0.000520	-0.001314	-1.104004	-0.444092	-0.122070	79.416511	15.778210	121.843882
61439		-2.633749	9.297045	1.814100	-0.004149	-0.000720	-0.001366	-1.103027	-0.447998	-0.125000	79.414027	15.778806	121.840782
61440		-2.650241	9.248504	1.845393	-0.004480	0.000482	0.001892	-1.105225	-0.446289	-0.124512	79.413525	15.778275	121.841235
61441		-2.592958	9.287529	1.821874	-0.004773	0.002072	0.001433	-1.106201	-0.438965	-0.122803	79.411215	15.777657	121.843078
61442		-2.642100	9.282021	1.845111	-0.001493	0.000160	0.000631	-1.107178	-0.442627	-0.119141	79.412336	15.777803	121.843205
61443		-2.625310	9.277612	1.828017	-0.003899	0.001002	0.003206	-1.101318	-0.449951	-0.126465	79.410415	15.775982	121.841642
61444		-2.625320	9.277532	1.828413	-0.005023	0.000351	-0.003139	-1.106934	-0.440430	-0.121826	79.409432	15.778271	121.841468
61445		-2.634045	9.262574	1.858528	0.001786	-0.001751	-0.000171	-1.108398	-0.445801	-0.128174	79.410238	15.778134	121.840315
61446		-2.649528	9.282401	1.804481	-0.005935	0.001031	-0.001195	-1.111084	-0.447998	-0.122314	79.408897	15.779399	121.840752
61447		-2.616970	9.292214	1.799166	-0.001493	0.000160	0.000631	-1.107178	-0.443115	-0.113281	79.408157	15.778995	121.840692
61448		-2.641640	9.262987	1.817494	0.000331	-0.001201	-0.003258	-1.101807	-0.442139	-0.125000	79.409991	15.781188	121.839596
61449		-2.625875	9.277220	1.829195	0.000916	-0.004382	-0.002340	-1.104736	-0.439697	-0.125732	79.409840	15.781959	121.834370
61450		-2.642677	9.281593	1.846440	0.002405	-0.000841	-0.002575	-1.102539	-0.447266	-0.117920	79.412939	15.783805	121.833560
61451		-2.642725	9.281584	1.846415	-0.001201	-0.001430	0.001090	-1.102051	-0.444336	-0.122559	79.412148	15.782975	121.831734
61452		-2.617663	9.291992	1.799305	-0.002036	0.000030	-0.004400	-1.104004	-0.451660	-0.117676	79.412787	15.785940	121.831234
61453		-2.659018	9.267179	1.834815	0.005358	-0.005253	-0.000515	-1.102539	-0.443848	-0.123535	79.415117	15.785667	121.827590
61454		-2.609765	9.272701	1.811704	0.000004	-0.003701	-0.000395	-1.113037	-0.446045	-0.118652	79.416450	15.785984	121.825344
61455		-2.642427	9.262754	1.817537	-0.002656	-0.000880	-0.001996	-1.105713	-0.447998	-0.126465	79.414839	15.786936	121.822919
61456		-2.626614	9.276998	1.829260	0.002698	-0.002432	-0.002116	-1.101807	-0.446777	-0.127686	79.417866	15.788356	121.821228
61457		-2.626830	9.276955	1.829168	0.000331	-0.001201	-0.003258	-1.114746	-0.448242	-0.121826	79.417876	15.790052	121.821749
61458		-2.651682	9.300604	1.833859	0.001205	-0.002271	-0.001485	-1.103271	-0.443604	-0.123047	79.420092	15.791133	121.820221
61459		-2.627067	9.276899	1.829116	0.000000	0.000000	0.000000	-1.111328	-0.444824	-0.125977	79.420215	15.791058	121.819051
61460		-2.626657	9.258137	1.800050	0.002740	-0.005744	-0.006229	-1.105957	-0.445068	-0.119141	79.422616	15.794446	121.814972
61461		-2.627596	9.276763	1.829046	-0.000581	-0.000520	-0.001314	-1.108154	-0.444824	-0.130615	79.422290	15.795046	121.813203
61462		-2.635707	9.296017	1.816524	-0.001786	0.001751	0.000172	-1.107910	-0.449219	-0.120605	79.423482	15.795618	121.814211
61463		-2.652390	9.300384	1.833952	-0.000581	-0.000520	-0.001314	-1.108398	-0.443115	-0.124512	79.423159	15.796253	121.814080
61464		-2.643837	9.262315	1.817722	-0.002656	-0.000881	-0.001996	-1.107178	-0.454346	-0.121338	79.423369	15.797769	121.813310
61465		-2.627970	9.276552	1.829578	-0.000288	-0.002111	-0.000854	-1.109619	-0.447754	-0.123779	79.422991	15.798000	121.811847
61466		-2.628026	9.276529	1.829612	-0.000293	0.001591	-0.000459	-1.108643	-0.439697	-0.124268	79.424995	15.798910	121.812692
61467		-2.628230	9.276486	1.829538	0.001824	-0.001361	-0.003889	-1.106445	-0.448242	-0.117676	79.425851	15.800855	121.810296
61468		-2.603182	9.286933	1.782254	-0.001493	0.000160	0.000631	-1.099365	-0.440918	-0.112061	79.426972	15.801001	121.810423
61469		-2.644306	9.262153	1.817866	0.001786	-0.001751	-0.000172	-1.103027	-0.433350	-0.123047	79.427892	15.800855	121.805988
61470		-2.635617	9.277068	1.787957	-0.002405	0.000841	0.002575	-1.103760	-0.443359	-0.128906	79.428656	15.799977	121.806725
61471		-2.620292	9.310006	1.828989	-0.004730	-0.001241	-0.002679	-1.110107	-0.439453	-0.119385	79.425817	15.801231	121.804991
61472		-2.635759	9.276898	1.788630	-0.002075	-0.000360	-0.000683	-1.111816	-0.445801	-0.120117	79.426482	15.802062	121.804669
61473		-2.628497	9.276235	1.830428	-0.001163	-0.001041	-0.002627	-1.104004	-0.445801	-0.125000	79.425752	15.803295	121.800342
61474		-2.612020	9.271762	1.813260	-0.002075	-0.000360	-0.000683	-1.114258	-0.445801	-0.127686	79.426417	15.804126	121.800020
61475		-2.661229	9.266193	1.836587	-0.005061	-0.000040	0.000579	-1.106689	-0.445557	-0.119141	79.423703	15.803727	121.800065
61476		-2.636690	9.295354	1.818489	0.001493	-0.000160	-0.000631	-1.110840	-0.444824	-0.127197	79.426446	15.804549	121.799866
61477		-2.612114	9.271599	1.813959	-0.005935	0.001030	-0.001193	-1.108887	-0.448975	-0.120605	79.423364	15.805254	121.799165
61478		-2.653466	9.299584	1.836451	-0.003568	-0.000200	-0.000052	-1.108887	-0.446289	-0.129639	79.423218	15.805745	121.799006
61479		-2.636820	9.295148	1.819351	-0.001493	0.000160	0.000631	-1.109863	-0.442139	-0.123047	79.422603	15.805367	121.799238
61480		-2.652716	9.280820	1.807929	-0.004773	0.002071	0.001434	-1.109863	-0.443848	-0.122070	79.422173	15.805261	121.800570
61481		-2.620031	9.290674	1.802665	-0.004773	0.002071	0.001434	-1.117676	-0.447998	-0.125732	79.420013	15.804557	121.799776
61482		-2.652581	9.280700	1.808739	-0.005354	0.001550	0.000120	-1.101074	-0.435547	-0.119141	79.419128	15.805136	121.800661
61483		-2.628507	9.275625	1.833502	-0.004768	-0.001631	0.001038	-1.103760	-0.446045	-0.119141	79.416376	15.804256	121.797403
61484		-2.628368	9.275598	1.833838	-0.002698	0.002431	0.002117	-1.106445	-0.443848	-0.125488	79.417212	15.803803	121.799021
61485		-2.619617	9.290469	1.804318	-0.007759	0.002390	0.002696	-1.107422	-0.445068	-0.126465	79.413452	15.802497	121.800119
61486		-2.643994	9.261239	1.822974	-0.001200	-0.001431	0.001090	-1.105469	-0.440918	-0.126465	79.414500	15.802216	121.799364
61487		-2.635359	9.276115	1.793276	-0.003568	-0.000200	-0.000052	-1.112549	-0.441650	-0.125977	79.412639	15.802153	121.799375
61488		-2.627996	9.275427	1.835234	-0.003860	0.001390	-0.000511	-1.112305	-0.440674	-0.125732	79.412565	15.803071	121.800097
61489		-2.611366	9.270969	1.818252	-0.004772	0.002070	0.001434	-1.107178	-0.441895	-0.122070	79.410423	15.802333	121.799452
61490		-2.651900	9.280332	1.811624	-0.002986	0.000320	0.001262	-1.098877	-0.444580	-0.125244	79.410732	15.802139	121.799741
61491		-2.627890	9.275277	1.836145	-0.002367	0.001230	-0.001141	-1.109131	-0.442627	-0.123047	79.409781	15.802876	121.800395
61492		-2.635318	9.275835	1.794785	-0.003275	-0.001791	0.000406	-1.107666	-0.443115	-0.119873	79.409562	15.802942	121.799355
61493		-2.643225	9.295078	1.782689	-0.007758	0.002389	0.002696	-1.110107	-0.446533	-0.122559	79.405832	15.801582	121.798746
61494		-2.643650	9.260795	1.825721	-0.003567	-0.000201	-0.000052	-1.103027	-0.452637	-0.119385	79.405685	15.802074	121.798587
61495		-2.652268	9.298746	1.842415	-0.002698	0.002430	0.002117	-1.103516	-0.442139	-0.120850	79.404869	15.801159	121.799778
61496		-2.635489	9.294345	1.825373	-0.004479	0.000479	0.001892	-1.102539	-0.442139	-0.118652	79.404367	15.800627	121.800229
61497		-2.610777	9.270596	1.820996	-0.003860	0.001390	-0.000511	-1.103760	-0.445313	-0.119141	79.402635	15.801005	121.799293
61498		-2.635266	9.294269	1.826080	-0.003313	-0.002183	0.004123	-1.101807	-0.443604	-0.122070	79.402443	15.798936	121.798431
61499		-2.634261	9.275608	1.797504	-0.005679	-0.000952	0.002982	-1.103760	-0.442627	-0.122314	79.399410	15.797139	121.797516
61500		-2.634868	9.294209	1.826962	-0.004445	0.004572	-0.001427	-1.103027	-0.439697	-0.122559	79.399480	15.798908	121.799999
61501		-2.634977	9.294116	1.827276	-0.003567	-0.000201	-0.000052	-1.102051	-0.449219	-0.121826	79.397680	15.798849	121.798972
61502		-2.642788	9.260484	1.828548	-0.004186	-0.001112	0.002351	-1.111816	-0.446289	-0.124268	79.397106	15.797891	121.798542
61503		-2.618170	9.289648	1.810638	-0.003864	0.005091	-0.000113	-1.109375	-0.445068	-0.109131	79.395996	15.798492	121.801345
61504		-2.634751	9.293993	1.828230	-0.002693	-0.001272	0.001720	-1.108154	-0.438477	-0.120605	79.396232	15.797872	121.800753
61505		-2.625914	9.256005	1.812059	-0.002986	0.000319	0.001262	-1.105713	-0.447998	-0.125000	79.394923	15.797070	121.795721
61506		-2.617928	9.289553	1.811472	-0.003567	-0.000201	-0.000052	-1.106445	-0.443848	-0.125977	79.394777	15.797562	121.795561
61507		-2.618077	9.289467	1.811700	-0.001455	0.000552	-0.003086	-1.106934	-0.446289	-0.122314	79.394239	15.799346	121.796280
61508		-2.634834	9.293762	1.829286	-0.005064	0.003660	0.000976	-1.102051	-0.441406	-0.123047	79.393881	15.799665	121.798492
61509		-2.625908	9.255812	1.813054	-0.001243	0.001878	0.005204	-1.107178	-0.443115	-0.122314	79.393934	15.796898	121.799769
61510		-2.634374	9.293809	1.829707	-0.003567	-0.000201	-0.000053	-1.107666	-0.452637	-0.124268	79.393788	15.797389	121.799609
61511		-2.625710	9.308691	1.800152	-0.004479	0.000478	0.001892	-1.105713	-0.446289	-0.122314	79.391679	15.796375	121.799909
61512		-2.658121	9.245826	1.819683	-0.005352	0.001549	0.000120	-1.113770	-0.446777	-0.126709	79.390793	15.796954	121.800792
61513		-2.609480	9.269940	1.826187	-0.004479	0.000478	0.001892	-1.106689	-0.444580	-0.124023	79.388684	15.795899	121.800597
61514		-2.617408	9.289199	1.814038	-0.005060	-0.000042	0.000578	-1.101318	-0.448242	-0.119629	79.387726	15.796052	121.800599
61515		-2.633171	9.274913	1.802681	-0.001820	-0.002344	0.003491	-1.110107	-0.449219	-0.125488	79.386756	15.793848	121.799507
61516		-2.649645	9.279280	1.820295	-0.003859	0.001390	-0.000510	-1.104492	-0.444824	-0.119385	79.386682	15.794766	121.800228
61517		-2.609008	9.269815	1.827495	-0.002989	0.004020	0.001660	-1.102295	-0.448242	-0.124023	79.386006	15.794244	121.802090
61518		-2.649065	9.260496	1.791815	-0.004729	-0.001239	-0.002681	-1.111572	-0.449219	-0.118896	79.384950	15.796106	121.801033
61519		-2.625179	9.308283	1.803029	-0.002693	-0.001272	0.001719	-1.104004	-0.447998	-0.120117	79.383617	15.795022	121.799875
61520		-2.640421	9.275310	1.762641	-0.005352	0.001549	0.000120	-1.105957	-0.443604	-0.115967	79.382732	15.795601	121.800758
61521		-2.617011	9.288860	1.816344	-0.002986	0.000318	0.001261	-1.105469	-0.440918	-0.123047	79.381486	15.794905	121.798831
61522		-2.649487	9.278922	1.822348	-0.004767	-0.001633	0.001036	-1.103516	-0.445557	-0.116455	79.380456	15.794633	121.797952
61523		-2.600849	9.303011	1.828953	-0.005348	-0.002152	-0.000279	-1.101807	-0.438232	-0.121094	79.377413	15.794511	121.794761
61524		-2.632658	9.274407	1.806032	-0.005682	0.002746	0.003380	-1.108643	-0.447754	-0.126465	79.376626	15.793381	121.796702
61525		-2.625137	9.273690	1.848058	-0.003567	-0.000201	-0.000053	-1.111328	-0.443848	-0.125732	79.374914	15.793337	121.796227
61526		-2.625210	9.273606	1.848379	-0.004151	0.002981	-0.000968	-1.107910	-0.444580	-0.122559	79.374912	15.794680	121.797828
61527		-2.616558	9.288477	1.818954	-0.007464	0.000795	0.003154	-1.103027	-0.440674	-0.125977	79.371225	15.792911	121.797279
61528		-2.633041	9.292788	1.836798	-0.003566	-0.000201	-0.000053	-1.110107	-0.438965	-0.125000	79.371078	15.793403	121.797118
61529		-2.648404	9.259806	1.796353	-0.003859	0.001390	-0.000510	-1.104492	-0.444824	-0.121338	79.369434	15.793721	121.797075
61530		-2.608513	9.268922	1.832723	-0.004147	-0.000720	-0.001367	-1.111816	-0.451416	-0.117432	79.368833	15.794898	121.796466
61531		-2.616515	9.288188	1.820494	-0.002693	-0.001273	0.001719	-1.108154	-0.447021	-0.117432	79.367548	15.793791	121.793752
61532		-2.625103	9.326130	1.837202	-0.003281	0.005610	0.001204	-1.115723	-0.440430	-0.126953	79.368528	15.794189	121.797130
61533		-2.664336	9.245325	1.785803	-0.003566	-0.000201	-0.000053	-1.105469	-0.446533	-0.124023	79.366843	15.794080	121.793701
61534		-2.600378	9.302360	1.832925	-0.001200	-0.001432	0.001088	-1.102539	-0.438477	-0.133301	79.367890	15.793799	121.792945
61535		-2.624291	9.254437	1.822391	-0.005932	0.001030	-0.001194	-1.107910	-0.444336	-0.121582	79.364998	15.794553	121.795866
61536		-2.648994	9.278039	1.827549	-0.003278	0.001909	0.000804	-1.106445	-0.441162	-0.125488	79.365379	15.794784	121.797034
61537		-2.615757	9.269262	1.793097	-0.002074	-0.000360	-0.000684	-1.107422	-0.440674	-0.130615	79.364515	15.795057	121.795519
61538		-2.616407	9.287859	1.822327	-0.001493	0.000159	0.000631	-1.105957	-0.450928	-0.121826	79.365635	15.795202	121.795644
61539		-2.608273	9.268510	1.835145	-0.002982	-0.003383	0.000861	-1.106445	-0.449219	-0.116943	79.363822	15.794353	121.794714
61540		-2.632184	9.273552	1.811105	-0.001493	0.000159	0.000631	-1.115967	-0.447754	-0.122314	79.364941	15.794498	121.794839
61541		-2.616182	9.287777	1.823063	-0.003566	-0.000201	-0.000053	-1.103760	-0.444336	-0.125488	79.363306	15.794479	121.791746
61542		-2.640688	9.258540	1.841382	0.000581	0.000519	0.001314	-1.102295	-0.443115	-0.121582	79.365692	15.794276	121.792157
61543		-2.616079	9.287742	1.823392	-0.005351	0.001548	0.000121	-1.105713	-0.432861	-0.124756	79.363301	15.794363	121.793629
61544		-2.640746	9.311353	1.828564	-0.003566	-0.000201	-0.000053	-1.104004	-0.449463	-0.122314	79.363155	15.794855	121.793468
61545		-2.632028	9.273342	1.812407	-0.003274	-0.001792	0.000404	-1.109863	-0.441895	-0.118408	79.361429	15.794359	121.791626
61546		-2.640489	9.258348	1.842630	-0.002693	-0.001274	0.001718	-1.100586	-0.445313	-0.130127	79.361665	15.793739	121.791032
61547		-2.631966	9.273246	1.812986	-0.003239	0.002303	-0.002912	-1.108398	-0.442627	-0.124268	79.360522	15.795590	121.792085
61548		-2.632671	9.291813	1.842255	-0.000908	-0.003023	0.001545	-1.106201	-0.446533	-0.125977	79.361497	15.794883	121.790448
61549		-2.623387	9.288131	1.783507	-0.002362	-0.002470	-0.001541	-1.104248	-0.440674	-0.120605	79.360141	15.795454	121.788818
61550		-2.640010	9.292426	1.801186	-0.004770	0.002067	0.001435	-1.110840	-0.445313	-0.114746	79.359711	15.795347	121.790148
61551		-2.639947	9.292396	1.801429	0.000004	-0.003701	-0.000401	-1.106445	-0.441650	-0.122314	79.359581	15.795088	121.783727
61552		-2.655936	9.278103	1.789853	-0.002074	-0.000360	-0.000684	-1.103760	-0.446777	-0.121094	79.360245	15.795918	121.783404
61553		-2.615277	9.268635	1.797031	-0.002985	0.000317	0.001262	-1.099121	-0.446777	-0.117920	79.359090	15.795217	121.782800
61554		-2.648492	9.277314	1.831953	-0.002074	-0.000360	-0.000684	-1.104736	-0.450684	-0.120117	79.359754	15.796047	121.782477
61555		-2.631808	9.272926	1.814852	-0.002693	-0.001274	0.001718	-1.109131	-0.447266	-0.122803	79.358558	15.795038	121.781924
61556		-2.632334	9.291536	1.844131	-0.001492	0.000159	0.000631	-1.102051	-0.447998	-0.114258	79.359677	15.795183	121.782048
61557		-2.615048	9.268542	1.797844	-0.001785	0.001750	0.000174	-1.108887	-0.445068	-0.121094	79.359437	15.795294	121.781190
61558		-2.623619	9.253529	1.827962	-0.001778	-0.005652	-0.000628	-1.105225	-0.442139	-0.130127	79.359430	15.795532	121.777776
61559		-2.640406	9.310721	1.832270	-0.004439	0.000871	-0.001824	-1.117188	-0.442383	-0.119385	79.357437	15.796602	121.778295
61560		-2.639855	9.292009	1.803561	-0.003566	-0.000202	-0.000053	-1.106934	-0.447266	-0.121338	79.357290	15.797094	121.778134
61561		-2.632464	9.291222	1.845527	-0.003566	-0.000202	-0.000053	-1.110352	-0.444092	-0.126709	79.355706	15.796998	121.774014
61562		-2.623896	9.253164	1.829412	-0.004728	-0.001239	-0.002682	-1.104004	-0.442627	-0.127930	79.354650	15.798859	121.772957
61563		-2.648611	9.276763	1.834572	-0.002985	0.000317	0.001262	-1.105469	-0.442383	-0.117920	79.353498	15.798135	121.774300
61564		-2.631787	9.272420	1.817469	-0.002111	-0.000756	0.003033	-1.109131	-0.442139	-0.131592	79.354188	15.796830	121.774153
61565		-2.623701	9.305998	1.816922	-0.003566	-0.000202	-0.000053	-1.108643	-0.437256	-0.119385	79.352593	15.796760	121.773411
61566		-2.631706	9.272304	1.818174	-0.005931	0.001029	-0.001193	-1.102539	-0.451416	-0.121338	79.351253	15.798024	121.773844
61567		-2.648447	9.276564	1.835815	-0.000581	-0.000518	-0.001315	-1.106689	-0.451416	-0.121338	79.351311	15.798679	121.771634
61568		-2.631799	9.272174	1.818704	-0.004477	0.000475	0.001893	-1.106689	-0.445313	-0.120117	79.350808	15.798146	121.772083
61569		-2.639081	9.272853	1.777512	-0.005058	-0.000044	0.000578	-1.101807	-0.438232	-0.119385	79.348448	15.797857	121.771102
61570		-2.623653	9.252715	1.832026	-0.002073	-0.000360	-0.000684	-1.109375	-0.449219	-0.117676	79.349112	15.798687	121.770778
61571		-2.647863	9.310652	1.794633	-0.004150	0.002980	-0.000966	-1.106201	-0.441895	-0.128174	79.347710	15.799498	121.769567
61572		-2.639815	9.291248	1.807537	-0.004477	0.000474	0.001892	-1.110596	-0.448486	-0.118164	79.347207	15.798965	121.770015
61573		-2.648189	9.276214	1.837950	-0.005966	-0.003068	0.002121	-1.116211	-0.446777	-0.127686	79.343885	15.797409	121.767218
61574		-2.615467	9.286058	1.832824	-0.003566	-0.000202	-0.000053	-1.105225	-0.454346	-0.112793	79.343739	15.797900	121.767055
61575		-2.647365	9.257513	1.809655	-0.002985	0.000316	0.001262	-1.104004	-0.442139	-0.118896	79.342670	15.797257	121.764795
61576		-2.639285	9.291078	1.809181	-0.004477	0.000474	0.001893	-1.107422	-0.444092	-0.124512	79.342168	15.796724	121.765243
61577		-2.631054	9.271733	1.822028	-0.002403	0.000834	0.002576	-1.105469	-0.442627	-0.133057	79.341534	15.795315	121.764840
61578		-2.623093	9.305272	1.821517	-0.004439	0.000871	-0.001824	-1.109131	-0.449951	-0.115234	79.341005	15.796917	121.765111
61579		-2.647664	9.275945	1.840066	-0.004477	0.000474	0.001893	-1.104248	-0.445557	-0.124756	79.339111	15.795910	121.765650
61580		-2.647553	9.275924	1.840334	-0.001492	0.000158	0.000631	-1.102051	-0.446045	-0.123291	79.340230	15.796054	121.765773
61581		-2.654812	9.276636	1.799101	-0.007753	0.002381	0.002698	-1.103760	-0.447021	-0.125000	79.336793	15.794843	121.769246
61582		-2.614078	9.267127	1.806530	-0.003565	-0.000202	-0.000053	-1.105957	-0.443848	-0.118652	79.336646	15.795334	121.769084
61583		-2.614687	9.285657	1.835962	-0.003273	-0.001793	0.000403	-1.112305	-0.448486	-0.118408	79.335056	15.794932	121.767664
61584		-2.654536	9.276488	1.800276	-0.004188	0.002583	0.002751	-1.110352	-0.443848	-0.121094	79.335080	15.794139	121.769441
61585		-2.622442	9.304950	1.824096	-0.003273	-0.001793	0.000403	-1.099121	-0.439453	-0.120850	79.333502	15.793660	121.764481
61586		-2.654335	9.276400	1.801022	-0.005057	-0.000044	0.000578	-1.107666	-0.441650	-0.125000	79.332544	15.793812	121.764480
61587		-2.630772	9.289842	1.854864	-0.005387	0.001149	0.003838	-1.109375	-0.438477	-0.125000	79.330307	15.791713	121.765519
61588		-2.638143	9.290522	1.813699	-0.005019	0.000353	-0.003139	-1.097900	-0.437012	-0.128174	79.329323	15.794000	121.765341
61589		-2.630196	9.271089	1.826537	-0.001200	-0.001434	0.001087	-1.102539	-0.445557	-0.115723	79.328974	15.793130	121.765715
61590		-2.638553	9.256083	1.856730	-0.005387	0.001149	0.003838	-1.105469	-0.448730	-0.123535	79.328115	15.791573	121.766772
61591		-2.621795	9.304675	1.826427	-0.002984	0.000316	0.001262	-1.105469	-0.445313	-0.124512	79.327088	15.790959	121.766236
61592		-2.637719	9.290391	1.814984	-0.003565	-0.000202	-0.000053	-1.101807	-0.439453	-0.130371	79.326942	15.791450	121.766074
61593		-2.645611	9.256758	1.816072	-0.002984	0.000315	0.001262	-1.113037	-0.442627	-0.122070	79.325875	15.790771	121.768842
61594		-2.637573	9.290313	1.815597	-0.003273	-0.001794	0.000403	-1.105469	-0.451660	-0.121338	79.325656	15.790836	121.767799
61595		-2.621531	9.251561	1.840869	-0.000581	-0.000518	-0.001315	-1.104980	-0.437744	-0.111084	79.325796	15.791526	121.765659
61596		-2.629343	9.270985	1.828292	0.002619	-0.003221	0.005311	-1.105469	-0.448730	-0.126953	79.328873	15.788676	121.764322
61597		-2.645639	9.275392	1.845758	-0.004768	0.002065	0.001437	-1.105957	-0.449219	-0.127197	79.327114	15.788047	121.763012
61598		-2.637059	9.290360	1.816104	-0.000581	-0.000518	-0.001315	-1.107910	-0.447998	-0.119873	79.328589	15.789215	121.762526
61599		-2.620454	9.285989	1.798903	-0.001489	-0.003543	0.000227	-1.113770	-0.447021	-0.123535	79.327781	15.788788	121.760965
61600		-2.628979	9.270944	1.829027	-0.003276	0.001907	0.000806	-1.113037	-0.448975	-0.121826	79.328161	15.789018	121.762131
61601		-2.627672	9.286721	1.757787	-0.002692	-0.001276	0.001717	-1.101807	-0.444824	-0.127930	79.327072	15.787890	121.759130
61602		-2.612796	9.285122	1.841353	-0.003565	-0.000202	-0.000053	-1.113037	-0.447998	-0.123291	79.326926	15.788381	121.758968
61603		-2.652684	9.275972	1.805656	-0.004187	0.002582	0.002752	-1.098877	-0.440430	-0.118652	79.325620	15.787136	121.761747
61604		-2.620017	9.285828	1.800375	-0.003857	0.001389	-0.000509	-1.102783	-0.443115	-0.118652	79.325546	15.788052	121.762466
61605		-2.644623	9.256498	1.818831	-0.003565	-0.000202	-0.000053	-1.107910	-0.442627	-0.125244	79.324095	15.788047	121.760754
61606		-2.636602	9.290039	1.818406	-0.002981	-0.003385	0.000858	-1.107422	-0.447021	-0.122559	79.323803	15.787687	121.758830
61607		-2.653159	9.294310	1.836170	-0.005349	0.001547	0.000122	-1.106445	-0.443115	-0.117676	79.321603	15.787770	121.759317
61608		-2.637017	9.255511	1.861755	-0.006257	-0.001479	0.001664	-1.104492	-0.437988	-0.120605	79.319762	15.787159	121.758597
61609		-2.636284	9.289843	1.819868	-0.004476	0.000473	0.001893	-1.106445	-0.447998	-0.118164	79.317955	15.786048	121.755862
61610		-2.619590	9.285449	1.802945	-0.005349	0.001547	0.000122	-1.099854	-0.449219	-0.119141	79.317070	15.786625	121.756742
61611		-2.612123	9.284587	1.845002	-0.004476	0.000472	0.001893	-1.108398	-0.444824	-0.119629	79.315297	15.785723	121.756580
61612		-2.652067	9.275431	1.809334	-0.003857	0.001389	-0.000508	-1.109863	-0.442139	-0.120361	79.315223	15.786639	121.757297
61613		-2.652790	9.293906	1.838745	-0.002362	-0.002469	-0.001544	-1.112793	-0.451172	-0.122070	79.314069	15.787170	121.752222
61614		-2.628144	9.270149	1.834248	-0.004767	0.002064	0.001438	-1.101563	-0.446777	-0.124023	79.313639	15.787062	121.753549
61615		-2.628061	9.270099	1.834617	-0.003273	-0.001794	0.000402	-1.110596	-0.445068	-0.127930	79.312139	15.786732	121.752690
61616		-2.635383	9.270857	1.793340	-0.003273	-0.001794	0.000402	-1.107666	-0.447266	-0.125488	79.311920	15.786798	121.751645
61617		-2.660611	9.313058	1.827590	-0.003275	0.001906	0.000807	-1.106689	-0.448242	-0.120850	79.311000	15.786561	121.753613
61618		-2.611850	9.284196	1.847355	-0.004475	0.000472	0.001893	-1.103760	-0.442139	-0.114258	79.310497	15.786028	121.754059
61619		-2.619694	9.250551	1.848549	-0.005056	-0.000045	0.000578	-1.104004	-0.450439	-0.124756	79.308281	15.785703	121.751218
61620		-2.635582	9.289280	1.823754	-0.000330	0.001192	0.003261	-1.099854	-0.451172	-0.125488	79.310309	15.784476	121.752236
61621		-2.651424	9.275063	1.812162	-0.003564	-0.000203	-0.000053	-1.100586	-0.445068	-0.119629	79.308895	15.784696	121.756102
61622		-2.627368	9.269864	1.836797	-0.004767	0.002063	0.001438	-1.108154	-0.450195	-0.125977	79.308465	15.784588	121.757429
61623		-2.627201	9.269831	1.837200	-0.004183	-0.001120	0.002348	-1.104980	-0.441162	-0.125488	79.306625	15.783241	121.757798
61624		-2.618469	9.284847	1.807669	-0.003275	0.001906	0.000807	-1.109375	-0.452637	-0.122314	79.307005	15.783472	121.758964
61625		-2.626511	9.304154	1.795446	-0.003856	0.001389	-0.000508	-1.112305	-0.449951	-0.121582	79.305663	15.783950	121.759966
61626		-2.634448	9.270513	1.796489	-0.002983	0.000314	0.001262	-1.100830	-0.447266	-0.121094	79.305971	15.783756	121.760250
61627		-2.610937	9.283883	1.850216	-0.004475	0.000471	0.001893	-1.107666	-0.444580	-0.117432	79.304223	15.782819	121.760091
61628		-2.626936	9.269634	1.838572	0.000908	0.003026	-0.001540	-1.105957	-0.439697	-0.123535	79.307108	15.784490	121.761652
61629		-2.643199	9.308281	1.813706	-0.004726	-0.001237	-0.002684	-1.105957	-0.437744	-0.117432	79.304796	15.785791	121.757873
61630		-2.634601	9.270269	1.797527	-0.004767	0.002063	0.001438	-1.104492	-0.444336	-0.122803	79.304366	15.785683	121.759199
61631		-2.635079	9.288797	1.826941	-0.002402	0.000831	0.002577	-1.108398	-0.444092	-0.113281	79.303877	15.784237	121.757333
61632		-2.634302	9.270232	1.798156	-0.005056	-0.000046	0.000577	-1.104736	-0.447510	-0.115967	79.302920	15.784389	121.757331
61633		-2.642945	9.308056	1.815234	-0.005348	0.001546	0.000123	-1.104004	-0.443359	-0.120361	79.300827	15.784469	121.753097
61634		-2.650856	9.274409	1.816334	-0.002983	0.000314	0.001262	-1.110107	-0.447754	-0.121826	79.301135	15.784275	121.753381
61635		-2.617504	9.265752	1.781894	-0.002983	0.000314	0.001262	-1.109375	-0.439453	-0.120850	79.300211	15.783603	121.752042
61636		-2.642312	9.289329	1.787091	-0.005601	0.003539	-0.004048	-1.107910	-0.444580	-0.118164	79.299372	15.786741	121.753625
61637		-2.651065	9.274173	1.817237	-0.001200	-0.001435	0.001085	-1.102539	-0.442383	-0.124512	79.299188	15.785870	121.748895
61638		-2.651529	9.292721	1.846537	-0.002402	0.000831	0.002577	-1.107666	-0.444336	-0.117432	79.299951	15.784990	121.749626
61639		-2.618078	9.284084	1.812149	-0.005969	0.004328	0.002930	-1.111328	-0.447510	-0.125000	79.298012	15.783789	121.751416
61640		-2.642563	9.254762	1.830622	-0.003564	-0.000203	-0.000054	-1.105957	-0.442871	-0.115967	79.297865	15.784279	121.751251
61641		-2.641904	9.289148	1.788633	-0.004475	0.000471	0.001892	-1.104980	-0.448486	-0.121094	79.296148	15.783241	121.748785
61642		-2.643001	9.273200	1.860494	-0.003272	-0.001795	0.000401	-1.108398	-0.453613	-0.124756	79.295929	15.783306	121.747739
61643		-2.617711	9.283897	1.813635	-0.003272	-0.001795	0.000401	-1.106445	-0.452393	-0.116211	79.294512	15.783048	121.747218
61644		-2.634333	9.288145	1.831326	-0.003856	0.001389	-0.000508	-1.111816	-0.440186	-0.125977	79.294438	15.783964	121.747934
61645		-2.625020	9.284654	1.772605	-0.002402	0.000830	0.002577	-1.112549	-0.444824	-0.119385	79.293997	15.782599	121.746022
61646		-2.634082	9.288130	1.831763	-0.001200	-0.001435	0.001085	-1.111572	-0.443359	-0.116455	79.295043	15.782317	121.745262
61647		-2.633445	9.269540	1.802969	-0.005928	0.001029	-0.001193	-1.103271	-0.442871	-0.124756	79.292510	15.782982	121.739102
61648		-2.650111	9.273764	1.820712	-0.003275	0.001905	0.000807	-1.105225	-0.448975	-0.120361	79.292891	15.783212	121.740265
61649		-2.617396	9.283641	1.815402	-0.002691	-0.001278	0.001716	-1.113037	-0.440674	-0.121094	79.291930	15.782188	121.740926
61650		-2.649853	9.273698	1.821424	-0.006547	0.000110	0.001208	-1.105225	-0.443848	-0.125732	79.290162	15.782002	121.741083
61651		-2.617166	9.283546	1.816215	-0.001491	0.000157	0.000631	-1.110596	-0.446777	-0.123291	79.290068	15.781580	121.739163
61652		-2.625124	9.302897	1.803964	-0.003272	-0.001795	0.000400	-1.114258	-0.438965	-0.124756	79.289849	15.781645	121.738117
61653		-2.609693	9.282614	1.858321	-0.001783	0.001748	0.000177	-1.112061	-0.447266	-0.117432	79.289832	15.781613	121.735315
61654		-2.625105	9.302813	1.804428	-0.003564	-0.000203	-0.000054	-1.104736	-0.441162	-0.121094	79.289685	15.782104	121.735150
61655		-2.609029	9.264025	1.829589	0.000292	-0.001592	0.000454	-1.107910	-0.442383	-0.116455	79.290366	15.781634	121.730510
61656		-2.657031	9.274356	1.781155	-0.002072	-0.000360	-0.000685	-1.105225	-0.441895	-0.122070	79.291030	15.782463	121.730183
61657		-2.633699	9.287654	1.834722	-0.001783	0.001748	0.000177	-1.115967	-0.455566	-0.120605	79.291043	15.782487	121.728657
61658		-2.624435	9.284208	1.775805	0.000292	-0.001592	0.000454	-1.100830	-0.447021	-0.124023	79.292899	15.782543	121.727735
61659		-2.633629	9.287638	1.834905	-0.001781	-0.001952	-0.000231	-1.107666	-0.450439	-0.117432	79.292344	15.782612	121.725298
61660		-2.617045	9.283288	1.817709	-0.002074	0.003340	-0.000277	-1.102295	-0.438477	-0.116943	79.293607	15.783605	121.727180
61661		-2.642125	9.272528	1.865081	-0.001819	-0.002354	0.003485	-1.114990	-0.449951	-0.126465	79.293076	15.781402	121.723988
61662		-2.632811	9.269087	1.806220	0.000621	-0.002781	-0.002808	-1.108643	-0.445801	-0.113525	79.294834	15.783168	121.722009
61663		-2.632889	9.269018	1.806463	-0.005055	-0.000047	0.000577	-1.104248	-0.442383	-0.121582	79.292729	15.782828	121.716316
61664		-2.648897	9.307728	1.781827	-0.001781	-0.001952	-0.000231	-1.107422	-0.448486	-0.119141	79.293321	15.783231	121.715107
61665		-2.616863	9.283147	1.818694	-0.000000	0.000000	-0.000000	-1.103271	-0.444336	-0.118652	79.294100	15.783270	121.714444
61666		-2.657461	9.292594	1.812018	-0.005055	-0.000047	0.000577	-1.104248	-0.451416	-0.124756	79.293143	15.783422	121.714439
61667		-2.616774	9.283045	1.819340	-0.003272	-0.001795	0.000400	-1.112305	-0.445068	-0.121582	79.291785	15.783150	121.715565
61668		-2.649259	9.273106	1.825294	-0.004474	0.000469	0.001893	-1.114258	-0.445068	-0.118652	79.291282	15.782616	121.716008
61669		-2.624594	9.302341	1.807600	-0.003564	-0.000203	-0.000054	-1.100830	-0.448242	-0.123779	79.289990	15.782519	121.708794
61670		-2.615948	9.264337	1.791509	-0.008910	0.001342	0.000070	-1.104004	-0.447510	-0.119873	79.287029	15.783104	121.709545
61671		-2.625134	9.267667	1.851024	-0.002983	0.000313	0.001262	-1.102295	-0.443115	-0.125244	79.286209	15.782600	121.713501
61672		-2.632381	9.268524	1.809732	-0.004474	0.000469	0.001893	-1.106934	-0.443848	-0.118652	79.285707	15.782066	121.713944
61673		-2.640270	9.287873	1.797644	-0.004765	0.002061	0.001439	-1.105957	-0.438965	-0.116211	79.284130	15.781495	121.716358
61674		-2.640835	9.306331	1.827111	-0.003274	0.001904	0.000808	-1.107178	-0.442383	-0.122070	79.284511	15.781724	121.717520
61675		-2.640216	9.287770	1.798253	-0.003855	0.001388	-0.000507	-1.103271	-0.441895	-0.125000	79.283296	15.782056	121.715661
61676		-2.616214	9.282513	1.822857	-0.003272	-0.001795	0.000400	-1.112793	-0.447998	-0.121094	79.283077	15.782121	121.714613
61677		-2.632052	9.268303	1.811346	-0.002401	0.000828	0.002577	-1.101074	-0.447021	-0.117920	79.282704	15.780763	121.714322
61678		-2.640538	9.306158	1.828417	-0.006546	0.000109	0.001208	-1.112061	-0.435791	-0.120361	79.280936	15.780576	121.714478
61679		-2.615873	9.282396	1.823940	-0.002072	-0.000360	-0.000685	-1.111816	-0.445557	-0.121338	79.280472	15.780844	121.711708
61680		-2.615324	9.263819	1.795093	-0.004144	-0.000719	-0.001370	-1.099609	-0.448242	-0.115967	79.279871	15.782020	121.711094
61681		-2.632544	9.286552	1.841946	-0.002691	-0.001280	0.001715	-1.104248	-0.444580	-0.116455	79.279011	15.780992	121.708979
61682		-2.631792	9.268019	1.813172	-0.005054	-0.000047	0.000577	-1.113037	-0.452393	-0.119385	79.278054	15.781144	121.708973
61683		-2.648272	9.272290	1.830868	-0.002401	0.000828	0.002577	-1.104248	-0.442383	-0.125732	79.277734	15.779839	121.705393
61684		-2.631513	9.268000	1.813675	-0.001491	0.000156	0.000631	-1.102539	-0.443604	-0.130615	79.278852	15.779982	121.705512
61685		-2.631605	9.267936	1.813869	-0.002944	0.000716	-0.002454	-1.103760	-0.448486	-0.124756	79.277986	15.781514	121.711825
61686		-2.648281	9.272176	1.831431	-0.001200	-0.001436	0.001084	-1.093262	-0.445557	-0.118164	79.279031	15.781233	121.711063
61687		-2.622907	9.282949	1.784620	-0.006254	-0.001483	0.001661	-1.105469	-0.447754	-0.112549	79.276099	15.780364	121.716004
61688		-2.638720	9.268708	1.773338	-0.004473	0.000468	0.001893	-1.098389	-0.445801	-0.122559	79.275596	15.779830	121.716446
61689		-2.639277	9.287132	1.802922	-0.005345	0.001544	0.000124	-1.106689	-0.447754	-0.115723	79.273642	15.780052	121.717239
61690		-2.639258	9.287048	1.803385	-0.005054	-0.000048	0.000577	-1.104980	-0.441162	-0.122559	79.272685	15.780204	121.717232
61691		-2.615924	9.300214	1.857304	-0.005926	0.001029	-0.001192	-1.110840	-0.445557	-0.127197	79.270263	15.780992	121.715694
61692		-2.655776	9.291173	1.821748	-0.005092	-0.000453	0.004292	-1.107178	-0.447998	-0.133789	79.269331	15.779009	121.715862
61693		-2.622854	9.301093	1.816526	-0.002401	0.000827	0.002578	-1.106934	-0.452393	-0.113281	79.268967	15.777732	121.719985
61694		-2.622750	9.301025	1.817023	-0.008908	0.001340	0.000070	-1.104004	-0.444824	-0.131104	79.266007	15.778318	121.720735
61695		-2.638606	9.286766	1.805789	-0.003892	0.000983	0.003208	-1.104980	-0.440186	-0.121094	79.264886	15.776760	121.722245
61696		-2.630312	9.267345	1.818757	-0.007455	0.000779	0.003154	-1.100342	-0.440430	-0.119873	79.262763	15.775549	121.723009
61697		-2.622116	9.300857	1.818799	-0.008036	0.000264	0.001838	-1.113037	-0.446777	-0.121094	79.259097	15.774499	121.723045
61698		-2.629868	9.267195	1.820165	-0.007455	0.000779	0.003154	-1.105469	-0.443848	-0.123535	79.256973	15.773288	121.723808
61699		-2.653662	9.272349	1.796557	-0.008037	0.003963	0.002249	-1.103027	-0.437744	-0.131592	79.253918	15.772444	121.724479
61700		-2.629370	9.320074	1.808404	-0.008073	-0.000143	0.005554	-1.105225	-0.449707	-0.125244	79.251366	15.769784	121.724970
61701		-2.636871	9.286433	1.810032	-0.013708	0.002993	0.005225	-1.101807	-0.446045	-0.120605	79.244971	15.767244	121.731670
61702		-2.653172	9.290626	1.828320	-0.007745	0.002370	0.002702	-1.106934	-0.447754	-0.119385	79.242920	15.766458	121.733315
61703		-2.620873	9.265924	1.865728	-0.008655	0.003041	0.004648	-1.107178	-0.440186	-0.123291	79.239468	15.764278	121.734711
61704		-2.603237	9.296156	1.806827	-0.008364	0.001448	0.005101	-1.111816	-0.444336	-0.119141	79.236989	15.762043	121.736083
61705		-2.611495	9.281006	1.837239	-0.005673	0.002729	0.003387	-1.106689	-0.441895	-0.116943	79.235138	15.760344	121.734893
61706		-2.603217	9.261589	1.850085	-0.003891	0.000981	0.003208	-1.108398	-0.447754	-0.119141	79.235090	15.759125	121.735782
61707		-2.634910	9.286292	1.813605	-0.001820	0.001340	0.003894	-1.107178	-0.449707	-0.123291	79.235268	15.757074	121.733140
61708		-2.651399	9.290566	1.831195	-0.003853	0.001389	-0.000507	-1.109863	-0.442871	-0.117676	79.235194	15.757989	121.733854
61709		-2.610748	9.280978	1.838440	-0.002981	-0.003388	0.000850	-1.100586	-0.442383	-0.121582	79.233862	15.757188	121.729348
61710		-2.634610	9.286215	1.814434	-0.001200	-0.001437	0.001083	-1.101074	-0.440674	-0.123047	79.234908	15.756906	121.728586
61711		-2.618627	9.300335	1.826478	-0.004144	0.002981	-0.000959	-1.115234	-0.447021	-0.126221	79.233848	15.757816	121.732441
61712		-2.610009	9.262411	1.810033	-0.002981	0.000311	0.001261	-1.104492	-0.449951	-0.123535	79.234156	15.757621	121.732721
61713		-2.617811	9.281807	1.797996	-0.005672	-0.000971	0.002975	-1.113037	-0.448242	-0.116455	79.231725	15.755946	121.732276
61714		-2.642197	9.305458	1.803501	-0.006253	-0.001485	0.001659	-1.111572	-0.444336	-0.115723	79.229885	15.755335	121.731550
61715		-2.634084	9.285951	1.816550	-0.006834	0.001699	0.000755	-1.106934	-0.443115	-0.117676	79.227184	15.755044	121.725544
61716		-2.609246	9.262165	1.812393	-0.010434	0.001087	0.004415	-1.099121	-0.443359	-0.119141	79.223440	15.753157	121.726629
61717		-2.593108	9.276247	1.824825	-0.002362	-0.002466	-0.001550	-1.107178	-0.447021	-0.127686	79.222557	15.753805	121.724073
61718		-2.649598	9.271583	1.806483	-0.005381	0.001135	0.003839	-1.108643	-0.441650	-0.120117	79.221698	15.752247	121.725121
61719		-2.650059	9.289952	1.836241	-0.007124	-0.000408	-0.000109	-1.104980	-0.444580	-0.121094	79.218438	15.752288	121.724482
61720		-2.609368	9.280277	1.843931	-0.008323	-0.005544	0.000560	-1.099121	-0.445313	-0.123047	79.214734	15.751860	121.721259
61721		-2.625223	9.265987	1.832976	-0.008323	-0.001845	0.000973	-1.111084	-0.447266	-0.120117	79.210608	15.751240	121.722295
61722		-2.617050	9.299466	1.833154	-0.007742	-0.001331	0.002289	-1.106201	-0.448242	-0.120361	79.207958	15.750290	121.721729
61723		-2.648902	9.271029	1.810343	-0.010395	0.001494	0.000701	-1.104736	-0.447021	-0.127686	79.203186	15.750136	121.720120
61724		-2.608178	9.261366	1.818003	-0.006252	-0.001487	0.001659	-1.101318	-0.444336	-0.127197	79.201347	15.749524	121.719392
61725		-2.616579	9.299134	1.835505	-0.007742	-0.005031	0.001876	-1.094727	-0.442871	-0.125244	79.197061	15.748092	121.721364
61726		-2.607655	9.261240	1.819395	-0.005380	0.001134	0.003840	-1.102051	-0.452148	-0.125000	79.196203	15.746534	121.722413
61727		-2.598880	9.276297	1.790396	-0.012466	0.001135	0.000016	-1.104980	-0.439209	-0.129883	79.190157	15.746914	121.728340
61728		-2.624125	9.265211	1.838459	-0.007123	-0.000408	-0.000109	-1.105469	-0.457764	-0.121582	79.187935	15.747414	121.728046
61729		-2.598845	9.275998	1.791993	-0.008323	0.001853	0.001387	-1.105225	-0.442627	-0.123535	79.184419	15.747018	121.731781
61730		-2.640013	9.303847	1.814970	-0.006832	0.001698	0.000756	-1.107178	-0.442139	-0.121094	79.182725	15.747257	121.732816
61731		-2.631875	9.284318	1.828062	-0.007741	-0.001333	0.002289	-1.106689	-0.446777	-0.120605	79.179068	15.745805	121.731111
61732		-2.623119	9.299405	1.798945	-0.006832	0.001698	0.000756	-1.103271	-0.445068	-0.122070	79.177374	15.746044	121.732145
61733		-2.624301	9.283061	1.871076	-0.010103	0.003599	0.001567	-1.109863	-0.444580	-0.127686	79.173146	15.745640	121.733618
61734		-2.607023	9.260232	1.825420	-0.010684	-0.000613	-0.000165	-1.101074	-0.442627	-0.122070	79.168850	15.746148	121.733198
61735		-2.656120	9.307498	1.836175	-0.007450	0.000772	0.003154	-1.102783	-0.440186	-0.117188	79.165720	15.744499	121.734845
61736		-2.598637	9.293607	1.826458	-0.009521	0.000413	0.002468	-1.103027	-0.445068	-0.115234	79.162333	15.743636	121.735320
61737		-2.631144	9.283566	1.832929	-0.010683	-0.000614	-0.000165	-1.113037	-0.443359	-0.124268	79.157076	15.743658	121.730678
61738		-2.639705	9.268172	1.863791	-0.011882	-0.002052	0.000917	-1.104980	-0.451172	-0.113525	79.151899	15.743402	121.729537
61739		-2.647692	9.287377	1.852610	-0.013044	-0.003079	-0.001717	-1.103027	-0.445313	-0.120117	79.144850	15.744089	121.724001
61740		-2.622974	9.263472	1.848835	-0.011010	-0.003133	0.002684	-1.106201	-0.445313	-0.119385	79.140054	15.742722	121.722427
61741		-2.614127	9.278510	1.820237	-0.011882	-0.005752	0.000500	-1.104980	-0.444092	-0.116455	79.133311	15.741893	121.717444
61742		-2.614550	9.296706	1.850634	-0.011300	-0.001541	0.002234	-1.104736	-0.445313	-0.121094	79.128587	15.740951	121.716750
61743		-2.655601	9.271465	1.886891	-0.008320	-0.001849	0.000972	-1.102295	-0.446045	-0.127197	79.124524	15.740251	121.713372
61744		-2.597510	9.292224	1.835074	-0.008939	-0.002775	0.003369	-1.111084	-0.442627	-0.126709	79.120993	15.738537	121.712084
61745		-2.645791	9.268106	1.829754	-0.011009	-0.003134	0.002684	-1.106201	-0.451660	-0.127197	79.115198	15.736754	121.712537
61746		-2.645513	9.267981	1.830790	-0.009519	-0.003289	0.002052	-1.106934	-0.441895	-0.117676	79.111213	15.735725	121.710801
61747		-2.637032	9.301534	1.831092	-0.007195	-0.001238	0.007320	-1.106201	-0.438965	-0.121338	79.108080	15.731581	121.710419
61748		-2.587361	9.254250	1.821197	0.006212	-0.002622	0.001640	-1.108398	-0.445313	-0.124756	79.113201	15.730856	121.709026
61749		-2.628418	9.282332	1.843059	0.005921	-0.001029	0.001190	-1.095703	-0.439697	-0.129883	79.117417	15.730051	121.707579
61750		-2.620493	9.263000	1.854713	0.012498	-0.008116	-0.004567	-1.106201	-0.444092	-0.123291	79.125080	15.732224	121.702278
61751		-2.636651	9.302102	1.828752	0.017221	-0.006886	-0.001879	-1.107910	-0.448975	-0.121338	79.134735	15.732631	121.701877
61752		-2.669530	9.292539	1.832274	0.030920	-0.009867	-0.007110	-1.116211	-0.443115	-0.126953	79.152598	15.736049	121.695268
61753		-2.622322	9.282351	1.877362	0.050291	-0.019276	-0.016150	-1.110352	-0.442383	-0.117920	79.178825	15.743083	121.681357
61754		-2.662551	9.290375	1.764650	0.075883	-0.027617	-0.023135	-1.105225	-0.448242	-0.125488	79.219146	15.753619	121.662584
61755		-2.624254	9.299971	1.794357	0.075313	-0.024447	-0.024039	-1.105225	-0.449951	-0.120605	79.258659	15.764576	121.644879
61756		-2.617785	9.281326	1.800513	0.074091	-0.026308	-0.019242	-1.104980	-0.448486	-0.123047	79.298276	15.773086	121.627316
61757		-2.619255	9.281989	1.794949	0.060177	-0.024623	-0.022302	-1.109619	-0.446777	-0.118408	79.329148	15.783206	121.611913
61758		-2.637354	9.286801	1.807439	0.059569	-0.025555	-0.019903	-1.110596	-0.448975	-0.113525	79.360541	15.792188	121.594727
61759		-2.622566	9.301622	1.814232	0.061323	-0.024017	-0.015959	-1.110107	-0.453125	-0.123291	79.392372	15.798648	121.575530
61760		-2.631567	9.268724	1.809894	0.061331	-0.024028	-0.015960	-1.105469	-0.445313	-0.117432	79.425135	15.805589	121.559678
61761		-2.599412	9.260810	1.769972	0.061918	-0.019819	-0.014240	-1.104736	-0.447021	-0.117188	79.458005	15.811634	121.547392
61762		-2.633038	9.304554	1.757345	0.057159	-0.017765	-0.012798	-1.104736	-0.442627	-0.113037	79.489469	15.817466	121.535558
61763		-2.626004	9.285738	1.765458	0.046793	-0.015872	-0.015801	-1.108643	-0.445068	-0.116211	79.514269	15.824690	121.522815
61764		-2.659250	9.363551	1.711725	0.042002	-0.017914	-0.011046	-1.113037	-0.449463	-0.113037	79.537075	15.829529	121.511088
61765		-2.652175	9.257299	1.776895	0.036372	-0.022185	-0.012178	-1.107666	-0.445557	-0.115723	79.555010	15.834029	121.493650
61766		-2.612927	9.266782	1.809961	0.036990	-0.021274	-0.014581	-1.101074	-0.442871	-0.116943	79.574303	15.840519	121.479576
61767		-2.613298	9.248417	1.778269	0.030439	-0.017461	-0.012960	-1.108643	-0.450195	-0.107178	79.589550	15.845979	121.468180
61768		-2.598116	9.262868	1.787789	0.024174	-0.011534	-0.010482	-1.109619	-0.447998	-0.116455	79.603175	15.851174	121.460257
61769		-2.631105	9.287347	1.749323	0.020321	-0.013851	-0.011385	-1.105225	-0.445801	-0.113525	79.613281	15.856151	121.447524
61770		-2.631677	9.234465	1.761417	0.015552	-0.011784	-0.009941	-1.113525	-0.448730	-0.112305	79.621942	15.861018	121.439513
61771		-2.624977	9.286638	1.788931	0.005437	-0.011874	-0.008765	-1.101807	-0.449951	-0.115723	79.623900	15.864668	121.428735
61772		-2.640843	9.287786	1.705708	0.002197	-0.013276	-0.012071	-1.108154	-0.447510	-0.119385	79.624607	15.870582	121.419622
61773		-2.642534	9.271841	1.777664	-0.004065	-0.011051	-0.009992	-1.105469	-0.453369	-0.110352	79.621199	15.875152	121.414438
61774		-2.618479	9.247868	1.773499	-0.004677	-0.011965	-0.007588	-1.102051	-0.452637	-0.120361	79.618307	15.878675	121.406574
61775		-2.611149	9.281106	1.773677	-0.012400	-0.009188	-0.008591	-1.108398	-0.446289	-0.114258	79.610487	15.882770	121.402267
61776		-2.652206	9.237129	1.781681	-0.012113	-0.007076	-0.007734	-1.113281	-0.446045	-0.114990	79.604113	15.886879	121.397251
61777		-2.636947	9.303885	1.781487	-0.018374	-0.004852	-0.005654	-1.102539	-0.448486	-0.120361	79.593632	15.889435	121.391886
61778		-2.636189	9.266163	1.725392	-0.022552	-0.005972	-0.003295	-1.112793	-0.451660	-0.114258	79.581584	15.891155	121.387993
61779		-2.628931	9.264907	1.769421	-0.027291	-0.003513	-0.005565	-1.106689	-0.444580	-0.117188	79.566214	15.893985	121.386794
61780		-2.637645	9.283511	1.759806	-0.032307	-0.006873	-0.009094	-1.110107	-0.451172	-0.118896	79.548259	15.898876	121.381746
61781		-2.614203	9.277680	1.787051	-0.030231	-0.006513	-0.008415	-1.106934	-0.444092	-0.114746	79.530630	15.902922	121.378376
61782		-2.622720	9.243321	1.790851	-0.028433	-0.011970	-0.008998	-1.108398	-0.446777	-0.113281	79.514079	15.907225	121.370349
61783		-2.640172	9.281113	1.768641	-0.023563	-0.016551	-0.022000	-1.105469	-0.447266	-0.115723	79.498270	15.917775	121.356704
61784		-2.610051	9.290080	1.764582	-0.000523	-0.028705	-0.038853	-1.105469	-0.448975	-0.107666	79.494125	15.937146	121.335627
61785		-2.590742	9.302595	1.816856	0.043451	-0.050068	-0.069125	-1.103760	-0.447021	-0.109619	79.509921	15.970828	121.296787
61786		-2.597677	9.370185	1.727080	0.096473	-0.075317	-0.111056	-1.106445	-0.446777	-0.120850	79.551642	16.026039	121.240575
61787		-2.649459	9.378213	1.710201	0.170703	-0.101111	-0.157333	-1.104492	-0.451416	-0.107422	79.629344	16.104141	121.165380
61788		-2.625444	9.488955	1.600594	0.264797	-0.114305	-0.224742	-1.096191	-0.455322	-0.110352	79.757639	16.219594	121.074270
61789		-2.601336	9.564704	1.563698	0.403528	-0.116097	-0.310233	-1.096436	-0.447754	-0.105225	79.961574	16.382872	120.974128
61790		-2.563832	9.703624	1.448230	0.591042	-0.064106	-0.419506	-1.099854	-0.458740	-0.101807	80.279214	16.613845	120.893344
61791		-2.172202	10.032464	1.440811	0.804646	-0.032188	-0.572950	-1.099854	-0.461670	-0.100098	80.719454	16.934288	120.817443
61792		-1.273632	12.205728	1.972029	0.875659	0.226444	-0.925848	-1.084961	-0.469971	-0.094482	81.237025	17.479022	120.864477
61793		-0.621072	13.863065	2.789418	0.823646	0.475425	-1.685956	-1.078857	-0.468750	-0.088623	81.751024	18.474086	120.996947
61794		-1.931805	13.140224	2.515862	0.690140	0.544967	-2.334218	-1.060791	-0.489014	-0.084229	82.190916	19.842476	121.126481
61795		-2.578831	13.597415	2.317765	0.642429	0.476839	-2.692718	-1.040771	-0.500000	-0.085938	82.585040	21.407061	121.194450
61796		-2.708357	14.156429	2.623566	0.429884	0.488836	-3.002227	-1.030762	-0.517090	-0.086670	82.857838	23.149314	121.259161
61797		-3.605027	15.540913	3.066964	0.006209	0.569019	-3.220037	-0.993896	-0.528320	-0.094482	82.904762	25.019991	121.362031
61798		-3.794064	17.607148	3.821321	-0.751796	0.626141	-3.227404	-0.975342	-0.539795	-0.092041	82.535086	26.900189	121.497187
61799		-4.756849	16.839111	3.661219	-1.443809	0.789133	-3.007843	-0.951416	-0.538330	-0.097900	81.821042	28.668360	121.737035
61800		-3.971572	13.045728	3.263773	-1.640292	1.016476	-2.845937	-0.930420	-0.549561	-0.120850	81.071855	30.367916	122.120117
61801		-1.224854	10.162939	2.671345	-1.313514	1.205756	-2.661893	-0.910400	-0.552979	-0.130615	80.585461	31.982797	122.631465
61802		1.087810	8.699481	2.000196	-0.635552	1.290279	-2.347070	-0.884521	-0.558350	-0.135254	80.550028	33.431034	123.236204
61803		4.983787	9.660871	2.168176	-0.039754	1.210174	-1.943542	-0.863037	-0.563232	-0.133057	80.868550	34.640768	123.842995
61804		4.607767	11.472945	1.767096	0.271410	1.211484	-1.544290	-0.845459	-0.577148	-0.141846	81.412698	35.622420	124.514952
61805		4.642099	15.444628	2.608728	0.177921	1.035785	-0.859393	-0.841064	-0.581055	-0.132568	81.888479	36.193989	125.149071
61806		7.030603	14.018475	2.133287	-0.277325	0.949735	-0.143791	-0.842285	-0.580322	-0.134033	82.118546	36.351756	125.803232
61807		7.728615	11.692255	1.392473	-0.612356	0.933872	0.386557	-0.839844	-0.580811	-0.139893	82.179279	36.202821	126.495045
61808		7.653777	10.139017	0.891919	-0.748776	0.972597	0.739167	-0.833252	-0.579346	-0.150146	82.195635	35.859465	127.248896
61809		6.808841	9.593828	0.777775	-0.726964	0.990958	1.054849	-0.839600	-0.577637	-0.154785	82.240675	35.334136	128.037553
61810		5.878045	9.491547	0.899811	-0.629990	0.962450	1.386679	-0.837646	-0.569580	-0.158447	82.338543	34.621264	128.834545
61811		5.008228	9.693747	1.101395	-0.511858	0.886420	1.704417	-0.850830	-0.575439	-0.164307	82.474812	33.716363	129.594668
61812		4.121452	9.995696	1.331563	-0.424292	0.787466	1.995945	-0.864990	-0.567139	-0.176514	82.623132	32.641402	130.306351
61813		3.286676	10.237759	1.551999	-0.378831	0.657117	2.247504	-0.876465	-0.557129	-0.178223	82.742371	31.407571	130.935562
61814		2.498335	10.287965	1.768084	-0.387009	0.521965	2.457021	-0.880615	-0.554443	-0.196289	82.804193	30.049075	131.486701
61815		1.695031	10.308927	1.874318	-0.429727	0.370592	2.620296	-0.898193	-0.545654	-0.186279	82.782082	28.581276	131.939290
61816		0.804008	10.364599	1.862335	-0.502520	0.206811	2.733156	-0.908936	-0.545898	-0.183838	82.662733	27.043395	132.296440
61817		-0.029251	10.349012	1.879952	-0.583362	0.022885	2.805862	-0.921143	-0.540039	-0.197266	82.437661	25.445723	132.538127
61818		-0.829682	10.242632	1.997711	-0.602991	-0.174850	2.846446	-0.946289	-0.533936	-0.200928	82.148843	23.816607	132.669492
61819		-1.535500	10.334909	2.097080	-0.561855	-0.383345	2.889031	-0.970459	-0.531982	-0.198975	81.832475	22.141344	132.678487
61820		-2.065692	10.536112	2.248488	-0.484853	-0.581762	2.924797	-0.990479	-0.529297	-0.202637	81.522584	20.435441	132.584825
61821		-2.476758	10.811926	2.407176	-0.389793	-0.769428	2.960884	-1.001953	-0.526367	-0.204834	81.234749	18.686435	132.386892
61822		-2.961634	11.267168	2.646518	-0.283836	-0.923593	3.001919	-1.033447	-0.522461	-0.199951	80.991500	16.905836	132.116837
61823		-3.404828	11.691199	2.917814	-0.192325	-1.043326	3.068907	-1.065430	-0.511719	-0.206787	80.792019	15.069352	131.787240
61824		-3.859741	11.936499	3.244459	-0.133284	-1.138542	3.159100	-1.091309	-0.498291	-0.194336	80.629097	13.178229	131.424665
61825		-4.294408	11.942567	3.512877	-0.102512	-1.192534	3.244374	-1.122559	-0.490479	-0.182373	80.490661	11.226814	131.042010
61826		-4.862525	12.014791	3.690100	-0.114520	-1.218646	3.300073	-1.160156	-0.478516	-0.178711	80.359425	9.246681	130.661955
61827		-5.550585	11.834804	3.951066	-0.176564	-1.234997	3.315569	-1.186035	-0.462646	-0.177246	80.203784	7.249332	130.276484
61828		-6.529506	11.503957	4.062918	-0.256931	-1.279683	3.304338	-1.216553	-0.437744	-0.166992	80.014970	5.258754	129.876985
61829		-7.613658	11.207047	3.700070	-0.379264	-1.400621	3.254705	-1.236816	-0.418213	-0.157715	79.763256	3.276837	129.408615
61830		-8.299562	10.211530	3.275664	-0.489839	-1.547153	3.130453	-1.275146	-0.393555	-0.163330	79.462329	1.353251	128.859618
61831		-9.131154	9.058314	2.689286	-0.489196	-1.655402	2.937107	-1.289551	-0.380371	-0.152588	79.177455	-0.480940	128.235473
61832		-9.931836	8.372074	2.109247	-0.442888	-1.712099	2.704079	-1.314209	-0.345703	-0.143066	78.941204	-2.187824	127.566195
61833		-10.727533	7.661184	1.735162	-0.365096	-1.698353	2.465450	-1.339844	-0.334473	-0.126465	78.767693	-3.766008	126.880202
61834		-11.028784	6.942373	1.349423	-0.281198	-1.580874	2.205390	-1.355469	-0.311035	-0.113037	78.658664	-5.181981	126.237270
61835		-11.217030	6.359377	1.048953	-0.177867	-1.355508	1.925442	-1.360840	-0.301514	-0.116455	78.612350	-6.419996	125.687641
61836		-11.075995	6.159637	0.888273	-0.119120	-1.053650	1.637868	-1.377197	-0.275635	-0.103760	78.595502	-7.458736	125.278231
61837		-10.707212	5.920292	0.685965	-0.115611	-0.706976	1.329451	-1.382080	-0.263428	-0.099854	78.563708	-8.288234	125.027480
61838		-10.504154	5.855868	0.720571	-0.197155	-0.329138	1.013989	-1.397461	-0.253418	-0.096191	78.463133	-8.894649	124.957538
61839		-10.530033	5.542097	0.730604	-0.329240	0.021986	0.693990	-1.397705	-0.244873	-0.107422	78.260125	-9.283480	125.049648
61840		-10.413375	5.106377	0.914820	-0.428584	0.338189	0.374784	-1.406738	-0.240723	-0.109863	77.977933	-9.453247	125.286585
61841		-10.366618	4.803972	1.070932	-0.469128	0.591202	0.045621	-1.405273	-0.237061	-0.110352	77.653680	-9.408493	125.626735
61842		-9.998170	4.676957	1.364262	-0.472175	0.792802	-0.277397	-1.402344	-0.234619	-0.125732	77.318246	-9.154431	126.041117
61843		-8.848127	-4.987551	2.926853	1.680125	0.598160	-1.994344	-1.381836	-0.250977	-0.121338	78.267308	-7.965617	126.134935
61844		3.388212	2.787694	-3.891072	2.606189	0.675612	-2.419078	-1.385254	-0.285156	-0.119873	79.747850	-6.530770	126.251526
61845		0.671775	17.055205	0.004977	1.928368	0.238754	-2.568755	-1.374268	-0.306152	-0.116699	80.864714	-5.057294	126.137455
61846		0.055794	10.829958	-1.033929	1.051273	-0.327939	-3.042739	-1.358643	-0.324463	-0.112061	81.502375	-3.362852	125.683344
61847		-1.873952	10.786534	-0.035203	0.231495	-0.732415	-3.576329	-1.342773	-0.357178	-0.115479	81.665414	-1.397496	124.967179
61848		-1.709136	10.872983	-0.636004	-0.184294	-0.823794	-3.839805	-1.325684	-0.376953	-0.103516	81.566468	0.710727	124.179450
61849		-1.533714	11.866672	-1.963600	-0.004734	-0.513048	-3.626387	-1.312988	-0.406250	-0.107422	81.546702	2.722664	123.582824
61850		-1.674243	12.565878	-2.735922	0.092918	-0.068721	-3.409321	-1.288818	-0.422607	-0.102539	81.580908	4.649632	123.256616
61851		-1.659684	11.957412	-1.587335	-0.005381	0.309672	-3.381976	-1.278320	-0.443604	-0.112061	81.568228	6.592338	123.147155
61852		-3.752779	14.020434	1.736445	-0.224104	0.551353	-3.411221	-1.255371	-0.467285	-0.117920	81.444912	8.572523	123.171109
61853		-5.413524	13.399649	1.755047	-0.674402	0.411235	-3.368612	-1.229736	-0.488037	-0.119873	81.049429	10.515939	123.108910
61854		-5.110235	13.463246	5.131829	-0.634365	0.356327	-3.135271	-1.210938	-0.503906	-0.138428	80.670945	12.322414	123.023419
61855		-7.954682	16.719205	6.490587	-0.483117	0.554745	-2.714695	-1.194824	-0.524170	-0.145264	80.408701	13.909045	123.082376
61856		-9.368794	14.800151	3.112325	-0.153975	0.306992	-1.668625	-1.189209	-0.537598	-0.146973	80.325856	14.881526	123.096215
61857		-3.967523	12.400635	0.673905	0.013819	0.225609	-0.956903	-1.181152	-0.530029	-0.154541	80.344314	15.444137	123.132561
61858		-4.824572	13.208359	-0.491812	-0.181940	0.171240	-0.543311	-1.174805	-0.535645	-0.154785	80.254361	15.767990	123.178479
61859		-2.784621	8.761283	2.627997	-0.265235	0.157558	-0.349215	-1.175293	-0.536621	-0.152344	80.119078	15.981017	123.235256
61860		-3.262636	9.814111	1.632167	-0.145185	0.117494	-0.246825	-1.175049	-0.542236	-0.155273	80.049898	16.132394	123.278887
61861		-3.285216	10.862039	0.911157	-0.150126	0.069619	-0.064770	-1.173340	-0.535400	-0.161133	79.974455	16.176364	123.312837
61862		-2.741272	9.404957	1.430642	-0.262716	0.028271	-0.033115	-1.171631	-0.537354	-0.156494	79.829521	16.198360	123.325942
61863		-2.892577	9.576433	1.437731	-0.241897	-0.027131	-0.052001	-1.172119	-0.536621	-0.159912	79.686037	16.225422	123.304259
61864		-2.792773	9.687357	1.293248	-0.254601	-0.025873	-0.060937	-1.168213	-0.538818	-0.164307	79.536007	16.257568	123.282475
61865		-2.773594	9.305758	1.716606	-0.248850	-0.022625	-0.071724	-1.164551	-0.541992	-0.155762	79.388640	16.296105	123.261140
61866		-2.737893	9.378366	1.692667	-0.222255	-0.020964	-0.075310	-1.173584	-0.538086	-0.164795	79.257428	16.336759	123.240470
61867		-2.813032	9.282313	1.805696	-0.199720	-0.026081	-0.072884	-1.160400	-0.536133	-0.159912	79.137529	16.375482	123.216784
61868		-2.792354	9.342010	1.764477	-0.158144	-0.031027	-0.063109	-1.170654	-0.536621	-0.168213	79.041696	16.408098	123.191411
61869		-2.813348	9.376755	1.754213	-0.132297	-0.033825	-0.064740	-1.166504	-0.534180	-0.168945	78.959341	16.441317	123.163967
61870		-2.860189	9.347070	1.800264	-0.113682	-0.018306	-0.048664	-1.163086	-0.532227	-0.171875	78.891509	16.467142	123.147606
61871		-2.701265	9.306954	1.841236	-0.089221	0.011738	-0.017526	-1.164551	-0.534180	-0.174072	78.842914	16.478798	123.152235
61872		-2.760648	9.264933	1.869528	-0.074746	0.029427	-0.014443	-1.166016	-0.534180	-0.177490	78.806433	16.490660	123.167767
61873		-2.764150	9.281316	1.903618	-0.043078	0.033083	-0.013917	-1.168213	-0.536377	-0.169434	78.787949	16.502666	123.185311
61874		-2.811773	9.326734	1.813759	-0.005799	0.032893	-0.025021	-1.164551	-0.537109	-0.182861	78.791205	16.520868	123.201639
61875		-2.794996	9.392846	1.712768	0.008984	0.022522	-0.036611	-1.168945	-0.531494	-0.173340	78.800053	16.544452	123.210359
61876		-2.794657	9.354699	1.794844	0.010524	0.003232	-0.051465	-1.164063	-0.536621	-0.181152	78.806845	16.574214	123.206235
61877		-2.756195	9.218608	1.937288	0.040157	0.002079	-0.064108	-1.162598	-0.535156	-0.177246	78.829243	16.610976	123.199789
61878		-2.656087	9.122893	1.954957	0.077522	0.010468	-0.066007	-1.160889	-0.539307	-0.164795	78.875157	16.649717	123.198254
61879		-2.682640	9.056452	2.044613	0.139153	0.038341	-0.066262	-1.172363	-0.541748	-0.172363	78.960316	16.691690	123.212903
61880		-2.694601	9.147963	1.932851	0.182678	0.069828	-0.063374	-1.163574	-0.543457	-0.162109	79.076624	16.735433	123.246645
61881		-2.800796	9.314020	1.705021	0.208181	0.082073	-0.071996	-1.162598	-0.550293	-0.170410	79.208621	16.785290	123.286519
61882		-2.803802	9.367219	1.712064	0.222933	0.077211	-0.087282	-1.160400	-0.540771	-0.170410	79.348602	16.843132	123.322166
61883		-2.815308	9.333488	1.730561	0.231718	0.072872	-0.100129	-1.165527	-0.541016	-0.160156	79.491781	16.907676	123.353807
61884		-2.810730	9.295863	1.731110	0.249098	0.079843	-0.112081	-1.151367	-0.551758	-0.162598	79.646594	16.979591	123.388645
61885		-2.832257	9.281572	1.734485	0.256775	0.101386	-0.116336	-1.163818	-0.552002	-0.164795	79.808736	17.056019	123.435748
61886		-2.802905	9.255447	1.686216	0.269160	0.108181	-0.127808	-1.154785	-0.540527	-0.166016	79.979698	17.139464	123.486111
61887		-2.794658	9.304505	1.669325	0.287045	0.113837	-0.143034	-1.156494	-0.547119	-0.168701	80.160827	17.231914	123.538324
61888		-2.795576	9.319795	1.650050	0.319024	0.129664	-0.161162	-1.150146	-0.545410	-0.161133	80.363466	17.335966	123.598618
61889		-2.883697	9.333964	1.539220	0.355045	0.143078	-0.190739	-1.159912	-0.552246	-0.151367	80.587724	17.457781	123.664141
61890		-2.928685	9.390886	1.462194	0.371929	0.145672	-0.213214	-1.141602	-0.556152	-0.153320	80.822531	17.592297	123.729797
61891		-2.949116	9.370979	1.393983	0.377016	0.140085	-0.227467	-1.146240	-0.555420	-0.157227	81.058425	17.734108	123.791194
61892		-3.030876	9.381382	1.363374	0.360136	0.121133	-0.241195	-1.145020	-0.560303	-0.146240	81.281913	17.881795	123.840921
61893		-3.058426	9.273193	1.313848	0.339599	0.095676	-0.243754	-1.140869	-0.553711	-0.156250	81.488458	18.028559	123.875656
61894		-3.017361	9.330251	1.369982	0.344209	0.074495	-0.257026	-1.138672	-0.566650	-0.141846	81.694370	18.180961	123.897400
61895		-3.008639	9.285528	1.345389	0.354232	0.073725	-0.259339	-1.138916	-0.560791	-0.139893	81.905323	18.334524	123.918862
61896		-2.979518	9.289746	1.329606	0.385320	0.093554	-0.284106	-1.144287	-0.562988	-0.140869	82.138181	18.503647	123.950980
61897		-3.001574	9.234529	1.345387	0.435624	0.110412	-0.314255	-1.140137	-0.567139	-0.145020	82.401914	18.691036	123.991316
61898		-2.916603	9.438518	1.337642	0.446587	0.139297	-0.348254	-1.137451	-0.572510	-0.142578	82.677839	18.899722	124.047530
61899		-3.071808	9.309536	1.194964	0.464129	0.166680	-0.412929	-1.123291	-0.578125	-0.136230	82.967435	19.146840	124.116225
61900		-3.040355	9.515041	1.429200	0.439554	0.196474	-0.451838	-1.122559	-0.573242	-0.136230	83.249447	19.417839	124.201706
61901		-3.002648	9.643128	1.297692	0.355378	0.238630	-0.516701	-1.126953	-0.575928	-0.132813	83.490384	19.728131	124.309290
61902		-3.141741	9.515819	1.158490	0.324539	0.263065	-0.588357	-1.111816	-0.584717	-0.134766	83.718907	20.080404	124.428654
61903		-3.269182	9.422307	1.102201	0.325050	0.265336	-0.635835	-1.108154	-0.587158	-0.117432	83.947694	20.459351	124.547758
61904		-3.323433	9.471940	1.058815	0.312050	0.261209	-0.687452	-1.103760	-0.590576	-0.129395	84.169186	20.867086	124.663274
61905		-3.465687	9.485343	0.857761	0.285928	0.241515	-0.739547	-1.104492	-0.593262	-0.128906	84.370963	21.302920	124.765178
61906		-3.533333	9.666470	0.783649	0.244428	0.205354	-0.797890	-1.088867	-0.596436	-0.121338	84.541737	21.769783	124.843602
61907		-3.525124	9.751031	0.795224	0.210018	0.172035	-0.887095	-1.086670	-0.604492	-0.125977	84.683650	22.285455	124.897647
61908		-3.546300	9.867818	0.782008	0.175112	0.157408	-0.993136	-1.078857	-0.603027	-0.125488	84.801582	22.860828	124.938447
61909		-3.573982	9.749391	0.941874	0.163613	0.160164	-1.114655	-1.061035	-0.609375	-0.125244	84.911139	23.505500	124.975218
61910		-3.537661	9.726787	1.129594	0.186874	0.176790	-1.233367	-1.054932	-0.626953	-0.130371	85.037402	24.218802	125.017869
61911		-3.646485	9.736645	1.153373	0.230658	0.202854	-1.377160	-1.053467	-0.623535	-0.110107	85.193014	25.015215	125.070922
61912		-3.761496	9.762235	1.027143	0.274660	0.223877	-1.529795	-1.025635	-0.630859	-0.111816	85.378894	25.899777	125.132738
61913		-3.827473	9.879117	0.881421	0.323274	0.232221	-1.696764	-1.014404	-0.634277	-0.118652	85.593124	26.879688	125.194906
61914		-3.965407	10.002471	0.861742	0.344040	0.243956	-1.908529	-1.001709	-0.650391	-0.112061	85.822059	27.981066	125.259748
61915		-3.983577	9.819791	1.050977	0.390457	0.256440	-2.131380	-0.980469	-0.653564	-0.113770	86.079809	29.209802	125.327893
61916		-4.104144	9.910398	0.874455	0.444178	0.283700	-2.368548	-0.965088	-0.651855	-0.105469	86.378196	30.575109	125.412048
61917		-4.289210	10.142706	0.677956	0.477772	0.289019	-2.646722	-0.943359	-0.666748	-0.103760	86.697947	32.098940	125.497678
61918		-4.199683	10.368526	0.749656	0.541932	0.298307	-2.965321	-0.912598	-0.671875	-0.099365	87.061106	33.805205	125.590868
61919		-4.100664	9.675121	1.242307	0.680529	0.316855	-3.229288	-0.883545	-0.693359	-0.095703	87.517182	35.661991	125.704216
61920		-4.098552	9.457692	1.617499	0.802161	0.448735	-3.698223	-0.856201	-0.697754	-0.085938	88.110187	37.789657	125.923933
61921		-4.167648	9.487587	1.873593	0.954308	0.599645	-4.150784	-0.813965	-0.710938	-0.077393	88.885522	40.175965	126.284483
61922		-4.629395	10.022731	1.782530	1.120918	0.738617	-4.704223	-0.772949	-0.710449	-0.079590	89.878923	42.876177	126.810917
61923		-5.591843	10.908542	1.504750	1.282575	0.805159	-5.319125	-0.726074	-0.721680	-0.057129	91.091788	45.919543	127.491187
61924		-6.358855	12.557615	1.366008	1.339560	0.795580	-5.988479	-0.679688	-0.718506	-0.050781	92.478329	49.335349	128.325779
61925		-9.653531	14.007594	1.421147	1.259517	0.750800	-6.621205	-0.620361	-0.722168	-0.039551	94.002289	53.098235	129.351636
61926		-15.157440	17.619058	1.312548	1.184493	0.707193	-6.972284	-0.552979	-0.725830	-0.025391	95.748003	57.044843	130.649635
61927		-18.134154	21.499208	1.136246	0.539434	0.833522	-7.011203	-0.489258	-0.712402	-0.015869	97.626275	60.978696	132.476233
61928		-15.958365	21.424432	1.713365	-0.215580	0.941556	-6.906950	-0.431396	-0.690674	-0.020264	99.713321	64.810845	134.955947
61929		-12.880560	22.157258	1.400660	-0.878947	0.944453	-6.710720	-0.379883	-0.664551	-0.029541	102.126713	68.483715	138.128681
61930		-9.386786	19.333476	-0.010618	-1.205397	1.237420	-6.389943	-0.336182	-0.646240	-0.026855	105.800072	71.868707	142.763471
61931		-5.397498	18.501455	0.803571	-1.017647	1.482212	-6.108285	-0.284180	-0.620605	-0.025879	111.682758	74.913331	149.504273
61932		-2.893549	16.902477	1.191732	-0.792500	1.751387	-6.075100	-0.232666	-0.591553	-0.017334	121.261762	77.592896	159.826997
61933		2.021758	20.324717	2.504079	-0.950139	1.912781	-6.071544	-0.199707	-0.558105	-0.028076	135.775423	79.648699	175.176818
61934		3.716994	14.345878	2.017922	-1.353220	2.001197	-5.318236	-0.153564	-0.529297	-0.020508	153.058171	80.500267	-166.497582
61935		1.935462	16.405899	-0.337412	-1.771662	2.306218	-4.408584	-0.129883	-0.506592	-0.020996	168.555707	80.078655	-149.753240
61936		-1.081782	25.579093	4.809465	-2.673980	2.274952	-1.984445	-0.116943	-0.499756	-0.034180	174.167371	78.958599	-142.490795
61937		-0.717001	19.273165	3.996665	-2.833966	2.116485	0.576756	-0.130127	-0.490723	-0.040039	171.652985	77.716063	-143.405738
61938		-1.530111	13.726413	3.933187	-2.413479	1.621568	2.370429	-0.136963	-0.497803	-0.052002	165.263953	76.532929	-148.542513
61939		-1.445629	9.743811	3.625974	-1.934115	1.114404	3.436683	-0.161377	-0.518066	-0.052734	157.499267	75.297700	-155.410230
61940		-1.763103	7.692648	3.362831	-1.520390	0.644888	4.030629	-0.191406	-0.530762	-0.066895	149.704661	73.937546	-162.591670
61941		-1.761243	6.507978	3.361920	-1.179541	0.223528	4.352577	-0.229492	-0.550293	-0.089111	142.390665	72.434676	-169.530693
61942		-1.658561	5.569977	3.285122	-0.903144	-0.163178	4.502578	-0.266113	-0.564209	-0.090088	135.817663	70.814248	-175.912246
61943		-1.490238	5.180273	3.095137	-0.712274	-0.507184	4.525471	-0.291504	-0.585938	-0.099854	129.964354	69.107358	178.287273
61944		-1.303277	5.839912	2.838555	-0.682182	-0.777366	4.456910	-0.342529	-0.603760	-0.112549	124.806087	67.347421	173.152716
61945		-1.427303	6.523530	2.511260	-0.794632	-1.000993	4.339464	-0.389404	-0.612305	-0.132324	120.159255	65.552395	168.575819
61946		-1.564852	6.952500	2.234932	-0.943605	-1.223256	4.254216	-0.429688	-0.621338	-0.145752	115.897783	63.729437	164.457028
61947		-1.874850	8.094358	1.709679	-1.101667	-1.444356	4.238705	-0.471924	-0.624512	-0.163818	111.869111	61.837296	160.631969
61948		-2.215835	8.952464	1.249666	-1.264638	-1.636824	4.323752	-0.526367	-0.629639	-0.183350	108.051217	59.828482	157.088221
61949		-2.567266	9.500712	0.793420	-1.362248	-1.806438	4.476267	-0.566162	-0.625244	-0.205566	104.440721	57.648166	153.772943
61950		-2.851595	9.945477	0.329525	-1.393207	-1.930424	4.660188	-0.632324	-0.630127	-0.229248	101.124571	55.288700	150.751096
61951		-3.113873	10.337868	-0.101673	-1.399951	-1.993567	4.814771	-0.697998	-0.619141	-0.256348	98.127225	52.751469	148.033635
61952		-3.484278	10.989134	-0.474638	-1.411840	-2.010394	4.937337	-0.758545	-0.614014	-0.269775	95.466492	50.078776	145.663183
61953		-4.028169	11.722473	-0.748976	-1.461724	-1.973905	5.037217	-0.829346	-0.590332	-0.291504	93.094731	47.276120	143.615323
61954		-4.694193	12.079327	-0.850550	-1.479140	-1.902121	5.161024	-0.899414	-0.569336	-0.320313	91.018818	44.360313	141.900564
61955		-5.542811	12.137967	-0.628004	-1.392534	-1.822827	5.308481	-0.970703	-0.535889	-0.338867	89.241395	41.311672	140.454687
61956		-6.495468	11.974552	-0.238408	-1.165878	-1.792594	5.445884	-1.053467	-0.491699	-0.362305	87.788598	38.166186	139.224826
61957		-7.141731	11.807740	0.195853	-0.814114	-1.841977	5.556157	-1.131348	-0.437988	-0.381104	86.651716	34.925475	138.093714
61958		-7.496356	12.229038	0.708568	-0.427932	-1.955732	5.619088	-1.208740	-0.365479	-0.385498	85.813111	31.639665	137.009421
61959		-7.880695	13.284447	1.114602	-0.074496	-2.089966	5.642034	-1.281494	-0.271484	-0.395508	85.224964	28.313314	135.912563
61960		-8.237146	14.535277	1.459913	0.176725	-2.210891	5.644195	-1.322998	-0.164551	-0.392578	84.835351	24.982208	134.814210
61961		-8.821006	16.109736	1.795621	0.338909	-2.330330	5.632811	-1.369385	-0.057373	-0.378906	84.583159	21.635347	133.681129
61962		-10.546728	18.225402	1.996240	0.415774	-2.461228	5.675530	-1.367676	0.050537	-0.357422	84.426789	18.263766	132.519262
61963		-13.234275	20.311178	2.006191	0.378520	-2.630919	5.826227	-1.345215	0.156494	-0.326416	84.294785	14.783515	131.287971
61964		-16.397525	21.157069	2.033365	0.285131	-2.801322	6.062286	-1.313232	0.210205	-0.293457	84.172507	11.166715	130.007550
61965		-19.331426	20.173554	2.008535	0.282852	-2.879614	6.305857	-1.281006	0.257324	-0.238770	84.125952	7.394715	128.709946
61966		-21.466132	17.888231	1.893566	0.317242	-2.795162	6.401459	-1.271240	0.290039	-0.196045	84.192450	3.583341	127.484605
61967		-23.183779	14.315183	1.649097	0.258879	-2.585626	6.181908	-1.240723	0.346924	-0.142090	84.306614	-0.097755	126.358477
61968		-23.726580	10.517431	1.287679	0.033600	-2.344275	5.604361	-1.209961	0.382568	-0.098389	84.359173	-3.425375	125.338621
61969		-22.831677	7.225769	0.279150	-0.317173	-2.042633	4.733807	-1.163818	0.408203	-0.047363	84.253288	-6.247341	124.434751
61970		-21.013036	5.252528	-0.810484	-0.657671	-1.615408	3.783081	-1.117188	0.420410	-0.014404	83.968718	-8.497964	123.730692
61971		-19.692279	2.595728	-1.611600	-0.765189	-1.070867	2.924540	-1.079590	0.414795	0.022705	83.601249	-10.235630	123.292335
61972		-20.329117	0.969619	-1.556663	-0.530266	-0.475750	2.212450	-1.046875	0.410889	0.041016	83.323668	-11.525590	123.163529
61973		-21.467457	0.594366	-1.577852	-0.094988	0.059819	1.636070	-1.023438	0.390381	0.047119	83.239141	-12.456654	123.307459
61974		-22.292903	0.830826	-1.539790	0.124687	0.430540	1.066996	-0.999023	0.384277	0.057129	83.240832	-13.034241	123.632383
61975		-22.199867	1.090440	-1.466211	0.109707	0.617349	0.448226	-0.987305	0.373047	0.066650	83.215097	-13.250196	124.022286
61976		-21.230698	1.434203	-1.221065	0.005468	0.643884	-0.226452	-0.960693	0.369385	0.062744	83.138102	-13.077064	124.382636
61977		-19.550252	2.259329	-0.870307	-0.022501	0.585695	-0.853460	-0.942627	0.361084	0.067139	83.063357	-12.552463	124.663209
61978		-20.455185	2.564992	2.111966	0.981236	0.690356	-2.832364	-0.936523	0.363525	0.064209	83.585163	-10.894192	124.871753
61979		7.397530	0.736466	-5.373437	1.784296	0.443853	-3.817945	-0.922607	0.353027	0.056396	84.603349	-8.691926	124.900148
61980		3.347124	18.729640	-3.534612	1.192502	0.323207	-3.728718	-0.913574	0.355469	0.064209	85.289117	-6.547061	124.896388
61981		0.982258	8.890046	-2.842865	-0.102421	-0.327875	-4.533292	-0.888428	0.350830	0.060547	85.268281	-3.974010	124.493471
61982		-4.954396	11.078593	-0.041733	-0.337705	-0.525911	-5.228312	-0.876709	0.339600	0.068604	85.100719	-1.013784	123.941283
61983		-7.191703	17.695537	-1.637687	-0.761538	-0.497987	-4.909577	-0.865723	0.330566	0.072754	84.661901	1.762633	123.405946
61984		-2.978848	14.087608	-2.054433	-0.711756	-0.068486	-4.318289	-0.851807	0.333984	0.065430	84.241420	4.221916	123.127315
61985		-3.748674	15.867593	-0.278029	-0.349578	0.568025	-4.173295	-0.837158	0.324219	0.072510	84.050013	6.634179	123.207477
61986		-6.640769	16.993686	1.350060	-0.744814	0.793222	-4.092002	-0.832764	0.326172	0.067627	83.652730	9.014384	123.410093
61987		-8.782227	17.604662	5.126757	-1.099091	0.570963	-3.618871	-0.830566	0.324219	0.081055	83.039358	11.112422	123.496146
61988		-7.251843	14.409629	5.274293	-0.947303	0.397536	-3.026045	-0.824951	0.319580	0.069092	82.500131	12.861563	123.504056
61989		-7.913422	14.414477	3.764910	-0.682495	0.252444	-2.283593	-0.818848	0.318604	0.067383	82.102549	14.178531	123.471416
61990		-8.361662	15.635097	1.659828	-0.289543	0.093975	-1.281678	-0.817383	0.312988	0.076904	81.925946	14.913708	123.421086
61991		-3.348094	11.261260	-0.239894	-0.220541	0.081929	-0.316441	-0.804443	0.321289	0.081299	81.806268	15.101116	123.443024
61992		-3.511302	11.146337	1.341682	-0.489278	-0.037195	-0.317307	-0.809326	0.315674	0.078125	81.514978	15.278377	123.393829
61993		-3.342113	9.725269	1.173189	-0.328768	-0.058579	-0.087411	-0.809326	0.326172	0.076904	81.316659	15.324200	123.352084
61994		-2.622579	10.038771	0.719003	-0.333253	-0.061769	-0.066551	-0.809570	0.317383	0.072754	81.116456	15.356951	123.309751
61995		-2.885288	9.633878	1.314348	-0.314874	-0.061787	-0.053571	-0.816162	0.316406	0.078125	80.926333	15.383073	123.268944
61996		-2.648355	9.638493	1.266164	-0.262896	-0.063090	-0.028631	-0.800537	0.322021	0.075684	80.767092	15.393988	123.229193
61997		-2.632767	9.352937	1.598373	-0.222297	-0.066299	-0.017338	-0.812988	0.324951	0.079834	80.630191	15.398987	123.189074
61998		-2.519682	9.339310	1.629922	-0.169302	-0.060939	-0.013003	-0.806396	0.311279	0.081543	80.525292	15.401092	123.152050
61999		-2.551472	9.308272	1.621219	-0.133809	-0.053934	-0.012047	-0.804932	0.322510	0.074951	80.441138	15.404122	123.119675
62000		-2.591346	9.368765	1.612081	-0.102781	-0.049680	-0.013377	-0.807617	0.327393	0.085205	80.376090	15.407407	123.089204
62001		-2.576949	9.328232	1.646520	-0.060173	-0.049201	-0.016735	-0.807617	0.327881	0.086426	80.334729	15.413466	123.059124
62002		-2.602500	9.454756	1.487295	-0.033700	-0.048090	-0.016641	-0.808594	0.320313	0.074951	80.309415	15.418704	123.029252
62003		-2.611241	9.473148	1.478956	-0.036710	-0.034351	-0.022109	-0.793701	0.320068	0.083008	80.283660	15.429199	123.007323
62004		-2.558551	9.441946	1.545986	-0.039428	-0.035617	-0.020427	-0.804688	0.321777	0.083740	80.256898	15.437756	122.984371
62005		-2.636808	9.529074	1.450664	-0.053956	-0.034784	-0.021283	-0.809082	0.330322	0.084717	80.221213	15.447716	122.962255
62006		-2.558140	9.455108	1.486474	-0.066520	-0.037691	-0.018115	-0.807861	0.326660	0.082764	80.178656	15.454739	122.938309
62007		-2.555085	9.418212	1.577988	-0.070537	-0.034318	-0.022847	-0.806152	0.319092	0.084961	80.133502	15.465591	122.916289
62008		-2.524869	9.373043	1.594248	-0.078689	-0.031643	-0.028996	-0.809814	0.321777	0.088623	80.084610	15.479314	122.894760
62009		-2.547815	9.306472	1.703767	-0.078603	-0.020624	-0.027776	-0.801758	0.324951	0.088623	80.036828	15.494259	122.880226
62010		-2.564594	9.271911	1.670263	-0.081239	-0.010871	-0.024869	-0.800293	0.328369	0.082764	79.989821	15.507683	122.871259
62011		-2.572536	9.323817	1.623970	-0.097518	-0.008328	-0.025557	-0.805664	0.326416	0.076904	79.933171	15.522575	122.864122
62012		-2.599778	9.345152	1.638471	-0.115419	-0.006908	-0.033926	-0.800049	0.333252	0.084473	79.866936	15.541488	122.856502
62013		-2.628008	9.312917	1.668116	-0.143602	-0.010087	-0.034249	-0.802246	0.323975	0.082031	79.783348	15.561083	122.847381
62014		-2.558178	9.309288	1.685886	-0.163050	-0.023261	-0.043672	-0.804688	0.328369	0.079102	79.686955	15.583801	122.829099
62015		-2.552868	9.320500	1.672597	-0.175240	-0.013989	-0.050395	-0.809570	0.326416	0.084229	79.584135	15.612060	122.815895
62016		-2.540047	9.152812	1.852618	-0.177632	-0.010401	-0.059440	-0.809814	0.321289	0.083496	79.480914	15.644937	122.803344
62017		-2.538045	9.128486	1.880741	-0.158721	-0.012945	-0.068753	-0.803711	0.325439	0.080566	79.387134	15.683593	122.788635
62018		-2.583657	9.240136	1.861034	-0.118362	-0.012988	-0.069184	-0.805908	0.318115	0.088379	79.317127	15.721645	122.773388
62019		-2.588582	9.218468	1.840788	-0.072689	-0.010834	-0.069253	-0.812012	0.322998	0.085938	79.272900	15.760767	122.759749
62020		-2.611939	9.272910	1.850031	-0.022948	-0.005053	-0.079481	-0.813477	0.315674	0.084473	79.258474	15.805440	122.747935
62021		-2.654739	9.332630	1.729933	0.010336	0.006423	-0.066790	-0.799316	0.329834	0.086914	79.264609	15.845004	122.744630
62022		-2.631069	9.324234	1.794157	0.029860	0.023695	-0.060598	-0.811279	0.323242	0.087158	79.285596	15.882114	122.751737
62023		-2.638663	9.235265	1.843822	0.049308	0.044220	-0.050262	-0.798584	0.329590	0.084961	79.320626	15.916392	122.772408
62024		-2.643980	9.235061	1.837218	0.066742	0.050102	-0.046078	-0.804688	0.322510	0.086914	79.367451	15.948115	122.796627
62025		-2.602778	9.171218	1.890179	0.096815	0.066767	-0.047896	-0.809570	0.322998	0.085938	79.433438	15.983400	122.830824
62026		-2.607434	9.207015	1.835557	0.140715	0.073568	-0.059354	-0.799072	0.334961	0.090820	79.526092	16.025002	122.867436
62027		-2.687925	9.313799	1.790491	0.175004	0.079451	-0.076758	-0.807129	0.328857	0.091797	79.638148	16.077756	122.906079
62028		-2.684619	9.399850	1.657406	0.200339	0.075148	-0.091755	-0.804443	0.320068	0.084229	79.764379	16.137649	122.940350
62029		-2.678832	9.396314	1.618577	0.225232	0.066160	-0.124215	-0.800049	0.320801	0.079102	79.901799	16.215658	122.966444
62030		-2.685274	9.377042	1.606763	0.258816	0.061041	-0.156654	-0.798096	0.321777	0.083496	80.057507	16.310600	122.986014
62031		-2.649793	9.312962	1.683034	0.315843	0.059832	-0.195636	-0.804688	0.326660	0.091797	80.243959	16.428162	123.001553
62032		-2.687737	9.264424	1.678622	0.389900	0.071213	-0.230954	-0.795410	0.323486	0.085938	80.474631	16.565924	123.020360
62033		-2.671257	9.255995	1.644758	0.469008	0.096365	-0.257781	-0.802002	0.329102	0.080078	80.753630	16.721898	123.052387
62034		-2.741850	9.473451	1.388731	0.554648	0.106657	-0.296085	-0.805420	0.325684	0.079834	81.083489	16.899532	123.087424
62035		-2.787508	9.664315	1.159624	0.649209	0.111638	-0.371688	-0.807373	0.324219	0.086426	81.466112	17.120971	123.120060
62036		-2.800126	9.684779	0.969166	0.776387	0.115868	-0.479140	-0.803223	0.318115	0.075928	81.920967	17.402680	123.147296
62037		-2.337633	10.504359	0.881826	0.908285	0.140366	-0.632106	-0.802490	0.322266	0.073486	82.452255	17.773644	123.179529
62038		-2.128378	11.079980	1.012819	0.818326	0.368286	-0.990452	-0.807617	0.307861	0.071533	82.967850	18.363790	123.323934
62039		-2.519428	11.242699	1.357674	0.743980	0.489775	-1.371911	-0.811523	0.312256	0.072266	83.458532	19.178621	123.520372
62040		-2.994058	11.645415	0.947984	0.582559	0.492261	-1.677624	-0.807861	0.299805	0.076660	83.856511	20.165575	123.705290
62041		-3.168625	11.823872	1.012966	0.445083	0.433383	-2.003255	-0.822510	0.293457	0.069092	84.160990	21.334042	123.841427
62042		-3.020829	12.140376	1.211692	0.310010	0.364174	-2.319655	-0.824463	0.290039	0.058838	84.370797	22.677775	123.922127
62043		-3.047705	12.127611	0.804703	0.241328	0.305540	-2.712489	-0.827637	0.283447	0.066162	84.520697	24.242480	123.948154
62044		-2.697481	12.239445	1.425195	0.286229	0.287660	-3.189370	-0.824463	0.267090	0.066895	84.682969	26.077727	123.939510
62045		-2.217920	11.583488	2.412503	0.499350	0.366924	-3.736877	-0.832031	0.258057	0.070068	84.978832	28.229750	123.957926
62046		-1.976624	12.000912	2.938495	0.791192	0.571619	-4.434507	-0.839600	0.237305	0.067139	85.499554	30.789418	124.090650
62047		-1.623679	13.117463	3.089560	1.138307	0.737729	-5.276993	-0.836670	0.218506	0.060547	86.282658	33.835822	124.332707
62048		-1.523972	13.618792	2.568205	1.576578	0.798900	-6.065469	-0.836914	0.191895	0.061523	87.377776	37.331519	124.658367
62049		-2.907050	12.906680	3.255956	1.878193	0.912671	-7.239552	-0.834717	0.164795	0.058594	88.770246	41.494578	125.153290
62050		-5.934845	15.174409	3.338671	1.893870	0.964071	-8.341317	-0.830322	0.129883	0.057129	90.354434	46.278356	125.868880
62051		-12.073099	20.785043	2.706910	1.394675	0.870669	-8.864090	-0.823242	0.101563	0.068848	91.835627	51.346152	126.771536
62052		-20.821209	27.782219	1.514740	0.433095	0.877925	-8.704558	-0.807617	0.062500	0.078613	93.065590	56.308136	127.984051
62053		-18.807495	30.067824	2.134104	-0.748621	0.904841	-7.904236	-0.791260	0.029297	0.079102	93.934638	60.795911	129.502199
62054		-11.942525	22.882647	1.758366	-1.505612	1.174363	-7.184687	-0.767090	-0.013916	0.079834	95.006051	64.848569	131.673138
62055		-4.082775	21.982170	2.784861	-1.622939	1.532054	-6.799711	-0.731689	-0.043213	0.087646	97.057561	68.629706	134.913784
62056		2.124780	21.709852	3.143955	-1.704176	1.874316	-6.410851	-0.701660	-0.079102	0.084473	100.643783	72.097278	139.753949
62057		6.687252	19.324222	3.955795	-1.942988	2.163528	-6.383783	-0.668701	-0.107422	0.094238	106.608709	75.362895	147.120201
62058		7.410723	10.228921	1.094547	-2.179616	2.474874	-6.380121	-0.628174	-0.119385	0.103760	116.768930	78.250771	158.831238
62059		-1.236293	13.905268	-0.473804	-2.450051	2.953604	-5.636694	-0.584961	-0.133057	0.101074	132.158111	79.971750	175.921652
62060		0.993970	24.639510	3.475254	-3.466111	2.798089	-2.934514	-0.558838	-0.152588	0.092773	143.302589	79.916237	-170.746593
62061		0.234772	18.105013	3.479024	-3.856234	2.760107	-0.509884	-0.537354	-0.162354	0.088135	147.130289	78.781277	-164.608968
62062		-0.324531	10.825780	2.729058	-3.368666	2.399722	1.332062	-0.522217	-0.171631	0.085449	145.785342	77.213852	-164.012645
62063		0.289284	6.671357	2.602788	-2.477944	1.956000	2.415222	-0.512695	-0.189209	0.087402	142.419741	75.493103	-166.019698
62064		-0.009724	5.347564	2.617124	-1.692791	1.498605	2.907870	-0.500488	-0.203857	0.084961	138.752791	73.771692	-168.818321
62065		-0.449643	5.006660	2.753241	-1.158836	1.037561	3.135345	-0.504639	-0.224854	0.080322	135.105778	72.107778	-171.942892
62066		-0.657241	4.566729	2.952186	-0.825178	0.560414	3.277787	-0.505127	-0.239014	0.081055	131.516970	70.520675	-175.233881
62067		-0.669690	4.338437	3.124088	-0.560668	0.082933	3.389209	-0.502686	-0.244141	0.078613	127.905079	68.992352	-178.745019
62068		-0.896215	4.659152	3.122268	-0.357623	-0.397585	3.484242	-0.513672	-0.258301	0.072510	124.292057	67.513155	177.584127
62069		-1.183885	5.383591	3.073554	-0.253941	-0.886198	3.558484	-0.516357	-0.276367	0.062744	120.575424	66.059107	173.694916
62070		-1.293947	6.035942	2.888811	-0.251629	-1.348714	3.641974	-0.536133	-0.299316	0.063477	116.776766	64.598704	169.671841
62071		-1.573127	6.726320	2.535229	-0.322766	-1.778731	3.753295	-0.545410	-0.289063	0.055420	112.852910	63.067280	165.502790
62072		-1.872459	7.427251	2.124587	-0.415455	-2.168312	3.921480	-0.564453	-0.303467	0.046631	108.889841	61.409867	161.291925
62073		-2.088388	7.852298	1.683991	-0.499098	-2.502234	4.134885	-0.588867	-0.309326	0.036621	104.947619	59.551438	157.087325
62074		-2.260561	8.186854	1.288974	-0.527807	-2.774107	4.372611	-0.604004	-0.312500	0.025391	101.193481	57.469744	153.038440
62075		-2.425787	8.632257	0.949879	-0.525032	-2.967524	4.626408	-0.622559	-0.306641	0.018066	97.712905	55.123579	149.213403
62076		-2.619655	9.255017	0.542070	-0.530531	-3.087990	4.887574	-0.652588	-0.316650	0.020752	94.593549	52.528384	145.724661
62077		-2.834243	9.958695	0.211972	-0.547034	-3.136376	5.145591	-0.672363	-0.306152	0.010010	91.842365	49.673910	142.589236
62078		-3.162498	10.736252	-0.038424	-0.593438	-3.110357	5.377782	-0.690918	-0.293945	0.009277	89.474852	46.613090	139.865847
62079		-3.618782	11.445807	-0.174478	-0.630855	-3.001128	5.616289	-0.708496	-0.293945	0.011719	87.475410	43.338063	137.544788
62080		-4.100780	12.016184	-0.293879	-0.602346	-2.849693	5.870232	-0.735596	-0.290527	0.004639	85.857582	39.885497	135.626528
62081		-4.599702	12.487382	-0.246933	-0.501898	-2.671533	6.122679	-0.740479	-0.270752	0.007568	84.599953	36.249265	134.049013
62082		-5.106621	12.980559	-0.181514	-0.355496	-2.486585	6.345664	-0.761230	-0.281494	0.013428	83.682391	32.487320	132.781846
62083		-5.542485	13.903559	0.033134	-0.194997	-2.293371	6.519548	-0.769043	-0.274170	0.022949	83.052545	28.611729	131.757649
62084		-5.884683	14.577041	0.405758	-0.054132	-2.114427	6.620123	-0.791016	-0.278809	0.028320	82.656736	24.697838	130.940693
62085		-6.861331	16.303425	1.085417	0.057990	-1.923666	6.638719	-0.806396	-0.286133	0.039551	82.437378	20.769700	130.281829
62086		-8.391347	17.639742	1.759931	0.110144	-1.794508	6.641643	-0.832031	-0.295410	0.044678	82.327013	16.862040	129.738216
62087		-10.888937	18.869419	2.416287	0.169962	-1.778710	6.681839	-0.854736	-0.308594	0.068604	82.291265	12.918124	129.215054
62088		-13.959018	19.441375	3.119466	0.261114	-1.859861	6.712005	-0.886719	-0.306396	0.080322	82.338090	8.964901	128.663359
62089		-17.998397	19.774712	3.688268	0.386558	-1.960753	6.669654	-0.908203	-0.319824	0.093018	82.484486	5.015673	128.042481
62090		-21.869782	19.603692	4.007516	0.430300	-1.937633	6.475029	-0.964355	-0.329346	0.114014	82.699276	1.194011	127.419094
62091		-25.177652	18.232667	3.952747	0.220497	-1.738034	6.089850	-0.999756	-0.322021	0.120117	82.831122	-2.404098	126.864471
62092		-27.962763	15.451472	3.240169	-0.375468	-1.478731	5.461477	-1.037598	-0.309326	0.122559	82.649075	-5.614823	126.418403
62093		-29.051719	11.078692	1.734111	-1.194498	-1.272149	4.621338	-1.073730	-0.304688	0.133057	82.009407	-8.344916	126.042246
62094		-28.510200	6.406815	0.387165	-1.867249	-1.054471	3.655640	-1.097168	-0.285889	0.130859	80.989161	-10.505250	125.750390
62095		-27.172311	1.496730	-0.458738	-2.101985	-0.772364	2.639750	-1.119629	-0.275879	0.123535	79.821282	-12.076130	125.559708
62096		-26.832945	-1.509828	-0.725647	-1.948272	-0.439590	1.582853	-1.125488	-0.281982	0.111084	78.724428	-13.013591	125.479082
62097		-27.234199	-1.713942	-0.826386	-1.511914	-0.013334	0.641436	-1.143799	-0.275635	0.110352	77.842247	-13.378296	125.546654
62098		-36.630624	-7.593987	-2.261269	-0.152649	0.582065	-1.549669	-1.135254	-0.284668	0.112305	77.725087	-12.439474	125.688242
62099		-28.446671	-18.478327	-3.798066	2.031614	0.473523	-3.709639	-1.122803	-0.310059	0.110107	78.922240	-10.303532	125.520542
62100		0.860934	8.863703	0.191559	2.805787	0.470549	-4.470184	-1.095215	-0.336670	0.122803	80.562339	-7.734849	125.327340
62101		1.002007	28.061876	-4.841218	1.605995	-0.009270	-4.477649	-1.074219	-0.367432	0.134277	81.528549	-5.200706	124.920711
62102		-3.424073	16.964557	-1.543596	0.621767	-0.688556	-4.175247	-1.050293	-0.393799	0.146729	81.938725	-2.889548	124.184546
62103		-5.066003	11.530172	-0.273205	0.267199	-0.896236	-4.246843	-1.031006	-0.395020	0.137451	82.117909	-0.549946	123.338657
62104		-3.011952	14.883122	-3.883817	-0.065083	-0.711357	-4.257278	-1.016846	-0.433838	0.158936	82.074416	1.810574	122.599517
62105		-2.483600	17.068062	-4.568537	-0.145509	-0.151326	-3.916550	-0.985596	-0.447998	0.139648	81.971819	4.022235	122.202250
62106		-4.459194	19.251675	-1.624397	-0.613580	0.415406	-3.650639	-0.960205	-0.470215	0.145996	81.616565	6.126916	122.139016
62107		-4.714183	14.023886	1.623889	-0.867193	0.568210	-3.352799	-0.938721	-0.487305	0.139404	81.125407	8.076591	122.173455
62108		-5.067948	11.851245	6.358831	-0.602914	0.460205	-3.016049	-0.921387	-0.482422	0.124268	80.780081	9.825087	122.161946
62109		-5.774249	11.063267	6.996866	-0.154004	0.432768	-2.735410	-0.906738	-0.501709	0.126709	80.691792	11.413661	122.154839
62110		-7.042582	12.738218	6.478551	0.042026	0.401535	-2.309816	-0.886475	-0.512451	0.128662	80.720652	12.757335	122.168422
62111		-6.275061	13.060798	1.520037	0.276308	0.374317	-1.491024	-0.881348	-0.518066	0.135742	80.897548	13.637062	122.246411
62112		-4.702048	13.894376	-0.921162	0.192631	0.425194	-0.797422	-0.874512	-0.513672	0.129150	81.051596	14.126977	122.420391
62113		-3.094408	11.015689	0.510895	-0.075943	0.380889	-0.503652	-0.874023	-0.520264	0.127686	81.052689	14.448295	122.597306
62114		-2.930457	9.936988	1.422168	-0.108835	0.289963	-0.447838	-0.867188	-0.521240	0.125244	81.024567	14.728099	122.725552
62115		-3.896800	12.303028	0.355895	-0.188263	0.189659	-0.323283	-0.855225	-0.531494	0.126465	80.938652	14.930371	122.807301
62116		-3.384221	11.031116	0.259502	-0.375025	0.001721	-0.133901	-0.864746	-0.520996	0.129883	80.722697	15.006733	122.795623
62117		-2.670306	9.620997	1.378084	-0.346542	-0.028813	-0.089522	-0.860352	-0.524170	0.116455	80.518911	15.056954	122.770880
62118		-2.727476	9.537995	1.414833	-0.270054	-0.046707	-0.078522	-0.858154	-0.525635	0.127930	80.356985	15.097338	122.735776
62119		-2.594728	9.551088	1.433451	-0.233046	-0.043181	-0.062935	-0.865234	-0.522461	0.125977	80.216647	15.130971	122.704966
62120		-2.650324	9.488409	1.489909	-0.193926	-0.045791	-0.054879	-0.854980	-0.531494	0.114990	80.099010	15.157932	122.672582
62121		-2.637037	9.532635	1.479578	-0.195070	-0.047313	-0.053818	-0.858643	-0.525635	0.119873	79.980001	15.185830	122.640117
62122		-2.580859	9.372183	1.599750	-0.193247	-0.042212	-0.049447	-0.856934	-0.536377	0.105225	79.863388	15.209957	122.610265
62123		-2.547320	9.341452	1.697968	-0.196079	-0.030953	-0.046976	-0.862793	-0.521729	0.112793	79.746463	15.235477	122.587936
62124		-2.541462	9.352283	1.687458	-0.194363	-0.029955	-0.039302	-0.855225	-0.531494	0.106689	79.631325	15.255024	122.566215
62125		-2.575623	9.373198	1.669469	-0.197598	-0.035509	-0.039379	-0.865234	-0.532471	0.110352	79.513012	15.275649	122.541908
62126		-2.548111	9.361911	1.755146	-0.194789	-0.030269	-0.024916	-0.858643	-0.531250	0.114258	79.397958	15.286974	122.521482
62127		-2.523901	9.316052	1.739981	-0.196013	-0.021624	-0.015144	-0.856445	-0.527100	0.112793	79.283373	15.295276	122.507832
62128		-2.535471	9.261750	1.829692	-0.194308	-0.010047	-0.002450	-0.857910	-0.530762	0.102539	79.172348	15.296044	122.501653
62129		-2.541356	9.313197	1.793268	-0.180906	-0.001314	0.000732	-0.862549	-0.530762	0.106445	79.070015	15.297506	122.501575
62130		-2.510712	9.231421	1.857914	-0.153679	-0.004873	0.002087	-0.859863	-0.523682	0.097412	78.983198	15.296265	122.498923
62131		-2.567942	9.243000	1.879835	-0.109794	-0.007930	-0.002454	-0.856445	-0.523438	0.109863	78.920506	15.298740	122.494599
62132		-2.574301	9.296181	1.835073	-0.078296	-0.013060	-0.011256	-0.853516	-0.530273	0.107910	78.875219	15.304092	122.485652
62133		-2.582456	9.367498	1.817830	-0.060734	-0.020585	-0.019995	-0.854492	-0.531738	0.103027	78.838163	15.314973	122.471911
62134		-2.616851	9.284909	1.810848	-0.051091	-0.034326	-0.035297	-0.851074	-0.529785	0.099121	78.804451	15.331465	122.447792
62135		-2.558574	9.249503	1.919029	-0.038274	-0.039813	-0.042631	-0.853760	-0.525391	0.099121	78.776608	15.352868	122.420195
62136		-2.497573	9.160857	1.936884	-0.014812	-0.044670	-0.049692	-0.845947	-0.529053	0.105957	78.761621	15.376273	122.388362
62137		-2.580413	9.268025	1.870312	0.003099	-0.039048	-0.056205	-0.861328	-0.526611	0.099121	78.757158	15.405330	122.359594
62138		-2.600439	9.306063	1.846671	0.004943	-0.040342	-0.060096	-0.862061	-0.531738	0.096924	78.753807	15.435058	122.329064
62139		-2.565525	9.241418	1.866288	0.008031	-0.032830	-0.064141	-0.858887	-0.537109	0.105225	78.752865	15.469225	122.302968
62140		-2.585528	9.332844	1.829693	0.017088	-0.025601	-0.054934	-0.855957	-0.536377	0.099854	78.758892	15.497700	122.281623
62141		-2.607257	9.335647	1.845897	0.015702	-0.017657	-0.057124	-0.860596	-0.523926	0.101074	78.764911	15.529579	122.265164
62142		-2.650297	9.361835	1.766846	0.006856	-0.012682	-0.056669	-0.849609	-0.527832	0.106689	78.767019	15.560475	122.251153
62143		-2.625904	9.299239	1.845012	0.000252	-0.013366	-0.067538	-0.860107	-0.531738	0.105957	78.764529	15.598649	122.235968
62144		-2.585154	9.232641	1.905700	0.013034	-0.011920	-0.070279	-0.853027	-0.530762	0.109863	78.769853	15.637279	122.220820
62145		-2.591537	9.231261	1.903716	0.034981	-0.005996	-0.071688	-0.852539	-0.531738	0.102783	78.788279	15.678572	122.209439
62146		-2.613880	9.269498	1.875650	0.047212	0.002312	-0.074857	-0.852783	-0.523926	0.102539	78.815275	15.721368	122.202089
62147		-2.639217	9.236953	1.929408	0.056177	0.008810	-0.077678	-0.853027	-0.533203	0.112061	78.848001	15.767645	122.198677
62148		-2.647650	9.200878	1.964330	0.079206	0.018982	-0.072282	-0.860352	-0.533691	0.104736	78.896062	15.810844	122.201413
62149		-2.647006	9.234298	1.955521	0.100324	0.033354	-0.074571	-0.846191	-0.535400	0.106934	78.958107	15.858048	122.212760
62150		-2.654125	9.216459	1.914385	0.130258	0.041966	-0.089333	-0.852051	-0.528076	0.103516	79.038598	15.913345	122.227098
62151		-2.623002	9.207487	1.906255	0.184651	0.038089	-0.098267	-0.842041	-0.528809	0.108887	79.149044	15.974330	122.238671
62152		-2.600045	9.254022	1.838593	0.250061	0.043905	-0.120902	-0.847412	-0.527832	0.107422	79.297616	16.047548	122.250860
62153		-2.666340	9.409080	1.653789	0.309195	0.043154	-0.150692	-0.848877	-0.536133	0.113770	79.478767	16.138499	122.259954
62154		-2.727632	9.578055	1.434267	0.343689	0.029642	-0.201838	-0.845703	-0.537842	0.120361	79.676385	16.255773	122.255520
62155		-2.772721	9.757509	1.264315	0.383714	0.013955	-0.268784	-0.843262	-0.529053	0.115967	79.892138	16.410252	122.235594
62156		-2.777629	9.818178	1.164666	0.429035	0.004905	-0.351157	-0.852783	-0.538086	0.123291	80.130358	16.609353	122.202044
62157		-2.848489	9.801983	1.125196	0.474518	0.002418	-0.429020	-0.842773	-0.536865	0.122559	80.391798	16.853319	122.160378
62158		-2.778381	9.628916	1.125460	0.566318	-0.009740	-0.524057	-0.831055	-0.539063	0.134277	80.701437	17.149053	122.103018
62159		-2.108684	10.325906	1.450415	0.697913	0.077357	-0.669371	-0.819092	-0.537842	0.130127	81.097736	17.536183	122.085638
62160		-1.852557	11.290337	1.460968	0.637199	0.339378	-1.022149	-0.822510	-0.540039	0.137207	81.498099	18.144975	122.194448
62161		-2.358416	11.851232	1.805470	0.529941	0.460177	-1.464592	-0.816650	-0.542725	0.142822	81.850316	19.014751	122.341753
62162		-2.781131	11.910051	1.386361	0.368759	0.474057	-1.844583	-0.795166	-0.543213	0.140137	82.106688	20.099648	122.470643
62163		-2.738607	12.280082	1.271805	0.215512	0.466274	-2.233499	-0.785400	-0.546631	0.141357	82.266284	21.404943	122.567847
62164		-3.068997	12.092927	1.232000	0.114528	0.408786	-2.637039	-0.763428	-0.548096	0.143066	82.345990	22.934077	122.600036
62165		-2.864412	11.979292	1.123573	0.049203	0.368825	-3.055962	-0.742920	-0.555664	0.144775	82.365601	24.698564	122.574534
62166		-2.890465	11.524669	1.766843	0.112844	0.370468	-3.507338	-0.729492	-0.557129	0.142090	82.405277	26.718993	122.512485
62167		-2.678764	11.059501	2.297217	0.254815	0.395381	-3.994601	-0.700928	-0.559326	0.147217	82.513004	29.018469	122.426832
62168		-2.376724	11.391585	2.628466	0.461576	0.465925	-4.548152	-0.669678	-0.548096	0.153809	82.738648	31.637544	122.346052
62169		-1.967924	11.704947	3.392299	0.785675	0.598477	-5.153252	-0.628418	-0.554443	0.151855	83.176443	34.610429	122.320064
62170		-1.623733	11.490795	3.993257	1.294136	0.804696	-5.841458	-0.596436	-0.549316	0.163818	83.981701	37.988348	122.424109
62171		-2.800701	11.740987	3.474501	1.736767	1.028084	-6.859528	-0.545166	-0.546143	0.168213	85.158521	41.956747	122.703540
62172		-4.919764	14.290362	3.509446	1.900795	1.166624	-7.976211	-0.486816	-0.539063	0.183594	86.579167	46.563488	123.174625
62173		-11.230691	18.744636	3.497854	1.724494	1.126291	-8.752960	-0.437988	-0.519287	0.197266	88.041462	51.602978	123.798420
62174		-20.875667	25.959084	2.894782	0.942291	1.043078	-8.834988	-0.381836	-0.497314	0.208008	89.244909	56.678346	124.613527
62175		-21.645423	28.658580	2.578919	-0.284388	1.109895	-8.209543	-0.336670	-0.470459	0.193604	90.097646	61.384939	125.794912
62176		-15.193416	26.737660	1.871543	-1.196294	1.210806	-7.240306	-0.302734	-0.453125	0.191650	90.873771	65.528131	127.425759
62177		-7.085129	20.740679	1.417126	-1.274995	1.581949	-6.684347	-0.272949	-0.424805	0.183350	92.602249	69.327646	130.084993
62178		-0.026876	20.171243	2.833868	-0.807769	1.909209	-6.209824	-0.245605	-0.411133	0.186035	96.109974	72.794939	134.278787
62179		4.050894	17.931461	3.601482	-0.396356	2.228953	-6.120838	-0.220215	-0.384521	0.199463	102.432632	76.052811	141.072142
62180		6.231163	12.983817	2.617603	-0.316860	2.451190	-6.295825	-0.200439	-0.363770	0.200195	113.359591	79.068980	152.440131
62181		-0.990689	15.893586	-1.751431	-0.707505	3.003769	-5.974355	-0.173828	-0.339600	0.214111	131.821120	81.050346	171.583548
62182		0.746958	26.455861	3.982500	-2.099985	2.852356	-3.168366	-0.167236	-0.333008	0.213623	146.142809	81.008561	-172.703480
62183		1.852285	22.168104	4.064648	-3.003619	2.814798	-0.388436	-0.182617	-0.323975	0.212891	150.503694	79.749578	-166.538541
62184		-0.307646	14.180959	2.819525	-3.063258	2.521556	1.530331	-0.195557	-0.352295	0.209229	148.629206	78.060015	-166.662013
62185		0.425069	8.270002	2.511774	-2.568230	2.132520	2.574124	-0.218018	-0.359375	0.206299	144.671032	76.226304	-169.215199
62186		0.099788	5.926761	2.472212	-2.022916	1.736143	3.060520	-0.239502	-0.376465	0.201904	140.509289	74.370484	-172.320952
62187		-0.510883	5.227522	2.704745	-1.625980	1.328828	3.307152	-0.270264	-0.392578	0.197998	136.473815	72.541083	-175.560888
62188		-1.202589	4.854621	2.903062	-1.359259	0.881979	3.449810	-0.286865	-0.414795	0.187012	132.601875	70.777380	-178.821043
62189		-1.326333	4.282377	3.089059	-1.103418	0.417505	3.564853	-0.317383	-0.428711	0.183838	128.800630	69.068524	177.803243
62190		-0.994864	3.659493	3.277333	-0.816641	-0.033812	3.636856	-0.344727	-0.435303	0.179688	125.155492	67.415173	174.380755
62191		-0.781197	3.615752	3.388833	-0.523545	-0.452184	3.633697	-0.368408	-0.435303	0.177979	121.686200	65.814908	170.926477
62192		-0.829479	4.664159	3.342007	-0.331632	-0.863703	3.627915	-0.398438	-0.456055	0.175293	118.343615	64.262272	167.447488
62193		-1.055481	6.124712	3.155197	-0.316684	-1.262058	3.673772	-0.419922	-0.461670	0.178223	114.960124	62.699157	163.867891
62194		-1.308366	7.236364	2.855752	-0.446350	-1.650591	3.804773	-0.445068	-0.462646	0.163086	111.470898	61.068128	160.200274
62195		-1.433028	7.767843	2.489192	-0.609456	-2.014138	4.005188	-0.471436	-0.468506	0.166504	107.866030	59.288150	156.446997
62196		-1.516502	7.997136	2.111911	-0.711005	-2.318609	4.246958	-0.500000	-0.475830	0.160645	104.301140	57.317602	152.734657
62197		-1.636684	8.490528	1.710363	-0.743648	-2.555928	4.506289	-0.523193	-0.474365	0.163574	100.887801	55.108422	149.139967
62198		-1.784643	9.291564	1.327284	-0.727160	-2.717643	4.791739	-0.568359	-0.487793	0.153809	97.757246	52.650977	145.779084
62199		-1.912023	10.198957	0.889095	-0.706261	-2.786433	5.117590	-0.581299	-0.490967	0.153564	94.961311	49.904066	142.713719
62200		-2.045015	11.003886	0.583018	-0.700041	-2.777892	5.463268	-0.621582	-0.491943	0.156738	92.542250	46.884448	140.013672
62201		-2.203752	11.971198	0.274408	-0.720806	-2.692786	5.790989	-0.661865	-0.497803	0.157471	90.480618	43.598089	137.691341
62202		-2.226490	12.662997	-0.126656	-0.767606	-2.529889	6.077216	-0.696777	-0.500732	0.157471	88.764313	40.106700	135.776488
62203		-2.427960	13.285411	-0.588898	-0.805799	-2.298376	6.315007	-0.742432	-0.496094	0.158691	87.357630	36.435361	134.249795
62204		-2.777909	14.191486	-0.808094	-0.857775	-2.002631	6.481247	-0.788330	-0.494629	0.157227	86.222031	32.663784	133.111565
62205		-3.356187	15.322846	-0.942683	-0.935705	-1.665350	6.595571	-0.840088	-0.479980	0.162842	85.284462	28.813582	132.324656
62206		-4.137982	16.635183	-0.682819	-0.986981	-1.308571	6.656564	-0.881836	-0.474365	0.154785	84.513938	24.948553	131.867661
62207		-5.393548	18.003999	0.202663	-0.940412	-0.986785	6.695979	-0.940918	-0.463135	0.161133	83.899497	21.063404	131.672387
62208		-7.911590	19.604181	1.530205	-0.777276	-0.834225	6.781750	-0.988037	-0.434082	0.158203	83.439752	17.149211	131.623047
62209		-10.933532	21.107199	2.721664	-0.561046	-0.929965	6.928921	-1.040771	-0.410156	0.169922	83.100175	13.133037	131.552426
62210		-14.350211	23.053155	2.901291	-0.451360	-1.327133	7.064911	-1.088623	-0.358154	0.172363	82.792933	9.022864	131.290003
62211		-17.790924	24.179519	3.202807	-0.454107	-1.805712	7.082399	-1.120361	-0.312256	0.177002	82.470567	4.855316	130.776978
62212		-21.673760	24.040948	2.956014	-0.516150	-2.234500	6.981850	-1.163086	-0.273438	0.200195	82.140921	0.720026	130.043092
62213		-25.130458	22.395838	2.423122	-0.630183	-2.422869	6.695648	-1.186279	-0.226318	0.215088	81.798250	-3.281601	129.201517
62214		-27.698710	18.205760	1.716399	-0.747095	-2.403960	6.187753	-1.202637	-0.193848	0.231689	81.448052	-6.989354	128.352054
62215		-28.334405	11.921340	0.923640	-0.704194	-2.209484	5.456955	-1.217529	-0.147217	0.243652	81.162831	-10.278038	127.562629
62216		-27.661458	6.000477	-0.252590	-0.511365	-1.926781	4.494730	-1.222656	-0.124023	0.256592	81.014183	-12.992824	126.856452
62217		-27.478342	2.139550	-1.938944	-0.573192	-1.673513	3.294447	-1.231201	-0.099365	0.273193	80.847985	-15.012087	126.186335
62218		-27.335593	-1.592681	-2.828553	-0.529618	-1.242137	2.031383	-1.224854	-0.085693	0.290283	80.690900	-16.274619	125.650696
62219		-27.876582	-2.106308	-3.340358	-0.413088	-0.762217	0.863365	-1.231201	-0.066650	0.295410	80.558929	-16.835699	125.285013
62220		-28.688065	-1.030154	-3.632734	-0.379968	-0.349413	-0.086181	-1.219482	-0.066162	0.306885	80.405352	-16.819642	125.070172
62221		-28.417410	-0.160218	-3.925321	-0.366663	-0.084372	-0.798683	-1.215088	-0.074219	0.297119	80.233297	-16.376312	124.940499
62222		-26.223942	-1.925999	-5.497116	-0.181105	0.048127	-1.410920	-1.211914	-0.072998	0.303955	80.163095	-15.574558	124.825577
62223		-3.024547	11.536437	2.564658	0.917912	0.404774	-4.141120	-1.201172	-0.085205	0.305420	80.732717	-13.193788	124.656034
62224		8.756580	6.798737	-6.764203	1.598387	0.728855	-3.864964	-1.198730	-0.106689	0.315430	81.634918	-10.941048	124.730926
62225		5.713215	13.405981	-4.729822	0.970091	0.510993	-3.756529	-1.186523	-0.117676	0.306641	82.194650	-8.766549	124.718534
62226		-2.607050	6.585365	-0.720100	0.775523	0.233707	-4.816027	-1.183594	-0.128662	0.319580	82.670934	-6.013106	124.485966
