// General information: 
//  MT Manager version: 2022.2.0 
//  XDA version: 2022.2.0 build 7381 rev 124627 built on 2023-07-19
// Device information: 
//  DeviceId: 00B4BCF6
//  ProductCode: MTW2-3A7G6
//  Firmware Version: 4.6.0
//  Hardware Version: 2.0.0
// Device settings: 
//  Filter Profile: human(46.1)
//  Option Flags: Orientation Smoother Disabled, Position/Velocity Smoother Disabled, Continuous Zero Rotation Update Disabled, AHS Disabled, ICC Disabled
// Coordinate system: ENU
PacketCounter	SampleTimeFine	Acc_X	Acc_Y	Acc_Z	Gyr_X	Gyr_Y	Gyr_Z	Mag_X	Mag_Y	Mag_Z	Roll	Pitch	Yaw
05023		-3.468889	-8.520588	3.407083	-0.001808	0.002474	-0.001662	-0.681396	0.249512	0.026611	-68.280322	20.771920	132.368469
05024		-3.495882	-8.501821	3.417089	-0.000317	0.003976	-0.002264	-0.678223	0.257324	0.027588	-68.279889	20.773307	132.370461
05025		-3.494834	-8.552050	3.395228	-0.000713	0.005329	-0.003916	-0.671631	0.253662	0.040527	-68.280024	20.774443	132.370218
05026		-3.500225	-8.528456	3.394689	-0.002125	0.006450	-0.003926	-0.670898	0.247803	0.032715	-68.281260	20.775470	132.370425
05027		-3.478545	-8.523707	3.384025	0.000698	0.004208	-0.003906	-0.680908	0.244141	0.037598	-68.280361	20.776245	132.373555
05028		-3.478146	-8.523951	3.383818	-0.000969	0.006995	-0.009903	-0.682617	0.246826	0.034424	-68.281525	20.774206	132.372096
05029		-3.510768	-8.531451	3.426519	0.001174	0.005479	-0.002864	-0.680664	0.249268	0.031006	-68.280599	20.775500	132.373535
05030		-3.488919	-8.526673	3.416096	0.002251	0.003401	-0.008230	-0.680420	0.242676	0.038330	-68.279058	20.773590	132.374502
05031		-3.498696	-8.529355	3.394006	0.001173	0.005480	-0.002864	-0.683594	0.247559	0.031494	-68.278123	20.774938	132.375703
05032		-3.488380	-8.526965	3.415917	-0.000097	0.006914	-0.007208	-0.668457	0.246094	0.028076	-68.278554	20.774316	132.374902
05033		-3.488200	-8.527171	3.415587	-0.001651	0.007722	-0.002883	-0.675781	0.241455	0.034668	-68.279670	20.776282	132.373906
05034		-3.509615	-8.532284	3.425626	-0.001112	0.006683	-0.005566	-0.680176	0.246582	0.032959	-68.280504	20.776485	132.373609
05035		-3.487952	-8.527536	3.414929	-0.000239	0.006601	-0.002873	-0.674561	0.250000	0.036133	-68.280613	20.778040	132.373967
05036		-3.509284	-8.532668	3.425009	-0.003079	0.003909	-0.006006	-0.671631	0.242920	0.034912	-68.282049	20.777421	132.375149
05037		-3.487554	-8.527944	3.414317	0.001251	0.008105	-0.003473	-0.677979	0.245361	0.031494	-68.281622	20.779099	132.375396
05038		-3.486027	-8.528213	3.359687	0.003202	0.005945	-0.006145	-0.675293	0.244385	0.034668	-68.279882	20.778837	132.375387
05039		-3.502596	-8.507017	3.391869	-0.000574	0.005644	-0.008247	-0.676025	0.250488	0.035645	-68.280410	20.777386	132.374999
05040		-3.491130	-8.554838	3.392014	-0.001113	0.006684	-0.005565	-0.677979	0.248291	0.032471	-68.281245	20.777590	132.374702
05041		-3.491804	-8.504940	3.413496	0.002804	0.007299	-0.007795	-0.674316	0.248047	0.044922	-68.280101	20.776874	132.374042
05042		-3.474570	-8.526459	3.381174	0.001171	0.005481	-0.002861	-0.676270	0.250488	0.021729	-68.279167	20.778262	132.375043
05043		-3.485757	-8.529041	3.413411	-0.001987	0.006766	-0.008256	-0.681152	0.245850	0.032227	-68.280694	20.777211	132.374472
05044		-3.463874	-8.524334	3.402813	0.000618	0.001586	-0.003292	-0.674316	0.251709	0.035645	-68.279325	20.777544	132.377593
05045		-3.494984	-8.532044	3.391072	0.001455	0.006110	-0.011527	-0.673340	0.245361	0.030762	-68.279022	20.774556	132.376633
05046		-3.521558	-8.513512	3.401000	-0.002605	0.005180	-0.004964	-0.670898	0.247559	0.029541	-68.280360	20.774761	132.377328
05047		-3.467136	-8.551421	3.380324	0.000375	0.008189	-0.006162	-0.687744	0.250732	0.028076	-68.280665	20.775109	132.375538
05048		-3.483866	-8.530195	3.412457	0.001710	0.004444	-0.005542	-0.677734	0.239258	0.036133	-68.279428	20.774851	132.376522
05049		-3.509197	-8.511710	3.368003	0.001312	0.005797	-0.007193	-0.679443	0.245117	0.030029	-68.278839	20.773933	132.375717
05050		-3.461613	-8.525621	3.401890	0.000297	0.005564	-0.005552	-0.678467	0.246094	0.033936	-68.278639	20.773907	132.376060
05051		-3.492914	-8.533294	3.390059	0.000220	0.002940	-0.004942	-0.674805	0.244873	0.027832	-68.277902	20.773653	132.377613
05052		-3.492526	-8.533485	3.389977	-0.000255	0.001668	-0.005983	-0.674316	0.251221	0.031738	-68.277266	20.772571	132.380076
05053		-3.503794	-8.536063	3.422168	-0.001581	0.010349	-0.003489	-0.684570	0.243164	0.027588	-68.278908	20.774834	132.377601
05054		-3.487444	-8.507605	3.411312	0.001377	0.003488	-0.010914	-0.678955	0.249023	0.035156	-68.278101	20.771513	132.377910
05055		-3.491462	-8.534170	3.389350	0.000770	0.006837	-0.004509	-0.677979	0.249023	0.029541	-68.277804	20.772308	132.377077
05056		-3.481030	-8.531762	3.411433	0.003739	0.004911	-0.008820	-0.684326	0.247314	0.034424	-68.275763	20.770403	132.377050
05057		-3.496226	-8.510754	3.389066	-0.001194	0.004061	-0.004952	-0.678467	0.248291	0.043213	-68.276049	20.770447	132.378051
05058		-3.511842	-8.539683	3.399501	0.001310	0.005799	-0.007190	-0.676025	0.249756	0.032471	-68.275448	20.769599	132.377888
05059		-3.489984	-8.534839	3.389187	0.005084	0.006102	-0.005085	-0.683594	0.248291	0.030518	-68.272542	20.770002	132.379482
05060		-3.485215	-8.508672	3.410928	-0.003006	0.006535	-0.006612	-0.678955	0.244629	0.024658	-68.274516	20.769617	132.379032
05061		-3.479443	-8.532637	3.410865	0.001166	0.005484	-0.002857	-0.679932	0.240723	0.031982	-68.273581	20.771078	132.378427
05062		-3.494470	-8.511638	3.388657	0.003255	-0.001294	-0.012973	-0.682129	0.242920	0.030762	-68.270898	20.765647	132.380990
05063		-3.468218	-8.530515	3.433036	-0.001661	0.007725	-0.002878	-0.679443	0.251709	0.038574	-68.272075	20.767355	132.379749
05064		-3.509663	-8.540808	3.398924	-0.000180	0.004295	-0.006590	-0.674561	0.243164	0.032471	-68.271975	20.766507	132.380579
05065		-3.499328	-8.538422	3.420853	0.000767	0.006838	-0.004507	-0.673096	0.244629	0.040771	-68.271656	20.767357	132.381210
05066		-3.472972	-8.507320	3.432225	0.000834	0.004529	-0.008229	-0.681396	0.244385	0.037354	-68.271154	20.765687	132.381535
05067		-3.471147	-8.507635	3.377720	0.005082	0.006104	-0.005082	-0.684570	0.245361	0.031250	-68.268285	20.765916	132.383116
05068		-3.498309	-8.538918	3.420657	-0.003008	0.006535	-0.006611	-0.671631	0.245850	0.030029	-68.270259	20.765532	132.382666
05069		-3.492108	-8.513062	3.387514	-0.002610	0.005182	-0.004960	-0.684570	0.252197	0.025635	-68.271592	20.765783	132.382633
05070		-3.476174	-8.534427	3.409718	0.003120	0.003328	-0.005525	-0.677734	0.244873	0.029785	-68.269321	20.765296	132.384255
05071		-3.497430	-8.539560	3.419952	-0.001048	0.009313	-0.006166	-0.676514	0.250244	0.030029	-68.270673	20.765892	132.380899
05072		-3.491144	-8.513675	3.386966	-0.000655	0.003024	-0.007630	-0.678955	0.249756	0.031006	-68.270673	20.764221	132.382216
05073		-3.475162	-8.535073	3.409133	0.000764	0.006840	-0.004504	-0.682373	0.250000	0.033936	-68.270332	20.765231	132.381701
05074		-3.474945	-8.535244	3.408926	-0.001197	0.004062	-0.004949	-0.676514	0.247070	0.035889	-68.270637	20.765207	132.383035
05075		-3.500348	-8.516843	3.364235	0.000365	0.008194	-0.006153	-0.669434	0.238281	0.025391	-68.270950	20.765485	132.382307
05076		-3.491450	-8.514301	3.440702	-0.000182	0.004297	-0.006587	-0.670654	0.241699	0.029785	-68.270852	20.764639	132.383136
05077		-3.489499	-8.514747	3.385967	-0.000655	0.003025	-0.007629	-0.673096	0.242920	0.034912	-68.270865	20.762947	132.382994
05078		-3.483522	-8.538793	3.385873	-0.002538	0.007808	-0.005567	-0.678223	0.247803	0.032471	-68.272743	20.763389	132.382055
05079		-3.483321	-8.538989	3.385585	0.000689	0.004215	-0.003895	-0.673340	0.241455	0.027832	-68.271900	20.763977	132.383793
05080		-3.457244	-8.507797	3.396901	-0.001740	0.005100	-0.002268	-0.673340	0.250000	0.026123	-68.272509	20.765601	132.385145
05081		-3.467432	-8.560457	3.407470	0.000290	0.005569	-0.005544	-0.683105	0.243164	0.029785	-68.272289	20.765737	132.384131
05082		-3.499914	-8.518135	3.417074	-0.002612	0.005183	-0.004958	-0.676758	0.243164	0.033447	-68.273631	20.765946	132.384825
05083		-3.478107	-8.513378	3.406436	0.000290	0.005570	-0.005544	-0.677246	0.246338	0.035645	-68.273454	20.765836	132.384446
05084		-3.503873	-8.544927	3.394544	-0.005116	0.003441	-0.002724	-0.681885	0.243408	0.033936	-68.275699	20.766865	132.386638
05085		-3.477597	-8.513892	3.405673	-0.000583	0.005653	-0.008234	-0.675049	0.242920	0.037842	-68.276240	20.765365	132.386593
05086		-3.493119	-8.542872	3.416086	0.000216	0.002944	-0.004936	-0.677246	0.242920	0.038086	-68.275508	20.765110	132.388567
05087		-3.476919	-8.514379	3.405148	-0.005516	0.004796	-0.004372	-0.674072	0.254150	0.036377	-68.278398	20.765411	132.390794
05088		-3.481216	-8.540943	3.382821	-0.000254	0.006608	-0.002862	-0.674316	0.242676	0.031494	-68.278508	20.767038	132.391152
05089		-3.476738	-8.514777	3.404338	-0.003629	0.004948	-0.003319	-0.677979	0.254883	0.033691	-68.280210	20.768222	132.392964
05090		-3.508188	-8.522569	3.392123	-0.002142	0.006456	-0.003915	-0.682129	0.246094	0.031494	-68.281455	20.769256	132.393170
05091		-3.480651	-8.541623	3.381684	-0.001055	0.004382	-0.009274	-0.684814	0.247559	0.032715	-68.282048	20.767170	132.393383
05092		-3.481766	-8.541729	3.435972	-0.002214	0.003829	-0.003308	-0.671631	0.253174	0.029541	-68.282756	20.767970	132.395222
05093		-3.497199	-8.520778	3.413265	-0.002614	0.005184	-0.004956	-0.680664	0.246826	0.030518	-68.284052	20.768391	132.395661
05094		-3.485553	-8.518574	3.380402	-0.001671	0.007728	-0.002872	-0.674561	0.245850	0.028564	-68.285200	20.770251	132.395379
05095		-3.469639	-8.539949	3.402541	0.000759	0.001909	-0.007614	-0.667969	0.249023	0.033203	-68.284147	20.768440	132.396371
05096		-3.490520	-8.495214	3.379841	-0.000728	0.005337	-0.003903	-0.677490	0.243408	0.033203	-68.284356	20.769244	132.397217
05097		-3.480656	-8.542725	3.434622	-0.000728	0.005337	-0.003902	-0.679199	0.239502	0.023682	-68.284536	20.770139	132.398391
05098		-3.474541	-8.516762	3.401615	-0.002615	0.005184	-0.004955	-0.676270	0.241943	0.029785	-68.285880	20.770350	132.399084
05099		-3.495871	-8.521963	3.411665	-0.000800	0.002710	-0.003296	-0.678467	0.240723	0.030518	-68.285582	20.770834	132.399386
05100		-3.479959	-8.543336	3.433806	-0.000113	0.006928	-0.007187	-0.677002	0.246826	0.024658	-68.286023	20.770227	132.398581
05101		-3.473693	-8.517370	3.400959	0.000215	0.002946	-0.004933	-0.676514	0.248779	0.032959	-68.285296	20.769994	132.398880
05102		-3.499318	-8.548885	3.389272	0.000286	0.005573	-0.005539	-0.675049	0.251465	0.041260	-68.285102	20.769977	132.399219
05103		-3.516158	-8.527785	3.421242	-0.001601	0.005421	-0.006592	-0.671143	0.244385	0.026123	-68.285991	20.769510	132.400954
05104		-3.467056	-8.541800	3.400528	-0.000114	0.006929	-0.007186	-0.678467	0.250977	0.031982	-68.286434	20.768904	132.400148
05105		-3.482271	-8.520834	3.378085	0.002717	0.004690	-0.007164	-0.681885	0.243896	0.024902	-68.284763	20.768018	132.399831
05106		-3.487756	-8.547193	3.410752	0.001301	0.005810	-0.007174	-0.676758	0.254150	0.030273	-68.284167	20.767180	132.399665
05107		-3.471558	-8.518598	3.400064	0.000756	0.006846	-0.004495	-0.673096	0.250732	0.036865	-68.283843	20.768184	132.398133
05108		-3.461262	-8.516153	3.422135	0.002716	0.004691	-0.007163	-0.673340	0.243652	0.038086	-68.282210	20.767116	132.398606
05109		-3.492290	-8.523936	3.410403	0.002245	0.003419	-0.008205	-0.678223	0.245117	0.034912	-68.280639	20.765277	132.401209
05110		-3.470326	-8.519158	3.399917	-0.002618	0.005185	-0.004954	-0.683594	0.247559	0.031494	-68.281984	20.765489	132.401902
05111		-3.485973	-8.548132	3.410221	0.001770	0.007083	-0.006130	-0.678467	0.253174	0.030273	-68.281287	20.765463	132.401078
05112		-3.491302	-8.524638	3.409659	-0.004505	0.005032	-0.006007	-0.678711	0.251953	0.037842	-68.283767	20.765082	132.401620
05113		-3.500980	-8.527503	3.387168	0.000284	0.005575	-0.005536	-0.678223	0.246338	0.035889	-68.283509	20.765310	132.402667
05114		-3.490746	-8.525144	3.408964	-0.002549	0.007813	-0.005558	-0.678223	0.243164	0.034668	-68.285393	20.765758	132.401727
05115		-3.490538	-8.525455	3.408400	-0.005521	0.004796	-0.004370	-0.679443	0.247314	0.032959	-68.288277	20.766124	132.403222
05116		-3.490208	-8.525704	3.408114	0.002715	0.004693	-0.007160	-0.678711	0.244629	0.031494	-68.286645	20.765058	132.403695
05117		-3.472589	-8.547145	3.376017	0.003116	0.003338	-0.005513	-0.680176	0.242188	0.027832	-68.284369	20.764591	132.404947
05118		-3.467953	-8.520945	3.397859	0.000352	0.008204	-0.006139	-0.673096	0.245117	0.031494	-68.284717	20.764813	132.403653
05119		-3.483573	-8.549888	3.408271	0.001699	0.004457	-0.005523	-0.678467	0.242188	0.026367	-68.283490	20.764560	132.403534
05120		-3.488791	-8.526335	3.407986	0.000827	0.004541	-0.008212	-0.673828	0.251953	0.040039	-68.282994	20.762901	132.403855
05121		-3.478334	-8.523971	3.430027	0.001297	0.005813	-0.007169	-0.674072	0.259277	0.035645	-68.282373	20.762145	132.403898
05122		-3.456369	-8.519146	3.419629	0.001297	0.005814	-0.007169	-0.674072	0.250732	0.033203	-68.281780	20.761312	132.403731
05123		-3.487485	-8.526994	3.407675	-0.000189	0.004304	-0.006576	-0.674561	0.250732	0.031738	-68.281582	20.760871	132.405876
05124		-3.487089	-8.527269	3.407392	-0.003091	0.003914	-0.005994	-0.669678	0.245605	0.031006	-68.283025	20.760260	132.407057
05125		-3.459715	-8.546228	3.396878	-0.001613	0.010360	-0.003470	-0.680420	0.250977	0.030518	-68.284669	20.762558	132.405149
05126		-3.492477	-8.503946	3.406370	0.000281	0.005577	-0.005532	-0.676514	0.249268	0.036377	-68.284479	20.762545	132.405488
05127		-3.490757	-8.554225	3.384624	0.001228	0.003186	-0.006564	-0.681396	0.245361	0.035156	-68.283301	20.761631	132.407302
05128		-3.486036	-8.528114	3.406353	-0.001606	0.005424	-0.006586	-0.678467	0.246094	0.034668	-68.284246	20.761026	132.407489
05129		-3.475758	-8.525772	3.428160	-0.001137	0.006697	-0.005543	-0.668701	0.243408	0.033691	-68.285093	20.761182	132.407486
05130		-3.495427	-8.531180	3.383639	0.000280	0.005578	-0.005531	-0.670166	0.248291	0.037109	-68.284903	20.761171	132.407825
05131		-3.495096	-8.531415	3.383390	-0.001607	0.005424	-0.006585	-0.680420	0.240723	0.036133	-68.285812	20.760644	132.409098
05132		-3.463181	-8.524030	3.394986	-0.000190	0.004306	-0.006573	-0.682861	0.238770	0.037109	-68.285719	20.759808	132.409925
05133		-3.490229	-8.505534	3.404709	-0.001617	0.010361	-0.003467	-0.672119	0.247070	0.031982	-68.287472	20.761561	132.408166
05134		-3.468683	-8.550654	3.426994	-0.000659	0.003034	-0.007616	-0.670898	0.251465	0.028809	-68.287475	20.759900	132.409481
05135		-3.493877	-8.532359	3.382269	0.000346	0.008208	-0.006133	-0.674072	0.249756	0.047607	-68.287763	20.760397	132.407973
05136		-3.510888	-8.511268	3.414206	-0.001206	0.004069	-0.004938	-0.675781	0.245605	0.035156	-68.288073	20.760381	132.409305
05137		-3.461769	-8.525162	3.393585	-0.001608	0.005425	-0.006583	-0.676758	0.239990	0.032959	-68.288985	20.759763	132.412072
05138		-3.510250	-8.511793	3.413553	-0.002623	0.005188	-0.004949	-0.676514	0.242188	0.038330	-68.290333	20.759979	132.412765
05139		-3.465467	-8.552001	3.371033	0.000278	0.005580	-0.005529	-0.672852	0.246826	0.032715	-68.290173	20.759761	132.413315
05140		-3.499728	-8.509672	3.435076	-0.003026	0.006544	-0.006594	-0.681152	0.245850	0.035889	-68.292158	20.759389	132.412863
05141		-3.466460	-8.552343	3.425030	0.000145	0.000322	-0.004323	-0.677734	0.244141	0.031982	-68.290869	20.758929	132.416735
05142		-3.487605	-8.507613	3.402203	-0.001687	0.007733	-0.002862	-0.677979	0.248779	0.025879	-68.292027	20.760795	132.416453
05143		-3.481744	-8.531546	3.402147	0.001359	0.008448	-0.007764	-0.666992	0.250244	0.036621	-68.291958	20.760303	132.413339
05144		-3.481416	-8.531750	3.401972	0.000277	0.005581	-0.005527	-0.674072	0.247314	0.037598	-68.291770	20.760294	132.413677
05145		-3.481152	-8.531972	3.401685	-0.002625	0.005188	-0.004947	-0.674316	0.237793	0.033936	-68.293059	20.760673	132.416010
05146		-3.480888	-8.532209	3.401360	-0.001207	0.004070	-0.004936	-0.677246	0.244141	0.040527	-68.293369	20.760659	132.417343
05147		-3.512276	-8.540101	3.389043	-0.004590	0.007341	-0.002281	-0.679688	0.246582	0.023926	-68.296091	20.762526	132.418072
05148		-3.496224	-8.511534	3.378122	-0.000192	0.004309	-0.006569	-0.676514	0.237061	0.038086	-68.295999	20.761693	132.418899
05149		-3.480378	-8.532855	3.400261	-0.001755	0.005105	-0.002258	-0.681396	0.249512	0.035889	-68.296639	20.763203	132.419070
05150		-3.480227	-8.533016	3.400012	0.000276	0.005582	-0.005526	-0.682861	0.249512	0.027832	-68.296452	20.763195	132.419408
05151		-3.469963	-8.530628	3.421948	-0.000126	0.006939	-0.007171	-0.673584	0.242676	0.035889	-68.296870	20.762721	132.418171
05152		-3.483780	-8.559874	3.377523	-0.003028	0.006546	-0.006591	-0.678955	0.244141	0.036621	-68.298856	20.762350	132.417719
05153		-3.484889	-8.509982	3.399059	0.004596	0.004858	-0.006093	-0.677734	0.244141	0.032959	-68.296098	20.761775	132.418926
05154		-3.478828	-8.533876	3.399285	-0.000127	0.006940	-0.007170	-0.683594	0.245850	0.036621	-68.296549	20.761179	132.418119
05155		-3.500063	-8.539152	3.409375	0.001759	0.007095	-0.006114	-0.678711	0.250732	0.036621	-68.295868	20.761096	132.417542
05156		-3.478152	-8.534273	3.398979	-0.000193	0.004310	-0.006567	-0.675293	0.247070	0.029297	-68.295777	20.760264	132.418368
05157		-3.473692	-8.508072	3.420757	0.001145	0.005499	-0.002836	-0.676758	0.248535	0.032227	-68.294815	20.761825	132.419450
05158		-3.467861	-8.531979	3.420709	-0.002562	0.007819	-0.005547	-0.676758	0.245605	0.033447	-68.296707	20.762280	132.418510
05159		-3.499153	-8.539863	3.408526	0.000677	0.004226	-0.003879	-0.677246	0.240234	0.020264	-68.295855	20.762946	132.419888
05160		-3.488996	-8.537399	3.430548	0.000274	0.005584	-0.005523	-0.677979	0.253906	0.033203	-68.295670	20.762940	132.420226
05161		-3.486928	-8.537741	3.375852	0.001290	0.005823	-0.007156	-0.671875	0.243652	0.026611	-68.295052	20.762282	132.418166
05162		-3.482368	-8.511570	3.397666	0.001757	0.007096	-0.006112	-0.672607	0.245117	0.038086	-68.294370	20.762283	132.417510
05163		-3.507797	-8.543197	3.385879	-0.000194	0.004311	-0.006566	-0.683838	0.242920	0.036133	-68.294259	20.761496	132.418141
05164		-3.485948	-8.538299	3.375453	0.000740	0.006857	-0.004479	-0.674072	0.250244	0.033691	-68.293979	20.762315	132.417991
05165		-3.471612	-8.509488	3.419345	0.000273	0.005584	-0.005522	-0.680664	0.240967	0.038818	-68.293777	20.762309	132.418696
05166		-3.502701	-8.517434	3.407230	-0.000597	0.005669	-0.008209	-0.685303	0.245850	0.024658	-68.294324	20.760891	132.418376
05167		-3.480722	-8.512584	3.396813	0.000209	0.002954	-0.004921	-0.676025	0.247314	0.033203	-68.293619	20.760516	132.419312
05168		-3.496141	-8.541632	3.407186	-0.000661	0.003039	-0.007608	-0.676270	0.249512	0.031982	-68.293623	20.758861	132.420626
05169		-3.485882	-8.539223	3.429174	0.000739	0.006858	-0.004478	-0.682373	0.250488	0.033936	-68.293300	20.759835	132.420499
05170		-3.479711	-8.513166	3.396390	0.000209	0.002955	-0.004920	-0.681396	0.246094	0.028809	-68.292572	20.759592	132.422470
05171		-3.485368	-8.539584	3.428798	-0.002630	0.005190	-0.004943	-0.682617	0.246582	0.025146	-68.293899	20.759898	132.422502
05172		-3.489008	-8.516247	3.373701	-0.000195	0.004312	-0.006564	-0.675537	0.247803	0.031494	-68.293809	20.759068	132.423328
05173		-3.482938	-8.540159	3.373853	0.003236	0.008612	-0.006697	-0.682373	0.247803	0.034668	-68.292605	20.759208	132.420208
05174		-3.472639	-8.537753	3.395877	-0.000599	0.005670	-0.008207	-0.677002	0.238770	0.033203	-68.293153	20.757791	132.419888
05175		-3.499567	-8.519302	3.405781	0.002094	0.003111	-0.003864	-0.684082	0.235596	0.033936	-68.291306	20.758019	132.421805
05176		-3.489283	-8.516825	3.427969	0.002302	0.006066	-0.008783	-0.684082	0.244629	0.037842	-68.290317	20.756379	132.421129
05177		-3.477225	-8.514565	3.395431	0.000333	0.008217	-0.006119	-0.677246	0.252930	0.034668	-68.290732	20.756275	132.419648
05178		-3.498485	-8.519908	3.405376	-0.001615	0.005431	-0.006574	-0.685791	0.246338	0.032959	-68.291683	20.755676	132.419834
05179		-3.488194	-8.517543	3.427292	-0.000196	0.004313	-0.006562	-0.675781	0.241211	0.021729	-68.291553	20.754966	132.420849
05180		-3.480271	-8.541657	3.372814	-0.000196	0.004314	-0.006562	-0.680176	0.246338	0.036377	-68.291464	20.754137	132.421674
05181		-3.485545	-8.518198	3.372354	-0.000601	0.005671	-0.008205	-0.677979	0.252441	0.037354	-68.292010	20.752729	132.419908
05182		-3.491088	-8.544681	3.404720	-0.002694	0.002560	-0.004342	-0.676270	0.243408	0.031250	-68.292820	20.752710	132.422234
05183		-3.496498	-8.521186	3.404218	0.001346	0.008459	-0.007748	-0.678467	0.243408	0.032715	-68.292739	20.752233	132.420902
05184		-3.480541	-8.542491	3.426459	0.000269	0.005588	-0.005517	-0.679443	0.247803	0.030762	-68.292557	20.752230	132.421238
05185		-3.505733	-8.524254	3.381625	-0.001617	0.005432	-0.006572	-0.678955	0.241455	0.029541	-68.293494	20.751659	132.420854
05186		-3.479771	-8.543035	3.425885	-0.002083	0.004159	-0.007616	-0.680176	0.236816	0.034424	-68.294539	20.750237	132.421528
05187		-3.461821	-8.514557	3.360632	0.002215	0.008376	-0.005060	-0.682861	0.248535	0.025391	-68.293812	20.750827	132.419315
05188		-3.479203	-8.543470	3.425378	-0.003038	0.006549	-0.006584	-0.679932	0.241455	0.023438	-68.295804	20.750460	132.418862
05189		-3.510179	-8.551478	3.413269	0.002177	0.000807	-0.007579	-0.671875	0.242920	0.031006	-68.293723	20.748437	132.418630
05190		-3.472373	-8.517723	3.392474	0.000389	0.010852	-0.006713	-0.678467	0.241943	0.024658	-68.294630	20.748914	132.415698
05191		-3.478156	-8.544150	3.424743	-0.002169	0.006465	-0.003896	-0.675537	0.251465	0.032715	-68.295889	20.749980	132.414347
05192		-3.503385	-8.525888	3.379939	0.001222	0.003199	-0.006547	-0.680908	0.245605	0.027100	-68.294761	20.748924	132.415809
05193		-3.487323	-8.547177	3.402313	0.001282	0.005830	-0.007145	-0.673340	0.244629	0.031982	-68.294131	20.748295	132.414948
05194		-3.465403	-8.542248	3.391962	0.000266	0.005589	-0.005514	-0.681885	0.259521	0.033691	-68.293950	20.748294	132.415283
05195		-3.502327	-8.526435	3.379654	0.003227	0.008619	-0.006687	-0.683594	0.241211	0.031982	-68.292700	20.748599	132.414090
05196		-3.476364	-8.545129	3.424120	-0.001069	0.004401	-0.009244	-0.676270	0.243652	0.034180	-68.293344	20.746362	132.414256
05197		-3.503145	-8.526875	3.433787	-0.000544	0.008307	-0.008798	-0.677979	0.246338	0.030273	-68.294455	20.745056	132.411920
05198		-3.491051	-8.524599	3.401262	0.003166	0.005988	-0.006087	-0.670654	0.251709	0.044434	-68.292739	20.744835	132.411898
05199		-3.483151	-8.548613	3.346904	0.000265	0.005590	-0.005513	-0.663818	0.240723	0.031250	-68.292499	20.744978	132.413993
05200		-3.458986	-8.517191	3.412958	-0.000140	0.006949	-0.007155	-0.676270	0.248535	0.033447	-68.292957	20.744392	132.413182
05201		-3.480254	-8.522566	3.422875	-0.001156	0.006707	-0.005525	-0.677490	0.243652	0.035400	-68.293781	20.744725	132.413149
05202		-3.483976	-8.549196	3.400667	-0.000605	0.005676	-0.008198	-0.677979	0.250000	0.034180	-68.294333	20.743314	132.412826
05203		-3.448034	-8.515276	3.434425	0.001685	0.004474	-0.005500	-0.674561	0.244873	0.037354	-68.293083	20.743131	132.414364
05204		-3.506473	-8.504696	3.432193	-0.003101	0.003919	-0.005982	-0.676514	0.247803	0.037109	-68.294533	20.742528	132.415544
05205		-3.504498	-8.555077	3.410086	-0.002578	0.007825	-0.005536	-0.672607	0.239258	0.033447	-68.296402	20.743009	132.415922
05206		-3.488284	-8.526423	3.399529	0.005137	0.003842	-0.008746	-0.685547	0.245850	0.029053	-68.293338	20.740918	132.416519
05207		-3.482079	-8.550324	3.399775	-0.001158	0.006708	-0.005523	-0.679932	0.249023	0.035889	-68.294207	20.741071	132.415334
05208		-3.477722	-8.524128	3.421558	0.003164	0.005991	-0.006084	-0.680420	0.240234	0.034912	-68.292493	20.740852	132.415311
05209		-3.487214	-8.526928	3.399362	0.001278	0.005834	-0.007140	-0.681641	0.245361	0.031006	-68.291906	20.739966	132.415504
05210		-3.480793	-8.500942	3.366629	0.000814	0.004561	-0.008183	-0.680176	0.243164	0.034180	-68.291418	20.738326	132.415820
05211		-3.498166	-8.529803	3.431592	0.002611	0.007024	-0.003409	-0.680176	0.239746	0.036377	-68.290012	20.739701	132.415343
05212		-3.486227	-8.527445	3.399076	-0.000144	0.006951	-0.007151	-0.673584	0.250244	0.035400	-68.290472	20.739117	132.414532
05213		-3.485807	-8.527735	3.398780	-0.000550	0.008310	-0.008792	-0.677002	0.243896	0.038086	-68.291550	20.737933	132.413313
05214		-3.485283	-8.528002	3.398647	0.002235	0.003445	-0.008170	-0.678711	0.242188	0.032715	-68.290022	20.736064	132.414267
05215		-3.475027	-8.525586	3.420663	-0.002639	0.005193	-0.004936	-0.674561	0.242676	0.036377	-68.291378	20.736196	132.415337
05216		-3.516096	-8.536254	3.386157	-0.000755	0.005351	-0.003880	-0.671631	0.246826	0.039551	-68.291603	20.737015	132.416179
05217		-3.468761	-8.549711	3.420391	-0.000202	0.004319	-0.006552	-0.682373	0.247559	0.030762	-68.291488	20.736193	132.418459
05218		-3.515467	-8.536679	3.385738	-0.001218	0.004077	-0.004924	-0.670654	0.246338	0.031494	-68.291806	20.736186	132.419790
05219		-3.489476	-8.505340	3.397379	0.002698	0.004720	-0.007124	-0.673828	0.242920	0.031738	-68.290145	20.735286	132.419813
05220		-3.505002	-8.534407	3.407614	-0.002121	0.009100	-0.004488	-0.676270	0.245850	0.037109	-68.291958	20.736576	132.418383
05221		-3.477430	-8.553159	3.397403	0.000203	0.002961	-0.004910	-0.678223	0.239746	0.035156	-68.291212	20.736354	132.420676
05222		-3.482779	-8.529601	3.397202	0.005192	0.006481	-0.009335	-0.676514	0.246094	0.033691	-68.288696	20.734508	132.419638
05223		-3.494052	-8.532294	3.429590	0.001332	0.008470	-0.007732	-0.679199	0.246582	0.032959	-68.288660	20.733868	132.417901
05224		-3.497501	-8.508981	3.374584	0.000868	0.007197	-0.008775	-0.683594	0.242920	0.028809	-68.288720	20.732472	132.416583
05225		-3.465731	-8.551352	3.419361	0.002346	0.008714	-0.009359	-0.675293	0.243408	0.039063	-68.288276	20.731091	132.413339
05226		-3.496606	-8.509460	3.374303	0.000259	0.005595	-0.005506	-0.681152	0.244141	0.035400	-68.288101	20.731096	132.413673
05227		-3.439329	-8.520227	3.430874	0.002290	0.006082	-0.008761	-0.669678	0.243164	0.038818	-68.287112	20.729388	132.413874
05228		-3.460457	-8.525635	3.440915	-0.000149	0.006955	-0.007146	-0.677979	0.243164	0.031982	-68.287575	20.728808	132.413062
05229		-3.495551	-8.560059	3.406765	0.000258	0.005595	-0.005505	-0.672607	0.245361	0.031738	-68.287380	20.728794	132.413960
05230		-3.453888	-8.499803	3.407937	0.000202	0.002962	-0.004909	-0.676025	0.245850	0.026367	-68.286659	20.728558	132.415928
05231		-3.479266	-8.531521	3.395978	-0.000703	0.007986	-0.004473	-0.680664	0.246826	0.032959	-68.287392	20.729780	132.414158
05232		-3.473257	-8.555412	3.395996	0.000257	0.005596	-0.005504	-0.677979	0.248535	0.033936	-68.287217	20.729786	132.414492
05233		-3.488628	-8.534559	3.373313	0.000312	0.008230	-0.006100	-0.675781	0.244141	0.031982	-68.287549	20.730139	132.413309
05234		-3.472535	-8.505861	3.362730	0.002750	0.007358	-0.007714	-0.675293	0.250000	0.027588	-68.286478	20.729342	132.412139
05235		-3.489961	-8.534724	3.427708	0.002141	0.005755	-0.004446	-0.679688	0.244629	0.029053	-68.285123	20.730130	132.411920
05236		-3.464237	-8.503315	3.439249	-0.002182	0.006468	-0.003889	-0.682129	0.243896	0.040771	-68.286392	20.731181	132.412123
05237		-3.493479	-8.561465	3.405358	0.002288	0.006084	-0.008757	-0.679443	0.243408	0.032715	-68.285407	20.729489	132.411608
05238		-3.492769	-8.511744	3.372516	0.002178	0.000817	-0.007566	-0.682373	0.244141	0.029053	-68.283334	20.727385	132.414195
05239		-3.476857	-8.532966	3.394817	-0.001667	0.010377	-0.003440	-0.676514	0.239990	0.029785	-68.285055	20.729479	132.411320
05240		-3.466940	-8.530476	3.416677	0.000256	0.005597	-0.005502	-0.679688	0.244141	0.031250	-68.284881	20.729487	132.411654
05241		-3.488115	-8.535896	3.426668	-0.000667	0.003048	-0.007591	-0.677734	0.242432	0.038574	-68.284891	20.727795	132.411948
05242		-3.481817	-8.509882	3.393863	0.000716	0.006872	-0.004457	-0.680664	0.243896	0.025146	-68.284626	20.728629	132.411793
05243		-3.471822	-8.507377	3.415843	0.000309	0.008232	-0.006097	-0.679688	0.249512	0.027588	-68.284995	20.728842	132.409873
05244		-3.475616	-8.533990	3.393513	-0.005138	0.003432	-0.002724	-0.677002	0.247803	0.026855	-68.287252	20.729869	132.412068
05245		-3.491174	-8.563112	3.403579	0.000255	0.005598	-0.005501	-0.673828	0.243164	0.031494	-68.287023	20.730130	132.411020
05246		-3.459216	-8.505503	3.382709	0.002179	0.000818	-0.007564	-0.683594	0.244873	0.034424	-68.284950	20.728027	132.413605
05247		-3.492230	-8.513401	3.425124	-0.000708	0.007988	-0.004469	-0.685059	0.242432	0.034912	-68.285714	20.729073	132.412610
05248		-3.495998	-8.539976	3.402908	-0.001223	0.004080	-0.004919	-0.678955	0.242188	0.031738	-68.286034	20.729070	132.413938
05249		-3.479900	-8.511300	3.392272	-0.000207	0.004324	-0.006545	-0.675049	0.243652	0.030518	-68.285964	20.728122	132.414308
05250		-3.485493	-8.537712	3.424812	0.001677	0.004483	-0.005487	-0.672119	0.248535	0.036133	-68.284750	20.727901	132.415278
05251		-3.489099	-8.514307	3.369845	-0.000762	0.005354	-0.003873	-0.680664	0.242432	0.042480	-68.284931	20.728853	132.416519
05252		-3.475175	-8.535342	3.446791	0.002693	0.004728	-0.007112	-0.677246	0.245361	0.033936	-68.283316	20.727819	132.416981
05253		-3.461025	-8.533177	3.359716	-0.002647	0.005195	-0.004931	-0.676514	0.246826	0.033447	-68.284667	20.727943	132.418871
05254		-3.478366	-8.512202	3.391582	0.000147	0.000330	-0.004310	-0.683105	0.252441	0.033203	-68.283399	20.727468	132.422472
05255		-3.484088	-8.538608	3.424007	-0.002187	0.006470	-0.003886	-0.677246	0.244629	0.030762	-68.284612	20.728705	132.422912
05256		-3.477871	-8.512601	3.391088	-0.000208	0.004325	-0.006543	-0.681885	0.246094	0.031250	-68.284531	20.727889	132.423733
05257		-3.483501	-8.539080	3.423429	-0.002648	0.005196	-0.004930	-0.679443	0.250732	0.043945	-68.285870	20.728171	132.423683
05258		-3.477349	-8.513060	3.390472	-0.000764	0.005355	-0.003872	-0.680420	0.244873	0.031006	-68.286101	20.728995	132.424523
05259		-3.467371	-8.510579	3.412387	-0.001172	0.006715	-0.005511	-0.682129	0.242676	0.036621	-68.286930	20.729281	132.425441
05260		-3.470995	-8.537229	3.390093	-0.003109	0.003921	-0.005975	-0.677490	0.246338	0.027100	-68.288384	20.728682	132.426621
05261		-3.492238	-8.542678	3.399986	0.000199	0.002966	-0.004903	-0.681641	0.243896	0.033203	-68.287649	20.728456	132.427977
05262		-3.482139	-8.540164	3.422108	0.000199	0.002966	-0.004903	-0.679932	0.244141	0.030029	-68.286929	20.728224	132.429944
05263		-3.475903	-8.514128	3.389273	-0.001173	0.006716	-0.005510	-0.672363	0.246094	0.039551	-68.287792	20.728442	132.428853
05264		-3.471909	-8.537889	3.443771	-0.000713	0.007991	-0.004465	-0.675781	0.241943	0.030273	-68.288572	20.729509	132.428059
05265		-3.496994	-8.519766	3.398855	0.000807	0.004572	-0.008167	-0.677246	0.244873	0.033447	-68.288061	20.727899	132.428942
05266		-3.486895	-8.517305	3.420850	-0.000714	0.007991	-0.004464	-0.674072	0.248779	0.033691	-68.288842	20.728966	132.428147
05267		-3.508379	-8.522718	3.430604	-0.002190	0.006471	-0.003884	-0.686035	0.248047	0.041748	-68.290066	20.730150	132.428661
05268		-3.468679	-8.538857	3.388364	0.004671	0.002588	-0.009764	-0.673096	0.243164	0.030518	-68.287098	20.727251	132.429741
05269		-3.490058	-8.544233	3.398316	-0.003711	0.009890	-0.000181	-0.678467	0.242676	0.028320	-68.289610	20.730987	132.429527
05270		-3.474069	-8.515507	3.387689	0.004262	0.003949	-0.011402	-0.674805	0.248779	0.028564	-68.287282	20.727505	132.429461
05271		-3.479556	-8.541974	3.420218	-0.002191	0.006472	-0.003883	-0.678223	0.248291	0.029785	-68.288517	20.728712	132.428346
05272		-3.473334	-8.515959	3.387306	-0.000210	0.004328	-0.006539	-0.671875	0.249512	0.027588	-68.288438	20.727899	132.429166
05273		-3.469140	-8.539772	3.441894	-0.001635	0.005443	-0.006553	-0.678955	0.243896	0.026367	-68.289328	20.727612	132.428483
05274		-3.476461	-8.542881	3.364798	-0.001635	0.005443	-0.006552	-0.679199	0.241943	0.030273	-68.290291	20.727028	132.428665
05275		-3.472213	-8.516807	3.386322	-0.003060	0.006558	-0.006565	-0.682617	0.246826	0.035889	-68.292291	20.726677	132.426489
05276		-3.477821	-8.543341	3.418568	-0.000161	0.006964	-0.007131	-0.688721	0.252686	0.030029	-68.292761	20.726107	132.425674
05277		-3.471495	-8.517298	3.385822	0.000148	0.000332	-0.004308	-0.679199	0.239746	0.037598	-68.291449	20.725752	132.429005
05278		-3.492905	-8.522643	3.395847	0.001166	0.008153	-0.003402	-0.674072	0.252441	0.035645	-68.291100	20.727419	132.428359
05279		-3.455484	-8.538614	3.407941	-0.003111	0.003923	-0.005972	-0.680664	0.240479	0.027588	-68.292517	20.726855	132.430659
05280		-3.461015	-8.515142	3.407450	0.001673	0.004489	-0.005479	-0.671143	0.248535	0.035400	-68.291306	20.726641	132.431627
05281		-3.476371	-8.544256	3.417758	-0.000212	0.004329	-0.006537	-0.679688	0.244873	0.031006	-68.291199	20.725890	132.431972
05282		-3.495530	-8.549854	3.373111	-0.001228	0.004083	-0.004913	-0.677979	0.248779	0.032471	-68.291523	20.725890	132.433300
05283		-3.481694	-8.520957	3.417052	0.000706	0.006879	-0.004446	-0.676758	0.245850	0.026367	-68.291225	20.726843	132.432732
05284		-3.469552	-8.518580	3.384591	-0.000261	0.001694	-0.005944	-0.672852	0.243408	0.026123	-68.290596	20.725788	132.435186
05285		-3.496917	-8.550261	3.427023	-0.001687	0.010384	-0.003427	-0.681152	0.243896	0.023926	-68.292298	20.728081	132.431342
05286		-3.484923	-8.547840	3.394513	0.003097	0.003376	-0.005464	-0.678467	0.251953	0.038086	-68.290046	20.727638	132.432947
05287		-3.486567	-8.497925	3.416151	-0.000212	0.004330	-0.006536	-0.682861	0.240723	0.026611	-68.289921	20.726978	132.433179
05288		-3.480290	-8.521877	3.416189	-0.001638	0.005445	-0.006549	-0.682373	0.244385	0.026611	-68.290885	20.726396	132.433361
05289		-3.452564	-8.540570	3.406001	-0.002196	0.006473	-0.003880	-0.683105	0.248047	0.029785	-68.292172	20.727413	132.431033
05290		-3.495571	-8.501333	3.392895	-0.002196	0.006473	-0.003880	-0.678955	0.255127	0.029297	-68.293449	20.728471	132.431234
05291		-3.483679	-8.548940	3.393019	-0.003670	0.004952	-0.003301	-0.675537	0.250732	0.041992	-68.295139	20.729824	132.431621
05292		-3.479851	-8.522732	3.414503	-0.001280	0.009024	-0.001788	-0.682129	0.240723	0.025391	-68.296238	20.732535	132.430843
05293		-3.495328	-8.551819	3.424755	0.002181	0.000827	-0.007553	-0.680420	0.245117	0.033691	-68.294136	20.730464	132.433564
05294		-3.489059	-8.525773	3.391941	-0.004687	0.004705	-0.001677	-0.676270	0.243652	0.031250	-68.296307	20.732319	132.435270
05295		-3.463469	-8.494316	3.403495	0.001671	0.004492	-0.005475	-0.680664	0.245361	0.024414	-68.295079	20.732103	132.435939
05296		-3.498366	-8.528823	3.369250	-0.001181	0.006721	-0.005502	-0.673096	0.251221	0.034668	-68.295954	20.732349	132.435631
05297		-3.500303	-8.528906	3.423469	-0.002245	0.003838	-0.003287	-0.682373	0.247559	0.037109	-68.296620	20.733391	132.436730
05298		-3.468777	-8.521172	3.435273	-0.001181	0.006721	-0.005501	-0.672119	0.251953	0.029053	-68.297496	20.733638	132.436422
05299		-3.488130	-8.526765	3.390403	-0.003214	0.006227	-0.002255	-0.680908	0.247559	0.024170	-68.299104	20.735730	132.437530
05300		-3.474395	-8.497914	3.434202	-0.000166	0.006969	-0.007124	-0.677734	0.244873	0.039307	-68.299578	20.735165	132.436714
05301		-3.477732	-8.524515	3.412209	0.002181	0.000829	-0.007552	-0.679199	0.247559	0.033203	-68.297472	20.733134	132.438838
05302		-3.508913	-8.532628	3.399814	-0.003726	0.009892	-0.000176	-0.685791	0.248291	0.027100	-68.300018	20.736888	132.437931
05303		-3.477541	-8.524875	3.411505	-0.001687	0.002810	-0.005955	-0.686768	0.248779	0.031250	-68.300393	20.736179	132.438690
05304		-3.477327	-8.525076	3.411219	-0.001789	0.005113	-0.002240	-0.685059	0.251221	0.036865	-68.301031	20.737821	132.440035
05305		-3.455595	-8.520014	3.400766	-0.002656	0.005200	-0.004923	-0.680664	0.243164	0.025146	-68.302354	20.738140	132.440685
05306		-3.502403	-8.557107	3.398738	0.000653	0.004247	-0.003850	-0.685547	0.244385	0.036865	-68.301548	20.738742	132.442159
05307		-3.488570	-8.528224	3.442749	-0.001688	0.002811	-0.005955	-0.681396	0.251709	0.028076	-68.301964	20.737833	132.442791
05308		-3.503917	-8.507458	3.419946	-0.002247	0.003838	-0.003286	-0.673584	0.249268	0.036865	-68.302692	20.738649	132.444626
05309		-3.485816	-8.528859	3.387512	-0.003524	0.005287	-0.007604	-0.675049	0.247559	0.044189	-68.304710	20.737726	132.444915
05310		-3.475988	-8.526377	3.409333	-0.000876	0.007664	-0.000148	-0.677979	0.248291	0.035645	-68.305171	20.741023	132.445282
05311		-3.491695	-8.555395	3.419524	0.000606	0.001610	-0.003259	-0.682861	0.247803	0.031982	-68.303758	20.741415	132.450714
05312		-3.485447	-8.529262	3.386880	0.000196	0.002972	-0.004895	-0.679443	0.248779	0.034180	-68.303040	20.741191	132.452677
05313		-3.465785	-8.524052	3.431145	-0.002247	0.003839	-0.003285	-0.674072	0.245117	0.034180	-68.303724	20.742101	132.454414
05314		-3.463394	-8.524369	3.376312	-0.001231	0.004087	-0.004908	-0.681641	0.239258	0.030029	-68.304049	20.742106	132.455741
05315		-3.475069	-8.527164	3.408301	-0.003721	0.002315	-0.002709	-0.677490	0.249268	0.032227	-68.305268	20.742808	132.457953
05316		-3.502461	-8.508938	3.417757	0.000745	0.009523	-0.005027	-0.673340	0.243164	0.036133	-68.305567	20.743900	132.456157
05317		-3.484477	-8.530248	3.385393	-0.002658	0.005201	-0.004921	-0.676514	0.246094	0.034424	-68.306891	20.744206	132.457352
05318		-3.468741	-8.551449	3.407504	-0.001745	0.007752	-0.002828	-0.674561	0.244141	0.030029	-68.308082	20.746095	132.457062
05319		-3.490268	-8.556845	3.417355	0.002125	0.005772	-0.004423	-0.671875	0.246338	0.028564	-68.306751	20.746770	132.457358
05320		-3.490087	-8.506964	3.384415	0.001108	0.005524	-0.002801	-0.672119	0.242432	0.029053	-68.305857	20.748201	132.458343
05321		-3.490054	-8.557011	3.417157	0.000698	0.006886	-0.004436	-0.676514	0.245117	0.035156	-68.305563	20.749178	132.457218
05322		-3.480143	-8.504496	3.406335	0.000698	0.006886	-0.004436	-0.681396	0.247070	0.029053	-68.305310	20.750028	132.457057
05323		-3.474031	-8.528360	3.406366	-0.001186	0.006725	-0.005496	-0.681152	0.245605	0.026855	-68.306156	20.750323	132.456364
05324		-3.483405	-8.531289	3.383872	-0.000215	0.004336	-0.006528	-0.677002	0.243408	0.030273	-68.306080	20.749518	132.457181
05325		-3.498798	-8.510421	3.361279	0.004053	0.008572	-0.003951	-0.680908	0.253662	0.041748	-68.304187	20.751017	132.454620
05326		-3.455461	-8.549888	3.374021	0.000195	0.002974	-0.004892	-0.677002	0.246582	0.030762	-68.303469	20.750795	132.456583
05327		-3.510317	-8.513263	3.393345	-0.000731	0.008001	-0.004448	-0.676025	0.242676	0.033203	-68.304194	20.752016	132.456964
05328		-3.482589	-8.531842	3.383319	0.000240	0.005612	-0.005481	-0.688232	0.247803	0.038330	-68.304029	20.752039	132.457292
05329		-3.462929	-8.526625	3.427634	0.000240	0.005612	-0.005481	-0.677246	0.251709	0.037598	-68.303855	20.751964	132.458002
05330		-3.478190	-8.505812	3.405042	0.002684	0.004747	-0.007088	-0.681396	0.248047	0.035156	-68.302245	20.750948	132.458458
05331		-3.503264	-8.537641	3.393047	-0.000777	0.005364	-0.003859	-0.676758	0.241211	0.036377	-68.302420	20.751908	132.460446
05332		-3.471691	-8.529818	3.405101	0.002728	0.007386	-0.007676	-0.676514	0.241699	0.021240	-68.301365	20.751138	132.459267
05333		-3.481149	-8.532638	3.382794	0.001106	0.005525	-0.002798	-0.676270	0.239258	0.031982	-68.300474	20.752508	132.458680
05334		-3.489200	-8.509013	3.436748	-0.002616	0.007841	-0.005507	-0.674561	0.241455	0.032471	-68.302398	20.752989	132.457733
05335		-3.471014	-8.530322	3.404529	0.002683	0.004748	-0.007086	-0.677734	0.244385	0.030029	-68.300798	20.751828	132.457675
05336		-3.507952	-8.514784	3.391974	0.000694	0.006889	-0.004432	-0.683105	0.245361	0.025879	-68.300547	20.752679	132.457514
05337		-3.470593	-8.530649	3.404138	-0.003678	0.004953	-0.003297	-0.686523	0.247559	0.031250	-68.302301	20.753770	132.456915
05338		-3.507563	-8.515209	3.391311	-0.000217	0.004338	-0.006525	-0.678711	0.254150	0.029541	-68.302226	20.752967	132.457731
05339		-3.470187	-8.531031	3.403594	0.000132	0.007916	-0.001764	-0.676270	0.251709	0.034912	-68.302224	20.755678	132.456813
05340		-3.479717	-8.533882	3.381127	-0.000217	0.004338	-0.006525	-0.684082	0.238525	0.035400	-68.302148	20.754876	132.457629
05341		-3.465932	-8.504951	3.425322	0.003094	0.003386	-0.005450	-0.685791	0.243408	0.025879	-68.299880	20.754379	132.459627
05342		-3.496948	-8.513110	3.413008	0.000325	0.010891	-0.006653	-0.681152	0.250977	0.028809	-68.300827	20.754896	132.456683
05343		-3.475079	-8.508001	3.402749	0.000194	0.002975	-0.004889	-0.677246	0.238525	0.036133	-68.300079	20.754780	132.456622
05344		-3.500074	-8.539898	3.390659	-0.000174	0.006977	-0.007111	-0.675781	0.250000	0.041504	-68.300558	20.754224	132.455803
05345		-3.458735	-8.529405	3.424952	0.001254	0.005864	-0.007097	-0.675049	0.248779	0.031982	-68.299972	20.753334	132.457382
05346		-3.495561	-8.513963	3.412302	-0.000218	0.004339	-0.006523	-0.676514	0.248535	0.031006	-68.299897	20.752532	132.458197
05347		-3.471235	-8.558964	3.380479	0.000798	0.004589	-0.008143	-0.668945	0.248291	0.028564	-68.299351	20.751131	132.458466
05348		-3.463450	-8.506374	3.424300	0.000648	0.004252	-0.003842	-0.676270	0.246094	0.024902	-68.298548	20.751738	132.459939
05349		-3.466818	-8.532968	3.402172	-0.000630	0.005703	-0.008157	-0.675537	0.247314	0.031006	-68.299047	20.750624	132.458314
05350		-3.525317	-8.522892	3.399375	0.000321	0.010894	-0.006650	-0.680664	0.246338	0.032227	-68.299996	20.751144	132.455370
05351		-3.487828	-8.538734	3.411681	0.000193	0.002976	-0.004888	-0.676025	0.243408	0.038574	-68.299236	20.751016	132.457022
05352		-3.487421	-8.538954	3.411547	0.000840	0.007229	-0.008729	-0.676270	0.241455	0.027588	-68.299315	20.749653	132.455693
05353		-3.465399	-8.533843	3.401423	0.001663	0.004503	-0.005461	-0.674805	0.246338	0.031494	-68.298101	20.749364	132.456614
05354		-3.496263	-8.542095	3.389057	-0.000631	0.005704	-0.008155	-0.676514	0.246826	0.041992	-68.298669	20.747983	132.456283
05355		-3.476632	-8.536880	3.433358	0.000688	0.006892	-0.004427	-0.673828	0.249268	0.039063	-68.298373	20.748873	132.457510
05356		-3.495568	-8.542568	3.388580	-0.001044	0.007067	-0.009788	-0.675293	0.247070	0.029541	-68.299584	20.746912	132.456032
05357		-3.485594	-8.540069	3.410623	0.001100	0.005529	-0.002793	-0.679932	0.242188	0.037354	-68.298627	20.748505	132.457868
05358		-3.469765	-8.511157	3.400278	0.003133	0.006030	-0.006032	-0.670898	0.243164	0.031006	-68.296934	20.748324	132.457833
05359		-3.494655	-8.543090	3.388207	-0.002103	0.004178	-0.007581	-0.671631	0.243408	0.031982	-68.297978	20.746841	132.458788
05360		-3.496494	-8.493315	3.409612	-0.000220	0.004341	-0.006520	-0.673584	0.247559	0.046387	-68.297904	20.746042	132.459603
05361		-3.490181	-8.517194	3.409743	0.000233	0.005617	-0.005473	-0.677490	0.240479	0.029297	-68.297697	20.746066	132.462106
05362		-3.456274	-8.559400	3.400201	0.001249	0.005868	-0.007091	-0.673828	0.250244	0.025879	-68.297136	20.745286	132.461923
05363		-3.479831	-8.514936	3.431574	-0.003079	0.006568	-0.006548	-0.680176	0.249023	0.031250	-68.299110	20.745080	132.459939
05364		-3.483145	-8.541620	3.409241	-0.000180	0.006982	-0.007105	-0.680176	0.251465	0.033691	-68.299593	20.744529	132.459119
05365		-3.488782	-8.518160	3.408762	0.000191	0.002978	-0.004885	-0.669189	0.250732	0.036865	-68.298809	20.744505	132.461101
05366		-3.482503	-8.542032	3.408864	-0.002708	0.002564	-0.004328	-0.680664	0.249756	0.030518	-68.299626	20.744497	132.463425
05367		-3.460540	-8.536921	3.398645	0.001248	0.005869	-0.007090	-0.688721	0.250488	0.035645	-68.298980	20.743963	132.463988
05368		-3.487820	-8.518806	3.408132	-0.001198	0.006731	-0.005485	-0.683838	0.241455	0.031006	-68.299865	20.744221	132.463677
05369		-3.487564	-8.519014	3.407875	0.000231	0.005619	-0.005471	-0.678467	0.244629	0.035889	-68.299698	20.744162	132.463479
05370		-3.502942	-8.548227	3.417931	-0.001198	0.006732	-0.005485	-0.675537	0.252686	0.039063	-68.300584	20.744420	132.463169
05371		-3.459443	-8.537771	3.397628	-0.001239	0.004092	-0.004899	-0.685059	0.249512	0.034424	-68.300851	20.744519	132.466053
05372		-3.477194	-8.516850	3.429496	0.003583	0.007310	-0.004980	-0.673584	0.245361	0.031982	-68.299073	20.745169	132.465528
05373		-3.496114	-8.522482	3.384857	-0.000635	0.005707	-0.008149	-0.678223	0.245117	0.035645	-68.299598	20.743863	132.465221
05374		-3.480200	-8.543594	3.407302	0.001056	0.002891	-0.002204	-0.675049	0.247070	0.023926	-68.298155	20.745055	132.467839
05375		-3.492033	-8.546331	3.439435	0.000270	0.008260	-0.006055	-0.673584	0.248047	0.038818	-68.298510	20.745443	132.465622
05376		-3.491719	-8.496642	3.406213	-0.003122	0.003929	-0.005960	-0.674072	0.250244	0.029541	-68.299971	20.744855	132.466800
05377		-3.467424	-8.541641	3.374156	-0.002669	0.005205	-0.004912	-0.677246	0.243652	0.036865	-68.301267	20.745296	132.468316
05378		-3.506865	-8.526180	3.415700	-0.002217	0.006482	-0.003865	-0.668213	0.245117	0.029297	-68.302556	20.746364	132.468515
05379		-3.478971	-8.544679	3.405837	0.002676	0.004759	-0.007071	-0.677490	0.239014	0.037354	-68.300912	20.745396	132.469115
05380		-3.488315	-8.547590	3.383388	-0.002218	0.006482	-0.003864	-0.683350	0.253906	0.034668	-68.302202	20.746464	132.469314
05381		-3.453112	-8.513325	3.417459	0.002223	0.003483	-0.008118	-0.675781	0.247803	0.034912	-68.300652	20.744599	132.470928
05382		-3.509054	-8.553409	3.393113	-0.000637	0.005709	-0.008147	-0.678711	0.245605	0.040771	-68.301224	20.743224	132.470597
05383		-3.492915	-8.524660	3.382675	0.002262	0.006125	-0.008702	-0.674805	0.242188	0.037842	-68.300220	20.741634	132.471305
05384		-3.476894	-8.545764	3.405234	0.003165	0.008678	-0.006607	-0.676270	0.248535	0.029541	-68.299088	20.741708	132.469633
05385		-3.473019	-8.519506	3.427129	0.001696	0.007150	-0.006037	-0.676758	0.239990	0.029297	-68.298405	20.741793	132.469120
05386		-3.494437	-8.525020	3.436937	-0.000789	0.005370	-0.003849	-0.678223	0.248535	0.029053	-68.298650	20.742634	132.469956
05387		-3.470047	-8.519956	3.372320	0.002223	0.003485	-0.008116	-0.674561	0.252197	0.033936	-68.297107	20.740836	132.469554
05388		-3.493869	-8.525392	3.436591	-0.004253	0.005978	-0.000629	-0.678223	0.251221	0.031494	-68.299202	20.743520	132.470772
05389		-3.469899	-8.520294	3.371618	-0.001806	0.005118	-0.002231	-0.677002	0.253174	0.025391	-68.299755	20.745461	132.472517
05390		-3.503266	-8.528495	3.413612	-0.000676	0.003069	-0.007560	-0.682373	0.242676	0.035400	-68.299770	20.743840	132.473822
05391		-3.481270	-8.523416	3.403299	-0.002634	0.007847	-0.005494	-0.671875	0.250244	0.031250	-68.301655	20.744454	132.472072
05392		-3.480901	-8.523685	3.403004	0.000792	0.004598	-0.008129	-0.678467	0.250488	0.039307	-68.301182	20.742853	132.472377
05393		-3.482987	-8.523772	3.457404	0.000678	0.006899	-0.004417	-0.676270	0.252686	0.029297	-68.300857	20.743922	132.473305
05394		-3.502065	-8.529401	3.412580	-0.000753	0.008012	-0.004431	-0.680664	0.238525	0.033447	-68.301662	20.745013	132.472505
05395		-3.464417	-8.545173	3.425065	0.001771	0.002210	-0.009161	-0.676758	0.250488	0.031738	-68.300197	20.742384	132.473284
05396		-3.485603	-8.550697	3.435103	0.003575	0.007317	-0.004971	-0.678955	0.251465	0.041260	-68.298424	20.743041	132.472758
05397		-3.479236	-8.524576	3.402474	-0.000677	0.003070	-0.007559	-0.676758	0.241211	0.029541	-68.298358	20.741591	132.475390
05398		-3.469348	-8.522009	3.424625	0.001090	0.005535	-0.002784	-0.678711	0.246826	0.033936	-68.297475	20.743035	132.476373
05399		-3.478816	-8.524919	3.402044	-0.002637	0.007848	-0.005493	-0.682861	0.245850	0.035889	-68.299389	20.743490	132.474765
05400		-3.490549	-8.527811	3.433962	-0.000226	0.004347	-0.006510	-0.677979	0.243164	0.027344	-68.299319	20.742698	132.475579
05401		-3.478254	-8.525399	3.401417	-0.002223	0.006483	-0.003861	-0.679932	0.243652	0.032227	-68.300594	20.743719	132.474987
05402		-3.487715	-8.528325	3.378797	-0.000792	0.005371	-0.003846	-0.676025	0.250488	0.031006	-68.300841	20.744563	132.475822
05403		-3.499415	-8.531171	3.410874	0.000790	0.004601	-0.008126	-0.670410	0.248047	0.030273	-68.300321	20.743054	132.475703
05404		-3.483477	-8.552319	3.433222	-0.002224	0.006484	-0.003861	-0.677734	0.239990	0.029541	-68.301614	20.744125	132.475902
05405		-3.477401	-8.526200	3.400281	-0.001810	0.005119	-0.002229	-0.683105	0.250732	0.029785	-68.302228	20.745822	132.476309
05406		-3.486802	-8.529054	3.377901	0.003087	0.003401	-0.005432	-0.679443	0.241943	0.031738	-68.299983	20.745404	132.477907
05407		-3.470829	-8.550134	3.400448	-0.000191	0.006990	-0.007092	-0.683105	0.250244	0.033936	-68.300440	20.744889	132.476162
05408		-3.498170	-8.532097	3.409836	-0.001244	0.004095	-0.004893	-0.678955	0.254395	0.038086	-68.300773	20.744904	132.477486
05409		-3.476264	-8.526910	3.399664	0.000223	0.005625	-0.005461	-0.676514	0.253906	0.035645	-68.300534	20.745131	132.478923
05410		-3.472450	-8.500693	3.421457	0.000223	0.005626	-0.005460	-0.682373	0.249268	0.036377	-68.300381	20.745169	132.479248
05411		-3.475584	-8.527311	3.399353	0.000789	0.004602	-0.008124	-0.679932	0.248291	0.030273	-68.299827	20.743751	132.480695
05412		-3.506430	-8.535630	3.386926	0.000637	0.004261	-0.003829	-0.682617	0.248047	0.033936	-68.299030	20.744368	132.482166
05413		-3.474981	-8.527601	3.399241	0.003121	0.006044	-0.006013	-0.677246	0.242188	0.039551	-68.297297	20.744275	132.481728
05414		-3.486728	-8.530377	3.431469	0.000187	0.002984	-0.004877	-0.682373	0.256348	0.033936	-68.296585	20.744064	132.483688
05415		-3.486474	-8.530585	3.431211	-0.001175	0.009380	-0.006057	-0.673096	0.253662	0.042725	-68.297977	20.744644	132.482868
05416		-3.495876	-8.533525	3.408614	0.000672	0.006903	-0.004411	-0.677734	0.237793	0.027832	-68.297740	20.745512	132.482703
05417		-3.480147	-8.504626	3.398123	-0.000795	0.005373	-0.003844	-0.681396	0.245605	0.031250	-68.297945	20.746360	132.484168
05418		-3.495392	-8.533881	3.408220	0.000789	0.004603	-0.008122	-0.673828	0.246094	0.034180	-68.297475	20.744765	132.484472
05419		-3.461351	-8.526046	3.365857	-0.000796	0.005373	-0.003843	-0.675049	0.246094	0.031494	-68.297686	20.745631	132.485064
05420		-3.516409	-8.539687	3.417778	-0.000229	0.004350	-0.006506	-0.677002	0.247314	0.026855	-68.297617	20.744842	132.485878
05421		-3.494286	-8.534510	3.407779	0.002220	0.003492	-0.008106	-0.674072	0.242432	0.043945	-68.296049	20.743155	132.485706
05422		-3.462781	-8.526490	3.420113	0.001085	0.005539	-0.002780	-0.676758	0.245605	0.036377	-68.295169	20.744602	132.486687
05423		-3.490327	-8.508388	3.429514	-0.001212	0.006739	-0.005473	-0.677246	0.248047	0.022217	-68.296037	20.744724	132.488286
05424		-3.462318	-8.526867	3.419641	-0.000229	0.004351	-0.006505	-0.673340	0.242432	0.037598	-68.295968	20.743936	132.489100
05425		-3.471488	-8.529879	3.397095	-0.001662	0.005462	-0.006520	-0.679688	0.245117	0.035889	-68.296904	20.743451	132.488259
05426		-3.492864	-8.535506	3.406741	-0.000797	0.005374	-0.003842	-0.683838	0.243164	0.041992	-68.297154	20.744297	132.489094
05427		-3.489157	-8.509291	3.428461	-0.001246	0.004097	-0.004890	-0.673584	0.250977	0.029297	-68.297480	20.744109	132.491602
05428		-3.492165	-8.535900	3.406472	0.004702	0.005279	-0.010285	-0.677734	0.244385	0.028809	-68.295077	20.741506	132.491031
05429		-3.476216	-8.507003	3.396196	-0.001848	0.002477	-0.001645	-0.679199	0.249268	0.035156	-68.295103	20.743097	132.492931
05430		-3.482071	-8.533455	3.428546	0.000219	0.005629	-0.005456	-0.682861	0.240234	0.031738	-68.294952	20.743138	132.493255
05431		-3.518982	-8.518185	3.415682	-0.000230	0.004352	-0.006504	-0.678711	0.243652	0.032471	-68.294865	20.742272	132.493736
05432		-3.490942	-8.536629	3.405898	0.000218	0.005629	-0.005455	-0.671875	0.244141	0.037109	-68.294714	20.742313	132.494060
05433		-3.490752	-8.536811	3.405637	-0.000766	0.008018	-0.004422	-0.677734	0.245605	0.034912	-68.295494	20.743358	132.493557
05434		-3.474911	-8.507933	3.395201	0.001202	0.003241	-0.006488	-0.683838	0.242676	0.023926	-68.294381	20.742344	132.495006
05435		-3.477896	-8.534572	3.373140	-0.000679	0.003075	-0.007551	-0.678223	0.243896	0.031494	-68.294379	20.740698	132.494764
05436		-3.505225	-8.516505	3.382728	0.003532	0.004684	-0.004376	-0.676025	0.249023	0.032227	-68.292053	20.741114	132.495870
05437		-3.479710	-8.534797	3.427601	-0.000647	0.005718	-0.008132	-0.676758	0.247559	0.034180	-68.292581	20.739828	132.495128
05438		-3.489015	-8.537791	3.404960	-0.001784	0.007763	-0.002807	-0.682373	0.244629	0.035645	-68.293795	20.741732	132.494837
05439		-3.485425	-8.511571	3.426598	-0.001248	0.004098	-0.004888	-0.675537	0.243896	0.031250	-68.294092	20.741731	132.496472
05440		-3.498151	-8.540936	3.382107	0.000217	0.005630	-0.005454	-0.683350	0.241699	0.033936	-68.293942	20.741773	132.496796
05441		-3.497942	-8.541094	3.381925	0.000665	0.006908	-0.004405	-0.683594	0.246094	0.030518	-68.293699	20.742530	132.495980
05442		-3.475252	-8.509284	3.448368	0.000633	0.004264	-0.003824	-0.669434	0.244629	0.025635	-68.292905	20.743150	132.497450
05443		-3.497503	-8.541414	3.381571	-0.001665	0.005464	-0.006517	-0.674561	0.244141	0.033447	-68.293840	20.742699	132.496068
05444		-3.484096	-8.512424	3.425831	0.005564	0.005196	-0.007600	-0.674316	0.244385	0.035889	-68.290711	20.741506	132.496152
05445		-3.502696	-8.518155	3.381193	-0.000617	0.008363	-0.008710	-0.678955	0.238770	0.032959	-68.291811	20.740378	132.494617
05446		-3.465040	-8.533805	3.393814	0.003082	0.003409	-0.005421	-0.684570	0.243652	0.034424	-68.289569	20.739967	132.496213
05447		-3.507881	-8.544791	3.413780	0.005178	0.009207	-0.009809	-0.682617	0.248047	0.032471	-68.287659	20.738223	132.492939
05448		-3.479689	-8.513268	3.371320	0.000784	0.004609	-0.008113	-0.671387	0.235840	0.022461	-68.287191	20.736633	132.493241
05449		-3.485294	-8.539736	3.403894	0.004577	0.007586	-0.006565	-0.682617	0.249268	0.042969	-68.285012	20.736476	132.490190
05450		-3.491015	-8.516210	3.403650	0.002665	0.004776	-0.007048	-0.675781	0.247803	0.029297	-68.283416	20.735489	132.490638
05451		-3.484421	-8.540000	3.404124	0.005145	0.006565	-0.009226	-0.683594	0.242676	0.039307	-68.280869	20.733801	132.490546
05452		-3.480419	-8.513848	3.426030	-0.001067	0.007087	-0.009757	-0.670410	0.244873	0.034180	-68.282094	20.731861	132.489065
05453		-3.483373	-8.540492	3.403963	0.003081	0.003411	-0.005419	-0.670410	0.239502	0.036621	-68.279825	20.731358	132.491552
05454		-3.510855	-8.522518	3.413236	-0.005552	0.007431	-0.004934	-0.676758	0.246338	0.032959	-68.283301	20.732059	132.490968
05455		-3.482832	-8.540981	3.403288	0.002694	0.007421	-0.007627	-0.681641	0.246582	0.031250	-68.282234	20.731279	132.490219
05456		-3.479085	-8.514745	3.425156	0.000213	0.005632	-0.005450	-0.675293	0.241455	0.038330	-68.282087	20.731324	132.490541
05457		-3.491736	-8.544106	3.380730	0.001676	0.007166	-0.006014	-0.687744	0.249512	0.036621	-68.281427	20.731328	132.490082
05458		-3.478481	-8.515105	3.424874	-0.000235	0.004355	-0.006498	-0.677979	0.246094	0.028564	-68.281363	20.730544	132.490894
05459		-3.487584	-8.518134	3.402354	-0.001698	0.002822	-0.005933	-0.683350	0.252197	0.036865	-68.281733	20.729801	132.492343
05460		-3.481165	-8.541918	3.402643	0.003527	0.004690	-0.004368	-0.675537	0.249023	0.027588	-68.279411	20.730221	132.493447
05461		-3.496405	-8.521223	3.379972	-0.000682	0.003078	-0.007545	-0.687012	0.244629	0.038086	-68.279344	20.728842	132.494719
05462		-3.476981	-8.515925	3.424358	-0.002715	0.002566	-0.004321	-0.678223	0.246094	0.037354	-68.280166	20.728837	132.497043
05463		-3.486259	-8.518869	3.401871	0.002092	0.005801	-0.004384	-0.681152	0.249512	0.029297	-68.278865	20.729370	132.498418
05464		-3.476529	-8.516234	3.424049	-0.001252	0.004100	-0.004884	-0.675537	0.246338	0.036621	-68.279203	20.729390	132.499742
05465		-3.501286	-8.548302	3.411760	0.000211	0.005634	-0.005448	-0.675049	0.247070	0.036865	-68.278992	20.729563	132.500051
05466		-3.479502	-8.542993	3.401644	-0.000360	0.006655	-0.002787	-0.680664	0.255615	0.035156	-68.279165	20.731242	132.500395
05467		-3.475977	-8.516707	3.423432	0.001674	0.007168	-0.006011	-0.677734	0.245361	0.042480	-68.278440	20.731534	132.500891
05468		-3.491333	-8.546019	3.433291	-0.005138	0.006064	-0.003304	-0.680664	0.246094	0.038086	-68.281273	20.732813	132.501455
05469		-3.506658	-8.525499	3.410104	-0.003580	0.002655	-0.006997	-0.671875	0.247803	0.033936	-68.282785	20.731306	132.504939
05470		-3.494106	-8.523058	3.377723	0.003107	0.006059	-0.005993	-0.674561	0.249023	0.031738	-68.281108	20.731152	132.504897
05471		-3.484257	-8.520428	3.400018	0.001226	0.005891	-0.007058	-0.670166	0.244873	0.034912	-68.280477	20.730611	132.504878
05472		-3.487226	-8.547050	3.377943	0.001226	0.005892	-0.007057	-0.679932	0.244141	0.030029	-68.279930	20.729855	132.504689
05473		-3.495738	-8.523477	3.431980	0.000655	0.006913	-0.004397	-0.679443	0.251465	0.036133	-68.279660	20.730768	132.504153
05474		-3.483297	-8.520943	3.399712	0.002660	0.004782	-0.007041	-0.675049	0.244873	0.033936	-68.278066	20.729786	132.504600
05475		-3.473387	-8.518349	3.421977	-0.000237	0.004357	-0.006494	-0.680908	0.246094	0.031006	-68.277936	20.729117	132.506001
05476		-3.473116	-8.518531	3.421799	0.000654	0.006913	-0.004396	-0.680176	0.244873	0.039307	-68.277709	20.729995	132.505835
05477		-3.497800	-8.550636	3.409487	-0.000655	0.005725	-0.008121	-0.679199	0.249756	0.034668	-68.278258	20.728594	132.505716
05478		-3.497397	-8.550841	3.409385	0.003105	0.006061	-0.005991	-0.669922	0.253906	0.035889	-68.276583	20.728442	132.505673
05479		-3.491098	-8.524686	3.376725	0.000235	0.008281	-0.006023	-0.682617	0.239746	0.036133	-68.276894	20.729037	132.505451
05480		-3.490631	-8.524902	3.376663	0.003231	0.003762	-0.009698	-0.673096	0.247559	0.032471	-68.274981	20.726424	132.505876
05481		-3.492897	-8.524969	3.431167	0.000652	0.006914	-0.004395	-0.680664	0.240723	0.039795	-68.274730	20.727234	132.505623
05482		-3.470916	-8.519687	3.421152	0.000779	0.004616	-0.008103	-0.677246	0.249023	0.030518	-68.274266	20.725652	132.505924
05483		-3.470432	-8.519891	3.421135	0.002659	0.004784	-0.007037	-0.675537	0.240967	0.031738	-68.272641	20.724627	132.506593
05484		-3.488980	-8.525717	3.376312	-0.003136	0.003933	-0.005947	-0.684082	0.244141	0.030029	-68.274109	20.724047	132.507771
05485		-3.479314	-8.523117	3.398340	0.001096	0.008193	-0.003346	-0.680908	0.236572	0.035645	-68.273789	20.725676	132.505864
05486		-3.491108	-8.526014	3.430392	0.001376	0.006241	-0.011339	-0.680176	0.244385	0.039795	-68.273570	20.722716	132.504506
05487		-3.469062	-8.520736	3.420421	0.001069	0.005548	-0.002767	-0.671631	0.245850	0.031006	-68.272710	20.723894	132.505997
05488		-3.499981	-8.529104	3.407947	0.001615	0.001882	-0.004847	-0.677002	0.249268	0.040527	-68.270955	20.723463	132.508591
05489		-3.471699	-8.547465	3.398381	0.000359	0.005984	-0.009728	-0.678467	0.240234	0.035156	-68.271064	20.721436	132.508601
05490		-3.489663	-8.526780	3.429959	-0.000786	0.008026	-0.004410	-0.680420	0.252197	0.040283	-68.271887	20.722542	132.507799
05491		-3.467893	-8.521463	3.419792	-0.000812	0.005380	-0.003831	-0.679199	0.255615	0.038086	-68.272100	20.723368	132.509681
05492		-3.477073	-8.524392	3.397436	0.005580	0.007858	-0.008157	-0.680908	0.242676	0.033447	-68.269543	20.722444	132.508125
05493		-3.491955	-8.553716	3.407752	0.001349	0.003597	-0.010758	-0.675537	0.249756	0.038330	-68.268691	20.719346	132.509121
05494		-3.469889	-8.548389	3.397906	0.003989	0.008622	-0.003887	-0.678711	0.252686	0.028809	-68.266856	20.720857	132.508099
05495		-3.494223	-8.503867	3.429460	0.004562	0.007602	-0.006545	-0.681641	0.244385	0.035645	-68.264603	20.721009	132.507446
05496		-3.518697	-8.535934	3.417471	0.004714	0.007949	-0.010830	-0.674072	0.244873	0.034424	-68.262774	20.718682	132.505231
05497		-3.465438	-8.522357	3.420055	0.001245	0.008543	-0.007627	-0.678955	0.242920	0.037109	-68.262759	20.718157	132.503588
05498		-3.496100	-8.530872	3.407506	0.003697	0.007692	-0.009219	-0.678223	0.239502	0.035400	-68.261332	20.716632	132.501885
05499		-3.480178	-8.501934	3.397284	0.004165	0.011617	-0.008747	-0.675781	0.241211	0.030518	-68.260384	20.715999	132.498257
05500		-3.495140	-8.531234	3.407586	0.004688	0.005305	-0.010249	-0.677734	0.242188	0.033691	-68.257991	20.713420	132.497678
05501		-3.503851	-8.534255	3.385493	0.007189	0.009747	-0.012995	-0.678955	0.253906	0.039795	-68.255262	20.710246	132.493086
05502		-3.474951	-8.552604	3.376535	0.011206	0.005489	-0.018274	-0.676758	0.248779	0.035889	-68.249816	20.703435	132.490581
05503		-3.461170	-8.523541	3.421426	0.010105	0.012823	-0.014112	-0.674316	0.245117	0.027588	-68.246044	20.700609	132.486539
05504		-3.500740	-8.534882	3.387130	0.013153	0.013601	-0.018936	-0.674805	0.246582	0.031982	-68.241166	20.695170	132.479269
05505		-3.493381	-8.558689	3.388240	0.014587	0.012494	-0.018915	-0.682129	0.240234	0.028809	-68.235179	20.689673	132.471622
05506		-3.467294	-8.526888	3.401163	0.014585	0.012496	-0.018912	-0.669922	0.248047	0.036133	-68.229256	20.684012	132.464985
05507		-3.487837	-8.532595	3.411658	0.010671	0.011808	-0.016761	-0.677979	0.246094	0.031250	-68.225221	20.679388	132.458871
05508		-3.465248	-8.527264	3.402306	0.012592	0.017274	-0.016847	-0.671631	0.236572	0.032471	-68.221233	20.675843	132.449985
05509		-3.482763	-8.506537	3.434492	0.009231	0.012919	-0.016775	-0.677002	0.252686	0.031250	-68.218266	20.671365	132.442917
05510		-3.453905	-8.524847	3.425512	0.012124	0.013352	-0.017313	-0.682373	0.252441	0.027100	-68.213795	20.666740	132.436155
05511		-3.490312	-8.509798	3.413043	0.010111	0.015481	-0.014674	-0.683594	0.244141	0.035889	-68.210581	20.664364	132.428247
05512		-3.480179	-8.507117	3.435673	0.008652	0.013943	-0.014114	-0.677734	0.241699	0.028809	-68.207961	20.661567	132.421876
05513		-3.451733	-8.525389	3.426352	0.005181	0.014533	-0.010918	-0.677002	0.246582	0.029541	-68.207169	20.660527	132.415417
05514		-3.441897	-8.522721	3.448640	0.005180	0.014534	-0.010917	-0.680176	0.247070	0.027344	-68.206400	20.659557	132.409437
05515		-3.472363	-8.531435	3.435935	0.002438	0.014450	-0.014658	-0.675537	0.246582	0.034424	-68.207418	20.656764	132.401545
05516		-3.490338	-8.510826	3.467387	0.002724	0.015384	-0.009328	-0.682373	0.243652	0.019287	-68.208098	20.656820	132.395443
05517		-3.443576	-8.550022	3.426150	0.005138	0.009242	-0.009759	-0.677734	0.239502	0.029541	-68.206145	20.655477	132.391055
05518		-3.499039	-8.514109	3.444725	0.000268	0.016232	-0.007740	-0.679688	0.248535	0.031982	-68.208276	20.656558	132.384831
05519		-3.458685	-8.529793	3.402645	-0.001649	0.010765	-0.007654	-0.669678	0.243408	0.035400	-68.210358	20.656553	132.381176
05520		-3.448954	-8.527233	3.424561	0.000823	0.012566	-0.009815	-0.678955	0.238037	0.029297	-68.211601	20.655749	132.376565
05521		-3.479568	-8.535958	3.411690	0.000804	0.009919	-0.009238	-0.672852	0.238281	0.032959	-68.212251	20.654621	132.373485
05522		-3.469825	-8.533373	3.433686	-0.000194	0.012307	-0.008208	-0.681641	0.241455	0.031982	-68.213896	20.654618	132.369387
05523		-3.466423	-8.507242	3.455027	-0.004545	0.010333	-0.007115	-0.676758	0.242432	0.032959	-68.217539	20.654632	132.366382
05524		-3.438464	-8.525505	3.445181	0.001510	0.009485	-0.002283	-0.679688	0.238770	0.035645	-68.217168	20.657181	132.365234
05525		-3.459988	-8.531242	3.454659	-0.000636	0.011028	-0.009255	-0.673584	0.252686	0.030762	-68.218877	20.656193	132.361920
05526		-3.456932	-8.531725	3.399581	-0.001772	0.015716	-0.004522	-0.675537	0.237549	0.024414	-68.221815	20.658875	132.356720
05527		-3.469141	-8.534676	3.431137	-0.003126	0.006579	-0.006518	-0.685059	0.246582	0.033203	-68.223784	20.658748	132.355198
05528		-3.453590	-8.505777	3.420422	-0.001808	0.010420	-0.003370	-0.676758	0.245605	0.022461	-68.225589	20.660917	132.353271
05529		-3.506303	-8.520002	3.417034	-0.003687	0.010247	-0.004439	-0.674561	0.246338	0.027344	-68.228460	20.662619	132.349968
05530		-3.453385	-8.556121	3.452273	-0.000793	0.010682	-0.004973	-0.684082	0.245605	0.024414	-68.229863	20.663990	132.347527
05531		-3.490748	-8.491377	3.405639	-0.005565	0.010075	-0.005507	-0.689697	0.247803	0.034912	-68.233857	20.665133	132.343615
05532		-3.447099	-8.530386	3.418571	0.000628	0.006927	-0.004378	-0.674561	0.235107	0.029053	-68.233645	20.666023	132.343445
05533		-3.505891	-8.521011	3.414940	-0.002672	0.010510	-0.006041	-0.681396	0.242676	0.026123	-68.236163	20.666645	132.340435
05534		-3.468466	-8.536466	3.427365	-0.002672	0.010510	-0.006041	-0.676270	0.241943	0.035645	-68.238695	20.667412	132.337850
05535		-3.474676	-8.513110	3.426386	-0.001812	0.010423	-0.003366	-0.669922	0.248535	0.029541	-68.240468	20.669542	132.335483
05536		-3.474728	-8.513264	3.425950	-0.000373	0.009316	-0.003346	-0.679199	0.251953	0.034668	-68.241227	20.671488	132.334188
05537		-3.468457	-8.537055	3.425907	-0.003706	0.007601	-0.003861	-0.679688	0.244629	0.026123	-68.243475	20.673122	132.334643
05538		-3.456124	-8.534583	3.393223	-0.001813	0.010424	-0.003365	-0.682129	0.242432	0.031494	-68.245283	20.675294	132.332713
05539		-3.452955	-8.508329	3.414709	-0.002706	0.005213	-0.004891	-0.681641	0.241211	0.041260	-68.246641	20.675554	132.332334
05540		-3.474611	-8.514095	3.424003	-0.001376	0.011705	-0.002314	-0.687500	0.244629	0.028320	-68.248372	20.678556	132.329914
05541		-3.468363	-8.537864	3.423985	0.000220	0.010947	-0.006571	-0.685547	0.249512	0.031738	-68.249358	20.678967	132.327369
05542		-3.462239	-8.511783	3.390945	-0.001799	0.013074	-0.003937	-0.682129	0.247070	0.035889	-68.251737	20.681397	132.323802
05543		-3.474525	-8.514694	3.422601	-0.001251	0.006756	-0.005443	-0.671387	0.246338	0.029053	-68.252583	20.681766	132.324124
05544		-3.462243	-8.512175	3.389956	-0.002380	0.014094	-0.001282	-0.678223	0.250244	0.031494	-68.255287	20.685825	132.320579
05545		-3.478065	-8.541365	3.399667	0.003846	0.016246	-0.001297	-0.676270	0.243652	0.037842	-68.254759	20.690594	132.315988
05546		-3.432323	-8.503642	3.401690	0.000822	0.020762	0.002368	-0.674072	0.242920	0.029053	-68.256677	20.698011	132.309478
05547		-3.430399	-8.553453	3.379514	0.001974	0.024256	0.009798	-0.678223	0.239014	0.031006	-68.257992	20.710115	132.303352
05548		-3.423219	-8.500147	3.368271	0.005611	0.032207	0.014503	-0.687744	0.241699	0.030762	-68.258499	20.726419	132.293081
05549		-3.413655	-8.469930	3.411962	0.008662	0.041180	0.021867	-0.677734	0.238770	0.031006	-68.258478	20.748339	132.278649
05550		-3.358717	-8.451697	3.490786	0.001393	0.044311	0.036229	-0.677734	0.246094	0.031006	-68.262104	20.778774	132.266416
05551		-3.435209	-8.419995	3.408758	0.009653	0.057833	0.044630	-0.676514	0.241699	0.018066	-68.263029	20.816475	132.248301
05552		-3.360985	-8.521898	3.466913	0.000922	0.062089	0.058987	-0.677734	0.240967	0.026367	-68.268708	20.862793	132.231102
05553		-3.464762	-8.571675	3.403763	-0.013769	0.083117	0.065085	-0.678955	0.245850	0.032227	-68.286578	20.916800	132.200756
05554		-3.442957	-8.561737	3.411142	-0.033805	0.109893	0.072176	-0.668457	0.245605	0.023682	-68.320874	20.980255	132.159252
05555		-3.475296	-8.642910	3.368557	-0.073163	0.128647	0.082526	-0.678711	0.245361	0.031006	-68.380728	21.053215	132.109277
05556		-3.540319	-8.503688	3.440055	-0.101402	0.150546	0.089202	-0.674561	0.243896	0.023193	-68.460888	21.134229	132.048223
05557		-3.473422	-8.482421	3.495169	-0.134940	0.165317	0.095457	-0.678955	0.239502	0.033447	-68.562920	21.221503	131.979658
05558		-3.561511	-8.682455	3.318353	-0.163159	0.182382	0.099113	-0.668457	0.248047	0.029053	-68.684581	21.314250	131.902218
05559		-3.518350	-8.618371	3.343745	-0.197201	0.201916	0.112979	-0.674805	0.253174	0.026855	-68.828905	21.418068	131.817707
05560		-3.600338	-8.587544	3.313635	-0.229777	0.212803	0.124347	-0.666260	0.253662	0.030273	-68.993568	21.530213	131.727774
05561		-3.649201	-8.522686	3.316741	-0.243892	0.208257	0.130621	-0.666260	0.252441	0.030029	-69.165070	21.644710	131.643192
05562		-3.671899	-8.527897	3.211758	-0.237924	0.197718	0.129529	-0.668945	0.256592	0.030762	-69.331410	21.756075	131.562241
05563		-3.719941	-8.538337	3.171726	-0.220900	0.187142	0.129527	-0.675049	0.253418	0.034668	-69.485919	21.865226	131.489738
05564		-3.666135	-8.522335	3.196228	-0.206099	0.177751	0.126766	-0.666016	0.245850	0.032715	-69.630507	21.970704	131.418975
05565		-3.755656	-8.567913	3.100570	-0.196066	0.165094	0.123908	-0.668457	0.255371	0.033691	-69.767031	22.071704	131.357800
05566		-3.709620	-8.553710	3.105619	-0.178884	0.157035	0.123214	-0.655273	0.258057	0.031982	-69.892257	22.170866	131.297667
05567		-3.752578	-8.536301	3.094016	-0.171701	0.143903	0.120761	-0.664795	0.255859	0.036865	-70.010772	22.266098	131.247992
05568		-3.742396	-8.581023	3.042901	-0.160944	0.135985	0.123710	-0.657715	0.257324	0.039551	-70.121412	22.361186	131.199696
05569		-3.776312	-8.560682	3.056012	-0.157511	0.125718	0.128175	-0.661621	0.260010	0.038086	-70.227530	22.456559	131.161517
05570		-3.850457	-8.599838	2.934110	-0.138559	0.111403	0.124062	-0.658936	0.257080	0.030518	-70.320138	22.546920	131.127207
05571		-3.822916	-8.613680	2.879028	-0.108849	0.088525	0.126871	-0.656250	0.257568	0.036133	-70.390420	22.634384	131.106715
05572		-3.826277	-8.559461	2.990629	-0.081777	0.065584	0.125830	-0.654541	0.260010	0.039551	-70.440224	22.716821	131.099294
05573		-3.882582	-8.492498	3.045187	-0.069229	0.063881	0.117371	-0.656738	0.264648	0.036621	-70.483124	22.794399	131.091055
05574		-3.844218	-8.503218	3.019502	-0.065227	0.048898	0.114042	-0.652832	0.260986	0.039307	-70.520675	22.867267	131.090823
05575		-3.803740	-8.464375	3.094483	-0.063818	0.049085	0.098476	-0.651611	0.263672	0.034668	-70.558688	22.931805	131.087223
05576		-3.807671	-8.411545	3.132159	-0.080306	0.057830	0.098013	-0.654053	0.264648	0.033936	-70.608263	22.997713	131.078320
05577		-3.864849	-8.446864	3.116995	-0.096249	0.067368	0.088942	-0.650879	0.272217	0.031494	-70.669881	23.060564	131.061891
05578		-3.872379	-8.470561	3.028806	-0.100062	0.067186	0.086837	-0.654785	0.265625	0.033936	-70.733913	23.122182	131.045031
05579		-3.927088	-8.504839	2.881452	-0.086825	0.061721	0.076109	-0.656982	0.270264	0.044922	-70.789953	23.176994	131.029129
05580		-3.965474	-8.511035	2.859316	-0.052306	0.047972	0.066440	-0.651367	0.266846	0.044922	-70.823897	23.223928	131.019264
05581		-3.940422	-8.528300	2.922688	-0.024605	0.030022	0.050122	-0.650391	0.261963	0.034424	-70.839080	23.258696	131.016628
05582		-3.925464	-8.497788	2.988527	-0.015070	0.025640	0.052291	-0.655029	0.260498	0.026123	-70.847661	23.293768	131.016986
05583		-3.882625	-8.460437	2.992102	-0.014000	0.014682	0.042911	-0.650146	0.255859	0.032471	-70.853783	23.321751	131.021900
05584		-3.911758	-8.490024	2.975987	-0.014087	0.016485	0.037000	-0.655518	0.266846	0.040283	-70.860906	23.346826	131.024517
05585		-3.928750	-8.492527	3.005795	-0.011681	0.014700	0.029955	-0.647461	0.266602	0.043945	-70.866751	23.367798	131.026808
05586		-3.933830	-8.442524	3.027403	-0.012135	0.017909	0.022439	-0.642822	0.266846	0.035400	-70.874271	23.385258	131.025602
05587		-3.933654	-8.465989	2.948576	-0.006480	0.016874	0.010557	-0.652344	0.273682	0.030762	-70.879219	23.396142	131.022599
05588		-3.937663	-8.491193	2.925237	0.012043	0.010390	0.001915	-0.654541	0.265381	0.037842	-70.872793	23.401081	131.021627
05589		-3.920632	-8.487189	2.972392	0.030565	0.003907	-0.006724	-0.646729	0.267822	0.037598	-70.854882	23.400177	131.022735
05590		-3.930751	-8.438957	2.975637	0.037748	-0.000083	-0.012693	-0.643311	0.268799	0.045166	-70.832462	23.395240	131.024950
05591		-3.904748	-8.482539	2.947315	0.043389	-0.008276	-0.017665	-0.646973	0.255859	0.048584	-70.805243	23.386123	131.030999
05592		-3.924933	-8.487128	2.960349	0.050607	-0.009579	-0.024114	-0.656250	0.267334	0.039063	-70.774168	23.373215	131.036461
05593		-3.892519	-8.554550	2.933088	0.053542	-0.009203	-0.024610	-0.650146	0.269043	0.038086	-70.741489	23.360159	131.041614
05594		-3.943142	-8.540460	2.879521	0.073564	-0.018611	-0.027295	-0.651367	0.263428	0.041016	-70.695421	23.343816	131.051722
05595		-3.968402	-8.595432	2.850742	0.098668	-0.034283	-0.026773	-0.645508	0.265137	0.039063	-70.631230	23.324826	131.071169
05596		-3.933408	-8.511080	2.922579	0.133895	-0.058009	-0.026251	-0.650146	0.264648	0.034180	-70.541359	23.301523	131.104632
05597		-3.912346	-8.504072	2.982868	0.152415	-0.070646	-0.022396	-0.649414	0.263672	0.035400	-70.437603	23.277886	131.146300
05598		-3.854582	-8.513198	3.058750	0.165309	-0.076483	-0.028728	-0.645996	0.279297	0.030273	-70.325719	23.249582	131.189994
05599		-3.847083	-8.483321	3.098524	0.166155	-0.072934	-0.020965	-0.659668	0.263184	0.037354	-70.213523	23.226127	131.233191
05600		-3.843425	-8.478919	3.115068	0.155136	-0.078913	-0.009667	-0.644775	0.261963	0.028809	-70.105402	23.207468	131.282208
05601		-3.868798	-8.530854	3.095354	0.156232	-0.110261	0.007419	-0.656494	0.259033	0.033936	-69.987965	23.191846	131.353202
05602		-3.933596	-8.515513	3.086630	0.161416	-0.172587	0.041084	-0.650635	0.270996	0.032715	-69.850440	23.181881	131.467822
05603		-3.918179	-8.605570	3.086949	0.173498	-0.252686	0.061901	-0.655518	0.257080	0.029297	-69.685780	23.167012	131.633752
05604		-3.764119	-8.511334	3.334221	0.157227	-0.302120	0.088352	-0.650391	0.258789	0.030518	-69.516936	23.155978	131.834216
05605		-3.687343	-8.384991	3.603332	0.064385	-0.283994	0.111896	-0.653076	0.258545	0.032471	-69.403394	23.160816	132.029231
05606		-3.688822	-8.481153	3.491989	-0.048805	-0.248456	0.133735	-0.652832	0.260498	0.038086	-69.360973	23.184242	132.208321
05607		-3.808370	-8.631213	3.263296	-0.126751	-0.218728	0.147226	-0.644531	0.268555	0.034424	-69.368708	23.220899	132.373108
05608		-3.703921	-8.680114	3.111758	-0.184327	-0.179265	0.185382	-0.642090	0.264893	0.042236	-69.415132	23.286004	132.523251
05609		-3.714709	-8.603411	3.144807	-0.228390	-0.130496	0.225426	-0.644043	0.266357	0.037354	-69.494353	23.382592	132.653711
05610		-3.826749	-8.597506	3.033756	-0.249831	-0.074272	0.252149	-0.648438	0.271240	0.035645	-69.596484	23.504932	132.757016
05611		-3.810895	-8.612180	3.028101	-0.237722	-0.036796	0.263153	-0.639648	0.274170	0.046387	-69.699288	23.640854	132.840627
05612		-3.870149	-8.567076	3.072691	-0.232686	-0.002369	0.287253	-0.641357	0.271484	0.043213	-69.805172	23.796663	132.909050
05613		-3.879331	-8.460357	3.144149	-0.221186	0.025819	0.298860	-0.645752	0.273193	0.043701	-69.910028	23.964421	132.963202
05614		-3.762598	-8.525072	3.177011	-0.194361	0.068699	0.326414	-0.635742	0.277832	0.050781	-70.007405	24.155488	132.997719
05615		-3.839760	-8.428937	3.222309	-0.183687	0.119901	0.343859	-0.637207	0.281250	0.045410	-70.109520	24.366034	133.005443
05616		-3.878173	-8.470835	3.100103	-0.203785	0.163574	0.353870	-0.639160	0.280762	0.055420	-70.233194	24.590454	132.988971
05617		-3.904643	-8.511239	3.074544	-0.210044	0.206429	0.359085	-0.631348	0.283691	0.048584	-70.370876	24.825946	132.947599
05618		-3.875589	-8.613829	3.027931	-0.195655	0.251282	0.382007	-0.625244	0.284668	0.047852	-70.510057	25.082309	132.883625
05619		-3.989679	-8.494912	3.075578	-0.184036	0.302181	0.410275	-0.620117	0.280762	0.052490	-70.653570	25.363507	132.794389
05620		-4.105573	-8.371601	2.990722	-0.180467	0.330422	0.418654	-0.624512	0.289795	0.043701	-70.802466	25.654362	132.688951
05621		-4.195664	-8.561020	2.752787	-0.169751	0.353713	0.432619	-0.616943	0.288818	0.051758	-70.950960	25.956904	132.571347
05622		-4.110249	-8.332441	3.029930	-0.151736	0.368759	0.442703	-0.624023	0.285645	0.048096	-71.093347	26.267440	132.445567
05623		-4.107732	-8.215161	3.184425	-0.195516	0.406443	0.475132	-0.612305	0.299316	0.054688	-71.269157	26.602211	132.302373
05624		-4.217884	-8.209024	3.066335	-0.232178	0.445599	0.500843	-0.609131	0.293701	0.048584	-71.475919	26.957680	132.138923
05625		-4.247256	-8.095293	3.142650	-0.276696	0.497547	0.511833	-0.604492	0.292969	0.043701	-71.723461	27.327930	131.943895
05626		-4.357319	-7.993396	3.137779	-0.336994	0.553358	0.516737	-0.596680	0.299805	0.045166	-72.023366	27.709973	131.712895
05627		-4.504241	-8.089303	2.936117	-0.389587	0.576190	0.517576	-0.593994	0.301270	0.041016	-72.362712	28.095315	131.464790
05628		-4.595538	-8.178852	2.812748	-0.409429	0.591430	0.510193	-0.584473	0.303955	0.045898	-72.721830	28.477909	131.202188
05629		-4.736204	-8.314343	2.445673	-0.424861	0.578056	0.519525	-0.584961	0.305420	0.048584	-73.088151	28.861878	130.946065
05630		-4.858113	-8.451798	2.277866	-0.408676	0.544011	0.525153	-0.576660	0.318848	0.048584	-73.437689	29.241916	130.708642
05631		-4.846154	-8.545226	2.143389	-0.392534	0.521595	0.552065	-0.576416	0.315430	0.048340	-73.771585	29.631866	130.486918
05632		-4.794459	-8.376233	2.333347	-0.368420	0.513130	0.574270	-0.577148	0.315674	0.046143	-74.090098	30.031604	130.271151
05633		-4.916155	-8.362056	2.246345	-0.361694	0.505193	0.596356	-0.569580	0.318848	0.054199	-74.403165	30.441235	130.061043
05634		-4.969712	-8.297097	2.317816	-0.360929	0.492359	0.608434	-0.557129	0.322021	0.046631	-74.713661	30.854598	129.857793
05635		-5.015910	-8.271006	2.233383	-0.356216	0.480759	0.624093	-0.552246	0.324951	0.045166	-75.019157	31.273924	129.661338
05636		-5.055374	-8.272877	2.249242	-0.331456	0.484125	0.646473	-0.553711	0.331055	0.054199	-75.312735	31.705270	129.463044
05637		-5.182431	-8.239515	1.987402	-0.338251	0.446387	0.665600	-0.547607	0.337646	0.056641	-75.598491	32.140914	129.289204
05638		-5.285588	-8.301161	1.767819	-0.313257	0.413425	0.683325	-0.543945	0.326904	0.049316	-75.859719	32.581054	129.136650
05639		-5.409324	-8.355629	1.482803	-0.251198	0.358870	0.706034	-0.536621	0.335938	0.053955	-76.066289	33.025685	129.021083
05640		-5.583752	-8.319540	1.326994	-0.160510	0.284327	0.721445	-0.533691	0.337158	0.057129	-76.194329	33.468386	128.955446
05641		-5.562607	-8.259183	1.433062	-0.073419	0.209306	0.734172	-0.518066	0.328857	0.054443	-76.244492	33.907822	128.940939
05642		-5.481056	-8.100768	1.613648	-0.001222	0.174420	0.748083	-0.518799	0.340576	0.056641	-76.239153	34.350264	128.951861
05643		-5.409954	-7.863801	2.060307	0.021225	0.185397	0.762931	-0.517090	0.348145	0.058594	-76.223568	34.802440	128.958002
05644		-5.456473	-7.759841	2.226324	-0.000202	0.216834	0.780185	-0.500244	0.341309	0.051270	-76.230833	35.268529	128.945703
05645		-5.517142	-7.735421	2.134605	-0.021158	0.230835	0.798560	-0.505615	0.339111	0.051025	-76.254043	35.746722	128.926713
05646		-5.507566	-7.606297	2.330402	-0.051940	0.273818	0.817726	-0.491943	0.355225	0.054688	-76.310867	36.241439	128.880812
05647		-5.625098	-7.474315	2.427510	-0.107945	0.324790	0.829243	-0.485596	0.357178	0.048340	-76.420597	36.749366	128.800389
05648		-5.783994	-7.583366	2.132449	-0.160539	0.354487	0.839522	-0.478027	0.348877	0.054688	-76.573737	37.266875	128.698934
05649		-5.897180	-7.623048	1.925415	-0.195456	0.369110	0.853031	-0.479492	0.353271	0.057129	-76.754018	37.793574	128.586895
05650		-5.827880	-7.621976	1.848774	-0.206493	0.379118	0.872603	-0.470215	0.357666	0.053955	-76.945738	38.332243	128.467973
05651		-6.003405	-7.637564	1.703803	-0.208831	0.392859	0.903990	-0.465332	0.364746	0.050537	-77.144544	38.889839	128.341194
05652		-5.969172	-7.599803	1.812137	-0.214141	0.401502	0.938906	-0.451416	0.366455	0.057129	-77.350037	39.467728	128.210271
05653		-6.047047	-7.433101	1.880665	-0.231674	0.434547	0.974959	-0.444092	0.364746	0.056641	-77.580725	40.069453	128.057217
05654		-6.094183	-7.382235	1.877067	-0.257205	0.464617	1.008827	-0.434570	0.365479	0.054688	-77.841275	40.693342	127.882660
05655		-6.184189	-7.282152	1.908304	-0.291718	0.495866	1.047169	-0.431641	0.374023	0.053711	-78.137965	41.341736	127.685323
05656		-6.266242	-7.149381	1.860520	-0.332268	0.530191	1.067405	-0.427734	0.378906	0.057129	-78.479274	42.004685	127.458455
05657		-6.292679	-7.121767	1.859289	-0.371574	0.571928	1.105770	-0.408691	0.371826	0.056641	-78.867893	42.692730	127.197650
05658		-6.368152	-7.104633	1.760157	-0.416560	0.611066	1.145835	-0.404785	0.377197	0.068115	-79.307920	43.406210	126.902818
05659		-6.343218	-7.312722	1.630750	-0.461291	0.659663	1.203707	-0.391846	0.385986	0.057129	-79.804722	44.155492	126.566830
05660		-6.358509	-7.422969	1.562074	-0.500155	0.699095	1.309655	-0.384033	0.386963	0.072998	-80.348655	44.966298	126.200181
05661		-6.467187	-7.486839	1.432371	-0.520245	0.751610	1.413045	-0.375732	0.381592	0.063477	-80.940092	45.837731	125.788233
05662		-6.540157	-7.518350	1.266526	-0.549734	0.786232	1.550678	-0.360596	0.393066	0.073486	-81.575790	46.787061	125.344852
05663		-6.607737	-7.521758	1.319571	-0.582958	0.837262	1.693140	-0.344238	0.391602	0.076172	-82.272546	47.817577	124.851337
05664		-6.690352	-7.314537	1.349197	-0.617293	0.885179	1.851378	-0.324219	0.390869	0.080078	-83.035432	48.937291	124.304097
05665		-6.808182	-7.389739	1.177840	-0.650109	0.941580	2.000799	-0.312500	0.395752	0.083740	-83.878590	50.140398	123.685549
05666		-7.099738	-7.432360	0.921607	-0.668024	0.972984	2.156705	-0.289307	0.404297	0.096436	-84.787095	51.428043	123.007137
05667		-7.395290	-7.346423	0.924846	-0.694606	1.006850	2.337665	-0.277100	0.395020	0.090088	-85.777641	52.813158	122.256489
05668		-7.763055	-7.251338	1.070070	-0.765707	1.054065	2.520566	-0.254150	0.406494	0.104492	-86.902820	54.296021	121.403352
05669		-8.199523	-7.481644	1.080177	-0.826679	1.125492	2.682932	-0.240967	0.408936	0.111084	-88.199940	55.862338	120.399201
05670		-8.619380	-7.208642	1.218288	-0.931404	1.186462	2.834423	-0.208008	0.403809	0.116943	-89.717517	57.501712	119.222035
05671		-9.685932	-7.561379	1.087740	-1.006252	1.233979	2.982412	-0.186035	0.406494	0.118408	-91.464035	59.206301	117.847923
05672		-10.152156	-7.594537	1.239905	-1.059875	1.298426	3.088692	-0.166748	0.398438	0.122314	-93.489965	60.945765	116.211423
05673		-10.016116	-8.284505	1.068623	-1.087470	1.363751	3.258782	-0.133301	0.407959	0.140137	-95.846069	62.746642	114.246168
05674		-10.520032	-8.838187	1.006699	-0.972688	1.398728	3.452942	-0.109131	0.394043	0.139160	-98.504691	64.613481	111.902366
05675		-11.255518	-9.887441	0.573363	-0.739211	1.411649	3.625632	-0.086426	0.391602	0.154053	-101.468173	66.523117	109.113108
05676		-11.378594	-10.733459	0.809590	-0.340553	1.426624	3.832185	-0.050537	0.383789	0.155273	-104.783687	68.480599	105.736426
05677		-11.320700	-10.898864	1.922126	-0.006235	1.513585	4.030179	-0.022949	0.377197	0.158936	-108.777006	70.446063	101.476716
05678		-11.280537	-11.744730	2.430223	0.319579	1.612091	4.238767	0.015381	0.371826	0.155029	-113.770338	72.380522	96.016687
05679		-11.851919	-11.452608	2.207548	0.703965	1.724250	4.465692	0.046631	0.353760	0.162598	-120.167014	74.220389	88.918720
05680		-11.312254	-12.986155	1.464547	0.993930	1.841856	4.463234	0.090332	0.345459	0.148926	-128.215974	75.751811	79.997652
05681		-9.502657	-10.436898	1.126576	1.160279	1.922273	4.432406	0.114746	0.318848	0.149170	-137.984486	76.862797	69.261125
05682		-8.328454	-10.012373	0.898927	1.356710	1.979244	4.437067	0.148438	0.305420	0.151123	-149.167598	77.467943	56.996598
05683		-6.378993	-11.660228	1.904279	1.567644	2.059343	4.184400	0.184326	0.293701	0.147705	-160.293869	77.428808	44.679592
05684		-4.534443	-9.595492	2.436735	1.735439	2.102198	3.503186	0.197510	0.270020	0.145996	-169.172295	76.797182	34.553140
05685		-2.645268	-6.547424	3.336100	1.749775	2.148228	2.957007	0.218018	0.256592	0.149658	-175.733405	75.801849	26.768554
05686		-12.355762	-7.112829	5.779884	1.538654	1.812356	2.631806	0.233643	0.243896	0.144775	179.263047	74.812616	20.685077
05687		-18.585634	-15.118649	10.044069	1.421427	0.839609	0.957948	0.247803	0.234375	0.139160	178.123200	74.323676	18.657420
05688		-12.340294	-10.716954	8.919196	1.033310	-0.035151	-0.811575	0.251221	0.229248	0.132813	-179.639154	74.353419	20.366552
05689		-9.443467	-8.444650	7.445453	0.289156	-0.670852	-2.288268	0.245605	0.250000	0.124023	-174.679704	74.677763	25.340185
05690		-7.478445	-8.833945	5.663866	-0.265320	-0.983522	-3.347281	0.218506	0.262451	0.128174	-167.536340	74.942582	32.899006
05691		-5.789987	-9.665839	4.111941	-0.358880	-1.102080	-4.068559	0.198486	0.282227	0.126465	-158.776071	74.876616	42.183180
05692		-4.499904	-9.584430	2.779652	-0.066068	-1.185517	-4.544743	0.173340	0.287598	0.122070	-149.220304	74.348177	52.131725
05693		-3.261727	-8.771157	1.453710	0.462127	-1.282059	-4.792949	0.150635	0.319092	0.113770	-139.741862	73.352023	61.720984
05694		-1.862804	-7.421380	0.537257	1.091316	-1.327865	-4.761981	0.115479	0.348633	0.097656	-131.167756	71.981631	70.046018
05695		-0.940450	-5.459809	0.120099	1.596728	-1.296816	-4.489733	0.093750	0.358154	0.083252	-123.905381	70.395588	76.749128
05696		-1.012770	-5.084536	-0.206923	1.923369	-1.261317	-4.122097	0.065674	0.381836	0.064209	-117.877555	68.742835	82.004521
05697		-1.194704	-5.072406	-0.174754	2.109845	-1.183638	-3.805083	0.040039	0.387695	0.047119	-112.845116	67.064972	86.129199
05698		-1.572051	-5.221253	0.191432	2.117617	-1.078947	-3.659627	0.011963	0.403320	0.033447	-108.632629	65.326589	89.406655
05699		-2.049526	-5.453339	0.588889	1.913413	-0.969971	-3.707469	-0.017578	0.407959	0.010498	-105.127451	63.456720	92.076054
05700		-2.663236	-6.185571	0.629134	1.620049	-0.868235	-3.852120	-0.051270	0.427490	-0.006348	-102.265994	61.433859	94.256202
05701		-3.111036	-7.161902	0.617694	1.369778	-0.771744	-4.045335	-0.084961	0.437744	-0.031494	-99.924910	59.245528	96.045143
05702		-3.438593	-8.046196	0.365476	1.243298	-0.681980	-4.211034	-0.134277	0.441162	-0.039551	-97.984794	56.926635	97.491191
05703		-3.658246	-8.977915	0.288313	1.275312	-0.631697	-4.330733	-0.174805	0.445313	-0.055176	-96.266053	54.510040	98.684792
05704		-3.938892	-9.668963	0.263215	1.473317	-0.616391	-4.380270	-0.217529	0.446289	-0.071289	-94.626814	52.048707	99.676417
05705		-4.765372	-10.254977	0.306447	1.754170	-0.674891	-4.372403	-0.264404	0.443848	-0.088867	-92.937201	49.574741	100.557125
05706		-5.175091	-10.585529	0.544116	2.041099	-0.778388	-4.313315	-0.315430	0.430908	-0.098389	-91.163231	47.124312	101.365814
05707		-5.903751	-10.786863	0.868896	2.272915	-0.921013	-4.231064	-0.354248	0.416992	-0.121094	-89.298392	44.702093	102.146108
05708		-6.828887	-10.775899	1.389398	2.367433	-1.123663	-4.148932	-0.392090	0.395020	-0.136475	-87.392657	42.310505	102.943638
05709		-7.299599	-10.565248	1.985470	2.328550	-1.356274	-4.060424	-0.429932	0.379395	-0.141846	-85.500271	39.939785	103.789050
05710		-7.754504	-10.558334	2.557598	2.181269	-1.611548	-3.938692	-0.473145	0.365479	-0.162842	-83.679773	37.608986	104.700011
05711		-8.203278	-11.110183	2.991685	1.966717	-1.904934	-3.798498	-0.503906	0.341309	-0.171143	-81.947709	35.312177	105.714637
05712		-8.592011	-12.006060	3.326145	1.764060	-2.194882	-3.686612	-0.539551	0.332764	-0.167969	-80.311684	33.033883	106.827495
05713		-9.221946	-13.303427	3.353695	1.619168	-2.475929	-3.604353	-0.579590	0.321777	-0.169189	-78.743967	30.743920	108.034646
05714		-9.971341	-14.933647	3.063426	1.581059	-2.741112	-3.568032	-0.623291	0.306885	-0.175049	-77.205399	28.419615	109.315817
05715		-11.003195	-16.552737	2.428315	1.663244	-2.969924	-3.592006	-0.662842	0.279785	-0.180420	-75.645124	26.017923	110.638550
05716		-11.838506	-17.278267	1.682367	1.860781	-3.154199	-3.687833	-0.698730	0.258789	-0.162842	-74.027141	23.507935	111.955340
05717		-12.193576	-16.870450	1.153014	2.048465	-3.292258	-3.798593	-0.747559	0.224609	-0.156982	-72.369159	20.877181	113.231589
05718		-13.001171	-15.739879	0.898385	2.115904	-3.344196	-3.846452	-0.781006	0.196533	-0.147705	-70.757498	18.182402	114.425247
05719		-13.867664	-13.542284	1.039260	1.926731	-3.350701	-3.791528	-0.813477	0.166992	-0.141357	-69.328496	15.483131	115.540986
05720		-14.665277	-11.258694	1.673737	1.462875	-3.260510	-3.693192	-0.844482	0.119141	-0.125488	-68.242883	12.836211	116.551879
05721		-15.996563	-9.469862	2.045699	0.853964	-3.109543	-3.607984	-0.869385	0.097900	-0.111328	-67.572662	10.248727	117.448121
05722		-16.412267	-8.393712	2.371887	0.301278	-2.909209	-3.500826	-0.888672	0.059326	-0.089844	-67.277500	7.758327	118.231313
05723		-16.963142	-8.319086	1.859995	0.042909	-2.693297	-3.326138	-0.911133	0.031982	-0.080566	-67.171970	5.402229	118.925631
05724		-17.167148	-9.006051	-0.078223	0.263635	-2.544338	-3.020942	-0.938721	0.003906	-0.067627	-66.970129	3.241784	119.600290
05725		-16.513481	-7.899474	-1.830781	0.841865	-2.457770	-2.553699	-0.954102	-0.035400	-0.038330	-66.457711	1.340024	120.320502
05726		-15.883038	-4.802870	-2.231240	1.227874	-2.383780	-2.000344	-0.967285	-0.058350	-0.027832	-65.746779	-0.259584	121.109446
05727		-16.112317	-1.798695	-2.076993	1.139330	-2.328587	-1.458625	-0.969971	-0.083252	-0.017334	-65.106878	-1.575125	121.979896
05728		-15.899214	0.314702	-1.873598	0.622459	-2.273270	-0.998707	-0.980225	-0.093506	-0.006104	-64.785003	-2.643625	122.922689
05729		-15.511288	0.642002	-2.190908	-0.051390	-2.173580	-0.629354	-0.985352	-0.115967	0.005859	-64.866066	-3.499920	123.902313
05730		-14.823005	-0.226606	-2.826240	-0.567483	-1.993918	-0.293442	-1.001465	-0.125977	0.027588	-65.255981	-4.132621	124.874026
05731		-13.959984	-1.592562	-3.467892	-0.809823	-1.748916	0.056238	-0.995850	-0.120361	0.037842	-65.789557	-4.518109	125.806520
05732		-13.213540	-3.057583	-3.801113	-0.804401	-1.443818	0.393540	-1.001465	-0.111572	0.051025	-66.318828	-4.646239	126.661335
05733		-12.226206	-3.795598	-3.742260	-0.672290	-1.094850	0.674392	-1.008057	-0.114990	0.064209	-66.762395	-4.540584	127.397446
05734		-9.658338	-3.354650	-2.637384	-0.944911	-0.439698	1.411536	-1.007080	-0.112549	0.062256	-67.344564	-3.892415	127.950736
05735		-1.750712	-2.186650	-3.163966	-0.772981	0.105722	2.783344	-1.008301	-0.087891	0.069092	-67.817630	-2.393699	128.508216
05736		-0.441248	-9.386971	-0.891832	-1.120609	0.335222	2.279049	-0.998291	-0.070801	0.078125	-68.469352	-1.108544	128.820683
05737		4.485133	-10.607803	1.061687	-1.615835	0.560119	2.246077	-1.011719	-0.047852	0.074219	-69.396250	0.209234	128.988247
05738		2.362882	-8.489239	-0.648485	-2.354535	0.875291	2.409477	-1.009277	-0.032959	0.071533	-70.745398	1.679865	128.991743
05739		-0.848793	-11.512973	-3.089351	-1.675026	1.104560	2.950786	-1.000000	-0.006348	0.073242	-71.707340	3.485835	128.940990
05740		-3.047710	-13.455027	-0.758746	-0.771547	1.021989	3.336900	-0.990479	0.016846	0.066895	-72.146329	5.487068	128.981921
05741		-4.054791	-11.713794	3.161939	-0.493547	1.031190	3.355295	-0.990234	0.038086	0.067139	-72.426206	7.499842	129.008532
05742		-5.218660	-14.915153	5.020062	-0.202645	1.100514	3.468592	-0.981934	0.075928	0.059326	-72.542238	9.586878	129.009685
05743		-9.082562	-11.369065	7.038845	0.057084	0.825282	3.553500	-0.975098	0.089600	0.055664	-72.478598	11.672704	129.177776
05744		-9.889860	-13.130815	7.076934	0.008344	0.522782	3.137019	-0.968750	0.119873	0.043701	-72.415715	13.478782	129.444975
05745		-7.441324	-12.639205	4.374716	0.014084	0.452897	2.676854	-0.955811	0.139404	0.040039	-72.351430	15.021189	129.673195
05746		-5.926834	-11.351951	3.141714	0.141558	0.479230	2.372632	-0.946533	0.144775	0.035400	-72.226426	16.401743	129.835580
05747		-8.959243	-10.394379	7.183618	0.052698	0.550977	1.995358	-0.945068	0.161133	0.036621	-72.179936	17.588962	129.891221
05748		-9.648172	-11.629100	4.859624	-0.153674	0.355819	1.351219	-0.937988	0.184326	0.031738	-72.252918	18.390457	129.940277
05749		-6.392687	-14.664270	-0.826454	0.166899	0.257287	0.776584	-0.927490	0.181396	0.032227	-72.157165	18.861561	129.940295
05750		-4.522774	-10.831498	1.870633	0.423956	0.225217	0.587286	-0.931885	0.186768	0.029541	-71.919393	19.223462	129.924801
05751		-4.964234	-10.471671	2.458858	0.373656	0.065161	0.455509	-0.931396	0.190674	0.021729	-71.687610	19.485468	129.978219
05752		-4.029902	-10.560300	1.684331	0.393793	0.011713	0.320301	-0.924805	0.194824	0.026611	-71.442145	19.663673	130.037675
05753		-4.008435	-9.545871	2.781518	0.350896	-0.002425	0.231619	-0.923096	0.190918	0.019775	-71.223888	19.791361	130.088834
05754		-3.690379	-9.323050	2.720182	0.272918	-0.002970	0.173669	-0.921387	0.194092	0.020752	-71.053837	19.886922	130.129387
05755		-3.501230	-8.894913	3.096171	0.212780	0.002433	0.130934	-0.922607	0.194092	0.012695	-70.922034	19.960699	130.158628
05756		-3.518809	-8.811779	3.289442	0.135044	-0.015571	0.120600	-0.924316	0.196533	0.017334	-70.831848	20.024991	130.196343
05757		-3.246158	-8.692637	3.133578	0.089851	-0.041500	0.116650	-0.919434	0.194092	0.018799	-70.762617	20.082675	130.248310
05758		-3.353669	-8.766586	3.107645	0.053984	-0.069429	0.132265	-0.924072	0.193359	0.015137	-70.707257	20.143007	130.319595
05759		-3.448503	-8.938069	2.902568	0.031009	-0.086128	0.134502	-0.915283	0.198242	0.025146	-70.661472	20.201789	130.401034
05760		-3.528075	-9.182181	2.749816	0.006348	-0.082422	0.129157	-0.925049	0.200195	0.017578	-70.630845	20.257870	130.479329
05761		-3.564042	-9.261679	2.691880	-0.024282	-0.082787	0.129508	-0.915771	0.197754	0.015381	-70.617577	20.314510	130.557952
05762		-3.523827	-9.192940	2.796839	-0.052733	-0.087527	0.137232	-0.925293	0.204834	0.020508	-70.619031	20.373950	130.640913
05763		-3.532948	-8.986916	2.877191	-0.088561	-0.092400	0.136480	-0.923584	0.196045	0.022705	-70.640017	20.432541	130.726539
05764		-3.590479	-9.075107	2.820700	-0.098974	-0.093297	0.119062	-0.926025	0.202637	0.024414	-70.667928	20.481110	130.809170
05765		-3.569163	-8.913717	2.867210	-0.102295	-0.106393	0.101479	-0.913818	0.200928	0.025635	-70.696314	20.518202	130.895784
05766		-3.469628	-8.630959	3.056617	-0.105835	-0.103018	0.090513	-0.921875	0.201904	0.032959	-70.728111	20.549571	130.978248
05767		-3.367549	-8.398155	3.146285	-0.086468	-0.086199	0.081962	-0.921631	0.200195	0.017334	-70.752823	20.580010	131.049251
05768		-3.421010	-8.487426	3.091258	-0.063776	-0.078889	0.080110	-0.919678	0.207031	0.031250	-70.766080	20.610371	131.115678
05769		-3.423482	-8.460696	3.112552	-0.035705	-0.063919	0.074656	-0.925293	0.206787	0.037842	-70.766678	20.641097	131.172347
05770		-3.335872	-8.256312	3.215854	-0.008899	-0.044371	0.074017	-0.920166	0.202637	0.025391	-70.755889	20.674681	131.217615
05771		-3.265712	-8.106572	3.306219	0.019216	-0.026416	0.077580	-0.918701	0.206299	0.030518	-70.732386	20.714057	131.253232
05772		-3.325762	-8.194387	3.312461	0.051247	-0.002356	0.078065	-0.919189	0.207275	0.019287	-70.695371	20.757747	131.275076
05773		-3.457399	-8.426354	3.177129	0.069038	0.017699	0.073156	-0.916748	0.212402	0.036621	-70.652594	20.803057	131.284364
05774		-3.552034	-8.673324	3.056060	0.072266	0.024438	0.063223	-0.917969	0.207764	0.023682	-70.610059	20.843785	131.287776
05775		-3.622571	-8.737245	2.987796	0.073476	0.022162	0.048357	-0.906982	0.206787	0.030029	-70.567413	20.876536	131.289507
05776		-3.539730	-8.608088	3.027334	0.079653	0.026278	0.028821	-0.920654	0.205566	0.022949	-70.523502	20.899025	131.284895
05777		-3.449821	-8.453070	3.167476	0.093998	0.033062	0.019981	-0.922119	0.205078	0.028564	-70.473402	20.918538	131.274569
05778		-3.493568	-8.485483	3.115517	0.115869	0.040446	0.015449	-0.922363	0.214111	0.026367	-70.412635	20.936533	131.259063
05779		-3.462858	-8.547708	3.092589	0.134022	0.039501	0.010276	-0.919922	0.213623	0.014648	-70.341633	20.952071	131.243059
05780		-3.382565	-8.418824	3.191691	0.165144	0.036115	0.007836	-0.917236	0.205078	0.021973	-70.252292	20.965160	131.228526
05781		-3.467215	-8.385065	3.155059	0.190504	0.040751	0.010309	-0.922852	0.203857	0.021484	-70.149170	20.981005	131.211856
05782		-3.386924	-8.253665	3.259080	0.240990	0.032235	0.007566	-0.916504	0.205322	0.015137	-70.015581	20.993242	131.199555
05783		-3.441818	-8.360833	3.337764	0.268741	0.012029	0.026946	-0.909424	0.208008	0.021973	-69.860415	21.012470	131.203021
05784		-3.583337	-8.490972	3.192237	0.284324	-0.008491	0.046842	-0.915039	0.206299	0.018555	-69.690574	21.037818	131.222580
05785		-3.591079	-8.531929	3.172488	0.298991	-0.026591	0.054084	-0.913086	0.212158	0.007568	-69.507953	21.063891	131.254200
05786		-3.626558	-8.606333	3.064307	0.318086	-0.034185	0.054627	-0.910645	0.203857	0.008789	-69.312772	21.088120	131.290388
05787		-3.641862	-8.672268	3.211891	0.330931	-0.022105	0.046758	-0.911133	0.205566	0.016846	-69.113260	21.110988	131.318028
05788		-3.657593	-8.766190	3.205060	0.298573	-0.019774	0.031823	-0.919189	0.203125	0.009766	-68.933953	21.125745	131.341122
05789		-3.593792	-8.788569	3.236157	0.264755	-0.030189	0.023639	-0.912842	0.209717	0.003418	-68.772470	21.134431	131.368424
05790		-3.553598	-8.794294	3.218342	0.224685	-0.023103	0.030700	-0.924316	0.205078	0.004395	-68.634858	21.147775	131.393264
05791		-3.510870	-8.695328	3.339885	0.190093	-0.015911	0.045195	-0.916992	0.205322	0.005859	-68.517333	21.170824	131.417283
05792		-3.495462	-8.555149	3.357339	0.171400	0.006337	0.064125	-0.915283	0.210938	0.011230	-68.413566	21.208078	131.432901
05793		-3.507319	-8.494119	3.522839	0.139485	0.029629	0.079046	-0.911377	0.205322	0.009033	-68.331622	21.258691	131.438664
05794		-3.526661	-8.463677	3.584547	0.081972	0.051659	0.079600	-0.914551	0.205811	0.007813	-68.287148	21.313742	131.432023
05795		-3.557250	-8.517810	3.497879	0.033991	0.077629	0.080790	-0.907227	0.203857	0.001953	-68.275435	21.375452	131.410844
05796		-3.454116	-8.482791	3.526982	-0.020014	0.107708	0.086096	-0.909180	0.213623	0.000977	-68.300561	21.445843	131.373652
05797		-3.455943	-8.451888	3.562784	-0.082458	0.154417	0.100288	-0.908203	0.207520	0.007324	-68.370117	21.534157	131.312882
05798		-3.471965	-8.502228	3.579803	-0.149158	0.202284	0.110791	-0.914795	0.206543	0.006836	-68.487308	21.637544	131.226860
05799		-3.518535	-8.487072	3.563776	-0.231681	0.263922	0.122262	-0.904785	0.214111	0.004150	-68.664150	21.760252	131.107699
05800		-3.466636	-8.625166	3.493054	-0.324079	0.314511	0.144562	-0.917480	0.209717	0.009033	-68.903428	21.904449	130.963810
05801		-3.516884	-8.664124	3.435970	-0.412360	0.361885	0.188260	-0.910889	0.217285	0.009766	-69.200564	22.081608	130.801362
05802		-3.410971	-8.712347	3.363244	-0.513629	0.409054	0.237164	-0.906006	0.210693	-0.001465	-69.563077	22.293136	130.620919
05803		-3.485341	-8.706317	3.284613	-0.608952	0.464839	0.298425	-0.903809	0.218506	-0.006104	-69.988912	22.547985	130.419302
05804		-3.582157	-8.830776	3.136692	-0.690001	0.509001	0.358202	-0.904053	0.221680	0.007813	-70.468238	22.841654	130.201844
05805		-3.174202	-9.151065	3.000626	-0.759333	0.558991	0.441487	-0.903564	0.233154	-0.000488	-70.994443	23.188524	129.968832
05806		-3.039135	-9.384288	3.017347	-0.763112	0.625582	0.607587	-0.892090	0.239746	0.001221	-71.528417	23.635300	129.725570
05807		-3.312920	-9.428903	2.733308	-0.772035	0.665743	0.790273	-0.889648	0.239990	0.010254	-72.066828	24.187016	129.488684
05808		-3.708794	-9.610974	2.490364	-0.722746	0.688237	0.940379	-0.881104	0.250732	0.008789	-72.575720	24.822159	129.260359
05809		-3.674520	-9.906303	2.394270	-0.607061	0.710411	1.087119	-0.875244	0.255615	-0.002686	-73.017788	25.540014	129.039036
05810		-3.778447	-9.797905	2.456359	-0.459346	0.719816	1.248355	-0.870605	0.262939	0.001953	-73.370439	26.346071	128.834738
05811		-3.813983	-9.592757	2.601179	-0.434897	0.723509	1.399682	-0.855225	0.272705	0.000244	-73.703543	27.235098	128.648775
05812		-3.903065	-9.387485	2.607688	-0.438990	0.769458	1.541995	-0.848877	0.282959	-0.004883	-74.046528	28.208439	128.452356
05813		-3.994444	-9.177125	2.635406	-0.479260	0.808053	1.674971	-0.832764	0.290039	-0.004395	-74.420236	29.260284	128.246446
05814		-4.086731	-9.059631	2.631502	-0.528710	0.872427	1.808264	-0.823242	0.309082	-0.006104	-74.839726	30.393992	128.012296
05815		-4.163293	-8.911595	2.637903	-0.615521	0.943371	1.934387	-0.810303	0.311279	-0.010742	-75.332431	31.606557	127.740648
05816		-4.074113	-8.968389	2.735983	-0.713868	1.046831	2.094499	-0.789551	0.328857	-0.011719	-75.917604	32.920242	127.410862
05817		-4.086186	-8.844823	2.898287	-0.815473	1.149825	2.283080	-0.778564	0.339111	-0.002197	-76.601227	34.349879	127.020439
05818		-4.117037	-8.741956	2.948603	-0.919383	1.270731	2.498057	-0.762451	0.356934	-0.014404	-77.397810	35.910653	126.551799
05819		-4.232412	-8.621265	2.702729	-1.012049	1.396587	2.734810	-0.744385	0.369629	-0.005615	-78.312856	37.613367	125.991990
05820		-4.412517	-8.437583	2.709268	-1.097631	1.524578	3.000119	-0.715088	0.382813	-0.024902	-79.356233	39.471457	125.327111
05821		-4.713142	-8.240920	2.698059	-1.191436	1.634111	3.272383	-0.694092	0.399902	-0.005127	-80.543077	41.483582	124.550675
05822		-5.203078	-8.143636	2.710558	-1.286743	1.760868	3.535166	-0.661865	0.409912	-0.009766	-81.908896	43.642005	123.621826
05823		-5.639261	-8.484565	2.453341	-1.328736	1.884331	3.793758	-0.630371	0.434814	-0.005371	-83.454601	45.938187	122.508796
05824		-6.820401	-8.656360	2.040108	-1.338376	1.955406	4.057595	-0.604492	0.447021	-0.001709	-85.171240	48.365607	121.213904
05825		-8.259169	-9.394194	1.314730	-1.281843	1.945409	4.269862	-0.573730	0.463623	-0.002197	-87.013111	50.885246	119.760720
05826		-9.997605	-9.951534	0.873844	-1.182796	1.884317	4.440940	-0.531006	0.479980	-0.003662	-88.961370	53.469408	118.152948
05827		-12.059950	-11.227695	1.313786	-0.973587	1.788863	4.530126	-0.505371	0.488770	0.008301	-90.963099	56.068832	116.385799
05828		-10.672551	-11.394957	1.868606	-0.700774	1.770258	4.618198	-0.455078	0.505615	0.005615	-93.089531	58.681099	114.338520
05829		-9.458730	-12.152399	1.695087	-0.252546	1.809947	4.796882	-0.409668	0.506836	-0.004639	-95.372230	61.349105	111.870800
05830		-9.553385	-12.100467	1.654956	0.267784	1.854085	5.006616	-0.373291	0.506104	-0.006348	-97.902179	64.080197	108.852531
05831		-10.709959	-11.813932	1.615180	0.710141	1.905154	5.107337	-0.339355	0.507080	-0.011475	-100.890086	66.793400	105.120916
05832		-10.400596	-11.574380	1.606203	0.862343	1.989511	5.057416	-0.293457	0.505859	-0.017822	-104.752023	69.371897	100.427036
05833		-8.973755	-10.824451	1.925030	0.814146	2.115419	4.889422	-0.260986	0.500244	-0.041748	-109.913260	71.691260	94.459489
05834		-6.139984	-9.900564	1.176028	0.686630	2.214730	4.960239	-0.216309	0.488770	-0.051270	-116.906261	73.804221	86.727420
05835		-5.738256	-9.455849	0.925023	0.755711	2.308120	5.079133	-0.182861	0.481445	-0.051025	-126.162801	75.603369	76.684594
05836		-4.567980	-9.082335	1.578212	0.790787	2.355162	4.941888	-0.149902	0.468262	-0.062500	-137.526912	76.823992	64.520102
05837		-4.761878	-8.688477	1.398722	0.909410	2.308401	4.399316	-0.117432	0.460449	-0.069824	-149.251133	77.272606	51.957253
05838		-4.102446	-8.791610	1.070406	1.292793	2.321660	4.026881	-0.095947	0.440918	-0.085693	-160.189588	77.058465	39.980927
05839		-2.274221	-11.725736	1.306575	1.988742	2.208231	3.629427	-0.076416	0.424561	-0.093994	-168.984384	76.393682	29.774847
05840		-20.516757	-20.822191	5.351376	2.778480	1.867834	2.010781	-0.085693	0.411133	-0.134277	-172.636053	75.524282	24.370106
05841		-13.554803	-15.544453	8.875746	2.992991	0.931516	-0.418945	-0.115967	0.390381	-0.159668	-170.316509	74.966165	24.994564
05842		-9.323322	-10.262444	7.780535	2.468206	0.176583	-2.253507	-0.154297	0.372559	-0.176758	-164.361987	74.588287	29.699828
05843		-7.326494	-7.269957	6.979480	1.690864	-0.365890	-3.460061	-0.202393	0.362549	-0.194336	-156.456764	74.125759	36.901037
05844		-5.928656	-6.671758	6.148301	1.049421	-0.725556	-4.285637	-0.271973	0.342285	-0.212158	-147.746299	73.346782	45.346857
05845		-4.439181	-6.245637	5.206611	0.676346	-0.953856	-4.773389	-0.336670	0.312256	-0.211182	-139.206451	72.159813	53.879533
05846		-3.361052	-5.551173	4.248466	0.553680	-1.135550	-5.014793	-0.409912	0.273926	-0.220703	-131.458623	70.603922	61.718508
05847		-2.204785	-4.889641	3.115035	0.604560	-1.298351	-5.037001	-0.461670	0.228760	-0.211914	-124.695309	68.791037	68.556624
05848		-1.259891	-4.679085	2.486931	0.761721	-1.409475	-4.858431	-0.527100	0.177490	-0.197998	-118.967876	66.854279	74.268823
05849		-1.193949	-5.097840	1.724058	1.068517	-1.457930	-4.517658	-0.572998	0.118408	-0.193848	-114.084687	64.911622	78.944661
05850		-1.338313	-5.566241	1.362492	1.441520	-1.479900	-4.136377	-0.606445	0.056396	-0.191895	-109.828386	63.033962	82.761343
05851		-1.865678	-5.952176	1.240695	1.781710	-1.491135	-3.819758	-0.623291	-0.000244	-0.175049	-105.981798	61.213901	85.954574
05852		-2.693249	-6.168144	1.439766	1.991572	-1.491552	-3.648824	-0.637451	-0.051025	-0.159180	-102.481577	59.401116	88.669750
05853		-3.621027	-6.441632	1.831903	2.039789	-1.497079	-3.639543	-0.642090	-0.115479	-0.141113	-99.284196	57.514316	91.046470
05854		-4.564972	-6.686280	2.025974	1.943922	-1.541905	-3.743825	-0.659424	-0.169434	-0.133545	-96.400103	55.513288	93.168612
05855		-4.984229	-6.853416	2.149595	1.724172	-1.631354	-3.879572	-0.654297	-0.229980	-0.116699	-93.819078	53.380773	95.122772
05856		-5.121727	-7.126394	2.063456	1.474857	-1.736446	-3.958649	-0.638916	-0.291016	-0.094482	-91.547576	51.164891	96.925844
05857		-5.183751	-7.339618	2.135250	1.236134	-1.841888	-3.966307	-0.618408	-0.342285	-0.080566	-89.542417	48.900028	98.613559
05858		-5.110234	-7.732931	2.262111	1.037118	-1.928944	-3.930018	-0.586182	-0.384277	-0.034180	-87.784911	46.626127	100.184398
05859		-5.187056	-8.356958	2.135469	0.950019	-1.994191	-3.854455	-0.529785	-0.418213	-0.016113	-86.187265	44.357572	101.656463
05860		-4.856695	-9.114829	1.913835	1.003754	-2.046906	-3.710962	-0.475830	-0.429932	0.013428	-84.668095	42.147460	103.033923
05861		-4.682451	-10.313563	1.829430	1.235398	-1.988053	-3.465336	-0.414795	-0.413330	0.019287	-83.146572	40.048631	104.266339
05862		-6.172020	-12.351087	1.923536	1.610094	-1.892538	-3.192696	-0.373779	-0.385742	0.024170	-81.546097	38.093935	105.341759
05863		-8.449468	-14.339198	2.480562	2.043282	-1.834784	-3.041838	-0.337646	-0.353027	0.014893	-79.794963	36.199502	106.297033
05864		-10.465613	-15.153343	3.033463	2.391011	-1.897994	-3.151591	-0.324219	-0.318115	-0.011963	-77.915392	34.220140	107.180646
05865		-11.543986	-15.112030	3.396811	2.530196	-2.061023	-3.423634	-0.309570	-0.289063	-0.033936	-75.996010	32.037927	108.033350
05866		-11.492107	-14.006374	3.485492	2.464794	-2.240733	-3.658684	-0.320801	-0.254395	-0.057129	-74.162299	29.684014	108.854585
05867		-11.273004	-13.600927	3.434928	2.305309	-2.361191	-3.666264	-0.335449	-0.234375	-0.076172	-72.458658	27.278357	109.649588
05868		-12.321081	-14.672618	3.805498	2.157247	-2.428998	-3.550072	-0.353271	-0.223389	-0.087402	-70.886558	24.911858	110.413243
05869		-14.249546	-15.809639	4.338659	2.062371	-2.528017	-3.563174	-0.384521	-0.199219	-0.100098	-69.405014	22.494586	111.150311
05870		-15.535691	-15.576823	4.948661	1.875983	-2.742334	-3.808627	-0.404053	-0.210938	-0.108887	-68.067362	19.892887	111.876697
05871		-15.226171	-13.727278	4.795186	1.460981	-3.015333	-4.119260	-0.436035	-0.201660	-0.126953	-66.992967	17.046608	112.614735
05872		-14.302625	-12.149609	3.055679	0.997903	-3.233261	-4.267788	-0.463379	-0.202637	-0.122803	-66.216814	14.068345	113.376347
05873		-13.450846	-11.429457	0.652453	0.776139	-3.358462	-4.185791	-0.486328	-0.208496	-0.125732	-65.594188	11.088865	114.178317
05874		-12.880695	-10.277797	-0.086386	0.655949	-3.311036	-3.951094	-0.515869	-0.209229	-0.114502	-65.084795	8.241425	114.973574
05875		-13.062694	-9.075280	0.036283	0.412471	-3.126318	-3.684109	-0.542969	-0.213623	-0.112061	-64.756951	5.566306	115.711450
05876		-13.301204	-7.528879	0.512389	0.101357	-2.901219	-3.397283	-0.557129	-0.218750	-0.101318	-64.647759	3.097554	116.388977
05877		-13.216756	-5.331337	1.224962	-0.226649	-2.664248	-3.101487	-0.574219	-0.228027	-0.097168	-64.753720	0.835353	117.014673
05878		-13.009770	-4.701680	0.906297	-0.422344	-2.422522	-2.751831	-0.592285	-0.233887	-0.085938	-64.997592	-1.180053	117.606446
05879		-13.014807	-5.768704	-0.650406	-0.165732	-2.219374	-2.280934	-0.611572	-0.235596	-0.076660	-65.111885	-2.903730	118.213103
05880		-12.928396	-5.442131	-1.988820	0.440834	-2.061902	-1.748256	-0.603271	-0.238525	-0.078613	-64.900472	-4.309321	118.866452
05881		-12.821995	-3.430151	-2.615638	0.909650	-1.939182	-1.232769	-0.617920	-0.244629	-0.061035	-64.437441	-5.424685	119.575440
05882		-12.741976	-1.037956	-2.439863	0.911665	-1.805519	-0.787433	-0.623779	-0.245361	-0.056885	-63.990985	-6.279554	120.319096
05883		-12.284172	0.470355	-2.350033	0.435395	-1.641982	-0.416299	-0.629150	-0.237793	-0.041748	-63.825881	-6.908331	121.068444
05884		-11.758074	0.242592	-2.430589	-0.243408	-1.433805	-0.083293	-0.638428	-0.241455	-0.043457	-64.055429	-7.310730	121.795641
05885		-10.884700	-1.414337	-2.676259	-0.771445	-1.190877	0.192973	-0.636230	-0.239990	-0.034912	-64.582688	-7.506748	122.468460
05886		-10.272956	-3.655980	-2.862260	-0.978042	-0.920026	0.481141	-0.639893	-0.232910	-0.025391	-65.221915	-7.479247	123.072467
05887		-10.038994	-5.815366	-2.739453	-0.880970	-0.659416	0.699646	-0.640869	-0.223877	-0.017578	-65.792010	-7.270232	123.591134
05888		-3.410518	-2.953080	-1.897761	-1.270014	-0.391028	1.091851	-0.636230	-0.221680	-0.019775	-66.576733	-6.786837	124.056721
05889		-5.575754	-4.468240	-0.047958	-1.355606	0.468331	2.518637	-0.635010	-0.202148	-0.018799	-67.386724	-5.352275	124.380216
05890		0.762061	-9.014485	-2.501023	-2.003392	0.462571	1.841825	-0.628174	-0.182373	-0.011475	-68.547719	-4.272962	124.535427
05891		6.484332	-9.092854	-0.662606	-2.144366	0.603267	2.195417	-0.621094	-0.183594	0.008057	-69.783857	-2.972571	124.664400
05892		5.271129	-7.099005	-1.343584	-2.774030	0.817301	2.818504	-0.619873	-0.164551	0.003662	-71.377163	-1.292029	124.764132
05893		-0.373905	-12.447383	-3.798867	-2.144448	1.001475	3.607814	-0.604004	-0.139648	0.011963	-72.605937	0.852840	124.861839
05894		-6.432166	-16.862030	-2.542294	-0.943407	0.698168	3.878129	-0.600098	-0.128906	0.012207	-73.137087	3.096162	125.138430
05895		-4.498024	-12.706027	1.835800	-0.374494	0.474577	3.729040	-0.598633	-0.124268	0.024414	-73.325610	5.222332	125.499725
05896		-3.188909	-14.804429	3.482270	-0.173879	0.691413	3.963076	-0.586914	-0.104248	0.028076	-73.394638	7.513463	125.776364
05897		-12.157961	-17.301948	3.960905	0.237544	0.549210	3.983886	-0.575928	-0.096191	0.034668	-73.204147	9.792398	126.139292
05898		-11.626945	-16.394113	5.659590	0.416230	0.152916	3.236597	-0.566162	-0.083984	0.030273	-72.878589	11.593833	126.608829
05899		-7.520193	-13.486827	3.886973	0.379363	0.050862	2.605952	-0.551514	-0.075684	0.032471	-72.569826	13.031049	127.038555
05900		-4.899811	-10.263725	3.918253	0.310590	0.107258	2.206669	-0.550537	-0.072754	0.025635	-72.312524	14.257043	127.375212
05901		-4.312904	-8.606535	5.342019	0.198873	0.157816	1.999827	-0.546875	-0.066650	0.031982	-72.127882	15.378780	127.652499
05902		-7.641874	-9.021618	7.440595	-0.121610	0.224117	1.643041	-0.542236	-0.059326	0.029297	-72.149137	16.316192	127.830104
05903		-6.895535	-10.744660	3.709565	-0.297713	0.105129	1.125330	-0.549561	-0.060059	0.029541	-72.276667	16.951811	127.980357
05904		-3.876649	-11.544313	1.323178	-0.204667	0.172689	0.878139	-0.539307	-0.044922	0.031006	-72.374559	17.463260	128.046112
05905		-5.878713	-11.212169	2.405177	-0.070748	0.211887	0.685786	-0.543457	-0.056152	0.041504	-72.412752	17.877940	128.053946
05906		-4.439255	-11.120596	1.460705	0.030065	0.117508	0.448045	-0.532227	-0.048340	0.038330	-72.389828	18.145020	128.072628
05907		-3.580626	-10.320420	1.789480	0.145379	0.126769	0.354144	-0.531738	-0.050537	0.029541	-72.307801	18.363959	128.069054
05908		-3.679532	-9.482893	2.588588	0.179632	0.128732	0.292573	-0.528320	-0.051758	0.031738	-72.209910	18.548111	128.053411
05909		-3.425020	-9.318252	2.547021	0.194784	0.121096	0.237415	-0.535645	-0.049316	0.025146	-72.105299	18.702428	128.032210
05910		-3.300804	-8.972848	2.839398	0.187679	0.122443	0.198135	-0.530273	-0.052002	0.029053	-72.007167	18.834045	128.003240
05911		-3.333212	-9.093984	2.689497	0.181451	0.120459	0.175316	-0.535400	-0.042969	0.030518	-71.913796	18.954503	127.971274
05912		-3.263923	-9.053694	2.748204	0.179079	0.109552	0.164191	-0.529785	-0.043213	0.031494	-71.820237	19.065429	127.943744
05913		-3.219647	-8.816192	2.922791	0.179798	0.103367	0.162675	-0.532227	-0.041260	0.036865	-71.725396	19.176054	127.919586
05914		-3.196019	-8.637246	2.980768	0.171505	0.104509	0.166391	-0.531006	-0.052002	0.035645	-71.635068	19.287352	127.895728
05915		-3.212008	-8.703889	2.923346	0.178682	0.107883	0.161218	-0.527344	-0.045166	0.026367	-71.541793	19.398081	127.869027
05916		-3.338242	-8.781204	2.852315	0.213743	0.109723	0.162580	-0.530518	-0.048828	0.024902	-71.428473	19.508333	127.841799
05917		-3.324730	-8.786127	2.784422	0.259282	0.127427	0.134608	-0.525391	-0.050293	0.033447	-71.294476	19.608302	127.799088
05918		-3.360508	-8.832871	2.767245	0.313329	0.130832	0.114924	-0.525146	-0.046631	0.017334	-71.131242	19.696721	127.750887
05919		-3.265036	-8.654434	2.868920	0.381451	0.126188	0.092536	-0.529541	-0.054199	0.027832	-70.929775	19.773903	127.701115
05920		-3.430170	-8.714954	2.932269	0.447002	0.101912	0.087538	-0.531250	-0.039795	0.025879	-70.686086	19.842375	127.664682
05921		-3.555027	-8.917023	2.906476	0.517276	0.053344	0.079793	-0.528320	-0.048096	0.025391	-70.393355	19.899177	127.654810
05922		-3.562568	-8.923344	3.006154	0.519207	0.017435	0.061099	-0.522949	-0.047363	0.020996	-70.093475	19.937364	127.662076
05923		-3.517901	-8.807773	3.201413	0.466395	-0.006599	0.044545	-0.525879	-0.049316	0.019287	-69.820528	19.963533	127.679751
05924		-3.504750	-8.920990	3.098413	0.404497	-0.014000	0.046032	-0.524170	-0.056152	0.020264	-69.581181	19.987309	127.702191
05925		-3.451318	-8.780684	3.252189	0.370909	-0.015230	0.046087	-0.531250	-0.050781	0.013916	-69.361062	20.012442	127.725347
05926		-3.448701	-8.657961	3.393871	0.317366	-0.018070	0.038748	-0.518066	-0.059570	0.021484	-69.171296	20.031330	127.748734
05927		-3.443852	-8.670026	3.420660	0.257445	-0.024266	0.039246	-0.529541	-0.053955	0.013428	-69.014856	20.050820	127.775721
05928		-3.416074	-8.680943	3.358576	0.220870	-0.031684	0.037585	-0.523438	-0.052490	0.017090	-68.877753	20.066160	127.806720
05929		-3.324120	-8.584787	3.488812	0.176638	-0.030509	0.044482	-0.532227	-0.059082	0.011719	-68.765941	20.087042	127.838509
05930		-3.348834	-8.588748	3.433722	0.129377	-0.024493	0.050683	-0.522949	-0.048340	0.013916	-68.681623	20.110758	127.868391
05931		-3.403677	-8.653653	3.393750	0.100161	-0.015356	0.057241	-0.527100	-0.057129	0.010742	-68.615554	20.141521	127.894479
05932		-3.386771	-8.615169	3.415158	0.071194	-0.002203	0.064346	-0.533203	-0.052246	0.007813	-68.567836	20.177122	127.914808
05933		-3.399338	-8.668276	3.354049	0.051773	0.006134	0.068719	-0.521729	-0.051270	0.011719	-68.532767	20.218471	127.931314
05934		-3.486343	-8.772344	3.269715	0.019848	0.015655	0.080845	-0.535889	-0.057129	0.010010	-68.516656	20.266592	127.945238
05935		-3.530740	-8.755978	3.254146	0.015236	0.021649	0.080171	-0.531738	-0.056641	0.015625	-68.504661	20.317298	127.955523
05936		-3.508819	-8.796305	3.226311	0.007304	0.013245	0.083904	-0.527100	-0.052002	0.018555	-68.494990	20.366539	127.971534
05937		-3.560899	-8.832974	3.220924	0.005074	0.000107	0.092083	-0.525146	-0.055664	0.014893	-68.483611	20.419075	127.996759
05938		-3.495989	-8.671532	3.329361	0.014178	-0.017635	0.098707	-0.528564	-0.054443	0.017822	-68.462666	20.469707	128.033692
05939		-3.489431	-8.530411	3.407889	0.002345	-0.021047	0.099155	-0.530029	-0.054932	0.012939	-68.448036	20.521556	128.072584
05940		-3.496363	-8.558500	3.309883	-0.001647	-0.016987	0.090621	-0.524414	-0.050049	0.018799	-68.436846	20.567997	128.107384
05941		-3.474233	-8.487350	3.445199	-0.011216	-0.010898	0.078134	-0.514160	-0.048340	0.018799	-68.433605	20.610779	128.135813
05942		-3.465358	-8.509602	3.391038	-0.023940	0.012241	0.064061	-0.518799	-0.042725	0.016846	-68.443101	20.649219	128.148018
05943		-3.478521	-8.484864	3.387254	-0.018541	0.021437	0.061814	-0.521484	-0.044678	0.007813	-68.451809	20.690124	128.154366
05944		-3.455274	-8.500218	3.378170	-0.017258	0.035229	0.060456	-0.525146	-0.054443	0.010254	-68.462380	20.731483	128.152656
05945		-3.461622	-8.498621	3.375689	-0.010263	0.040618	0.058784	-0.517090	-0.057617	0.022217	-68.470454	20.774813	128.147380
05946		-3.476023	-8.496272	3.426716	-0.021596	0.054735	0.059945	-0.528809	-0.042969	0.009766	-68.487510	20.820000	128.134415
05947		-3.490112	-8.444952	3.442769	-0.027613	0.067649	0.054011	-0.522217	-0.050781	0.012451	-68.511407	20.866463	128.112620
05948		-3.387612	-8.457482	3.508316	-0.048403	0.074503	0.058830	-0.519287	-0.048828	0.014404	-68.547972	20.915190	128.088072
05949		-3.396264	-8.403760	3.543249	-0.081879	0.098483	0.075315	-0.523682	-0.049805	0.014648	-68.607604	20.979441	128.053364
05950		-3.370768	-8.364371	3.590586	-0.129543	0.123966	0.094306	-0.524170	-0.041016	0.018555	-68.698058	21.057367	128.008332
05951		-3.434946	-8.440224	3.445359	-0.167582	0.157206	0.105582	-0.532471	-0.051758	0.012939	-68.816626	21.149864	127.946507
05952		-3.370583	-8.359394	3.567088	-0.210903	0.186356	0.125096	-0.517578	-0.045898	0.019287	-68.964448	21.256946	127.872118
05953		-3.368371	-8.379988	3.587226	-0.279806	0.220083	0.154617	-0.522705	-0.056396	0.028076	-69.156953	21.388244	127.784351
05954		-3.449368	-8.404785	3.521772	-0.348556	0.257579	0.175566	-0.517090	-0.037109	0.017578	-69.395271	21.536344	127.679042
05955		-3.445488	-8.534994	3.385464	-0.416399	0.291183	0.201622	-0.512695	-0.038330	0.023926	-69.678324	21.706422	127.559020
05956		-3.483789	-8.569013	3.367786	-0.484413	0.341465	0.244420	-0.517334	-0.034180	0.020752	-70.008363	21.907141	127.417931
05957		-3.395176	-8.511387	3.419006	-0.572319	0.389133	0.288934	-0.514648	-0.043213	0.022949	-70.396947	22.141973	127.256788
05958		-3.474804	-8.505336	3.411178	-0.687623	0.452741	0.346755	-0.512939	-0.033691	0.025879	-70.862475	22.417336	127.068280
05959		-3.580502	-8.638899	3.208356	-0.795426	0.483865	0.400838	-0.508301	-0.047607	0.021973	-71.394821	22.727927	126.869290
05960		-3.555979	-8.630298	3.042744	-0.902136	0.506535	0.460120	-0.507080	-0.029541	0.026367	-71.991359	23.071352	126.664800
05961		-3.687781	-8.764300	2.845766	-1.022949	0.495406	0.525848	-0.506348	-0.025146	0.030029	-72.652762	23.448276	126.474658
05962		-3.216775	-9.767191	2.315205	-1.018892	0.529537	0.639449	-0.500977	-0.028320	0.027588	-73.314910	23.889477	126.279658
05963		-2.928592	-10.046531	2.248976	-0.923745	0.590964	0.851060	-0.499756	-0.013184	0.030029	-73.926633	24.456494	126.078905
05964		-3.457466	-9.867362	2.287000	-0.906186	0.656246	1.057275	-0.494141	-0.017822	0.032471	-74.535088	25.143820	125.866338
05965		-3.271858	-10.298847	2.167754	-0.832015	0.738159	1.233450	-0.481934	-0.017090	0.038086	-75.116806	25.940262	125.623527
05966		-3.391395	-10.496247	2.410305	-0.753675	0.807863	1.456908	-0.485596	-0.010254	0.037354	-75.664474	26.867024	125.363231
05967		-3.623638	-9.952358	2.558295	-0.682813	0.865005	1.671460	-0.465576	0.000732	0.033691	-76.182381	27.920064	125.088691
05968		-3.926323	-9.770683	2.329345	-0.686440	0.930012	1.840438	-0.470459	0.007324	0.030762	-76.720630	29.072378	124.785091
05969		-4.173578	-9.565259	2.156589	-0.711211	0.990972	1.971573	-0.451904	0.007813	0.029785	-77.296873	30.304249	124.445150
05970		-4.191300	-9.463483	2.054323	-0.735500	1.035797	2.128681	-0.445313	0.005371	0.041992	-77.906581	31.625289	124.079392
05971		-4.152191	-9.087108	2.117902	-0.778106	1.073550	2.302525	-0.435059	0.011719	0.032959	-78.561226	33.045721	123.689732
05972		-3.999396	-8.762426	2.408148	-0.830326	1.155597	2.513563	-0.423584	0.021484	0.026367	-79.284279	34.588782	123.245602
05973		-4.124712	-8.572509	2.390906	-0.890112	1.245984	2.751031	-0.411865	0.030518	0.038086	-80.090869	36.270758	122.734663
05974		-4.337064	-8.332165	2.405305	-0.946049	1.359764	2.991465	-0.396973	0.027832	0.040527	-80.999409	38.092077	122.128518
05975		-4.740402	-8.377226	2.114985	-1.017223	1.452783	3.237383	-0.386230	0.041748	0.037354	-82.025637	40.052873	121.425654
05976		-5.229287	-8.299669	1.895484	-1.060425	1.555486	3.484155	-0.366943	0.048340	0.041504	-83.176801	42.150095	120.599155
05977		-5.724282	-8.273097	2.041520	-1.095562	1.644457	3.726154	-0.353516	0.060303	0.044922	-84.466746	44.377411	119.633499
05978		-6.576245	-8.272608	1.839384	-1.107555	1.752838	3.897018	-0.330811	0.059326	0.052734	-85.926904	46.689517	118.477179
05979		-8.023431	-8.982065	1.629572	-1.113328	1.766724	4.035018	-0.306152	0.055664	0.053711	-87.532776	49.058876	117.172647
