// General information: 
//  MT Manager version: 2022.2.0 
//  XDA version: 2022.2.0 build 7381 rev 124627 built on 2023-07-19
// Device information: 
//  DeviceId: 00B4BCF6
//  ProductCode: MTW2-3A7G6
//  Firmware Version: 4.6.0
//  Hardware Version: 2.0.0
// Device settings: 
//  Filter Profile: human(46.1)
//  Option Flags: Orientation Smoother Disabled, Position/Velocity Smoother Disabled, Continuous Zero Rotation Update Disabled, AHS Disabled, ICC Disabled
// Coordinate system: ENU
PacketCounter	SampleTimeFine	Acc_X	Acc_Y	Acc_Z	Gyr_X	Gyr_Y	Gyr_Z	Mag_X	Mag_Y	Mag_Z	Roll	Pitch	Yaw
26501		-1.288303	9.639759	0.998965	0.000913	0.000245	-0.009127	-0.773682	-0.936768	0.149414	83.861011	7.376138	105.319867
26502		-1.268809	9.666999	1.005290	-0.000932	0.007718	-0.003155	-0.765625	-0.939453	0.154541	83.861466	7.374463	105.320760
26503		-1.257596	9.649657	1.042132	-0.002311	0.004412	-0.007366	-0.773682	-0.937988	0.153809	83.860814	7.375329	105.320950
26504		-1.290208	9.639493	0.999075	-0.000701	0.005400	-0.006254	-0.773438	-0.936035	0.149658	83.861206	7.375277	105.320320
26505		-1.245120	9.664355	1.028639	-0.001850	0.005312	-0.004155	-0.767334	-0.932617	0.155029	83.860930	7.374121	105.323543
26506		-1.265761	9.636964	1.022255	0.000217	0.007805	-0.005254	-0.773193	-0.934814	0.151367	83.862033	7.373647	105.324356
26507		-1.285529	9.651713	1.019074	-0.000701	0.005399	-0.006254	-0.779297	-0.934082	0.153809	83.862493	7.373716	105.324825
26508		-1.259769	9.639207	0.988719	-0.003920	0.003424	-0.008481	-0.778564	-0.932373	0.156982	83.860877	7.374812	105.322922
26509		-1.247669	9.663992	1.028960	-0.002317	0.010554	-0.003381	-0.772949	-0.934814	0.158447	83.860952	7.373084	105.330339
26510		-1.268376	9.636573	1.022702	-0.002310	0.004411	-0.007368	-0.777832	-0.936523	0.150391	83.860340	7.373606	105.329073
26511		-1.268941	9.636479	1.022886	-0.002537	0.003355	-0.003551	-0.771729	-0.941406	0.152832	83.859674	7.371833	105.330733
26512		-1.263094	9.648845	1.043003	-0.000701	0.005399	-0.006255	-0.776367	-0.938477	0.161133	83.860066	7.371782	105.330103
26513		-1.256322	9.651192	1.009501	-0.003459	0.004323	-0.005270	-0.780518	-0.941895	0.153809	83.858989	7.371294	105.329691
26514		-1.283395	9.663480	1.040166	-0.001163	0.007267	-0.004762	-0.766113	-0.937744	0.151123	83.859266	7.370507	105.330226
26515		-1.263856	9.638571	0.989703	-0.001617	0.002993	-0.007256	-0.772949	-0.935059	0.161377	83.858928	7.371123	105.331058
26516		-1.272082	9.636007	1.023429	-0.001160	0.004499	-0.009467	-0.776611	-0.937256	0.147461	83.858964	7.372847	105.329713
26517		-1.272753	9.635916	1.023452	-0.000933	0.007716	-0.003156	-0.773193	-0.941162	0.151123	83.859534	7.371170	105.333547
26518		-1.259784	9.650709	1.009800	-0.000010	0.004587	-0.011566	-0.776855	-0.933350	0.159668	83.860220	7.374095	105.332122
26519		-1.260642	9.650586	1.009911	-0.003459	0.004322	-0.005271	-0.770996	-0.941162	0.157959	83.859108	7.373446	105.333480
26520		-1.275049	9.635591	1.023658	-0.000237	0.003531	-0.007749	-0.770996	-0.935791	0.156006	83.859616	7.374132	105.331684
26521		-1.262014	9.650373	1.010228	-0.004375	0.001915	-0.006272	-0.775879	-0.940918	0.162842	83.857832	7.374162	105.327738
26522		-1.276417	9.635365	1.024078	-0.000924	0.001574	-0.007144	-0.773926	-0.939453	0.154541	83.857807	7.374383	105.324856
26523		-1.282480	9.664974	1.007411	-0.001387	0.003442	-0.005651	-0.766113	-0.944824	0.157227	83.857926	7.374010	105.323645
26524		-1.296759	9.649990	1.021162	-0.002073	0.001486	-0.005045	-0.778564	-0.939453	0.163818	83.857252	7.373030	105.320842
26525		-1.271795	9.647533	1.044569	-0.004151	0.005739	-0.005385	-0.777832	-0.938965	0.158203	83.856003	7.372860	105.318025
26526		-1.264971	9.649904	1.011012	0.000908	0.006387	-0.005142	-0.768066	-0.934570	0.153564	83.857399	7.372236	105.318031
26527		-1.265555	9.649829	1.010997	-0.002079	0.004860	-0.005764	-0.771484	-0.942871	0.154297	83.857121	7.371980	105.318032
26528		-1.291660	9.652089	0.987979	-0.002079	0.004859	-0.005765	-0.773438	-0.933105	0.148682	83.856687	7.371617	105.317122
26529		-1.285878	9.664443	1.008176	-0.003235	0.008144	-0.004385	-0.766846	-0.932861	0.163086	83.855784	7.370879	105.321333
26530		-1.260913	9.662005	1.031475	-0.001856	0.008683	-0.004877	-0.768311	-0.938232	0.153564	83.855768	7.370245	105.322675
26531		-1.287977	9.622120	1.005043	-0.000706	0.008772	-0.006976	-0.770020	-0.939941	0.154053	83.856660	7.371141	105.319594
26532		-1.268554	9.649375	1.011570	-0.003928	0.009561	-0.004499	-0.770996	-0.937988	0.155273	83.855524	7.370345	105.321463
26533		-1.269100	9.649299	1.011614	0.000909	0.006387	-0.005143	-0.775879	-0.935791	0.158936	83.856989	7.370062	105.321367
26534		-1.283521	9.634295	1.025265	-0.003692	0.007244	-0.007599	-0.766602	-0.935791	0.154785	83.855792	7.370891	105.321714
26535		-1.270444	9.649115	1.011675	0.001131	0.010210	-0.004255	-0.769775	-0.941406	0.156494	83.857815	7.370145	105.323147
26536		-1.296529	9.651393	0.988405	-0.001391	0.006815	-0.006372	-0.773682	-0.942871	0.156494	83.857915	7.370247	105.323323
26537		-1.265395	9.661402	1.031633	-0.000698	0.005397	-0.006258	-0.773926	-0.933105	0.158447	83.858432	7.370608	105.322062
26538		-1.239478	9.648987	1.001173	-0.001391	0.006815	-0.006372	-0.768066	-0.938232	0.152344	83.858533	7.370712	105.322238
26539		-1.305910	9.648641	1.022239	-0.003457	0.004319	-0.005275	-0.770508	-0.934814	0.157471	83.857418	7.370196	105.321052
26540		-1.279154	9.678363	0.995152	-0.000240	0.006904	-0.008471	-0.773682	-0.935303	0.148193	83.858168	7.371501	105.321150
26541		-1.281972	9.646077	1.045574	-0.002305	0.004408	-0.007374	-0.771729	-0.937500	0.149170	83.857597	7.372112	105.322235
26542		-1.256193	9.633649	1.015132	0.000925	0.000246	-0.009131	-0.775879	-0.939941	0.165039	83.858518	7.373384	105.318467
26543		-1.289809	9.633426	1.025541	-0.001163	0.007264	-0.004766	-0.780273	-0.937256	0.161865	83.858996	7.372735	105.319511
26544		-1.251203	9.645925	1.035164	-0.001391	0.006814	-0.006373	-0.769775	-0.941162	0.157471	83.859096	7.372839	105.319687
26545		-1.296601	9.662938	1.008865	-0.000926	0.004947	-0.007866	-0.768799	-0.931641	0.154785	83.859630	7.373758	105.318320
26546		-1.258987	9.633279	1.015181	-0.000698	0.005397	-0.006259	-0.769287	-0.933105	0.147217	83.860024	7.373710	105.317688
26547		-1.272521	9.660420	1.032062	-0.000698	0.005397	-0.006260	-0.768555	-0.940918	0.156738	83.860382	7.373797	105.318979
26548		-1.271988	9.650352	0.978541	-0.003456	0.004317	-0.005277	-0.768555	-0.937500	0.158203	83.859123	7.373124	105.317789
26549		-1.247221	9.647923	1.001814	0.000454	0.005486	-0.008358	-0.772217	-0.934570	0.158203	83.860353	7.374720	105.314083
26550		-1.280889	9.647657	1.012414	-0.005063	0.003327	-0.006393	-0.764404	-0.935547	0.157715	83.858092	7.374622	105.312255
26551		-1.262417	9.632768	1.015770	-0.000705	0.008770	-0.006980	-0.768066	-0.941162	0.155273	83.858980	7.375449	105.310508
26552		-1.287737	9.677143	0.995943	-0.002770	0.006273	-0.005883	-0.771240	-0.944580	0.151367	83.858254	7.375241	105.310404
26553		-1.270054	9.620112	0.996026	-0.002990	0.002450	-0.006771	-0.767090	-0.928711	0.149414	83.857068	7.375868	105.308491
26554		-1.283552	9.647237	1.013045	-0.001164	0.007263	-0.004767	-0.774170	-0.938721	0.154053	83.857345	7.375085	105.309024
26555		-1.244926	9.659774	1.022637	-0.000478	0.009219	-0.005373	-0.768799	-0.937988	0.155518	83.858146	7.374856	105.313369
26556		-1.271009	9.661997	0.999600	-0.004368	0.001910	-0.006281	-0.775879	-0.937256	0.152100	83.856180	7.374607	105.310734
26557		-1.285462	9.646958	1.013274	0.001842	0.002653	-0.008131	-0.773438	-0.939941	0.153564	83.857867	7.375625	105.310334
26558		-1.246837	9.659516	1.022737	0.000451	0.004880	-0.002932	-0.775879	-0.937744	0.155518	83.858907	7.373650	105.309611
26559		-1.312089	9.649124	0.990025	-0.003909	0.003416	-0.008494	-0.776123	-0.935303	0.153809	83.857381	7.374845	105.310461
26560		-1.281094	9.659143	1.033411	-0.000003	0.003979	-0.006147	-0.770264	-0.939453	0.156250	83.858069	7.374647	105.309022
26561		-1.288053	9.646599	1.013402	-0.001609	0.002989	-0.007264	-0.777588	-0.937500	0.160156	83.857873	7.375127	105.308628
26562		-1.282475	9.658950	1.033502	-0.000697	0.005396	-0.006262	-0.768066	-0.932617	0.150879	83.858267	7.375081	105.307996
26563		-1.270205	9.631657	1.016597	-0.000003	0.003979	-0.006147	-0.779053	-0.934570	0.157715	83.859120	7.374895	105.307863
26564		-1.270101	9.673705	1.019982	-0.002997	0.005821	-0.007493	-0.770752	-0.941406	0.160156	83.858218	7.375576	105.307400
26565		-1.271530	9.631457	1.016842	-0.001849	0.005305	-0.004164	-0.770264	-0.941162	0.154053	83.858263	7.374347	105.307053
26566		-1.285113	9.658576	1.033718	0.000456	0.005486	-0.008360	-0.766602	-0.930664	0.156982	83.859308	7.375502	105.306344
26567		-1.253743	9.616525	1.019926	-0.000003	0.003979	-0.006148	-0.766113	-0.940674	0.153564	83.860125	7.375606	105.303416
26568		-1.279030	9.660900	0.999967	-0.000003	0.003979	-0.006148	-0.769287	-0.941406	0.158203	83.860814	7.375409	105.301978
26569		-1.307183	9.630910	1.027168	-0.002302	0.004404	-0.007380	-0.769043	-0.933350	0.152344	83.860287	7.376520	105.298360
26570		-1.261249	9.645934	1.003406	-0.002987	0.002448	-0.006774	-0.766846	-0.938965	0.156006	83.859148	7.376586	105.296003
26571		-1.261842	9.645844	1.003521	-0.000470	0.005845	-0.004655	-0.767578	-0.926514	0.153564	83.859776	7.375990	105.295236
26572		-1.314694	9.660295	1.010761	-0.001149	0.004494	-0.009478	-0.777344	-0.936523	0.152832	83.859819	7.377722	105.293888
26573		-1.263247	9.645657	1.003557	-0.000938	0.007711	-0.003162	-0.773193	-0.934082	0.150635	83.860356	7.375916	105.297962
26574		-1.265067	9.655543	1.057111	0.001845	0.002653	-0.008132	-0.777344	-0.935059	0.153809	83.861990	7.376768	105.295640
26575		-1.277473	9.672695	1.020356	-0.003455	0.004313	-0.005282	-0.775391	-0.934570	0.155762	83.860746	7.375955	105.299720
26576		-1.257688	9.647882	0.970184	-0.004375	0.005279	-0.007005	-0.771240	-0.941162	0.157715	83.859019	7.376326	105.298976
26577		-1.285020	9.660014	1.000847	-0.001381	0.003438	-0.005658	-0.769287	-0.940186	0.156006	83.859069	7.375923	105.298061
26578		-1.247213	9.630439	1.007310	-0.002075	0.004854	-0.005773	-0.777832	-0.935059	0.158447	83.858638	7.375566	105.297149
26579		-1.293882	9.657315	1.034564	0.000448	0.008858	-0.009082	-0.773438	-0.930176	0.151123	83.860135	7.377419	105.298988
26580		-1.287009	9.659735	1.000984	-0.003003	0.005213	-0.002067	-0.771729	-0.939697	0.150635	83.859228	7.374972	105.298511
26581		-1.275886	9.642399	1.037887	-0.000453	0.003078	-0.009365	-0.768799	-0.942383	0.159668	83.859497	7.376592	105.300848
26582		-1.275446	9.632344	0.984249	-0.001390	0.006810	-0.006379	-0.773193	-0.933594	0.148926	83.859598	7.376700	105.301023
26583		-1.263579	9.657155	1.024492	-0.002760	0.002896	-0.005169	-0.771973	-0.938965	0.155029	83.858690	7.376140	105.299887
26584		-1.270394	9.644604	1.004648	-0.002770	0.006269	-0.005889	-0.778320	-0.935303	0.157959	83.857964	7.375936	105.299781
26585		-1.278531	9.641999	1.038351	-0.000696	0.005394	-0.006265	-0.769287	-0.934814	0.149902	83.858554	7.375858	105.301492
26586		-1.271684	9.644427	1.004715	-0.000001	0.003978	-0.006150	-0.773682	-0.931396	0.161865	83.859244	7.375662	105.300054
26587		-1.272520	9.644322	1.004671	-0.000462	0.006450	-0.010087	-0.776855	-0.932373	0.157471	83.860015	7.377850	105.300152
26588		-1.280715	9.641722	1.038233	-0.000245	0.006294	-0.003049	-0.767090	-0.936768	0.155273	83.860760	7.376029	105.300237
26589		-1.260087	9.659112	0.991185	-0.003209	0.001995	-0.008386	-0.767334	-0.941162	0.154541	83.859649	7.377016	105.297871
26590		-1.287553	9.671208	1.021775	-0.001390	0.006809	-0.006381	-0.768311	-0.939453	0.159912	83.859750	7.377124	105.298046
26591		-1.262297	9.616741	0.988139	-0.002300	0.004402	-0.007384	-0.772217	-0.932373	0.158203	83.859296	7.378208	105.293300
26592		-1.302606	9.656034	1.035570	-0.001850	0.005302	-0.004167	-0.767822	-0.938721	0.159668	83.859040	7.376964	105.292745
26593		-1.283941	9.641233	1.038785	-0.000001	0.003978	-0.006151	-0.764404	-0.931396	0.151611	83.860036	7.376941	105.288609
26594		-1.277105	9.643650	1.005306	-0.003678	0.003860	-0.006894	-0.774170	-0.943115	0.155518	83.858605	7.377162	105.287057
26595		-1.277760	9.643540	1.005527	-0.002074	0.004852	-0.005776	-0.774902	-0.930664	0.158203	83.858183	7.377136	105.286778
26596		-1.264821	9.658401	0.992076	-0.001145	0.004493	-0.009483	-0.768555	-0.934326	0.149414	83.858229	7.378871	105.285429
26597		-1.280700	9.653231	1.059397	-0.002299	0.004401	-0.007385	-0.775391	-0.940918	0.158936	83.857717	7.379348	105.286522
26598		-1.273823	9.655651	1.025979	-0.003240	0.008132	-0.004399	-0.761963	-0.935791	0.154053	83.856872	7.378409	105.287579
26599		-1.261322	9.628404	1.009199	-0.000471	0.005844	-0.004658	-0.772705	-0.931641	0.157959	83.857584	7.377880	105.285339
26600		-1.281082	9.643033	1.006157	-0.004148	0.005725	-0.005403	-0.776855	-0.937012	0.158691	83.856033	7.377366	105.284951
26601		-1.293412	9.660161	0.969667	-0.004159	0.009097	-0.006123	-0.774170	-0.941650	0.156006	83.855033	7.377296	105.287376
26602		-1.282395	9.642810	1.006628	-0.001390	0.006808	-0.006382	-0.775146	-0.937988	0.150879	83.855135	7.377407	105.287549
26603		-1.269371	9.657693	0.993161	-0.002085	0.008223	-0.006498	-0.771729	-0.935303	0.163574	83.854940	7.377809	105.292458
26604		-1.283785	9.642586	1.006994	-0.005751	0.004732	-0.006523	-0.776855	-0.940430	0.151367	83.852389	7.377872	105.291430
26605		-1.264462	9.669909	1.013876	-0.003240	0.008131	-0.004400	-0.771484	-0.942383	0.158447	83.851775	7.376976	105.293460
26606		-1.284768	9.642394	1.007584	-0.003700	0.006625	-0.002187	-0.769287	-0.941895	0.157471	83.850573	7.374685	105.293788
26607		-1.253706	9.652474	1.051289	-0.005279	0.002866	-0.008017	-0.773926	-0.933594	0.150635	83.848327	7.375977	105.289240
26608		-1.272365	9.657124	0.994863	-0.005066	0.006688	-0.007129	-0.766846	-0.940918	0.157959	83.846308	7.376506	105.289298
26609		-1.306002	9.656717	1.005490	-0.002768	0.006266	-0.005894	-0.778076	-0.937500	0.145752	83.845644	7.376565	105.289848
26610		-1.262017	9.639658	1.032049	-0.000694	0.005393	-0.006268	-0.781494	-0.940918	0.155273	83.846041	7.376523	105.289215
26611		-1.268833	9.627118	1.012047	-0.002073	0.004851	-0.005779	-0.768799	-0.930664	0.159424	83.845502	7.375979	105.297615
26612		-1.274969	9.656726	0.995388	-0.000693	0.005393	-0.006268	-0.768066	-0.937256	0.155029	83.845899	7.375937	105.296984
26613		-1.296964	9.639073	1.042641	-0.003687	0.007230	-0.007619	-0.773926	-0.940918	0.157471	83.844955	7.376979	105.294321
26614		-1.270121	9.668974	1.015720	-0.000942	0.007708	-0.003166	-0.769287	-0.935791	0.151123	83.845405	7.375312	105.295211
26615		-1.284476	9.653885	1.029311	-0.001824	0.002535	-0.008881	-0.771484	-0.936768	0.159180	83.844981	7.376830	105.294007
26616		-1.277803	9.656316	0.995730	0.000463	0.005485	-0.008367	-0.768555	-0.936768	0.159668	83.846031	7.377990	105.293299
26617		-1.272468	9.668661	1.015759	-0.000916	0.004942	-0.007878	-0.772705	-0.941406	0.154541	83.846590	7.379068	105.288874
26618		-1.267654	9.638865	1.032543	-0.001377	0.003435	-0.005664	-0.769043	-0.933105	0.155518	83.846456	7.378563	105.287155
26619		-1.279981	9.656029	0.995716	0.000686	0.005935	-0.006758	-0.774170	-0.938965	0.153809	83.847781	7.379058	105.287255
26620		-1.288870	9.611245	1.025889	-0.000693	0.005392	-0.006269	-0.776611	-0.940918	0.160156	83.848178	7.379017	105.286622
26621		-1.255979	9.653603	1.019009	-0.002295	0.004399	-0.007390	-0.779785	-0.937744	0.153564	83.847765	7.379627	105.287207
26622		-1.295751	9.640751	1.009241	0.000909	0.006385	-0.005149	-0.773682	-0.937256	0.158203	83.849163	7.379009	105.287214
26623		-1.263560	9.640972	0.998874	-0.001138	0.004491	-0.009488	-0.777588	-0.942871	0.151611	83.849382	7.380619	105.289659
26624		-1.277447	9.668004	1.015766	-0.000693	0.005392	-0.006270	-0.769043	-0.935059	0.154297	83.849779	7.380578	105.289027
26625		-1.252703	9.665687	1.039028	0.000003	0.003977	-0.006154	-0.766357	-0.932861	0.156006	83.850450	7.380560	105.291143
26626		-1.311771	9.667503	1.026029	-0.000915	0.004941	-0.007880	-0.771240	-0.934570	0.148193	83.850674	7.381409	105.290153
26627		-1.280175	9.625594	1.012259	0.001592	0.008342	-0.005755	-0.777832	-0.940430	0.162354	83.852581	7.381443	105.292382
26628		-1.260941	9.652968	1.018891	-0.004357	0.001898	-0.006297	-0.768311	-0.942139	0.154053	83.850621	7.381204	105.289741
26629		-1.274635	9.679987	1.036118	-0.004147	0.005720	-0.005409	-0.777100	-0.934814	0.153320	83.849294	7.380973	105.288893
26630		-1.256539	9.623065	1.036199	-0.001849	0.005299	-0.004173	-0.774170	-0.939209	0.163330	83.849039	7.379732	105.288338
26631		-1.274432	9.669905	0.982726	-0.000441	0.003076	-0.009373	-0.775391	-0.942871	0.157959	83.849683	7.381214	105.287735
26632		-1.269690	9.640109	0.999428	0.000004	0.003977	-0.006155	-0.777100	-0.937012	0.157227	83.850376	7.381022	105.286297
26633		-1.283383	9.667150	1.016405	-0.003451	0.004305	-0.005294	-0.773926	-0.935547	0.156494	83.849342	7.380375	105.287547
26634		-1.290044	9.654617	0.996424	0.000226	0.004428	-0.004545	-0.768799	-0.933350	0.160156	83.850209	7.379293	105.286467
26635		-1.251582	9.667335	1.006165	-0.000218	0.003527	-0.007765	-0.768799	-0.938232	0.153809	83.851033	7.380024	105.283232
26636		-1.266168	9.652200	1.019686	-0.001136	0.004490	-0.009491	-0.778809	-0.940918	0.159912	83.851084	7.381763	105.281882
26637		-1.266966	9.652095	1.019687	0.000004	0.003977	-0.006155	-0.778320	-0.933105	0.149902	83.851945	7.381726	105.281670
26638		-1.286988	9.666668	1.016433	-0.000927	0.008311	-0.008603	-0.779053	-0.940186	0.151123	83.852405	7.383194	105.282571
26639		-1.262869	9.622228	1.036274	0.001131	0.006835	-0.003541	-0.770020	-0.928955	0.148438	83.853867	7.381418	105.292629
26640		-1.268941	9.651861	1.019449	-0.000692	0.005390	-0.006272	-0.770508	-0.938232	0.150146	83.854265	7.381379	105.291996
26641		-1.288810	9.666443	1.016269	-0.001375	0.003433	-0.005667	-0.776855	-0.940918	0.155518	83.853957	7.380990	105.294163
26642		-1.275708	9.681373	1.002906	-0.002767	0.006261	-0.005901	-0.775391	-0.937012	0.152100	83.853233	7.380793	105.294054
26643		-1.270905	9.651570	1.019763	-0.001610	0.006353	-0.007999	-0.762939	-0.944092	0.156250	83.853192	7.381798	105.299461
26644		-1.283139	9.668735	0.982912	0.001144	0.003464	-0.002820	-0.776123	-0.932373	0.157715	83.854527	7.379674	105.297936
26645		-1.271983	9.651411	1.019917	-0.006443	0.006136	-0.006651	-0.781494	-0.943359	0.159912	83.851857	7.380260	105.295139
26646		-1.272803	9.651274	1.020191	-0.000438	0.003075	-0.009376	-0.777100	-0.931396	0.154053	83.852206	7.381847	105.292986
26647		-1.273500	9.651176	1.020248	-0.001849	0.005297	-0.004175	-0.772217	-0.944336	0.156982	83.852189	7.380306	105.298766
26648		-1.279652	9.680774	1.003662	-0.002292	0.004396	-0.007395	-0.774414	-0.941895	0.152344	83.851588	7.380845	105.297493
26649		-1.274791	9.650975	1.020538	-0.002071	0.004846	-0.005785	-0.772705	-0.937500	0.149902	83.851164	7.380892	105.298974
26650		-1.274922	9.693013	1.024079	-0.002988	0.005809	-0.007512	-0.771484	-0.937500	0.150879	83.850267	7.381585	105.298506
26651		-1.250870	9.648562	1.044070	0.000688	0.005934	-0.006762	-0.772461	-0.926270	0.158447	83.851339	7.382058	105.302326
26652		-1.296216	9.665322	1.017505	-0.001595	0.002982	-0.007279	-0.774414	-0.932373	0.157959	83.851034	7.382444	105.300249
26653		-1.265808	9.633344	1.057744	-0.003704	0.006616	-0.002195	-0.772217	-0.938965	0.149902	83.850214	7.379796	105.301026
26654		-1.264354	9.665527	1.007570	-0.000926	0.008310	-0.008606	-0.771973	-0.942627	0.157959	83.850675	7.381265	105.301927
26655		-1.278860	9.650369	1.021179	-0.002973	0.002437	-0.006791	-0.772461	-0.932861	0.148926	83.849536	7.381700	105.301253
26656		-1.304864	9.652457	0.998049	-0.002070	0.004845	-0.005786	-0.782471	-0.934814	0.156494	83.849108	7.381351	105.300339
26657		-1.274633	9.620464	1.038248	-0.002291	0.004395	-0.007397	-0.781738	-0.932617	0.156738	83.848560	7.381552	105.307002
26658		-1.274774	9.662505	1.041771	-0.002070	0.004845	-0.005787	-0.772949	-0.943604	0.158691	83.848132	7.381202	105.306089
26659		-1.254769	9.637870	0.991526	-0.003208	0.005357	-0.009124	-0.776367	-0.934326	0.152344	83.847326	7.382655	105.310057
26660		-1.268583	9.664878	1.008476	-0.000250	0.006291	-0.003054	-0.772705	-0.941650	0.153809	83.848070	7.380838	105.310143
26661		-1.282937	9.649748	1.021932	-0.000435	0.003075	-0.009378	-0.776855	-0.937256	0.152588	83.848421	7.382497	105.312664
26662		-1.277659	9.662094	1.042052	-0.001388	0.006802	-0.006392	-0.771240	-0.932373	0.158691	83.848524	7.382613	105.312838
26663		-1.270652	9.664592	1.008614	-0.002752	0.002887	-0.005183	-0.772217	-0.936768	0.155029	83.847744	7.381722	105.313392
26664		-1.259661	9.647246	1.045652	-0.002987	0.005807	-0.007515	-0.776367	-0.939941	0.150146	83.846848	7.382416	105.312924
26665		-1.260398	9.647136	1.045783	-0.001388	0.006802	-0.006393	-0.768555	-0.935303	0.156494	83.846920	7.382645	105.317769
26666		-1.272692	9.664277	1.009060	-0.002070	0.004844	-0.005788	-0.773193	-0.942383	0.161865	83.846493	7.382296	105.316855
26667		-1.292934	9.636695	1.002550	-0.001629	0.005746	-0.002567	-0.768311	-0.941162	0.153564	83.846706	7.380480	105.313398
26668		-1.254478	9.649489	1.012424	-0.000228	0.006896	-0.008491	-0.773926	-0.933105	0.151611	83.847464	7.381797	105.313496
26669		-1.247659	9.651958	0.979100	-0.005949	0.000896	-0.007430	-0.771729	-0.935791	0.156982	83.844479	7.382388	105.311229
26670		-1.281212	9.651426	0.989658	-0.002342	0.010529	-0.003407	-0.782959	-0.944092	0.159180	83.844333	7.381032	105.313728
26671		-1.283188	9.661205	1.043501	-0.003228	0.004750	-0.003691	-0.766846	-0.934814	0.154297	83.843514	7.379451	105.317633
26672		-1.262838	9.636630	0.993339	-0.003448	0.004299	-0.005302	-0.770996	-0.931152	0.157959	83.842260	7.378791	105.316437
26673		-1.290349	9.648549	1.023921	-0.003463	0.007669	-0.006024	-0.773682	-0.936279	0.154541	83.841445	7.378903	105.313228
26674		-1.271238	9.675952	1.030791	-0.003463	0.007669	-0.006024	-0.776611	-0.936523	0.158936	83.840426	7.378863	105.313922
26675		-1.272549	9.633693	1.027443	0.000455	0.008853	-0.009097	-0.776123	-0.935791	0.155029	83.841941	7.380584	105.317979
26676		-1.265580	9.636200	0.994015	-0.005305	0.005617	-0.003322	-0.774658	-0.939697	0.151367	83.839737	7.378878	105.317663
26677		-1.292904	9.648135	1.024599	-0.002343	0.010528	-0.003408	-0.769775	-0.933105	0.160156	83.839616	7.377539	105.325423
26678		-1.260574	9.648489	1.014376	0.000471	0.005483	-0.008375	-0.775635	-0.937744	0.158936	83.840671	7.378703	105.324717
26679		-1.305905	9.665193	0.987751	-0.001370	0.003431	-0.005673	-0.764160	-0.932617	0.158936	83.840920	7.378232	105.321338
26680		-1.255824	9.660765	1.034559	-0.001370	0.003431	-0.005673	-0.767334	-0.941406	0.153076	83.840790	7.377731	105.319619
26681		-1.301636	9.635304	1.004657	-0.002303	0.007763	-0.008124	-0.770752	-0.945068	0.156738	83.840554	7.379459	105.312947
26682		-1.282641	9.662721	1.011365	-0.000689	0.005388	-0.006278	-0.768799	-0.936768	0.158691	83.840954	7.379423	105.312316
26683		-1.277802	9.632929	1.028089	-0.000907	0.004938	-0.007889	-0.776611	-0.935303	0.156494	83.841372	7.380776	105.307858
26684		-1.297854	9.647438	1.024902	-0.001589	0.002980	-0.007284	-0.771240	-0.935791	0.144043	83.841071	7.381165	105.305781
26685		-1.271573	9.635328	0.994815	-0.004144	0.005710	-0.005422	-0.765381	-0.932617	0.152832	83.839411	7.380663	105.311001
26686		-1.273945	9.645045	1.048654	-0.000428	0.003075	-0.009382	-0.767822	-0.926025	0.153809	83.839765	7.382253	105.308848
26687		-1.286319	9.662192	1.011747	0.000909	0.006384	-0.005154	-0.763428	-0.939453	0.156006	83.841261	7.381757	105.305044
26688		-1.261621	9.659969	1.034936	0.001389	0.004521	-0.006647	-0.777100	-0.943115	0.152588	83.842784	7.381879	105.303892
26689		-1.274297	9.634990	0.994605	-0.000470	0.005838	-0.004668	-0.767334	-0.932373	0.148926	83.843365	7.381453	105.303064
26690		-1.295806	9.659368	1.044907	0.001389	0.004521	-0.006648	-0.775146	-0.934082	0.164307	83.844889	7.381574	105.301912
26691		-1.281239	9.664519	0.977722	-0.001604	0.006349	-0.008008	-0.775146	-0.947021	0.152832	83.845062	7.382592	105.300829
26692		-1.256668	9.662264	1.001133	-0.000688	0.005387	-0.006279	-0.765381	-0.944580	0.149658	83.845463	7.382557	105.300198
26693		-1.264995	9.659530	1.034917	-0.005044	0.003299	-0.006431	-0.776123	-0.933838	0.159424	83.843005	7.383219	105.299857
26694		-1.271581	9.646971	1.015083	-0.001849	0.005292	-0.004182	-0.770996	-0.942139	0.156250	83.842750	7.381983	105.299301
26695		-1.291438	9.661482	1.012001	-0.002966	0.002433	-0.006800	-0.772949	-0.936768	0.162842	83.841883	7.382153	105.297341
26696		-1.286581	9.631669	1.028947	-0.002983	0.005803	-0.007523	-0.771973	-0.935303	0.150879	83.840989	7.382852	105.296871
26697		-1.273667	9.646629	1.015714	-0.002983	0.005802	-0.007523	-0.774658	-0.932373	0.146729	83.840322	7.383616	105.296481
26698		-1.274390	9.646522	1.015820	-0.000688	0.005387	-0.006280	-0.768311	-0.939941	0.162842	83.840723	7.383582	105.295849
26699		-1.280733	9.676110	0.999144	-0.001604	0.006348	-0.008010	-0.772217	-0.928467	0.153076	83.840770	7.384734	105.296222
26700		-1.275887	9.646317	1.015891	-0.000688	0.005387	-0.006280	-0.777832	-0.940186	0.151611	83.841170	7.384700	105.295591
26701		-1.268713	9.648865	0.982527	-0.004607	0.004199	-0.003210	-0.767090	-0.941162	0.149902	83.839296	7.382698	105.299715
26702		-1.282865	9.633701	0.996079	0.000909	0.006384	-0.005155	-0.767090	-0.935547	0.151123	83.840695	7.382084	105.299726
26703		-1.257851	9.673605	1.022956	-0.003881	0.003393	-0.008531	-0.775391	-0.933838	0.153564	83.838959	7.383750	105.296797
26704		-1.258910	9.631353	1.019745	-0.001151	0.003880	-0.004065	-0.766602	-0.939453	0.158691	83.839000	7.382361	105.295437
26705		-1.272600	9.658337	1.036724	-0.002530	0.003333	-0.003578	-0.768311	-0.938965	0.157227	83.838401	7.380845	105.292975
26706		-1.279130	9.645802	1.016704	-0.000687	0.005387	-0.006281	-0.773926	-0.934570	0.155029	83.838802	7.380812	105.292343
26707		-1.285444	9.675400	0.999972	-0.000705	0.008756	-0.007004	-0.769043	-0.933594	0.156982	83.839618	7.381582	105.292937
26708		-1.280539	9.645599	1.016856	-0.004343	0.001885	-0.006316	-0.771240	-0.933594	0.161621	83.837665	7.381353	105.290292
26709		-1.248150	9.645990	1.007058	-0.004144	0.005705	-0.005427	-0.770752	-0.937500	0.153320	83.836486	7.380924	105.286590
26710		-1.281716	9.645396	1.017295	0.000909	0.006384	-0.005156	-0.764648	-0.927979	0.159424	83.837884	7.380311	105.286602
26711		-1.295613	9.672362	1.034135	-0.001567	-0.000392	-0.006565	-0.768066	-0.933350	0.154297	83.837574	7.380272	105.279508
26712		-1.249962	9.645740	1.007210	-0.000687	0.005387	-0.006282	-0.770508	-0.933838	0.152588	83.837975	7.380239	105.278877
26713		-1.272089	9.627891	1.054206	-0.000904	0.004936	-0.007894	-0.770752	-0.940918	0.154785	83.838279	7.381248	105.278112
26714		-1.278408	9.657478	1.037580	-0.002066	0.004840	-0.005796	-0.775635	-0.940918	0.151123	83.837854	7.380905	105.277196
26715		-1.271305	9.660037	1.004140	-0.001367	0.003428	-0.005677	-0.775146	-0.936035	0.149658	83.837709	7.380684	105.278516
26716		-1.252685	9.645349	1.007570	-0.002981	0.005800	-0.007527	-0.778564	-0.939941	0.153076	83.836816	7.381386	105.278045
26717		-1.278726	9.647362	0.984306	-0.000885	0.001566	-0.007171	-0.776611	-0.936523	0.153076	83.836779	7.381564	105.281954
26718		-1.267669	9.630054	1.021167	-0.000952	0.007699	-0.003177	-0.772217	-0.941406	0.158447	83.837224	7.379905	105.282843
26719		-1.267842	9.672125	1.024616	-0.000885	0.001566	-0.007171	-0.771484	-0.935303	0.166260	83.837376	7.380247	105.282215
26720		-1.268604	9.672020	1.024662	-0.000903	0.004935	-0.007895	-0.772705	-0.928955	0.157227	83.837607	7.381105	105.281224
26721		-1.289167	9.644329	1.017997	-0.001120	0.004484	-0.009507	-0.768799	-0.940186	0.156982	83.838170	7.382740	105.276865
26722		-1.264613	9.642112	1.041417	-0.000470	0.005837	-0.004671	-0.771729	-0.935059	0.159912	83.838742	7.381818	105.276592
26723		-1.269137	9.661910	0.971102	-0.002282	0.004388	-0.007409	-0.771973	-0.930908	0.155273	83.838411	7.382627	105.272863
26724		-1.252093	9.657067	1.028069	0.001144	0.003465	-0.002821	-0.768799	-0.935547	0.147949	83.839747	7.380505	105.271343
26725		-1.283839	9.646645	0.984674	-0.005040	0.003293	-0.006438	-0.777832	-0.935303	0.153320	83.837493	7.380519	105.271663
26726		-1.273061	9.629277	1.021779	-0.001818	0.005895	-0.009627	-0.769287	-0.932129	0.161621	83.837257	7.382422	105.271116
26727		-1.298810	9.673412	1.001932	-0.002765	0.006249	-0.005917	-0.775391	-0.943359	0.153564	83.836814	7.382140	105.271766
26728		-1.280131	9.658752	1.005285	0.000013	0.003975	-0.006165	-0.773682	-0.936523	0.142822	83.837514	7.381954	105.270331
26729		-1.261514	9.644088	1.008629	-0.002281	0.004387	-0.007411	-0.770996	-0.944336	0.151855	83.836699	7.382691	105.275940
26730		-1.262148	9.643997	1.008697	-0.000470	0.005836	-0.004672	-0.775146	-0.947754	0.152344	83.837271	7.381768	105.275667
26731		-1.262733	9.643922	1.008682	-0.000686	0.005385	-0.006284	-0.772461	-0.936035	0.163574	83.837566	7.382259	105.278234
26732		-1.282862	9.658376	1.005417	-0.001118	0.004483	-0.009509	-0.770508	-0.928711	0.151123	83.837628	7.384009	105.276885
26733		-1.277905	9.628597	1.022143	-0.000954	0.007698	-0.003179	-0.772949	-0.931152	0.156738	83.838362	7.382306	105.276933
26734		-1.270510	9.673324	0.992023	-0.000418	0.003072	-0.009390	-0.771729	-0.938965	0.144531	83.838722	7.383902	105.274780
26735		-1.265703	9.643536	1.008657	0.000693	0.005932	-0.006770	-0.771240	-0.941406	0.157959	83.839905	7.384250	105.278164
26736		-1.280075	9.628324	1.021997	-0.000686	0.005385	-0.006285	-0.773926	-0.936279	0.159424	83.840307	7.384219	105.277533
26737		-1.267113	9.643360	1.008572	-0.000202	0.003523	-0.007778	-0.767822	-0.943848	0.156738	83.841118	7.385109	105.274890
26738		-1.261897	9.655722	1.028716	-0.001385	0.006795	-0.006405	-0.776611	-0.941895	0.144531	83.841223	7.385233	105.275061
26739		-1.287857	9.657720	1.005333	-0.001385	0.006795	-0.006405	-0.772217	-0.937256	0.162354	83.841196	7.385775	105.278644
26740		-1.255409	9.658220	0.995277	-0.001150	0.003877	-0.004069	-0.772461	-0.937012	0.157471	83.841238	7.384389	105.277284
26741		-1.288773	9.657575	1.005554	-0.003713	0.006601	-0.002210	-0.769287	-0.933594	0.150635	83.840385	7.382218	105.275909
26742		-1.264050	9.655383	1.029258	-0.003678	0.007206	-0.007652	-0.780273	-0.932373	0.155029	83.839196	7.383078	105.276240
26743		-1.270831	9.642793	1.009315	-0.002299	0.007754	-0.008138	-0.768555	-0.939697	0.156250	83.838928	7.384087	105.281070
26744		-1.290817	9.657242	1.006131	-0.001849	0.005287	-0.004188	-0.766113	-0.933594	0.162354	83.838674	7.382856	105.280513
26745		-1.272049	9.642601	1.009606	-0.003463	0.007657	-0.006040	-0.774414	-0.944092	0.160400	83.837964	7.383185	105.275872
26746		-1.291987	9.657052	1.006456	-0.001869	0.008656	-0.004913	-0.762451	-0.941162	0.148926	83.837941	7.382574	105.277204
26747		-1.281124	9.639719	1.043393	-0.002299	0.007754	-0.008139	-0.773682	-0.937988	0.155762	83.837625	7.384319	105.276123
26748		-1.279625	9.672003	0.993186	-0.000255	0.006286	-0.003061	-0.768311	-0.937012	0.155029	83.838366	7.382508	105.276209
26749		-1.249372	9.640150	1.033309	-0.000414	0.003072	-0.009393	-0.770264	-0.927246	0.146973	83.838878	7.384314	105.273972
26750		-1.288986	9.626975	1.023502	-0.006006	0.007011	-0.003459	-0.773926	-0.934326	0.153564	83.836374	7.382774	105.274450
26751		-1.275873	9.642023	1.010305	-0.000005	0.007342	-0.006892	-0.770020	-0.941162	0.157471	83.837313	7.383102	105.278744
26752		-1.284056	9.681394	1.047234	-0.000684	0.005384	-0.006287	-0.776855	-0.935303	0.160889	83.837716	7.383073	105.278112
26753		-1.269368	9.644543	0.976776	-0.001849	0.005286	-0.004190	-0.771484	-0.932861	0.150635	83.837778	7.381947	105.276903
26754		-1.291050	9.668766	1.027338	-0.003442	0.004287	-0.005318	-0.777344	-0.943848	0.150635	83.836528	7.381299	105.275702
26755		-1.272453	9.654105	1.030883	-0.002491	0.003933	-0.009029	-0.760742	-0.937988	0.147461	83.835723	7.382846	105.278779
26756		-1.279031	9.641547	1.010855	-0.001655	0.009106	-0.003302	-0.777100	-0.947021	0.160156	83.835868	7.381345	105.280470
26757		-1.246635	9.642064	1.000942	-0.003170	0.001975	-0.008425	-0.773438	-0.938232	0.156982	83.834609	7.382853	105.276729
26758		-1.293720	9.668333	1.028046	-0.001849	0.005286	-0.004190	-0.772461	-0.942871	0.155273	83.834355	7.381624	105.276171
26759		-1.247863	9.641874	1.001244	-0.002083	0.008203	-0.006528	-0.767334	-0.939697	0.153076	83.834331	7.382133	105.277716
26760		-1.261951	9.668766	1.018195	-0.002062	0.004835	-0.005804	-0.775635	-0.936279	0.159668	83.833908	7.381795	105.276799
26761		-1.282151	9.641058	1.011569	-0.002062	0.004835	-0.005804	-0.771973	-0.937012	0.155029	83.833685	7.381649	105.275405
26762		-1.282572	9.683100	1.015144	-0.001576	0.002974	-0.007297	-0.779785	-0.934326	0.158447	83.833391	7.382047	105.273327
26763		-1.277616	9.653315	1.031898	-0.000683	0.005383	-0.006289	-0.775146	-0.937256	0.160889	83.834048	7.381906	105.274914
26764		-1.272360	9.665667	1.052243	-0.004334	0.001876	-0.006329	-0.772461	-0.947266	0.152832	83.832101	7.381684	105.272265
26765		-1.284822	9.640639	1.012164	-0.001383	0.006793	-0.006409	-0.773438	-0.932373	0.155273	83.832387	7.382064	105.273063
26766		-1.266028	9.668132	1.019149	-0.004569	0.004793	-0.008667	-0.773682	-0.930664	0.161621	83.830503	7.383355	105.271945
26767		-1.291953	9.670092	0.995831	0.000231	0.004425	-0.004556	-0.776611	-0.933838	0.163574	83.831722	7.382113	105.270827
26768		-1.281045	9.652780	1.032650	-0.000896	0.004932	-0.007903	-0.767822	-0.937256	0.153320	83.831957	7.382977	105.269835
26769		-1.287637	9.640223	1.012554	-0.001362	0.003425	-0.005685	-0.771484	-0.933105	0.153809	83.832129	7.382547	105.267137
26770		-1.249419	9.653230	1.022706	-0.000896	0.004932	-0.007903	-0.765137	-0.936035	0.152832	83.832365	7.383411	105.266146
26771		-1.288969	9.640032	1.012675	-0.001849	0.005285	-0.004192	-0.774170	-0.933594	0.147705	83.832196	7.382412	105.265097
26772		-1.270076	9.667567	1.019476	-0.000217	0.006890	-0.008508	-0.775879	-0.939209	0.158936	83.832961	7.383741	105.265193
26773		-1.257442	9.640479	1.002695	-0.002275	0.004382	-0.007419	-0.773438	-0.939209	0.157471	83.832466	7.384284	105.267281
26774		-1.271817	9.625211	1.016123	0.000018	0.003973	-0.006170	-0.764893	-0.932373	0.145996	83.833168	7.384102	105.265847
26775		-1.291839	9.639646	1.012700	0.000696	0.005932	-0.006774	-0.781006	-0.940430	0.151611	83.834420	7.384627	105.266205
26776		-1.278734	9.654745	0.999288	-0.001148	0.003875	-0.004072	-0.777588	-0.934326	0.151611	83.834464	7.383244	105.264844
26777		-1.273595	9.624978	1.016108	-0.002762	0.006242	-0.005927	-0.777588	-0.934326	0.157471	83.833786	7.382905	105.271408
26778		-1.287765	9.651837	1.033112	-0.002274	0.004382	-0.007420	-0.773193	-0.941406	0.150635	83.833196	7.383460	105.270131
26779		-1.255396	9.652392	1.023292	-0.003441	0.004283	-0.005323	-0.780273	-0.932617	0.149414	83.832068	7.382852	105.272026
26780		-1.289150	9.651617	1.033436	-0.000217	0.006890	-0.008509	-0.766357	-0.943604	0.155273	83.832833	7.384181	105.272123
26781		-1.262782	9.639725	1.003232	-0.001383	0.006791	-0.006412	-0.770264	-0.940430	0.161377	83.832987	7.384460	105.274797
26782		-1.282858	9.654124	1.000007	-0.002274	0.004381	-0.007421	-0.771240	-0.939697	0.164307	83.832397	7.385015	105.273521
26783		-1.258298	9.651993	1.023494	0.000909	0.006383	-0.005162	-0.767334	-0.935791	0.157227	83.834216	7.384697	105.269266
26784		-1.272600	9.636736	1.036796	-0.001383	0.006791	-0.006412	-0.779541	-0.941406	0.150635	83.834322	7.384826	105.269436
26785		-1.277081	9.656578	0.966456	-0.000894	0.004931	-0.007906	-0.770264	-0.938477	0.158936	83.834660	7.385842	105.270286
26786		-1.266274	9.639257	1.003321	-0.000682	0.005382	-0.006292	-0.770508	-0.939697	0.158203	83.835065	7.385815	105.269653
26787		-1.261177	9.651612	1.023542	-0.002296	0.007748	-0.008148	-0.768311	-0.938232	0.157715	83.834965	7.387273	105.267964
26788		-1.281273	9.666011	1.020216	0.000720	0.002564	-0.006051	-0.766846	-0.942627	0.158447	83.835968	7.386936	105.265728
26789		-1.268394	9.638979	1.003315	0.000019	0.003973	-0.006172	-0.767578	-0.942383	0.153564	83.836887	7.387203	105.260698
26790		-1.269054	9.638893	1.003313	-0.001383	0.006790	-0.006414	-0.772217	-0.925537	0.161865	83.836994	7.387333	105.260867
26791		-1.269764	9.638778	1.003513	-0.004353	0.005239	-0.007061	-0.778076	-0.928223	0.159424	83.835547	7.387842	105.258486
26792		-1.256837	9.653843	0.990416	-0.002272	0.004380	-0.007423	-0.777832	-0.936523	0.158691	83.834957	7.388399	105.257208
26793		-1.284982	9.623344	1.017243	-0.001594	0.006339	-0.008028	-0.774170	-0.936279	0.152832	83.835253	7.389116	105.258899
26794		-1.258461	9.653614	0.990584	-0.000893	0.004930	-0.007907	-0.776367	-0.938232	0.154297	83.835491	7.389983	105.257907
26795		-1.272896	9.638327	1.003878	0.000698	0.005931	-0.006777	-0.772949	-0.932373	0.162598	83.836823	7.390287	105.260643
26796		-1.267688	9.650699	1.024109	-0.003439	0.004281	-0.005327	-0.779541	-0.933105	0.158203	83.835575	7.389644	105.259438
26797		-1.274089	9.638157	1.003999	0.000909	0.006382	-0.005163	-0.767334	-0.935059	0.159912	83.837365	7.388831	105.259880
26798		-1.261310	9.611119	0.987094	-0.000403	0.003070	-0.009401	-0.777588	-0.933594	0.159668	83.837735	7.390434	105.257727
26799		-1.255992	9.665640	1.010728	-0.000960	0.007692	-0.003187	-0.768799	-0.936523	0.154785	83.838510	7.388807	105.257320
26800		-1.262374	9.653090	0.990712	-0.003650	0.003829	-0.006942	-0.774170	-0.938232	0.150635	83.837095	7.389056	105.255755
26801		-1.282440	9.667462	0.987541	-0.001382	0.006789	-0.006416	-0.775146	-0.933838	0.155518	83.837248	7.389393	105.257502
26802		-1.271585	9.650153	1.024424	-0.000681	0.005380	-0.006294	-0.775391	-0.935547	0.148193	83.837654	7.389369	105.256869
26803		-1.272120	9.650069	1.024548	-0.003228	0.004731	-0.003714	-0.772461	-0.937988	0.154297	83.836630	7.387788	105.259959
26804		-1.259099	9.665176	1.011296	-0.000214	0.006888	-0.008514	-0.780273	-0.939453	0.154053	83.837397	7.389120	105.260055
26805		-1.273685	9.649856	1.024606	-0.000401	0.003069	-0.009402	-0.773926	-0.939209	0.155762	83.837879	7.390770	105.261112
26806		-1.280207	9.637295	1.004493	-0.001849	0.005281	-0.004197	-0.760010	-0.940186	0.153076	83.837625	7.389544	105.260552
26807		-1.275059	9.649654	1.024804	-0.002996	0.009153	-0.008274	-0.772217	-0.937988	0.159180	83.837046	7.391353	105.259865
26808		-1.262243	9.664738	1.011562	-0.000891	0.004929	-0.007910	-0.776123	-0.938477	0.146484	83.837286	7.392221	105.258872
26809		-1.274602	9.639705	0.971325	-0.002761	0.006237	-0.005934	-0.773193	-0.934326	0.159180	83.836631	7.392161	105.261450
26810		-1.290994	9.634118	1.038390	-0.000003	0.007339	-0.006900	-0.775391	-0.933594	0.158936	83.837566	7.392602	105.261904
26811		-1.270008	9.652013	0.991445	0.000443	0.004874	-0.002945	-0.767822	-0.937256	0.147705	83.838931	7.390578	105.261141
26812		-1.253113	9.647196	1.048562	-0.003953	0.009504	-0.004563	-0.767578	-0.943115	0.157471	83.837781	7.389821	105.262985
26813		-1.290315	9.666331	0.988350	-0.001848	0.005280	-0.004199	-0.776611	-0.932861	0.153076	83.837544	7.389059	105.261679
26814		-1.265864	9.622082	1.008588	-0.003672	0.007193	-0.007671	-0.769287	-0.935303	0.153564	83.836359	7.389931	105.262002
26815		-1.260795	9.634421	1.029013	-0.003462	0.007645	-0.006057	-0.767334	-0.935303	0.156250	83.835460	7.389933	105.264593
26816		-1.300163	9.663242	1.022548	-0.003437	0.004278	-0.005331	-0.764160	-0.939941	0.152588	83.834213	7.389292	105.263386
26817		-1.273437	9.651441	0.992622	-0.002550	0.006688	-0.004321	-0.770996	-0.933350	0.151855	83.833767	7.388668	105.261061
26818		-1.274085	9.651333	0.992834	-0.003672	0.007193	-0.007672	-0.772705	-0.937012	0.159668	83.832582	7.389540	105.261384
26819		-1.276933	9.618787	1.043194	-0.001873	0.008646	-0.004926	-0.775146	-0.942383	0.152832	83.832757	7.389030	105.262859
26820		-1.269552	9.663614	1.013155	0.000208	0.007790	-0.005287	-0.774658	-0.935547	0.145996	83.833858	7.388580	105.263673
26821		-1.283746	9.648324	1.026475	-0.001848	0.005280	-0.004200	-0.768799	-0.940430	0.152344	83.833559	7.387480	105.267609
26822		-1.284409	9.648236	1.026471	0.000491	0.005479	-0.008395	-0.768799	-0.930176	0.155762	83.834627	7.388658	105.266904
26823		-1.257959	9.636430	0.996360	-0.002267	0.004377	-0.007430	-0.771240	-0.939209	0.152100	83.834174	7.389453	105.264844
26824		-1.272254	9.663238	1.013347	-0.002759	0.006236	-0.005937	-0.769287	-0.939697	0.159912	83.833455	7.389278	105.264726
26825		-1.267224	9.633453	1.030186	-0.001565	0.002969	-0.007308	-0.775635	-0.934570	0.151123	83.833340	7.389989	105.261620
26826		-1.279423	9.650572	0.993371	-0.000678	0.005379	-0.006298	-0.770264	-0.943359	0.148438	83.833748	7.389967	105.260987
26827		-1.268787	9.633240	1.030244	-0.001122	0.007843	-0.010255	-0.769775	-0.939453	0.160889	83.834017	7.392546	105.264915
26828		-1.255783	9.648370	1.017045	-0.003018	0.005179	-0.002104	-0.770752	-0.937012	0.155762	83.833103	7.390122	105.264427
26829		-1.256291	9.648283	1.017239	-0.002266	0.004376	-0.007431	-0.776855	-0.941650	0.157959	83.832786	7.390931	105.261025
26830		-1.290186	9.647382	1.027254	-0.000912	0.008294	-0.008640	-0.766846	-0.939209	0.155273	83.833256	7.392423	105.261921
26831		-1.277462	9.662487	1.013955	-0.001096	0.004476	-0.009529	-0.767822	-0.936768	0.157959	83.833525	7.394447	105.260030
26832		-1.264607	9.635485	0.997086	0.000910	0.006382	-0.005166	-0.774170	-0.933838	0.151611	83.834926	7.393842	105.260043
26833		-1.306208	9.631840	1.040490	-0.001563	0.002968	-0.007310	-0.774658	-0.941162	0.153076	83.834809	7.394367	105.258202
26834		-1.252274	9.650545	0.983777	0.000025	0.003971	-0.006177	-0.771973	-0.941650	0.154541	83.835516	7.394190	105.256768
26835		-1.260973	9.647669	1.017272	-0.001095	0.004475	-0.009530	-0.773438	-0.942383	0.150391	83.835681	7.396193	105.256968
26836		-1.261661	9.647574	1.017319	-0.001665	0.009095	-0.003314	-0.767822	-0.936523	0.157471	83.835822	7.394700	105.258655
26837		-1.262311	9.647492	1.017292	0.001012	0.000254	-0.009163	-0.767334	-0.938721	0.157715	83.836898	7.396275	105.255223
26838		-1.295927	9.646612	1.027258	-0.002316	0.003770	-0.001983	-0.770996	-0.942627	0.156738	83.836283	7.393697	105.253934
26839		-1.263377	9.647328	1.017524	-0.002968	0.005782	-0.007556	-0.770020	-0.936523	0.149902	83.835601	7.394786	105.251419
26840		-1.264090	9.647213	1.017724	-0.002759	0.006233	-0.005941	-0.769775	-0.937256	0.150635	83.834882	7.394613	105.251299
26841		-1.270524	9.676780	1.001212	-0.002265	0.004374	-0.007434	-0.770264	-0.936035	0.153564	83.834288	7.395405	105.252150
26842		-1.273436	9.644225	1.051403	0.000702	0.005930	-0.006782	-0.771240	-0.937988	0.157471	83.835523	7.395693	105.251804
26843		-1.271966	9.634458	0.997648	-0.000677	0.005378	-0.006301	-0.774414	-0.944092	0.153076	83.836114	7.395845	105.250939
26844		-1.266826	9.646828	1.017974	-0.003435	0.004273	-0.005337	-0.771973	-0.942383	0.150879	83.834868	7.395209	105.249731
26845		-1.267486	9.646718	1.018194	-0.002264	0.004374	-0.007435	-0.772217	-0.937988	0.152344	83.834291	7.396076	105.250861
26846		-1.287498	9.661051	1.014946	-0.001848	0.005277	-0.004204	-0.773682	-0.937256	0.154785	83.834038	7.394856	105.250300
26847		-1.276548	9.643755	1.051947	-0.002056	0.004825	-0.005819	-0.766602	-0.936523	0.156494	83.833736	7.394631	105.251133
26848		-1.261349	9.649235	0.985032	-0.000677	0.005378	-0.006301	-0.773682	-0.945557	0.156006	83.834145	7.394612	105.250500
26849		-1.256333	9.661594	1.005330	-0.002967	0.005780	-0.007558	-0.773438	-0.937500	0.154541	83.833435	7.395671	105.248862
26850		-1.257052	9.619348	1.001929	-0.000677	0.005377	-0.006301	-0.778076	-0.939941	0.156494	83.833843	7.395652	105.248228
26851		-1.271355	9.646145	1.018800	-0.002056	0.004825	-0.005820	-0.767578	-0.944336	0.155762	83.833613	7.395334	105.249324
26852		-1.285663	9.672940	1.035670	-0.000677	0.005377	-0.006302	-0.771729	-0.935547	0.151855	83.834022	7.395315	105.248691
26853		-1.272589	9.645963	1.018978	-0.002732	0.002865	-0.005216	-0.776123	-0.939941	0.154053	83.833168	7.394851	105.246614
26854		-1.292732	9.660273	1.015700	-0.000389	0.003068	-0.009411	-0.772949	-0.931152	0.157715	83.833546	7.396461	105.244461
26855		-1.260366	9.661014	1.005853	-0.001848	0.005276	-0.004205	-0.774658	-0.944092	0.154785	83.833519	7.395184	105.245352
26856		-1.266819	9.648444	0.985763	-0.001794	0.005881	-0.009657	-0.773438	-0.933594	0.157227	83.833297	7.397107	105.244799
26857		-1.294960	9.659946	1.015974	-0.002055	0.004824	-0.005821	-0.770264	-0.934814	0.154053	83.833077	7.396867	105.244891
26858		-1.262580	9.660686	1.006228	-0.002263	0.004373	-0.007437	-0.773926	-0.935303	0.150391	83.832493	7.397433	105.243610
26859		-1.271151	9.657798	1.039781	-0.000469	0.005828	-0.004687	-0.772217	-0.938965	0.152832	83.833152	7.396569	105.245576
26860		-1.288884	9.662460	0.982827	-0.003434	0.004271	-0.005340	-0.766113	-0.939209	0.154297	83.831907	7.395934	105.244367
26861		-1.277917	9.645161	1.019902	-0.001848	0.005275	-0.004205	-0.782227	-0.938232	0.153564	83.831741	7.395038	105.243610
26862		-1.278565	9.645055	1.020096	-0.003145	0.001961	-0.008449	-0.773438	-0.938232	0.155518	83.830466	7.396032	105.240881
26863		-1.285055	9.632481	0.999964	0.000703	0.005930	-0.006784	-0.771729	-0.936035	0.155029	83.831867	7.396221	105.244290
26864		-1.241218	9.658184	1.030474	-0.002055	0.004824	-0.005822	-0.776611	-0.936768	0.158203	83.831448	7.395895	105.243368
26865		-1.305767	9.646707	0.996627	-0.000676	0.005377	-0.006303	-0.773193	-0.941650	0.161133	83.832103	7.395864	105.243672
26866		-1.273332	9.647480	0.986810	-0.002055	0.004823	-0.005822	-0.778320	-0.941650	0.155518	83.831686	7.395538	105.242750
26867		-1.268321	9.659847	1.007065	-0.000179	0.003519	-0.007797	-0.777100	-0.940674	0.154541	83.832496	7.396365	105.241643
26868		-1.243958	9.657806	1.030710	-0.001558	0.002965	-0.007316	-0.762695	-0.932617	0.161621	83.832214	7.396775	105.239562
26869		-1.283335	9.644379	1.020501	-0.001848	0.005275	-0.004207	-0.773926	-0.938477	0.159912	83.832240	7.395741	105.236861
26870		-1.264552	9.672034	1.027502	-0.001379	0.006782	-0.006427	-0.778564	-0.930664	0.155029	83.832350	7.395880	105.237027
26871		-1.292634	9.641374	1.054127	-0.001061	0.001108	-0.008809	-0.776611	-0.942383	0.154541	83.832501	7.396846	105.235444
26872		-1.258086	9.632487	0.990636	-0.001379	0.006782	-0.006428	-0.779785	-0.934326	0.151123	83.832610	7.396985	105.235610
26873		-1.299833	9.670839	1.037603	-0.002055	0.004823	-0.005823	-0.778564	-0.933350	0.151855	83.832279	7.396555	105.239755
26874		-1.286683	9.643892	1.020882	-0.001173	0.007234	-0.004812	-0.772705	-0.934326	0.149902	83.832553	7.395801	105.240281
26875		-1.259864	9.632232	0.990862	-0.001351	0.003417	-0.005700	-0.769775	-0.937988	0.158447	83.832481	7.395171	105.243547
26876		-1.274332	9.658993	1.007670	-0.000206	0.006884	-0.008526	-0.775635	-0.934570	0.156006	83.833253	7.396512	105.243642
26877		-1.249929	9.656965	1.031363	-0.002730	0.002863	-0.005220	-0.771240	-0.936768	0.144531	83.832569	7.395781	105.241448
26878		-1.300808	9.660709	0.984330	-0.002260	0.004370	-0.007441	-0.771973	-0.940430	0.146729	83.831987	7.396348	105.240167
26879		-1.264778	9.641489	1.044980	-0.002346	0.007131	-0.002715	-0.779053	-0.939453	0.160889	83.831374	7.394645	105.245885
26880		-1.243739	9.659509	0.998313	-0.000881	0.004924	-0.007922	-0.770020	-0.939697	0.148682	83.831620	7.395521	105.244892
26881		-1.277529	9.658510	1.008252	-0.002054	0.004822	-0.005825	-0.776367	-0.928955	0.150146	83.831347	7.395307	105.246113
26882		-1.297568	9.672801	1.004977	-0.002054	0.004822	-0.005825	-0.768799	-0.939453	0.160156	83.830930	7.394982	105.245191
26883		-1.251265	9.646773	0.978424	-0.001144	0.003868	-0.004085	-0.772217	-0.938477	0.154053	83.831182	7.393599	105.244611
26884		-1.279336	9.658220	1.008732	-0.005252	0.006176	-0.008825	-0.776611	-0.936523	0.152100	83.829008	7.395067	105.244281
26885		-1.274425	9.670565	1.029122	-0.000498	0.009192	-0.005417	-0.770020	-0.937988	0.166016	83.829906	7.394825	105.248885
26886		-1.261183	9.643629	1.012537	-0.006014	0.006976	-0.003495	-0.773682	-0.939453	0.159912	83.827398	7.393306	105.249346
26887		-1.261718	9.643520	1.012902	-0.003461	0.007633	-0.006073	-0.772705	-0.940918	0.156006	83.826851	7.393468	105.246140
26888		-1.281698	9.657800	1.009756	-0.003931	0.006124	-0.003852	-0.764648	-0.933838	0.147461	83.825471	7.392099	105.246089
26889		-1.276490	9.670178	1.030200	-0.002552	0.006678	-0.004333	-0.770264	-0.931885	0.150635	83.824940	7.391360	105.246222
26890		-1.268941	9.630773	0.993459	-0.004840	0.007078	-0.005594	-0.770264	-0.938232	0.154053	83.823096	7.391042	105.246611
26891		-1.283407	9.657490	1.010550	-0.002962	0.005775	-0.007567	-0.778564	-0.934570	0.144775	83.822295	7.391919	105.246810
26892		-1.251061	9.658279	1.001067	-0.005720	0.004667	-0.006607	-0.772705	-0.934814	0.153076	83.819760	7.392030	105.245751
26893		-1.279020	9.669720	1.031362	-0.000968	0.007684	-0.003197	-0.772949	-0.936035	0.151367	83.820171	7.390279	105.252536
26894		-1.265732	9.642803	1.014727	-0.004136	0.005672	-0.005471	-0.769775	-0.930420	0.157227	83.818627	7.389805	105.252126
26895		-1.293709	9.654234	1.045043	-0.003256	0.008083	-0.004458	-0.772461	-0.935547	0.158447	83.817964	7.388925	105.253304
26896		-1.261200	9.655066	1.035414	-0.002756	0.006226	-0.005951	-0.770020	-0.943115	0.149902	83.817248	7.388758	105.253182
26897		-1.278892	9.659719	0.978537	-0.003431	0.004267	-0.005347	-0.776611	-0.938965	0.148438	83.816130	7.388401	105.251912
26898		-1.276036	9.639558	1.049100	-0.002052	0.004821	-0.005827	-0.772217	-0.937012	0.150879	83.815714	7.388077	105.250990
26899		-1.288290	9.656651	1.012352	-0.002491	0.007283	-0.009790	-0.769043	-0.935303	0.153809	83.815168	7.390250	105.255718
26900		-1.269525	9.642168	1.016020	-0.003901	0.002758	-0.003127	-0.768555	-0.941162	0.157227	83.813562	7.388261	105.253780
26901		-1.256234	9.657412	1.002946	-0.000968	0.007683	-0.003197	-0.773438	-0.940674	0.160889	83.814187	7.386954	105.252105
26902		-1.295604	9.643907	0.992726	-0.004544	0.004768	-0.008707	-0.775146	-0.937012	0.159424	83.812316	7.388268	105.250974
26903		-1.265540	9.654335	1.036939	-0.003930	0.006122	-0.003855	-0.770020	-0.937744	0.156250	83.811327	7.386978	105.249737
26904		-1.285353	9.626471	1.030172	-0.002051	0.004821	-0.005828	-0.773438	-0.938232	0.153076	83.810911	7.386655	105.248816
26905		-1.252861	9.627317	1.020593	-0.004135	0.005671	-0.005473	-0.768311	-0.932373	0.158691	83.809532	7.386375	105.248438
26906		-1.245667	9.672189	0.991032	-0.004339	0.005219	-0.007090	-0.775146	-0.938477	0.154053	83.807826	7.386796	105.247667
26907		-1.265673	9.644288	0.984369	-0.003634	0.003814	-0.006966	-0.770752	-0.939209	0.153564	83.806681	7.387139	105.245294
26908		-1.274170	9.641336	1.018095	-0.003022	0.005168	-0.002114	-0.773682	-0.934814	0.154053	83.805765	7.384722	105.244804
26909		-1.255516	9.669012	1.025251	-0.001785	0.005878	-0.009667	-0.763672	-0.936035	0.149658	83.805693	7.386784	105.245112
26910		-1.275495	9.641113	1.018550	-0.006014	0.006971	-0.003501	-0.767090	-0.938232	0.143311	83.803184	7.385269	105.245571
26911		-1.262396	9.656334	1.005589	-0.001376	0.006780	-0.006433	-0.779297	-0.928223	0.153809	83.803113	7.385913	105.246320
26912		-1.263086	9.656226	1.005756	-0.004164	0.009034	-0.006202	-0.772705	-0.939209	0.153809	83.801796	7.386064	105.247796
26913		-1.271851	9.653221	1.039585	-0.005747	0.008028	-0.007341	-0.768066	-0.933105	0.155762	83.799690	7.386610	105.251916
26914		-1.264487	9.655956	1.006588	-0.005513	0.005114	-0.004996	-0.772705	-0.936523	0.148438	83.797320	7.385831	105.251216
26915		-1.264958	9.655857	1.006947	-0.003226	0.004716	-0.003733	-0.763916	-0.938477	0.150635	83.796343	7.384447	105.250872
26916		-1.278844	9.598297	1.016988	-0.006718	0.008374	-0.003627	-0.770508	-0.935791	0.153809	83.793534	7.383090	105.252130
26917		-1.281842	9.649903	1.074723	-0.004604	0.004161	-0.003254	-0.774902	-0.939453	0.156982	83.791702	7.381650	105.249247
26918		-1.260732	9.667981	1.028574	-0.007298	0.003656	-0.007753	-0.777344	-0.933350	0.154541	83.788179	7.382351	105.247537
26919		-1.266893	9.655407	1.008830	-0.004431	0.007976	-0.002365	-0.775391	-0.932861	0.151855	83.786928	7.380156	105.250629
26920		-1.269551	9.622740	1.059332	-0.005512	0.005114	-0.004997	-0.769043	-0.935303	0.156494	83.784558	7.379378	105.249929
26921		-1.242753	9.653300	1.033313	-0.004635	0.007525	-0.003983	-0.768066	-0.945313	0.149414	83.783088	7.378186	105.251115
26922		-1.276416	9.652221	1.043264	-0.000670	0.005376	-0.006309	-0.774658	-0.931396	0.157471	83.783501	7.378171	105.250484
26923		-1.274667	9.642566	0.989617	-0.002080	0.008185	-0.006558	-0.775635	-0.932373	0.154541	83.783446	7.378711	105.251546
26924		-1.258117	9.637705	1.046860	-0.001613	0.002358	-0.001867	-0.772461	-0.939697	0.153320	83.783133	7.375979	105.249459
26925		-1.275722	9.642429	0.989599	0.003797	0.001372	-0.010129	-0.770508	-0.931885	0.157471	83.785969	7.377900	105.247886
26926		-1.265014	9.625120	1.026304	-0.000436	0.002462	-0.003964	-0.767578	-0.935547	0.155518	83.786321	7.376369	105.245728
26927		-1.259939	9.637527	1.046301	0.004375	0.006090	-0.006003	-0.769775	-0.937500	0.150879	83.789975	7.376374	105.242673
26928		-1.266374	9.667161	1.029348	0.000740	0.002567	-0.006061	-0.772461	-0.936035	0.153809	83.790992	7.376044	105.240443
26929		-1.291938	9.626836	1.001939	0.001211	0.004076	-0.008282	-0.774170	-0.936523	0.157471	83.792464	7.377266	105.239804
26930		-1.267816	9.667004	1.029050	0.001445	0.001162	-0.005936	-0.769043	-0.935303	0.158447	83.793782	7.376778	105.236776
26931		-1.262739	9.637240	1.045575	0.001040	0.000260	-0.009172	-0.770020	-0.940430	0.153076	83.795110	7.378183	105.231039
26932		-1.249897	9.652505	1.032122	0.003498	0.003678	-0.007018	-0.766357	-0.931885	0.147705	83.797782	7.378467	105.229388
26933		-1.281557	9.641856	0.987638	0.007027	0.003992	-0.013309	-0.769775	-0.930664	0.156982	83.802441	7.382674	105.228177
26934		-1.271575	9.666662	1.027620	0.002922	-0.001040	-0.011145	-0.768066	-0.939209	0.158447	83.804401	7.385017	105.223559
26935		-1.278155	9.654114	1.006995	0.004675	0.003783	-0.009116	-0.777344	-0.940186	0.162109	83.808050	7.386692	105.218802
26936		-1.262113	9.649292	1.063572	0.006588	-0.000881	-0.010360	-0.768555	-0.938965	0.153809	83.812129	7.388598	105.214324
26937		-1.260546	9.639658	1.009341	0.004706	0.000418	-0.008388	-0.768066	-0.933350	0.155029	83.815523	7.389636	105.209709
26938		-1.275371	9.666395	1.025421	0.010052	-0.001173	-0.011193	-0.770020	-0.938721	0.157471	83.821557	7.392000	105.205012
26939		-1.295653	9.638518	1.017666	0.005713	-0.003293	-0.011375	-0.774170	-0.935547	0.154785	83.825167	7.394562	105.197522
26940		-1.263642	9.639487	1.007101	0.011431	-0.000617	-0.011673	-0.775146	-0.935547	0.154297	83.832029	7.397234	105.193115
26941		-1.276246	9.656630	0.969191	0.010387	-0.006845	-0.013577	-0.773438	-0.935059	0.160889	83.837978	7.400528	105.187662
26942		-1.266233	9.681536	1.008573	0.013549	-0.004829	-0.011299	-0.780029	-0.934082	0.158936	83.845744	7.402730	105.180859
26943		-1.261588	9.651869	1.023811	0.018021	-0.008832	-0.015120	-0.777344	-0.936523	0.159180	83.856141	7.406606	105.172342
26944		-1.282311	9.666195	1.018632	0.019805	-0.007372	-0.012364	-0.768799	-0.941650	0.156494	83.867294	7.409260	105.164013
26945		-1.269565	9.639450	0.999983	0.021722	-0.012036	-0.013608	-0.772461	-0.937988	0.150879	83.879407	7.412467	105.153291
26946		-1.298223	9.650942	1.028079	0.020512	-0.008777	-0.012243	-0.770020	-0.937256	0.156494	83.890861	7.414971	105.144163
26947		-1.297277	9.683483	0.975900	0.023775	-0.009522	-0.014697	-0.771240	-0.935791	0.157471	83.904128	7.418999	105.137054
26948		-1.287016	9.666433	1.010409	0.029597	-0.016935	-0.012809	-0.779541	-0.935791	0.156494	83.920177	7.421333	105.123206
26949		-1.274432	9.681923	0.994428	0.031179	-0.015927	-0.011675	-0.765625	-0.937500	0.157959	83.937384	7.422941	105.113459
26950		-1.269598	9.652457	1.008256	0.033064	-0.017230	-0.013652	-0.773438	-0.945068	0.153564	83.955390	7.425746	105.099391
26951		-1.290099	9.666903	1.001938	0.029971	-0.012669	-0.010314	-0.772949	-0.936523	0.160645	83.971978	7.427327	105.089436
26952		-1.257625	9.625974	0.985932	0.030477	-0.014528	-0.011810	-0.779053	-0.938721	0.152100	83.988716	7.429253	105.077034
26953		-1.275833	9.672858	0.929159	0.036803	-0.010487	-0.007267	-0.771729	-0.938965	0.157227	84.009461	7.428730	105.072775
26954		-1.292339	9.667563	0.992641	0.037715	-0.011437	-0.005527	-0.776855	-0.941162	0.159180	84.030626	7.427269	105.062529
26955		-1.304006	9.642748	0.948774	0.038222	-0.013298	-0.007023	-0.771484	-0.939209	0.160645	84.051981	7.426641	105.055158
26956		-1.273816	9.653894	0.988984	0.041054	-0.018915	-0.006523	-0.776123	-0.927734	0.161865	84.074496	7.425312	105.040554
26957		-1.310800	9.672941	0.924514	0.043512	-0.015491	-0.004385	-0.770508	-0.940918	0.158691	84.098902	7.422791	105.030950
26958		-1.268344	9.625023	0.998336	0.034701	-0.013604	-0.000734	-0.761475	-0.938721	0.163086	84.118216	7.418486	105.019741
26959		-1.287924	9.639615	0.991564	0.037798	-0.018175	-0.004077	-0.771484	-0.935303	0.161621	84.138977	7.416348	105.003818
26960		-1.266557	9.657942	0.941366	0.036588	-0.014912	-0.002717	-0.776367	-0.939453	0.156006	84.159260	7.413105	104.991737
26961		-1.274327	9.613408	0.968132	0.037968	-0.014359	-0.003205	-0.767822	-0.940918	0.159424	84.180333	7.410192	104.985567
26962		-1.260931	9.628991	0.951655	0.030835	-0.014232	-0.003141	-0.772705	-0.942383	0.162598	84.197369	7.407239	104.973852
26963		-1.255423	9.641880	0.968891	0.033127	-0.014624	-0.001884	-0.774170	-0.945801	0.171387	84.215645	7.403951	104.964142
26964		-1.269616	9.669021	0.982500	0.032645	-0.008817	-0.006599	-0.772949	-0.938232	0.160645	84.234094	7.403289	104.955337
26965		-1.261717	9.629729	0.943100	0.025083	-0.013551	-0.003563	-0.773682	-0.935791	0.159912	84.248023	7.400850	104.946179
26966		-1.267995	9.659436	0.923940	0.025007	-0.006827	-0.005044	-0.780273	-0.937012	0.165527	84.262255	7.399420	104.938607
26967		-1.276196	9.614765	0.952062	0.022182	-0.014539	-0.009675	-0.779541	-0.937988	0.156982	84.274300	7.400004	104.933702
26968		-1.284905	9.612227	0.983608	0.021639	-0.009315	-0.008927	-0.775879	-0.931396	0.157227	84.286390	7.400649	104.924476
26969		-1.269985	9.617541	0.914694	0.020523	-0.008831	-0.012290	-0.777344	-0.937012	0.165039	84.297628	7.402972	104.927181
26970		-1.246007	9.615959	0.936672	0.015436	-0.006189	-0.013317	-0.774170	-0.938477	0.157471	84.306362	7.406301	104.919501
26971		-1.274851	9.627539	0.965238	0.015153	0.000075	-0.016417	-0.780029	-0.935303	0.166992	84.315276	7.411708	104.923708
26972		-1.262483	9.600562	0.947448	0.010145	-0.004007	-0.015961	-0.777344	-0.936035	0.166260	84.321118	7.416671	104.917132
26973		-1.272542	9.639976	0.983234	0.008948	0.003200	-0.020807	-0.766846	-0.934814	0.160889	84.326946	7.424477	104.923556
26974		-1.285548	9.614473	0.942381	0.003842	0.001900	-0.015626	-0.775146	-0.932861	0.171875	84.329618	7.429584	104.920397
26975		-1.287397	9.614253	0.942106	0.000353	0.009495	-0.021730	-0.776367	-0.936279	0.164063	84.330948	7.438599	104.922799
26976		-1.283631	9.584474	0.958851	0.000859	0.007631	-0.023221	-0.773193	-0.943115	0.166504	84.332281	7.448360	104.922502
26977		-1.264569	9.602072	0.911704	0.001487	0.012950	-0.024580	-0.769043	-0.939941	0.166748	84.334400	7.459236	104.931771
26978		-1.269784	9.654005	0.968158	0.001650	0.016771	-0.023707	-0.767334	-0.933838	0.167236	84.336865	7.469791	104.936704
26979		-1.264529	9.698515	0.937568	0.000559	0.009952	-0.020119	-0.772949	-0.936523	0.162109	84.338351	7.478146	104.936538
26980		-1.286763	9.596069	0.978050	-0.001504	0.003499	-0.012808	-0.775146	-0.931885	0.154785	84.338097	7.481737	104.934461
26981		-1.281004	9.640621	0.947698	0.002166	-0.002362	-0.023104	-0.766113	-0.948975	0.166504	84.339251	7.490695	104.937562
26982		-1.290633	9.595557	0.977973	-0.000590	-0.003474	-0.022132	-0.770020	-0.934570	0.161621	84.338928	7.499208	104.930943
26983		-1.296892	9.656852	0.910746	-0.000038	-0.008700	-0.022880	-0.770264	-0.936035	0.166016	84.338477	7.508271	104.921629
26984		-1.293636	9.669200	0.931068	-0.002575	-0.005414	-0.026501	-0.768799	-0.940430	0.165039	84.336836	7.519166	104.913645
26985		-1.295798	9.626651	0.928199	-0.002269	-0.007740	-0.029611	-0.764893	-0.937744	0.163818	84.335242	7.531850	104.905872
26986		-1.227009	9.641206	0.928728	0.000286	-0.007089	-0.032206	-0.776123	-0.940186	0.167725	84.335067	7.545902	104.896599
26987		-1.282940	9.653838	0.934662	0.010995	-0.010283	-0.037857	-0.773682	-0.937256	0.177490	84.340823	7.563083	104.888474
26988		-1.305753	9.625460	0.926597	0.019218	-0.003583	-0.041528	-0.768066	-0.936279	0.162598	84.351686	7.582650	104.880689
26989		-1.302839	9.669830	0.894328	0.023455	-0.014674	-0.052584	-0.769531	-0.935547	0.166992	84.364331	7.607809	104.868486
26990		-1.314335	9.698777	0.875089	0.028162	-0.014298	-0.061019	-0.767822	-0.940186	0.172119	84.379349	7.637890	104.853440
26991		-1.340657	9.712239	0.868715	0.035685	-0.022211	-0.080769	-0.775391	-0.936523	0.171631	84.398131	7.678804	104.834357
26992		-1.386493	9.771616	0.808047	0.038009	-0.038624	-0.095471	-0.775635	-0.935547	0.173340	84.416636	7.727183	104.803389
26993		-1.350398	9.829251	0.785006	0.031213	-0.046911	-0.109612	-0.770508	-0.941406	0.165771	84.430836	7.782646	104.776836
26994		-1.374411	9.770386	0.792513	0.040851	-0.055692	-0.129771	-0.768066	-0.932373	0.165283	84.449314	7.849654	104.734141
26995		-1.396464	9.808383	0.825085	0.059129	-0.066819	-0.155268	-0.775635	-0.941162	0.170166	84.477137	7.930319	104.692346
26996		-1.338506	9.812004	0.765408	0.086802	-0.075070	-0.180391	-0.766357	-0.940430	0.175537	84.519893	8.025175	104.635736
26997		-1.363623	9.797231	0.735700	0.131484	-0.077269	-0.231065	-0.763916	-0.949951	0.170410	84.587806	8.148410	104.588004
26998		-1.298839	9.839032	0.726475	0.208412	-0.078469	-0.299627	-0.756104	-0.941406	0.168213	84.698819	8.311244	104.523198
26999		-1.200237	10.172068	0.598507	0.284257	-0.074257	-0.396224	-0.758545	-0.946777	0.176270	84.852597	8.529550	104.463244
27000		-1.092895	10.450327	0.428497	0.340236	0.028552	-0.632513	-0.763184	-0.955811	0.176514	85.045510	8.888111	104.444043
27001		-1.074580	10.749423	1.003422	0.347143	0.078488	-0.857242	-0.748047	-0.958008	0.184326	85.245227	9.376972	104.462620
27002		-0.878197	12.578101	1.255643	0.254765	0.124323	-1.140487	-0.739746	-0.956543	0.177734	85.394519	10.030203	104.477111
27003		-0.950157	11.752675	0.735649	0.091815	0.123636	-1.509934	-0.737305	-0.973877	0.181885	85.447667	10.893680	104.491096
27004		-1.227030	11.335870	0.925975	0.068612	0.036809	-1.813041	-0.726074	-0.981445	0.176514	85.474824	11.927043	104.425213
27005		-1.330203	11.480658	1.136681	0.061247	-0.080142	-2.113461	-0.709473	-0.986084	0.180420	85.478756	13.126013	104.291597
27006		-1.276991	11.829655	1.372433	0.099703	-0.164679	-2.435938	-0.690186	-1.006348	0.181885	85.485756	14.506092	104.078023
27007		-1.688515	12.584608	1.494147	0.136526	-0.221463	-2.734981	-0.667969	-1.013428	0.185059	85.495925	16.054455	103.816089
27008		-2.095376	13.413427	1.747308	0.096446	-0.190155	-2.956634	-0.650879	-1.024170	0.184326	85.477562	17.730815	103.559716
27009		-2.570457	15.659578	2.659281	-0.191561	-0.049057	-3.079096	-0.633301	-1.047852	0.176758	85.310595	19.483191	103.377306
27010		-2.834163	16.912019	2.888860	-0.765717	0.281012	-3.069252	-0.609619	-1.053467	0.167480	84.875170	21.245199	103.384359
27011		-2.008592	16.155418	2.925795	-1.251287	0.650127	-2.815710	-0.583008	-1.058838	0.150635	84.246188	22.882528	103.616045
27012		-2.539191	12.491770	2.313359	-1.302100	0.995675	-2.577810	-0.573975	-1.071289	0.139160	83.679912	24.407375	104.062166
27013		-1.350035	11.106624	2.711176	-1.132103	1.239967	-2.492685	-0.551025	-1.080566	0.127930	83.286056	25.902843	104.659443
27014		-0.045427	10.433009	2.348911	-0.871817	1.447281	-2.238204	-0.527344	-1.086182	0.122070	83.121926	27.270397	105.406863
27015		3.409644	9.631845	2.334728	-0.602990	1.445711	-1.668806	-0.511963	-1.091797	0.107666	83.148907	28.314438	106.203787
27016		6.856362	9.494905	2.350351	-0.336838	1.437334	-0.993517	-0.503906	-1.099609	0.102051	83.365218	28.972479	107.055799
27017		3.304613	13.283561	2.812965	-0.194969	1.365691	-0.405184	-0.497559	-1.095703	0.101318	83.671255	29.286982	107.912267
27018		6.785611	12.063150	3.028052	-0.320163	1.317329	0.302609	-0.494385	-1.099609	0.084717	83.917387	29.192261	108.789897
27019		6.675390	8.957529	2.225853	-0.384121	1.278866	0.745550	-0.491943	-1.100098	0.082275	84.125185	28.838968	109.670502
27020		6.837035	8.041967	1.956649	-0.368513	1.241596	0.961498	-0.503662	-1.097900	0.076660	84.329198	28.358490	110.535960
27021		6.421825	8.506273	1.898960	-0.378300	1.197652	1.118035	-0.506348	-1.084717	0.071045	84.508856	27.782660	111.376954
27022		5.854292	9.030653	1.894428	-0.432235	1.111141	1.327347	-0.511719	-1.086426	0.066895	84.626694	27.081921	112.168373
27023		5.346833	9.362793	1.771162	-0.514166	0.968103	1.585878	-0.519287	-1.079102	0.057129	84.650892	26.223828	112.877725
27024		4.753148	9.361847	1.573472	-0.577808	0.794553	1.837671	-0.533203	-1.082764	0.045410	84.584982	25.214357	113.486700
27025		4.278050	9.248760	1.444351	-0.602142	0.605592	2.037503	-0.543701	-1.075439	0.042969	84.448719	24.079969	113.985997
27026		3.776834	9.289133	1.273833	-0.598194	0.414174	2.197136	-0.560791	-1.073486	0.031738	84.261654	22.846634	114.374786
27027		3.286310	9.392931	1.096562	-0.600543	0.239431	2.329290	-0.577393	-1.061035	0.035645	84.027969	21.527314	114.665906
27028		2.815589	9.462937	0.920413	-0.636039	0.076034	2.439461	-0.586670	-1.066406	0.031250	83.736320	20.138271	114.868100
27029		2.332563	9.345070	0.668816	-0.672938	-0.046527	2.492245	-0.596924	-1.055420	0.024170	83.397235	18.710438	115.006544
27030		1.874189	9.308203	0.418639	-0.697104	-0.149577	2.486276	-0.621582	-1.050781	0.017334	83.024687	17.281788	115.090709
27031		1.409975	9.646257	0.427664	-0.703714	-0.234564	2.453486	-0.635010	-1.038574	0.007568	82.633636	15.864206	115.131735
27032		0.827996	10.169585	0.415283	-0.688502	-0.319254	2.421701	-0.652100	-1.037354	0.010254	82.239500	14.460649	115.129777
27033		0.456788	10.924104	0.605957	-0.640058	-0.421368	2.434053	-0.673340	-1.027832	0.003906	81.861285	13.039853	115.079426
27034		-0.049698	11.633877	0.845751	-0.564033	-0.523254	2.515315	-0.692871	-1.013672	-0.006592	81.519019	11.566422	114.985768
27035		-0.404542	12.101845	1.141970	-0.473459	-0.624235	2.658246	-0.725098	-1.011230	-0.007080	81.223959	10.000631	114.855799
27036		-0.712197	12.297736	1.423817	-0.369349	-0.704012	2.822198	-0.738037	-0.995117	-0.004150	80.988725	8.336613	114.702213
27037		-0.997489	12.390240	1.713266	-0.267460	-0.766231	2.956697	-0.765869	-0.984375	-0.002197	80.814057	6.588067	114.532692
27038		-1.340093	12.464573	2.033766	-0.201904	-0.778504	3.066444	-0.793457	-0.973877	-0.016602	80.683233	4.778150	114.371038
27039		-1.711854	12.385015	2.292021	-0.185948	-0.770053	3.132458	-0.819336	-0.953369	-0.006836	80.567548	2.929092	114.225302
27040		-2.172759	12.309358	2.536224	-0.224837	-0.756600	3.153987	-0.839844	-0.925781	-0.008301	80.434969	1.071097	114.092832
27041		-2.757677	12.089336	2.687902	-0.295527	-0.759441	3.119493	-0.860840	-0.909912	0.003418	80.265986	-0.770260	113.961029
27042		-3.520482	11.885014	2.660347	-0.359110	-0.795281	3.039781	-0.887939	-0.878906	0.000732	80.065597	-2.568310	113.806443
27043		-4.417458	11.814000	2.564346	-0.415663	-0.891534	2.924910	-0.910645	-0.852051	0.008545	79.840968	-4.313874	113.593006
27044		-5.251128	11.701577	2.464637	-0.452697	-1.003834	2.800843	-0.930908	-0.847168	0.001709	79.607963	-5.999673	113.309199
27045		-6.112069	11.274490	2.304370	-0.457703	-1.131976	2.676045	-0.944092	-0.806641	0.010254	79.389588	-7.631632	112.945924
27046		-7.090706	10.797444	2.096716	-0.426217	-1.246978	2.531151	-0.958496	-0.801270	0.017090	79.210694	-9.193512	112.505444
27047		-7.954857	9.968538	1.885909	-0.337023	-1.315917	2.382860	-0.969238	-0.766357	0.021240	79.103583	-10.682223	112.011877
27048		-8.743240	9.105649	1.750797	-0.212600	-1.335007	2.197654	-0.986572	-0.751953	0.032227	79.086425	-12.067569	111.485720
27049		-9.350731	8.416336	1.750077	-0.087998	-1.270660	1.984017	-1.007080	-0.733887	0.042969	79.150170	-13.327029	110.970195
27050		-9.807950	7.801050	1.725868	0.000477	-1.141392	1.748786	-1.009766	-0.709717	0.052734	79.264456	-14.437954	110.498692
27051		-10.051505	7.166899	1.702586	0.012293	-0.957296	1.477752	-1.025879	-0.699463	0.055176	79.374787	-15.377007	110.100533
27052		-10.295253	6.538470	1.664842	-0.044575	-0.749698	1.141431	-1.025635	-0.682861	0.053223	79.436076	-16.103019	109.783697
27053		-10.588340	6.041239	1.584746	-0.140566	-0.546204	0.752588	-1.033447	-0.689941	0.057373	79.424223	-16.589358	109.542616
27054		-10.910582	5.776810	1.615615	-0.245839	-0.373548	0.339092	-1.026611	-0.674561	0.064941	79.337531	-16.823950	109.357258
27055		-11.150756	5.576964	1.547567	-0.313861	-0.254592	-0.053643	-1.020752	-0.681152	0.056885	79.204440	-16.825632	109.198549
27056		-11.103007	5.474504	1.673544	-0.308905	-0.180475	-0.418749	-1.035645	-0.678711	0.060791	79.073302	-16.613694	109.042221
27057		-15.560323	0.583694	1.655052	0.672687	-0.229790	-2.113774	-1.024170	-0.701416	0.069580	79.562048	-15.452363	108.670942
27058		3.060626	0.659672	-0.558331	1.550082	-0.311374	-2.928567	-1.016602	-0.724121	0.071289	80.573459	-13.834501	108.187072
27059		3.343345	13.397526	0.950012	1.187613	-0.702893	-2.930758	-1.003418	-0.748047	0.078369	81.408448	-12.243192	107.505674
27060		2.584227	10.940351	-0.217998	0.573470	-0.866807	-3.048533	-1.002197	-0.777588	0.093994	81.889039	-10.591215	106.742390
27061		0.144178	9.733741	0.218793	0.370544	-1.008785	-3.379876	-0.978760	-0.795654	0.092773	82.245863	-8.757027	105.887345
27062		-0.886380	9.848602	-0.430591	-0.048199	-1.076270	-3.751957	-0.959961	-0.828857	0.115234	82.341730	-6.713412	104.976570
27063		-1.132747	11.257276	-1.182334	-0.044720	-0.932649	-3.816020	-0.955566	-0.853271	0.112305	82.398638	-4.621272	104.149420
27064		-0.575567	12.992907	-1.888016	0.130688	-0.638300	-3.632485	-0.939453	-0.880615	0.115479	82.514783	-2.610039	103.509210
27065		-0.046565	12.334743	-2.924200	0.333461	-0.267585	-3.428104	-0.917480	-0.898438	0.129883	82.718518	-0.685804	103.101421
27066		-1.086785	14.860490	-1.232854	0.354670	0.213056	-3.391559	-0.899658	-0.919434	0.126221	82.922008	1.253429	102.976451
27067		-1.737873	14.833265	-1.927767	-0.026737	0.510442	-3.363722	-0.884277	-0.951172	0.125244	82.909641	3.198151	103.025905
27068		-2.380724	16.258657	3.894652	-0.034990	0.682177	-3.084046	-0.865967	-0.968506	0.114502	82.902391	4.995922	103.192741
27069		-8.484390	19.490730	6.092270	0.143377	0.879882	-2.306139	-0.849365	-0.987549	0.108643	83.018952	6.365199	103.529691
27070		-6.203950	17.077581	2.085758	0.969748	0.638656	-0.724772	-0.845215	-0.986816	0.116211	83.611489	6.816256	103.843604
27071		-1.097384	13.178363	-2.011112	0.490352	0.429457	-0.195704	-0.844482	-0.987305	0.120850	83.921119	6.950767	104.074470
27072		-1.645324	11.704328	0.235640	-0.076554	0.292560	-0.254691	-0.835693	-0.999023	0.118164	83.896374	7.109712	104.223487
27073		-1.777829	9.646416	1.278584	-0.001526	0.164680	-0.152820	-0.834717	-0.988037	0.116943	83.906780	7.203130	104.305461
27074		-1.349210	10.420947	0.345145	-0.042693	0.117414	-0.106805	-0.837646	-0.995361	0.116455	83.890445	7.267183	104.363011
27075		-1.547326	9.850886	1.021652	-0.084438	0.111739	-0.080408	-0.838623	-0.996826	0.116211	83.850251	7.316162	104.419025
27076		-1.518821	10.160146	0.705480	-0.028992	0.077008	-0.021706	-0.842529	-1.001465	0.109619	83.839561	7.329310	104.458590
27077		-1.447513	10.249679	0.662386	-0.054932	0.058228	0.006960	-0.836182	-0.990967	0.108643	83.813083	7.325273	104.489268
27078		-1.446819	9.898883	0.796980	-0.076502	0.042184	0.030311	-0.839600	-1.002930	0.112305	83.773033	7.306670	104.512071
27079		-1.338574	9.670701	1.003722	-0.071699	0.021960	0.024588	-0.844727	-0.990234	0.118164	83.734438	7.290375	104.523043
27080		-1.297829	9.684225	1.019649	-0.051736	0.024468	0.024137	-0.844238	-0.988281	0.112793	83.707228	7.274207	104.535305
27081		-1.269744	9.640271	1.043634	-0.040533	0.025450	0.028088	-0.841797	-0.992432	0.106689	83.686770	7.256151	104.548519
27082		-1.291512	9.716822	0.976785	-0.028566	0.025638	0.026694	-0.842041	-0.989014	0.110107	83.672935	7.238609	104.561627
27083		-1.282293	9.762015	0.949530	-0.029579	0.023375	0.018577	-0.844727	-0.993408	0.112549	83.658522	7.225846	104.573053
27084		-1.301604	9.701226	0.995278	-0.032377	0.015671	0.013884	-0.840332	-0.997314	0.108887	83.641677	7.214974	104.579630
27085		-1.257404	9.652410	1.074705	-0.024182	0.008498	0.011536	-0.843262	-0.979736	0.114258	83.629227	7.205283	104.582074
27086		-1.292425	9.746196	0.970325	-0.022145	0.001086	0.005522	-0.838623	-0.988525	0.111328	83.617126	7.198247	104.579748
27087		-1.243041	9.667536	1.066057	-0.026217	-0.009933	-0.003440	-0.845215	-0.996094	0.109131	83.602067	7.195910	104.570657
27088		-1.266853	9.701861	0.994404	-0.008811	-0.018041	-0.006206	-0.835449	-0.991699	0.113525	83.596138	7.194329	104.556602
27089		-1.268395	9.743837	0.998292	0.012417	-0.028112	-0.018409	-0.843018	-0.992676	0.109863	83.601788	7.199354	104.536115
27090		-1.269599	9.701673	0.992733	0.032322	-0.032176	-0.024485	-0.836182	-0.991943	0.116943	83.618259	7.207282	104.512772
27091		-1.258519	9.717200	0.976428	0.040063	-0.036886	-0.030808	-0.841064	-0.988525	0.114014	83.639014	7.218821	104.486457
27092		-1.281559	9.773450	0.973515	0.039508	-0.041614	-0.034967	-0.840576	-0.991699	0.106689	83.658829	7.232136	104.457032
27093		-1.271244	9.746651	0.953659	0.031829	-0.052219	-0.050186	-0.837402	-0.995605	0.109375	83.673592	7.253759	104.420688
27094		-1.290918	9.698001	1.014687	0.029293	-0.058875	-0.058740	-0.844482	-0.997070	0.113770	83.686088	7.279539	104.379846
27095		-1.244059	9.609994	1.052220	0.029410	-0.065621	-0.057321	-0.842041	-0.991943	0.111328	83.698403	7.304400	104.335363
27096		-1.235306	9.625139	1.037000	0.027229	-0.062032	-0.052223	-0.838867	-0.991943	0.116455	83.709505	7.326287	104.293128
27097		-1.253727	9.651349	1.052243	0.024433	-0.059804	-0.051992	-0.847412	-1.000488	0.114014	83.719403	7.348496	104.252327
27098		-1.283335	9.652580	1.027043	0.028166	-0.062997	-0.050518	-0.833984	-0.994141	0.110352	83.730954	7.369367	104.209649
27099		-1.234184	9.597478	1.014545	0.028259	-0.055816	-0.050350	-0.842529	-0.993408	0.116699	83.743322	7.390907	104.171247
27100		-1.246109	9.636313	1.049834	0.023990	-0.045397	-0.033739	-0.836914	-0.989502	0.118408	83.753890	7.403337	104.139738
27101		-1.255640	9.590994	1.078097	0.020247	-0.032260	-0.030296	-0.844238	-0.994873	0.107910	83.763557	7.414936	104.116130
27102		-1.275491	9.670155	0.973084	0.020536	-0.024616	-0.028493	-0.838135	-0.998291	0.109375	83.773717	7.425682	104.096890
27103		-1.272419	9.607820	1.038061	0.020068	-0.016167	-0.021330	-0.834961	-0.994629	0.113281	83.784542	7.433181	104.083090
27104		-1.267721	9.578164	1.053058	0.016238	-0.010219	-0.018064	-0.836914	-1.010742	0.111572	83.793390	7.438886	104.072774
27105		-1.236521	9.579561	1.041728	0.009635	-0.001437	-0.020020	-0.840088	-0.999756	0.113770	83.799340	7.446557	104.067519
27106		-1.252565	9.605940	1.058164	0.001006	0.004812	-0.020885	-0.839844	-0.995605	0.114014	83.800556	7.454801	104.065663
27107		-1.248141	9.576077	1.074822	-0.005187	0.014506	-0.019593	-0.841797	-0.994385	0.117432	83.799205	7.463214	104.069593
27108		-1.276300	9.619379	1.055583	-0.010020	0.014206	-0.018250	-0.834717	-0.992188	0.121582	83.794825	7.470539	104.073297
27109		-1.265343	9.559910	1.089007	-0.001367	0.029078	-0.018463	-0.838867	-0.999023	0.118408	83.796761	7.479211	104.085668
27110		-1.255220	9.542676	1.125119	0.006827	0.031880	-0.015909	-0.832031	-0.995361	0.117432	83.803376	7.486295	104.099673
27111		-1.255190	9.533020	1.070319	0.007278	0.033389	-0.018141	-0.836914	-0.994873	0.118896	83.810592	7.495048	104.114539
27112		-1.302311	9.548366	1.042542	0.006121	0.043835	-0.016576	-0.838623	-0.995605	0.116455	83.817698	7.503247	104.135373
27113		-1.259973	9.574844	1.072000	-0.002410	0.053301	-0.011076	-0.836914	-1.002441	0.104492	83.820919	7.509200	104.162121
27114		-1.267342	9.562106	1.051437	-0.005410	0.065629	-0.013005	-0.844482	-0.992920	0.113037	83.823090	7.516706	104.195701
27115		-1.249554	9.547870	1.054412	-0.006703	0.072245	-0.012353	-0.834229	-1.003662	0.111084	83.825272	7.524552	104.233254
27116		-1.272641	9.529053	1.100758	-0.002063	0.072082	-0.015327	-0.836670	-0.996826	0.116455	83.829837	7.533776	104.270400
27117		-1.280603	9.516360	1.079008	0.014102	0.081193	-0.018031	-0.831055	-1.007080	0.111816	83.844580	7.545397	104.312745
27118		-1.270842	9.573998	1.066718	0.017712	0.084741	-0.017998	-0.841797	-0.999268	0.120117	83.861424	7.556903	104.357006
27119		-1.235964	9.513368	1.120202	0.029143	0.084183	-0.029774	-0.830566	-0.996094	0.118164	83.884935	7.575370	104.400352
27120		-1.290266	9.516230	1.068593	0.041851	0.093553	-0.031632	-0.836914	-0.996338	0.117676	83.916196	7.595143	104.448854
27121		-1.307070	9.575441	1.029454	0.054170	0.098048	-0.030535	-0.843018	-0.994873	0.115967	83.955125	7.614836	104.500146
27122		-1.337307	9.619186	1.001905	0.074465	0.098300	-0.034130	-0.838867	-0.998535	0.119629	84.005453	7.636250	104.551257
27123		-1.406234	9.723328	0.915547	0.089192	0.086454	-0.047805	-0.832031	-0.995117	0.114990	84.063468	7.665007	104.594883
27124		-1.398924	9.738970	0.892021	0.099539	0.065260	-0.061801	-0.842041	-1.002686	0.110840	84.125460	7.700143	104.625398
27125		-1.394003	9.796628	0.870832	0.116642	0.043071	-0.079095	-0.836914	-1.002930	0.118164	84.195670	7.744113	104.642301
27126		-1.382061	9.740503	0.857481	0.148890	0.033701	-0.096096	-0.833984	-0.999023	0.111084	84.283272	7.796908	104.652764
27127		-1.386027	9.785356	0.810769	0.184260	0.005970	-0.122245	-0.835449	-1.000000	0.118652	84.389034	7.863333	104.645994
27128		-1.386054	9.874853	0.730287	0.222498	-0.009563	-0.155521	-0.839600	-1.008057	0.119873	84.514980	7.947581	104.628426
27129		-1.383729	9.934425	0.663126	0.256115	-0.030965	-0.204158	-0.832520	-0.999268	0.119629	84.658354	8.058763	104.596204
27130		-1.413390	10.036238	0.571707	0.292906	-0.049767	-0.263273	-0.827393	-1.001221	0.127686	84.820546	8.202463	104.550163
27131		-1.434100	10.067881	0.458182	0.308054	-0.065081	-0.337343	-0.837891	-1.012939	0.128174	84.989784	8.388093	104.492026
27132		-1.458678	10.005523	0.461368	0.338224	-0.099173	-0.430896	-0.826660	-1.005615	0.132568	85.172314	8.625322	104.409964
27133		-1.154730	10.341646	0.409150	0.381477	-0.118730	-0.549684	-0.815186	-1.019043	0.136963	85.377045	8.930037	104.311837
27134		-1.042128	10.705947	0.225570	0.378090	0.012980	-0.834977	-0.821045	-1.019775	0.135742	85.589123	9.403692	104.277736
27135		-1.344345	10.798070	0.163633	0.386800	0.056717	-1.169311	-0.805908	-1.017334	0.141602	85.808272	10.070659	104.256339
27136		-0.854384	12.442370	1.224066	0.200982	0.103089	-1.473529	-0.790527	-1.030518	0.132568	85.923312	10.913163	104.250865
27137		-1.285019	11.913480	0.588399	0.026082	0.113196	-1.851894	-0.775635	-1.046143	0.143311	85.936594	11.972582	104.236723
27138		-1.341654	12.185586	0.672680	-0.060603	0.072017	-2.228419	-0.769775	-1.059570	0.131104	85.890837	13.245242	104.182151
27139		-1.146602	12.397602	1.042562	-0.046562	0.030593	-2.625927	-0.753906	-1.066162	0.141846	85.841820	14.743528	104.085087
27140		-1.188749	12.223161	1.383030	0.090298	-0.002024	-3.083977	-0.720215	-1.084473	0.139404	85.857397	16.501972	103.947541
27141		-0.966501	11.702598	1.933368	0.345539	-0.050731	-3.575728	-0.689941	-1.098389	0.141846	86.000420	18.539812	103.761263
27142		-1.226540	11.805153	1.728812	0.488215	-0.061293	-4.225785	-0.662354	-1.122803	0.137939	86.208203	20.949215	103.545622
27143		-1.192167	13.082841	0.969727	0.522791	-0.223670	-4.776436	-0.629150	-1.137207	0.145508	86.382486	23.668184	103.212800
27144		-1.984125	12.265584	0.897130	0.401134	-0.373178	-5.514715	-0.580811	-1.155762	0.153809	86.417481	26.804443	102.753784
27145		-2.861513	13.025472	1.302868	0.131822	-0.487659	-6.347324	-0.531494	-1.175049	0.156250	86.212666	30.411903	102.166397
27146		-4.997570	15.412111	1.737563	-0.098056	-0.524249	-6.832422	-0.473633	-1.192383	0.152588	85.792344	34.292362	101.484707
27147		-8.716188	20.331059	1.748109	-0.313541	-0.231064	-7.079819	-0.408203	-1.204346	0.153320	85.282255	38.322218	100.925475
27148		-12.668553	25.145826	2.770357	-0.576721	0.111835	-6.805316	-0.354980	-1.202148	0.133301	84.715791	42.208251	100.559339
27149		-9.261125	25.434850	3.925502	-1.048469	0.500218	-6.242801	-0.301270	-1.207520	0.134033	84.050178	45.791701	100.464954
27150		-6.985919	18.673205	2.316459	-1.317710	0.951268	-5.727096	-0.248291	-1.208252	0.121582	83.494814	49.108878	100.734911
27151		-2.784204	16.666607	1.822804	-1.251295	1.272853	-5.527000	-0.201416	-1.204346	0.098389	83.212559	52.334089	101.295415
27152		0.852643	16.465552	2.114269	-1.184863	1.544235	-5.278719	-0.153564	-1.197998	0.099609	83.245625	55.437874	102.175492
27153		3.089890	14.465030	2.331786	-1.284765	1.819131	-5.284313	-0.111084	-1.186035	0.093506	83.564607	58.560300	103.432445
27154		5.292155	12.844575	2.725500	-1.439760	2.020331	-5.575478	-0.064453	-1.176270	0.074707	84.148151	61.856679	105.053966
27155		8.478943	10.266021	0.104534	-1.651374	2.201760	-5.355027	-0.013672	-1.153320	0.071777	85.136058	65.024287	107.214983
27156		5.378153	10.976303	-0.360282	-1.769232	2.529860	-4.105048	0.025635	-1.146484	0.053223	87.037199	67.466792	110.398016
27157		5.617603	20.813899	1.227856	-2.104149	2.397958	-1.776370	0.041748	-1.131104	0.053223	89.137733	68.524648	113.963232
27158		5.464718	17.672449	1.754188	-2.182083	2.446496	0.097593	0.038086	-1.122314	0.030029	91.435758	68.458130	117.776015
27159		4.799090	11.736162	1.385094	-1.821734	2.293561	1.325032	0.031250	-1.125732	0.032471	93.557568	67.636056	121.188782
27160		4.512339	9.227912	1.657041	-1.257409	1.997485	2.096695	0.018311	-1.122559	0.019531	95.297605	66.346370	123.860777
27161		3.883152	8.778584	1.820121	-0.937036	1.598599	2.586960	0.003662	-1.130127	0.013916	96.422635	64.772075	125.686242
27162		3.278894	8.640317	2.168866	-0.842551	1.208393	2.937692	-0.022949	-1.134521	0.008301	96.936286	63.016605	126.794762
27163		2.855919	8.215341	2.318831	-0.873199	0.834736	3.234669	-0.056641	-1.146240	-0.007568	96.901185	61.112816	127.321651
27164		2.449182	7.789300	2.277410	-0.923933	0.461891	3.503878	-0.085449	-1.145996	-0.004150	96.417780	59.084983	127.373719
27165		2.006062	7.385097	2.135684	-0.914953	0.110143	3.725609	-0.116943	-1.154541	-0.026611	95.627434	56.948849	127.060643
27166		1.534204	7.385717	1.944615	-0.854277	-0.199249	3.875866	-0.147949	-1.151855	-0.027588	94.671436	54.744105	126.495996
27167		1.184978	7.716069	1.734126	-0.818475	-0.458295	3.966753	-0.191895	-1.154785	-0.046631	93.617424	52.489122	125.770182
27168		0.841188	8.315223	1.550423	-0.809015	-0.660642	4.051000	-0.223877	-1.157471	-0.048584	92.521961	50.188254	124.960020
27169		0.409299	9.144552	1.331508	-0.842291	-0.832602	4.163632	-0.267090	-1.157959	-0.063965	91.391678	47.812771	124.102924
27170		0.031392	9.872133	1.146937	-0.912319	-0.971566	4.303717	-0.308838	-1.144531	-0.079834	90.240346	45.351527	123.236610
27171		-0.303877	10.447774	0.876812	-0.974927	-1.074997	4.456478	-0.351074	-1.137207	-0.096680	89.095413	42.786595	122.394837
27172		-0.539743	10.875590	0.695783	-0.990544	-1.141165	4.620847	-0.396484	-1.119629	-0.115234	88.007155	40.119650	121.607315
27173		-0.871313	11.460019	0.479498	-0.954336	-1.169534	4.782132	-0.444824	-1.108154	-0.129395	87.015356	37.344729	120.897408
27174		-1.216225	12.040025	0.318830	-0.880576	-1.176868	4.935630	-0.485840	-1.099121	-0.142578	86.143742	34.477811	120.270442
27175		-1.648314	12.722335	0.308393	-0.784112	-1.162773	5.047738	-0.532959	-1.082275	-0.156006	85.398821	31.535607	119.728987
27176		-2.149981	13.687348	0.363790	-0.690037	-1.147594	5.131587	-0.584961	-1.060059	-0.173584	84.769105	28.545997	119.259440
27177		-2.689589	14.732404	0.524478	-0.618012	-1.139091	5.196735	-0.642334	-1.030518	-0.202148	84.227367	25.510521	118.847708
27178		-3.267380	15.797904	0.888565	-0.557555	-1.149301	5.256893	-0.686523	-0.997070	-0.220215	83.756171	22.442206	118.472451
27179		-4.024294	16.843003	1.470611	-0.494947	-1.181473	5.306760	-0.736084	-0.963135	-0.234131	83.344984	19.335518	118.115566
27180		-5.259425	17.806952	2.221609	-0.397999	-1.259243	5.350027	-0.781250	-0.920166	-0.242920	83.003876	16.202151	117.742495
27181		-6.870499	18.449093	2.951394	-0.260315	-1.423878	5.388366	-0.833008	-0.869873	-0.259521	82.742823	13.028002	117.299563
27182		-9.307890	19.176686	3.508093	-0.082415	-1.681795	5.418909	-0.858643	-0.809814	-0.263672	82.582787	9.821506	116.725862
27183		-12.191831	20.109996	3.729946	0.056318	-2.004160	5.443622	-0.893066	-0.749512	-0.266357	82.509170	6.570485	115.982317
27184		-15.953844	20.330017	4.027591	0.213997	-2.272831	5.466034	-0.912842	-0.703857	-0.263916	82.556114	3.291898	115.091763
27185		-19.969447	20.157994	4.108800	0.379587	-2.401921	5.507030	-0.932861	-0.641357	-0.255127	82.746557	-0.022590	114.128047
27186		-23.143484	19.209564	3.985535	0.430032	-2.312187	5.474575	-0.946289	-0.600342	-0.241699	83.020887	-3.303332	113.198563
27187		-25.570099	16.900825	3.409979	0.215617	-2.044037	5.286634	-0.959961	-0.548828	-0.234375	83.213554	-6.459136	112.393659
27188		-27.090371	13.238394	2.222728	-0.287508	-1.728178	4.886974	-0.965820	-0.508057	-0.216553	83.140522	-9.361002	111.733692
27189		-27.796875	8.407837	0.944773	-0.894620	-1.403685	4.305648	-0.984619	-0.447998	-0.209717	82.721914	-11.915384	111.227881
27190		-27.765690	3.007052	0.421919	-1.332777	-0.998594	3.510508	-0.989258	-0.402100	-0.193604	82.028874	-13.988924	110.916569
27191		-26.726501	-0.911149	0.352247	-1.512242	-0.494136	2.477861	-0.988037	-0.371826	-0.185791	81.182898	-15.440940	110.838430
27192		-33.634757	-7.257709	-1.398869	-0.938976	0.222066	0.470156	-0.989502	-0.345215	-0.184814	80.599769	-15.690907	111.009910
27193		-34.913268	-17.403187	-4.324372	0.798660	0.406206	-1.894699	-0.979248	-0.356934	-0.203369	81.043465	-14.587260	111.065521
27194		-34.449326	-15.260279	-3.118999	3.139345	-0.279320	-3.756732	-0.982910	-0.388672	-0.211182	82.954311	-12.482182	110.591144
27195		0.956756	14.743404	-0.440371	3.402868	-0.225977	-4.668361	-0.984131	-0.433350	-0.223145	84.986489	-9.839761	110.170125
27196		1.250419	29.841025	-4.439249	0.819244	-1.052466	-4.640924	-0.984375	-0.463623	-0.240234	85.580482	-7.243136	109.337958
27197		-1.659745	15.316585	-3.918993	-0.998708	-1.457373	-4.632646	-0.986328	-0.480469	-0.250000	85.118608	-4.668867	108.281418
27198		-2.396008	11.180520	-6.161872	-0.421164	-0.978885	-4.408419	-0.988770	-0.516602	-0.269531	84.925071	-2.205085	107.498772
27199		1.117019	18.734342	-9.068799	-0.141323	0.098047	-4.562806	-0.971924	-0.550537	-0.289795	84.847965	0.400244	107.318355
27200		-1.495347	24.733902	-5.220972	-1.177331	1.110739	-4.520331	-0.964844	-0.581055	-0.314697	84.185643	3.035234	107.701167
27201		-9.002171	22.064851	10.363041	-1.376938	1.801204	-3.582377	-0.951660	-0.608887	-0.330811	83.455626	5.183324	108.505182
27202		-14.046921	15.805076	10.849965	0.765415	0.811317	-1.521481	-0.939697	-0.616699	-0.350830	83.930918	6.096886	108.869937
27203		0.917832	13.513803	-4.676438	1.082217	0.137320	-0.554305	-0.937988	-0.619629	-0.345459	84.556781	6.417526	108.913273
27204		-1.911832	13.587425	0.134122	0.051820	0.408449	-0.665542	-0.936768	-0.634521	-0.352051	84.609815	6.815323	109.108211
27205		-3.030212	10.379455	1.715579	0.197357	0.157259	-0.190954	-0.927246	-0.628662	-0.345459	84.733291	6.929361	109.185025
27206		-1.357893	11.957763	-1.295162	0.043437	0.041868	-0.049299	-0.932861	-0.632080	-0.357178	84.761245	6.955774	109.203105
27207		-1.819057	10.185162	0.632798	-0.130220	0.041796	-0.032704	-0.935059	-0.627930	-0.353027	84.690170	6.973395	109.222085
27208		-1.358102	10.224708	0.415549	-0.070536	-0.016749	-0.005312	-0.935303	-0.635986	-0.356689	84.649025	6.971619	109.208801
27209		-1.348998	9.949516	0.675442	-0.067585	-0.011553	0.003328	-0.927734	-0.633545	-0.352051	84.610362	6.965857	109.199044
27210		-1.238698	9.789242	0.758389	-0.053212	-0.014666	0.006220	-0.932373	-0.627930	-0.350342	84.579367	6.957599	109.187586
27211		-1.158509	9.640264	0.867892	-0.051142	0.000697	0.000353	-0.931885	-0.625244	-0.358398	84.550962	6.954180	109.184715
27212		-1.167168	9.656954	0.834591	-0.041994	0.009288	-0.003671	-0.929199	-0.628906	-0.356445	84.527997	6.952858	109.186486
27213		-1.126200	9.640490	0.869449	-0.046825	0.011734	-0.020763	-0.928955	-0.632080	-0.356201	84.502688	6.962070	109.188794
27214		-1.197187	9.679448	0.892297	-0.066567	0.022760	-0.031418	-0.928467	-0.626221	-0.360107	84.466398	6.977316	109.196767
27215		-1.197731	9.698542	0.829307	-0.092134	0.025054	-0.022967	-0.933105	-0.614502	-0.359131	84.416038	6.988512	109.206593
27216		-1.214843	9.724273	0.853480	-0.090882	0.029076	-0.008420	-0.927734	-0.625732	-0.356934	84.366415	6.991011	109.219467
27217		-1.240299	9.809410	0.844013	-0.099301	0.022403	-0.005059	-0.936279	-0.625977	-0.364502	84.311884	6.991851	109.228771
27218		-1.197026	9.708212	0.877150	-0.105627	0.014894	-0.001959	-0.927002	-0.622559	-0.356934	84.252867	6.989881	109.233866
27219		-1.191550	9.669584	0.994280	-0.086363	0.008446	-0.008089	-0.935303	-0.624756	-0.365234	84.204747	6.991648	109.234977
27220		-1.180934	9.629700	0.965281	-0.068761	0.007505	-0.009887	-0.928711	-0.625977	-0.362793	84.166280	6.993776	109.235369
27221		-1.141289	9.550295	1.068054	-0.050179	0.009404	-0.009044	-0.915771	-0.626465	-0.353271	84.138944	6.996130	109.236970
27222		-1.189451	9.595594	1.024068	-0.026703	0.007980	-0.017224	-0.926514	-0.629150	-0.358154	84.124555	7.002469	109.237199
27223		-1.156674	9.554338	1.015146	-0.013449	0.004938	-0.019335	-0.929932	-0.626465	-0.364014	84.117866	7.010413	109.235623
27224		-1.188308	9.565172	1.043241	0.002226	0.015560	-0.012888	-0.932617	-0.623047	-0.362793	84.120614	7.014726	109.240460
27225		-1.202694	9.612275	0.987408	0.020270	0.022634	-0.011373	-0.922852	-0.619873	-0.363037	84.134534	7.019154	109.249514
27226		-1.224140	9.668712	0.983498	0.031278	0.016647	-0.014067	-0.932861	-0.618164	-0.358154	84.153996	7.024201	109.254908
27227		-1.262135	9.717715	0.900176	0.028905	0.009646	-0.024198	-0.930664	-0.631592	-0.364502	84.171853	7.035164	109.255750
27228		-1.283565	9.836440	0.830440	0.011961	-0.008041	-0.035733	-0.931885	-0.620117	-0.369385	84.178355	7.051122	109.245698
27229		-1.278850	9.818632	0.867815	-0.003016	-0.020063	-0.042003	-0.926270	-0.618652	-0.360840	84.175695	7.070495	109.228436
27230		-1.254534	9.744405	0.906972	0.003924	-0.034219	-0.048930	-0.924561	-0.621826	-0.363281	84.175637	7.092453	109.202575
27231		-1.207251	9.668504	0.970577	0.024559	-0.039793	-0.046761	-0.930908	-0.631836	-0.362793	84.187323	7.113382	109.173701
27232		-1.154918	9.563288	1.048299	0.062562	-0.033551	-0.044063	-0.924316	-0.627930	-0.358398	84.220928	7.132617	109.148515
27233		-1.134660	9.519968	1.061231	0.132854	-0.020402	-0.039385	-0.933838	-0.624268	-0.356201	84.296074	7.150478	109.131231
27234		-1.250539	9.688518	0.881273	0.141868	-0.012246	-0.045046	-0.926514	-0.630859	-0.365479	84.376626	7.171536	109.118275
27235		-1.226229	9.615737	0.907005	0.137451	-0.008177	-0.048628	-0.926025	-0.625488	-0.357422	84.455205	7.195382	109.107542
27236		-1.221669	9.661423	0.864669	0.137547	0.001488	-0.059783	-0.934082	-0.631348	-0.364014	84.534166	7.225635	109.101722
27237		-1.209752	9.689815	0.860114	0.131360	0.013630	-0.070190	-0.934570	-0.632080	-0.353271	84.610678	7.262978	109.102411
27238		-1.259491	9.705594	0.816572	0.129187	0.013665	-0.080331	-0.931641	-0.639404	-0.360352	84.685599	7.305619	109.102568
27239		-1.234435	9.602871	0.860460	0.132217	0.014560	-0.097084	-0.921631	-0.626953	-0.363281	84.762497	7.358340	109.102463
27240		-1.289099	9.702526	0.822141	0.157056	0.019874	-0.109076	-0.927490	-0.635498	-0.355957	84.853668	7.417705	109.104809
27241		-1.308921	9.719128	0.768803	0.156450	0.024207	-0.118884	-0.931641	-0.634033	-0.356445	84.945041	7.483348	109.109296
27242		-1.312600	9.701973	0.790888	0.161445	0.027434	-0.129650	-0.927734	-0.638184	-0.359619	85.039191	7.554826	109.115150
27243		-1.296709	9.628781	0.814037	0.178484	0.030861	-0.141334	-0.928955	-0.632568	-0.358887	85.143584	7.633585	109.122581
27244		-1.238355	9.602292	0.798078	0.216641	0.036822	-0.147684	-0.921387	-0.641846	-0.355225	85.270017	7.715787	109.133245
27245		-1.287601	9.539477	0.848969	0.268101	0.056761	-0.151629	-0.932129	-0.643311	-0.360107	85.427770	7.801583	109.155477
27246		-1.250133	9.527781	0.817764	0.333237	0.084188	-0.165835	-0.927734	-0.645020	-0.350342	85.624722	7.896209	109.193100
27247		-1.339437	9.615071	0.710363	0.383920	0.100788	-0.181429	-0.922607	-0.644531	-0.353027	85.852317	8.000742	109.240045
27248		-1.374466	9.702419	0.617742	0.400386	0.096954	-0.212801	-0.921875	-0.661133	-0.361084	86.088752	8.122434	109.283887
27249		-1.455259	9.862927	0.423584	0.403509	0.074298	-0.257735	-0.921875	-0.661621	-0.356445	86.325295	8.269194	109.313497
27250		-1.441004	10.004166	0.370732	0.386293	0.050779	-0.308652	-0.920654	-0.656250	-0.355713	86.549650	8.443696	109.328236
27251		-1.295093	10.105741	0.381661	0.345260	0.070605	-0.372829	-0.918945	-0.666992	-0.349365	86.752281	8.655922	109.352990
27252		-1.102681	10.583672	-0.074060	0.342064	0.111089	-0.534538	-0.911133	-0.676758	-0.354248	86.955854	8.961439	109.396757
27253		-1.488416	10.358672	0.264392	0.294668	0.131448	-0.781648	-0.910156	-0.676270	-0.351318	87.133699	9.409191	109.446072
27254		-1.363937	10.638716	0.358972	0.273381	0.151623	-0.960984	-0.911377	-0.694580	-0.348389	87.300865	9.959602	109.503410
27255		-1.348142	11.102014	0.312081	0.233022	0.177516	-1.217963	-0.907715	-0.694824	-0.346436	87.447556	10.657983	109.570673
27256		-1.361473	11.556239	0.511226	0.151347	0.169105	-1.511084	-0.904541	-0.710693	-0.350830	87.546025	11.523433	109.627175
27257		-1.438927	11.944385	0.433680	0.113056	0.139368	-1.854541	-0.886475	-0.724609	-0.351074	87.618665	12.585019	109.659385
27258		-1.416959	12.442242	0.530931	0.101391	0.101025	-2.279133	-0.882813	-0.737549	-0.341309	87.677809	13.888407	109.660106
27259		-1.343052	12.625449	0.863228	0.163815	0.080109	-2.780284	-0.871338	-0.755615	-0.350098	87.767324	15.478504	109.638511
27260		-1.042068	12.767439	1.399655	0.438552	0.073067	-3.316538	-0.863037	-0.777832	-0.337891	88.010146	17.375272	109.605431
27261		-0.758122	12.774137	1.775103	0.777546	0.090011	-3.934929	-0.844971	-0.803467	-0.327393	88.449575	19.626823	109.582688
27262		-0.699223	13.144639	1.697143	1.055583	0.067958	-4.681857	-0.827637	-0.836182	-0.309814	89.046442	22.305863	109.557736
27263		-0.842394	12.718716	1.494416	1.215191	-0.027012	-5.478827	-0.794678	-0.873047	-0.306641	89.720521	25.441061	109.500001
27264		-1.873077	13.018952	1.117364	1.090902	-0.203669	-6.310024	-0.762695	-0.903320	-0.291260	90.284719	29.052843	109.364794
27265		-3.427801	14.538041	2.015638	0.802222	-0.348045	-7.207797	-0.728271	-0.943848	-0.269531	90.643111	33.180423	109.166747
27266		-6.607713	18.547468	2.261175	0.467438	-0.267940	-7.724543	-0.686035	-0.976318	-0.269043	90.840916	37.604338	109.044192
27267		-12.487666	26.985046	1.712542	0.059099	0.193660	-7.633404	-0.649658	-1.004150	-0.242188	91.024360	41.971776	109.276356
27268		-13.075670	29.104711	3.244889	-0.571868	0.726586	-6.923803	-0.601074	-1.017334	-0.224854	91.168422	45.926669	109.954555
27269		-9.094930	23.250333	1.862909	-0.999430	1.218427	-6.126058	-0.570557	-1.026123	-0.218994	91.446676	49.415834	111.104137
27270		-2.917110	19.052306	1.087520	-1.020961	1.599564	-5.749267	-0.532471	-1.020264	-0.195068	92.117910	52.676622	112.717903
27271		3.260719	16.762213	1.452172	-0.924817	1.942916	-5.471820	-0.496094	-1.016846	-0.173584	93.332962	55.751327	114.867418
27272		4.470717	12.120103	1.427216	-0.942274	2.114944	-5.505409	-0.463135	-1.004639	-0.164063	95.027282	58.806397	117.521092
27273		7.453479	8.422017	0.925598	-0.909418	2.099909	-5.639311	-0.427734	-0.992920	-0.160156	97.206144	61.887296	120.626134
27274		4.162942	6.486036	-2.041639	-0.624552	2.393538	-5.210475	-0.393555	-0.979248	-0.148438	100.440414	64.625586	124.646162
27275		1.880016	17.837374	0.078733	-0.839450	2.392108	-3.576512	-0.367676	-0.957275	-0.127441	103.832750	66.337514	128.902149
27276		4.886564	19.694952	1.043953	-1.154404	2.461709	-1.469715	-0.369385	-0.933838	-0.114502	106.812655	66.774709	132.869924
27277		3.412168	14.672704	1.191837	-1.359305	2.492088	0.073635	-0.365479	-0.899658	-0.103760	109.120346	66.289495	136.234444
27278		3.140325	9.702792	1.080695	-1.186565	2.333391	1.098772	-0.367188	-0.872559	-0.094971	110.746354	65.239519	138.762069
27279		2.457986	7.573422	1.164210	-0.953929	2.049921	1.630301	-0.358154	-0.838379	-0.073975	111.778362	63.938502	140.509698
27280		1.645870	6.769427	1.673572	-0.847687	1.726105	1.857333	-0.366943	-0.808105	-0.058105	112.310754	62.578939	141.648658
27281		1.297636	6.151662	2.131325	-0.855670	1.392479	1.953911	-0.359863	-0.766846	-0.031250	112.393586	61.235628	142.298562
27282		1.152483	5.613399	2.376974	-0.876750	1.048569	2.055333	-0.346191	-0.744385	-0.014404	112.079478	59.916315	142.513669
27283		0.954520	5.610655	2.571470	-0.842245	0.676644	2.185558	-0.344238	-0.715820	-0.000244	111.411534	58.604901	142.298505
27284		0.736132	6.046796	2.739937	-0.755521	0.304814	2.343763	-0.324219	-0.698242	0.030518	110.466026	57.286248	141.692691
27285		0.532277	6.629024	2.843731	-0.656515	-0.053189	2.550222	-0.315430	-0.696045	0.052979	109.283170	55.917446	140.727152
27286		0.459474	7.303392	2.897857	-0.581920	-0.407780	2.794874	-0.295166	-0.687500	0.068848	107.891024	54.471798	139.436812
27287		0.294077	8.039648	2.865312	-0.572874	-0.727264	3.062219	-0.279297	-0.686035	0.073242	106.309820	52.911799	137.882927
27288		0.020345	8.577739	2.692275	-0.621065	-1.015309	3.330845	-0.280273	-0.687012	0.093018	104.577338	51.224540	136.136736
27289		-0.072014	8.874317	2.415930	-0.674219	-1.265752	3.584569	-0.270020	-0.701416	0.105957	102.749643	49.393940	134.264830
27290		-0.212761	9.093957	2.084385	-0.704324	-1.471471	3.831300	-0.273438	-0.710693	0.109375	100.905338	47.415189	132.337563
27291		-0.395413	9.604550	1.819566	-0.718051	-1.629550	4.055566	-0.272217	-0.716064	0.115967	99.100482	45.282148	130.413201
27292		-0.517464	10.375297	1.469398	-0.748926	-1.737754	4.287639	-0.288086	-0.739258	0.117920	97.370324	42.990194	128.544152
27293		-0.698198	11.077111	1.137903	-0.797496	-1.792578	4.531393	-0.294434	-0.748291	0.120117	95.732714	40.520605	126.772867
27294		-0.870718	11.773517	0.806337	-0.878414	-1.793823	4.759346	-0.305664	-0.756836	0.112793	94.198911	37.889443	125.141836
27295		-1.204870	12.618446	0.469924	-0.977453	-1.754574	4.960578	-0.324707	-0.773926	0.111816	92.764508	35.105648	123.673517
27296		-1.618092	13.489249	0.239950	-1.097825	-1.680014	5.139459	-0.346436	-0.771729	0.104004	91.421597	32.194497	122.384297
27297		-2.083536	14.323037	0.036979	-1.230016	-1.591101	5.285876	-0.365723	-0.789551	0.102295	90.148175	29.170425	121.271620
27298		-2.623093	14.983339	-0.098333	-1.337132	-1.497018	5.404290	-0.407227	-0.786377	0.091064	88.944807	26.063629	120.327272
27299		-3.194450	15.649499	-0.080181	-1.398010	-1.427096	5.503435	-0.428955	-0.784180	0.083496	87.810121	22.879948	119.523513
27300		-3.923319	16.445861	0.022427	-1.384079	-1.375312	5.573600	-0.451416	-0.783203	0.076172	86.768780	19.649042	118.837260
27301		-4.670028	17.559521	0.242965	-1.293093	-1.373722	5.614081	-0.474854	-0.776611	0.070313	85.838353	16.379587	118.226049
27302		-5.591401	19.017781	0.812755	-1.134248	-1.409186	5.660174	-0.511963	-0.769043	0.067627	85.044415	13.078750	117.656929
27303		-7.071234	20.575606	1.471945	-0.927026	-1.515019	5.732700	-0.527588	-0.753662	0.080566	84.399055	9.719359	117.080434
27304		-9.238946	21.962814	1.967669	-0.694280	-1.714895	5.849715	-0.561523	-0.741943	0.082764	83.912118	6.281110	116.434768
27305		-11.703867	22.841447	2.138228	-0.508590	-1.984372	5.985900	-0.578369	-0.723145	0.092773	83.560857	2.739095	115.673694
27306		-15.036315	22.686877	2.249424	-0.323556	-2.196859	6.081737	-0.609619	-0.708008	0.093750	83.362308	-0.870202	114.816723
27307		-18.385059	21.259626	2.111237	-0.131846	-2.285346	6.087036	-0.623047	-0.694092	0.116455	83.329201	-4.494392	113.916636
27308		-21.072602	18.386187	2.074127	0.042773	-2.154131	5.944271	-0.649414	-0.670654	0.126953	83.446442	-8.023731	113.074647
27309		-23.050358	14.373282	2.155133	0.137862	-1.868329	5.572801	-0.674072	-0.653320	0.145996	83.646601	-11.324241	112.356849
27310		-24.609507	9.718521	2.318435	0.083586	-1.499682	4.905077	-0.693359	-0.641602	0.160889	83.820211	-14.215641	111.792308
27311		-25.948784	5.860319	1.700542	-0.317120	-1.211750	3.958079	-0.707764	-0.638672	0.166748	83.762253	-16.551595	111.327764
27312		-27.094113	1.510160	0.484445	-0.765263	-0.922202	2.794187	-0.715088	-0.626221	0.175293	83.434143	-18.205463	110.961187
27313		-28.247847	-0.116666	-0.479869	-1.071663	-0.652652	1.625474	-0.717529	-0.617188	0.172119	82.909780	-19.179937	110.682904
27314		-29.454043	-0.301763	-1.438475	-1.086249	-0.421046	0.650690	-0.718262	-0.612305	0.179443	82.356766	-19.584646	110.476556
27315		-36.931969	-6.658777	-8.527653	-0.585572	-0.310467	-0.208380	-0.712646	-0.620117	0.168945	82.091129	-19.494659	110.269114
27316		-34.713547	-7.493480	1.797285	1.257401	-0.269881	-3.483872	-0.697754	-0.636475	0.173828	82.951972	-17.539699	109.830093
27317		1.394388	-1.796850	-2.863309	2.525369	-0.627781	-4.292107	-0.682617	-0.657715	0.186279	84.583758	-15.136999	109.175849
27318		6.741819	24.127820	-5.748728	1.231249	-0.748160	-4.525096	-0.667236	-0.681641	0.194580	85.452073	-12.595219	108.500653
27319		0.433159	14.652992	-5.001392	-0.617453	-1.070903	-4.975851	-0.645752	-0.699707	0.187988	85.266475	-9.806074	107.638597
27320		-3.936739	12.879713	-3.397495	-0.843196	-0.878156	-5.113186	-0.619385	-0.717285	0.183838	84.895376	-6.934231	106.874659
27321		-1.203058	14.193376	-6.455986	-0.493159	-0.420368	-4.817081	-0.604248	-0.738281	0.181396	84.661967	-4.210358	106.377883
27322		-0.070902	21.304602	-5.687754	-0.580175	0.622720	-5.042589	-0.580566	-0.759521	0.176025	84.326769	-1.304198	106.452572
27323		-5.073925	23.137547	-0.219570	-1.429137	1.083976	-4.900965	-0.564209	-0.777832	0.160156	83.509724	1.551075	106.769271
27324		-5.315089	17.910981	7.665040	-1.305104	1.279977	-4.131828	-0.534424	-0.792480	0.146729	82.784115	3.985019	107.212158
27325		-13.202870	17.592583	12.899515	0.408737	0.968059	-2.732960	-0.523682	-0.801270	0.158203	83.049258	5.604692	107.567457
27326		-4.648523	16.348449	-0.759124	1.455322	0.198628	-0.762500	-0.517822	-0.799316	0.148926	83.890118	6.047688	107.627884
27327		0.947446	13.372435	-1.853240	0.384453	0.387082	-0.793471	-0.515381	-0.795654	0.151367	84.130165	6.520659	107.798638
27328		-3.966025	10.905612	2.362078	0.286628	0.237069	-0.411250	-0.504395	-0.802246	0.157471	84.307862	6.764824	107.907457
27329		-1.856449	12.379382	-1.028528	0.290167	-0.006041	-0.140762	-0.514160	-0.799561	0.154053	84.473479	6.842425	107.892614
27330		-1.747708	11.340991	-0.465871	-0.009088	-0.023936	-0.068055	-0.514160	-0.801514	0.156006	84.466660	6.875983	107.871722
27331		-1.609736	10.444759	0.318255	-0.046235	-0.080747	-0.032252	-0.514404	-0.805420	0.153076	84.435177	6.887559	107.820123
27332		-1.298338	10.231916	0.421240	-0.059219	-0.087162	-0.033145	-0.516357	-0.805176	0.151123	84.395496	6.897664	107.764842
27333		-1.331194	9.834567	0.763456	-0.056501	-0.096201	-0.024606	-0.511963	-0.802979	0.146729	84.357114	6.903917	107.704793
27334		-1.118044	9.493000	1.019709	-0.001967	-0.097056	-0.019045	-0.506592	-0.799805	0.161133	84.349636	6.905366	107.644617
27335		-1.120094	9.535189	1.021591	0.059085	-0.093116	-0.021386	-0.515869	-0.795654	0.155518	84.377699	6.909908	107.586523
27336		-1.064548	9.597882	0.966167	0.085627	-0.078810	-0.021951	-0.515869	-0.804199	0.165283	84.421643	6.914083	107.536664
27337		-1.187178	9.752025	0.772346	0.095621	-0.067634	-0.032165	-0.512939	-0.806641	0.153320	84.472306	6.926228	107.492611
27338		-1.274235	9.880039	0.731546	0.097157	-0.076971	-0.037404	-0.510742	-0.809326	0.159180	84.522863	6.939402	107.442958
27339		-1.248359	9.869046	0.695957	0.071404	-0.082565	-0.046144	-0.511475	-0.799805	0.155029	84.558499	6.958742	107.389577
27340		-1.241734	9.809870	0.725072	0.053381	-0.086415	-0.048217	-0.507080	-0.802979	0.158447	84.583214	6.977634	107.333920
27341		-1.164139	9.766302	0.760816	0.033597	-0.078394	-0.056214	-0.515869	-0.803223	0.165527	84.597375	7.002955	107.282402
27342		-1.207739	9.793743	0.750563	0.005690	-0.076291	-0.050346	-0.506592	-0.800537	0.153076	84.595420	7.023632	107.232451
27343		-1.201291	9.734154	0.785611	-0.004253	-0.070680	-0.051179	-0.510498	-0.805176	0.160889	84.588428	7.046462	107.185641
27344		-1.150386	9.597378	0.918487	-0.017403	-0.060554	-0.048806	-0.507080	-0.810791	0.155029	84.574323	7.067100	107.144808
27345		-1.129540	9.553214	0.942725	-0.023467	-0.043820	-0.047850	-0.502197	-0.804199	0.157227	84.558204	7.089432	107.113606
27346		-1.155052	9.429934	1.054488	-0.020753	-0.018994	-0.045516	-0.513428	-0.806396	0.156250	84.545122	7.110433	107.096827
27347		-1.194008	9.469769	1.066953	-0.001686	0.004886	-0.043181	-0.498535	-0.803467	0.157471	84.544948	7.132707	107.093867
27348		-1.259057	9.634881	0.918362	0.011752	0.012706	-0.037521	-0.509033	-0.806152	0.156738	84.552798	7.150873	107.095746
27349		-1.286643	9.635738	0.892186	0.009953	0.004090	-0.040376	-0.511475	-0.807617	0.164307	84.559243	7.171472	107.092486
27350		-1.218494	9.589381	0.963066	0.007951	-0.008661	-0.052813	-0.515869	-0.809570	0.164307	84.563276	7.197199	107.081249
27351		-1.232403	9.543625	0.992509	-0.002214	-0.007198	-0.063206	-0.505127	-0.803711	0.161865	84.561768	7.230177	107.070253
27352		-1.182747	9.426662	1.053049	0.000925	-0.001700	-0.068777	-0.509521	-0.798828	0.162842	84.562158	7.265388	107.062142
27353		-1.213069	9.407360	1.097676	0.016068	0.014411	-0.069014	-0.511963	-0.798584	0.154785	84.572634	7.302820	107.063256
27354		-1.215287	9.439254	1.044953	0.034063	0.032000	-0.061417	-0.501465	-0.809814	0.158447	84.594523	7.335658	107.074939
27355		-1.264707	9.453909	1.010989	0.048578	0.039491	-0.059470	-0.510986	-0.809326	0.157471	84.625531	7.368965	107.091022
27356		-1.279129	9.587077	0.924564	0.053359	0.043020	-0.054349	-0.502686	-0.814209	0.163818	84.659356	7.398350	107.109462
27357		-1.270527	9.602552	0.906198	0.054856	0.057733	-0.047603	-0.505371	-0.806885	0.160645	84.695411	7.425810	107.136717
27358		-1.277442	9.547669	0.876695	0.048719	0.074688	-0.030801	-0.509766	-0.807861	0.162598	84.729119	7.443410	107.174670
27359		-1.267110	9.543716	0.929729	0.036150	0.076251	-0.028317	-0.511230	-0.800049	0.159912	84.755989	7.460780	107.213635
27360		-1.254936	9.517184	0.909630	0.033582	0.086036	-0.026558	-0.503174	-0.805664	0.162598	84.781927	7.476515	107.258362
27361		-1.309012	9.603430	0.861402	0.034631	0.092337	-0.031875	-0.508545	-0.809570	0.160889	84.809129	7.496689	107.306418
27362		-1.370499	9.761065	0.799416	0.024045	0.089282	-0.030522	-0.508545	-0.801758	0.158691	84.829851	7.514814	107.352823
27363		-1.381874	9.735318	0.755580	0.013690	0.076690	-0.025150	-0.510742	-0.803955	0.146240	84.843953	7.530286	107.392242
27364		-1.365638	9.701823	0.828974	0.006506	0.066259	-0.024556	-0.509033	-0.810059	0.156738	84.852955	7.543799	107.425718
27365		-1.345945	9.762175	0.785708	-0.003089	0.062750	-0.019773	-0.501709	-0.804199	0.156006	84.856444	7.555453	107.457399
27366		-1.332617	9.735374	0.769844	-0.011267	0.073599	-0.017017	-0.500244	-0.814209	0.157959	84.855884	7.565037	107.495495
27367		-1.295153	9.707679	0.779297	-0.007986	0.090267	-0.005878	-0.505127	-0.801758	0.159424	84.858760	7.570152	107.543741
27368		-1.288183	9.752618	0.748076	0.013911	0.098302	-0.009243	-0.502686	-0.806152	0.155273	84.874563	7.576559	107.596462
27369		-1.351578	9.719516	0.776477	0.042406	0.104812	-0.010181	-0.503906	-0.803223	0.162842	84.907400	7.584820	107.652867
27370		-1.310693	9.705136	0.799272	0.080294	0.107233	-0.017545	-0.501465	-0.810059	0.156006	84.961877	7.596354	107.710317
27371		-1.278509	9.665406	0.777339	0.122900	0.116156	-0.029327	-0.509277	-0.811768	0.149902	85.041599	7.615981	107.772308
27372		-1.317223	9.725568	0.701651	0.168288	0.112407	-0.040429	-0.513428	-0.805176	0.160156	85.146781	7.640674	107.831644
27373		-1.377625	9.780101	0.688067	0.191421	0.112983	-0.054711	-0.499268	-0.806641	0.162109	85.265422	7.674402	107.890658
27374		-1.375914	9.844273	0.565963	0.217420	0.089736	-0.092102	-0.506104	-0.807129	0.163086	85.396768	7.727303	107.934610
27375		-1.453726	9.956118	0.513604	0.215015	0.052868	-0.135695	-0.497314	-0.804199	0.164551	85.523881	7.804282	107.955428
27376		-1.427460	10.001543	0.455154	0.195472	0.011076	-0.179518	-0.511719	-0.813232	0.157959	85.636071	7.903457	107.950371
27377		-1.418381	9.988363	0.408509	0.185477	-0.024883	-0.239367	-0.495850	-0.809326	0.170654	85.739541	8.036219	107.922142
27378		-1.372147	9.899771	0.459694	0.229266	-0.058838	-0.324347	-0.497314	-0.810059	0.164551	85.864552	8.215239	107.870979
27379		-1.379632	9.884735	0.405788	0.320864	-0.084548	-0.440299	-0.499023	-0.810791	0.162109	86.039318	8.460536	107.800666
27380		-0.379659	10.982122	0.197165	0.425507	-0.036557	-0.646483	-0.498291	-0.806152	0.166260	86.276526	8.824877	107.750934
27381		-1.076794	11.018163	0.252534	0.487404	0.122732	-1.114779	-0.487305	-0.816162	0.175293	86.561241	9.463800	107.778105
27382		-1.184122	12.062520	0.344531	0.369760	0.197029	-1.574623	-0.477051	-0.825195	0.174805	86.783924	10.367224	107.835818
27383		-1.028173	13.204668	0.476741	0.133517	0.164142	-1.998959	-0.475342	-0.821777	0.166504	86.866789	11.513027	107.863318
27384		-1.311974	12.956254	0.383308	-0.058909	0.084132	-2.447444	-0.455078	-0.833984	0.176514	86.826884	12.912049	107.830070
27385		-1.363038	13.271931	0.448217	-0.170690	-0.014137	-2.892850	-0.438477	-0.832520	0.177979	86.704543	14.563386	107.721929
27386		-1.363586	12.686724	0.654062	-0.176261	-0.123621	-3.346092	-0.430664	-0.838867	0.171631	86.552523	16.469272	107.527933
27387		-0.853880	12.318091	1.645501	0.045528	-0.196950	-3.819242	-0.413330	-0.854980	0.179199	86.501087	18.643529	107.267186
27388		-0.522644	12.242685	2.031334	0.299942	-0.237771	-4.430461	-0.385742	-0.858154	0.180908	86.567780	21.165318	106.955697
27389		-0.560654	11.751439	2.239984	0.533187	-0.264004	-5.189135	-0.357666	-0.872070	0.187988	86.737562	24.121278	106.600324
27390		-1.125224	11.621687	2.271308	0.662975	-0.336310	-5.903104	-0.332275	-0.876221	0.191895	86.933381	27.483934	106.175414
27391		-1.917477	12.263196	2.942077	0.651777	-0.250593	-6.846132	-0.288818	-0.882813	0.196777	87.110019	31.390276	105.772873
27392		-4.673533	15.693545	2.828367	0.541103	-0.155347	-7.440876	-0.258057	-0.882324	0.194580	87.220136	35.640207	105.409208
27393		-9.648821	21.803428	2.596258	0.248895	0.165050	-7.715852	-0.215088	-0.874512	0.209229	87.269223	40.056854	105.255303
27394		-14.729980	28.529589	3.642778	-0.305009	0.619937	-7.262993	-0.172852	-0.885254	0.213623	87.232585	44.226731	105.459817
27395		-11.217135	28.428944	3.984383	-1.123893	1.090990	-6.330175	-0.144775	-0.872559	0.212158	87.045609	47.876399	106.093333
27396		-6.670816	19.533381	1.845969	-1.540726	1.539923	-5.782596	-0.113037	-0.867432	0.207275	86.990981	51.227311	107.180279
27397		-0.214485	17.477860	1.467618	-1.400663	1.873426	-5.455875	-0.084717	-0.861572	0.204102	87.395943	54.397864	108.694652
27398		4.309344	15.381678	1.580011	-1.255756	2.157357	-5.254901	-0.052490	-0.858643	0.215332	88.332515	57.449344	110.692424
27399		4.719763	11.204729	1.630872	-1.191963	2.337769	-5.432871	-0.026367	-0.846436	0.223633	89.789657	60.579384	113.187132
27400		7.860297	7.277443	0.013823	-1.130178	2.418715	-5.461155	0.002197	-0.837646	0.228027	91.841696	63.685818	116.238788
27401		3.801421	6.669274	-1.188529	-1.005264	2.636844	-4.834866	0.040039	-0.822266	0.232422	94.842891	66.359571	120.183175
27402		2.904443	18.013115	0.510078	-1.388306	2.573405	-2.969491	0.041260	-0.830566	0.229004	97.961825	67.883764	124.430260
27403		3.973967	18.603003	1.468632	-1.757937	2.694737	-1.115687	0.055664	-0.822754	0.240479	100.987677	68.255254	128.777211
27404		2.662170	13.334843	1.100196	-1.922746	2.699666	0.283595	0.053223	-0.827393	0.246094	103.534365	67.764995	132.710659
27405		2.599827	9.267323	1.060060	-1.685862	2.503753	1.287264	0.054199	-0.849121	0.248535	105.424728	66.686555	135.808064
27406		1.898097	7.831109	1.106523	-1.488613	2.204127	1.900098	0.043701	-0.858154	0.256348	106.613046	65.288988	138.041566
27407		0.927309	7.102796	1.306196	-1.412132	1.865177	2.238420	0.034180	-0.867432	0.265625	107.155351	63.745953	139.538547
27408		0.431325	6.419804	1.543178	-1.388938	1.493136	2.417621	0.031982	-0.880615	0.265381	107.152451	62.167684	140.427766
27409		0.187173	5.469173	1.718438	-1.313212	1.112902	2.559027	0.019775	-0.895264	0.261719	106.723341	60.573825	140.796394
27410		0.049238	4.803137	1.794905	-1.111055	0.697691	2.713149	0.011230	-0.911865	0.253174	105.986811	58.967247	140.679759
27411		-0.086244	4.816451	1.978758	-0.821459	0.258956	2.852884	-0.005371	-0.933105	0.257324	105.032193	57.346737	140.110622
27412		-0.247690	5.406242	2.098257	-0.519019	-0.167891	2.986839	-0.020508	-0.948730	0.249268	103.940488	55.711274	139.157449
27413		-0.324198	6.198791	2.151926	-0.281629	-0.567912	3.124930	-0.042236	-0.967041	0.247314	102.732787	54.037925	137.878931
27414		-0.425118	7.110534	2.178984	-0.149878	-0.924844	3.290375	-0.058838	-0.971680	0.242432	101.423185	52.302414	136.349186
27415		-0.499481	7.941465	2.087159	-0.138498	-1.231820	3.469530	-0.080078	-0.995605	0.240479	100.004767	50.473549	134.636516
27416		-0.566483	8.691345	1.944887	-0.227483	-1.469624	3.633094	-0.113281	-1.009766	0.231689	98.504511	48.551299	132.834464
27417		-0.679101	9.284849	1.744049	-0.347965	-1.647529	3.793084	-0.135010	-1.025146	0.223145	96.956904	46.517283	131.008029
27418		-0.906829	9.819978	1.478047	-0.483661	-1.776696	3.967099	-0.171387	-1.033447	0.218750	95.400108	44.363674	129.211256
27419		-1.120013	10.379387	1.261707	-0.607375	-1.875259	4.152258	-0.196289	-1.039795	0.209961	93.859767	42.071017	127.471412
27420		-1.404625	10.951881	1.059196	-0.705094	-1.943891	4.348885	-0.236816	-1.049316	0.202881	92.373991	39.639949	125.816897
27421		-1.740885	11.531713	0.835687	-0.765810	-1.975669	4.529309	-0.284180	-1.049072	0.189453	90.975369	37.070415	124.271555
27422		-2.151566	12.187042	0.761920	-0.767622	-1.976603	4.713445	-0.321289	-1.048096	0.189453	89.707482	34.372882	122.852347
27423		-2.575996	13.086427	0.705656	-0.722446	-1.959423	4.896111	-0.361816	-1.041992	0.172852	88.589381	31.542180	121.559369
27424		-2.967290	13.935145	0.645656	-0.653875	-1.935050	5.101098	-0.405029	-1.025879	0.170654	87.627797	28.580642	120.386506
27425		-3.388264	14.786278	0.739363	-0.569277	-1.907018	5.317006	-0.439697	-1.025146	0.171387	86.817731	25.475451	119.322919
27426		-3.769186	15.577214	0.903113	-0.499432	-1.890539	5.505639	-0.484375	-1.016602	0.168701	86.138138	22.256473	118.348920
27427		-4.161316	16.447830	1.167386	-0.445470	-1.874807	5.640592	-0.530273	-0.994141	0.179443	85.566427	18.945779	117.450472
27428		-4.687567	17.628667	1.341823	-0.423241	-1.870190	5.693199	-0.571777	-0.968262	0.181885	85.074253	15.603326	116.607319
27429		-5.304356	18.823763	1.610369	-0.440406	-1.858401	5.709517	-0.621338	-0.951416	0.209717	84.630896	12.239915	115.813869
27430		-6.225394	19.988151	1.913317	-0.421912	-1.855889	5.687814	-0.649658	-0.922852	0.220215	84.250798	8.889374	115.055135
27431		-7.835045	21.208003	2.191240	-0.356003	-1.867450	5.699077	-0.677979	-0.885986	0.230713	83.954415	5.521671	114.317511
27432		-9.757273	21.893234	2.416213	-0.209753	-1.914217	5.751715	-0.705322	-0.857666	0.246826	83.785495	2.123891	113.574089
27433		-12.213582	22.293041	2.687877	-0.017437	-1.937537	5.826499	-0.729980	-0.830566	0.262451	83.770689	-1.324486	112.829380
27434		-14.702128	21.517614	2.768215	0.154834	-1.870457	5.881385	-0.761719	-0.791504	0.279053	83.898104	-4.793895	112.121618
27435		-16.272321	18.983517	2.926765	0.268655	-1.666631	5.813756	-0.773438	-0.766602	0.298096	84.121608	-8.215009	111.512675
27436		-17.213263	15.357554	3.377843	0.307788	-1.288627	5.499533	-0.794434	-0.731934	0.305664	84.371974	-11.428110	111.084393
27437		-18.809943	12.128189	3.503797	0.100938	-0.889319	4.905412	-0.814209	-0.706299	0.312500	84.484514	-14.282426	110.840988
27438		-20.148897	9.373460	2.959411	-0.478169	-0.536845	4.091628	-0.831299	-0.677734	0.318359	84.233245	-16.649576	110.759040
27439		-21.252968	7.146878	1.818512	-1.204487	-0.195121	3.178482	-0.839844	-0.659180	0.313232	83.518141	-18.478608	110.843038
27440		-22.499067	4.711638	0.590174	-1.826102	0.055234	2.295020	-0.843750	-0.645996	0.305176	82.407037	-19.783776	111.043378
27441		-23.641103	2.464298	-0.531388	-2.058130	0.226546	1.532794	-0.849854	-0.642334	0.301514	81.135685	-20.639612	111.311089
27442		-24.411889	1.034639	-1.256352	-1.896724	0.326714	0.915435	-0.851563	-0.632080	0.289551	79.947641	-21.130372	111.597698
27443		-24.276391	-0.605829	-1.414598	-1.413003	0.351231	0.348005	-0.856201	-0.635254	0.288086	79.048681	-21.293838	111.845889
27444		-22.561859	-0.888377	-1.134973	-0.736798	0.323827	-0.323400	-0.851318	-0.635986	0.294678	78.571932	-21.080304	111.999388
27445		-23.960382	-6.000124	-0.834669	0.901810	0.111842	-2.023232	-0.853516	-0.640869	0.288330	79.150447	-19.933496	111.824356
27446		3.500442	2.012506	-0.753318	2.982800	-0.028264	-4.047936	-0.837402	-0.669922	0.302490	81.003075	-17.655938	111.382165
27447		2.945838	16.526115	-1.095939	2.592996	-0.593473	-3.864049	-0.822510	-0.687256	0.314697	82.684164	-15.515018	110.700008
27448		1.906064	14.927709	-1.179278	0.949885	-0.943759	-3.889849	-0.808105	-0.710938	0.317139	83.437831	-13.371933	109.864379
27449		-1.608226	8.727147	0.369560	0.143886	-1.376272	-4.610292	-0.779053	-0.739746	0.343750	83.752890	-10.836987	108.758282
27450		-4.156810	15.625693	-0.612099	-0.184930	-1.362730	-4.756920	-0.769287	-0.765137	0.347412	83.828116	-8.215808	107.669058
27451		-2.572916	18.108615	-2.778124	-0.581441	-1.336062	-4.170556	-0.747803	-0.781738	0.343750	83.622752	-5.926125	106.635834
27452		0.058466	15.154040	-5.773184	-0.527546	-0.915428	-3.708785	-0.726563	-0.803467	0.349365	83.386938	-3.878078	105.868289
27453		0.844573	14.501024	-5.849022	-0.487204	-0.311705	-3.654321	-0.704102	-0.820801	0.349365	83.129898	-1.821598	105.441292
27454		-1.150385	17.532673	-4.987813	-0.902372	0.495174	-3.667789	-0.695557	-0.849609	0.334961	82.613468	0.294823	105.458811
27455		-0.061001	13.972042	0.828973	-1.296468	0.780958	-3.428922	-0.677246	-0.855469	0.342773	81.875847	2.299925	105.633853
27456		-4.281058	15.688165	7.171368	-0.811842	1.330912	-3.112713	-0.665039	-0.875732	0.330566	81.439384	4.171060	106.127208
27457		-10.840902	14.987980	11.192782	0.203209	0.837419	-2.188148	-0.660889	-0.885254	0.328125	81.581219	5.479944	106.414502
27458		-3.460722	13.668374	1.620045	1.435567	0.326482	-0.847292	-0.658691	-0.890137	0.330322	82.416120	5.982641	106.529579
27459		-0.507040	15.372792	-3.825571	0.456407	0.424096	-0.579990	-0.644775	-0.894287	0.334229	82.699639	6.342020	106.725321
27460		-2.175914	10.187275	2.487866	-0.026305	0.402144	-0.467576	-0.634521	-0.896240	0.326660	82.707205	6.632982	106.917863
27461		-1.837921	10.592601	0.935794	0.131035	0.134103	-0.278381	-0.646484	-0.898926	0.327393	82.789643	6.799250	106.971039
27462		-1.608925	11.503005	-0.188198	-0.068714	0.105300	-0.193221	-0.640869	-0.891846	0.330811	82.756291	6.912638	107.014056
27463		-1.808261	10.462972	0.911108	-0.154571	0.039135	-0.096521	-0.641357	-0.892578	0.328125	82.670380	6.968647	107.026109
27464		-1.408368	10.199767	0.853126	-0.123338	-0.010975	-0.057082	-0.635498	-0.902832	0.320801	82.598926	6.996239	107.012371
27465		-1.463203	10.147908	0.792332	-0.168653	-0.029054	-0.046838	-0.642822	-0.894043	0.315674	82.500650	7.018952	106.988964
27466		-1.371864	9.912781	1.011411	-0.212551	-0.063895	-0.059721	-0.642822	-0.901855	0.327881	82.374325	7.044005	106.944643
