// General information: 
//  MT Manager version: 2022.2.0 
//  XDA version: 2022.2.0 build 7381 rev 124627 built on 2023-07-19
// Device information: 
//  DeviceId: 00B4BCF6
//  ProductCode: MTW2-3A7G6
//  Firmware Version: 4.6.0
//  Hardware Version: 2.0.0
// Device settings: 
//  Filter Profile: human(46.1)
//  Option Flags: Orientation Smoother Disabled, Position/Velocity Smoother Disabled, Continuous Zero Rotation Update Disabled, AHS Disabled, ICC Disabled
// Coordinate system: ENU
PacketCounter	SampleTimeFine	Acc_X	Acc_Y	Acc_Z	Gyr_X	Gyr_Y	Gyr_Z	Mag_X	Mag_Y	Mag_Z	Roll	Pitch	Yaw
15520		-1.267353	9.650020	1.058563	0.001509	0.005163	-0.007087	-0.762207	-0.930908	0.106201	83.784354	7.539546	118.534959
15521		-1.286876	9.630190	1.098842	0.002072	0.003510	-0.007181	-0.777100	-0.924316	0.109131	83.786192	7.539846	118.533113
15522		-1.285761	9.638494	1.044717	0.000946	0.006815	-0.006994	-0.767578	-0.929199	0.106201	83.786866	7.540387	118.531752
15523		-1.303331	9.649212	1.101072	-0.002182	0.007231	-0.008999	-0.770020	-0.932861	0.104004	83.786532	7.541953	118.531931
15524		-1.287473	9.638264	1.044737	-0.000413	0.004356	-0.007754	-0.773682	-0.937256	0.108398	83.786217	7.542810	118.530114
15525		-1.297478	9.628284	1.065131	-0.003615	0.003664	-0.004019	-0.760254	-0.924561	0.102539	83.784834	7.541318	118.528555
15526		-1.296113	9.658775	1.081043	0.001586	0.006758	-0.009195	-0.775635	-0.930176	0.097412	83.785843	7.543155	118.527713
15527		-1.291370	9.629595	1.098789	-0.002334	0.004038	-0.004786	-0.763428	-0.930420	0.108154	83.785215	7.542124	118.526320
15528		-1.273120	9.649279	1.058399	-0.001053	0.004413	-0.005554	-0.764648	-0.937256	0.102295	83.784554	7.541722	118.525511
15529		-1.305531	9.656996	1.047598	-0.002975	0.003606	-0.006220	-0.764648	-0.930420	0.100342	83.783515	7.541480	118.523781
15530		-1.276284	9.640685	1.112646	-0.002258	0.005633	-0.006894	-0.772217	-0.922852	0.105957	83.782236	7.541977	118.523702
15531		-1.284440	9.639099	1.078997	0.000306	0.006871	-0.004794	-0.764160	-0.929688	0.104980	83.783335	7.541125	118.523936
15532		-1.311448	9.617727	1.085841	-0.001771	0.001896	-0.008514	-0.770508	-0.933350	0.095459	83.782081	7.542226	118.520192
15533		-1.276562	9.648772	1.058880	-0.002104	0.009312	-0.007474	-0.771240	-0.928223	0.101563	83.781961	7.543053	118.521662
15534		-1.286671	9.638776	1.079223	-0.002180	0.007716	-0.005367	-0.772949	-0.929443	0.112305	83.780893	7.542747	118.524302
15535		-1.304206	9.627281	1.065977	-0.002974	0.003605	-0.006221	-0.772705	-0.931396	0.101074	83.779854	7.542505	118.522571
15536		-1.278501	9.648469	1.059297	-0.001052	0.004411	-0.005554	-0.768555	-0.921875	0.099365	83.779233	7.542077	118.520912
15537		-1.288489	9.638491	1.079602	-0.001616	0.006063	-0.005461	-0.771729	-0.926270	0.102783	83.779164	7.541555	118.520641
15538		-1.305914	9.627005	1.066384	-0.004179	0.005314	-0.003927	-0.772705	-0.932861	0.099365	83.776820	7.540234	118.520601
15539		-1.295031	9.667379	1.062337	-0.003538	0.005257	-0.006128	-0.765869	-0.935303	0.094482	83.775583	7.540042	118.519825
15540		-1.282603	9.639671	1.114164	-0.005536	0.002854	-0.004688	-0.769531	-0.935791	0.101807	83.772232	7.539088	118.520078
15541		-1.273808	9.649428	1.094458	-0.007152	0.009405	-0.006515	-0.762451	-0.933838	0.106934	83.769234	7.539374	118.521661
15542		-1.308176	9.626524	1.067952	-0.002257	0.006119	-0.003261	-0.771729	-0.931885	0.098633	83.768063	7.537823	118.521000
15543		-1.321600	9.676186	1.086619	-0.005459	0.004449	-0.006796	-0.762451	-0.933838	0.097900	83.765660	7.537961	118.519718
15544		-1.260760	9.629875	1.093074	-0.004742	0.006476	-0.007469	-0.769043	-0.935303	0.100586	83.763032	7.538816	118.520902
15545		-1.283871	9.647437	1.062195	-0.003538	0.005255	-0.006129	-0.765625	-0.931396	0.104736	83.761796	7.538624	118.520125
15546		-1.293819	9.637426	1.082734	-0.004179	0.005312	-0.003928	-0.775146	-0.933350	0.105713	83.759461	7.537381	118.519504
15547		-1.277505	9.648716	1.096427	-0.002821	0.007282	-0.006802	-0.771240	-0.930664	0.108154	83.758783	7.537699	118.519850
15548		-1.280098	9.618024	1.080813	-0.005307	0.008615	-0.003742	-0.771973	-0.927490	0.096680	83.756082	7.536501	118.520720
15549		-1.304880	9.627180	1.103974	-0.006100	0.004504	-0.004596	-0.759766	-0.923584	0.101807	83.753333	7.535389	118.519608
15550		-1.288491	9.638490	1.117588	0.001435	0.003566	-0.004981	-0.769531	-0.926514	0.106201	83.754080	7.534595	118.518183
15551		-1.281719	9.617730	1.081511	-0.003613	0.003171	-0.007657	-0.759766	-0.937256	0.099365	83.752631	7.535144	118.516112
15552		-1.280624	9.648174	1.097552	-0.000333	0.005949	-0.009863	-0.777832	-0.932617	0.108643	83.752512	7.537327	118.514882
15553		-1.273931	9.627416	1.061380	-0.000411	0.004842	-0.004121	-0.779053	-0.933594	0.104004	83.753052	7.535965	118.513994
15554		-1.298879	9.636593	1.084086	-0.001539	0.007656	-0.007570	-0.762939	-0.932373	0.106201	83.752408	7.536859	118.515105
15555		-1.290174	9.646404	1.063938	-0.002181	0.007712	-0.005369	-0.765381	-0.933838	0.106445	83.752141	7.536388	118.515788
15556		-1.290982	9.646293	1.063971	-0.000332	0.005948	-0.009864	-0.770508	-0.931885	0.102539	83.752047	7.538576	118.513500
15557		-1.291836	9.646157	1.064167	-0.004893	0.002793	-0.006892	-0.770020	-0.931641	0.100342	83.749843	7.538665	118.511260
15558		-1.301842	9.636104	1.084875	-0.006100	0.004501	-0.004599	-0.770264	-0.931641	0.100586	83.746359	7.537720	118.510886
15559		-1.259106	9.668738	1.091906	-0.002823	0.007767	-0.003169	-0.767090	-0.935303	0.102051	83.745746	7.535998	118.511739
15560		-1.302730	9.635926	1.085397	-0.002332	0.004033	-0.004790	-0.771973	-0.926514	0.102783	83.744384	7.535153	118.510938
15561		-1.269593	9.636482	1.042827	-0.006023	0.006095	-0.006707	-0.762695	-0.932617	0.099854	83.741782	7.535342	118.510607
15562		-1.296500	9.615030	1.049963	-0.003462	0.007335	-0.004604	-0.772705	-0.934326	0.092285	83.740038	7.534577	118.511223
15563		-1.261240	9.668337	1.092987	-0.002258	0.006116	-0.003262	-0.768311	-0.928223	0.107422	83.739623	7.532806	118.511121
15564		-1.304895	9.635520	1.086398	-0.001615	0.006059	-0.005463	-0.766846	-0.935059	0.098389	83.738827	7.532442	118.511967
15565		-1.288610	9.646842	1.099918	-0.001050	0.004408	-0.005556	-0.773682	-0.936523	0.104492	83.738957	7.531871	118.510740
15566		-1.291277	9.616158	1.084108	-0.002328	0.003544	-0.008426	-0.762451	-0.928223	0.101563	83.737540	7.533069	118.509681
15567		-1.290023	9.646636	1.100061	0.000305	0.006867	-0.004795	-0.773438	-0.928955	0.110107	83.738638	7.532218	118.509915
15568		-1.300076	9.636643	1.120096	0.002079	0.003509	-0.007182	-0.765869	-0.929688	0.115967	83.739799	7.532662	118.506720
15569		-1.298804	9.645015	1.066033	0.000232	0.004784	-0.006323	-0.771240	-0.925781	0.109375	83.740685	7.532550	118.505660
15570		-1.282775	9.656323	1.079433	-0.000330	0.005946	-0.009865	-0.757324	-0.929932	0.098633	83.740669	7.534656	118.501764
15571		-1.293062	9.646273	1.099682	-0.001689	0.003975	-0.006992	-0.768066	-0.929688	0.112793	83.740389	7.534875	118.500197
15572		-1.286355	9.625511	1.063673	-0.001762	0.001891	-0.008520	-0.763428	-0.926025	0.100830	83.739214	7.536026	118.495696
15573		-1.285012	9.656001	1.079657	-0.000904	0.008573	-0.002501	-0.762939	-0.933838	0.103027	83.739767	7.533975	118.497053
15574		-1.309927	9.665153	1.102290	0.000159	0.002700	-0.007851	-0.773193	-0.929443	0.102539	83.739741	7.534795	118.494471
15575		-1.288143	9.625263	1.063758	-0.002332	0.004030	-0.004792	-0.774414	-0.930420	0.101318	83.739115	7.533764	118.493075
15576		-1.269911	9.667170	1.093278	-0.001616	0.006057	-0.005465	-0.765137	-0.930664	0.105469	83.738348	7.533363	118.493771
15577		-1.321181	9.632811	1.052912	-0.000972	0.006000	-0.007666	-0.782227	-0.925537	0.101074	83.738625	7.534092	118.493326
15578		-1.290040	9.624979	1.064024	-0.002331	0.004030	-0.004792	-0.769531	-0.928223	0.104248	83.737317	7.533170	118.492375
15579		-1.283394	9.626339	1.097870	-0.002249	0.005135	-0.010536	-0.769775	-0.928467	0.104980	83.736773	7.535480	118.491251
15580		-1.282408	9.656787	1.113831	0.000726	0.001049	-0.007945	-0.773438	-0.936523	0.103760	83.736977	7.536195	118.487494
15581		-1.316737	9.633878	1.086667	0.002790	0.006024	-0.004219	-0.770020	-0.935303	0.104736	83.739440	7.534963	118.487279
15582		-1.285580	9.626087	1.097525	-0.000972	0.005999	-0.007667	-0.766602	-0.932617	0.105957	83.739031	7.535870	118.487179
15583		-1.301365	9.645130	1.099910	0.000876	0.004725	-0.008525	-0.768311	-0.922607	0.099365	83.740263	7.537009	118.485947
15584		-1.277868	9.635824	1.077106	0.000876	0.004725	-0.008525	-0.773438	-0.927734	0.104004	83.740819	7.538296	118.484574
15585		-1.286134	9.634251	1.043177	0.002796	0.005534	-0.007856	-0.770264	-0.935547	0.102539	83.743218	7.539105	118.483849
15586		-1.287027	9.656298	1.112738	0.000948	0.006807	-0.006998	-0.771240	-0.939453	0.101563	83.743985	7.539649	118.484373
15587		-1.280341	9.635555	1.076574	-0.002177	0.007214	-0.009010	-0.769531	-0.932617	0.097900	83.743652	7.541220	118.484540
15588		-1.320468	9.663769	1.101850	-0.002969	0.003594	-0.006229	-0.758789	-0.927979	0.102783	83.741914	7.541170	118.484359
15589		-1.289268	9.633830	1.043192	-0.000972	0.005997	-0.007668	-0.768311	-0.932129	0.099854	83.742190	7.541900	118.483911
15590		-1.291872	9.625286	1.097165	-0.002260	0.006110	-0.003266	-0.761475	-0.931885	0.101807	83.741099	7.540320	118.483526
15591		-1.305543	9.674914	1.115597	-0.000405	0.004347	-0.007761	-0.764404	-0.943604	0.101563	83.741575	7.541000	118.482125
15592		-1.289301	9.664139	1.059225	-0.000334	0.006430	-0.006233	-0.767822	-0.937256	0.103027	83.741576	7.541184	118.481980
15593		-1.286326	9.604384	1.061072	-0.001120	0.002320	-0.007088	-0.764893	-0.929932	0.099121	83.741495	7.541355	118.479457
15594		-1.300103	9.654005	1.079440	0.000233	0.004780	-0.006325	-0.763916	-0.929443	0.104492	83.741706	7.541434	118.478822
15595		-1.300802	9.653906	1.079486	-0.002821	0.007268	-0.006811	-0.765137	-0.931641	0.106689	83.741026	7.541756	118.479159
15596		-1.295942	9.624709	1.097423	-0.001835	0.000293	-0.006416	-0.768555	-0.929443	0.107178	83.739749	7.541589	118.474139
15597		-1.286915	9.634584	1.077424	-0.003472	0.007814	-0.000973	-0.766113	-0.936768	0.104736	83.738786	7.538621	118.475158
15598		-1.304223	9.623067	1.064025	0.000162	0.002696	-0.007854	-0.760498	-0.925049	0.096680	83.738822	7.539421	118.471928
15599		-1.278754	9.644364	1.057264	0.000162	0.002696	-0.007854	-0.769043	-0.931641	0.102539	83.739498	7.540051	118.469573
15600		-1.288867	9.634319	1.077462	-0.001049	0.004402	-0.005561	-0.764160	-0.928467	0.104736	83.738964	7.539643	118.468896
15601		-1.289489	9.634238	1.077443	0.000233	0.004779	-0.006326	-0.772217	-0.925049	0.105225	83.739850	7.539534	118.467833
15602		-1.275282	9.615020	1.074889	0.000878	0.004722	-0.008527	-0.775879	-0.932129	0.101563	83.740458	7.540792	118.465848
15603		-1.315521	9.643201	1.099982	-0.002323	0.003534	-0.008433	-0.767090	-0.939209	0.108887	83.739768	7.541805	118.463938
15604		-1.306837	9.653079	1.079585	0.004785	0.008426	-0.005657	-0.766846	-0.930664	0.102051	83.742904	7.541702	118.465100
15605		-1.282930	9.643871	1.056701	-0.001127	0.002808	-0.003453	-0.772217	-0.921631	0.109619	83.742887	7.539833	118.463086
15606		-1.292943	9.633831	1.076944	-0.000971	0.005993	-0.007670	-0.770996	-0.927490	0.100098	83.742550	7.540668	118.461821
15607		-1.308612	9.652861	1.079392	-0.000482	0.002751	-0.005654	-0.762451	-0.935791	0.103027	83.742880	7.540048	118.459635
15608		-1.260728	9.656533	1.104082	-0.003458	0.006831	-0.008249	-0.763184	-0.936035	0.107666	83.741144	7.541333	118.460122
15609		-1.295007	9.633527	1.077179	0.000155	0.003185	-0.004218	-0.769775	-0.934570	0.103271	83.741883	7.539923	118.458276
15610		-1.263769	9.625793	1.088192	-0.000334	0.006426	-0.006235	-0.766113	-0.928467	0.098633	83.741942	7.540056	118.457545
15611		-1.296185	9.633377	1.077105	-0.000481	0.002751	-0.005654	-0.773438	-0.932373	0.102051	83.742272	7.539437	118.455359
15612		-1.296846	9.633298	1.077021	0.000948	0.006803	-0.007000	-0.760742	-0.935059	0.102539	83.743068	7.539974	118.456656
15613		-1.312601	9.652325	1.079337	0.000164	0.002694	-0.007856	-0.766113	-0.932373	0.107422	83.743745	7.540605	118.454299
15614		-1.281368	9.644595	1.090372	-0.000911	0.008565	-0.002506	-0.767090	-0.934082	0.098633	83.743673	7.538757	118.454671
15615		-1.291390	9.634546	1.110627	-0.001754	0.001882	-0.008527	-0.781006	-0.943604	0.104248	83.743184	7.539720	118.451806
15616		-1.314508	9.652058	1.079405	-0.000334	0.006425	-0.006236	-0.770020	-0.935791	0.109863	83.743219	7.539827	118.453592
15617		-1.273908	9.654287	1.070286	-0.001049	0.004399	-0.005563	-0.771973	-0.930664	0.101807	83.743349	7.539259	118.452359
15618		-1.293366	9.634269	1.110732	-0.001617	0.006047	-0.005471	-0.764893	-0.931641	0.105957	83.742670	7.538878	118.451867
15619		-1.275211	9.654119	1.070251	0.001662	0.008828	-0.007674	-0.766602	-0.924072	0.099121	83.744669	7.539789	118.453046
15620		-1.294687	9.634112	1.110549	-0.001694	0.004455	-0.003362	-0.761475	-0.926270	0.100342	83.743835	7.538110	118.451779
15621		-1.285729	9.644008	1.090434	-0.001048	0.004398	-0.005563	-0.768555	-0.929443	0.102295	83.743965	7.537542	118.450546
15622		-1.295727	9.633968	1.110587	0.000302	0.006858	-0.004800	-0.766357	-0.923340	0.096436	83.744437	7.536840	118.450879
15623		-1.286890	9.643869	1.090297	0.000234	0.004775	-0.006328	-0.761963	-0.932129	0.101318	83.745323	7.536731	118.449815
15624		-1.300394	9.671364	1.038892	-0.002899	0.005668	-0.004707	-0.772217	-0.931152	0.098877	83.743859	7.535911	118.450138
15625		-1.297434	9.633719	1.110752	-0.002898	0.005668	-0.004707	-0.773438	-0.930908	0.107666	83.743031	7.534935	118.449688
15626		-1.264102	9.634469	1.068081	-0.001048	0.004397	-0.005564	-0.769531	-0.930664	0.107422	83.742550	7.534476	118.449259
15627		-1.305781	9.632054	1.077346	-0.004113	0.007373	-0.002415	-0.772461	-0.929443	0.102783	83.741174	7.532301	118.449933
15628		-1.298879	9.633473	1.111204	-0.000479	0.002749	-0.005656	-0.767822	-0.926270	0.100098	83.740912	7.531795	118.447594
15629		-1.306913	9.631882	1.077513	-0.000970	0.005989	-0.007674	-0.767578	-0.926514	0.095703	83.741189	7.532529	118.447142
15630		-1.283189	9.622640	1.055052	-0.003534	0.005233	-0.006145	-0.771484	-0.927979	0.103760	83.739321	7.532467	118.447834
15631		-1.308235	9.631676	1.077750	-0.000267	0.008506	-0.004709	-0.767334	-0.932129	0.102051	83.740215	7.531669	118.449015
15632		-1.265807	9.664520	1.084627	-0.002184	0.007693	-0.005381	-0.770020	-0.926758	0.101807	83.739343	7.531335	118.449951
15633		-1.290665	9.651451	1.037415	-0.000255	0.008014	-0.008347	-0.771729	-0.931152	0.104004	83.740176	7.532578	118.450620
15634		-1.293520	9.642868	1.091301	-0.001616	0.006044	-0.005473	-0.764893	-0.930664	0.101563	83.739512	7.532172	118.450792
15635		-1.301509	9.641272	1.057705	-0.002251	0.005609	-0.006910	-0.764404	-0.927979	0.106689	83.739033	7.532446	118.450170
15636		-1.294841	9.642666	1.091523	-0.001616	0.006044	-0.005473	-0.773193	-0.922607	0.098389	83.738381	7.532090	118.448794
15637		-1.312124	9.631099	1.078183	-0.003612	0.003640	-0.004037	-0.768799	-0.927002	0.104004	83.736997	7.530605	118.447222
15638		-1.295883	9.642476	1.091966	-0.002396	0.001935	-0.006329	-0.762695	-0.934082	0.101074	83.735573	7.530399	118.445357
15639		-1.288701	9.621794	1.056047	-0.003401	0.009396	-0.003089	-0.771729	-0.932617	0.104980	83.734751	7.528734	118.447151
15640		-1.261125	9.673759	1.065526	-0.002263	0.006100	-0.003272	-0.765381	-0.933838	0.104492	83.733740	7.527145	118.447023
15641		-1.314034	9.630738	1.079080	-0.004815	0.004852	-0.005383	-0.766846	-0.926270	0.100098	83.731747	7.526502	118.446063
15642		-1.288424	9.652086	1.072761	-0.002964	0.003582	-0.006238	-0.766113	-0.935059	0.100830	83.730127	7.526427	118.444147
15643		-1.290848	9.621402	1.057001	-0.002250	0.005608	-0.006911	-0.772461	-0.930664	0.099609	83.729647	7.526702	118.443524
15644		-1.272928	9.663348	1.086732	-0.004181	0.005286	-0.003946	-0.766846	-0.937500	0.106689	83.727461	7.525428	118.444198
15645		-1.290303	9.651771	1.073336	0.000170	0.002691	-0.007858	-0.771729	-0.923584	0.111084	83.728141	7.526060	118.441839
15646		-1.305992	9.670781	1.075666	0.000302	0.006856	-0.004801	-0.770752	-0.933350	0.096680	83.728705	7.525334	118.440198
15647		-1.267034	9.642508	1.050792	-0.004246	0.003203	-0.005475	-0.771484	-0.924805	0.104736	83.726913	7.524640	118.438284
15648		-1.301679	9.641483	1.093837	-0.002885	0.005172	-0.008349	-0.771240	-0.934082	0.108398	83.725442	7.525817	118.438609
15649		-1.302367	9.641366	1.094045	-0.002898	0.005663	-0.004711	-0.763672	-0.925049	0.104736	83.724614	7.524842	118.438157
15650		-1.278489	9.632159	1.071783	-0.004880	0.002767	-0.006913	-0.774902	-0.933105	0.105957	83.721876	7.525075	118.434428
15651		-1.262485	9.643519	1.085554	-0.000968	0.005985	-0.007676	-0.767578	-0.937256	0.101807	83.722154	7.525809	118.433973
15652		-1.304269	9.641013	1.094893	-0.006746	0.004527	-0.002420	-0.773926	-0.932373	0.109375	83.718486	7.523612	118.433528
15653		-1.300888	9.679971	1.057488	-0.004880	0.002767	-0.006914	-0.769775	-0.936035	0.103760	83.716286	7.523710	118.431273
15654		-1.290303	9.621679	1.093426	-0.005889	0.010225	-0.003673	-0.767822	-0.932861	0.106689	83.713554	7.522566	118.433088
15655		-1.296366	9.650644	1.076159	-0.006097	0.004470	-0.004622	-0.760986	-0.934082	0.095947	83.710804	7.521466	118.431956
15656		-1.306253	9.640523	1.096835	-0.006033	0.006552	-0.003093	-0.774658	-0.930420	0.099854	83.707683	7.519829	118.432203
15657		-1.297263	9.650418	1.077105	-0.004245	0.003201	-0.005477	-0.774658	-0.936035	0.098389	83.705892	7.519136	118.430288
15658		-1.282789	9.631220	1.075075	-0.004815	0.004848	-0.005386	-0.766357	-0.929932	0.100098	83.703309	7.518609	118.432057
15659		-1.298379	9.650189	1.077811	-0.003468	0.007309	-0.004620	-0.770264	-0.927979	0.108643	83.702279	7.517686	118.432556
15660		-1.267195	9.642483	1.089262	-0.005241	0.010167	-0.005875	-0.770508	-0.931885	0.096191	83.699903	7.517781	118.433886
15661		-1.299801	9.649911	1.078589	-0.006146	0.001896	-0.009792	-0.766602	-0.936523	0.103027	83.696889	7.519462	118.430948
15662		-1.270404	9.611621	1.074193	-0.003611	0.003635	-0.004040	-0.776855	-0.925293	0.105225	83.694924	7.518155	118.430777
15663		-1.285912	9.630586	1.077024	-0.006097	0.004468	-0.004623	-0.761963	-0.925537	0.100830	83.692174	7.517055	118.429645
15664		-1.292100	9.659540	1.059784	-0.005448	0.004412	-0.006825	-0.770752	-0.929932	0.097900	83.689245	7.517286	118.428071
15665		-1.279831	9.631786	1.111724	-0.005527	0.002821	-0.004715	-0.765137	-0.927734	0.100830	83.686697	7.516134	118.425987
15666		-1.278134	9.640215	1.058364	-0.006097	0.004467	-0.004624	-0.766602	-0.928955	0.108154	83.683384	7.515167	118.425863
15667		-1.256376	9.622494	1.090053	-0.002962	0.003579	-0.006241	-0.778076	-0.927979	0.106689	83.682350	7.514933	118.424118
15668		-1.262364	9.651513	1.072506	-0.001774	0.002858	-0.001255	-0.770508	-0.922607	0.100342	83.681493	7.511883	118.421114
15669		-1.313260	9.638991	1.101921	-0.004830	0.005336	-0.001747	-0.775146	-0.934326	0.099121	83.679558	7.509200	118.420664
15670		-1.272453	9.641339	1.093259	-0.003531	0.005225	-0.006150	-0.762207	-0.934082	0.106201	83.677768	7.509101	118.421768
15671		-1.280298	9.639775	1.059761	-0.002328	0.004014	-0.004803	-0.772461	-0.937500	0.099609	83.677143	7.508074	118.420364
15672		-1.283001	9.631123	1.113805	-0.002328	0.004014	-0.004804	-0.768555	-0.929688	0.109131	83.675975	7.507246	118.418804
15673		-1.264626	9.651091	1.073635	-0.001615	0.006040	-0.005475	-0.772949	-0.935547	0.099121	83.675905	7.506730	118.418521
15674		-1.306533	9.648537	1.082735	-0.002248	0.005604	-0.006914	-0.768799	-0.939209	0.100830	83.674906	7.507136	118.417860
15675		-1.260495	9.621792	1.091496	0.000317	0.006364	-0.008439	-0.766113	-0.931396	0.107178	83.675942	7.508328	118.417574
15676		-1.285717	9.630751	1.113892	0.002012	0.001915	-0.005074	-0.766846	-0.928711	0.095947	83.677117	7.507511	118.414371
15677		-1.308536	9.648311	1.082333	0.001646	0.009315	-0.004033	-0.776123	-0.923096	0.096924	83.679172	7.506380	118.416060
15678		-1.267935	9.650703	1.073223	-0.000965	0.005983	-0.007677	-0.770508	-0.924072	0.102539	83.678885	7.507188	118.418424
15679		-1.268774	9.650600	1.073158	0.000888	0.004716	-0.008532	-0.778076	-0.929688	0.098877	83.680124	7.508329	118.417186
15680		-1.303471	9.649521	1.115692	0.001442	0.003561	-0.004983	-0.775391	-0.932617	0.107422	83.681096	7.507422	118.417355
15681		-1.304213	9.649445	1.115479	0.001601	0.006742	-0.009203	-0.766357	-0.931152	0.100586	83.682889	7.509073	118.417237
15682		-1.265457	9.621277	1.090290	0.001521	0.005151	-0.007093	-0.773438	-0.929199	0.102539	83.684024	7.509546	118.416363
15683		-1.298050	9.628742	1.078953	0.000318	0.006361	-0.008441	-0.773438	-0.931641	0.105957	83.685060	7.510739	118.416076
15684		-1.297164	9.659240	1.094567	0.005923	0.005136	-0.005833	-0.764893	-0.931641	0.103516	83.688735	7.510452	118.415779
15685		-1.282903	9.640119	1.091803	0.000256	0.004279	-0.009971	-0.768799	-0.932861	0.104980	83.689567	7.512385	118.414198
15686		-1.274231	9.650049	1.071644	-0.001044	0.004390	-0.005569	-0.770996	-0.930664	0.105957	83.689192	7.511985	118.411897
15687		-1.269347	9.620875	1.089315	0.001460	0.003068	-0.008624	-0.768799	-0.927979	0.110352	83.690633	7.513075	118.409707
15688		-1.285193	9.639836	1.091603	-0.000332	0.006415	-0.006241	-0.761963	-0.942627	0.107422	83.690858	7.513113	118.407633
15689		-1.259622	9.661314	1.084948	0.000871	0.005205	-0.004893	-0.768066	-0.929688	0.101074	83.692153	7.512213	118.406908
15690		-1.310940	9.648713	1.113926	0.000239	0.004769	-0.006332	-0.772217	-0.930420	0.103027	83.692529	7.512325	118.404784
15691		-1.303832	9.628112	1.077599	0.002234	0.007175	-0.007766	-0.763184	-0.928223	0.108887	83.694729	7.513185	118.405007
15692		-1.272773	9.620490	1.088721	-0.001817	0.000282	-0.006428	-0.770996	-0.933838	0.099121	83.693623	7.512970	118.399882
15693		-1.279078	9.649480	1.070994	0.000379	0.008440	-0.006913	-0.772949	-0.933350	0.095947	83.694863	7.513423	118.400886
15694		-1.304520	9.658380	1.093418	0.000258	0.004277	-0.009973	-0.770264	-0.932861	0.112061	83.695132	7.515494	118.402557
15695		-1.297551	9.637746	1.057224	0.000178	0.002687	-0.007862	-0.766602	-0.928223	0.107666	83.695817	7.516127	118.400196
15696		-1.275896	9.620106	1.088457	0.000871	0.005204	-0.004894	-0.769043	-0.928711	0.107178	83.696673	7.515341	118.396605
15697		-1.297271	9.668149	1.073026	-0.000393	0.004332	-0.007772	-0.767822	-0.926514	0.098877	83.697155	7.516026	118.395195
15698		-1.266189	9.660531	1.084273	-0.002187	0.007678	-0.005389	-0.767090	-0.931396	0.102051	83.696386	7.515663	118.395798
15699		-1.300162	9.637399	1.057178	-0.001616	0.006033	-0.005480	-0.768311	-0.936768	0.099854	83.696314	7.515149	118.395510
15700		-1.268996	9.629783	1.068539	-0.002959	0.003571	-0.006247	-0.771973	-0.937012	0.104492	83.694755	7.515096	118.394790
15701		-1.277480	9.650208	1.104762	-0.000844	0.010139	-0.004622	-0.777832	-0.935059	0.103760	83.695441	7.514352	118.396916
15702		-1.300359	9.667690	1.073418	-0.001044	0.004387	-0.005571	-0.769043	-0.935791	0.106201	83.695075	7.513899	118.397015
15703		-1.270743	9.629516	1.068875	-0.005385	0.006480	-0.005305	-0.765137	-0.939941	0.102539	83.692878	7.513314	118.396996
15704		-1.295906	9.638396	1.091656	-0.001615	0.006032	-0.005480	-0.771484	-0.925049	0.094482	83.692309	7.513015	118.396262
15705		-1.296528	9.638293	1.091831	-0.003530	0.005215	-0.006158	-0.761963	-0.932373	0.107422	83.691074	7.512836	118.395462
15706		-1.297179	9.638174	1.092104	-0.003530	0.005215	-0.006158	-0.767090	-0.930664	0.111328	83.689335	7.512785	118.395080
15707		-1.273171	9.629093	1.069788	-0.001755	0.002361	-0.004900	-0.766602	-0.930664	0.102051	83.688912	7.511710	118.392720
15708		-1.266519	9.630484	1.103633	-0.001615	0.006031	-0.005481	-0.768066	-0.929199	0.102539	83.688390	7.511330	118.390490
15709		-1.287922	9.678515	1.088218	0.001523	0.005147	-0.007096	-0.765869	-0.936279	0.108643	83.690037	7.511681	118.389590
15710		-1.280807	9.657907	1.052074	-0.002306	0.003513	-0.008451	-0.769287	-0.927734	0.104736	83.688890	7.512857	118.386438
15711		-1.275975	9.628720	1.069812	0.000951	0.006792	-0.007005	-0.766602	-0.932617	0.103027	83.690333	7.513260	118.386489
15712		-1.286191	9.618569	1.089923	-0.002246	0.005594	-0.006921	-0.766357	-0.936035	0.111572	83.689383	7.513659	118.385523
15713		-1.292519	9.647553	1.072213	0.000240	0.004766	-0.006334	-0.769287	-0.935059	0.106689	83.690272	7.513552	118.384453
15714		-1.298848	9.676537	1.054504	-0.002246	0.005593	-0.006921	-0.768555	-0.927002	0.102783	83.689363	7.513999	118.381406
15715		-1.288383	9.618267	1.089998	0.000320	0.006355	-0.008446	-0.764893	-0.927490	0.100098	83.690400	7.515194	118.381114
15716		-1.262923	9.639747	1.083679	-0.005524	0.002806	-0.004726	-0.769531	-0.935547	0.101807	83.687368	7.514153	118.379576
15717		-1.304695	9.637085	1.092764	0.000299	0.006847	-0.004804	-0.775146	-0.930176	0.095947	83.688460	7.513306	118.379798
15718		-1.295707	9.647064	1.072766	-0.004754	0.006912	-0.003868	-0.758301	-0.927979	0.097412	83.686149	7.512038	118.383126
15719		-1.281230	9.627908	1.070832	-0.006074	0.003957	-0.008278	-0.774414	-0.938721	0.097656	83.683343	7.512987	118.381468
15720		-1.280444	9.658316	1.087258	-0.004102	0.006856	-0.006070	-0.767578	-0.925781	0.100342	83.681372	7.513047	118.383979
15721		-1.267365	9.608634	1.069253	-0.005465	0.004886	-0.003197	-0.769043	-0.927734	0.106201	83.679027	7.511161	118.383177
15722		-1.298126	9.646554	1.074426	-0.004674	0.008499	-0.005980	-0.772217	-0.937500	0.099121	83.676933	7.511162	118.383976
15723		-1.276309	9.628891	1.106250	-0.006748	0.004504	-0.002436	-0.769287	-0.932129	0.110352	83.673830	7.508818	118.383004
15724		-1.273014	9.667935	1.068723	-0.001535	0.007617	-0.007594	-0.771484	-0.932861	0.105713	83.673451	7.509741	118.383519
15725		-1.277683	9.628663	1.106651	-0.001158	0.000223	-0.008634	-0.768799	-0.942871	0.104004	83.673179	7.510657	118.379693
15726		-1.299175	9.676651	1.091415	-0.002188	0.007672	-0.005392	-0.770752	-0.931641	0.104980	83.672444	7.510369	118.380347
15727		-1.286123	9.626995	1.073177	-0.002898	0.005647	-0.004721	-0.776611	-0.925293	0.106934	83.671614	7.509399	118.379886
15728		-1.279620	9.628364	1.107015	-0.000389	0.004328	-0.007775	-0.763428	-0.929199	0.104004	83.671679	7.510105	118.378265
15729		-1.302700	9.645783	1.075814	-0.004159	0.004772	-0.007602	-0.765625	-0.929443	0.105225	83.670037	7.510720	118.377118
15730		-1.262125	9.648276	1.067160	-0.001615	0.006027	-0.005483	-0.766846	-0.935303	0.106445	83.669529	7.510351	118.375184
15731		-1.303983	9.645578	1.076100	-0.001615	0.006027	-0.005483	-0.767578	-0.926514	0.108887	83.669457	7.509839	118.374893
15732		-1.289550	9.626469	1.073781	-0.001535	0.007615	-0.007595	-0.764404	-0.933838	0.103516	83.669128	7.510751	118.373082
15733		-1.315011	9.635271	1.096385	-0.002302	0.003509	-0.008455	-0.767334	-0.936279	0.101807	83.668449	7.511772	118.371155
15734		-1.274464	9.637782	1.087641	-0.001042	0.004383	-0.005574	-0.766113	-0.932861	0.105225	83.668114	7.511405	118.370005
15735		-1.275111	9.637690	1.087702	-0.001098	0.002302	-0.007104	-0.767090	-0.934082	0.093750	83.668045	7.511581	118.367470
15736		-1.285176	9.627531	1.107821	0.000161	0.003176	-0.004223	-0.772705	-0.938721	0.099854	83.668293	7.510346	118.367310
15737		-1.292876	9.625996	1.074020	-0.000332	0.006408	-0.006245	-0.770264	-0.931641	0.103027	83.668978	7.510292	118.367189
15738		-1.276944	9.637468	1.087511	0.002098	0.003502	-0.007187	-0.768066	-0.935059	0.103516	83.670356	7.510720	118.367158
15739		-1.292927	9.656366	1.089807	-0.001591	0.005533	-0.009127	-0.767334	-0.927979	0.113037	83.670230	7.512252	118.366350
15740		-1.285785	9.635780	1.053712	-0.000388	0.004326	-0.007776	-0.762939	-0.929443	0.105225	83.670324	7.513053	118.362504
15741		-1.294354	9.656177	1.089785	0.000217	0.005256	-0.002693	-0.774902	-0.927490	0.102783	83.671267	7.510904	118.361948
15742		-1.279646	9.637128	1.087352	0.000105	0.001095	-0.005755	-0.766113	-0.935059	0.098389	83.671382	7.510309	118.358610
15743		-1.295445	9.656031	1.089788	-0.002245	0.005587	-0.006926	-0.769775	-0.923828	0.103760	83.670905	7.510590	118.357975
15744		-1.287976	9.635479	1.053788	-0.001696	0.004437	-0.003373	-0.762939	-0.932617	0.098877	83.670225	7.508882	118.358014
15745		-1.290954	9.626760	1.107801	-0.002874	0.005149	-0.008367	-0.767334	-0.926758	0.096191	83.669342	7.509957	118.357035
15746		-1.287786	9.665828	1.070079	-0.000986	0.006462	-0.004044	-0.776611	-0.938965	0.097900	83.669178	7.508806	118.359286
15747		-1.292033	9.626596	1.107971	-0.001696	0.004436	-0.003373	-0.764404	-0.931152	0.106201	83.668957	7.506992	118.358216
15748		-1.298282	9.655593	1.090285	-0.000387	0.004325	-0.007777	-0.762207	-0.935547	0.102783	83.668985	7.507817	118.358225
15749		-1.284083	9.636458	1.088057	-0.003558	0.002630	-0.011339	-0.773926	-0.932861	0.106201	83.667496	7.510426	118.355610
15750		-1.300065	9.655330	1.090492	0.001445	0.003557	-0.004985	-0.764404	-0.944824	0.109375	83.668569	7.509625	118.353541
15751		-1.293535	9.656712	1.124306	-0.004102	0.006847	-0.006076	-0.770752	-0.931152	0.100342	83.667129	7.509503	118.353683
15752		-1.293238	9.634683	1.054620	-0.001616	0.006023	-0.005486	-0.768555	-0.928955	0.107178	83.666623	7.509194	118.352937
15753		-1.286810	9.636035	1.088582	-0.004157	0.004765	-0.007607	-0.773438	-0.931641	0.101807	83.664982	7.509812	118.351785
15754		-1.270818	9.647498	1.102395	-0.000413	0.004818	-0.004135	-0.770020	-0.938477	0.103516	83.665109	7.508519	118.351028
15755		-1.278479	9.645947	1.068750	-0.002954	0.003560	-0.006256	-0.771729	-0.931152	0.109131	83.664078	7.508291	118.349270
15756		-1.273367	9.616796	1.086441	0.002209	0.007662	-0.004125	-0.771729	-0.928223	0.106201	83.665931	7.507225	118.349468
15757		-1.289101	9.635705	1.088793	-0.003528	0.005202	-0.006167	-0.766357	-0.927246	0.107666	83.664695	7.507050	118.348660
15758		-1.289898	9.635601	1.088774	0.002756	0.003446	-0.009389	-0.771729	-0.939209	0.099365	83.666528	7.508651	118.345018
15759		-1.285129	9.606426	1.106273	0.000898	0.004706	-0.008539	-0.769287	-0.927490	0.108154	83.667771	7.509795	118.343773
15760		-1.265621	9.657077	1.081898	0.002181	0.005088	-0.009300	-0.773193	-0.930420	0.104492	83.669347	7.511507	118.343311
15761		-1.292592	9.635306	1.088187	-0.000386	0.004323	-0.007779	-0.768799	-0.931885	0.102295	83.669832	7.512195	118.341895
15762		-1.283796	9.645330	1.067942	0.002155	0.005581	-0.005657	-0.765869	-0.936768	0.103271	83.671463	7.511829	118.342174
15763		-1.309252	9.654130	1.090124	0.002182	0.005087	-0.009301	-0.769043	-0.932617	0.101318	83.673464	7.513432	118.341100
15764		-1.285425	9.645169	1.067437	0.000952	0.006785	-0.007009	-0.770996	-0.928467	0.104492	83.674464	7.514005	118.341919
15765		-1.288582	9.636459	1.121127	0.000377	0.008427	-0.006920	-0.768311	-0.935059	0.099854	83.675701	7.514463	118.342915
15766		-1.277537	9.655096	1.046989	0.001608	0.006728	-0.009212	-0.763916	-0.932129	0.108154	83.677064	7.516221	118.343998
15767		-1.297410	9.634789	1.087028	0.000190	0.002679	-0.007869	-0.774414	-0.924805	0.104736	83.677754	7.516857	118.341632
15768		-1.322898	9.643546	1.109477	-0.001535	0.007605	-0.007602	-0.769287	-0.929443	0.103760	83.677457	7.517706	118.340939
15769		-1.257713	9.637306	1.078162	0.001527	0.005141	-0.007099	-0.761719	-0.931152	0.105225	83.679105	7.518059	118.340036
15770		-1.283071	9.646087	1.100544	-0.001616	0.006018	-0.005489	-0.764893	-0.931152	0.101318	83.678632	7.517682	118.338800
15771		-1.290748	9.644522	1.066862	-0.001616	0.006018	-0.005489	-0.763916	-0.935059	0.099365	83.678558	7.517173	118.338503
15772		-1.300844	9.634326	1.087030	-0.001616	0.006018	-0.005489	-0.768066	-0.929199	0.101318	83.678029	7.516856	118.339299
15773		-1.275351	9.655933	1.080674	-0.001041	0.004376	-0.005579	-0.770508	-0.933594	0.100830	83.678161	7.516295	118.338053
15774		-1.302028	9.634150	1.087168	-0.002191	0.007660	-0.005400	-0.770752	-0.927979	0.106689	83.677445	7.515941	118.340452
15775		-1.283686	9.654267	1.047120	-0.002243	0.005579	-0.006932	-0.767822	-0.929199	0.104248	83.676967	7.516226	118.339812
15776		-1.286843	9.645522	1.101097	-0.001668	0.003937	-0.007021	-0.769775	-0.930420	0.101074	83.676321	7.516512	118.337582
15777		-1.288832	9.614875	1.085209	-0.002324	0.003992	-0.004819	-0.763428	-0.926758	0.101563	83.675695	7.515494	118.336164
15778		-1.295145	9.643847	1.067634	-0.002243	0.005578	-0.006932	-0.767578	-0.936768	0.102051	83.674794	7.515881	118.336338
15779		-1.279152	9.655334	1.081536	-0.003608	0.003609	-0.004059	-0.770508	-0.937256	0.099854	83.673410	7.514406	118.334749
15780		-1.279776	9.655232	1.081712	-0.001534	0.007603	-0.007603	-0.772217	-0.933350	0.100342	83.673036	7.515380	118.337261
15781		-1.281740	9.624594	1.065775	-0.002272	0.006072	-0.003288	-0.774902	-0.937988	0.105713	83.672609	7.513621	118.337136
15782		-1.290334	9.644967	1.101869	0.001447	0.003555	-0.004987	-0.772949	-0.928955	0.104980	83.673694	7.512763	118.337590
15783		-1.288468	9.653529	1.048049	-0.002951	0.003553	-0.006261	-0.774414	-0.932617	0.101563	83.672664	7.512538	118.335828
15784		-1.291496	9.644783	1.102119	-0.002900	0.005633	-0.004731	-0.764648	-0.932129	0.111328	83.671438	7.511600	118.337212
15785		-1.282580	9.654816	1.082099	0.000244	0.004757	-0.006340	-0.774414	-0.933105	0.103271	83.672328	7.511495	118.336138
15786		-1.309303	9.633006	1.088571	-0.002951	0.003552	-0.006262	-0.778076	-0.934082	0.107910	83.670949	7.511369	118.333037
15787		-1.276818	9.656085	1.116165	-0.002375	0.001910	-0.006351	-0.766602	-0.932617	0.107910	83.670124	7.511091	118.330326
15788		-1.301233	9.642908	1.068709	0.001034	0.008367	-0.009125	-0.768311	-0.933838	0.107666	83.671371	7.512867	118.330401
15789		-1.296338	9.613723	1.086471	-0.003526	0.005193	-0.006174	-0.768311	-0.935059	0.105957	83.670135	7.512696	118.329588
15790		-1.287422	9.623758	1.066471	0.000295	0.006837	-0.004809	-0.766113	-0.934570	0.099854	83.670863	7.511993	118.328490
15791		-1.286705	9.654202	1.082685	-0.005437	0.004370	-0.006856	-0.772705	-0.930420	0.102539	83.668465	7.512158	118.327160
15792		-1.287453	9.654057	1.083089	-0.004153	0.004753	-0.007616	-0.767822	-0.927979	0.094482	83.666402	7.512897	118.327845
15793		-1.256468	9.646569	1.094775	-0.004153	0.004753	-0.007617	-0.771484	-0.933594	0.104004	83.664762	7.513519	118.326687
15794		-1.264156	9.644984	1.061263	-0.002324	0.003990	-0.004821	-0.759277	-0.937988	0.102783	83.663697	7.512595	118.328081
15795		-1.289429	9.653694	1.083973	-0.004810	0.004808	-0.005415	-0.770264	-0.928467	0.101318	83.661702	7.511966	118.327094
15796		-1.283034	9.655028	1.118178	-0.005437	0.004369	-0.006857	-0.773926	-0.934814	0.105469	83.658895	7.512320	118.325616
15797		-1.316786	9.631703	1.091072	-0.002192	0.007655	-0.005403	-0.770264	-0.931396	0.103271	83.658615	7.511865	118.326266
15798		-1.266642	9.644516	1.062554	-0.004860	0.002727	-0.006947	-0.773193	-0.936523	0.108154	83.656048	7.512050	118.324974
15799		-1.301569	9.643054	1.105396	-0.003526	0.005191	-0.006175	-0.773682	-0.923584	0.102539	83.654812	7.511879	118.324160
15800		-1.267939	9.644287	1.063085	-0.001616	0.006013	-0.005492	-0.767334	-0.931396	0.101318	83.654389	7.511377	118.324599
15801		-1.309874	9.641365	1.072071	-0.005436	0.004367	-0.006858	-0.767090	-0.929688	0.099121	83.651991	7.511543	118.323268
15802		-1.262239	9.645508	1.097486	-0.002949	0.003549	-0.006264	-0.764648	-0.931885	0.094482	83.650544	7.511441	118.322897
15803		-1.262896	9.645388	1.097778	-0.004679	0.008471	-0.005998	-0.769775	-0.935303	0.098389	83.648895	7.511377	118.323977
15804		-1.295079	9.652636	1.086657	-0.001779	0.002842	-0.001265	-0.765625	-0.930908	0.102783	83.648049	7.508436	118.325664
15805		-1.296706	9.622016	1.070934	-0.006094	0.004422	-0.004657	-0.766846	-0.939453	0.103027	83.645296	7.507352	118.324505
15806		-1.280956	9.633479	1.084982	-0.002209	0.005079	-0.010581	-0.770996	-0.937012	0.097656	83.644378	7.509874	118.323032
15807		-1.291219	9.623209	1.105253	-0.003031	0.001963	-0.004151	-0.770752	-0.937012	0.108643	83.643200	7.508346	118.320493
15808		-1.280941	9.663794	1.101501	-0.002949	0.003548	-0.006265	-0.774170	-0.942871	0.107422	83.641779	7.508267	118.320193
15809		-1.258060	9.624374	1.063255	-0.002900	0.005628	-0.004733	-0.766602	-0.936035	0.099854	83.640946	7.507303	118.319722
15810		-1.289055	9.662140	1.068157	-0.002900	0.005628	-0.004733	-0.772949	-0.928223	0.113281	83.639722	7.506523	118.320437
15811		-1.299119	9.651905	1.088327	-0.000462	0.002731	-0.005670	-0.766602	-0.926270	0.102539	83.640060	7.505908	118.318242
15812		-1.284574	9.632881	1.086010	-0.001534	0.007597	-0.007606	-0.766602	-0.929932	0.093506	83.639849	7.506708	118.316532
15813		-1.268873	9.644373	1.099805	-0.001136	0.000212	-0.008646	-0.769043	-0.927002	0.099609	83.639588	7.507627	118.312700
15814		-1.286118	9.632654	1.086198	-0.002193	0.007652	-0.005404	-0.770020	-0.924316	0.102783	83.638859	7.507262	118.316714
15815		-1.285514	9.663083	1.102408	-0.002818	0.007212	-0.006848	-0.769775	-0.928955	0.103027	83.638174	7.507602	118.317018
15816		-1.287451	9.632447	1.086455	-0.001039	0.004371	-0.005582	-0.768799	-0.922607	0.109619	83.637958	7.507050	118.316285
15817		-1.297626	9.622192	1.106606	-0.002241	0.005571	-0.006937	-0.773438	-0.931396	0.097168	83.637480	7.507336	118.315640
15818		-1.273548	9.613334	1.084218	0.000823	0.003115	-0.006430	-0.767334	-0.934326	0.103516	83.638236	7.507174	118.314387
15819		-1.263559	9.653924	1.080209	-0.001582	0.005515	-0.009140	-0.773193	-0.933105	0.094482	83.638113	7.508711	118.313570
15820		-1.290329	9.632056	1.086507	0.000871	0.005194	-0.004898	-0.774170	-0.927734	0.096436	83.638979	7.507935	118.316111
15821		-1.289502	9.662542	1.102488	-0.000943	0.008529	-0.002519	-0.768799	-0.934570	0.108643	83.639504	7.505894	118.317449
15822		-1.265400	9.653702	1.080043	0.000281	0.004259	-0.009988	-0.764160	-0.936768	0.100830	83.639981	7.507888	118.317540
15823		-1.314591	9.649258	1.054914	-0.001534	0.007594	-0.007608	-0.772461	-0.920166	0.105713	83.640055	7.508686	118.318015
15824		-1.250511	9.665105	1.093823	-0.001616	0.006009	-0.005495	-0.772217	-0.926514	0.099854	83.639638	7.508240	118.317397
15825		-1.303291	9.621429	1.106581	-0.001710	0.001850	-0.008559	-0.765625	-0.927002	0.100098	83.639171	7.509214	118.314512
15826		-1.279327	9.612563	1.084251	-0.000379	0.004314	-0.007786	-0.764648	-0.927979	0.096680	83.639277	7.509942	118.314706
15827		-1.288381	9.632842	1.120272	0.000953	0.006778	-0.007013	-0.766357	-0.935791	0.099609	83.640719	7.510348	118.314750
15828		-1.279657	9.642903	1.100202	-0.001710	0.001849	-0.008559	-0.767578	-0.934326	0.094727	83.639825	7.511496	118.313277
15829		-1.287429	9.641341	1.066383	0.001531	0.005138	-0.007101	-0.769287	-0.934570	0.103271	83.641474	7.511848	118.312374
15830		-1.297590	9.631107	1.086268	0.000293	0.006833	-0.004811	-0.772949	-0.928467	0.112061	83.642139	7.511163	118.315055
15831		-1.281826	9.642641	1.099967	-0.001002	0.003872	-0.009230	-0.771484	-0.930908	0.102295	83.642223	7.512648	118.313289
15832		-1.295417	9.670133	1.048499	-0.000956	0.005952	-0.007698	-0.765625	-0.931152	0.100342	83.642221	7.513393	118.312369
15833		-1.273904	9.652600	1.079898	0.000824	0.003113	-0.006431	-0.768066	-0.927246	0.095459	83.643319	7.513236	118.310346
15834		-1.267694	9.653957	1.113728	-0.002865	0.005126	-0.008384	-0.774658	-0.933594	0.095947	83.642026	7.514429	118.311265
15835		-1.290660	9.671288	1.082386	-0.000460	0.002728	-0.005673	-0.767822	-0.935059	0.107666	83.642364	7.513815	118.309069
15836		-1.294941	9.631957	1.120321	-0.004185	0.005236	-0.003979	-0.770020	-0.940674	0.105225	83.640398	7.512498	118.310709
15837		-1.276416	9.652206	1.080453	-0.002194	0.007646	-0.005408	-0.770020	-0.939941	0.095459	83.640115	7.512046	118.311355
15838		-1.301714	9.660851	1.102958	-0.002277	0.006061	-0.003294	-0.767334	-0.931152	0.099854	83.639267	7.510502	118.314104
15839		-1.303504	9.630214	1.087107	-0.003570	0.003101	-0.007714	-0.761230	-0.929932	0.100098	83.637835	7.511075	118.311992
15840		-1.278100	9.651907	1.081126	-0.004185	0.005236	-0.003979	-0.768066	-0.927246	0.115479	83.635861	7.509815	118.310633
15841		-1.304701	9.629987	1.087683	-0.002818	0.007204	-0.006853	-0.765381	-0.927246	0.098877	83.635175	7.510157	118.310934
15842		-1.273563	9.622622	1.099290	-0.002901	0.005620	-0.004738	-0.771240	-0.926758	0.104980	83.634080	7.509240	118.307080
15843		-1.264470	9.632707	1.079568	-0.004891	0.003211	-0.003310	-0.772217	-0.932617	0.101807	83.631936	7.507312	118.305314
15844		-1.280230	9.651510	1.082153	-0.001616	0.006005	-0.005497	-0.766113	-0.932617	0.100830	83.631537	7.506824	118.306207
15845		-1.265644	9.632519	1.079871	-0.000955	0.005950	-0.007700	-0.774170	-0.926025	0.101807	83.631817	7.507569	118.305732
15846		-1.282850	9.620768	1.066266	-0.003524	0.005179	-0.006183	-0.765869	-0.937012	0.102783	83.630230	7.507448	118.306404
15847		-1.291854	9.641014	1.102495	-0.000331	0.006390	-0.006256	-0.767822	-0.933594	0.105469	83.630913	7.507398	118.306275
15848		-1.274602	9.630771	1.046319	-0.000459	0.002727	-0.005674	-0.767334	-0.927246	0.096191	83.630921	7.506959	118.302999
15849		-1.276593	9.652491	1.116271	-0.001616	0.006004	-0.005498	-0.769287	-0.924316	0.105713	83.630845	7.506454	118.302697
15850		-1.293624	9.640758	1.102660	-0.002900	0.005619	-0.004739	-0.764893	-0.931152	0.099365	83.629673	7.505514	118.302848
15851		-1.269388	9.631949	1.080556	-0.004103	0.006817	-0.006096	-0.770508	-0.927246	0.096924	83.628228	7.505401	118.302974
15852		-1.300622	9.669610	1.085448	-0.001787	0.000262	-0.006448	-0.774414	-0.929443	0.106445	83.627226	7.505165	118.301320
15853		-1.270645	9.631741	1.080936	-0.002195	0.007642	-0.005410	-0.764404	-0.931396	0.100830	83.626942	7.504713	118.301964
15854		-1.280897	9.621444	1.101079	-0.001125	0.000206	-0.008651	-0.765625	-0.927979	0.100342	83.626374	7.505699	118.298114
15855		-1.272051	9.631544	1.081041	0.000292	0.006830	-0.004812	-0.769287	-0.937012	0.098633	83.627458	7.504856	118.298330
15856		-1.278446	9.660535	1.063332	-0.001660	0.003924	-0.007031	-0.769287	-0.929199	0.104248	83.626810	7.505230	118.298145
15857		-1.304003	9.669115	1.085799	-0.001660	0.003924	-0.007031	-0.769775	-0.934326	0.098877	83.626539	7.505465	118.296550
15858		-1.300074	9.609402	1.087592	-0.002945	0.003538	-0.006273	-0.769775	-0.920410	0.094727	83.625168	7.505332	118.296001
15859		-1.289921	9.650022	1.083918	-0.003606	0.003593	-0.004070	-0.769531	-0.927734	0.103516	83.623783	7.503861	118.294406
15860		-1.300079	9.639722	1.104123	-0.001533	0.007586	-0.007613	-0.766602	-0.929932	0.099121	83.623510	7.504644	118.296839
15861		-1.307737	9.638152	1.070490	-0.003524	0.005176	-0.006186	-0.763184	-0.930664	0.095459	83.622273	7.504477	118.296017
15862		-1.261417	9.611924	1.079832	-0.002282	0.003482	-0.008477	-0.766602	-0.935303	0.114258	83.621207	7.505665	118.295080
15863		-1.292688	9.649580	1.084556	-0.000414	0.004805	-0.004142	-0.769043	-0.935059	0.106934	83.621740	7.504311	118.294177
15864		-1.293279	9.649494	1.084617	-0.002239	0.005561	-0.006944	-0.774414	-0.930908	0.103760	83.621044	7.504735	118.289518
15865		-1.262107	9.642188	1.096125	-0.000414	0.004804	-0.004142	-0.768555	-0.929199	0.104492	83.621577	7.503381	118.288614
15866		-1.279115	9.630467	1.082303	0.000248	0.004749	-0.006345	-0.771973	-0.929443	0.102051	83.622178	7.503301	118.288180
15867		-1.295202	9.649224	1.084721	-0.004020	0.008395	-0.008214	-0.771729	-0.937256	0.111572	83.620880	7.504495	118.289077
15868		-1.271054	9.640455	1.062440	0.000871	0.005190	-0.004900	-0.773193	-0.935303	0.098389	83.621910	7.503655	118.287970
15869		-1.270584	9.670906	1.078432	0.000206	0.002670	-0.007878	-0.769775	-0.930908	0.100342	83.622607	7.504293	118.285601
15870		-1.281945	9.630080	1.082392	-0.002196	0.007638	-0.005412	-0.771729	-0.932373	0.106445	83.621955	7.503928	118.289550
15871		-1.292030	9.619789	1.102523	-0.001162	0.000701	-0.005006	-0.765381	-0.938721	0.100586	83.621745	7.502804	118.286234
15872		-1.257050	9.651781	1.076327	-0.001036	0.004362	-0.005588	-0.766602	-0.934570	0.100586	83.621561	7.502399	118.284989
15873		-1.289490	9.658880	1.065027	-0.002986	0.001456	-0.007808	-0.769531	-0.930420	0.101074	83.620339	7.502920	118.281927
15874		-1.284383	9.629700	1.082886	-0.001036	0.004362	-0.005588	-0.770752	-0.936279	0.108398	83.620130	7.502484	118.281677
15875		-1.275573	9.639796	1.063010	-0.003440	0.006755	-0.008303	-0.773193	-0.933350	0.104492	83.619041	7.503624	118.281626
15876		-1.301028	9.648363	1.085409	0.000788	0.003607	-0.002785	-0.772949	-0.933105	0.094727	83.619921	7.501495	118.280132
15877		-1.286181	9.629428	1.083167	-0.003523	0.005172	-0.006188	-0.769287	-0.928223	0.105469	83.618684	7.501330	118.279308
15878		-1.270476	9.640978	1.097092	-0.000953	0.005944	-0.007704	-0.763916	-0.931641	0.101318	83.618624	7.502127	118.281459
15879		-1.271174	9.640883	1.097123	-0.001036	0.004361	-0.005588	-0.765137	-0.932373	0.106934	83.618756	7.501568	118.280208
15880		-1.284485	9.668420	1.045617	-0.000331	0.006385	-0.006258	-0.771973	-0.933350	0.101807	83.619151	7.501680	118.277638
15881		-1.287872	9.659564	1.099401	-0.000373	0.004306	-0.007792	-0.762939	-0.933105	0.107422	83.619640	7.502373	118.276214
15882		-1.282745	9.630414	1.117019	0.000871	0.005189	-0.004901	-0.770752	-0.930420	0.106445	83.620651	7.501603	118.274339
15883		-1.273935	9.640538	1.096950	-0.000994	0.003864	-0.009238	-0.770996	-0.924805	0.103027	83.620739	7.503091	118.272569
15884		-1.280360	9.669526	1.079244	-0.000373	0.006881	-0.002610	-0.768311	-0.938477	0.104980	83.621207	7.500985	118.272928
15885		-1.282013	9.638929	1.063127	-0.000953	0.005943	-0.007705	-0.770264	-0.941895	0.099365	83.621487	7.501732	118.272449
15886		-1.275964	9.640261	1.097026	-0.002279	0.003477	-0.008481	-0.775635	-0.925049	0.101563	83.620475	7.502977	118.271909
15887		-1.293192	9.628479	1.083252	0.000373	0.008408	-0.006929	-0.770264	-0.935303	0.102051	83.621707	7.503439	118.272896
15888		-1.267945	9.650288	1.076932	-0.000331	0.006384	-0.006260	-0.760498	-0.934326	0.098877	83.622083	7.503392	118.275338
15889		-1.278158	9.639987	1.096878	0.000249	0.004746	-0.006347	-0.766602	-0.932373	0.103027	83.622974	7.503290	118.274260
15890		-1.276254	9.648664	1.042945	0.000913	0.004691	-0.008550	-0.771240	-0.938232	0.097168	83.623889	7.504644	118.272064
15891		-1.286706	9.638326	1.062923	-0.001573	0.005499	-0.009152	-0.772705	-0.932373	0.105957	83.623769	7.506187	118.271238
15892		-1.280630	9.639658	1.096888	-0.002942	0.003530	-0.006279	-0.774170	-0.928467	0.104004	83.622417	7.506060	118.272110
15893		-1.296470	9.658425	1.099305	-0.000955	0.008517	-0.002524	-0.771729	-0.927490	0.101563	83.622932	7.504021	118.273443
15894		-1.247273	9.641098	1.054754	-0.002277	0.003475	-0.008482	-0.769775	-0.934326	0.103760	83.621987	7.505013	118.273498
15895		-1.282592	9.639370	1.097126	-0.000248	0.007964	-0.008376	-0.772217	-0.929443	0.106445	83.622817	7.506271	118.274138
15896		-1.290158	9.637835	1.063187	0.001452	0.003550	-0.004989	-0.777588	-0.934082	0.104736	83.624064	7.505363	118.272590
15897		-1.283939	9.639225	1.096829	0.000373	0.008405	-0.006931	-0.771484	-0.932617	0.101807	83.625295	7.505826	118.273577
15898		-1.275175	9.649355	1.076758	-0.000952	0.005939	-0.007707	-0.769531	-0.932373	0.103271	83.625290	7.506589	118.275956
15899		-1.292279	9.637593	1.062807	0.002737	0.003937	-0.005746	-0.772949	-0.932617	0.098633	83.627551	7.506093	118.274452
15900		-1.301517	9.657796	1.098863	-0.002857	0.005109	-0.008397	-0.766113	-0.927490	0.100586	83.626355	7.507246	118.275965
15901		-1.286927	9.638870	1.096447	0.004022	0.004324	-0.006503	-0.769287	-0.927490	0.104248	83.629374	7.507206	118.274635
15902		-1.278018	9.649033	1.076276	-0.002198	0.007630	-0.005418	-0.762207	-0.936279	0.095215	83.628812	7.506800	118.274899
15903		-1.263221	9.630125	1.073961	0.000871	0.005186	-0.004903	-0.773926	-0.924561	0.094971	83.630103	7.505903	118.274167
15904		-1.320639	9.645794	1.084556	0.001619	0.006712	-0.009222	-0.769775	-0.927734	0.100830	83.631503	7.507671	118.277971
15905		-1.280109	9.648788	1.075981	-0.001616	0.005993	-0.005505	-0.770264	-0.928223	0.099121	83.631425	7.507169	118.277663
15906		-1.271187	9.658937	1.055975	0.000251	0.004743	-0.006349	-0.769531	-0.928955	0.104492	83.632008	7.507087	118.278693
15907		-1.297743	9.636913	1.062310	-0.004225	0.003139	-0.005525	-0.778564	-0.925049	0.096924	83.630220	7.506415	118.276745
15908		-1.275099	9.649966	1.110154	-0.001616	0.005992	-0.005506	-0.761230	-0.934570	0.097656	83.629855	7.505846	118.280266
15909		-1.298965	9.636741	1.062384	0.002860	0.007596	-0.006330	-0.773926	-0.928955	0.104248	83.632455	7.505916	118.280827
15910		-1.266708	9.660086	1.089813	-0.000958	0.008513	-0.002527	-0.777100	-0.937500	0.101074	83.632663	7.503998	118.282545
15911		-1.293142	9.638074	1.096128	-0.003521	0.005162	-0.006196	-0.770264	-0.926514	0.096924	83.631425	7.503836	118.281716
15912		-1.258318	9.670141	1.070074	-0.000912	0.008015	-0.006176	-0.770996	-0.933105	0.102051	83.631563	7.503873	118.287429
15913		-1.309894	9.656693	1.098610	-0.002236	0.005548	-0.006953	-0.771973	-0.937500	0.098877	83.631084	7.504167	118.286774
15914		-1.270353	9.629170	1.074114	-0.000950	0.005936	-0.007710	-0.764893	-0.931885	0.108398	83.631043	7.505029	118.289404
15915		-1.261496	9.639312	1.054165	-0.001616	0.005991	-0.005507	-0.765381	-0.927246	0.105957	83.630964	7.504527	118.289096
15916		-1.287139	9.647794	1.076514	-0.001532	0.007571	-0.007624	-0.770020	-0.927734	0.099121	83.630847	7.505432	118.284732
15917		-1.297476	9.637458	1.096427	0.001537	0.005129	-0.007107	-0.767578	-0.927979	0.098389	83.632497	7.505786	118.283826
15918		-1.288615	9.647602	1.076462	-0.003521	0.005160	-0.006197	-0.770752	-0.929688	0.104980	83.630945	7.505669	118.284857
15919		-1.289321	9.647501	1.076526	0.000373	0.008401	-0.006934	-0.770020	-0.931152	0.103271	83.632175	7.506133	118.285841
15920		-1.296739	9.645965	1.042643	-0.000996	0.006432	-0.004061	-0.769287	-0.928467	0.103516	83.632261	7.504873	118.286039
15921		-1.306856	9.635630	1.062778	-0.003520	0.005159	-0.006198	-0.768311	-0.935791	0.095947	83.631023	7.504713	118.285209
15922		-1.291157	9.647232	1.076732	-0.000912	0.008012	-0.006178	-0.766846	-0.937988	0.100342	83.631182	7.504833	118.287666
15923		-1.259965	9.640031	1.088439	-0.004186	0.005214	-0.003995	-0.771240	-0.927979	0.104980	83.629585	7.503421	118.287009
15924		-1.276948	9.628224	1.074769	-0.000367	0.004298	-0.007798	-0.760010	-0.928711	0.106201	83.629811	7.504224	118.285857
15925		-1.276680	9.658648	1.090928	-0.002198	0.007624	-0.005422	-0.761719	-0.936768	0.103027	83.629523	7.503778	118.286492
15926		-1.277224	9.658543	1.091216	-0.004926	0.001111	-0.004859	-0.761230	-0.934082	0.095703	83.626952	7.502834	118.277878
15927		-1.278732	9.627918	1.075390	-0.002198	0.007624	-0.005422	-0.762451	-0.931885	0.098145	83.626664	7.502388	118.278514
15928		-1.269728	9.638077	1.055565	-0.002901	0.005600	-0.004752	-0.770752	-0.926514	0.103027	83.625467	7.501683	118.277739
15929		-1.294248	9.677063	1.094155	-0.002901	0.005600	-0.004752	-0.765137	-0.931885	0.103027	83.624630	7.500728	118.277255
15930		-1.289962	9.617375	1.095984	-0.003520	0.005157	-0.006200	-0.766846	-0.927246	0.103027	83.623156	7.500624	118.275778
15931		-1.270532	9.668283	1.072424	-0.004102	0.006792	-0.006114	-0.765137	-0.933838	0.109131	83.621708	7.500519	118.275891
15932		-1.272138	9.637648	1.056579	-0.002937	0.003521	-0.006286	-0.766357	-0.931396	0.105469	83.620489	7.500406	118.270920
15933		-1.281318	9.657796	1.093032	-0.004925	0.001110	-0.004861	-0.767578	-0.935303	0.105713	83.618154	7.499226	118.267851
15934		-1.298337	9.645958	1.079509	-0.002270	0.003466	-0.008490	-0.768799	-0.933105	0.106934	83.617277	7.500393	118.263745
15935		-1.283524	9.627046	1.077486	-0.004734	0.008924	-0.002377	-0.772705	-0.930664	0.097168	83.615658	7.498297	118.265323
15936		-1.284018	9.626966	1.077614	0.000253	0.004740	-0.006351	-0.765137	-0.931396	0.106934	83.616292	7.498248	118.265734
15937		-1.283669	9.657397	1.093799	-0.002901	0.005599	-0.004753	-0.770996	-0.937988	0.100342	83.615454	7.497293	118.265250
15938		-1.275557	9.637051	1.057903	-0.002901	0.005598	-0.004753	-0.767090	-0.936279	0.107666	83.614373	7.496479	118.264287
15939		-1.276060	9.636946	1.058255	-0.005507	0.002744	-0.004776	-0.774170	-0.931885	0.101563	83.611828	7.495354	118.262161
15940		-1.311184	9.635093	1.100890	-0.004102	0.006790	-0.006115	-0.767334	-0.927002	0.093506	83.610160	7.495330	118.262332
15941		-1.292567	9.655530	1.061162	-0.002283	0.006041	-0.003306	-0.775635	-0.928467	0.103271	83.609722	7.493579	118.262195
15942		-1.277785	9.636627	1.059077	-0.003434	0.006735	-0.008319	-0.772461	-0.927002	0.102539	83.608338	7.494709	118.265754
15943		-1.262143	9.648226	1.073156	-0.002901	0.005598	-0.004754	-0.778076	-0.936035	0.106445	83.607500	7.493754	118.265269
15944		-1.294411	9.655215	1.061789	-0.002901	0.005597	-0.004754	-0.770020	-0.926758	0.106201	83.606460	7.492754	118.266884
15945		-1.272716	9.637770	1.093611	-0.004186	0.005209	-0.003999	-0.771973	-0.928711	0.103516	83.604863	7.491344	118.266225
15946		-1.295472	9.655018	1.062284	-0.001649	0.003908	-0.007044	-0.776611	-0.928223	0.106445	83.604415	7.491556	118.264274
15947		-1.258636	9.618750	1.091781	-0.004136	0.004710	-0.007650	-0.772705	-0.930908	0.097168	83.602778	7.492194	118.263093
15948		-1.300529	9.615452	1.100358	-0.000533	0.001137	-0.003565	-0.764893	-0.935547	0.105713	83.602736	7.490224	118.263335
15949		-1.290313	9.656186	1.096663	-0.003534	0.007729	-0.001017	-0.769775	-0.930664	0.108154	83.601726	7.487277	118.264315
15950		-1.265815	9.647591	1.074546	-0.000947	0.005931	-0.007713	-0.767090	-0.927490	0.114014	83.601838	7.488155	118.260779
15951		-1.257942	9.627234	1.038618	-0.004136	0.004709	-0.007651	-0.769531	-0.936523	0.095459	83.600202	7.488792	118.259597
15952		-1.292309	9.655859	1.097194	-0.002198	0.007619	-0.005424	-0.774658	-0.928711	0.104736	83.599713	7.488444	118.258903
15953		-1.261165	9.648701	1.108879	-0.001615	0.005985	-0.005510	-0.765381	-0.929688	0.100830	83.599635	7.487944	118.258592
15954		-1.284828	9.635450	1.061263	-0.001615	0.005984	-0.005511	-0.763428	-0.930176	0.097656	83.599337	7.487468	118.258725
15955		-1.278613	9.636816	1.095140	-0.000997	0.006428	-0.004063	-0.767090	-0.925537	0.098389	83.599658	7.486172	118.258762
15956		-1.295495	9.625000	1.081434	-0.004101	0.006786	-0.006118	-0.769287	-0.932617	0.099854	83.597913	7.486178	118.259855
15957		-1.295129	9.655412	1.097800	-0.002283	0.006038	-0.003308	-0.770996	-0.931885	0.111084	83.597474	7.484428	118.259716
15958		-1.277476	9.645372	1.041891	-0.002265	0.003463	-0.008493	-0.774902	-0.931885	0.105469	83.596628	7.485530	118.256813
15959		-1.281048	9.636416	1.095812	-0.001614	0.005984	-0.005511	-0.766357	-0.933838	0.096436	83.596550	7.485031	118.256501
15960		-1.288405	9.634874	1.062154	-0.003517	0.005151	-0.006204	-0.770508	-0.932617	0.097412	83.595054	7.484956	118.257594
15961		-1.272722	9.646495	1.076222	-0.002198	0.007617	-0.005425	-0.770020	-0.927979	0.097168	83.594764	7.484512	118.258226
15962		-1.292521	9.625810	1.116351	-0.004101	0.006784	-0.006119	-0.766357	-0.928711	0.099609	83.593006	7.484469	118.262069
15963		-1.273909	9.646279	1.076757	-0.004186	0.005204	-0.004002	-0.765381	-0.932129	0.100342	83.591409	7.483060	118.261407
15964		-1.284147	9.635870	1.096988	-0.002848	0.005096	-0.008408	-0.767090	-0.930664	0.108643	83.590270	7.484289	118.260350
15965		-1.275087	9.646067	1.077257	-0.003536	0.007725	-0.001019	-0.775635	-0.930908	0.098633	83.589258	7.481344	118.261328
15966		-1.268921	9.647392	1.111416	-0.004750	0.004262	-0.009103	-0.770996	-0.936768	0.106201	83.587029	7.482801	118.260300
15967		-1.291874	9.664588	1.080206	-0.004101	0.006783	-0.006120	-0.767578	-0.934082	0.105957	83.585581	7.482699	118.260409
15968		-1.286615	9.635407	1.098166	-0.003484	0.007226	-0.004671	-0.771240	-0.932861	0.099365	83.584360	7.481935	118.259160
15969		-1.261326	9.657323	1.092375	-0.004100	0.006782	-0.006120	-0.764160	-0.932129	0.102295	83.582912	7.481833	118.259268
15970		-1.271435	9.646909	1.112733	-0.006056	0.006447	-0.003162	-0.776855	-0.931396	0.101318	83.580091	7.480158	118.259841
15971		-1.278451	9.645386	1.079364	-0.005440	0.006890	-0.001714	-0.771240	-0.933105	0.098145	83.577921	7.477555	118.260296
15972		-1.272198	9.646712	1.113576	-0.004100	0.006782	-0.006121	-0.764648	-0.935059	0.099121	83.576211	7.477462	118.264361
15973		-1.279485	9.645161	1.080156	-0.006088	0.004369	-0.004698	-0.766602	-0.927734	0.104248	83.573455	7.476396	118.263175
15974		-1.280019	9.645017	1.080802	-0.008574	0.005169	-0.005306	-0.769775	-0.931152	0.104004	83.569102	7.475878	118.261036
15975		-1.280567	9.644866	1.081502	-0.007841	0.009268	-0.004440	-0.772949	-0.932129	0.099121	83.565711	7.474980	118.262681
15976		-1.281081	9.644732	1.082086	-0.006088	0.004368	-0.004698	-0.768311	-0.931885	0.097412	83.562732	7.473956	118.262970
15977		-1.281519	9.644616	1.082602	-0.006056	0.006445	-0.003164	-0.762695	-0.932373	0.108643	83.560164	7.472150	118.263076
15978		-1.291455	9.634193	1.103127	-0.007926	0.007688	-0.002324	-0.764160	-0.924561	0.103027	83.556423	7.470107	118.261649
15979		-1.272499	9.654720	1.063862	-0.006726	0.006498	-0.000961	-0.766846	-0.934570	0.101563	83.553493	7.467050	118.261928
15980		-1.256338	9.666360	1.078399	-0.008012	0.006107	-0.000207	-0.771729	-0.930176	0.099121	83.549604	7.463659	118.260089
15981		-1.291799	9.633921	1.105094	-0.008682	0.006160	0.001996	-0.772217	-0.932373	0.102295	83.545553	7.458896	118.260367
15982		-1.297560	9.662962	1.087909	-0.002455	0.002876	0.000926	-0.770264	-0.935303	0.098877	83.544589	7.454562	118.260640
15983		-1.297666	9.662951	1.087877	0.003125	-0.002929	-0.003129	-0.759277	-0.934326	0.102295	83.546583	7.452132	118.255367
15984		-1.280807	9.575787	1.139357	0.030197	-0.010496	-0.013067	-0.772949	-0.927490	0.097900	83.563191	7.455121	118.243983
15985		-1.271123	9.694101	1.023449	0.037119	-0.016413	-0.021532	-0.769531	-0.933105	0.104736	83.583502	7.462307	118.229776
15986		-1.305303	9.623942	1.117584	0.036365	-0.017943	-0.017214	-0.764648	-0.935059	0.102539	83.603079	7.466967	118.216694
15987		-1.286915	9.675249	1.090243	0.043265	-0.021290	-0.020494	-0.772217	-0.926270	0.105469	83.626553	7.473262	118.199757
15988		-1.263573	9.667020	1.063931	0.048095	-0.028631	-0.020233	-0.765625	-0.926758	0.105713	83.652051	7.479025	118.178244
15989		-1.268928	9.627932	1.097465	0.045025	-0.026207	-0.020762	-0.780273	-0.931885	0.104980	83.676160	7.485176	118.158470
15990		-1.308162	9.664194	1.064009	0.046405	-0.019589	-0.016924	-0.766357	-0.938232	0.102783	83.701400	7.489515	118.144528
15991		-1.252596	9.649020	1.049457	0.041150	-0.024808	-0.013318	-0.769287	-0.934570	0.111328	83.723453	7.491530	118.126035
15992		-1.266761	9.599736	1.103629	0.038694	-0.021935	-0.012396	-0.774414	-0.932129	0.107910	83.744111	7.493387	118.108863
15993		-1.280330	9.627453	1.048785	0.034366	-0.017815	-0.010633	-0.764404	-0.936768	0.104004	83.762823	7.494322	118.094557
15994		-1.258111	9.641027	1.093525	0.029566	-0.008402	-0.009372	-0.776611	-0.933350	0.106934	83.779256	7.495242	118.087490
15995		-1.291368	9.617607	1.063253	0.027026	-0.007099	-0.006327	-0.770020	-0.939453	0.114990	83.794600	7.494397	118.079610
15996		-1.288525	9.657022	1.022889	0.028364	-0.007220	-0.010739	-0.772217	-0.928467	0.111328	83.810496	7.496111	118.072516
15997		-1.282758	9.658747	1.054161	0.026462	-0.008058	-0.011431	-0.770264	-0.930176	0.109375	83.825402	7.498118	118.063766
15998		-1.277585	9.629934	1.069495	0.026442	-0.005470	-0.006248	-0.765137	-0.933350	0.108887	83.840369	7.497298	118.057551
15999		-1.275400	9.638719	1.013513	0.019006	-0.000993	-0.006536	-0.773926	-0.928711	0.109131	83.851574	7.496955	118.053166
16000		-1.263402	9.611439	1.063492	0.015313	0.000992	-0.008506	-0.766602	-0.930908	0.112305	83.860584	7.497898	118.051053
16001		-1.270106	9.640441	1.044480	0.009555	-0.001007	-0.006921	-0.773682	-0.931885	0.113770	83.866369	7.497775	118.046636
16002		-1.293923	9.626955	0.996135	0.005275	0.002612	-0.008808	-0.769043	-0.932129	0.099854	83.869816	7.498968	118.043499
16003		-1.287275	9.659085	1.045526	0.002786	0.003410	-0.009414	-0.776123	-0.924805	0.108887	83.872034	7.500536	118.041466
16004		-1.262967	9.650509	1.022999	0.002178	0.007638	-0.004147	-0.762451	-0.935303	0.106445	83.873966	7.499307	118.048137
16005		-1.273068	9.640206	1.043038	-0.004703	0.008399	-0.006049	-0.768799	-0.931396	0.109131	83.872295	7.499263	118.049178
16006		-1.264244	9.650290	1.023483	-0.007192	0.009196	-0.006655	-0.776855	-0.933105	0.108887	83.868995	7.499789	118.051071
16007		-1.295912	9.687593	1.028636	-0.011524	0.013324	-0.004890	-0.770508	-0.935303	0.107666	83.863794	7.499387	118.055014
16008		-1.243179	9.632829	1.056864	-0.012779	0.015018	-0.002602	-0.766602	-0.937500	0.114746	83.857780	7.497800	118.064443
16009		-1.282213	9.637927	1.012451	-0.012697	0.016590	-0.004725	-0.769043	-0.942139	0.106201	83.852153	7.497505	118.070273
16010		-1.269206	9.640969	1.081148	-0.013924	0.020366	-0.000907	-0.767334	-0.932861	0.109375	83.845918	7.495509	118.078384
16011		-1.270103	9.610235	1.066390	-0.017751	0.021283	0.002895	-0.765381	-0.925293	0.105713	83.837807	7.491163	118.087383
16012		-1.270263	9.610082	1.067575	-0.013669	0.029755	-0.000560	-0.762695	-0.936035	0.105957	83.832424	7.489382	118.100931
16013		-1.264505	9.580955	1.086472	-0.016910	0.029036	0.003157	-0.770020	-0.928223	0.107666	83.825377	7.485366	118.114401
16014		-1.242492	9.563661	1.119184	-0.014113	0.037118	0.000459	-0.776367	-0.933838	0.107666	83.820279	7.483527	118.132436
16015		-1.270986	9.609669	1.070430	-0.009750	0.035071	0.000226	-0.765869	-0.925781	0.104980	83.817761	7.481556	118.149192
16016		-1.227789	9.544731	1.117806	-0.002088	0.037904	-0.000662	-0.780029	-0.925049	0.102051	83.819618	7.480258	118.169932
16017		-1.218081	9.585543	1.113254	0.004960	0.040288	-0.002996	-0.764404	-0.934326	0.108887	83.825892	7.480442	118.189485
16018		-1.264481	9.718685	1.009246	0.010157	0.024017	-0.001616	-0.768799	-0.927979	0.102295	83.833709	7.478808	118.202930
16019		-1.238286	9.611479	1.025581	0.007861	0.008061	-0.003596	-0.766602	-0.930908	0.116211	83.839229	7.477347	118.203929
16020		-1.214873	9.526126	1.111709	0.014858	0.001617	-0.015702	-0.762695	-0.931885	0.113037	83.848029	7.482439	118.198452
16021		-1.210422	9.527753	1.142929	0.041849	-0.014302	-0.031759	-0.769531	-0.931152	0.106934	83.871122	7.495651	118.184861
16022		-1.236556	9.544959	1.106133	0.071984	-0.037848	-0.057666	-0.767334	-0.933838	0.104004	83.909339	7.522312	118.153387
16023		-1.212797	9.636929	1.070224	0.105404	-0.058638	-0.085786	-0.768311	-0.940186	0.113037	83.965058	7.563641	118.111034
16024		-1.282820	9.659054	0.981796	0.144715	-0.078521	-0.122840	-0.768555	-0.934326	0.115479	84.041205	7.625108	118.056409
16025		-1.332386	9.832016	0.859637	0.180978	-0.100768	-0.167205	-0.766113	-0.927734	0.115723	84.136267	7.710464	117.985079
16026		-1.404182	9.961330	0.704623	0.205667	-0.114040	-0.219632	-0.772217	-0.930176	0.115723	84.243774	7.825014	117.903212
16027		-1.418637	10.030772	0.695882	0.235024	-0.139005	-0.298940	-0.757568	-0.936035	0.122559	84.365483	7.983567	117.802595
16028		-1.380817	10.069793	0.548797	0.288383	-0.154358	-0.398710	-0.766602	-0.931396	0.122559	84.515284	8.198299	117.690346
16029		-1.196127	10.054670	0.648068	0.374268	-0.191182	-0.535847	-0.754395	-0.938232	0.127441	84.709884	8.489717	117.547519
16030		-0.671440	10.869161	0.428570	0.472923	-0.066608	-0.760373	-0.757568	-0.947754	0.129883	84.969216	8.915947	117.471573
16031		-0.643731	10.658050	1.298607	0.549047	0.066108	-1.164379	-0.743408	-0.957275	0.125244	85.281036	9.579962	117.448856
16032		-0.613076	12.970692	1.503999	0.464981	0.208356	-1.578138	-0.737061	-0.961670	0.134766	85.555552	10.486528	117.506772
16033		-0.944268	13.113045	1.016144	0.307985	0.202297	-1.967398	-0.723877	-0.970703	0.126709	85.738084	11.615413	117.533780
16034		-1.520128	11.616908	0.898495	0.258835	0.125682	-2.378641	-0.706787	-0.987305	0.133789	85.880304	12.975893	117.501675
16035		-1.570851	12.275514	0.975291	0.264751	-0.027321	-2.695739	-0.695801	-0.999756	0.133545	86.001467	14.511576	117.369423
16036		-1.795353	12.241785	1.028486	0.245932	-0.216960	-2.913909	-0.669189	-1.012451	0.127197	86.076463	16.164320	117.118834
16037		-2.049713	12.633770	1.229341	0.210446	-0.327997	-3.193591	-0.652832	-1.022461	0.136963	86.100952	17.973166	116.788457
16038		-2.477295	12.998454	1.388554	0.134077	-0.262644	-3.496822	-0.616211	-1.035889	0.135498	86.078723	19.957636	116.481374
16039		-3.350113	13.823556	1.715964	0.103756	-0.111158	-3.612608	-0.595459	-1.046143	0.138184	86.058894	22.014403	116.257561
16040		-4.126317	15.530370	1.957879	-0.092370	0.128219	-3.535755	-0.565918	-1.061523	0.129639	85.976489	24.036203	116.180291
16041		-3.231109	15.003900	2.028284	-0.190546	0.433442	-3.209738	-0.551758	-1.075439	0.133789	85.921388	25.884318	116.306338
16042		-4.031317	11.328092	1.562521	0.062303	0.672219	-3.002137	-0.523193	-1.085449	0.132080	86.089213	27.622664	116.598172
16043		-2.600735	10.572481	2.004294	0.287137	0.787496	-2.925214	-0.510010	-1.087891	0.128418	86.437660	29.320677	116.982063
16044		-0.122202	10.817944	1.802473	0.295179	0.883594	-2.552594	-0.481689	-1.103271	0.131348	86.848232	30.805870	117.462538
16045		3.429793	11.045584	2.008610	0.171331	0.908514	-1.895675	-0.463623	-1.107422	0.121094	87.227714	31.913657	118.001369
16046		8.849733	11.084971	1.392988	0.090377	1.048728	-1.194493	-0.458740	-1.115967	0.124023	87.637265	32.619479	118.670166
16047		4.691608	13.364737	1.091847	-0.036503	1.390324	-0.565536	-0.436523	-1.115479	0.125732	88.120072	32.969022	119.598535
16048		7.167130	13.037605	1.667418	-0.291100	1.498091	0.260244	-0.447021	-1.112305	0.110107	88.509202	32.839800	120.620494
16049		6.807347	9.615396	1.478049	-0.343089	1.608782	0.876041	-0.450195	-1.122070	0.103516	88.907675	32.355048	121.723359
16050		6.119015	8.240058	1.541205	-0.251714	1.612141	1.270011	-0.450195	-1.107666	0.104980	89.345225	31.635528	122.820005
16051		5.299306	7.935398	1.796475	-0.167809	1.543458	1.522564	-0.458740	-1.108643	0.095703	89.787281	30.766207	123.857173
16052		4.510155	8.112799	2.043600	-0.157179	1.407127	1.735438	-0.472656	-1.124023	0.085205	90.165698	29.765774	124.785461
16053		3.823578	8.398254	2.229357	-0.214577	1.203328	1.939696	-0.486084	-1.104492	0.089844	90.423750	28.647259	125.564404
16054		3.222755	8.643061	2.352619	-0.296608	0.959636	2.144040	-0.502930	-1.098389	0.077637	90.538714	27.407472	126.169809
16055		2.717469	8.853661	2.367879	-0.399350	0.693875	2.328420	-0.511475	-1.103760	0.081055	90.503017	26.066234	126.597078
16056		2.269470	8.967054	2.257351	-0.515589	0.433694	2.493914	-0.515137	-1.094727	0.070557	90.318227	24.628491	126.854916
16057		1.789791	9.092059	2.080889	-0.643613	0.190221	2.630543	-0.547607	-1.092041	0.073486	89.995062	23.117401	126.965437
16058		1.394070	9.188817	1.814881	-0.777665	-0.029664	2.732274	-0.559570	-1.071533	0.060303	89.542997	21.544457	126.948186
16059		1.116844	9.088627	1.605137	-0.900481	-0.210580	2.782444	-0.576416	-1.074463	0.053711	88.988534	19.945154	126.837026
16060		0.717929	8.979658	1.409421	-0.984368	-0.358065	2.786754	-0.595459	-1.066406	0.048584	88.364253	18.336438	126.653422
16061		0.153603	9.103270	1.341832	-1.015743	-0.480068	2.731755	-0.617188	-1.062256	0.042236	87.711978	16.759015	126.417473
16062		-0.632928	9.635558	1.275579	-1.031174	-0.616863	2.661646	-0.636475	-1.047119	0.030518	87.038384	15.211456	126.117505
16063		-1.477261	10.274283	1.250307	-1.041853	-0.780378	2.602001	-0.658691	-1.048096	0.030273	86.348484	13.693479	125.741659
16064		-2.310150	10.775169	1.356517	-1.011586	-0.963595	2.578961	-0.672607	-1.036865	0.028320	85.664672	12.172849	125.277012
16065		-3.309982	11.375016	1.431141	-0.939840	-1.185087	2.601278	-0.705078	-1.033691	0.017822	85.014277	10.628259	124.706635
16066		-4.052341	11.938193	1.460477	-0.846287	-1.429071	2.663793	-0.734863	-1.013672	0.028076	84.411452	9.024859	124.017008
16067		-4.709669	12.348301	1.215580	-0.770280	-1.667369	2.758929	-0.754150	-1.003174	0.022949	83.856969	7.350739	123.216702
16068		-4.932880	12.631737	0.652574	-0.741284	-1.850742	2.839574	-0.783203	-0.981201	0.018311	83.332439	5.607478	122.334161
16069		-5.280687	12.501188	0.360979	-0.702859	-1.916900	2.870752	-0.800537	-0.970703	0.034912	82.856551	3.838455	121.435245
16070		-5.819682	12.326906	0.003246	-0.634102	-1.881977	2.877050	-0.828369	-0.948730	0.037354	82.448683	2.057651	120.571048
16071		-6.160072	12.283676	-0.257948	-0.595014	-1.778381	2.833024	-0.854004	-0.937744	0.041504	82.092210	0.308028	119.776280
16072		-6.302316	11.958896	-0.383457	-0.603264	-1.622102	2.748881	-0.882813	-0.914795	0.049072	81.753242	-1.389670	119.073145
16073		-6.372475	11.317109	-0.334946	-0.597180	-1.418371	2.618230	-0.892822	-0.889893	0.044678	81.434458	-2.996640	118.484883
16074		-6.414718	10.478488	-0.171940	-0.530607	-1.196824	2.466072	-0.912842	-0.870850	0.055176	81.161314	-4.504475	118.015771
16075		-6.680407	9.475491	0.098008	-0.391622	-0.989293	2.283651	-0.937988	-0.853271	0.061523	80.970543	-5.889233	117.654364
16076		-6.806667	8.329224	0.654313	-0.160519	-0.807090	2.079031	-0.949463	-0.837646	0.062744	80.910056	-7.145386	117.379604
16077		-6.899727	7.504351	1.279145	0.146865	-0.617295	1.847041	-0.959229	-0.817383	0.062012	81.020272	-8.250246	117.191630
16078		-6.894056	7.687581	2.169432	0.385078	-0.449063	1.586048	-0.972656	-0.810547	0.068848	81.259344	-9.194319	117.072210
16079		-7.122022	8.195607	2.899731	0.413299	-0.276396	1.341310	-0.972656	-0.803467	0.081787	81.504573	-9.982035	117.026959
16080		-8.136287	7.952807	2.811393	0.244529	-0.143856	1.093414	-0.976563	-0.785645	0.083252	81.643744	-10.619893	117.033650
16081		-13.275297	5.317697	3.205872	0.427077	0.105312	-0.137138	-0.980957	-0.783203	0.078125	81.880880	-10.537612	117.079659
16082		-13.248222	-0.002430	1.046625	0.583646	-0.025336	-0.894801	-0.978760	-0.787842	0.082275	82.231581	-10.037238	116.989434
16083		-17.358336	3.476736	2.487616	0.661801	-0.498393	-1.667543	-0.970947	-0.807861	0.083740	82.681198	-9.131650	116.571812
16084		-17.498880	3.697617	2.531634	0.498881	-0.979395	-2.432250	-0.967285	-0.826416	0.095215	83.076455	-7.822870	115.830740
16085		-3.315619	8.114733	3.713636	0.176727	-1.412120	-2.801739	-0.951904	-0.845947	0.105225	83.302382	-6.328874	114.826042
16086		-1.240900	13.475770	0.691728	-0.130126	-1.607480	-2.741971	-0.944824	-0.872314	0.111816	83.335887	-4.879507	113.719925
16087		2.237339	12.691041	-2.649362	-0.218284	-1.554237	-2.488061	-0.927002	-0.885498	0.128906	83.289559	-3.571354	112.663274
16088		2.230575	9.277456	-5.290362	0.091495	-1.160300	-2.542004	-0.926025	-0.906250	0.146973	83.384174	-2.205731	111.829581
16089		2.172249	10.292566	-7.216130	0.217006	-0.593380	-2.768627	-0.909912	-0.927734	0.140869	83.522517	-0.672551	111.307458
16090		1.024880	14.510866	-5.473697	0.088022	0.220187	-2.927692	-0.890137	-0.942871	0.140625	83.573337	1.004462	111.240941
16091		-1.146047	15.673490	-3.046027	-0.476692	0.757769	-2.872887	-0.871826	-0.962402	0.141846	83.308808	2.685294	111.481014
16092		-2.743782	15.488228	4.630540	-0.757074	0.939930	-2.696758	-0.863525	-0.975830	0.136719	82.896953	4.279895	111.827420
16093		-5.263671	14.617033	6.680502	-0.526125	0.869954	-2.372229	-0.841309	-0.995850	0.118164	82.624270	5.686990	112.148518
16094		-6.904114	15.285517	5.431125	0.444962	0.493511	-1.391087	-0.834961	-1.002197	0.121338	82.898802	6.509416	112.326312
16095		-2.882859	14.623794	-1.386495	0.757625	0.268575	-0.328187	-0.819580	-1.010498	0.125244	83.348485	6.710474	112.454094
16096		-1.482739	13.191992	-0.699992	-0.022775	0.175361	-0.283251	-0.832031	-1.015381	0.125732	83.345377	6.879638	112.532348
16097		-1.624092	9.073922	1.930992	-0.050434	0.075969	-0.144962	-0.832031	-1.010010	0.123535	83.321038	6.963148	112.562817
16098		-1.188186	9.901736	0.873222	0.006883	0.051481	-0.132754	-0.831055	-1.017578	0.114014	83.327810	7.038458	112.580121
16099		-1.394129	10.087645	0.725587	-0.085801	0.076581	-0.074311	-0.819580	-1.013672	0.111084	83.283904	7.081820	112.615665
16100		-1.379607	9.462335	1.406866	-0.072355	0.046137	-0.072678	-0.824463	-1.010986	0.129883	83.245443	7.122606	112.633903
16101		-1.338962	10.015187	0.901343	-0.041669	0.007494	-0.057541	-0.830322	-1.018799	0.123291	83.222084	7.151807	112.630923
16102		-1.370370	9.882472	0.976146	-0.086870	-0.001654	-0.044197	-0.823242	-1.019531	0.125244	83.172146	7.173172	112.623662
16103		-1.351815	9.872651	0.962082	-0.116476	-0.031836	-0.050785	-0.821777	-1.018555	0.115479	83.103155	7.195833	112.598549
16104		-1.274485	9.681942	1.139708	-0.124632	-0.027820	-0.052132	-0.817871	-1.022217	0.115234	83.029631	7.219889	112.575689
16105		-1.245774	9.594695	1.235814	-0.110723	-0.027709	-0.051083	-0.813965	-1.015381	0.109375	82.964203	7.242946	112.552862
16106		-1.267787	9.580792	1.233271	-0.086324	-0.033498	-0.055579	-0.821777	-1.014160	0.120605	82.912159	7.268510	112.526446
16107		-1.254293	9.700472	1.194627	-0.078291	-0.047233	-0.054833	-0.821289	-1.020752	0.118896	82.863836	7.292271	112.492114
16108		-1.318243	9.652363	1.186122	-0.071998	-0.053810	-0.052083	-0.822754	-1.021240	0.115967	82.818524	7.314353	112.454263
16109		-1.304930	9.623436	1.243071	-0.056211	-0.051159	-0.052488	-0.826172	-1.016846	0.109131	82.782555	7.336447	112.417810
16110		-1.277313	9.655122	1.219782	-0.047732	-0.063854	-0.059769	-0.821289	-1.021484	0.113037	82.750305	7.362124	112.373612
16111		-1.250859	9.577430	1.254494	-0.032455	-0.048253	-0.061571	-0.820801	-1.025146	0.121826	82.728040	7.389553	112.338133
16112		-1.286279	9.573880	1.301665	0.001998	-0.034567	-0.051882	-0.824463	-1.016113	0.120605	82.726476	7.412840	112.311274
16113		-1.300156	9.571916	1.267999	0.017608	-0.018966	-0.040549	-0.820801	-1.025146	0.119385	82.735233	7.430439	112.294110
16114		-1.320762	9.669144	1.194358	0.031401	-0.019288	-0.043158	-0.823242	-1.019287	0.119629	82.751711	7.449881	112.276649
16115		-1.323386	9.699400	1.207557	0.035476	-0.028305	-0.052065	-0.816406	-1.017090	0.120850	82.769891	7.473360	112.253301
16116		-1.346312	9.726461	1.154915	0.029924	-0.054619	-0.060466	-0.827393	-1.019043	0.116211	82.782709	7.500105	112.214337
16117		-1.309775	9.651264	1.215883	0.030629	-0.050414	-0.059561	-0.822266	-1.024170	0.115723	82.796363	7.526267	112.177778
16118		-1.303293	9.573679	1.320879	0.053595	-0.038219	-0.054181	-0.826660	-1.008789	0.120117	82.824006	7.550638	112.148684
16119		-1.276792	9.576650	1.269393	0.082805	-0.009958	-0.033771	-0.821533	-1.025146	0.123535	82.870825	7.565061	112.137205
16120		-1.284959	9.597599	1.296797	0.111973	0.019912	-0.015482	-0.817139	-1.022217	0.120850	82.936657	7.571590	112.144252
16121		-1.307600	9.674373	1.143196	0.127574	0.035529	-0.004218	-0.822021	-1.024658	0.125977	83.012842	7.572420	112.160988
16122		-1.333857	9.692462	1.100938	0.130636	0.027112	-0.004979	-0.822754	-1.020264	0.127441	83.090010	7.573455	112.172916
16123		-1.313454	9.764252	0.988291	0.117775	0.017056	-0.011077	-0.810547	-1.031982	0.130371	83.159122	7.576876	112.178579
16124		-1.329152	9.705066	1.057254	0.093715	0.026925	-0.018786	-0.825195	-1.029053	0.127197	83.215007	7.585724	112.189457
16125		-1.282590	9.681159	1.053463	0.079375	0.031060	-0.014455	-0.826660	-1.012939	0.122314	83.263151	7.592001	112.202935
16126		-1.315248	9.679345	1.091141	0.067844	0.036445	-0.023452	-0.823242	-1.026123	0.129883	83.304905	7.604123	112.218979
16127		-1.319584	9.649053	1.068829	0.057021	0.031606	-0.025742	-0.815430	-1.035400	0.121582	83.340188	7.616839	112.232022
16128		-1.312665	9.651219	1.095922	0.057657	0.033669	-0.026426	-0.827881	-1.027344	0.138428	83.375881	7.630449	112.246290
16129		-1.299753	9.633105	1.086549	0.053378	0.036265	-0.022286	-0.809082	-1.032471	0.122559	83.409471	7.641490	112.262255
16130		-1.332763	9.631130	1.126156	0.052219	0.041748	-0.020448	-0.817383	-1.021484	0.131592	83.442728	7.652208	112.281575
16131		-1.319254	9.613083	1.117058	0.050608	0.051611	-0.013229	-0.817627	-1.016846	0.127930	83.475992	7.659076	112.306964
16132		-1.304774	9.664784	1.085559	0.051185	0.051517	-0.015485	-0.821289	-1.024414	0.124023	83.509456	7.667581	112.332233
16133		-1.307005	9.665088	1.080152	0.047850	0.043759	-0.020004	-0.820557	-1.018066	0.122314	83.540487	7.677771	112.352679
16134		-1.351529	9.630392	1.071175	0.051413	0.038493	-0.027158	-0.817383	-1.018799	0.123535	83.572992	7.692054	112.369718
16135		-1.362145	9.620268	1.086551	0.050767	0.041743	-0.029143	-0.812500	-1.027344	0.136719	83.605471	7.707295	112.388429
16136		-1.324342	9.585708	1.107199	0.052687	0.042610	-0.028537	-0.816162	-1.028564	0.131592	83.639024	7.722607	112.407763
16137		-1.328186	9.624888	1.063009	0.059049	0.043571	-0.026830	-0.817871	-1.018555	0.130127	83.676422	7.736624	112.427691
16138		-1.323743	9.635463	1.035479	0.067291	0.047002	-0.026620	-0.815918	-1.023926	0.125977	83.718712	7.751095	112.449692
16139		-1.333799	9.586708	1.087005	0.077379	0.054487	-0.030023	-0.816895	-1.031494	0.134766	83.767445	7.767583	112.475717
16140		-1.322174	9.607702	1.036401	0.092595	0.057210	-0.028236	-0.824219	-1.029785	0.127197	83.825029	7.783567	112.503511
16141		-1.333743	9.636935	1.008595	0.104638	0.063967	-0.028926	-0.819580	-1.027100	0.126221	83.890149	7.799960	112.535089
16142		-1.392984	9.612994	1.050624	0.119577	0.061214	-0.037626	-0.810303	-1.031738	0.130371	83.963451	7.821473	112.564650
16143		-1.341899	9.638341	0.984046	0.130939	0.063718	-0.039210	-0.810547	-1.027832	0.130859	84.043564	7.843631	112.595509
16144		-1.370658	9.685930	0.956169	0.131349	0.058669	-0.048295	-0.813965	-1.021484	0.134766	84.123357	7.870994	112.623031
16145		-1.376228	9.686451	0.942800	0.128651	0.054492	-0.055619	-0.818848	-1.027344	0.132568	84.201336	7.901883	112.647681
16146		-1.398722	9.635787	0.955882	0.132296	0.047553	-0.060657	-0.813721	-1.034912	0.130859	84.280735	7.935579	112.668168
16147		-1.413034	9.664581	0.925503	0.115367	0.048764	-0.056334	-0.824951	-1.033691	0.137695	84.350680	7.966485	112.689567
16148		-1.442511	9.711566	0.900170	0.092107	0.038401	-0.048322	-0.818848	-1.032715	0.130615	84.406453	7.992586	112.705568
16149		-1.425391	9.672359	0.852352	0.072493	0.033954	-0.049122	-0.812988	-1.029541	0.128418	84.450731	8.018514	112.718908
16150		-1.396693	9.697439	0.869259	0.072375	0.031173	-0.054367	-0.816895	-1.027344	0.134766	84.494595	8.047640	112.730455
16151		-1.352003	9.665829	0.921509	0.079938	0.039386	-0.058322	-0.814453	-1.025146	0.133301	84.543527	8.079091	112.746459
16152		-1.366771	9.624887	0.917852	0.102687	0.042876	-0.059332	-0.826660	-1.026855	0.135986	84.605692	8.111660	112.764530
16153		-1.388991	9.643391	0.909409	0.122216	0.048205	-0.064406	-0.815186	-1.023926	0.141357	84.679547	8.147020	112.785358
16154		-1.413108	9.630908	0.883911	0.140343	0.048190	-0.075448	-0.819580	-1.029541	0.135986	84.763637	8.189016	112.805720
16155		-1.420996	9.700302	0.844915	0.159100	0.046474	-0.086621	-0.811035	-1.032959	0.133545	84.858362	8.236901	112.824497
16156		-1.447997	9.725635	0.778227	0.148097	0.036002	-0.099358	-0.810791	-1.033447	0.135742	84.945762	8.291858	112.836738
16157		-1.441139	9.699958	0.814186	0.156002	0.032543	-0.117041	-0.802490	-1.029541	0.139648	85.037385	8.356350	112.846098
16158		-1.446263	9.709262	0.777189	0.165683	0.021249	-0.140293	-0.811035	-1.034668	0.142334	85.133380	8.433912	112.847976
16159		-1.428180	9.634014	0.793212	0.191295	0.019056	-0.159430	-0.803955	-1.034668	0.147217	85.243831	8.521925	112.847719
16160		-1.460649	9.651412	0.776025	0.216930	0.020514	-0.179218	-0.806152	-1.031738	0.147461	85.368902	8.621670	112.847629
16161		-1.494981	9.668637	0.755966	0.248947	0.019171	-0.196750	-0.809326	-1.041260	0.141846	85.512195	8.731004	112.846111
16162		-1.499459	9.718126	0.703639	0.258792	0.019346	-0.218298	-0.810547	-1.043945	0.143799	85.660958	8.853020	112.844094
16163		-1.514542	9.726138	0.656933	0.261637	0.021632	-0.243634	-0.807129	-1.041260	0.143066	85.811511	8.989254	112.842547
16164		-1.363889	9.924809	0.560284	0.258936	0.039359	-0.298926	-0.797607	-1.038574	0.144775	85.961748	9.158177	112.849400
16165		-1.431106	9.926251	0.524503	0.255697	0.079723	-0.386730	-0.799072	-1.047119	0.151611	86.113498	9.378508	112.876481
16166		-1.576538	9.851168	0.570531	0.254841	0.087648	-0.455249	-0.791504	-1.056885	0.152588	86.265227	9.638587	112.906198
16167		-1.601146	9.867874	0.535071	0.246537	0.096650	-0.519619	-0.788330	-1.052246	0.156006	86.413010	9.935379	112.939385
16168		-1.616420	9.991360	0.554929	0.232548	0.107732	-0.588819	-0.788574	-1.049561	0.155029	86.553732	10.272390	112.977407
16169		-1.707788	10.064135	0.474987	0.192521	0.120141	-0.671495	-0.781494	-1.056396	0.159424	86.672758	10.656683	113.020543
16170		-1.738658	10.084590	0.512531	0.148371	0.122815	-0.752123	-0.777588	-1.062256	0.156250	86.766670	11.087435	113.063404
16171		-1.834303	10.261148	0.495453	0.086973	0.109897	-0.831177	-0.760742	-1.067139	0.160645	86.823929	11.562612	113.096717
16172		-1.956373	10.190389	0.395609	0.026480	0.096713	-0.909222	-0.762695	-1.078857	0.161621	86.844746	12.082313	113.120264
16173		-2.007392	10.245861	0.443909	-0.031364	0.065849	-0.989723	-0.758545	-1.076172	0.153076	86.828273	12.646775	113.123124
16174		-2.071931	10.226455	0.490548	-0.064462	0.044898	-1.080135	-0.750488	-1.085449	0.157959	86.789341	13.262596	113.110524
16175		-2.181216	10.133979	0.523682	-0.085761	0.024286	-1.170714	-0.739014	-1.093750	0.152588	86.734420	13.929250	113.082154
16176		-2.221240	10.190404	0.570913	-0.092487	-0.001051	-1.264086	-0.733643	-1.087158	0.150146	86.670600	14.648738	113.034921
16177		-2.310912	10.282964	0.568998	-0.090347	-0.016697	-1.371651	-0.718018	-1.092041	0.153809	86.603809	15.428884	112.973602
16178		-2.388500	10.288207	0.590019	-0.063331	-0.036935	-1.494517	-0.706299	-1.107666	0.154541	86.546831	16.278808	112.894820
16179		-2.410506	10.211380	0.675160	-0.029445	-0.064780	-1.633043	-0.698242	-1.116699	0.149902	86.501563	17.206657	112.793175
16180		-2.532682	10.106339	0.746083	0.022547	-0.075886	-1.798123	-0.680176	-1.126465	0.152832	86.480178	18.228697	112.677730
16181		-2.688256	10.140988	0.740266	0.049948	-0.092121	-1.997006	-0.668213	-1.131836	0.159668	86.466585	19.363636	112.543976
16182		-2.761559	10.355500	0.656940	0.094630	-0.139766	-2.168030	-0.650879	-1.133789	0.156738	86.463443	20.594869	112.373684
16183		-2.800007	10.189962	0.872256	0.140993	-0.180959	-2.366944	-0.633301	-1.138672	0.158203	86.470924	21.938214	112.169149
16184		-2.764951	9.608453	1.226762	0.218550	-0.149811	-2.585976	-0.606201	-1.157959	0.152100	86.521870	23.408144	111.974327
16185		-2.863127	9.884872	1.333974	0.346699	-0.096802	-2.727142	-0.583984	-1.163330	0.155273	86.653172	24.960769	111.807773
16186		-3.513467	9.253949	1.242168	0.455502	-0.054114	-2.942614	-0.566650	-1.172607	0.163330	86.852092	26.638530	111.663307
16187		-3.640323	9.471746	1.201555	0.511482	-0.004084	-3.251095	-0.532715	-1.178467	0.165527	87.091590	28.494728	111.545619
16188		-4.088943	9.581716	1.108811	0.539710	0.044763	-3.488818	-0.504150	-1.188965	0.162598	87.359307	30.488774	111.459660
16189		-4.483480	9.639432	1.179771	0.548773	0.047007	-3.686921	-0.475586	-1.197754	0.178467	87.632282	32.596597	111.378681
16190		-5.282456	9.789549	1.256954	0.519170	0.122709	-3.881722	-0.439453	-1.207031	0.182861	87.917294	34.817883	111.354803
16191		-5.844820	10.659171	1.234778	0.479040	0.189294	-3.995068	-0.408447	-1.213623	0.180664	88.212595	37.105496	111.388700
16192		-7.085093	11.168342	1.033776	0.413104	0.270700	-4.037767	-0.371094	-1.224121	0.184326	88.517250	39.418589	111.497158
16193		-8.919690	13.511327	1.159927	0.239352	0.359366	-3.990468	-0.339600	-1.223877	0.181885	88.782217	41.705468	111.692307
16194		-9.173155	13.961870	1.266560	-0.084635	0.515640	-3.809588	-0.301758	-1.228027	0.182617	88.964613	43.889679	112.030974
16195		-7.775205	12.893893	1.666127	-0.383123	0.651545	-3.699386	-0.277832	-1.234619	0.180664	89.078762	46.011663	112.501951
16196		-6.680222	13.146444	1.761269	-0.726853	0.757008	-3.596751	-0.239990	-1.221680	0.169678	89.089094	48.075068	113.084018
16197		-6.843462	10.391321	0.972309	-0.859368	0.916192	-3.520230	-0.211914	-1.224854	0.158936	89.163439	50.096134	113.832744
16198		-6.576682	10.599536	0.863275	-0.759574	1.078913	-3.476374	-0.187256	-1.218018	0.146484	89.460112	52.091011	114.772137
16199		-6.400381	11.583436	1.302000	-0.694358	1.213637	-3.344850	-0.145996	-1.212402	0.150391	89.969951	54.007342	115.906710
16200		-5.844736	12.953734	1.580913	-0.876787	1.376174	-3.233031	-0.127686	-1.210938	0.134277	90.598496	55.851464	117.287320
16201		-5.195509	13.558813	1.720592	-1.337276	1.608891	-3.130429	-0.102295	-1.193115	0.129883	91.277410	57.626346	119.014346
16202		-3.918537	11.062990	1.109929	-1.883257	1.838546	-3.036588	-0.072266	-1.187988	0.115479	91.989544	59.330940	121.114332
16203		-3.325720	8.479737	0.464954	-2.342081	2.055024	-2.757582	-0.052246	-1.187744	0.101807	92.802011	60.857151	123.598458
16204		-2.102557	7.224018	0.370881	-2.668378	2.130805	-2.326958	-0.026855	-1.173340	0.074219	93.646842	62.114987	126.298631
16205		6.641668	10.124291	-0.508059	-2.663722	2.165147	-1.569114	-0.011230	-1.165771	0.056885	94.617058	62.919162	129.111523
16206		4.023196	12.723812	-1.339240	-2.410477	2.459386	-0.264462	-0.012207	-1.159668	0.042969	95.999268	62.934538	132.213708
16207		-1.695748	15.449620	0.241857	-2.280522	2.343801	1.192432	-0.016602	-1.151123	0.026611	97.100544	62.099236	134.926843
16208		1.329716	8.992652	0.314786	-1.721917	2.240373	2.054364	-0.033203	-1.157227	0.017334	98.153866	60.756407	137.248388
16209		1.052854	5.267965	0.333846	-1.013805	2.013513	2.430434	-0.051514	-1.150635	0.012939	99.177245	59.202760	139.100017
16210		0.510564	4.343473	0.703241	-0.413371	1.660836	2.578204	-0.069336	-1.159668	0.005371	100.054984	57.581575	140.407639
16211		0.224973	5.073758	1.244220	-0.042437	1.319394	2.551323	-0.092773	-1.159668	0.009277	100.757446	56.004355	141.275122
16212		0.299792	6.126458	1.652413	0.079177	1.030646	2.460736	-0.114502	-1.162842	0.013428	101.242199	54.501935	141.808988
16213		0.406626	7.148662	1.897394	0.014959	0.746421	2.437903	-0.125244	-1.167725	0.007324	101.442998	53.045480	142.046163
16214		0.436332	8.279859	2.106721	-0.151325	0.483925	2.525551	-0.150391	-1.166260	0.006348	101.330362	51.566217	142.012721
16215		0.282956	9.079924	2.202556	-0.377308	0.228007	2.686060	-0.167480	-1.166992	0.000732	100.902992	50.028080	141.739088
16216		0.004549	9.282085	2.040963	-0.561077	-0.010608	2.859013	-0.189941	-1.169434	-0.006592	100.219083	48.412434	141.260011
16217		-0.267501	9.204437	1.799075	-0.677498	-0.258742	3.007385	-0.220947	-1.175049	-0.015869	99.346763	46.736629	140.603045
16218		-0.482973	9.249847	1.566566	-0.739042	-0.503762	3.122711	-0.244873	-1.172852	-0.028564	98.339005	45.006121	139.788760
16219		-0.721428	9.471106	1.319163	-0.769798	-0.724475	3.191557	-0.277344	-1.169189	-0.030273	97.255071	43.247594	138.864329
16220		-0.818326	9.992783	1.096492	-0.778533	-0.908946	3.246107	-0.308350	-1.169434	-0.043213	96.133875	41.453569	137.862104
16221		-0.946527	10.646868	0.881290	-0.791548	-1.054301	3.309378	-0.340820	-1.165771	-0.050781	95.006028	39.621725	136.823456
16222		-1.056092	11.296137	0.648214	-0.810485	-1.162782	3.391546	-0.367920	-1.159668	-0.067627	93.884219	37.727886	135.771454
16223		-1.219819	11.822976	0.399284	-0.830089	-1.240814	3.491715	-0.413330	-1.148438	-0.074707	92.789493	35.768599	134.735437
16224		-1.514064	12.325419	0.239682	-0.846163	-1.292124	3.575097	-0.445068	-1.143311	-0.084961	91.730900	33.742349	133.729072
16225		-1.849095	12.774196	0.155434	-0.863712	-1.311921	3.641625	-0.485107	-1.132324	-0.086914	90.723056	31.668836	132.778336
16226		-2.176054	13.128378	0.174617	-0.870578	-1.333930	3.701682	-0.522949	-1.122070	-0.091309	89.763173	29.542041	131.872847
16227		-2.511809	13.669109	0.268994	-0.869765	-1.365410	3.743660	-0.555664	-1.098633	-0.114258	88.853523	27.384086	131.008268
16228		-2.786130	14.221723	0.338773	-0.849683	-1.391011	3.796315	-0.588867	-1.089355	-0.119385	87.999806	25.178337	130.179805
16229		-3.021169	14.636807	0.493296	-0.804760	-1.431230	3.860840	-0.623779	-1.065430	-0.132324	87.213385	22.930111	129.379805
16230		-3.385446	15.111587	0.704894	-0.733642	-1.470825	3.933336	-0.670410	-1.037354	-0.126709	86.503915	20.623796	128.600590
16231		-3.700629	15.437166	0.892252	-0.651437	-1.502367	3.995686	-0.700439	-1.007568	-0.134277	85.880576	18.278427	127.847244
16232		-4.047137	15.852973	1.172443	-0.548998	-1.532212	4.058730	-0.722412	-0.992188	-0.141113	85.350001	15.882530	127.111814
16233		-4.440929	16.293011	1.446729	-0.440730	-1.555626	4.136419	-0.756104	-0.965088	-0.146240	84.917631	13.441507	126.398104
16234		-4.677998	16.692122	1.731876	-0.331784	-1.585772	4.244105	-0.799805	-0.939697	-0.151367	84.579092	10.926664	125.694785
16235		-5.255578	16.887143	1.776073	-0.233820	-1.616554	4.359979	-0.833252	-0.902832	-0.156006	84.329840	8.346761	125.001158
16236		-5.453071	16.794141	1.984364	-0.148841	-1.654304	4.450662	-0.879883	-0.877686	-0.155762	84.159221	5.704371	124.303462
16237		-5.838534	16.714280	1.992723	-0.092631	-1.649698	4.476387	-0.910645	-0.834229	-0.155029	84.054928	3.052074	123.621247
16238		-6.147556	16.682542	1.977006	-0.094191	-1.621853	4.441270	-0.936768	-0.781250	-0.150635	83.980857	0.414475	122.956997
16239		-6.559659	16.669156	1.821517	-0.145053	-1.543940	4.369357	-0.963623	-0.748779	-0.155518	83.908116	-2.172363	122.338009
16240		-7.019314	16.261595	1.704501	-0.216212	-1.448885	4.286259	-0.988770	-0.699219	-0.139648	83.818350	-4.712488	121.769345
16241		-7.255459	15.348451	1.695225	-0.286751	-1.313066	4.178283	-1.014893	-0.651855	-0.132080	83.706067	-7.178069	121.275594
16242		-7.817195	14.007677	1.622987	-0.323132	-1.145441	4.032012	-1.022705	-0.599365	-0.133789	83.579867	-9.555840	120.870229
16243		-8.355007	12.110014	1.564032	-0.276503	-0.973002	3.847254	-1.029297	-0.562744	-0.127197	83.480598	-11.812967	120.555883
16244		-8.548452	10.387824	1.689694	-0.181715	-0.763251	3.604368	-1.025391	-0.522949	-0.114990	83.422877	-13.923078	120.347320
16245		-8.771369	9.306906	1.589262	-0.184521	-0.505275	3.304405	-1.037842	-0.477783	-0.123535	83.337340	-15.841153	120.272146
16246		-9.846859	9.285549	1.237687	-0.416040	-0.270453	3.002574	-1.035156	-0.438965	-0.128906	83.085250	-17.575706	120.319479
16247		-11.278534	8.362317	0.911146	-0.786562	-0.058306	2.699770	-1.032471	-0.414307	-0.120117	82.583538	-19.118714	120.484351
16248		-12.927367	6.530228	0.296027	-1.104176	0.089666	2.325640	-1.018799	-0.386963	-0.116455	81.869038	-20.439272	120.725888
16249		-14.091760	3.453004	-0.082991	-1.165066	0.100246	1.874374	-1.023926	-0.356201	-0.111816	81.120961	-21.497046	120.953372
16250		-14.860790	0.707897	-0.443526	-0.824188	0.048984	1.362392	-1.018799	-0.336914	-0.120361	80.589168	-22.269754	121.113139
16251		-14.510982	-0.235476	-0.313005	-0.232710	-0.061653	0.791762	-1.008545	-0.322021	-0.119873	80.441490	-22.727221	121.152939
16252		-13.433738	1.125538	0.142856	0.317997	-0.164045	0.222293	-1.002930	-0.313721	-0.123779	80.655338	-22.874008	121.071474
16253		-12.076040	3.774728	0.709944	0.657720	-0.264331	-0.265333	-1.010742	-0.311768	-0.124756	81.107436	-22.752087	120.879674
16254		-10.681731	6.329628	1.208187	0.730788	-0.358181	-0.581096	-1.001709	-0.312988	-0.133301	81.632914	-22.458636	120.602318
16255		-9.336011	7.509575	1.601099	0.623920	-0.481578	-0.776662	-1.004639	-0.312256	-0.135742	82.130138	-22.061191	120.235761
16256		-8.282692	7.895210	1.736302	0.480716	-0.622253	-0.945709	-1.007324	-0.314697	-0.136719	82.577343	-21.575774	119.774137
16257		2.456591	8.755615	3.470146	0.710057	-0.672260	-1.850878	-1.006348	-0.323730	-0.149902	83.184300	-20.575273	119.220138
16258		3.319977	6.811411	-1.754745	1.343853	-0.325808	-2.817654	-1.012695	-0.340820	-0.156006	84.086699	-18.995300	118.829489
16259		3.711141	10.994746	-1.107251	1.117883	-1.046276	-2.584861	-1.014648	-0.354004	-0.160156	84.973156	-17.582128	118.048724
16260		1.365633	9.194141	-1.534203	0.187755	-1.299753	-3.100617	-1.021729	-0.374023	-0.162354	85.350100	-15.878441	117.114004
16261		-0.017694	9.770895	-1.319661	-0.416258	-1.445976	-3.556783	-1.023926	-0.388428	-0.170898	85.376936	-13.918060	116.085492
16262		0.123996	13.382036	-3.224539	-0.611338	-1.294196	-3.670927	-1.024658	-0.404297	-0.165039	85.236489	-11.886084	115.147394
16263		1.241002	15.516085	-5.323827	-0.745066	-1.000439	-3.389235	-1.036621	-0.417969	-0.168213	84.953677	-10.004231	114.393095
16264		2.128139	12.581958	-6.788022	-0.701268	-0.438401	-3.206363	-1.031494	-0.441895	-0.185791	84.619888	-8.201075	113.967358
16265		2.116660	11.484884	-4.509880	-0.494535	0.390733	-3.426183	-1.027344	-0.455811	-0.193848	84.333540	-6.229558	113.998066
16266		-2.767507	19.790749	2.385093	-0.631533	0.918559	-3.420510	-1.025391	-0.484863	-0.213135	83.943439	-4.229850	114.319484
16267		-4.902603	15.557508	5.708697	-0.596400	0.551982	-2.863222	-1.005371	-0.506592	-0.228271	83.594689	-2.568727	114.452679
16268		-3.758438	13.831543	4.910368	-0.319518	0.081557	-2.397471	-1.003174	-0.511963	-0.240723	83.416248	-1.201933	114.340502
16269		-1.527859	12.633329	1.663861	-0.183743	-0.089684	-2.109652	-1.005127	-0.524170	-0.243652	83.313907	-0.011263	114.146447
16270		-0.512868	12.747191	0.138172	-0.087952	0.076285	-1.845350	-1.003906	-0.534912	-0.250977	83.263593	1.040748	114.063165
16271		-1.384131	12.522269	1.241396	-0.098703	0.222499	-1.555964	-0.998047	-0.549072	-0.256348	83.208398	1.937012	114.081428
16272		-2.036152	11.502415	2.308627	-0.023357	0.197166	-1.303759	-0.991699	-0.556885	-0.262207	83.196719	2.689010	114.102099
16273		-1.890018	11.601264	1.897505	0.156290	0.126254	-1.034382	-0.991455	-0.561768	-0.265137	83.287087	3.282016	114.100854
16274		-1.536701	11.746851	0.926156	0.222511	0.104124	-0.749578	-0.986816	-0.567871	-0.263428	83.415790	3.712486	114.107297
16275		-1.229657	10.988391	0.847398	0.173510	0.100033	-0.561113	-0.995850	-0.570801	-0.265381	83.517241	4.034380	114.124345
16276		-0.989047	10.294226	0.940562	0.143435	0.083723	-0.460005	-0.992188	-0.580078	-0.270752	83.601357	4.298687	114.139382
16277		-0.920417	10.059867	0.977467	0.133915	0.092779	-0.399996	-0.993164	-0.567871	-0.261719	83.680829	4.528322	114.163536
16278		-1.047770	9.935940	1.098044	0.146144	0.096723	-0.344387	-0.987549	-0.575928	-0.273926	83.767876	4.727564	114.194039
16279		-1.062031	9.838912	1.187638	0.180541	0.090769	-0.302145	-0.979248	-0.584473	-0.280762	83.874705	4.901260	114.223839
16280		-0.927484	9.743913	0.988274	0.200840	0.081943	-0.269967	-0.982178	-0.585693	-0.276611	83.992996	5.057109	114.251156
16281		-0.876986	9.945434	0.867502	0.171660	0.092034	-0.262093	-0.991943	-0.586426	-0.273193	84.095242	5.207939	114.284763
16282		-1.042738	10.053530	0.846002	0.117832	0.097128	-0.235452	-0.984375	-0.582031	-0.279541	84.167157	5.344913	114.323351
16283		-0.892343	9.670042	0.955235	0.088129	0.110544	-0.216474	-0.986328	-0.597900	-0.281738	84.222991	5.470723	114.370625
16284		-0.893691	9.453471	1.024313	0.088750	0.130975	-0.217974	-0.989502	-0.590820	-0.270508	84.280421	5.599597	114.429911
16285		-0.968962	9.674688	0.925428	0.089038	0.161508	-0.213263	-0.989014	-0.590820	-0.284180	84.339913	5.726376	114.506841
16286		-0.968804	9.481109	1.063800	0.090713	0.175906	-0.220209	-0.980225	-0.591797	-0.287842	84.401349	5.858926	114.592043
16287		-1.132322	9.450708	1.123800	0.121521	0.170442	-0.235530	-0.981934	-0.589355	-0.294434	84.480241	5.998726	114.673179
16288		-1.050236	9.302843	1.198215	0.178388	0.145013	-0.251722	-0.979248	-0.595459	-0.296387	84.590304	6.147324	114.739354
16289		-1.053573	9.605072	0.956406	0.221685	0.130611	-0.271056	-0.978760	-0.594238	-0.289795	84.724382	6.304959	114.796303
16290		-1.207171	10.311556	1.307052	0.200743	0.120125	-0.246407	-0.979492	-0.602051	-0.290771	84.846111	6.448942	114.849148
16291		-1.203041	10.031362	0.643503	0.149057	0.091157	-0.154244	-0.980957	-0.603027	-0.298828	84.937032	6.537669	114.890112
16292		-1.161804	9.864472	0.805697	0.116256	0.090966	-0.156044	-0.974854	-0.602051	-0.299805	85.009200	6.628444	114.931263
16293		-1.372288	10.385772	0.410977	0.079700	0.064416	-0.100929	-0.978027	-0.607910	-0.300781	85.059052	6.685310	114.959757
16294		-1.311176	10.084079	0.464164	0.033722	0.040319	-0.066977	-0.985352	-0.598633	-0.302002	85.081172	6.722684	114.976380
16295		-1.262447	9.848758	0.662511	0.003306	0.036485	-0.050760	-0.980713	-0.611328	-0.300049	85.085708	6.749516	114.991353
16296		-1.246729	9.762848	0.717306	-0.008709	0.035708	-0.049361	-0.982666	-0.605469	-0.297119	85.083345	6.776610	115.006212
16297		-1.178785	9.752492	0.772353	-0.004247	0.039609	-0.035666	-0.984619	-0.606689	-0.299072	85.083866	6.794978	115.023729
16298		-1.210676	9.834788	0.683824	-0.006581	0.052190	-0.021304	-0.983398	-0.602051	-0.295898	85.084025	6.806868	115.049452
16299		-1.232976	9.745562	0.749015	-0.014042	0.059401	-0.016284	-0.969727	-0.598145	-0.296875	85.080405	6.815145	115.079307
16300		-1.226639	9.747901	0.783112	-0.013339	0.065272	-0.004495	-0.976074	-0.601074	-0.298340	85.077700	6.818087	115.113384
16301		-1.212439	9.698205	0.766350	-0.017657	0.072155	0.002512	-0.976318	-0.607422	-0.301270	85.072992	6.816265	115.151501
16302		-1.221486	9.688289	0.787295	-0.009884	0.082911	0.003849	-0.970215	-0.598633	-0.305908	85.073524	6.815318	115.196133
16303		-1.202678	9.739030	0.761377	-0.010501	0.086837	0.018560	-0.980713	-0.606445	-0.304932	85.074007	6.805058	115.243485
16304		-1.258430	9.754004	0.773829	-0.022470	0.087017	0.014120	-0.975830	-0.597900	-0.300293	85.067663	6.798454	115.290986
16305		-1.249935	9.732791	0.740087	-0.039700	0.075637	0.008883	-0.976318	-0.604004	-0.300293	85.050586	6.793178	115.331420
16306		-1.232841	9.775846	0.772011	-0.052494	0.063177	-0.002465	-0.973633	-0.603516	-0.312744	85.025322	6.794891	115.364394
16307		-1.213286	9.689991	0.831532	-0.055793	0.053435	-0.008424	-0.976074	-0.599609	-0.305176	84.997412	6.798421	115.391202
16308		-1.199259	9.670784	0.834284	-0.058976	0.048923	-0.017143	-0.973389	-0.602295	-0.304932	84.967385	6.807831	115.415242
16309		-1.185592	9.651499	0.837434	-0.062326	0.038205	-0.017309	-0.977051	-0.593506	-0.298584	84.934647	6.815693	115.432842
16310		-1.209254	9.728733	0.842653	-0.070030	0.031667	-0.015658	-0.975342	-0.598633	-0.306152	84.897124	6.823408	115.447030
16311		-1.223511	9.792410	0.759034	-0.080727	0.032790	-0.017252	-0.979248	-0.599365	-0.309326	84.853477	6.830982	115.461511
16312		-1.252155	9.761632	0.828767	-0.097882	0.025641	-0.019505	-0.972168	-0.602051	-0.312988	84.799568	6.840605	115.472026
16313		-1.206748	9.704925	0.831760	-0.106842	0.021381	-0.011910	-0.975586	-0.595459	-0.312256	84.740213	6.844561	115.480218
16314		-1.220797	9.791802	0.822035	-0.128934	0.022703	-0.007096	-0.973145	-0.589844	-0.313232	84.668394	6.846973	115.489688
16315		-1.177698	9.688600	0.920987	-0.146638	0.021948	-0.002596	-0.971436	-0.598877	-0.314453	84.586336	6.845668	115.498699
16316		-1.175941	9.550596	1.013261	-0.122526	0.030431	0.002975	-0.972412	-0.598877	-0.311768	84.518785	6.842781	115.513156
16317		-1.167257	9.559676	1.002019	-0.076407	0.031267	-0.000833	-0.973389	-0.590088	-0.310547	84.477616	6.841002	115.527621
16318		-1.183746	9.577593	1.009340	-0.035961	0.031127	-0.008732	-0.972168	-0.586670	-0.311035	84.459628	6.844850	115.541830
16319		-1.167447	9.597423	0.970305	-0.006355	0.024777	-0.017015	-0.980957	-0.590576	-0.315674	84.458045	6.851950	115.551666
16320		-1.236286	9.746498	0.869325	-0.002695	0.010589	-0.033732	-0.962891	-0.599365	-0.312012	84.457542	6.868921	115.552684
16321		-1.255653	9.764472	0.872633	-0.019220	0.001233	-0.039789	-0.973145	-0.595459	-0.317139	84.446821	6.887706	115.547725
16322		-1.226199	9.765417	0.832327	-0.036319	-0.004373	-0.044231	-0.973145	-0.595215	-0.310791	84.425954	6.909837	115.539555
16323		-1.234488	9.687060	0.912607	-0.033881	-0.008841	-0.043062	-0.968262	-0.592773	-0.318359	84.406109	6.929923	115.528614
16324		-1.222371	9.698495	0.929118	-0.030682	-0.008157	-0.046848	-0.970215	-0.595215	-0.318604	84.388188	6.953330	115.518108
16325		-1.211068	9.679184	0.929433	-0.022424	-0.004813	-0.046420	-0.970459	-0.586426	-0.313965	84.375155	6.975551	115.509278
16326		-1.207212	9.657876	0.894768	-0.004613	0.004393	-0.044803	-0.973877	-0.597168	-0.313477	84.373054	6.998493	115.506087
16327		-1.213065	9.649284	0.948932	-0.000184	0.003911	-0.047235	-0.971191	-0.600830	-0.312500	84.373361	7.021667	115.502218
16328		-1.180714	9.575261	1.014628	0.032678	0.005212	-0.051035	-0.966309	-0.593262	-0.309814	84.392640	7.048209	115.499147
16329		-1.257118	9.616014	0.969988	0.063727	0.011436	-0.054574	-0.977539	-0.596436	-0.309082	84.430045	7.075990	115.499205
16330		-1.212877	9.630187	0.932929	0.085210	0.009671	-0.060842	-0.970703	-0.590576	-0.306885	84.479668	7.108376	115.498180
16331		-1.243562	9.638653	0.946210	0.107303	0.008924	-0.062011	-0.971436	-0.593018	-0.305420	84.541816	7.140262	115.496431
16332		-1.296620	9.671254	0.872030	0.128779	0.005010	-0.069835	-0.970703	-0.595215	-0.320557	84.616013	7.177527	115.492303
16333		-1.263552	9.698639	0.919311	0.134545	0.006406	-0.075229	-0.971436	-0.586914	-0.315918	84.693507	7.216823	115.488476
16334		-1.294845	9.684117	0.858607	0.149739	0.006314	-0.078248	-0.971680	-0.598389	-0.315186	84.779759	7.258970	115.484751
16335		-1.316899	9.741277	0.807264	0.156103	0.003916	-0.085276	-0.974121	-0.600586	-0.317383	84.869367	7.303881	115.479085
16336		-1.318340	9.712881	0.811109	0.139114	0.003965	-0.088827	-0.978271	-0.605957	-0.315186	84.949303	7.351962	115.473591
16337		-1.277303	9.726957	0.767936	0.133491	0.004962	-0.091472	-0.972656	-0.601807	-0.312256	85.025999	7.400478	115.468342
16338		-1.280857	9.660081	0.812050	0.132954	0.010199	-0.092065	-0.971924	-0.603271	-0.320801	85.102860	7.450730	115.466403
16339		-1.282459	9.662662	0.832154	0.143163	0.015893	-0.093216	-0.968506	-0.599365	-0.309814	85.185914	7.500786	115.467495
16340		-1.315696	9.678231	0.786096	0.153385	0.011887	-0.107802	-0.976074	-0.609375	-0.320313	85.274524	7.560109	115.465914
16341		-1.311071	9.690651	0.782985	0.179440	0.003441	-0.130674	-0.975586	-0.606689	-0.313477	85.377205	7.630971	115.458229
16342		-1.346767	9.743828	0.693766	0.202447	0.003140	-0.153197	-0.971191	-0.609619	-0.302979	85.492998	7.715828	115.449726
16343		-1.353227	9.821921	0.628538	0.220427	-0.013367	-0.192722	-0.974121	-0.610107	-0.309326	85.617492	7.821417	115.429854
16344		-1.390402	9.776427	0.578044	0.244828	-0.028113	-0.236259	-0.966797	-0.615723	-0.304688	85.754623	7.952420	115.400077
16345		-1.392201	9.790352	0.599089	0.286455	-0.039159	-0.286596	-0.965332	-0.612061	-0.312988	85.914298	8.110674	115.361880
16346		-1.389249	9.789075	0.526429	0.331961	-0.059417	-0.343359	-0.965088	-0.622314	-0.311523	86.098100	8.301806	115.310420
16347		-1.596106	9.732076	0.482001	0.394632	-0.082191	-0.398417	-0.969971	-0.629395	-0.303223	86.315387	8.522600	115.244074
16348		-1.237239	10.097709	0.348420	0.464486	-0.123244	-0.464036	-0.970459	-0.632080	-0.306885	86.568736	8.780859	115.152759
16349		-0.887148	10.654343	0.042564	0.428631	0.024930	-0.690767	-0.962891	-0.639648	-0.306396	86.813289	9.172967	115.140450
16350		-0.996585	10.786590	0.479003	0.494517	0.085859	-0.990141	-0.965332	-0.656982	-0.300537	87.100218	9.739360	115.156336
16351		-1.349482	10.745349	0.605806	0.452246	0.168718	-1.261826	-0.958740	-0.671631	-0.296631	87.370570	10.462350	115.215324
16352		-1.191435	11.423681	0.770762	0.414513	0.197371	-1.529886	-0.948730	-0.676758	-0.294922	87.622785	11.340269	115.287946
16353		-1.509238	11.352922	0.650644	0.367382	0.197861	-1.810542	-0.938965	-0.689697	-0.297852	87.848586	12.377531	115.358091
16354		-1.695798	11.331273	0.509102	0.362194	0.154626	-2.071103	-0.929443	-0.702393	-0.290283	88.066937	13.563805	115.402035
16355		-1.796378	11.385317	0.421283	0.366557	0.101393	-2.303600	-0.926758	-0.731689	-0.296387	88.280979	14.881108	115.414760
16356		-1.984944	11.254697	0.339685	0.370006	0.049687	-2.514151	-0.908691	-0.742920	-0.287354	88.489578	16.319012	115.398562
16357		-2.182273	10.730420	0.503854	0.366935	-0.004005	-2.745641	-0.896973	-0.765869	-0.287354	88.686943	17.887897	115.351742
16358		-2.213238	10.570203	0.680144	0.380518	-0.057381	-2.997693	-0.883789	-0.790527	-0.277344	88.881194	19.601482	115.274838
16359		-2.342671	10.514367	0.707418	0.447079	-0.128208	-3.170760	-0.868408	-0.809082	-0.269775	89.097404	21.412924	115.158237
16360		-2.694189	9.978712	0.829603	0.468539	-0.145772	-3.397137	-0.844238	-0.830811	-0.264648	89.319831	23.355043	115.034986
16361		-3.155228	10.295139	0.877488	0.486587	-0.166666	-3.670558	-0.830566	-0.855713	-0.262451	89.545056	25.453406	114.903139
16362		-3.443720	9.984438	1.128105	0.494175	-0.155141	-3.929054	-0.814453	-0.882568	-0.260498	89.776102	27.700995	114.784767
16363		-3.972531	10.435858	1.160566	0.454724	-0.088005	-4.205566	-0.792725	-0.907471	-0.248535	90.005090	30.106873	114.717597
16364		-5.028800	11.027626	1.015790	0.430356	-0.031234	-4.359439	-0.765869	-0.921631	-0.241211	90.242578	32.601573	114.698576
16365		-6.904271	12.419037	0.643733	0.425278	0.114174	-4.423980	-0.735107	-0.941406	-0.238281	90.540140	35.132222	114.793608
16366		-8.519663	15.096757	0.805671	0.342317	0.248633	-4.309953	-0.707520	-0.961914	-0.229980	90.861342	37.596555	115.003209
16367		-8.298182	15.656959	1.440478	0.049937	0.418705	-4.101624	-0.678711	-0.981445	-0.226318	91.112928	39.938581	115.357811
16368		-6.317357	15.480565	1.389338	-0.404328	0.563175	-3.894019	-0.654297	-0.991699	-0.225098	91.198610	42.159413	115.839949
16369		-6.228011	11.279252	0.435175	-0.565447	0.748048	-3.777516	-0.623535	-1.004395	-0.218994	91.319486	44.310316	116.488026
16370		-5.558507	11.533139	0.390103	-0.549840	0.873637	-3.770890	-0.583984	-1.003418	-0.206055	91.563182	46.454025	117.271916
16371		-4.932652	11.747650	0.550590	-0.600509	0.997041	-3.708734	-0.572021	-1.016357	-0.205078	91.909328	48.557237	118.206685
16372		-4.429162	12.432282	0.737563	-0.735927	1.129966	-3.690138	-0.531982	-1.020752	-0.197510	92.335615	50.642269	119.319071
16373		-3.626259	13.008767	0.761723	-0.982667	1.346635	-3.653582	-0.500000	-1.024414	-0.196045	92.863512	52.695144	120.708491
16374		-4.145115	9.697344	0.548889	-1.238644	1.541245	-3.486440	-0.473877	-1.009277	-0.209229	93.498016	54.636469	122.375990
16375		-2.864209	6.504710	0.675743	-1.408296	1.577983	-3.134034	-0.443115	-1.016602	-0.202148	94.173612	56.364446	124.173618
16376		-0.646566	6.547348	0.500907	-1.451842	1.524953	-2.594682	-0.417969	-1.009766	-0.200928	94.860789	57.773251	125.982414
16377		9.015106	10.859071	-0.726797	-1.426411	1.645899	-1.744906	-0.416992	-0.994629	-0.204834	95.702464	58.678809	127.932706
16378		-0.602599	14.532906	-0.293814	-1.499382	2.025869	-0.598156	-0.406250	-0.990723	-0.215820	96.801459	58.888037	130.221276
16379		-1.116817	15.287573	0.084692	-1.660820	1.863670	0.609775	-0.411865	-0.975098	-0.211426	97.511373	58.405176	132.165809
16380		1.756198	9.347060	0.330350	-1.496976	1.863212	1.242143	-0.412842	-0.962158	-0.222168	98.181252	57.548513	133.966572
16381		1.358375	5.969487	0.311239	-1.197567	1.688526	1.589127	-0.421631	-0.947754	-0.220459	98.757662	56.502349	135.470468
16382		0.687830	5.296318	0.623404	-0.892354	1.417102	1.768545	-0.437012	-0.930908	-0.215576	99.190788	55.368560	136.609630
16383		0.293210	5.690152	1.025740	-0.659015	1.152980	1.821127	-0.447021	-0.914795	-0.208740	99.491895	54.228756	137.439101
16384		0.060831	6.036245	1.271986	-0.504389	0.889329	1.860558	-0.473389	-0.897217	-0.215088	99.637365	53.086430	137.977789
16385		0.019869	6.652186	1.477143	-0.395589	0.612102	1.978476	-0.493896	-0.869629	-0.210938	99.609566	51.907229	138.227334
16386		-0.120012	7.394774	1.548703	-0.345792	0.330729	2.172397	-0.519287	-0.857910	-0.203125	99.380992	50.641531	138.187808
16387		-0.406489	7.988211	1.530703	-0.353231	0.061136	2.390233	-0.548828	-0.821045	-0.196045	98.955788	49.280966	137.895652
16388		-0.567697	8.518438	1.351078	-0.419641	-0.180004	2.573031	-0.568115	-0.786865	-0.184814	98.341773	47.831693	137.396996
16389		-0.731371	8.798354	1.085321	-0.521277	-0.388289	2.743215	-0.583740	-0.742188	-0.171631	97.568709	46.302778	136.747931
16390		-0.801148	8.924323	0.850175	-0.605850	-0.555189	2.889181	-0.598633	-0.697021	-0.156250	96.685009	44.691735	135.995500
16391		-0.817079	9.069964	0.579713	-0.679406	-0.685260	3.008187	-0.603760	-0.645752	-0.131104	95.738349	43.017548	135.189852
16392		-0.990791	9.476233	0.350088	-0.756323	-0.778511	3.101059	-0.601563	-0.588623	-0.100342	94.750263	41.280432	134.363208
16393		-1.091089	9.965125	0.138760	-0.827198	-0.847010	3.191749	-0.580566	-0.531738	-0.076416	93.746756	39.489306	133.544696
16394		-1.404548	10.266992	-0.066391	-0.853432	-0.899494	3.296220	-0.554932	-0.509766	-0.046875	92.757333	37.623818	132.741879
16395		-1.718171	10.446483	-0.295484	-0.829901	-0.944856	3.403512	-0.515869	-0.487061	-0.014404	91.819158	35.693419	131.965654
16396		-1.891130	10.760664	-0.547850	-0.762671	-0.977388	3.489883	-0.483887	-0.476563	0.010498	90.956917	33.698281	131.218637
16397		-2.135254	11.117534	-0.667517	-0.691491	-0.968860	3.561618	-0.449951	-0.488525	0.042236	90.189893	31.659671	130.530388
16398		-2.329968	11.638229	-0.671557	-0.622563	-0.958281	3.607168	-0.431152	-0.506348	0.054443	89.508085	29.581270	129.892079
16399		-2.649070	12.262081	-0.600760	-0.592657	-0.923349	3.644762	-0.402100	-0.527832	0.067139	88.895517	27.482114	129.318855
16400		-2.900329	12.736945	-0.412153	-0.564955	-0.900316	3.679742	-0.406982	-0.548340	0.078125	88.338271	25.351346	128.793712
16401		-3.143821	13.018954	-0.195748	-0.528838	-0.903835	3.706193	-0.396973	-0.572510	0.082520	87.832967	23.207978	128.299747
16402		-3.362882	13.334922	0.025548	-0.463028	-0.929331	3.734006	-0.399902	-0.600830	0.084473	87.385647	21.037310	127.816039
16403		-3.608045	13.667834	0.369378	-0.365751	-0.968386	3.766575	-0.419434	-0.621582	0.092773	87.012787	18.850868	127.334870
16404		-3.864611	13.983790	0.715917	-0.253737	-1.020270	3.806136	-0.424805	-0.634521	0.093506	86.717338	16.630328	126.841795
16405		-4.095441	14.369804	1.076145	-0.147920	-1.083096	3.849527	-0.450439	-0.643799	0.086182	86.496770	14.387991	126.330703
16406		-4.323674	14.687216	1.445470	-0.056280	-1.146422	3.885042	-0.466064	-0.651611	0.094727	86.341877	12.114205	125.794819
16407		-4.586804	14.946520	1.842922	0.040923	-1.219236	3.924244	-0.482422	-0.660645	0.092041	86.258528	9.821504	125.228944
16408		-4.941155	15.171693	2.152254	0.119200	-1.302644	3.976231	-0.504395	-0.658936	0.094727	86.235575	7.488250	124.621430
16409		-5.249507	15.274026	2.329980	0.158788	-1.396025	4.014255	-0.522949	-0.664063	0.096680	86.255417	5.136918	123.966420
16410		-5.546079	15.304528	2.466917	0.155064	-1.485794	4.032061	-0.545410	-0.655762	0.104248	86.295744	2.765445	123.260469
16411		-5.858511	14.955052	2.489325	0.114337	-1.571694	4.013931	-0.567383	-0.659668	0.104980	86.341240	0.408658	122.505699
16412		-6.113122	14.514261	2.455558	0.065928	-1.649166	3.958756	-0.589600	-0.651611	0.109375	86.389737	-1.925357	121.701708
16413		-6.355995	13.928964	2.330768	0.041106	-1.684427	3.836638	-0.620850	-0.645264	0.130615	86.458455	-4.183400	120.870903
16414		-6.687476	13.345021	2.181313	0.022248	-1.693939	3.681031	-0.631348	-0.634033	0.125732	86.549191	-6.357689	120.022621
16415		-6.939447	12.795716	1.975134	-0.001582	-1.677755	3.487594	-0.650146	-0.617188	0.138672	86.658684	-8.413252	119.170807
16416		-7.193536	12.013526	1.695818	-0.039785	-1.601642	3.283267	-0.661377	-0.608887	0.148438	86.770272	-10.353217	118.347015
16417		-7.591027	11.044439	1.430711	-0.083234	-1.487939	3.059346	-0.679688	-0.603516	0.164795	86.874233	-12.154516	117.574563
16418		-7.733039	9.984964	1.381968	-0.131256	-1.334881	2.799891	-0.692627	-0.592773	0.162598	86.956256	-13.806091	116.875021
16419		-8.335549	9.141969	1.182513	-0.190000	-1.133031	2.511674	-0.701416	-0.586182	0.172852	86.997708	-15.281243	116.279994
16420		-8.676200	8.490031	1.161912	-0.242657	-0.928127	2.232872	-0.709717	-0.572021	0.179199	86.992466	-16.594397	115.793189
16421		-9.034561	7.676197	1.034258	-0.305845	-0.722316	1.967123	-0.708984	-0.559082	0.182861	86.928450	-17.745662	115.419434
16422		-9.324260	7.025830	0.807839	-0.396602	-0.551259	1.677409	-0.717285	-0.562012	0.190430	86.789200	-18.729431	115.138701
16423		-9.851145	6.442835	0.517458	-0.543791	-0.394956	1.353998	-0.724365	-0.555176	0.190186	86.542444	-19.520905	114.943568
16424		-10.283177	5.376179	0.189231	-0.626367	-0.267734	0.978172	-0.723633	-0.547363	0.184814	86.227484	-20.095842	114.814459
16425		-10.191060	4.524708	0.062322	-0.594889	-0.160986	0.560976	-0.725342	-0.544189	0.187988	85.914665	-20.426700	114.736077
16426		-9.870308	4.404186	0.114455	-0.467195	-0.063204	0.151056	-0.722900	-0.540771	0.186279	85.659653	-20.520710	114.700563
16427		-9.198942	5.052411	0.254230	-0.321352	0.031212	-0.210165	-0.726318	-0.544189	0.192627	85.474543	-20.403182	114.705925
16428		-8.391579	6.021194	0.550881	-0.234383	0.134988	-0.483651	-0.718750	-0.538086	0.181396	85.321549	-20.124939	114.760835
16429		-7.502118	6.835018	0.753953	-0.228196	0.234188	-0.701219	-0.721924	-0.549316	0.184814	85.156570	-19.717349	114.863896
16430		-13.283711	2.089966	0.398708	0.785289	0.142194	-2.239889	-0.712158	-0.551025	0.180420	85.615608	-18.434971	114.837179
16431		3.893008	1.585712	-1.854012	1.782359	-0.022413	-2.864750	-0.709961	-0.564209	0.172607	86.678003	-16.802058	114.704300
16432		1.833720	16.991891	-0.246959	0.962978	-0.370935	-2.782936	-0.694092	-0.586182	0.175049	87.316043	-15.223741	114.393161
16433		2.237500	10.902340	-1.147838	-0.166600	-0.780435	-3.005722	-0.683105	-0.600098	0.187744	87.357400	-13.528014	113.845726
16434		-0.590874	11.446492	0.223278	-0.921896	-1.073077	-3.350241	-0.679688	-0.615234	0.179443	86.988647	-11.643822	113.116137
16435		-1.316117	12.255747	-0.593769	-1.485731	-1.268052	-3.474918	-0.666504	-0.625488	0.183350	86.297530	-9.702624	112.255852
16436		0.090720	12.383444	-2.686404	-1.451022	-1.145649	-3.226978	-0.662842	-0.636719	0.175781	85.588798	-7.907284	111.457678
16437		1.842586	11.123392	-5.073351	-1.056618	-0.675363	-2.989116	-0.652832	-0.641357	0.162842	85.049854	-6.235855	110.924744
16438		2.279954	10.180124	-5.648768	-0.586976	0.019907	-3.051332	-0.640137	-0.655029	0.156738	84.728270	-4.496046	110.776509
16439		0.105047	15.048882	-2.709804	-0.695427	0.663322	-3.203978	-0.630127	-0.675293	0.158691	84.318224	-2.636384	110.976574
16440		-2.474521	15.111331	2.137486	-1.055830	0.973350	-3.081440	-0.618164	-0.682129	0.143311	83.703463	-0.824916	111.343995
16441		-3.173755	13.086849	6.206407	-0.605169	0.897769	-2.783038	-0.598877	-0.691162	0.137939	83.357554	0.813422	111.672067
16442		-4.766707	14.927245	5.956304	-0.233001	0.766418	-2.457157	-0.598145	-0.699707	0.131836	83.232372	2.260510	111.940852
16443		-3.118644	13.165961	3.319381	0.140086	0.511300	-1.993639	-0.586426	-0.693359	0.130127	83.321164	3.425177	112.094908
16444		-2.778733	12.651208	2.152597	0.376365	0.441745	-1.574267	-0.580078	-0.704102	0.131104	83.547538	4.348085	112.240523
16445		-2.745087	11.417188	2.008879	0.612191	0.332584	-1.186831	-0.580322	-0.718506	0.125732	83.908363	5.040817	112.352653
16446		-2.011801	11.977268	0.952165	0.761471	0.245848	-0.853503	-0.569580	-0.715332	0.132080	84.353512	5.539772	112.440086
16447		-1.881807	12.691448	-0.564529	0.520963	0.225504	-0.491473	-0.565918	-0.712646	0.134766	84.662665	5.828464	112.538806
16448		-1.769656	12.091161	0.566674	0.244996	0.181217	-0.292589	-0.562256	-0.719971	0.134033	84.812722	6.003117	112.624199
16449		-1.413038	10.559363	0.252509	0.101631	0.115287	-0.132991	-0.566650	-0.720947	0.131592	84.877711	6.080989	112.680001
16450		-1.338532	10.429450	0.304522	-0.009149	0.103463	-0.091772	-0.563232	-0.722656	0.127441	84.878896	6.136890	112.731565
16451		-1.178089	9.872432	0.681206	-0.064162	0.075728	-0.066191	-0.564453	-0.722168	0.124023	84.846941	6.174596	112.768144
16452		-1.186435	9.679642	0.881780	-0.078589	0.065307	-0.046586	-0.568115	-0.723145	0.124756	84.806339	6.202800	112.800121
16453		-1.107181	9.832235	0.764769	-0.069003	0.064910	-0.037099	-0.570068	-0.716309	0.125488	84.771135	6.223390	112.831969
16454		-1.044573	9.467692	0.995048	-0.058815	0.062857	-0.027709	-0.579102	-0.719971	0.123291	84.741846	6.240739	112.863504
16455		-1.139202	9.808203	0.783713	-0.060072	0.065579	-0.031181	-0.566650	-0.718262	0.129150	84.711853	6.258022	112.896029
16456		-1.159127	9.794939	0.776993	-0.072747	0.054274	-0.021971	-0.558594	-0.726318	0.128418	84.674096	6.271678	112.922927
16457		-1.154976	9.727048	0.841337	-0.095552	0.053388	-0.029174	-0.568848	-0.711426	0.130615	84.623035	6.287208	112.948542
16458		-1.158596	9.725818	0.850527	-0.104622	0.040917	-0.037074	-0.555420	-0.716309	0.124268	84.566108	6.308808	112.966936
16459		-1.160982	9.793905	0.837096	-0.106608	0.034155	-0.038686	-0.564453	-0.714111	0.129395	84.507455	6.328764	112.980964
16460		-1.165445	9.761783	0.831551	-0.103868	0.039323	-0.024097	-0.556396	-0.726074	0.123779	84.450955	6.342916	112.999126
16461		-1.184861	9.701864	0.921017	-0.101781	0.051852	-0.021574	-0.564697	-0.713623	0.130615	84.396299	6.354127	113.024227
16462		-1.106606	9.670252	0.945686	-0.070323	0.043752	-0.021887	-0.566650	-0.714355	0.120605	84.359328	6.367304	113.045034
16463		-1.119902	9.551130	1.032699	-0.038296	0.038161	-0.032340	-0.562500	-0.710205	0.125732	84.340116	6.383913	113.061656
16464		-1.098232	9.573149	1.025787	0.006602	0.042046	-0.027208	-0.566895	-0.713379	0.122803	84.347085	6.400040	113.081174
16465		-1.117448	9.599385	0.971682	0.042726	0.053180	-0.025559	-0.563477	-0.718262	0.125732	84.375309	6.413626	113.106802
16466		-1.174150	9.760733	0.879686	0.056667	0.057036	-0.024897	-0.564209	-0.716797	0.125732	84.411948	6.429257	113.135063
16467		-1.184971	9.797197	0.802327	0.040902	0.056549	-0.023135	-0.568848	-0.719727	0.121582	84.439374	6.441619	113.162777
16468		-1.219079	9.872569	0.765883	0.016057	0.043070	-0.032961	-0.566895	-0.715576	0.129395	84.451822	6.461053	113.182587
16469		-1.232098	9.784825	0.862945	-0.008837	0.021187	-0.035812	-0.567139	-0.725098	0.126221	84.448400	6.478673	113.189306
16470		-1.195805	9.796123	0.799356	-0.019056	0.015768	-0.044109	-0.565430	-0.726563	0.124023	84.438915	6.502957	113.192825
16471		-1.168812	9.712189	0.888434	-0.024209	0.006215	-0.043417	-0.567383	-0.719482	0.128174	84.425668	6.524084	113.190521
16472		-1.149655	9.664536	0.905916	-0.026041	0.011177	-0.043103	-0.569580	-0.713623	0.121094	84.411898	6.547542	113.191452
16473		-1.193723	9.690482	0.934169	-0.019740	0.009997	-0.042844	-0.566406	-0.715820	0.121582	84.401460	6.568553	113.191340
16474		-1.173863	9.681571	0.912386	-0.015961	0.008034	-0.040986	-0.570801	-0.720947	0.125732	84.393275	6.590631	113.190578
16475		-1.193096	9.730105	0.932417	-0.021746	0.001128	-0.045995	-0.560547	-0.717773	0.130859	84.381080	6.612941	113.185190
16476		-1.150472	9.635590	0.964588	-0.017422	-0.008330	-0.045204	-0.561768	-0.718262	0.124023	84.370947	6.636506	113.174787
16477		-1.202137	9.736576	0.881598	-0.006660	-0.005703	-0.044357	-0.561279	-0.729004	0.131592	84.366948	6.657497	113.165563
16478		-1.182843	9.689112	0.897374	-0.005431	-0.009019	-0.044576	-0.564941	-0.719238	0.125977	84.363636	6.680664	113.154793
16479		-1.202937	9.706866	0.900962	-0.009210	-0.008641	-0.044313	-0.561523	-0.708008	0.119385	84.357973	6.701463	113.143882
16480		-1.199424	9.677714	0.920026	-0.013603	-0.006608	-0.043943	-0.562500	-0.720215	0.128662	84.350139	6.724405	113.134526
16481		-1.187754	9.658696	0.918958	-0.020517	-0.003800	-0.044104	-0.559814	-0.716064	0.122070	84.338316	6.745354	113.126398
16482		-1.159596	9.613495	0.969273	-0.017906	0.001834	-0.038938	-0.554688	-0.719238	0.122559	84.328615	6.765917	113.122165
16483		-1.178663	9.623405	1.027004	-0.002664	0.008862	-0.033824	-0.556641	-0.716064	0.119629	84.327941	6.781721	113.121887
16484		-1.190751	9.620727	0.992900	0.015596	0.008037	-0.038732	-0.562256	-0.720215	0.120117	84.337851	6.802515	113.121224
16485		-1.194342	9.659143	0.952458	0.022543	0.010490	-0.041293	-0.561035	-0.722656	0.132813	84.351680	6.822669	113.121461
16486		-1.207078	9.617884	0.954978	0.028875	0.009906	-0.037355	-0.562012	-0.722412	0.123047	84.369334	6.842784	113.121956
