// General information: 
//  MT Manager version: 2022.2.0 
//  XDA version: 2022.2.0 build 7381 rev 124627 built on 2023-07-19
// Device information: 
//  DeviceId: 00B4C223
//  ProductCode: MTW2-3A7G6
//  Firmware Version: 4.6.0
//  Hardware Version: 2.0.0
// Device settings: 
//  Filter Profile: human(46.1)
//  Option Flags: Orientation Smoother Disabled, Position/Velocity Smoother Disabled, Continuous Zero Rotation Update Disabled, AHS Disabled, ICC Disabled
// Coordinate system: ENU
PacketCounter	SampleTimeFine	Acc_X	Acc_Y	Acc_Z	Gyr_X	Gyr_Y	Gyr_Z	Mag_X	Mag_Y	Mag_Z	Roll	Pitch	Yaw
46213		-1.997899	-9.559816	1.265082	-0.002919	-0.002347	0.002895	-1.161865	0.784180	0.118896	-82.788239	11.517324	75.496960
46214		-1.992397	-9.523222	1.244523	-0.000423	-0.001325	-0.001826	-1.163330	0.785156	0.109863	-82.786751	11.515820	75.497402
46215		-1.988091	-9.555347	1.217280	-0.000224	0.003414	0.000290	-1.160645	0.787354	0.111084	-82.785385	11.516962	75.495728
46216		-2.026917	-9.556304	1.234002	-0.004379	0.001754	0.001475	-1.159424	0.778320	0.113770	-82.786472	11.517556	75.494626
46217		-2.005582	-9.571885	1.211661	-0.000757	-0.001479	0.001477	-1.158447	0.780273	0.113525	-82.784824	11.519005	75.494803
46218		-2.005081	-9.537532	1.214792	-0.004379	0.001754	0.001475	-1.159180	0.780029	0.116699	-82.785911	11.519599	75.493701
46219		-2.005146	-9.537558	1.214479	-0.001994	-0.000791	-0.000234	-1.160645	0.777588	0.121094	-82.785102	11.520060	75.494672
46220		-2.015598	-9.576445	1.258455	-0.004155	-0.001660	0.001184	-1.164307	0.780273	0.114258	-82.785670	11.520244	75.495529
46221		-2.027502	-9.556354	1.232653	-0.001739	0.000456	0.003244	-1.159668	0.783691	0.115723	-82.784832	11.522694	75.497245
46222		-2.032551	-9.558614	1.256159	-0.004212	0.001832	-0.000176	-1.155029	0.778076	0.117188	-82.785857	11.522355	75.495977
46223		-2.022935	-9.554120	1.208152	-0.003143	0.001067	0.003185	-1.156738	0.783447	0.118896	-82.785869	11.524916	75.496785
46224		-2.011458	-9.574192	1.233426	-0.002161	-0.000868	0.001418	-1.158691	0.780762	0.117188	-82.785383	11.525289	75.497200
46225		-1.989495	-9.555411	1.214483	-0.002385	0.002546	0.001709	-1.162598	0.782959	0.108398	-82.785158	11.527131	75.497941
46226		-2.011148	-9.539826	1.236359	-0.001571	0.000533	0.001593	-1.154297	0.776123	0.117676	-82.784493	11.527705	75.497557
46227		-2.028524	-9.556340	1.231080	-0.002162	-0.000868	0.001418	-1.156006	0.775146	0.112549	-82.783740	11.529077	75.497288
46228		-1.995559	-9.592025	1.234022	-0.007945	0.001497	0.002834	-1.159180	0.787354	0.115479	-82.786821	11.530426	75.496436
46229		-2.011641	-9.539868	1.235229	-0.001404	0.000611	-0.000059	-1.160156	0.783691	0.111572	-82.785822	11.531107	75.495865
46230		-2.023990	-9.554167	1.206017	-0.004212	0.001832	-0.000176	-1.161377	0.787598	0.115234	-82.786847	11.530768	75.494597
46231		-1.995143	-9.557769	1.236278	-0.002975	0.001144	0.001534	-1.158447	0.776611	0.117676	-82.786770	11.532462	75.493874
46232		-2.046341	-9.572977	1.224099	-0.002162	-0.000868	0.001418	-1.152344	0.790039	0.123047	-82.786283	11.532835	75.494290
46233		-1.995428	-9.557774	1.235781	-0.002975	0.001144	0.001534	-1.165283	0.781982	0.112549	-82.786243	11.534502	75.497236
46234		-2.024439	-9.554210	1.204920	-0.001404	0.000611	-0.000059	-1.161621	0.787109	0.118164	-82.785516	11.534142	75.496685
46235		-2.012827	-9.574327	1.230145	-0.004379	0.001755	0.001475	-1.158447	0.779297	0.118652	-82.786336	11.535770	75.496808
46236		-1.990273	-9.521206	1.214367	-0.005137	0.000275	0.002952	-1.163086	0.773682	0.115479	-82.787665	11.537098	75.496673
46237		-2.029878	-9.556523	1.227422	-0.005193	0.003767	0.001592	-1.154541	0.775879	0.110596	-82.789228	11.538756	75.495834
46238		-2.013457	-9.574382	1.228679	-0.003566	-0.000258	0.001359	-1.161133	0.782227	0.110840	-82.789618	11.539140	75.495892
46239		-2.008803	-9.572107	1.204553	-0.002553	0.002468	0.003361	-1.156494	0.784424	0.110107	-82.789443	11.541828	75.492188
46240		-2.030520	-9.556535	1.226265	-0.004970	0.000353	0.001301	-1.163330	0.780029	0.116943	-82.790709	11.542222	75.491887
46241		-2.014144	-9.574382	1.227558	-0.003733	-0.000335	0.003011	-1.162598	0.766846	0.116211	-82.790894	11.544550	75.491900
46242		-2.014366	-9.574377	1.227229	-0.002975	0.001144	0.001534	-1.161865	0.783691	0.114502	-82.791106	11.545134	75.491157
46243		-2.008932	-9.537767	1.206554	-0.001627	0.004025	0.000233	-1.160400	0.780029	0.121826	-82.790681	11.545983	75.489082
46244		-1.993246	-9.589946	1.204539	-0.004491	-0.001815	0.004487	-1.156982	0.787109	0.120850	-82.791375	11.548032	75.490272
46245		-2.031447	-9.556550	1.224611	-0.002050	0.002701	-0.001593	-1.160889	0.785400	0.112305	-82.791051	11.547976	75.492802
46246		-1.997726	-9.557882	1.231225	-0.001739	0.000455	0.003244	-1.157959	0.778320	0.117432	-82.790449	11.549482	75.492585
46247		-2.048381	-9.538693	1.222463	-0.002385	0.002546	0.001710	-1.156006	0.771729	0.116943	-82.790227	11.551257	75.491471
46248		-2.009747	-9.537760	1.205254	-0.001994	-0.000791	-0.000234	-1.162109	0.779297	0.118652	-82.789678	11.550697	75.491721
46249		-2.010488	-9.572132	1.201541	-0.003789	0.003157	0.001651	-1.159668	0.779785	0.112549	-82.790379	11.552311	75.491435
46250		-2.032204	-9.556563	1.223255	-0.003734	-0.000335	0.003011	-1.160400	0.787842	0.110596	-82.790832	11.553628	75.491660
46251		-1.993614	-9.555625	1.206011	-0.001994	-0.000791	-0.000234	-1.168457	0.776611	0.115479	-82.790003	11.554107	75.490580
46252		-2.027654	-9.554282	1.198928	-0.003311	0.000988	0.004838	-1.149170	0.778809	0.123779	-82.790340	11.556558	75.490171
46253		-1.977497	-9.573451	1.207073	-0.004212	0.001833	-0.000175	-1.158936	0.790527	0.119873	-82.791161	11.557084	75.491783
46254		-1.998942	-9.557933	1.228857	-0.002585	-0.002192	-0.000409	-1.163330	0.775635	0.111572	-82.790790	11.556323	75.492834
46255		-1.998990	-9.557965	1.228528	-0.004379	0.001755	0.001476	-1.160156	0.778320	0.115967	-82.791629	11.557900	75.492885
46256		-2.028074	-9.554380	1.197437	-0.004379	0.001755	0.001477	-1.160889	0.786133	0.111816	-82.792717	11.558495	75.491785
46257		-1.994321	-9.555738	1.203951	-0.001994	-0.000790	-0.000234	-1.159912	0.782715	0.109131	-82.791914	11.558904	75.491922
46258		-1.994464	-9.555739	1.203703	-0.003143	0.001066	0.003186	-1.156250	0.782959	0.109619	-82.792189	11.560421	75.491347
46259		-2.028599	-9.554379	1.196552	-0.003143	0.001066	0.003186	-1.152832	0.783447	0.117920	-82.792181	11.562963	75.487785
46260		-1.987513	-9.543756	1.255907	-0.000813	0.002013	0.000117	-1.151611	0.781494	0.110352	-82.791276	11.562804	75.486435
46261		-2.017118	-9.574522	1.221563	-0.004212	0.001833	-0.000175	-1.163086	0.781982	0.110352	-82.792040	11.563527	75.484799
46262		-2.011466	-9.537976	1.200663	-0.006038	0.001121	-0.002060	-1.161621	0.786133	0.109863	-82.794057	11.562066	75.483807
46263		-2.012100	-9.572373	1.196913	-0.000758	-0.001480	0.001476	-1.163574	0.786621	0.111084	-82.792420	11.563413	75.482571
46264		-2.016397	-9.540304	1.224056	-0.001404	0.000611	-0.000058	-1.155029	0.786133	0.117920	-82.791694	11.563053	75.482021
46265		-1.999823	-9.558174	1.225537	-0.002808	0.001222	-0.000116	-1.156982	0.782959	0.116943	-82.791579	11.563764	75.481718
46266		-2.017068	-9.574718	1.220113	-0.002808	0.001222	-0.000116	-1.167725	0.786377	0.116699	-82.791729	11.563415	75.480810
46267		-2.016548	-9.540389	1.223150	-0.005138	0.000275	0.002953	-1.163086	0.770508	0.117432	-82.792823	11.565706	75.482565
46268		-2.011774	-9.538101	1.199153	0.000813	-0.002013	-0.000118	-1.157715	0.780518	0.114502	-82.790522	11.565124	75.483533
46269		-1.988438	-9.578371	1.250034	-0.003031	0.004636	0.000177	-1.161377	0.774902	0.117188	-82.790996	11.565940	75.481324
46270		-2.016635	-9.540456	1.222485	-0.003230	-0.000101	-0.001944	-1.162842	0.788818	0.118408	-82.791261	11.564457	75.481049
46271		-2.012384	-9.572542	1.195081	-0.000168	-0.000078	0.001652	-1.156738	0.778809	0.117432	-82.789505	11.565907	75.483293
46272		-2.016778	-9.540457	1.222237	-0.001572	0.000533	0.001593	-1.155762	0.785645	0.122559	-82.788841	11.566480	75.482911
46273		-2.011974	-9.538168	1.198290	-0.000813	0.002013	0.000118	-1.151611	0.779297	0.114502	-82.787723	11.567280	75.484766
46274		-2.005220	-9.560607	1.247398	-0.002808	0.001222	-0.000116	-1.164063	0.782959	0.118896	-82.787873	11.566932	75.483858
46275		-2.029300	-9.554720	1.192635	-0.003566	-0.000258	0.001359	-1.153320	0.781494	0.114502	-82.788039	11.568233	75.485098
46276		-2.000465	-9.558359	1.223049	-0.000813	0.002013	0.000118	-1.157715	0.789307	0.111084	-82.787135	11.568074	75.483749
46277		-2.005388	-9.560679	1.246577	-0.004212	0.001833	-0.000174	-1.152344	0.783691	0.113281	-82.787894	11.568801	75.481458
46278		-2.034245	-9.557088	1.215738	0.000758	0.001480	-0.001476	-1.159424	0.789307	0.116455	-82.786050	11.567699	75.480301
46279		-2.017021	-9.540588	1.220816	-0.001572	0.000533	0.001593	-1.160889	0.790283	0.112061	-82.785127	11.569345	75.480362
46280		-2.000606	-9.558437	1.222206	-0.004380	0.001755	0.001477	-1.158936	0.780029	0.106201	-82.786216	11.569941	75.479262
46281		-2.039505	-9.559397	1.238810	-0.002385	0.002545	0.001711	-1.165283	0.781738	0.116943	-82.785973	11.571724	75.475049
46282		-2.005805	-9.560748	1.245374	-0.002217	0.002624	0.000060	-1.161377	0.787598	0.112061	-82.785945	11.571577	75.473341
46283		-2.017557	-9.540624	1.219645	-0.002162	-0.000869	0.001417	-1.155518	0.781982	0.110596	-82.785221	11.572865	75.474404
46284		-2.005935	-9.560794	1.244819	-0.004802	0.000432	-0.000350	-1.156006	0.782715	0.116699	-82.786425	11.572327	75.473937
46285		-1.996400	-9.556196	1.196847	-0.001540	0.005191	0.005367	-1.153076	0.774170	0.122070	-82.785986	11.576331	75.470745
46286		-2.018802	-9.574967	1.215283	-0.002585	-0.002192	-0.000410	-1.160889	0.782715	0.116699	-82.785615	11.575571	75.471796
46287		-2.000956	-9.524135	1.223633	-0.002385	0.002545	0.001712	-1.160400	0.781738	0.114502	-82.785465	11.577163	75.473033
46288		-2.023203	-9.542947	1.242010	-0.002808	0.001222	-0.000116	-1.156494	0.778320	0.118408	-82.785615	11.576816	75.472125
46289		-2.026399	-9.586937	1.161779	-0.001404	0.000611	-0.000058	-1.165527	0.773926	0.113525	-82.784679	11.577294	75.472732
46290		-1.996822	-9.556248	1.195727	-0.001404	0.000611	-0.000058	-1.151855	0.780029	0.114258	-82.783952	11.576935	75.472183
46291		-2.001748	-9.558566	1.219328	-0.002217	0.002624	0.000060	-1.163574	0.788574	0.118164	-82.783719	11.577551	75.469871
46292		-2.006208	-9.526511	1.246256	-0.004493	-0.001816	0.004486	-1.155762	0.786865	0.114746	-82.784413	11.579600	75.471064
46293		-2.014293	-9.572806	1.189740	-0.001713	0.002860	-0.004894	-1.160645	0.771729	0.121094	-82.783955	11.577670	75.470724
46294		-2.024050	-9.577458	1.237005	-0.004548	0.001676	0.003129	-1.156738	0.778076	0.109619	-82.785107	11.579200	75.469792
46295		-2.018044	-9.506464	1.219722	-0.002976	0.001144	0.001536	-1.153076	0.786377	0.111572	-82.785134	11.580479	75.469123
46296		-2.036101	-9.557330	1.210723	-0.004970	0.000354	0.001301	-1.158936	0.782959	0.118164	-82.786402	11.580874	75.468823
46297		-2.002430	-9.558698	1.217170	-0.002976	0.001144	0.001536	-1.156494	0.780518	0.111084	-82.786375	11.582447	75.468487
46298		-2.019102	-9.540875	1.215119	-0.003621	0.003235	0.000003	-1.158447	0.783691	0.115234	-82.787224	11.582311	75.466421
46299		-2.007584	-9.561045	1.240220	-0.004325	-0.001738	0.002834	-1.156738	0.775635	0.113281	-82.787622	11.584326	75.466742
46300		-2.018624	-9.506580	1.217859	-0.002640	0.001302	-0.001767	-1.154053	0.788574	0.111572	-82.787709	11.583046	75.465667
46301		-2.007522	-9.561132	1.239651	-0.002585	-0.002191	-0.000411	-1.163818	0.787598	0.120605	-82.787097	11.583209	75.465503
46302		-2.019984	-9.575341	1.210358	-0.004548	0.001676	0.003130	-1.160400	0.789307	0.105469	-82.788249	11.584739	75.464571
46303		-2.012799	-9.563454	1.262731	-0.002976	0.001144	0.001536	-1.162842	0.776855	0.112305	-82.788206	11.586318	75.463800
46304		-2.012959	-9.563451	1.262497	-0.001572	0.000532	0.001594	-1.155273	0.784180	0.112061	-82.787542	11.586893	75.463418
46305		-2.025375	-9.577654	1.233311	-0.002808	0.001223	-0.000116	-1.162842	0.777344	0.113770	-82.787464	11.587365	75.461287
46306		-2.003242	-9.558882	1.214383	-0.002217	0.002624	0.000061	-1.154785	0.783447	0.108887	-82.787437	11.587219	75.459579
46307		-2.008172	-9.561202	1.238055	0.000000	0.000000	-0.000000	-1.162109	0.785400	0.112549	-82.785601	11.587669	75.457722
46308		-2.002825	-9.524521	1.217551	-0.003312	0.000986	0.004839	-1.156494	0.776855	0.115234	-82.785940	11.590121	75.457315
46309		-2.042430	-9.559829	1.230626	-0.005393	-0.000968	-0.000527	-1.155273	0.777344	0.117188	-82.787104	11.590201	75.457612
46310		-2.025831	-9.577746	1.231844	-0.004212	0.001834	-0.000173	-1.157471	0.785889	0.117676	-82.788131	11.589865	75.456345
46311		-2.013547	-9.563604	1.260404	-0.004157	-0.001659	0.001183	-1.156494	0.782959	0.116455	-82.788497	11.590904	75.459315
46312		-2.008685	-9.561325	1.236272	-0.002808	0.001223	-0.000115	-1.154785	0.776367	0.118896	-82.788647	11.590557	75.458407
46313		-2.020348	-9.541199	1.210491	-0.002808	0.001223	-0.000115	-1.167725	0.783936	0.118896	-82.788603	11.591019	75.459508
46314		-2.008754	-9.561389	1.235664	-0.003567	-0.000258	0.001359	-1.162842	0.783691	0.112305	-82.788994	11.591404	75.459568
46315		-2.003847	-9.559112	1.211568	-0.002049	0.002703	-0.001590	-1.165527	0.780518	0.121826	-82.788692	11.591116	75.458920
46316		-2.004025	-9.559112	1.211275	-0.003312	0.000985	0.004839	-1.162842	0.777344	0.115723	-82.789031	11.593568	75.458514
46317		-2.025712	-9.543585	1.232979	-0.005393	-0.000968	-0.000527	-1.154297	0.780273	0.109131	-82.790247	11.593489	75.461628
46318		-2.026323	-9.577988	1.229149	-0.002585	-0.002191	-0.000411	-1.160645	0.784424	0.116943	-82.789877	11.592728	75.462680
46319		-2.020783	-9.541341	1.208646	-0.001572	0.000532	0.001594	-1.156494	0.779297	0.113037	-82.788979	11.594172	75.461503
46320		-1.987049	-9.542703	1.215337	-0.001404	0.000612	-0.000058	-1.158691	0.782959	0.116211	-82.788253	11.593814	75.460954
46321		-2.020927	-9.541360	1.208252	-0.003567	-0.000258	0.001360	-1.154785	0.778320	0.111572	-82.788428	11.595021	75.461142
46322		-2.021686	-9.575725	1.204468	-0.002217	0.002624	0.000062	-1.162109	0.776611	0.114502	-82.788400	11.594875	75.459434
46323		-2.014207	-9.563917	1.256965	-0.002639	0.001302	-0.001767	-1.162109	0.782471	0.112061	-82.788284	11.594308	75.457281
46324		-2.009422	-9.561615	1.232827	-0.004494	-0.001818	0.004486	-1.160889	0.778564	0.117432	-82.788978	11.596357	75.458476
46325		-2.021188	-9.541464	1.206996	-0.003230	-0.000099	-0.001944	-1.157471	0.781006	0.111328	-82.789039	11.595620	75.458557
46326		-2.031078	-9.546142	1.254213	-0.004548	0.001676	0.003131	-1.161377	0.775391	0.112793	-82.790192	11.597151	75.457625
46327		-1.988453	-9.577174	1.209658	-0.001150	0.001854	0.003423	-1.161865	0.788330	0.113525	-82.789199	11.599579	75.455064
46328		-1.992847	-9.545150	1.236716	-0.003398	-0.000178	-0.000292	-1.156494	0.779297	0.111816	-82.789527	11.599031	75.454956
46329		-2.010141	-9.561671	1.231219	-0.003567	-0.000258	0.001360	-1.157715	0.782959	0.120361	-82.789679	11.600288	75.454316
46330		-2.022540	-9.575863	1.201933	-0.002808	0.001223	-0.000115	-1.150879	0.786621	0.116943	-82.789830	11.599941	75.453408
46331		-2.022464	-9.575897	1.201793	0.000168	0.000080	-0.001652	-1.163086	0.787598	0.109375	-82.787955	11.599581	75.456148
46332		-1.976476	-9.563085	1.237451	-0.003313	0.000984	0.004840	-1.150879	0.782227	0.115723	-82.788294	11.602034	75.455743
46333		-2.022120	-9.541540	1.204833	-0.002049	0.002704	-0.001589	-1.156738	0.793457	0.112305	-82.787956	11.601880	75.453086
46334		-2.005558	-9.559431	1.206216	-0.003567	-0.000258	0.001360	-1.155029	0.781738	0.112793	-82.788347	11.602265	75.453146
46335		-2.010598	-9.561773	1.229682	-0.003567	-0.000258	0.001360	-1.157227	0.774414	0.110107	-82.788477	11.603662	75.452673
46336		-2.010741	-9.561775	1.229433	-0.001572	0.000532	0.001594	-1.164063	0.778564	0.120361	-82.787814	11.604237	75.452292
46337		-2.022554	-9.541597	1.203650	-0.004380	0.001755	0.001480	-1.161377	0.786621	0.115967	-82.788733	11.605434	75.451572
46338		-1.988807	-9.543001	1.210111	-0.003398	-0.000178	-0.000292	-1.162109	0.783203	0.114990	-82.789062	11.604886	75.451464
46339		-2.028266	-9.578344	1.223161	-0.004971	0.000354	0.001302	-1.160645	0.787598	0.109863	-82.790118	11.606107	75.452330
46340		-2.022751	-9.541693	1.202562	-0.000813	0.002013	0.000120	-1.167725	0.785156	0.111572	-82.789214	11.605951	75.450982
46341		-2.022806	-9.541713	1.202312	-0.003030	0.004637	0.000183	-1.155518	0.774658	0.119141	-82.789637	11.606864	75.446416
46342		-2.028409	-9.578440	1.222168	-0.005393	-0.000967	-0.000527	-1.159180	0.776611	0.116455	-82.791020	11.606126	75.446749
46343		-2.028458	-9.578472	1.221839	-0.001572	0.000532	0.001594	-1.158936	0.782959	0.117188	-82.790210	11.607304	75.448414
46344		-2.010750	-9.527641	1.230195	-0.005139	0.000274	0.002954	-1.158691	0.773438	0.111084	-82.791541	11.608634	75.448283
46345		-2.015889	-9.529979	1.253594	-0.002976	0.001144	0.001537	-1.156494	0.781006	0.113281	-82.791567	11.609891	75.447345
46346		-2.024053	-9.576162	1.196991	-0.003399	-0.000178	-0.000292	-1.160645	0.782227	0.115234	-82.791895	11.609343	75.447238
46347		-2.011850	-9.562038	1.225562	-0.005139	0.000274	0.002954	-1.158203	0.781982	0.113037	-82.793020	11.611447	75.447260
46348		-1.989845	-9.543225	1.206636	-0.000813	0.002013	0.000120	-1.161377	0.781250	0.120605	-82.792117	11.611290	75.445911
46349		-2.011251	-9.527746	1.228555	-0.003230	-0.000097	-0.001944	-1.151367	0.781982	0.120117	-82.792201	11.610547	75.447455
46350		-2.012002	-9.562123	1.224654	-0.004548	0.001675	0.003132	-1.156006	0.775879	0.116455	-82.793354	11.612079	75.446524
46351		-2.033677	-9.546588	1.246579	0.001182	0.002802	0.000355	-1.161621	0.781250	0.116455	-82.791229	11.612860	75.447171
46352		-2.007190	-9.559789	1.200647	0.000115	0.003574	-0.003005	-1.156494	0.782959	0.123047	-82.790023	11.611040	75.444688
46353		-2.016163	-9.530183	1.251604	-0.002048	0.002705	-0.001588	-1.156250	0.778320	0.115479	-82.789772	11.610709	75.446638
46354		-2.016727	-9.564572	1.247912	-0.000644	0.002093	-0.001531	-1.156982	0.783447	0.117920	-82.788806	11.609620	75.445122
46355		-1.999501	-9.548111	1.252892	-0.002976	0.001143	0.001537	-1.156006	0.785400	0.113037	-82.788834	11.610970	75.445859
46356		-2.000317	-9.582448	1.249191	0.000369	0.004815	0.000476	-1.163330	0.783447	0.105957	-82.787576	11.611217	75.442911
46357		-1.994672	-9.545800	1.228726	-0.003230	-0.000097	-0.001944	-1.159912	0.784180	0.113525	-82.787582	11.610583	75.439909
46358		-2.040814	-9.558623	1.192443	-0.005193	0.003768	0.001601	-1.162842	0.787109	0.114990	-82.789372	11.611394	75.437651
46359		-2.023589	-9.542188	1.197207	-0.002639	0.001304	-0.001766	-1.157959	0.783691	0.122070	-82.789239	11.610946	75.437340
46360		-1.994704	-9.545933	1.227644	-0.001572	0.000532	0.001594	-1.160889	0.790771	0.120117	-82.788576	11.611522	75.436960
46361		-2.007031	-9.560100	1.198436	-0.002639	0.001304	-0.001766	-1.152832	0.782471	0.107666	-82.788489	11.611123	75.441341
46362		-2.028522	-9.544622	1.220272	-0.002976	0.001143	0.001537	-1.156982	0.781982	0.115234	-82.788703	11.611710	75.440603
46363		-2.034387	-9.581308	1.240099	-0.005362	0.003688	0.003253	-1.170654	0.778809	0.116211	-82.790322	11.614294	75.436252
46364		-2.041237	-9.558783	1.190431	-0.001457	0.004106	-0.001410	-1.157227	0.778564	0.106934	-82.790055	11.613419	75.433578
46365		-2.012311	-9.562537	1.220905	-0.001404	0.000612	-0.000057	-1.155518	0.781982	0.113770	-82.789134	11.613624	75.431594
46366		-2.012474	-9.562561	1.220451	-0.007357	0.002898	0.003018	-1.156494	0.784668	0.117920	-82.792041	11.615179	75.429945
46367		-2.017563	-9.564932	1.243793	-0.001404	0.000612	-0.000057	-1.152832	0.779541	0.114258	-82.791118	11.615652	75.430759
46368		-2.024354	-9.542390	1.194306	-0.002976	0.001143	0.001537	-1.162598	0.776367	0.114258	-82.791332	11.616240	75.430021
46369		-2.008575	-9.594602	1.192157	-0.002217	0.002625	0.000064	-1.166504	0.782959	0.117920	-82.791128	11.616726	75.428149
46370		-2.017828	-9.564982	1.242979	-0.003567	-0.000258	0.001359	-1.158936	0.786133	0.111328	-82.791520	11.617111	75.428210
46371		-2.013728	-9.596973	1.215402	-0.001573	0.000531	0.001595	-1.157471	0.781494	0.115723	-82.790656	11.618437	75.428991
46372		-2.047107	-9.561219	1.211915	-0.001151	0.001852	0.003424	-1.155029	0.781982	0.113281	-82.789879	11.620148	75.427979
46373		-2.030037	-9.544740	1.216821	-0.004211	0.001836	-0.000171	-1.162842	0.781006	0.113770	-82.790711	11.620585	75.426998
46374		-2.008551	-9.560286	1.194398	-0.001404	0.000612	-0.000057	-1.161377	0.782471	0.107910	-82.789986	11.620228	75.426450
46375		-2.035052	-9.547149	1.240023	-0.004380	0.001755	0.001481	-1.155762	0.782959	0.114990	-82.790861	11.621505	75.423567
46376		-2.001388	-9.548553	1.246495	-0.003567	-0.000258	0.001359	-1.161133	0.780762	0.109619	-82.791253	11.621890	75.423628
46377		-2.031098	-9.579156	1.212047	-0.001573	0.000531	0.001595	-1.159668	0.778076	0.118164	-82.790380	11.623205	75.422275
46378		-2.014010	-9.562675	1.217015	-0.002977	0.001143	0.001538	-1.155273	0.784912	0.118408	-82.790594	11.623792	75.421536
46379		-2.009321	-9.560320	1.192832	-0.004549	0.001675	0.003132	-1.162842	0.783691	0.112061	-82.791594	11.626037	75.423836
46380		-2.014428	-9.562674	1.216333	-0.000813	0.002013	0.000121	-1.163330	0.779541	0.109131	-82.790691	11.625882	75.422488
46381		-2.026235	-9.542456	1.190582	-0.004549	0.001675	0.003132	-1.159180	0.778564	0.109863	-82.791632	11.628058	75.419646
46382		-1.997548	-9.546232	1.220669	-0.007557	-0.001835	0.000889	-1.156250	0.785156	0.119385	-82.794132	11.628062	75.420588
46383		-2.032254	-9.579190	1.209839	-0.001151	0.001851	0.003425	-1.164795	0.780273	0.118164	-82.793170	11.630503	75.420255
46384		-1.998071	-9.546208	1.220004	-0.003737	-0.000338	0.003011	-1.167725	0.781006	0.118164	-82.793625	11.631822	75.420485
46385		-1.998969	-9.580546	1.216114	-0.003568	-0.000258	0.001360	-1.165527	0.781738	0.116455	-82.793890	11.632711	75.424056
46386		-2.015575	-9.562713	1.214125	-0.003399	-0.000177	-0.000292	-1.160889	0.777588	0.110596	-82.794219	11.632163	75.423950
46387		-2.032934	-9.579197	1.208640	-0.002924	-0.002351	0.002890	-1.154785	0.773926	0.116943	-82.793803	11.633817	75.425327
46388		-2.010834	-9.560376	1.189827	-0.001457	0.004107	-0.001408	-1.162109	0.778320	0.109619	-82.793537	11.632942	75.422652
46389		-2.015724	-9.562769	1.213437	-0.001404	0.000612	-0.000057	-1.161133	0.776123	0.113770	-82.792653	11.633104	75.421134
46390		-2.015157	-9.528448	1.216653	-0.005731	-0.001127	0.002776	-1.157227	0.778320	0.108154	-82.794162	11.634231	75.421804
46391		-2.020925	-9.565149	1.236646	0.000591	0.001401	0.000179	-1.160889	0.782471	0.107666	-82.792198	11.634618	75.418376
46392		-2.020944	-9.565162	1.236514	-0.002808	0.001224	-0.000114	-1.157471	0.779785	0.116943	-82.792349	11.634272	75.417469
46393		-2.016788	-9.597147	1.208938	-0.001573	0.000531	0.001595	-1.161133	0.777832	0.114502	-82.791490	11.635530	75.416109
46394		-2.015497	-9.528472	1.215908	-0.000813	0.002013	0.000122	-1.157959	0.786377	0.116211	-82.790588	11.635374	75.414761
46395		-1.999812	-9.580664	1.213790	-0.003146	0.001062	0.003190	-1.167969	0.782227	0.108643	-82.790696	11.637584	75.415601
46396		-1.999260	-9.546330	1.217098	-0.001995	-0.000789	-0.000235	-1.161377	0.784668	0.107178	-82.790148	11.637024	75.415853
46397		-2.021431	-9.565207	1.235370	-0.004211	0.001837	-0.000170	-1.160889	0.775146	0.115967	-82.790937	11.637358	75.410754
46398		-2.021436	-9.565244	1.235077	-0.001404	0.000612	-0.000057	-1.162109	0.777588	0.109863	-82.790211	11.637001	75.410206
46399		-2.021500	-9.565261	1.234836	-0.003568	-0.000258	0.001360	-1.158691	0.783691	0.117676	-82.790453	11.637838	75.409435
46400		-2.011698	-9.560545	1.187008	-0.001404	0.000612	-0.000057	-1.161133	0.777344	0.115234	-82.789728	11.637480	75.408886
46401		-1.992076	-9.534721	1.268592	-0.002977	0.001143	0.001538	-1.161377	0.781006	0.112305	-82.789799	11.638681	75.410341
46402		-2.016082	-9.528614	1.213822	-0.003399	-0.000176	-0.000292	-1.154297	0.781006	0.115479	-82.790128	11.638132	75.410233
46403		-2.017602	-9.597300	1.206360	-0.003737	-0.000339	0.003011	-1.153809	0.778809	0.117920	-82.790403	11.640134	75.410816
46404		-2.016779	-9.563033	1.209595	-0.003483	-0.001334	-0.005426	-1.160156	0.781738	0.111084	-82.790721	11.636584	75.411004
46405		-1.999513	-9.546589	1.214652	0.000084	0.001157	0.005134	-1.163330	0.774902	0.111816	-82.788961	11.639886	75.411264
46406		-2.021160	-9.531079	1.236631	-0.003230	-0.000095	-0.001944	-1.155762	0.781738	0.116211	-82.789227	11.638404	75.410988
46407		-2.000371	-9.580938	1.210706	-0.000982	0.001932	0.001774	-1.166748	0.783691	0.110107	-82.788233	11.639726	75.409986
46408		-2.012152	-9.560695	1.185027	-0.003568	-0.000258	0.001360	-1.154053	0.786865	0.114014	-82.788625	11.640110	75.410047
46409		-1.988295	-9.566851	1.239256	-0.000813	0.002013	0.000122	-1.162354	0.781982	0.108154	-82.787505	11.640746	75.408024
46410		-2.039359	-9.581954	1.226870	-0.004802	0.000436	-0.000349	-1.158447	0.781982	0.104492	-82.788711	11.640210	75.407557
46411		-2.017177	-9.563159	1.207932	-0.002216	0.002625	0.000066	-1.154297	0.781494	0.110107	-82.788429	11.640761	75.400495
46412		-2.022117	-9.565579	1.231358	-0.004803	0.000436	-0.000349	-1.154541	0.785156	0.116211	-82.789635	11.640224	75.400027
46413		-1.988392	-9.566993	1.238003	0.000422	0.001319	0.001831	-1.161133	0.777832	0.112061	-82.787712	11.641822	75.399787
46414		-2.038757	-9.547760	1.229187	-0.006037	0.001130	-0.002057	-1.162354	0.779297	0.107910	-82.789731	11.640365	75.398792
46415		-2.022129	-9.565680	1.230551	0.000591	0.001401	0.000179	-1.152832	0.778564	0.104492	-82.787765	11.640707	75.394952
46416		-2.017133	-9.563333	1.206634	-0.002638	0.001306	-0.001765	-1.164307	0.784912	0.116455	-82.787854	11.639428	75.393875
46417		-2.022011	-9.565747	1.230227	-0.000813	0.002013	0.000122	-1.157959	0.782715	0.113281	-82.786739	11.639968	75.390684
46418		-2.022013	-9.565765	1.230080	-0.001995	-0.000789	-0.000236	-1.156982	0.784912	0.112305	-82.786191	11.639408	75.390935
46419		-2.009700	-9.551686	1.259024	0.000591	0.001401	0.000179	-1.159668	0.781738	0.112549	-82.784208	11.640025	75.390273
46420		-2.028477	-9.543194	1.180811	0.000508	0.000244	-0.004955	-1.152100	0.785889	0.109619	-82.782417	11.636856	75.389577
46421		-2.009283	-9.551772	1.259036	-0.000222	0.003414	0.000302	-1.153076	0.780273	0.108398	-82.781110	11.637730	75.386706
46422		-1.982132	-9.530558	1.216657	0.000760	0.001482	-0.001473	-1.166504	0.777344	0.110352	-82.779268	11.636630	75.385549
46423		-2.026483	-9.568256	1.253763	-0.000222	0.003414	0.000302	-1.156982	0.772705	0.105957	-82.777991	11.637229	75.380551
46424		-2.011659	-9.561144	1.182235	-0.001456	0.004107	-0.001407	-1.168457	0.789063	0.117432	-82.777725	11.636356	75.377874
46425		-1.987629	-9.567332	1.236606	0.000760	0.001482	-0.001473	-1.159180	0.778809	0.117920	-82.775710	11.635811	75.375374
46426		-2.021374	-9.565953	1.229674	-0.001404	0.000612	-0.000057	-1.157959	0.777100	0.118164	-82.774984	11.635453	75.374825
46427		-2.032992	-9.545726	1.204085	-0.001404	0.000612	-0.000057	-1.164551	0.774658	0.110596	-82.774169	11.635587	75.378667
46428		-2.003895	-9.549578	1.234558	-0.002300	0.001469	-0.005068	-1.158936	0.779541	0.120850	-82.774132	11.632442	75.377252
46429		-2.020912	-9.566120	1.229131	-0.001404	0.000612	-0.000057	-1.157959	0.785156	0.114014	-82.773305	11.632487	75.378637
46430		-2.015474	-9.529401	1.208640	-0.003368	0.004475	0.003492	-1.159180	0.781494	0.111572	-82.774104	11.634425	75.376108
46431		-2.032839	-9.545887	1.203064	-0.002638	0.001306	-0.001765	-1.160156	0.780029	0.115723	-82.774001	11.633888	75.375535
46432		-2.016305	-9.563793	1.204364	-0.003790	0.003156	0.001661	-1.163086	0.787598	0.109863	-82.774915	11.634690	75.373636
46433		-2.009752	-9.586433	1.253322	-0.000813	0.002013	0.000123	-1.159912	0.778809	0.115967	-82.773829	11.635223	75.372481
46434		-2.004137	-9.549740	1.232908	-0.002808	0.001224	-0.000113	-1.166992	0.785889	0.111328	-82.773980	11.634877	75.371573
46435		-2.004160	-9.549781	1.232557	-0.003621	0.003237	0.000010	-1.162598	0.782471	0.113525	-82.774675	11.635325	75.370110
46436		-1.999187	-9.547463	1.208300	-0.005985	-0.002366	-0.000708	-1.161133	0.786133	0.112549	-82.776236	11.634382	75.371242
46437		-2.028255	-9.543704	1.177064	-0.005533	0.003604	0.004908	-1.165283	0.782227	0.114014	-82.777970	11.637758	75.369800
46438		-1.999522	-9.547506	1.207403	-0.001604	-0.004121	-0.002190	-1.157227	0.783203	0.115723	-82.776837	11.635847	75.371842
46439		-2.026628	-9.568783	1.249495	-0.003790	0.003156	0.001662	-1.158936	0.783691	0.103760	-82.777603	11.637278	75.371843
46440		-2.000408	-9.581890	1.203089	-0.005733	-0.001128	0.002775	-1.154053	0.778564	0.114990	-82.779112	11.638405	75.372513
46441		-2.028859	-9.543767	1.175510	-0.004550	0.001673	0.003134	-1.149658	0.788574	0.111816	-82.780049	11.640642	75.369326
46442		-2.016697	-9.529693	1.204289	-0.000591	-0.001401	-0.000180	-1.162354	0.785645	0.104736	-82.778624	11.640069	75.369937
46443		-2.022446	-9.566427	1.224207	-0.005733	-0.001128	0.002775	-1.156494	0.781006	0.107178	-82.779859	11.642159	75.368081
46444		-2.005941	-9.584337	1.225450	-0.002638	0.001307	-0.001764	-1.162842	0.781494	0.114014	-82.779948	11.640881	75.367004
46445		-2.005327	-9.550017	1.228819	-0.001743	0.000448	0.003247	-1.158691	0.778320	0.108887	-82.779160	11.643003	75.365314
46446		-2.022861	-9.566465	1.223227	-0.005733	-0.001128	0.002775	-1.164063	0.774414	0.105713	-82.780669	11.644131	75.365984
46447		-2.005722	-9.550043	1.227973	-0.004803	0.000436	-0.000349	-1.166016	0.783203	0.115479	-82.781689	11.643981	75.360780
46448		-2.035345	-9.580607	1.193311	-0.002977	0.001143	0.001539	-1.158691	0.774414	0.123535	-82.781903	11.644569	75.360040
46449		-2.017603	-9.529823	1.201740	-0.005733	-0.001128	0.002775	-1.160400	0.776855	0.114014	-82.783368	11.646087	75.365793
46450		-1.989569	-9.567977	1.228475	-0.001404	0.000612	-0.000056	-1.165283	0.788818	0.111572	-82.782642	11.645729	75.365245
46451		-2.018509	-9.564181	1.197575	-0.002977	0.001143	0.001539	-1.164795	0.779297	0.118896	-82.782696	11.646905	75.364370
46452		-1.989715	-9.568006	1.228006	-0.001995	-0.000788	-0.000236	-1.165283	0.783447	0.113525	-82.782148	11.646344	75.364620
46453		-2.023758	-9.566575	1.220879	-0.002725	0.002379	0.005023	-1.159180	0.783447	0.118408	-82.782213	11.649450	75.365625
46454		-2.006761	-9.550092	1.225897	-0.001404	0.000612	-0.000056	-1.151123	0.783691	0.106689	-82.781488	11.649093	75.365077
46455		-2.002581	-9.582041	1.198262	-0.003568	-0.000258	0.001360	-1.164063	0.778564	0.117676	-82.781686	11.650276	75.366041
46456		-2.002024	-9.547730	1.201475	-0.004381	0.001755	0.001483	-1.166260	0.778564	0.113037	-82.782778	11.650876	75.364943
46457		-2.007115	-9.550140	1.224940	-0.002165	-0.000870	0.001416	-1.169189	0.781006	0.109131	-82.782207	11.651571	75.366839
46458		-2.007195	-9.550143	1.224787	-0.000813	0.002013	0.000124	-1.158936	0.780273	0.110352	-82.781305	11.651416	75.365491
46459		-2.002252	-9.547778	1.200707	-0.004803	0.000437	-0.000348	-1.157471	0.787598	0.117188	-82.782334	11.651352	75.362233
46460		-2.040975	-9.548829	1.217140	-0.004803	0.000437	-0.000348	-1.152832	0.777100	0.113281	-82.783540	11.650816	75.361765
46461		-2.019717	-9.564298	1.194601	-0.002725	0.002379	0.005023	-1.156738	0.780273	0.113525	-82.783556	11.654199	75.363660
46462		-2.002720	-9.547816	1.199625	-0.001404	0.000613	-0.000056	-1.154297	0.773682	0.120850	-82.782831	11.653842	75.363112
46463		-2.019349	-9.529945	1.197836	-0.001573	0.000530	0.001596	-1.155518	0.778564	0.122070	-82.782091	11.654890	75.366786
46464		-1.991281	-9.568118	1.224594	-0.004211	0.001838	-0.000168	-1.161377	0.776611	0.115479	-82.783120	11.654557	75.365519
46465		-1.991287	-9.568173	1.224155	-0.004211	0.001838	-0.000168	-1.161621	0.783447	0.112549	-82.784095	11.654640	75.369201
46466		-2.046749	-9.551291	1.239108	-0.001743	0.000448	0.003248	-1.156738	0.773438	0.112549	-82.783496	11.656149	75.368992
46467		-1.991575	-9.568186	1.223584	-0.003990	-0.001576	-0.000472	-1.160889	0.777344	0.117188	-82.783863	11.655872	75.369343
46468		-2.041880	-9.548953	1.214652	-0.004803	0.000437	-0.000348	-1.159424	0.782471	0.114014	-82.785069	11.655336	75.368876
46469		-1.991767	-9.568229	1.222933	0.000082	0.001153	0.005136	-1.161621	0.776123	0.108398	-82.783370	11.658462	75.370733
46470		-2.042371	-9.548889	1.214329	-0.001404	0.000613	-0.000056	-1.158447	0.781006	0.110596	-82.782646	11.658105	75.370186
46471		-2.015125	-9.527657	1.171861	-0.001825	-0.000705	-0.001888	-1.159424	0.776855	0.116943	-82.781857	11.657086	75.367354
46472		-1.996785	-9.570693	1.246184	-0.004211	0.001838	-0.000168	-1.150146	0.776367	0.111328	-82.782887	11.656752	75.366087
46473		-2.020771	-9.564472	1.191423	-0.001573	0.000530	0.001596	-1.152588	0.785156	0.116943	-82.782108	11.657823	75.366691
46474		-1.996261	-9.536384	1.249370	-0.000812	0.002013	0.000124	-1.161621	0.784424	0.118408	-82.781207	11.657668	75.365344
46475		-1.991956	-9.568321	1.221907	0.000170	0.000083	-0.001652	-1.156738	0.783203	0.114746	-82.779419	11.657124	75.369641
46476		-2.008666	-9.550451	1.219967	-0.006124	0.002203	0.004732	-1.151611	0.780273	0.111084	-82.781514	11.659602	75.368523
46477		-2.013859	-9.552880	1.243218	-0.004211	0.001838	-0.000168	-1.159424	0.790039	0.113525	-82.782375	11.659994	75.367357
46478		-2.043385	-9.583400	1.208738	0.000221	-0.003414	-0.000305	-1.168457	0.784668	0.105957	-82.780251	11.659206	75.369129
46479		-1.991652	-9.534073	1.224250	-0.006376	0.000967	0.001248	-1.159180	0.784912	0.122803	-82.782173	11.660347	75.366917
46480		-2.009761	-9.584891	1.214816	-0.004381	0.001755	0.001484	-1.156982	0.775391	0.114502	-82.783266	11.660947	75.365820
46481		-2.031403	-9.569440	1.236649	-0.002165	-0.000871	0.001416	-1.155762	0.780029	0.113770	-82.782710	11.661832	75.371157
46482		-2.004389	-9.548160	1.194094	-0.002977	0.001143	0.001540	-1.156494	0.780273	0.112061	-82.782925	11.662421	75.370420
46483		-2.048963	-9.585897	1.230828	-0.002977	0.001143	0.001540	-1.157471	0.778076	0.110107	-82.782990	11.663603	75.369492
46484		-2.009539	-9.550606	1.217307	-0.001455	0.004109	-0.001403	-1.164795	0.779785	0.117676	-82.782725	11.662732	75.366817
46485		-2.009466	-9.550667	1.216948	-0.005394	-0.000963	-0.000528	-1.158691	0.777588	0.111084	-82.783992	11.662403	75.368020
46486		-2.010302	-9.585011	1.212974	-0.001743	0.000447	0.003248	-1.159912	0.784668	0.112061	-82.783394	11.663911	75.367812
46487		-2.009659	-9.550710	1.216298	-0.004633	0.000521	-0.002000	-1.162109	0.781494	0.105469	-82.784371	11.663005	75.366237
46488		-1.997959	-9.571089	1.241247	-0.004803	0.000438	-0.000348	-1.155762	0.781494	0.107178	-82.785578	11.662470	75.365770
46489		-2.026918	-9.567270	1.210147	-0.004330	-0.001741	0.002831	-1.163818	0.781738	0.119873	-82.785974	11.664201	75.361551
46490		-2.009791	-9.550846	1.215006	-0.004211	0.001838	-0.000167	-1.154785	0.784180	0.115234	-82.787004	11.663869	75.360284
46491		-1.998264	-9.571184	1.240025	-0.003569	-0.000258	0.001360	-1.159912	0.786865	0.117920	-82.787297	11.664850	75.364639
46492		-2.032210	-9.569764	1.232810	-0.002977	0.001142	0.001541	-1.160645	0.778076	0.115967	-82.787513	11.665439	75.363902
46493		-2.027401	-9.567350	1.208705	-0.003569	-0.000258	0.001360	-1.166260	0.774902	0.115479	-82.787803	11.666375	75.367686
46494		-2.003631	-9.573631	1.262975	-0.000761	-0.001484	0.001471	-1.159912	0.778564	0.111084	-82.786442	11.666736	75.368469
46495		-2.014653	-9.518993	1.241044	-0.002977	0.001142	0.001541	-1.160400	0.785889	0.116699	-82.786552	11.667582	75.367922
46496		-2.005540	-9.548479	1.189601	-0.001404	0.000613	-0.000056	-1.162842	0.782471	0.124023	-82.785828	11.667225	75.367375
46497		-2.016223	-9.587674	1.233275	-0.003569	-0.000258	0.001360	-1.157471	0.775391	0.105713	-82.786152	11.668178	75.374293
46498		-2.049395	-9.551935	1.229732	-0.002216	0.002626	0.000070	-1.148926	0.771729	0.121338	-82.786128	11.668037	75.372587
46499		-2.011391	-9.585294	1.208926	-0.002216	0.002626	0.000070	-1.163330	0.783447	0.113525	-82.786001	11.668270	75.369435
46500		-2.015638	-9.553442	1.235995	-0.004803	0.000438	-0.000347	-1.153320	0.788086	0.113037	-82.787208	11.667734	75.368969
46501		-1.999211	-9.571324	1.237417	0.001605	0.004118	0.002194	-1.160889	0.781494	0.116943	-82.784959	11.669668	75.367406
46502		-1.999248	-9.571331	1.237299	-0.003229	-0.000091	-0.001944	-1.168213	0.783203	0.113037	-82.785226	11.668187	75.367130
46503		-2.010839	-9.551049	1.211677	-0.000982	0.001930	0.001777	-1.156250	0.783447	0.114746	-82.784267	11.669407	75.368626
46504		-2.015833	-9.553495	1.235267	-0.002046	0.002709	-0.001582	-1.161865	0.788086	0.116699	-82.784180	11.668333	75.366752
46505		-2.028093	-9.567551	1.205951	-0.002216	0.002626	0.000070	-1.167480	0.776367	0.111328	-82.784011	11.668908	75.368041
46506		-2.010857	-9.551128	1.211023	-0.001404	0.000613	-0.000056	-1.160889	0.783691	0.111084	-82.783287	11.668552	75.367496
46507		-2.015817	-9.553578	1.234658	-0.001404	0.000613	-0.000056	-1.166260	0.780762	0.118408	-82.782408	11.668564	75.366329
46508		-2.033094	-9.570053	1.229100	-0.003620	0.003239	0.000014	-1.150879	0.781494	0.109131	-82.783261	11.668436	75.364264
46509		-2.011676	-9.585531	1.206564	-0.003569	-0.000258	0.001360	-1.161377	0.776611	0.111816	-82.783517	11.669366	75.365012
46510		-2.028190	-9.567697	1.204623	-0.003229	-0.000091	-0.001944	-1.155273	0.777344	0.106689	-82.783784	11.667885	75.364737
46511		-2.011000	-9.551280	1.209589	-0.003147	0.001059	0.003193	-1.162109	0.774170	0.105713	-82.783895	11.669810	75.360538
46512		-1.994696	-9.569150	1.210893	-0.002978	0.001142	0.001541	-1.156982	0.781982	0.109863	-82.784111	11.670399	75.359802
46513		-2.028562	-9.567747	1.203604	-0.004803	0.000438	-0.000347	-1.162354	0.775635	0.114746	-82.785129	11.670291	75.355073
46514		-1.999770	-9.571654	1.233956	-0.002165	-0.000871	0.001415	-1.155518	0.783936	0.117676	-82.784646	11.670663	75.355496
46515		-2.045140	-9.549928	1.201424	-0.002638	0.001309	-0.001763	-1.166260	0.788330	0.112549	-82.784643	11.669849	75.357215
46516		-2.011246	-9.551398	1.208245	0.000812	-0.002013	-0.000126	-1.155273	0.784912	0.115967	-82.782342	11.669263	75.358188
46517		-2.011944	-9.585745	1.204416	-0.004211	0.001839	-0.000166	-1.165039	0.781006	0.116211	-82.783214	11.669641	75.359038
46518		-2.016099	-9.553927	1.231491	-0.003229	-0.000091	-0.001944	-1.162598	0.779053	0.116455	-82.783481	11.668160	75.358762
46519		-1.993949	-9.535062	1.212755	-0.001744	0.000446	0.003248	-1.156738	0.783936	0.114990	-82.782800	11.670017	75.361849
46520		-2.016341	-9.553935	1.231030	-0.002216	0.002626	0.000070	-1.158936	0.790527	0.107666	-82.782776	11.669877	75.360145
46521		-1.982547	-9.555412	1.237639	-0.003399	-0.000175	-0.000292	-1.157471	0.779053	0.110352	-82.782903	11.670146	75.359505
46522		-2.033587	-9.570437	1.225290	-0.000000	-0.000000	-0.000000	-1.159668	0.776123	0.115967	-82.781301	11.669777	75.359320
46523		-1.994908	-9.569430	1.208331	-0.001574	0.000529	0.001597	-1.158691	0.786621	0.123291	-82.780524	11.670741	75.358794
46524		-2.006588	-9.549104	1.182797	-0.000812	0.002013	0.000126	-1.158203	0.772461	0.115723	-82.779623	11.670588	75.357449
46525		-2.033687	-9.570452	1.225003	-0.000421	-0.001317	-0.001833	-1.163574	0.780029	0.112061	-82.778088	11.669515	75.363029
46526		-2.011379	-9.551618	1.206284	-0.004211	0.001839	-0.000166	-1.168213	0.777588	0.111572	-82.779119	11.669184	75.361764
46527		-2.011462	-9.551647	1.205911	-0.002978	0.001142	0.001541	-1.159424	0.780029	0.106689	-82.779205	11.670040	75.361114
46528		-2.016601	-9.554090	1.229397	-0.002386	0.002542	0.001723	-1.158936	0.776855	0.114014	-82.779244	11.670833	75.359580
46529		-1.995214	-9.569530	1.207033	-0.000812	0.002013	0.000126	-1.158203	0.780273	0.110352	-82.778188	11.671110	75.355971
46530		-2.016817	-9.554098	1.228985	-0.002978	0.001142	0.001541	-1.164795	0.779785	0.118164	-82.778404	11.671698	75.355236
46531		-2.033406	-9.536238	1.227117	-0.002587	-0.002188	-0.000418	-1.164307	0.782715	0.114502	-82.777924	11.671346	75.357759
46532		-1.995347	-9.569600	1.206257	-0.003620	0.003239	0.000016	-1.152832	0.788086	0.118652	-82.778777	11.671219	75.355695
46533		-1.995431	-9.569630	1.205883	-0.003569	-0.000258	0.001360	-1.171387	0.777344	0.115234	-82.779051	11.672291	75.359283
46534		-1.999709	-9.537782	1.233073	-0.002587	-0.002188	-0.000418	-1.160156	0.785156	0.114014	-82.778682	11.671526	75.360337
46535		-2.017090	-9.554219	1.227591	-0.001744	0.000445	0.003249	-1.153809	0.784424	0.115234	-82.777976	11.673383	75.362777
46536		-1.995092	-9.535319	1.208850	-0.003569	-0.000258	0.001360	-1.151367	0.779053	0.105469	-82.778370	11.673767	75.362842
46537		-2.017358	-9.554228	1.227080	-0.001995	-0.000787	-0.000237	-1.159668	0.775879	0.111572	-82.777640	11.673922	75.359817
46538		-1.983640	-9.555678	1.233830	-0.000982	0.001929	0.001778	-1.165039	0.779541	0.113525	-82.776802	11.674702	75.358643
46539		-1.996097	-9.569671	1.204449	-0.004973	0.000355	0.001305	-1.161133	0.777344	0.115967	-82.777957	11.675393	75.358248
46540		-2.000488	-9.537820	1.231519	-0.002978	0.001142	0.001542	-1.160645	0.781006	0.112793	-82.778173	11.675982	75.357514
46541		-2.001284	-9.572135	1.227752	0.001404	-0.000613	0.000055	-1.155518	0.783203	0.112793	-82.775592	11.675978	75.358975
46542		-2.001381	-9.572123	1.227685	-0.002386	0.002542	0.001723	-1.171631	0.781006	0.119873	-82.775631	11.676771	75.357442
46543		-2.018706	-9.588595	1.222000	-0.005395	-0.000961	-0.000528	-1.161621	0.779053	0.113281	-82.776923	11.676449	75.361379
46544		-2.013057	-9.551859	1.201568	-0.002165	-0.000871	0.001415	-1.153564	0.784668	0.106934	-82.776439	11.676821	75.361804
46545		-2.023125	-9.556766	1.248876	-0.002978	0.001142	0.001542	-1.163818	0.783936	0.122070	-82.776477	11.677999	75.358708
46546		-2.030525	-9.568330	1.195634	-0.004803	0.000439	-0.000347	-1.159912	0.778076	0.113770	-82.777684	11.677464	75.358243
46547		-2.035553	-9.570810	1.219097	-0.001574	0.000529	0.001597	-1.158691	0.788330	0.113281	-82.776956	11.678442	75.362228
46548		-2.001196	-9.537937	1.229461	-0.002978	0.001142	0.001542	-1.156494	0.780273	0.111816	-82.777173	11.679031	75.361494
46549		-2.018599	-9.554382	1.223840	-0.003569	-0.000258	0.001360	-1.160645	0.781738	0.118896	-82.777404	11.680082	75.361378
46550		-2.035985	-9.570832	1.218203	-0.003569	-0.000258	0.001360	-1.167236	0.780029	0.122070	-82.777798	11.680468	75.361443
46551		-1.997289	-9.569854	1.201016	-0.002808	0.001226	-0.000110	-1.164551	0.778809	0.109131	-82.777919	11.680448	75.367228
46552		-2.018856	-9.554442	1.222949	-0.002166	-0.000871	0.001415	-1.164063	0.780273	0.111816	-82.777435	11.680820	75.367654
46553		-2.002521	-9.572312	1.224355	-0.002336	-0.000956	0.003067	-1.160400	0.778564	0.116943	-82.776862	11.682444	75.367240
46554		-2.014317	-9.551951	1.198719	-0.002978	0.001142	0.001542	-1.157471	0.776855	0.108887	-82.777079	11.683033	75.366506
46555		-2.002147	-9.537994	1.227464	-0.004161	-0.001658	0.001179	-1.153564	0.780273	0.113770	-82.777534	11.683578	75.366620
46556		-2.014570	-9.551982	1.198047	-0.002978	0.001142	0.001542	-1.160400	0.777344	0.112549	-82.777751	11.684167	75.365886
46557		-2.019680	-9.554471	1.221356	-0.006377	0.000968	0.001251	-1.153564	0.782715	0.113525	-82.779778	11.685032	75.364431
46558		-2.019749	-9.554525	1.220822	-0.004211	0.001840	-0.000165	-1.163574	0.776123	0.110596	-82.780809	11.684702	75.363167
46559		-1.986175	-9.555989	1.227326	-0.003910	-0.000427	0.004664	-1.165039	0.774902	0.111328	-82.781192	11.687396	75.362426
46560		-1.998091	-9.535601	1.201652	-0.002928	-0.002356	0.002885	-1.167480	0.785645	0.110352	-82.780949	11.688497	75.363822
46561		-2.004029	-9.572372	1.221413	-0.004331	-0.001743	0.002831	-1.149170	0.788330	0.106934	-82.781437	11.689901	75.364361
46562		-2.042901	-9.573396	1.237935	-0.003399	-0.000173	-0.000291	-1.161133	0.781494	0.115723	-82.781768	11.689353	75.364256
46563		-2.015856	-9.552055	1.195295	-0.004552	0.001671	0.003140	-1.160645	0.780029	0.123779	-82.782741	11.691633	75.361831
46564		-2.003763	-9.538105	1.223964	-0.004161	-0.001658	0.001179	-1.156738	0.784668	0.106445	-82.783312	11.691814	75.362696
46565		-2.003907	-9.538116	1.223643	-0.002386	0.002542	0.001725	-1.156250	0.779785	0.114014	-82.783239	11.693132	75.362849
46566		-2.017157	-9.586377	1.190585	-0.002928	-0.002356	0.002885	-1.156250	0.774170	0.110840	-82.782995	11.694233	75.364245
46567		-2.004237	-9.538124	1.223038	-0.004803	0.000440	-0.000346	-1.163330	0.771240	0.113525	-82.784086	11.694080	75.362313
46568		-2.021549	-9.554581	1.217399	-0.002166	-0.000871	0.001415	-1.158936	0.779297	0.116943	-82.783603	11.694452	75.362739
46569		-2.005159	-9.572476	1.218743	-0.002978	0.001142	0.001543	-1.159912	0.782227	0.117676	-82.783756	11.695220	75.363219
46570		-2.004545	-9.538168	1.222191	-0.001624	0.004027	0.000255	-1.167725	0.777100	0.114502	-82.783556	11.695285	75.360716
46571		-2.005334	-9.572515	1.218147	-0.003619	0.003240	0.000018	-1.158203	0.781250	0.120361	-82.784334	11.695444	75.361426
46572		-2.021904	-9.554629	1.216436	0.001996	0.000787	0.000237	-1.153564	0.781006	0.116943	-82.781679	11.695265	75.360803
46573		-2.026193	-9.522785	1.243829	-0.003028	0.004640	0.000201	-1.160645	0.776123	0.116699	-82.782292	11.695869	75.361608
46574		-2.017666	-9.586530	1.188489	-0.003229	-0.000088	-0.001943	-1.163818	0.783447	0.118408	-82.782560	11.694388	75.361333
46575		-2.005434	-9.572597	1.217338	-0.001744	0.000444	0.003249	-1.166260	0.786377	0.111572	-82.781901	11.696218	75.364918
46576		-2.033710	-9.534334	1.190085	-0.003619	0.003240	0.000019	-1.161133	0.790039	0.114014	-82.782756	11.696091	75.362855
46577		-2.005652	-9.572622	1.216780	-0.000812	0.002013	0.000128	-1.163330	0.780273	0.110352	-82.781685	11.696582	75.363298
46578		-2.005672	-9.572644	1.216574	-0.002807	0.001227	-0.000109	-1.155518	0.786865	0.120605	-82.781840	11.696239	75.362395
46579		-2.000725	-9.570199	1.192520	-0.002216	0.002627	0.000073	-1.159424	0.780273	0.114258	-82.781705	11.696644	75.362803
46580		-2.022324	-9.554778	1.214563	-0.000170	-0.000085	0.001652	-1.162109	0.786377	0.109863	-82.780168	11.697207	75.362791
46581		-1.993639	-9.558719	1.245073	-0.003570	-0.000258	0.001361	-1.160400	0.774902	0.108643	-82.780412	11.698107	75.362683
46582		-2.017692	-9.552287	1.190335	-0.001202	0.005342	0.002090	-1.161865	0.786377	0.114990	-82.780098	11.699310	75.359552
46583		-2.017636	-9.552342	1.189990	-0.005054	-0.000790	-0.003833	-1.161621	0.781982	0.110596	-82.781222	11.697101	75.358899
46584		-2.010204	-9.540939	1.242545	-0.001574	0.000528	0.001597	-1.158203	0.777100	0.109863	-82.780562	11.697678	75.358527
46585		-2.022562	-9.554900	1.213208	-0.003399	-0.000173	-0.000291	-1.161133	0.778564	0.108154	-82.780743	11.697523	75.356138
46586		-2.010989	-9.575316	1.238265	-0.002807	0.001227	-0.000109	-1.160156	0.784912	0.114746	-82.780897	11.697180	75.355235
46587		-2.023329	-9.589280	1.208912	-0.002758	-0.002271	0.001233	-1.155518	0.779297	0.113281	-82.780445	11.697802	75.355644
46588		-2.005458	-9.538549	1.217707	-0.002978	0.001142	0.001543	-1.160645	0.782715	0.113525	-82.780662	11.698392	75.354911
46589		-2.022802	-9.554964	1.212303	0.001404	-0.000614	0.000054	-1.160156	0.791260	0.109619	-82.778066	11.698484	75.355164
46590		-1.994074	-9.558908	1.242922	-0.002386	0.002542	0.001726	-1.164795	0.778564	0.119629	-82.778106	11.699278	75.353632
46591		-2.007123	-9.607194	1.209810	-0.002637	0.001312	-0.001761	-1.166504	0.785645	0.110596	-82.778078	11.698512	75.354904
46592		-2.012841	-9.550071	1.164220	-0.000641	0.002099	-0.001524	-1.169678	0.778809	0.122803	-82.777115	11.697428	75.353391
46593		-2.005478	-9.538629	1.217054	0.000592	0.001400	0.000183	-1.159424	0.781494	0.109619	-82.775271	11.697513	75.357131
46594		-2.006228	-9.572948	1.213258	-0.001404	0.000614	-0.000054	-1.162598	0.780273	0.118408	-82.774548	11.697156	75.356588
46595		-2.022717	-9.555067	1.211632	0.001354	0.002885	-0.001287	-1.158447	0.779297	0.111572	-82.772427	11.696653	75.355724
46596		-1.975813	-9.508295	1.251454	0.001354	0.002885	-0.001287	-1.150879	0.777832	0.119385	-82.770410	11.695760	75.353771
46597		-1.993705	-9.559065	1.242303	-0.002045	0.002712	-0.001578	-1.157227	0.776611	0.116699	-82.770247	11.695138	75.352193
46598		-2.027323	-9.557669	1.235083	-0.002687	0.004811	-0.003102	-1.152344	0.775146	0.112549	-82.770799	11.693352	75.348989
46599		-2.005731	-9.573117	1.212753	0.001184	0.002800	0.000365	-1.157959	0.787109	0.115723	-82.768771	11.693736	75.346589
46600		-2.010049	-9.541280	1.240173	-0.001624	0.004027	0.000256	-1.159180	0.783203	0.110840	-82.768572	11.693802	75.344088
46601		-2.010817	-9.575613	1.236244	-0.001404	0.000613	-0.000055	-1.150146	0.784424	0.110596	-82.767709	11.694072	75.344346
46602		-2.027335	-9.557752	1.234418	-0.003399	-0.000173	-0.000292	-1.160889	0.781982	0.108643	-82.768040	11.693525	75.344243
46603		-2.000739	-9.570730	1.188225	-0.001825	-0.000701	-0.001889	-1.163574	0.781006	0.118408	-82.767252	11.692671	75.341382
46604		-1.971180	-9.540404	1.222424	-0.002978	0.001142	0.001543	-1.160156	0.784180	0.113770	-82.767470	11.693261	75.340650
46605		-2.000112	-9.536447	1.191533	-0.000220	0.003413	0.000311	-1.155273	0.782227	0.115479	-82.766312	11.693727	75.341799
46606		-2.015657	-9.578279	1.258856	-0.003870	0.002011	-0.003467	-1.155762	0.779053	0.125488	-82.767217	11.691532	75.340195
46607		-2.005643	-9.573352	1.211041	-0.000983	0.001928	0.001780	-1.156250	0.779541	0.113525	-82.766361	11.692781	75.344019
46608		-2.027254	-9.557951	1.233009	-0.002808	0.001227	-0.000109	-1.164795	0.779785	0.114502	-82.766515	11.692439	75.343117
46609		-2.005763	-9.573379	1.210623	-0.000812	0.002013	0.000128	-1.165771	0.787109	0.114990	-82.765521	11.692625	75.342791
46610		-2.027295	-9.557986	1.232671	-0.001404	0.000613	-0.000055	-1.157715	0.785156	0.118408	-82.764798	11.692269	75.342249
46611		-2.010036	-9.541584	1.237860	-0.001404	0.000613	-0.000055	-1.163330	0.776367	0.109375	-82.763981	11.692463	75.346126
46612		-2.010784	-9.575912	1.233982	-0.000812	0.002013	0.000128	-1.157959	0.786865	0.107178	-82.763081	11.692313	75.344786
46613		-2.005096	-9.539120	1.213825	-0.001404	0.000613	-0.000055	-1.165039	0.780518	0.114014	-82.762178	11.692397	75.341183
46614		-2.018045	-9.587404	1.180773	-0.002045	0.002712	-0.001578	-1.155518	0.782959	0.107422	-82.762092	11.691327	75.339310
46615		-2.005786	-9.573494	1.209674	-0.001575	0.000528	0.001597	-1.160889	0.778809	0.111084	-82.761287	11.692343	75.337769
46616		-1.993526	-9.559567	1.238723	0.000763	0.001485	-0.001469	-1.154297	0.788574	0.114746	-82.759446	11.691246	75.336617
46617		-2.005841	-9.573505	1.209497	-0.002387	0.002542	0.001726	-1.164551	0.783203	0.108887	-82.759357	11.692612	75.335281
46618		-2.027377	-9.558133	1.231398	-0.002637	0.001312	-0.001761	-1.161133	0.778564	0.117188	-82.759449	11.691337	75.334208
46619		-2.005868	-9.573581	1.208851	-0.004382	0.001755	0.001488	-1.160889	0.787598	0.116455	-82.760440	11.692259	75.334308
46620		-2.006001	-9.573567	1.208740	0.003179	0.003586	0.000604	-1.162354	0.777832	0.116943	-82.757431	11.692492	75.332089
46621		-2.005196	-9.539277	1.212424	-0.004412	-0.002888	-0.002310	-1.164795	0.776123	0.121582	-82.757988	11.691003	75.337390
46622		-2.022423	-9.555727	1.206909	0.000421	0.001315	0.001835	-1.157715	0.785889	0.111816	-82.756274	11.691772	75.336581
46623		-2.010893	-9.576117	1.232210	-0.001233	0.000699	-0.001706	-1.162109	0.782959	0.109375	-82.755432	11.690825	75.339490
46624		-1.989222	-9.591568	1.209897	-0.001233	0.000699	-0.001706	-1.161377	0.771484	0.110840	-82.754646	11.689537	75.338778
46625		-2.004969	-9.539387	1.211935	-0.000812	0.002013	0.000129	-1.156250	0.775146	0.115234	-82.753624	11.689599	75.335527
46626		-2.014834	-9.544398	1.259457	0.001525	0.002971	-0.002938	-1.157471	0.780518	0.120361	-82.751543	11.687776	75.333405
46627		-2.022569	-9.590199	1.202883	0.000342	0.000171	-0.003304	-1.157959	0.774902	0.106445	-82.749790	11.685865	75.335651
46628		-2.005047	-9.573814	1.208370	0.003521	0.003758	-0.002700	-1.158203	0.780762	0.119385	-82.746655	11.684234	75.333090
46629		-2.004062	-9.539545	1.212193	-0.001062	0.000784	-0.003358	-1.157715	0.775391	0.115723	-82.745716	11.682337	75.331537
46630		-1.987152	-9.557499	1.213909	0.003912	0.000430	-0.004663	-1.162598	0.767578	0.113525	-82.741995	11.679349	75.330762
46631		-2.042905	-9.574991	1.225533	-0.000641	0.002099	-0.001523	-1.163818	0.779053	0.117188	-82.741004	11.678272	75.329618
46632		-2.015478	-9.553636	1.183240	-0.000470	0.002184	-0.003175	-1.161621	0.777832	0.111572	-82.739978	11.676256	75.327935
46633		-2.007998	-9.542251	1.236024	-0.000641	0.002099	-0.001523	-1.160645	0.779297	0.106934	-82.738947	11.675409	75.328512
46634		-2.003513	-9.574132	1.208395	-0.001062	0.000784	-0.003358	-1.168945	0.781738	0.114746	-82.738098	11.673188	75.327627
46635		-2.003263	-9.574211	1.208183	-0.003228	-0.000088	-0.001944	-1.159668	0.782715	0.116211	-82.738240	11.672000	75.327732
46636		-2.019723	-9.556346	1.206524	0.001995	0.000787	0.000238	-1.150146	0.779541	0.113281	-82.735586	11.671823	75.327112
46637		-1.990937	-9.560298	1.237244	-0.001404	0.000613	-0.000055	-1.159668	0.783691	0.114258	-82.734780	11.672023	75.327098
46638		-1.985950	-9.557804	1.213475	0.001404	-0.000613	0.000055	-1.155762	0.786133	0.119873	-82.732303	11.671641	75.327278
46639		-2.008157	-9.576744	1.231798	-0.003991	-0.001574	-0.000476	-1.167236	0.785645	0.118652	-82.732741	11.671505	75.331751
46640		-1.969250	-9.575763	1.214783	-0.000421	-0.001315	-0.001835	-1.161865	0.775146	0.114014	-82.731255	11.669998	75.332198
46641		-2.007139	-9.542516	1.235368	0.000171	0.000086	-0.001652	-1.160400	0.782471	0.108398	-82.729542	11.668948	75.336395
46642		-2.007043	-9.542537	1.235361	-0.000591	-0.001400	-0.000183	-1.159424	0.780273	0.105713	-82.728120	11.668374	75.337014
46643		-2.007662	-9.576873	1.231602	0.000171	0.000086	-0.001652	-1.163086	0.771484	0.103516	-82.726271	11.667542	75.332599
46644		-2.007530	-9.576896	1.231640	-0.000370	-0.004813	-0.000495	-1.163330	0.774414	0.109131	-82.724326	11.666543	75.335175
46645		-2.006699	-9.542580	1.235591	0.003570	0.000259	-0.001360	-1.157227	0.774170	0.109131	-82.720587	11.665463	75.329943
46646		-2.011528	-9.545106	1.259374	-0.003228	-0.000088	-0.001944	-1.157471	0.781494	0.115234	-82.720856	11.663982	75.329669
46647		-1.990051	-9.560522	1.236941	-0.002337	-0.000958	0.003066	-1.159912	0.781006	0.115234	-82.720340	11.665656	75.329346
46648		-2.006715	-9.542642	1.235088	-0.003399	-0.000174	-0.000292	-1.159668	0.775635	0.106445	-82.720672	11.665108	75.329245
46649		-1.973687	-9.578460	1.237865	-0.004974	0.000354	0.001305	-1.159424	0.791748	0.110596	-82.721828	11.665838	75.327724
46650		-1.977309	-9.512356	1.268831	-0.001404	0.000613	-0.000054	-1.160645	0.776367	0.121582	-82.721105	11.665483	75.327183
46651		-2.014815	-9.588495	1.177426	-0.004803	0.000440	-0.000347	-1.162354	0.778320	0.111328	-82.722236	11.665475	75.330292
46652		-1.990309	-9.560670	1.235384	-0.001354	-0.002886	0.001285	-1.167480	0.780518	0.119141	-82.721054	11.665627	75.331882
46653		-2.006952	-9.542767	1.233739	-0.000762	-0.001486	0.001469	-1.161377	0.778809	0.105225	-82.719638	11.666196	75.335980
46654		-2.002057	-9.540276	1.209753	-0.004753	-0.003059	0.000993	-1.163818	0.784424	0.110352	-82.720388	11.666169	75.337649
46655		-1.985691	-9.558185	1.210894	-0.005145	0.000268	0.002957	-1.161865	0.782715	0.116211	-82.721547	11.667906	75.335022
46656		-1.990908	-9.560708	1.234122	-0.006920	-0.003932	0.002408	-1.153809	0.790771	0.111816	-82.723415	11.668620	75.337301
46657		-2.019917	-9.556768	1.202856	-0.006328	-0.002532	0.002591	-1.156738	0.778564	0.114258	-82.724980	11.670235	75.340521
46658		-1.978973	-9.546874	1.262049	-0.007561	-0.001832	0.000885	-1.160400	0.779053	0.115234	-82.727485	11.670236	75.341470
46659		-2.025146	-9.559401	1.225210	-0.010319	-0.004105	0.002116	-1.165771	0.781494	0.109375	-82.731216	11.671111	75.344984
46660		-2.008074	-9.543035	1.229831	-0.006328	-0.002532	0.002591	-1.166504	0.780518	0.114990	-82.732906	11.672032	75.346465
46661		-1.991834	-9.560947	1.230772	-0.007903	-0.002004	0.004189	-1.158447	0.775635	0.111084	-82.735426	11.674144	75.348972
46662		-2.004488	-9.574866	1.200937	-0.007903	-0.002004	0.004190	-1.158936	0.785156	0.113281	-82.738056	11.676011	75.350265
46663		-1.997407	-9.563510	1.253197	-0.006158	-0.002445	0.000940	-1.164551	0.782471	0.110840	-82.739568	11.676410	75.350805
46664		-2.031358	-9.562089	1.245595	-0.008544	0.000095	0.002668	-1.163086	0.776855	0.112305	-82.742835	11.677565	75.350766
46665		-1.992825	-9.561108	1.227916	-0.009136	-0.001305	0.002484	-1.157715	0.782471	0.114258	-82.746164	11.678762	75.351335
46666		-2.014462	-9.545816	1.249264	-0.009557	-0.002618	0.000649	-1.164063	0.775879	0.109375	-82.749723	11.678572	75.352723
46667		-2.014590	-9.545920	1.248265	-0.011944	-0.000077	0.002378	-1.156006	0.785156	0.106934	-82.754807	11.679852	75.351943
46668		-2.010626	-9.577786	1.219613	-0.011303	-0.002177	0.003900	-1.161377	0.775879	0.114502	-82.759369	11.681542	75.353314
46669		-1.988023	-9.524609	1.203837	-0.013519	0.000450	0.003977	-1.161865	0.782715	0.114746	-82.765366	11.683887	75.351202
46670		-2.027684	-9.560098	1.215539	-0.015545	-0.004976	-0.000062	-1.165527	0.777588	0.114746	-82.772089	11.683124	75.353906
46671		-1.999072	-9.564263	1.244771	-0.016277	-0.001823	0.005209	-1.169434	0.785889	0.113281	-82.779445	11.685832	75.356894
46672		-1.994476	-9.561853	1.219404	-0.018102	-0.002522	0.003321	-1.154053	0.781494	0.118896	-82.787871	11.687169	75.358422
46673		-1.999049	-9.530248	1.245205	-0.020861	-0.004795	0.004552	-1.152832	0.780518	0.111328	-82.797505	11.689478	75.364006
46674		-2.001749	-9.539191	1.166556	-0.022857	-0.005580	0.004316	-1.161377	0.787109	0.115479	-82.808281	11.691162	75.367382
46675		-2.016938	-9.547056	1.235717	-0.024091	-0.004879	0.002613	-1.159424	0.783447	0.109863	-82.819734	11.692500	75.369692
46676		-1.995611	-9.562659	1.211193	-0.026087	-0.005664	0.002377	-1.159668	0.778320	0.113525	-82.832379	11.693078	75.372974
46677		-1.992696	-9.519936	1.289214	-0.028303	-0.003036	0.002459	-1.164795	0.777832	0.110840	-82.846456	11.694282	75.372728
46678		-1.992603	-9.520386	1.286030	-0.037126	0.009928	-0.005346	-1.154785	0.785400	0.115234	-82.867375	11.691581	75.366396
46679		-1.990517	-9.561275	1.178135	-0.036338	-0.002677	0.000179	-1.159424	0.781494	0.117188	-82.886135	11.691535	75.366667
46680		-2.034184	-9.565341	1.215654	-0.031095	-0.009945	-0.000115	-1.157227	0.773682	0.120850	-82.901183	11.690396	75.372253
46681		-1.952676	-9.486381	1.263507	-0.035630	-0.016416	0.000563	-1.158691	0.783447	0.112061	-82.918017	11.689439	75.383893
46682		-2.003857	-9.501712	1.247566	-0.047917	-0.016672	0.006261	-1.164307	0.778809	0.110596	-82.941818	11.691454	75.393845
46683		-1.966281	-9.535308	1.223027	-0.038853	-0.022459	0.008089	-1.163574	0.786621	0.113525	-82.959533	11.694471	75.404063
46684		-2.018039	-9.550473	1.207188	-0.045353	-0.025083	0.012342	-1.159668	0.782471	0.115723	-82.980786	11.699362	75.419334
46685		-2.013730	-9.548171	1.179697	-0.043441	-0.025425	0.007441	-1.159912	0.782959	0.116211	-83.000799	11.701929	75.433276
46686		-2.021686	-9.559529	1.123544	-0.035357	-0.029292	0.011049	-1.160889	0.779785	0.115967	-83.015846	11.705801	75.450896
46687		-2.019782	-9.551336	1.197403	-0.036423	-0.028495	0.007700	-1.163574	0.779785	0.115723	-83.031497	11.708194	75.466337
46688		-2.024979	-9.554263	1.218598	-0.029284	-0.027972	0.004966	-1.158203	0.779785	0.113281	-83.043307	11.708707	75.482757
46689		-1.984640	-9.484875	1.207492	-0.026455	-0.018599	-0.000574	-1.156250	0.777344	0.116699	-83.054502	11.707014	75.489734
46690		-2.012874	-9.481004	1.175173	-0.015132	-0.005814	-0.010135	-1.164307	0.787354	0.114258	-83.061032	11.700477	75.492215
46691		-2.004678	-9.504719	1.223107	-0.007367	-0.001420	-0.020813	-1.159668	0.782715	0.113037	-83.063590	11.688592	75.488251
46692		-2.028152	-9.566893	1.160031	-0.006232	0.004881	-0.021768	-1.158936	0.787354	0.122559	-83.066445	11.676179	75.483699
46693		-2.043192	-9.583810	1.154030	-0.004864	-0.000360	-0.025534	-1.161377	0.779053	0.105957	-83.067769	11.661835	75.480736
46694		-1.955014	-9.536792	1.176740	-0.003884	-0.002280	-0.027322	-1.160400	0.778076	0.128418	-83.068516	11.645768	75.479952
46695		-2.004404	-9.586407	1.160694	0.007978	-0.001166	-0.022937	-1.161133	0.781006	0.118896	-83.062384	11.632560	75.476670
46696		-2.005503	-9.629343	1.081036	0.013427	-0.003713	-0.021091	-1.157959	0.781738	0.125977	-83.052956	11.619939	75.477155
46697		-2.000294	-9.586952	1.163284	0.016660	-0.003633	-0.019156	-1.168701	0.776123	0.116455	-83.041565	11.608868	75.479877
46698		-1.968675	-9.557088	1.199287	0.011970	0.000404	-0.022465	-1.166016	0.787354	0.119385	-83.033473	11.595750	75.477870
46699		-1.991080	-9.584876	1.141946	0.010089	0.003214	-0.025678	-1.162598	0.786377	0.122314	-83.026688	11.581301	75.472670
46700		-2.010792	-9.604353	1.161249	0.012031	0.007504	-0.026771	-1.156494	0.785156	0.116699	-83.019449	11.566230	75.466232
46701		-1.973768	-9.680406	1.060895	0.017567	0.006085	-0.019783	-1.168213	0.774658	0.123047	-83.008607	11.555744	75.461964
46702		-1.967182	-9.677822	1.039459	0.030741	-0.005128	-0.014849	-1.158203	0.779785	0.114746	-82.989008	11.546573	75.463702
46703		-1.970376	-9.646035	1.070657	0.038696	-0.004449	-0.005789	-1.166992	0.773682	0.119629	-82.964706	11.542858	75.465550
46704		-1.955181	-9.623388	1.180846	0.048615	-0.007609	-0.000303	-1.168701	0.788574	0.118652	-82.934372	11.541783	75.469764
46705		-1.932509	-9.569397	1.171317	0.050695	-0.005693	0.005076	-1.167725	0.782227	0.118408	-82.902894	11.544199	75.473722
46706		-1.932930	-9.568657	1.176652	0.059436	-0.001053	0.004551	-1.160645	0.777832	0.120605	-82.867051	11.546344	75.474482
46707		-1.945446	-9.547218	1.157793	0.073008	-0.002813	0.013819	-1.161133	0.773682	0.114746	-82.823013	11.553963	75.478336
46708		-1.953064	-9.582774	1.185271	0.082782	-0.012014	0.030435	-1.165771	0.782959	0.116455	-82.772138	11.570032	75.487357
46709		-1.947783	-9.535613	1.249951	0.078396	-0.010262	0.031951	-1.167969	0.781006	0.124268	-82.723845	11.587344	75.494638
46710		-1.936936	-9.560538	1.183113	0.091118	-0.014637	0.037567	-1.156982	0.780762	0.110107	-82.667769	11.607260	75.505742
46711		-1.942602	-9.517917	1.296646	0.098512	-0.010694	0.050272	-1.162842	0.786865	0.120117	-82.607641	11.634999	75.516783
46712		-1.944240	-9.581796	1.274245	0.083898	-0.011898	0.059067	-1.161865	0.778564	0.119141	-82.555675	11.667312	75.527965
46713		-1.958752	-9.625250	1.225536	0.073687	-0.020789	0.075844	-1.158447	0.786377	0.119141	-82.508221	11.708783	75.549549
46714		-1.966768	-9.622714	1.232594	0.059508	-0.045314	0.099197	-1.157227	0.782227	0.119873	-82.465635	11.761369	75.583246
46715		-1.954360	-9.601107	1.220077	0.042849	-0.068426	0.119165	-1.157715	0.784180	0.123535	-82.429477	11.823899	75.636218
46716		-2.026739	-9.617794	1.260333	0.023496	-0.078566	0.138497	-1.159668	0.783691	0.112549	-82.402845	11.896251	75.692331
46717		-2.004756	-9.581996	1.273928	0.007182	-0.090904	0.149511	-1.160645	0.784424	0.118896	-82.383795	11.974053	75.758764
46718		-2.031836	-9.627185	1.242734	-0.017176	-0.102853	0.158278	-1.152588	0.785400	0.116699	-82.377048	12.055759	75.830593
46719		-2.086328	-9.659071	1.255798	-0.037736	-0.115733	0.177346	-1.156982	0.788330	0.113037	-82.380045	12.147356	75.911730
46720		-2.088926	-9.607656	1.286224	-0.060376	-0.122376	0.193525	-1.151367	0.790283	0.112305	-82.394843	12.247606	75.997679
46721		-2.105484	-9.570093	1.285319	-0.091792	-0.133576	0.210328	-1.150146	0.782715	0.115234	-82.425645	12.356686	76.085608
46722		-2.092351	-9.603009	1.281068	-0.117479	-0.149582	0.233901	-1.151611	0.788818	0.123291	-82.468773	12.477906	76.190457
46723		-2.139993	-9.526489	1.249154	-0.142559	-0.161729	0.249561	-1.153564	0.789551	0.119141	-82.524183	12.606908	76.298552
46724		-2.202067	-9.557537	1.251712	-0.160641	-0.155905	0.255734	-1.139648	0.791260	0.126465	-82.590441	12.740260	76.408609
46725		-2.218586	-9.617444	1.183739	-0.173395	-0.157293	0.259975	-1.135010	0.797363	0.126953	-82.663417	12.875755	76.513366
46726		-2.180203	-9.554970	1.238090	-0.185892	-0.150447	0.265048	-1.142822	0.790771	0.125000	-82.744242	13.015070	76.620703
46727		-2.224914	-9.535651	1.245368	-0.206427	-0.149081	0.277479	-1.142578	0.797119	0.132813	-82.836427	13.161497	76.720893
46728		-2.204319	-9.560994	1.158616	-0.224193	-0.138456	0.286005	-1.143555	0.794189	0.132080	-82.939994	13.313914	76.822419
46729		-2.206580	-9.499388	1.225208	-0.243811	-0.127447	0.299556	-1.140625	0.796387	0.136230	-83.055766	13.474661	76.912650
46730		-2.001936	-9.654082	1.104991	-0.256296	-0.079385	0.332483	-1.138672	0.803711	0.129395	-83.184615	13.657969	76.982394
46731		-2.144150	-9.612278	1.114146	-0.280823	-0.044298	0.382038	-1.136475	0.803223	0.130615	-83.331342	13.872136	77.032833
46732		-2.265619	-9.712977	1.010173	-0.265327	-0.010124	0.409009	-1.131104	0.813965	0.140869	-83.473627	14.103890	77.066338
46733		-2.187677	-9.769704	0.875242	-0.244521	0.021207	0.439523	-1.132080	0.800781	0.140381	-83.607919	14.355371	77.082847
46734		-2.361503	-9.710722	0.808713	-0.215733	0.039812	0.491404	-1.122314	0.801270	0.143066	-83.727765	14.637350	77.091325
46735		-2.330033	-9.695079	0.828756	-0.201017	0.044346	0.529183	-1.122314	0.807861	0.142334	-83.839270	14.941390	77.098962
46736		-2.377748	-9.608635	1.019296	-0.189591	0.060269	0.569786	-1.119873	0.816650	0.142822	-83.946199	15.269301	77.099194
46737		-2.487007	-9.607372	0.988428	-0.178908	0.077210	0.603821	-1.113770	0.824463	0.148438	-84.049204	15.617855	77.090886
46738		-2.411115	-9.982577	1.025735	-0.119807	0.094145	0.627626	-1.111084	0.813232	0.145996	-84.120955	15.980729	77.073461
46739		-2.547945	-9.713511	1.005716	-0.074105	0.110342	0.669371	-1.108643	0.816406	0.143555	-84.168648	16.368544	77.048524
46740		-2.688241	-9.661844	0.937017	-0.035502	0.113892	0.700936	-1.096680	0.821289	0.145752	-84.194605	16.774323	77.023091
46741		-2.735667	-9.783319	0.794340	-0.001813	0.103181	0.727370	-1.093018	0.834473	0.152100	-84.199081	17.194749	77.005466
46742		-2.851486	-9.797028	0.706189	0.051548	0.081601	0.762779	-1.094482	0.828369	0.145264	-84.168660	17.633903	77.002955
46743		-2.848404	-9.680016	0.839669	0.106256	0.063649	0.804125	-1.080078	0.848145	0.139160	-84.102658	18.095768	77.014106
46744		-2.791754	-9.513279	1.194073	0.112062	0.069384	0.853441	-1.072266	0.836670	0.142334	-84.033225	18.585870	77.025509
46745		-2.881462	-9.492821	1.124846	0.090805	0.072810	0.925041	-1.062256	0.840820	0.139160	-83.974821	19.117143	77.039982
46746		-2.951698	-9.634457	0.941285	0.079637	0.066015	0.996798	-1.057129	0.848877	0.140869	-83.919651	19.688697	77.063770
46747		-2.999098	-9.776923	0.864849	0.084648	0.057652	1.070204	-1.062988	0.854492	0.131104	-83.857712	20.301695	77.098104
46748		-3.025547	-9.801480	0.934529	0.108472	0.052537	1.167033	-1.048584	0.858154	0.126221	-83.778142	20.969336	77.142885
46749		-2.947488	-9.807123	0.982118	0.106749	0.042864	1.288571	-1.042480	0.855957	0.131592	-83.693421	21.705661	77.202981
46750		-2.920602	-9.919190	1.086846	0.103450	0.049516	1.448194	-1.030762	0.863281	0.136475	-83.606741	22.533089	77.271418
46751		-2.925128	-9.920300	1.197613	0.073682	0.057773	1.636010	-1.020508	0.872803	0.136719	-83.532305	23.467976	77.349562
46752		-2.904160	-9.827649	1.472155	0.012311	0.075986	1.839045	-1.007813	0.887939	0.123779	-83.489943	24.519469	77.432362
46753		-3.054435	-9.774763	1.427007	-0.044609	0.097311	2.083589	-0.984131	0.886475	0.132813	-83.476335	25.711542	77.520680
46754		-3.260948	-9.935469	1.101328	-0.078001	0.081281	2.325554	-0.977051	0.894531	0.129639	-83.467299	27.040270	77.637927
46755		-3.324568	-9.843351	1.133280	-0.082060	0.061263	2.598746	-0.950439	0.896484	0.134521	-83.441647	28.523119	77.790241
46756		-3.411399	-9.847605	1.235655	-0.065665	0.048110	2.916462	-0.933350	0.911377	0.129883	-83.385328	30.185891	77.978522
46757		-3.573924	-9.804055	1.433134	-0.060192	0.007323	3.241687	-0.899414	0.915283	0.136963	-83.290687	32.030687	78.225226
46758		-3.823360	-9.745406	1.518732	-0.065470	-0.006148	3.614016	-0.873779	0.927002	0.129883	-83.165467	34.086138	78.520504
46759		-4.417496	-10.333751	1.754217	-0.040836	-0.032776	4.003289	-0.844238	0.937500	0.133545	-82.978731	36.360249	78.881939
46760		-4.937278	-10.485947	2.118451	-0.062834	-0.036998	4.372159	-0.809082	0.950928	0.129639	-82.757471	38.842941	79.300788
46761		-6.385186	-11.605775	2.743371	-0.127689	0.051513	4.711830	-0.777832	0.954346	0.131592	-82.562398	41.523565	79.713924
46762		-8.000538	-12.835258	2.888862	-0.181322	0.209208	4.959616	-0.734375	0.957520	0.134521	-82.430055	44.356175	80.058219
46763		-10.964198	-16.353938	2.342594	0.010830	0.373873	5.071507	-0.682617	0.957031	0.135010	-82.241883	47.263698	80.309733
46764		-10.263311	-17.350145	2.091781	0.357222	0.584214	5.153274	-0.656006	0.963135	0.132080	-81.950820	50.233919	80.422363
46765		-8.831762	-16.975102	2.766466	0.677067	0.784229	5.312999	-0.606201	0.962402	0.119629	-81.571918	53.309912	80.408894
46766		-8.206110	-17.218984	3.071272	0.976482	0.987989	5.448627	-0.561768	0.959229	0.111816	-81.139614	56.480989	80.251322
46767		-8.778865	-16.634178	2.425393	1.235591	1.211019	5.456415	-0.508789	0.953125	0.101318	-80.739528	59.676038	79.886998
46768		-7.577007	-15.015925	2.109897	1.106151	1.521043	5.328943	-0.466553	0.942383	0.095703	-80.778741	62.829307	79.117641
46769		-4.763957	-13.620152	1.961663	0.695576	1.730653	5.371787	-0.425537	0.936523	0.089600	-81.431306	66.021633	77.951450
46770		-3.322250	-12.003217	1.511302	0.290627	1.818026	5.577832	-0.375000	0.923828	0.083496	-82.702316	69.330598	76.396294
46771		-0.100277	-13.859707	1.511856	0.124165	1.786953	5.451727	-0.348633	0.908936	0.074707	-84.572793	72.546530	74.341813
46772		0.903114	-11.017282	1.712992	0.127910	1.763333	5.082042	-0.296631	0.893066	0.092041	-87.300795	75.523154	71.427449
46773		0.099897	-7.974704	1.044422	0.321994	1.511212	4.771755	-0.264160	0.871338	0.089844	-90.620181	78.270836	67.830126
46774		-6.767731	-19.781920	2.399427	0.602453	1.200112	3.315095	-0.241943	0.851807	0.093750	-94.306402	80.139724	63.725005
46775		-2.698472	-20.557622	3.296465	1.017646	0.910540	1.047787	-0.230469	0.851563	0.089355	-97.143521	80.681853	60.255738
46776		-3.385769	-17.777186	3.044137	1.026845	0.704231	-0.879447	-0.237305	0.854248	0.080566	-98.512652	80.127221	58.268854
46777		-2.292894	-13.823809	2.894068	0.785179	0.428753	-2.347576	-0.248047	0.852783	0.084717	-98.301800	78.756543	58.025202
46778		-1.640525	-11.429977	2.469256	0.511646	0.208579	-3.350899	-0.269531	0.873779	0.069336	-97.346190	76.837788	58.701176
46779		-1.082476	-9.929042	1.831535	0.331390	0.011550	-4.010707	-0.285400	0.892578	0.067139	-96.117506	74.550083	59.772513
46780		-0.318980	-8.854868	1.094314	0.361119	-0.172626	-4.416912	-0.320068	0.911621	0.073242	-94.780228	72.039677	60.950661
46781		0.253906	-8.149675	0.505878	0.515659	-0.286295	-4.602477	-0.357910	0.920166	0.057373	-93.468010	69.416005	62.026913
46782		0.125275	-8.119355	-0.115439	0.793618	-0.377167	-4.675865	-0.387451	0.940186	0.059570	-92.148964	66.750264	62.956474
46783		-0.234938	-8.637351	-0.727932	1.212467	-0.457285	-4.676431	-0.422119	0.960205	0.046143	-90.729639	64.072691	63.752366
46784		-0.546291	-8.656587	-0.934223	1.680162	-0.517094	-4.661796	-0.455811	0.977783	0.022217	-89.193851	61.401082	64.394899
46785		-0.764858	-7.732222	-0.795927	1.991878	-0.569072	-4.674144	-0.501709	0.985352	0.012451	-87.612074	58.709039	64.902116
46786		-1.385452	-6.761082	-0.558398	2.068694	-0.643871	-4.724679	-0.537354	0.992188	-0.008301	-86.082626	55.985455	65.308566
46787		-2.253768	-6.102215	-0.185248	1.883419	-0.792264	-4.762330	-0.585693	0.996826	-0.033936	-84.672502	53.222965	65.713280
46788		-2.811388	-5.325283	0.368414	1.422337	-0.980440	-4.785263	-0.631104	1.005859	-0.052979	-83.504314	50.437563	66.160178
46789		-2.997349	-5.164496	0.911447	0.813975	-1.128420	-4.814219	-0.694824	1.010742	-0.047852	-82.677734	47.615122	66.635787
46790		-3.188523	-5.708900	1.004501	0.221231	-1.260475	-4.830554	-0.732422	0.999268	-0.048096	-82.183133	44.776006	67.143010
46791		-3.108006	-7.097931	1.024790	-0.176731	-1.345759	-4.801893	-0.789307	1.004150	-0.046387	-81.919716	41.938065	67.672546
46792		-3.106223	-9.042036	0.741991	-0.291773	-1.362615	-4.754338	-0.838135	0.997559	-0.027100	-81.755260	39.130386	68.180200
46793		-3.310646	-11.121112	0.399811	-0.081025	-1.311055	-4.715554	-0.888428	0.992432	-0.024658	-81.527864	36.341462	68.625628
46794		-3.638045	-12.602235	0.328913	0.387346	-1.198521	-4.674683	-0.932129	0.958984	-0.026123	-81.112293	33.589732	68.960484
46795		-4.190729	-13.311629	0.675249	0.913682	-1.041354	-4.621758	-0.978271	0.956055	-0.029297	-80.481997	30.873531	69.158202
46796		-5.143041	-13.652711	1.404570	1.330518	-0.889764	-4.573876	-1.014648	0.931152	-0.017822	-79.689114	28.203908	69.216554
46797		-6.631992	-13.538720	2.529607	1.509141	-0.781078	-4.557411	-1.062744	0.902588	-0.033447	-78.845651	25.548138	69.166333
46798		-8.108111	-12.403959	3.929418	1.332963	-0.802304	-4.571236	-1.101563	0.879150	-0.035645	-78.112932	22.889630	69.086428
46799		-8.907239	-11.268967	5.215762	0.744386	-0.973922	-4.609436	-1.132324	0.859863	-0.030273	-77.687220	20.183454	69.079784
46800		-9.326772	-11.756492	5.938720	-0.009854	-1.251452	-4.669810	-1.175537	0.828613	-0.016602	-77.647375	17.416084	69.215823
46801		-9.639134	-13.961940	6.105569	-0.528230	-1.561817	-4.753650	-1.222168	0.801025	-0.004395	-77.862632	14.557944	69.526496
46802		-9.943474	-16.359865	5.731374	-0.601319	-1.832585	-4.861729	-1.256348	0.773438	0.010986	-78.101725	11.614433	69.985128
46803		-10.449328	-17.204698	5.285766	-0.319308	-2.029746	-4.961377	-1.288818	0.732666	0.023926	-78.183563	8.587034	70.549687
46804		-10.923595	-16.100000	4.612351	0.050767	-2.142929	-4.981528	-1.326172	0.697266	0.046875	-78.076693	5.540921	71.168576
46805		-11.280628	-14.243434	4.222658	0.278608	-2.175887	-4.849468	-1.352783	0.653564	0.061279	-77.869293	2.557527	71.812158
46806		-12.040991	-12.843055	3.972687	0.307209	-2.122826	-4.618220	-1.378906	0.618896	0.077881	-77.679145	-0.286463	72.440372
46807		-12.748076	-11.891797	3.753051	0.250297	-1.998799	-4.310483	-1.401367	0.579102	0.090088	-77.549998	-2.949880	73.030911
46808		-13.495000	-11.125903	3.554872	0.183319	-1.809211	-3.972442	-1.417480	0.540283	0.099121	-77.481246	-5.396566	73.552111
46809		-13.993895	-10.396528	3.440755	0.139707	-1.592511	-3.622222	-1.433350	0.502441	0.112061	-77.449106	-7.625367	73.996496
46810		-14.270429	-9.391096	3.208857	0.125410	-1.369658	-3.255151	-1.447266	0.470947	0.122559	-77.430218	-9.616821	74.360764
46811		-14.607485	-8.277991	2.875074	0.167123	-1.164463	-2.832843	-1.450439	0.448975	0.137207	-77.387117	-11.350428	74.664163
46812		-15.147625	-7.179579	2.540619	0.254232	-1.004291	-2.371214	-1.464111	0.418701	0.133057	-77.296184	-12.802468	74.933615
46813		-15.498792	-5.987075	2.060170	0.353290	-0.904070	-1.898225	-1.470703	0.398926	0.144043	-77.154384	-13.980985	75.206493
46814		-15.450482	-4.542457	1.650020	0.405559	-0.832175	-1.399377	-1.474609	0.386475	0.161133	-76.993722	-14.869469	75.500923
46815		-14.890746	-3.252095	1.318911	0.366786	-0.771381	-0.877125	-1.481201	0.364258	0.172363	-76.867047	-15.461436	75.829783
46816		-14.209629	-2.948870	1.138568	0.251079	-0.673084	-0.346199	-1.481689	0.362793	0.169189	-76.813742	-15.742741	76.172559
46817		-13.343239	-3.501447	0.854093	0.138096	-0.550736	0.129329	-1.485596	0.363770	0.170410	-76.823579	-15.744290	76.509661
46818		-13.848027	-2.116454	1.680613	-0.179594	0.044073	1.351173	-1.470703	0.369873	0.168701	-76.966257	-14.984920	76.665968
46819		-17.073774	3.113517	-2.392164	-0.801879	0.287878	3.164973	-1.472168	0.400146	0.171875	-77.483560	-13.180985	76.913691
46820		-4.679398	-1.256734	0.379292	-1.243375	0.133226	3.462149	-1.475830	0.418945	0.184326	-78.268319	-11.225901	77.263360
46821		0.143979	-10.236780	-1.741026	-1.365156	0.225199	3.313900	-1.473877	0.445801	0.190674	-79.092878	-9.339328	77.513583
46822		3.499330	-10.877477	-1.388477	-1.666701	0.240526	3.365654	-1.458740	0.478516	0.195801	-80.077632	-7.418196	77.728723
46823		-1.264578	-12.937038	-2.412497	-1.491720	0.324176	3.829511	-1.459717	0.509277	0.208740	-80.950051	-5.224011	77.908268
46824		-1.860534	-13.518983	-2.277859	-0.693870	0.346086	4.312231	-1.451660	0.542236	0.210205	-81.358849	-2.752555	78.092503
46825		-3.423751	-17.193230	-1.002163	-0.355274	0.674575	4.263647	-1.435303	0.574463	0.202393	-81.560029	-0.279775	78.073017
46826		-5.508519	-21.027586	0.806826	0.117234	0.861753	4.137264	-1.433594	0.606934	0.201904	-81.493468	2.137207	77.933747
46827		-7.084365	-16.558536	3.172654	0.238739	0.601827	3.719829	-1.407715	0.633789	0.196045	-81.356241	4.295917	77.910346
46828		-7.099579	-16.628827	4.646969	0.130323	0.307770	3.128201	-1.394531	0.654541	0.195801	-81.271181	6.093945	78.006919
46829		-5.519971	-13.940673	3.920056	-0.049409	0.170639	2.604619	-1.382813	0.673096	0.205322	-81.282150	7.583968	78.137309
46830		-6.619209	-12.821795	6.073418	-0.424443	0.251567	2.072347	-1.378174	0.699951	0.197754	-81.518699	8.779164	78.172507
46831		-4.636263	-11.044033	3.012458	-0.929146	0.130010	1.425979	-1.368164	0.703857	0.205322	-82.042163	9.598784	78.215965
46832		-3.451269	-12.971752	0.242510	-0.937484	0.318412	1.101507	-1.365234	0.709229	0.211426	-82.594572	10.248244	78.117877
46833		-3.814443	-12.584686	-0.338630	-0.614857	0.359431	0.667046	-1.364014	0.718750	0.204590	-82.973762	10.653717	77.958736
46834		-2.867744	-11.215033	0.467445	-0.398988	0.287954	0.479464	-1.360107	0.721191	0.207275	-83.225708	10.945882	77.825412
46835		-2.974080	-11.477209	-0.269207	-0.247369	0.204291	0.339703	-1.362549	0.729248	0.208496	-83.383861	11.153339	77.729821
46836		-2.535755	-10.756410	0.151040	-0.102842	0.141354	0.222794	-1.354492	0.725830	0.213379	-83.454240	11.289051	77.662534
46837		-2.308200	-10.245178	0.597861	-0.036971	0.097796	0.170259	-1.359131	0.726807	0.208008	-83.482590	11.392877	77.616753
46838		-2.170236	-9.995706	0.800838	-0.024426	0.064308	0.132465	-1.353760	0.726074	0.206055	-83.500644	11.472081	77.588003
46839		-1.965305	-9.551398	1.215992	-0.033593	0.052113	0.110654	-1.357666	0.722412	0.204834	-83.522725	11.538994	77.564700
46840		-1.968396	-9.543521	1.162859	-0.060097	0.041715	0.113176	-1.360107	0.729492	0.210205	-83.558924	11.605735	77.547726
46841		-1.990671	-9.689136	0.960301	-0.060652	0.036814	0.114361	-1.356445	0.729248	0.205811	-83.594731	11.673754	77.533477
46842		-2.210609	-10.049441	0.720989	-0.044321	0.028830	0.089342	-1.361816	0.723389	0.202393	-83.620741	11.726084	77.522356
46843		-2.106902	-9.982711	0.595521	-0.012056	0.022436	0.062011	-1.357910	0.728027	0.210938	-83.627748	11.763370	77.512995
46844		-2.171405	-9.967704	0.637253	0.021462	0.013603	0.052943	-1.350342	0.741699	0.205078	-83.614761	11.794002	77.508348
46845		-2.145006	-10.036702	0.637010	0.050226	-0.008930	0.050594	-1.351074	0.725098	0.212158	-83.582536	11.822793	77.516484
46846		-2.076604	-9.898730	0.773153	0.053969	-0.028894	0.065556	-1.354248	0.733398	0.213379	-83.545680	11.857881	77.537416
46847		-2.025509	-9.673465	1.042543	0.044310	-0.050198	0.069564	-1.351807	0.733643	0.212158	-83.511652	11.894798	77.570834
46848		-2.027653	-9.569099	1.061447	0.038934	-0.043981	0.064875	-1.357666	0.736328	0.216553	-83.481573	11.928495	77.600547
46849		-2.068606	-9.599565	1.055465	0.032018	-0.037246	0.061825	-1.348633	0.737061	0.199951	-83.456206	11.961817	77.625960
46850		-2.046942	-9.571992	1.117049	0.029166	-0.032487	0.060479	-1.349609	0.733398	0.212158	-83.433130	11.993737	77.648729
46851		-2.031098	-9.551220	1.101698	0.027757	-0.038019	0.071607	-1.346191	0.732910	0.215088	-83.409937	12.032557	77.675284
46852		-2.038790	-9.514507	1.233848	0.019152	-0.045987	0.072015	-1.358887	0.733398	0.212158	-83.390762	12.070137	77.706718
46853		-2.002267	-9.474604	1.198279	0.004716	-0.046206	0.087993	-1.354004	0.732910	0.207275	-83.379492	12.117725	77.739180
46854		-2.072868	-9.530782	1.131250	-0.005478	-0.050134	0.088729	-1.348633	0.730957	0.219238	-83.373629	12.164530	77.774186
46855		-2.142497	-9.652297	1.030247	-0.016935	-0.053328	0.087791	-1.349609	0.741211	0.209961	-83.373830	12.211525	77.810807
46856		-2.155708	-9.722601	0.920387	-0.012635	-0.071891	0.103002	-1.351563	0.738525	0.214600	-83.369115	12.265012	77.859465
46857		-2.077404	-9.605654	1.074945	-0.014451	-0.085720	0.115002	-1.352051	0.731201	0.217773	-83.363417	12.325348	77.916814
46858		-2.056997	-9.509225	1.142150	-0.017847	-0.081365	0.120341	-1.341064	0.738525	0.217285	-83.360152	12.388067	77.972199
46859		-2.115614	-9.517442	1.107540	-0.022671	-0.072869	0.124338	-1.351563	0.737549	0.213623	-83.360505	12.454560	78.022728
46860		-2.101016	-9.458267	1.193079	-0.025203	-0.071395	0.121031	-1.351318	0.739502	0.208740	-83.362572	12.518332	78.072376
46861		-2.153990	-9.394418	1.267293	-0.032457	-0.054297	0.117342	-1.339600	0.744141	0.219971	-83.370869	12.582077	78.111624
46862		-2.138015	-9.435744	1.189025	-0.037522	-0.039846	0.113503	-1.342529	0.745361	0.219727	-83.384015	12.643664	78.142368
46863		-2.151745	-9.502160	1.176678	-0.044242	-0.036471	0.110151	-1.347168	0.742188	0.220947	-83.401363	12.704511	78.170727
46864		-2.223890	-9.523201	1.110151	-0.043334	-0.026880	0.111193	-1.340576	0.739990	0.224365	-83.419482	12.765652	78.193729
46865		-2.240044	-9.593049	0.996969	-0.038239	-0.030692	0.109430	-1.340088	0.743896	0.217041	-83.434090	12.826486	78.218647
46866		-2.220180	-9.596652	1.023409	-0.032818	-0.029820	0.109837	-1.345459	0.741943	0.215576	-83.445780	12.886674	78.243252
46867		-2.216398	-9.581849	1.049991	-0.030015	-0.034599	0.111222	-1.338623	0.741455	0.218994	-83.455095	12.948285	78.270556
46868		-2.224902	-9.545500	1.052567	-0.031052	-0.036298	0.116087	-1.337402	0.750488	0.218750	-83.464779	13.011617	78.299355
46869		-2.243828	-9.549233	1.098702	-0.021973	-0.041281	0.124529	-1.345703	0.752686	0.222656	-83.468346	13.080375	78.331450
46870		-2.261298	-9.553149	1.021227	-0.015225	-0.045532	0.119433	-1.334229	0.748779	0.221436	-83.467620	13.145014	78.365877
46871		-2.280134	-9.556684	1.068900	-0.009792	-0.048188	0.121174	-1.330078	0.747559	0.223633	-83.463262	13.211412	78.401804
46872		-2.220645	-9.460451	1.117571	-0.008060	-0.044139	0.123397	-1.341797	0.754150	0.222900	-83.458474	13.278394	78.435708
46873		-2.254006	-9.476457	1.136357	-0.014061	-0.034865	0.125746	-1.341309	0.744141	0.218018	-83.458195	13.348260	78.464179
46874		-2.230805	-9.411610	1.174147	-0.014361	-0.017510	0.122447	-1.336670	0.747803	0.224121	-83.460554	13.416438	78.482459
46875		-2.285382	-9.381196	1.243767	-0.024892	0.003063	0.117251	-1.341553	0.753906	0.224854	-83.471704	13.483944	78.488172
46876		-2.306537	-9.388343	1.188121	-0.029706	0.024690	0.109075	-1.331299	0.756836	0.225830	-83.488800	13.547262	78.480836
46877		-2.403377	-9.460863	1.135641	-0.034193	0.038655	0.091693	-1.326660	0.757324	0.219238	-83.510560	13.602533	78.463970
46878		-2.386490	-9.598763	0.993462	-0.024309	0.044794	0.086090	-1.343750	0.759033	0.229736	-83.527724	13.654061	78.443280
46879		-2.444250	-9.671252	0.923601	-0.004566	0.032467	0.084199	-1.334229	0.756836	0.217773	-83.531809	13.704661	78.429504
46880		-2.416570	-9.638157	0.933190	0.007649	0.012394	0.092967	-1.326172	0.750732	0.222412	-83.526087	13.758008	78.428241
46881		-2.386643	-9.666837	0.887447	0.027943	-0.004747	0.102462	-1.335693	0.753662	0.217529	-83.506091	13.816604	78.437495
46882		-2.340078	-9.614417	1.006117	0.029704	-0.024343	0.120901	-1.329590	0.750000	0.217285	-83.482124	13.883470	78.459672
46883		-2.355390	-9.710376	0.846974	0.026036	-0.046452	0.155748	-1.339355	0.750488	0.218750	-83.456446	13.969672	78.497013
46884		-2.304875	-9.808809	0.799011	0.021445	-0.075348	0.211925	-1.330078	0.760254	0.221191	-83.428384	14.084992	78.555334
46885		-2.255836	-9.934093	0.699354	0.028710	-0.113147	0.284876	-1.330322	0.764160	0.224854	-83.389286	14.240259	78.640707
46886		-2.291075	-9.929510	0.728971	0.024478	-0.156452	0.365339	-1.327393	0.761475	0.221924	-83.344726	14.437448	78.757387
46887		-1.969089	-10.000408	0.832374	-0.003188	-0.170030	0.480062	-1.317627	0.764648	0.217041	-83.311454	14.699872	78.890000
46888		-1.881660	-10.188265	0.781120	-0.057612	-0.147721	0.653504	-1.317871	0.769775	0.232178	-83.308944	15.061515	79.021930
46889		-1.818538	-10.718123	0.931669	-0.075176	-0.112169	0.861618	-1.303467	0.776123	0.226318	-83.317197	15.544849	79.147323
46890		-1.239857	-11.931891	1.042139	0.060308	-0.025244	1.095788	-1.311279	0.782471	0.226074	-83.256128	16.166315	79.238371
46891		-1.351778	-11.546636	1.031884	0.190700	0.065250	1.438287	-1.304443	0.801270	0.223145	-83.127230	16.989423	79.301197
46892		-1.751925	-11.408444	0.710084	0.243932	0.025792	1.786769	-1.286621	0.806885	0.222168	-82.951390	18.007034	79.415715
46893		-2.021869	-11.617511	0.411487	0.359162	-0.058824	2.099568	-1.275146	0.815674	0.225830	-82.682149	19.196636	79.609339
46894		-1.865051	-11.457135	0.792220	0.474423	-0.162404	2.425259	-1.254639	0.836426	0.216309	-82.309757	20.561781	79.900211
46895		-1.886382	-11.340641	0.907867	0.570071	-0.272775	2.784819	-1.233154	0.846191	0.213379	-81.835137	22.120741	80.302267
46896		-1.774819	-11.200593	1.264473	0.685587	-0.366654	3.192381	-1.214844	0.861816	0.213867	-81.238148	23.898641	80.820264
46897		-1.622295	-10.557328	2.364199	0.658354	-0.361746	3.622918	-1.193359	0.876953	0.205078	-80.612356	25.915784	81.406476
46898		-2.023499	-9.841905	2.688292	0.541138	-0.292636	3.998661	-1.163574	0.909912	0.207520	-80.019738	28.145651	82.024414
46899		-2.696944	-9.766430	2.948584	0.526460	-0.211343	4.448474	-1.136475	0.923340	0.198486	-79.392883	30.631648	82.683511
46900		-3.222993	-10.083692	3.321311	0.452425	-0.154373	4.831538	-1.101074	0.940918	0.198486	-78.750079	33.332616	83.404327
46901		-4.930517	-11.561563	3.564405	0.416687	-0.046669	5.179745	-1.049805	0.968750	0.190674	-78.077416	36.234269	84.161669
46902		-6.715205	-13.555094	4.100383	0.385248	0.144519	5.486759	-1.014404	0.981201	0.195801	-77.400292	39.323518	84.903616
46903		-9.520201	-17.215467	4.957203	0.273935	0.461649	5.637772	-0.969727	1.008057	0.188721	-76.840851	42.530933	85.515146
46904		-9.509739	-18.095479	4.260167	0.404587	0.891633	5.586157	-0.926514	1.017090	0.182129	-76.370194	45.762501	85.855490
46905		-8.797558	-18.147396	3.264230	0.774635	1.178416	5.563722	-0.874512	1.027100	0.165283	-75.803786	49.018246	86.019639
46906		-8.283173	-17.738142	3.122032	1.132504	1.399625	5.421477	-0.835449	1.028564	0.150879	-75.150137	52.225998	86.023471
46907		-7.110728	-15.084120	2.625096	1.060080	1.686257	5.314375	-0.793945	1.036377	0.137695	-74.735317	55.415992	85.783038
46908		-4.756403	-15.029794	2.308447	0.730492	1.843172	5.248569	-0.753906	1.048584	0.133301	-74.662070	58.594952	85.369424
46909		-3.073406	-14.166553	2.057755	0.418211	1.929745	5.270766	-0.709229	1.041260	0.127441	-74.899866	61.797310	84.817937
46910		-0.109922	-13.406352	1.955973	0.298918	1.914214	5.436688	-0.673340	1.030518	0.121582	-75.242211	65.089397	84.242095
46911		2.136100	-10.059823	1.726203	0.394879	1.870317	5.230941	-0.629639	1.034668	0.125000	-75.675537	68.256944	83.522863
46912		3.612351	-6.864312	0.683190	0.641192	1.685035	4.448363	-0.604248	1.025879	0.108887	-76.158066	70.963711	82.614581
46913		-3.352777	-17.387866	2.125944	0.864669	1.456525	2.571432	-0.588867	1.019531	0.100830	-77.092587	72.586996	81.108254
46914		-2.027938	-19.771368	3.062774	1.219686	1.186147	0.403661	-0.603271	1.015625	0.099609	-78.376105	72.957075	79.031094
46915		-1.124537	-13.985658	3.590882	1.206326	1.095261	-0.983934	-0.624756	1.006592	0.075195	-80.007357	72.516555	76.598340
46916		0.636696	-8.411494	3.081187	0.746731	0.857650	-1.845390	-0.656250	1.006348	0.075684	-81.595758	71.550844	74.477097
46917		1.327547	-6.238808	2.457258	0.232252	0.584737	-2.294488	-0.704834	1.002197	0.084229	-82.931354	70.288101	72.922358
46918		1.455218	-5.801126	1.980928	-0.092681	0.325508	-2.489539	-0.730469	0.997070	0.086914	-83.920169	68.892002	71.922299
46919		1.209073	-6.088504	1.640273	-0.243544	0.111456	-2.553044	-0.783936	0.976074	0.094971	-84.580595	67.437504	71.360357
46920		1.004876	-6.536163	1.378555	-0.247393	-0.078175	-2.585625	-0.824707	0.965332	0.095947	-84.931896	65.957770	71.130433
46921		0.822730	-7.062346	1.178038	-0.163573	-0.250150	-2.664819	-0.868408	0.949463	0.108887	-85.002979	64.418386	71.154474
46922		0.593865	-7.428073	1.053858	-0.046001	-0.404823	-2.818654	-0.918457	0.923340	0.116943	-84.850264	62.788845	71.352540
46923		0.256664	-7.802915	1.043177	0.046736	-0.531490	-3.020266	-0.959473	0.897949	0.124268	-84.551464	61.031291	71.659906
46924		-0.242514	-8.232844	1.026396	0.111643	-0.637648	-3.265270	-1.016602	0.862061	0.135498	-84.173661	59.133196	72.020045
46925		-0.740111	-8.525934	1.032464	0.156125	-0.720736	-3.555041	-1.055908	0.817383	0.150146	-83.765221	57.057365	72.394749
46926		-1.253402	-8.614911	1.075282	0.164994	-0.803041	-3.840771	-1.100586	0.770020	0.162109	-83.357984	54.818659	72.770147
46927		-1.794992	-8.861361	1.095022	0.160187	-0.882116	-4.096794	-1.137207	0.720703	0.171143	-82.961716	52.420586	73.147200
46928		-2.351432	-9.275233	1.095161	0.173431	-0.952636	-4.304272	-1.163574	0.657227	0.192139	-82.573929	49.904936	73.515260
46929		-3.038997	-9.476444	0.923597	0.198315	-1.013363	-4.479037	-1.176270	0.594482	0.194580	-82.190919	47.276608	73.873146
46930		-3.545612	-9.750279	0.696934	0.245088	-1.084769	-4.629970	-1.198730	0.543457	0.191162	-81.794995	44.562729	74.226393
46931		-4.006636	-10.214065	0.532716	0.310289	-1.134719	-4.756911	-1.216553	0.488770	0.194824	-81.385517	41.763391	74.563599
46932		-4.527349	-10.794213	0.440394	0.375233	-1.149862	-4.868326	-1.223145	0.423828	0.203369	-80.979224	38.905641	74.856465
46933		-5.093217	-11.426385	0.421496	0.444873	-1.143164	-4.943633	-1.222900	0.341309	0.192139	-80.574735	35.996474	75.100740
46934		-5.580973	-11.980639	0.433828	0.515071	-1.128712	-5.011978	-1.196777	0.256592	0.188965	-80.169793	33.056738	75.291441
46935		-5.934014	-12.355617	0.544281	0.573210	-1.118584	-5.031301	-1.147217	0.194092	0.184326	-79.760279	30.097949	75.444203
46936		-6.423822	-12.586324	0.779279	0.557651	-1.107948	-5.011308	-1.078857	0.140381	0.180908	-79.382069	27.158836	75.563110
46937		-6.789309	-12.766608	1.081132	0.478769	-1.103797	-4.944175	-1.007813	0.121094	0.175049	-79.061942	24.249179	75.666153
46938		-6.950504	-12.877404	1.409409	0.341077	-1.069208	-4.830536	-0.944336	0.129639	0.153809	-78.835148	21.415012	75.742646
46939		-7.151724	-13.296863	1.615701	0.185983	-0.994815	-4.676994	-0.897949	0.158936	0.117188	-78.713327	18.667098	75.783834
46940		-7.808850	-14.512226	1.741907	0.111269	-0.888695	-4.512187	-0.867432	0.198730	0.111572	-78.650517	16.031784	75.775138
46941		-9.136338	-15.665714	2.444002	0.129136	-0.769613	-4.377158	-0.860840	0.230225	0.091064	-78.591448	13.477826	75.711775
46942		-11.324517	-15.751673	3.395680	0.169110	-0.684499	-4.317249	-0.863770	0.267090	0.066406	-78.516025	10.975223	75.602607
46943		-13.473595	-14.678115	4.571721	0.126568	-0.693841	-4.325878	-0.879883	0.286377	0.054199	-78.459934	8.459307	75.497170
46944		-15.417096	-12.956831	5.596985	-0.056372	-0.759631	-4.321879	-0.895508	0.302490	0.040283	-78.499229	5.945648	75.428344
46945		-16.958306	-11.409283	6.269514	-0.344870	-0.839196	-4.232088	-0.919678	0.315186	0.031982	-78.695768	3.466625	75.421359
46946		-18.149757	-10.359497	6.134127	-0.582977	-0.923638	-4.035966	-0.934570	0.324707	0.034668	-79.025317	1.095145	75.493684
46947		-18.656704	-9.889426	5.011661	-0.527060	-1.000286	-3.755328	-0.961182	0.324219	0.029785	-79.325361	-1.131646	75.653458
46948		-19.146581	-8.523748	4.048952	-0.136906	-1.082202	-3.368804	-0.965332	0.321533	0.033691	-79.411619	-3.143465	75.906729
46949		-19.627509	-6.061868	3.694199	0.290286	-1.100175	-2.847570	-0.988281	0.324951	0.031006	-79.265337	-4.867874	76.225830
46950		-20.235226	-3.003208	4.715323	0.404941	-0.778283	-1.755191	-0.996338	0.329834	0.032959	-79.055196	-5.939815	76.475576
46951		-22.955893	2.714798	0.673660	0.296119	-0.635406	-0.325930	-1.001953	0.321777	0.028320	-78.917333	-6.195616	76.799524
46952		-24.934144	4.455662	1.596545	0.110589	-0.490931	0.662334	-1.012695	0.333984	0.041504	-78.889222	-5.877729	77.150328
46953		-26.400386	5.675001	1.006671	-0.459201	-0.330101	1.772315	-1.007324	0.340332	0.042236	-79.185639	-4.918031	77.530971
46954		-27.894395	7.188894	-0.089403	-1.227966	-0.237455	2.823163	-1.000977	0.354980	0.047852	-79.918487	-3.352344	77.958996
46955		1.402842	-2.218791	0.902402	-1.441789	-0.310094	3.342007	-0.985352	0.382324	0.044922	-80.763081	-1.493886	78.455736
46956		-1.520635	-16.031749	-2.469117	-1.162457	-0.239824	3.427295	-0.981201	0.383545	0.057617	-81.431647	0.424508	78.895190
46957		-0.137692	-17.823983	-3.089297	-1.082038	-0.076131	3.470523	-0.969238	0.396484	0.069580	-82.041192	2.386621	79.224130
46958		-3.152381	-19.804029	-2.161204	-0.997805	0.308150	3.650569	-0.964355	0.406006	0.069092	-82.605058	4.482691	79.328568
46959		-2.682647	-16.708471	-5.861588	-0.042053	0.625503	3.706202	-0.948730	0.431641	0.073486	-82.635181	6.635237	79.245311
46960		-9.613078	-21.809171	3.208585	0.114888	1.323727	3.130685	-0.945313	0.433350	0.060547	-82.637177	8.511032	78.718277
46961		-15.430240	-18.436966	10.282004	-0.217381	0.722273	1.744662	-0.938721	0.444336	0.057373	-82.805138	9.555882	78.430501
46962		-3.124197	-11.082612	0.615113	-0.876555	-0.053150	0.764670	-0.940674	0.444092	0.057617	-83.291422	9.986713	78.514803
46963		-1.730423	-14.153551	-3.820404	-0.388333	0.128023	0.773100	-0.930420	0.447998	0.057129	-83.515918	10.436448	78.492144
46964		-3.882445	-11.138120	1.036730	-0.006983	0.118600	0.477917	-0.936035	0.450928	0.058105	-83.525149	10.715807	78.454717
46965		-2.890669	-10.390477	1.213109	-0.095994	0.001979	0.327033	-0.931152	0.455322	0.067627	-83.574590	10.903408	78.474580
46966		-2.486612	-10.852926	0.010084	-0.046539	-0.017579	0.191926	-0.928711	0.451660	0.070313	-83.595332	11.011173	78.497114
46967		-2.269829	-9.701339	1.323274	-0.022210	-0.005700	0.102218	-0.935791	0.449951	0.065186	-83.604439	11.070296	78.506634
46968		-2.192011	-9.887861	0.906360	-0.082867	-0.007717	0.054067	-0.936768	0.445313	0.069824	-83.648778	11.100205	78.514440
46969		-2.215416	-10.172301	0.458189	-0.051521	-0.017057	0.011001	-0.921631	0.455811	0.060791	-83.674544	11.106653	78.524615
46970		-2.130487	-10.193892	0.466225	0.001675	-0.043150	-0.011041	-0.933838	0.446533	0.067627	-83.667293	11.097254	78.548770
46971		-2.033732	-9.974246	0.739202	0.042797	-0.073082	-0.025646	-0.930908	0.449707	0.071045	-83.633272	11.079248	78.589074
46972		-1.838376	-9.431722	1.298590	0.046056	-0.083812	-0.016528	-0.926514	0.454590	0.062012	-83.596145	11.064111	78.636453
46973		-1.814043	-9.377974	1.287820	-0.007727	-0.083137	-0.005424	-0.928711	0.453613	0.066895	-83.589727	11.056894	78.683892
46974		-1.783472	-9.416878	1.187345	-0.017934	-0.066749	0.009199	-0.923584	0.444824	0.070313	-83.590855	11.057476	78.723039
46975		-1.834312	-9.496340	1.142839	-0.027371	-0.056823	0.018177	-0.923828	0.452881	0.074463	-83.598312	11.065333	78.756766
46976		-2.019446	-9.698698	1.010612	-0.035001	-0.055137	0.018029	-0.918701	0.456787	0.068359	-83.610393	11.071693	78.789752
46977		-1.905495	-9.527098	1.124361	-0.029503	-0.058532	0.011231	-0.932129	0.448242	0.069824	-83.618962	11.075457	78.824028
46978		-1.857174	-9.481915	1.160873	-0.036498	-0.061783	0.024013	-0.929932	0.447021	0.073730	-83.631078	11.084814	78.861257
46979		-1.850613	-9.540053	1.076816	-0.036333	-0.057218	0.027845	-0.929932	0.448486	0.062256	-83.643484	11.098092	78.895859
46980		-1.970393	-9.680545	0.987512	-0.036966	-0.050646	0.031847	-0.930176	0.446289	0.066162	-83.657001	11.112632	78.927130
46981		-2.045199	-9.812609	0.831903	-0.021654	-0.059168	0.016549	-0.930176	0.452148	0.072021	-83.660907	11.119325	78.962140
46982		-1.794415	-9.450842	1.168925	0.002994	-0.063696	0.020461	-0.923096	0.453125	0.069580	-83.650199	11.126558	79.000251
46983		-1.795426	-9.515212	1.136003	-0.005040	-0.057210	0.040903	-0.928467	0.454590	0.067139	-83.644493	11.147197	79.035709
46984		-1.905468	-9.610630	0.983283	-0.001083	-0.051330	0.048371	-0.928955	0.448242	0.077148	-83.637137	11.171097	79.068454
46985		-1.874114	-9.577411	0.994193	0.010264	-0.037406	0.043544	-0.929199	0.449951	0.070557	-83.624829	11.194445	79.092608
46986		-1.873314	-9.539540	1.101874	0.021427	-0.030055	0.054796	-0.929932	0.452148	0.072266	-83.606863	11.223346	79.113436
46987		-1.863407	-9.491240	1.138127	0.020902	-0.026186	0.068582	-0.925293	0.446533	0.067139	-83.589386	11.261613	79.132733
46988		-1.852605	-9.473428	1.145718	0.028611	-0.022625	0.082672	-0.927734	0.448730	0.072754	-83.567760	11.306848	79.151094
46989		-2.001458	-9.665267	1.076703	0.026079	-0.027487	0.092160	-0.927979	0.452393	0.063232	-83.546824	11.358401	79.172736
46990		-1.918236	-9.579281	1.079882	0.028782	-0.035987	0.098145	-0.926514	0.453125	0.068604	-83.523327	11.411570	79.199917
46991		-1.999104	-9.576423	1.097776	0.021105	-0.037904	0.101027	-0.929199	0.448730	0.065674	-83.503877	11.467444	79.228250
46992		-2.001564	-9.503108	1.210695	0.015439	-0.039047	0.104069	-0.932129	0.443359	0.063721	-83.487532	11.523768	79.257649
46993		-1.963507	-9.489604	1.121618	0.012522	-0.045061	0.110094	-0.921631	0.453857	0.076416	-83.471977	11.584289	79.290795
46994		-1.936839	-9.520689	1.223800	0.011321	-0.047017	0.118275	-0.928711	0.457275	0.074463	-83.456799	11.648165	79.325815
46995		-2.043102	-9.570205	1.129981	0.001098	-0.039474	0.122015	-0.928711	0.449463	0.068604	-83.448200	11.715787	79.356563
46996		-2.064692	-9.577241	1.078202	0.000677	-0.034311	0.105756	-0.917969	0.449219	0.063232	-83.440710	11.773355	79.383399
46997		-2.013285	-9.521071	1.169555	-0.000519	-0.029119	0.109611	-0.922363	0.453613	0.057617	-83.434369	11.834557	79.407332
46998		-2.068464	-9.526032	1.112779	-0.003202	-0.020607	0.103659	-0.921387	0.455811	0.065918	-83.430709	11.891825	79.426081
46999		-2.042238	-9.557054	1.088587	-0.000013	-0.013552	0.102828	-0.927246	0.451904	0.062744	-83.425988	11.950153	79.440532
47000		-2.082553	-9.614365	1.026492	-0.001402	-0.005778	0.098526	-0.926270	0.455078	0.078857	-83.423119	12.005470	79.450324
47001		-2.114689	-9.600710	1.074410	-0.003453	0.004124	0.092725	-0.917480	0.456543	0.075195	-83.422629	12.059178	79.453825
47002		-2.095902	-9.542816	1.160074	-0.004671	0.008496	0.088086	-0.920898	0.459717	0.071289	-83.423500	12.109488	79.454614
47003		-2.094159	-9.531231	1.087400	-0.007400	0.013385	0.085119	-0.921387	0.454346	0.066406	-83.426508	12.159448	79.452218
47004		-2.117443	-9.606968	1.024363	0.000016	0.007882	0.089927	-0.922607	0.459473	0.071533	-83.424591	12.210767	79.453485
47005		-2.142515	-9.651726	0.990840	0.004322	0.006106	0.088256	-0.921387	0.455566	0.068115	-83.419947	12.262008	79.455545
47006		-2.165799	-9.727303	0.929219	0.015072	0.003414	0.083383	-0.928223	0.453613	0.077148	-83.408940	12.309309	79.458985
47007		-2.225577	-9.673579	0.955861	0.027139	-0.003542	0.081505	-0.917480	0.462891	0.065430	-83.390122	12.356047	79.466232
47008		-2.142872	-9.497319	1.169112	0.025119	-0.008634	0.074203	-0.922607	0.464600	0.073975	-83.371974	12.397325	79.476102
47009		-2.095670	-9.448154	1.185658	0.024305	-0.003099	0.073049	-0.921875	0.457764	0.066650	-83.354945	12.439254	79.482552
47010		-2.071382	-9.387148	1.250164	0.027697	0.015535	0.073356	-0.920410	0.464111	0.065918	-83.338352	12.481648	79.478306
47011		-2.007943	-9.291358	1.299946	0.030709	0.037349	0.077331	-0.913818	0.456055	0.065918	-83.322675	12.528677	79.461505
47012		-1.973353	-9.155782	1.450148	0.029780	0.069977	0.092327	-0.913818	0.449219	0.067139	-83.311510	12.585499	79.426836
47013		-1.994715	-9.067055	1.585518	0.030339	0.105600	0.104329	-0.922607	0.455811	0.074951	-83.304351	12.652428	79.372106
47014		-2.015088	-9.135591	1.475081	0.017326	0.130232	0.119763	-0.920654	0.463623	0.067627	-83.307711	12.728894	79.304161
47015		-2.114289	-9.238953	1.396915	0.008112	0.151803	0.131704	-0.925537	0.454834	0.070557	-83.318961	12.814452	79.224322
47016		-2.333293	-9.606543	1.139489	-0.013173	0.147997	0.115322	-0.926025	0.462158	0.061768	-83.342373	12.889544	79.145627
47017		-2.305684	-9.569720	1.120117	-0.019904	0.147067	0.104894	-0.919678	0.460938	0.067383	-83.369692	12.959455	79.066624
47018		-2.337059	-9.712941	0.917485	-0.038544	0.125045	0.106989	-0.919678	0.458496	0.065186	-83.404970	13.028214	79.000651
47019		-2.414235	-9.927611	0.747884	-0.036873	0.081507	0.112865	-0.916504	0.462646	0.071045	-83.433455	13.098257	78.960368
47020		-2.412366	-9.912510	0.772106	-0.028498	0.028342	0.133242	-0.921143	0.461670	0.074951	-83.449914	13.175570	78.952577
47021		-2.436582	-9.949167	0.687806	-0.030120	-0.041656	0.164975	-0.921631	0.463623	0.072754	-83.457407	13.267193	78.987731
47022		-2.380409	-10.009556	0.615003	-0.026985	-0.125431	0.210791	-0.912109	0.465820	0.063965	-83.451100	13.378604	79.075074
47023		-2.371468	-10.041317	0.616397	-0.024061	-0.219860	0.262419	-0.910400	0.460449	0.070557	-83.429225	13.514004	79.221125
47024		-2.291439	-10.006944	0.615081	-0.023372	-0.291545	0.333375	-0.915771	0.462891	0.068848	-83.395575	13.684206	79.414217
47025		-2.162071	-10.114367	0.603994	-0.026987	-0.351866	0.429296	-0.914551	0.461426	0.067627	-83.353293	13.905669	79.649354
47026		-2.039549	-10.121678	0.630846	-0.041095	-0.398858	0.560458	-0.910645	0.469971	0.072021	-83.309098	14.197693	79.921599
47027		-1.871694	-10.083610	0.792906	-0.073692	-0.389551	0.675002	-0.900879	0.461426	0.072266	-83.281347	14.556098	80.196748
47028		-1.231725	-10.433321	0.740030	-0.140671	-0.299446	0.880143	-0.904297	0.478271	0.075684	-83.299781	15.036501	80.433744
47029		-0.883559	-11.241858	0.705281	-0.179471	-0.158344	1.230884	-0.907227	0.476318	0.078125	-83.353718	15.726711	80.611900
47030		-0.647747	-13.613976	1.261373	0.046614	-0.018677	1.618188	-0.895508	0.478027	0.071777	-83.291040	16.645947	80.735046
47031		-0.914399	-12.173117	0.838590	0.245643	0.055261	2.106275	-0.904053	0.491699	0.074707	-83.114181	17.848143	80.851395
47032		-1.651401	-11.921334	0.588629	0.360429	-0.007890	2.547958	-0.881592	0.489746	0.065430	-82.844614	19.296136	81.044173
47033		-1.624114	-11.234566	1.058245	0.443064	-0.117057	2.920291	-0.875732	0.506592	0.074707	-82.486626	20.947070	81.342192
47034		-1.987543	-10.784868	1.176757	0.510983	-0.215662	3.262650	-0.868652	0.506592	0.072266	-82.042144	22.782412	81.745034
47035		-2.341903	-10.640648	1.150354	0.594789	-0.322746	3.598357	-0.861572	0.515137	0.063477	-81.489003	24.796243	82.267410
47036		-2.125788	-10.689782	1.945928	0.628404	-0.376817	3.950924	-0.844238	0.521240	0.059326	-80.855062	26.999648	82.890512
47037		-2.374905	-10.302252	2.538997	0.662796	-0.317763	4.386366	-0.819092	0.535645	0.058105	-80.154875	29.448129	83.564476
47038		-2.975249	-10.908819	2.554522	0.666128	-0.288476	4.830805	-0.812988	0.542969	0.053711	-79.381566	32.142268	84.325885
47039		-4.214515	-12.055670	3.418985	0.701621	-0.202183	5.243755	-0.791748	0.552246	0.053955	-78.519737	35.068428	85.153382
47040		-5.521536	-13.746599	4.393855	0.654153	0.017862	5.645189	-0.775146	0.557617	0.049561	-77.653867	38.235023	85.972775
47041		-8.428965	-17.064209	5.264056	0.507227	0.350889	5.904701	-0.752197	0.569092	0.042236	-76.902485	41.578789	86.688031
47042		-10.165618	-19.443983	3.295359	0.760315	0.729088	5.862774	-0.722656	0.574463	0.038818	-76.109837	44.942318	87.206183
47043		-9.343172	-18.411259	2.983651	1.187513	1.010344	5.762715	-0.693115	0.583496	0.030762	-75.154238	48.283543	87.582287
47044		-8.359140	-17.920564	2.648919	1.404664	1.252928	5.583944	-0.677734	0.582520	0.027832	-74.164639	51.558459	87.821259
47045		-6.771869	-14.684903	2.354224	1.229225	1.543472	5.465399	-0.650879	0.586914	0.019531	-73.426047	54.810919	87.862030
47046		-4.504661	-15.008562	2.091029	0.805276	1.673857	5.443892	-0.621582	0.585938	0.017090	-72.988916	58.073752	87.830815
47047		-2.454149	-13.887782	1.617295	0.472377	1.735724	5.480773	-0.601807	0.593750	0.008545	-72.761524	61.365798	87.779089
47048		0.022093	-12.448561	1.586014	0.326749	1.677314	5.659030	-0.567383	0.595215	0.003662	-72.471597	64.746871	87.892359
47049		2.339443	-9.635588	1.578436	0.359331	1.621581	5.528515	-0.543945	0.593750	0.013184	-72.084147	68.044590	88.088996
47050		3.866104	-6.485670	0.384791	0.544688	1.423279	4.744845	-0.522217	0.587646	0.012451	-71.576293	70.881581	88.296170
47051		-2.701353	-17.733102	0.987335	0.772930	1.330184	2.907704	-0.503906	0.589111	0.001953	-71.739343	72.699967	87.657103
47052		-2.553168	-21.183282	2.295446	1.328365	1.107701	0.743649	-0.500244	0.593262	-0.001221	-72.525633	73.299933	86.037317
47053		-1.136791	-14.836754	3.038438	1.425389	1.099886	-0.773161	-0.505615	0.582520	-0.005127	-74.126878	73.052543	83.510153
47054		0.775376	-9.185643	2.725341	0.994348	0.934449	-1.820781	-0.507568	0.595703	-0.013916	-76.066286	72.181531	80.879326
47055		1.358153	-6.655323	2.301916	0.488807	0.716479	-2.441048	-0.520996	0.604004	-0.008789	-77.927418	70.906469	78.621009
47056		1.314030	-5.940239	2.097314	0.093289	0.524738	-2.775154	-0.523193	0.610840	-0.013428	-79.550478	69.405202	76.837084
47057		1.067689	-5.911762	1.972844	-0.145983	0.393775	-2.950213	-0.541748	0.609131	-0.008301	-80.930496	67.772674	75.443488
47058		0.735284	-5.891450	1.747263	-0.245028	0.282811	-3.055761	-0.536377	0.617920	-0.003662	-82.053667	66.064644	74.373541
47059		0.498388	-5.864611	1.721835	-0.270435	0.164071	-3.152095	-0.558838	0.617920	-0.001953	-82.918496	64.281334	73.590086
47060		0.137016	-6.129266	1.745489	-0.276707	0.042461	-3.246721	-0.574219	0.618652	0.002930	-83.560485	62.436495	73.047467
47061		-0.432068	-6.867012	1.725828	-0.260129	-0.092028	-3.364358	-0.581787	0.623535	0.008301	-83.995101	60.509176	72.720963
47062		-1.068087	-7.711602	1.695303	-0.203662	-0.230574	-3.528266	-0.598145	0.619385	0.011719	-84.239106	58.484347	72.571330
47063		-1.668206	-8.354957	1.730133	-0.125149	-0.378495	-3.742914	-0.609619	0.621338	0.015381	-84.305607	56.323273	72.575839
47064		-2.192596	-8.812432	1.754545	-0.024632	-0.531834	-4.005608	-0.624268	0.620361	0.015625	-84.212524	54.008870	72.704414
47065		-2.869282	-9.321390	1.669471	0.075944	-0.673389	-4.284173	-0.632813	0.623535	0.019775	-83.993410	51.521663	72.923066
47066		-3.393664	-9.547322	1.481904	0.181081	-0.819428	-4.534171	-0.642822	0.625000	0.023438	-83.663107	48.887962	73.215690
47067		-3.626059	-9.501863	1.490284	0.282953	-0.935644	-4.704654	-0.657715	0.606445	0.026367	-83.252408	46.142694	73.550572
47068		-3.958730	-9.161095	1.386859	0.318895	-1.008651	-4.800522	-0.663574	0.612549	0.015625	-82.829881	43.342048	73.888771
47069		-4.330629	-9.002132	1.324768	0.305848	-1.052385	-4.834002	-0.676270	0.615234	0.018555	-82.434313	40.511551	74.216038
47070		-4.619786	-9.496833	1.168718	0.274138	-1.101197	-4.831272	-0.684326	0.619141	0.014893	-82.070883	37.683259	74.540510
47071		-5.110490	-10.745166	0.938352	0.268270	-1.125553	-4.792508	-0.700195	0.624756	0.005615	-81.730396	34.867422	74.853373
47072		-5.935031	-11.990859	0.733060	0.323244	-1.140646	-4.807717	-0.711670	0.618164	-0.004150	-81.383680	32.046315	75.143200
47073		-6.512719	-12.569988	0.489226	0.438685	-1.179328	-4.869870	-0.718750	0.617676	-0.002686	-80.988211	29.178977	75.422933
47074		-6.871018	-12.693231	0.467895	0.544481	-1.221623	-4.913975	-0.725342	0.634766	-0.015869	-80.548853	26.287276	75.692934
47075		-7.258280	-12.744202	0.596699	0.573958	-1.266442	-4.892662	-0.747070	0.642578	-0.025879	-80.105058	23.395436	75.962638
47076		-7.579076	-12.719326	0.764791	0.483081	-1.303631	-4.800953	-0.762207	0.653564	-0.048828	-79.724262	20.556021	76.235962
47077		-7.742778	-12.654245	1.149685	0.265809	-1.316344	-4.688577	-0.783691	0.666504	-0.043213	-79.480982	17.771324	76.508460
47078		-7.805695	-12.703981	1.633561	-0.060524	-1.296323	-4.616721	-0.808594	0.671875	-0.059570	-79.441536	15.034533	76.765085
47079		-8.171742	-12.954224	1.990567	-0.414825	-1.243655	-4.582633	-0.840088	0.688965	-0.063721	-79.623294	12.317033	76.995638
47080		-8.739442	-13.473326	2.290128	-0.698538	-1.165569	-4.561608	-0.873291	0.695313	-0.065674	-79.984263	9.626110	77.193655
47081		-9.493391	-13.807762	2.605775	-0.858989	-1.071800	-4.505165	-0.911621	0.701660	-0.068115	-80.450716	6.972321	77.362320
47082		-10.287737	-13.799558	3.203338	-0.900563	-0.953315	-4.403258	-0.944580	0.704102	-0.072510	-80.952089	4.393964	77.494150
47083		-11.425123	-13.225623	3.995297	-0.885617	-0.817509	-4.249793	-0.982422	0.701660	-0.056641	-81.453079	1.910844	77.585056
47084		-12.546370	-12.275001	4.762773	-0.853563	-0.649398	-4.038945	-1.014648	0.693359	-0.058105	-81.940127	-0.433151	77.618852
47085		-13.481262	-11.238018	5.116164	-0.788099	-0.465123	-3.756311	-1.041748	0.677490	-0.058594	-82.389269	-2.606036	77.589696
47086		-14.265110	-10.753672	4.648276	-0.558947	-0.272197	-3.446019	-1.070557	0.672852	-0.046143	-82.701523	-4.584388	77.487797
47087		-15.161357	-10.532410	3.443921	-0.049963	-0.099239	-3.110201	-1.102539	0.649658	-0.041016	-82.711977	-6.362740	77.317365
47088		-16.300974	-9.056024	2.344647	0.629681	-0.001543	-2.726490	-1.123291	0.632813	-0.047852	-82.324148	-7.912103	77.113070
47089		-20.072407	-5.813090	2.349127	0.982200	0.369090	-1.545424	-1.129883	0.629395	-0.059570	-81.710645	-8.762108	76.777167
47090		-19.409730	1.789595	0.981980	0.839257	0.118712	-0.383360	-1.138916	0.620361	-0.060547	-81.212538	-8.969605	76.675896
47091		-23.058424	4.283359	1.546337	0.189828	0.094686	0.543664	-1.142090	0.619385	-0.068604	-81.100785	-8.654751	76.670011
47092		-25.059729	5.561665	1.245870	-0.811112	0.143408	1.654513	-1.130615	0.626221	-0.066650	-81.572710	-7.705608	76.732013
47093		-28.221067	6.021930	0.305449	-1.574224	0.159914	2.843173	-1.127686	0.648926	-0.057861	-82.488860	-6.079543	76.867892
47094		-2.655138	-3.008392	0.877638	-1.518404	-0.048745	3.624107	-1.101807	0.672607	-0.050781	-83.382305	-4.022682	77.151890
47095		-4.523800	-16.965549	-2.412006	-0.807062	-0.166170	3.765459	-1.088379	0.691895	-0.051514	-83.859796	-1.888214	77.486394
47096		0.890873	-17.072237	-3.036919	-0.174120	-0.389643	3.656376	-1.081055	0.710693	-0.043945	-83.964586	0.170866	77.930414
47097		-1.282356	-11.161969	-2.735467	-0.302818	-0.183950	3.737457	-1.061279	0.733154	-0.040283	-84.129119	2.290849	78.257140
47098		-2.466936	-16.190465	-5.236810	0.115862	0.224903	4.254573	-1.032959	0.745361	-0.041504	-84.053564	4.728466	78.379960
47099		-5.254901	-21.610866	0.745055	0.557361	0.790241	4.074534	-1.008545	0.773926	-0.053467	-83.753497	7.098975	78.176298
47100		-12.242132	-21.458335	5.922921	0.323280	1.090242	3.127477	-0.990723	0.788574	-0.059326	-83.626402	8.948306	77.748020
47101		-13.669260	-15.437999	9.014286	-0.380428	0.535570	1.613480	-0.981201	0.780029	-0.065918	-83.876650	9.902072	77.540478
47102		-3.422528	-13.712369	-2.264066	-0.824859	0.087941	0.526541	-0.983643	0.781494	-0.054199	-84.351052	10.206944	77.520824
47103		-1.616163	-12.988677	-3.155669	0.003624	0.160045	0.543069	-0.968506	0.798340	-0.049805	-84.358313	10.527305	77.458854
47104		-3.311670	-9.539997	2.313860	0.203248	0.095667	0.407578	-0.970459	0.792480	-0.058350	-84.246146	10.764728	77.426776
47105		-2.404820	-9.793706	1.090491	0.031140	0.018583	0.268276	-0.976807	0.797363	-0.059326	-84.225717	10.920392	77.431364
47106		-2.227278	-10.375148	0.112178	0.036095	0.066063	0.183468	-0.968994	0.794434	-0.057617	-84.208677	11.028400	77.403621
47107		-2.319806	-9.972686	0.711979	0.041472	0.081549	0.113471	-0.965576	0.799316	-0.062500	-84.191089	11.099427	77.362603
47108		-2.250310	-10.232957	0.363157	0.039008	0.066251	0.064741	-0.968994	0.797607	-0.052490	-84.173815	11.139787	77.327777
47109		-2.198672	-10.179723	0.360276	0.076864	0.048717	0.027945	-0.961182	0.798340	-0.052246	-84.133327	11.160141	77.300785
47110		-2.088538	-10.040296	0.584311	0.114191	0.031588	0.004602	-0.968750	0.795898	-0.068359	-84.069792	11.164235	77.282538
47111		-1.946414	-9.738744	0.889875	0.125396	0.025744	-0.002109	-0.966553	0.786865	-0.062012	-83.999300	11.166100	77.267099
47112		-1.835965	-9.499578	1.154679	0.104035	0.023162	-0.000171	-0.969482	0.801270	-0.062500	-83.940693	11.167008	77.253463
47113		-1.847357	-9.440479	1.244262	0.072046	0.020666	0.012911	-0.973877	0.790283	-0.065186	-83.900017	11.177095	77.241909
47114		-1.862558	-9.452189	1.220120	0.044233	0.027004	0.020462	-0.970703	0.798828	-0.063477	-83.875862	11.190011	77.227325
47115		-1.901906	-9.520282	1.106655	0.029811	0.029303	0.026626	-0.968018	0.791504	-0.058838	-83.860185	11.208394	77.211629
47116		-1.983567	-9.593560	1.033925	0.019945	0.032699	0.019747	-0.964600	0.794922	-0.062256	-83.850604	11.221260	77.193699
47117		-1.983069	-9.657968	1.001132	0.017934	0.038156	0.008495	-0.972168	0.797363	-0.062988	-83.842957	11.229813	77.171737
47118		-1.927322	-9.605799	0.994502	0.019710	0.041409	0.002246	-0.972168	0.793945	-0.067383	-83.834715	11.233250	77.147655
47119		-1.943981	-9.587637	0.995589	0.029676	0.055039	-0.009121	-0.968018	0.800537	-0.060547	-83.822471	11.232765	77.114789
47120		-1.926777	-9.605534	0.998107	0.040700	0.071338	-0.018453	-0.970215	0.796143	-0.064941	-83.805840	11.226271	77.072024
47121		-1.931131	-9.645693	0.919389	0.055193	0.084277	-0.026263	-0.967529	0.794189	-0.073486	-83.782489	11.217803	77.021102
47122		-1.920271	-9.636172	0.976963	0.073874	0.088211	-0.029764	-0.966797	0.791504	-0.069824	-83.748883	11.205950	76.967820
47123		-1.926012	-9.608517	1.034986	0.073780	0.084581	-0.026780	-0.967529	0.800537	-0.061523	-83.714914	11.197213	76.916684
47124		-1.914338	-9.564584	1.098519	0.076817	0.087099	-0.031328	-0.967041	0.792969	-0.072998	-83.679498	11.184462	76.863936
47125		-1.930041	-9.580524	1.098446	0.068263	0.080018	-0.024190	-0.968018	0.790771	-0.071045	-83.648130	11.176925	76.815613
47126		-1.937482	-9.589919	1.049766	0.054324	0.079147	-0.021741	-0.973633	0.791748	-0.060303	-83.624573	11.169184	76.768090
47127		-1.925107	-9.645138	1.072850	0.052078	0.074628	-0.017315	-0.965820	0.796631	-0.074219	-83.601776	11.165216	76.723341
47128		-1.963456	-9.683753	0.988894	0.051270	0.057883	-0.014120	-0.965332	0.791992	-0.069580	-83.577476	11.160492	76.688651
47129		-1.958808	-9.676967	1.069676	0.052791	0.051181	-0.004680	-0.966309	0.797607	-0.072266	-83.551477	11.162208	76.658335
47130		-1.988358	-9.671531	1.044236	0.056231	0.039735	-0.005684	-0.966553	0.791748	-0.063965	-83.522189	11.161147	76.634727
47131		-1.945533	-9.666261	1.007527	0.057966	0.028682	-0.003399	-0.964844	0.795654	-0.068115	-83.490684	11.162126	76.617555
47132		-1.953480	-9.637935	1.065436	0.068187	0.029175	-0.002701	-0.963135	0.779785	-0.071289	-83.453321	11.162102	76.600271
47133		-1.956911	-9.606328	1.099836	0.063348	0.021532	-0.005481	-0.967773	0.787598	-0.076660	-83.417959	11.161411	76.587111
47134		-1.939173	-9.589535	1.110558	0.057067	0.026115	-0.007054	-0.961914	0.788330	-0.079590	-83.386680	11.158729	76.571310
47135		-1.921455	-9.572779	1.120829	0.054911	0.025227	-0.005599	-0.971191	0.784424	-0.079102	-83.356567	11.158194	76.556001
47136		-1.904369	-9.590246	1.126424	0.058115	0.027839	-0.011813	-0.965088	0.794678	-0.078857	-83.324943	11.152934	76.538875
47137		-1.929322	-9.578099	1.178443	0.058970	0.023278	-0.003856	-0.967773	0.787598	-0.074219	-83.292261	11.153242	76.524818
47138		-1.907377	-9.558053	1.165429	0.062588	0.020038	-0.003958	-0.963623	0.791748	-0.078369	-83.257095	11.151948	76.512748
47139		-1.843158	-9.529655	1.211201	0.051907	0.019221	0.000308	-0.967285	0.792969	-0.078613	-83.227946	11.154334	76.501332
47140		-1.929109	-9.541926	1.197945	0.046391	0.015624	0.009634	-0.971191	0.793457	-0.074219	-83.201385	11.160487	76.492758
47141		-1.879087	-9.526524	1.213591	0.046144	0.011898	0.014259	-0.966797	0.798340	-0.081055	-83.174527	11.170289	76.486561
47142		-1.914640	-9.524114	1.210829	0.029400	0.012256	0.016573	-0.964600	0.791504	-0.077637	-83.157230	11.180168	76.480427
47143		-1.916774	-9.523360	1.213378	0.029232	0.013123	0.025031	-0.967041	0.799561	-0.076904	-83.140050	11.196154	76.474281
47144		-1.911326	-9.550581	1.163707	0.027346	0.005319	0.027450	-0.962891	0.788818	-0.077637	-83.123003	11.211748	76.472935
47145		-1.884748	-9.554418	1.196352	0.030504	0.001761	0.032314	-0.979980	0.800049	-0.082520	-83.103712	11.231071	76.473900
47146		-1.901159	-9.566549	1.170315	0.035896	0.003681	0.039570	-0.968262	0.788818	-0.076172	-83.081414	11.253447	76.474366
47147		-1.875815	-9.570061	1.203666	0.036089	0.001252	0.046039	-0.968018	0.799561	-0.077881	-83.058670	11.280511	76.476612
47148		-1.863633	-9.552396	1.212099	0.028395	-0.002231	0.063618	-0.965576	0.790771	-0.081787	-83.039662	11.316154	76.482224
47149		-1.898032	-9.473522	1.294050	0.020495	0.007358	0.069132	-0.967285	0.797119	-0.074707	-83.026217	11.356745	76.482587
47150		-1.946004	-9.442253	1.340861	0.004352	0.029435	0.053606	-0.968506	0.792969	-0.080322	-83.024736	11.388895	76.469135
47151		-1.932489	-9.390966	1.349608	-0.009439	0.060607	0.037493	-0.967285	0.794922	-0.082764	-83.034984	11.415170	76.436368
47152		-1.886326	-9.410350	1.353423	-0.029300	0.083306	0.031844	-0.970947	0.793945	-0.082275	-83.059297	11.438674	76.390103
47153		-1.936409	-9.521263	1.274260	-0.071341	0.085175	0.046047	-0.965576	0.791748	-0.080566	-83.107750	11.471454	76.343655
47154		-1.930813	-9.542394	1.288786	-0.108987	0.071147	0.065596	-0.966797	0.789063	-0.080322	-83.175907	11.513251	76.306755
47155		-1.999739	-9.601043	1.206087	-0.146112	0.051388	0.089618	-0.967285	0.797607	-0.080322	-83.262754	11.568404	76.282849
47156		-2.020553	-9.717068	1.022976	-0.159496	0.028123	0.111506	-0.965576	0.797363	-0.077393	-83.354291	11.633349	76.273933
47157		-2.018110	-9.768314	1.003050	-0.166772	-0.016579	0.151665	-0.962891	0.788330	-0.078369	-83.444230	11.719245	76.293518
47158		-2.079014	-9.842560	0.918539	-0.167960	-0.055364	0.189522	-0.958252	0.794434	-0.079346	-83.529726	11.823148	76.338116
47159		-2.044426	-9.856744	0.886350	-0.177770	-0.104716	0.235794	-0.955566	0.791016	-0.067871	-83.614255	11.951327	76.414250
47160		-2.059852	-9.945653	0.784703	-0.193106	-0.153091	0.295357	-0.960449	0.792969	-0.063477	-83.700730	12.109442	76.522324
47161		-2.046063	-10.063263	0.759999	-0.214197	-0.211267	0.375528	-0.959961	0.805908	-0.069336	-83.790766	12.310759	76.669168
47162		-1.960336	-10.077975	0.611943	-0.250777	-0.266747	0.478909	-0.950195	0.803711	-0.073730	-83.892839	12.566788	76.854741
47163		-1.944557	-10.136821	0.667772	-0.313378	-0.320079	0.608441	-0.950684	0.805176	-0.068359	-84.021334	12.894750	77.079082
47164		-1.628297	-10.082958	0.889148	-0.416173	-0.342075	0.743295	-0.950439	0.805176	-0.061768	-84.202665	13.297886	77.323929
47165		-0.707183	-10.663232	0.590692	-0.545580	-0.188680	0.978877	-0.945313	0.810303	-0.055176	-84.474381	13.845887	77.491265
47166		-0.977547	-11.127031	0.258867	-0.572954	-0.004733	1.351776	-0.929932	0.805176	-0.052002	-84.781991	14.616352	77.568683
47167		-1.373749	-12.700351	0.769191	-0.488619	0.052955	1.740563	-0.920898	0.820068	-0.054932	-85.044718	15.612816	77.628714
47168		-1.040989	-12.750312	0.176197	-0.084742	0.089385	2.099741	-0.905518	0.828857	-0.053955	-85.076394	16.815430	77.683285
47169		-1.538339	-12.360570	0.289330	0.079211	0.026121	2.468520	-0.894531	0.828369	-0.051270	-84.995598	18.226075	77.795724
47170		-2.117684	-11.632960	0.300954	0.173995	-0.081957	2.746657	-0.867676	0.837158	-0.061768	-84.830131	19.789042	77.992605
47171		-1.857386	-11.529550	0.677543	0.230021	-0.247969	3.032998	-0.856934	0.837646	-0.054443	-84.583169	21.506486	78.314817
47172		-1.507815	-10.600973	1.638942	0.243980	-0.326890	3.411742	-0.837158	0.848389	-0.057861	-84.286271	23.433512	78.721493
47173		-1.894543	-10.012068	1.801706	0.208993	-0.360009	3.785336	-0.812256	0.853271	-0.051025	-83.970426	25.569919	79.190506
47174		-2.100213	-10.272977	1.704268	0.181165	-0.458904	4.091686	-0.778076	0.860596	-0.052002	-83.605736	27.871700	79.766920
47175		-2.255966	-9.855978	1.823972	0.296523	-0.449102	4.517030	-0.753174	0.856201	-0.047607	-83.125081	30.412625	80.401589
47176		-2.954182	-10.695395	2.372075	0.499166	-0.405415	4.955342	-0.713623	0.863525	-0.057129	-82.473788	33.199971	81.091244
