// General information: 
//  MT Manager version: 2022.2.0 
//  XDA version: 2022.2.0 build 7381 rev 124627 built on 2023-07-19
// Device information: 
//  DeviceId: 00B4C223
//  ProductCode: MTW2-3A7G6
//  Firmware Version: 4.6.0
//  Hardware Version: 2.0.0
// Device settings: 
//  Filter Profile: human(46.1)
//  Option Flags: Orientation Smoother Disabled, Position/Velocity Smoother Disabled, Continuous Zero Rotation Update Disabled, AHS Disabled, ICC Disabled
// Coordinate system: ENU
PacketCounter	SampleTimeFine	Acc_X	Acc_Y	Acc_Z	Gyr_X	Gyr_Y	Gyr_Z	Mag_X	Mag_Y	Mag_Z	Roll	Pitch	Yaw
55630		-2.813833	9.381392	0.201661	-0.003047	0.005138	-0.001123	0.207031	-0.109619	-0.055420	89.462245	16.275985	-5.045062
55631		-2.815360	9.404666	0.208972	-0.001383	0.001487	0.000998	0.202637	-0.106201	-0.068115	89.463435	16.275719	-5.044760
55632		-2.821567	9.367393	0.162796	-0.003598	0.004800	0.000936	0.208008	-0.114502	-0.061523	89.461731	16.277512	-5.043191
55633		-2.812117	9.358163	0.194912	-0.002767	0.002974	0.001996	0.202637	-0.114502	-0.058594	89.462379	16.276681	-5.041996
55634		-2.793804	9.402479	0.221241	-0.002270	0.005055	0.000201	0.210693	-0.121094	-0.066162	89.461485	16.278882	-5.040335
55635		-2.798489	9.341935	0.167674	0.000666	0.003402	0.001850	0.204590	-0.109619	-0.065186	89.464170	16.278138	-5.038885
55636		-2.801497	9.388501	0.182027	-0.000776	0.000083	-0.001324	0.206543	-0.108643	-0.065186	89.463290	16.281175	-5.040274
55637		-2.823850	9.351223	0.215122	-0.001439	0.003230	0.001261	0.202881	-0.110107	-0.052002	89.464739	16.280767	-5.038931
55638		-2.822626	9.390804	0.170296	-0.001494	0.004972	0.001524	0.210938	-0.114746	-0.068604	89.464299	16.282188	-5.037224
55639		-2.799877	9.365249	0.175023	-0.002936	0.001653	-0.001649	0.203125	-0.115967	-0.061279	89.464622	16.283439	-5.036837
55640		-2.811787	9.358254	0.195320	-0.002822	0.004716	0.002259	0.198730	-0.108154	-0.060547	89.463368	16.284424	-5.035420
55641		-2.820922	9.367572	0.163624	-0.004926	0.004543	0.001671	0.203857	-0.116699	-0.063721	89.463040	16.283789	-5.033290
55642		-2.811330	9.358381	0.195794	-0.003429	0.006120	0.004581	0.200928	-0.109131	-0.059570	89.461696	16.283433	-5.030885
55643		-2.832280	9.360738	0.184197	-0.004982	0.006286	0.001934	0.203613	-0.117676	-0.064453	89.461628	16.282656	-5.027714
55644		-2.800432	9.388790	0.183503	-0.006199	0.002545	0.002142	0.206055	-0.107178	-0.060059	89.458101	16.283672	-5.027481
55645		-2.810632	9.358569	0.196820	-0.004095	0.002717	0.002731	0.208984	-0.111328	-0.063477	89.457945	16.282420	-5.026435
55646		-2.798518	9.365619	0.176941	-0.003654	0.006541	0.001199	0.208008	-0.110352	-0.060059	89.456554	16.284002	-5.023842
55647		-2.831513	9.360946	0.185444	-0.004150	0.004459	0.002994	0.209229	-0.108154	-0.063721	89.456659	16.282608	-5.021755
55648		-2.832762	9.384301	0.192747	-0.000718	0.004888	0.002848	0.209961	-0.109863	-0.065918	89.456684	16.283228	-5.020151
55649		-2.811292	9.382090	0.204598	-0.002822	0.004715	0.002259	0.200439	-0.113281	-0.061523	89.457591	16.282256	-5.017915
55650		-2.806938	9.375155	0.145506	-0.002767	0.002973	0.001996	0.209717	-0.103760	-0.058838	89.456118	16.283334	-5.017454
55651		-2.818796	9.368175	0.165759	-0.002215	0.003312	-0.000063	0.216064	-0.112061	-0.058105	89.457135	16.283685	-5.016068
55652		-2.824335	9.398477	0.232381	-0.004206	0.006201	0.003257	0.205078	-0.108643	-0.062256	89.455410	16.284069	-5.013680
55653		-2.818553	9.368242	0.166083	-0.003101	0.006880	-0.000860	0.202881	-0.108398	-0.063232	89.456515	16.284896	-5.010170
55654		-2.831908	9.384543	0.193500	-0.001991	0.002889	0.003320	0.199219	-0.115723	-0.061279	89.455497	16.285194	-5.009685
55655		-2.808836	9.359081	0.198141	0.000168	0.001319	0.003646	0.209473	-0.105713	-0.058350	89.457552	16.283410	-5.009468
55656		-2.796660	9.366149	0.178256	-0.007086	0.006112	0.001344	0.210938	-0.108154	-0.069336	89.454162	16.284848	-5.007075
55657		-2.821909	9.375457	0.225930	-0.000608	0.001403	0.002322	0.202881	-0.111328	-0.064941	89.455784	16.283823	-5.006816
55658		-2.817566	9.368528	0.166715	-0.001439	0.003228	0.001261	0.198486	-0.116211	-0.069824	89.455133	16.285288	-5.006239
55659		-2.830855	9.384850	0.194039	-0.000663	0.003145	0.002585	0.202148	-0.112793	-0.063721	89.457015	16.284122	-5.004939
55660		-2.830640	9.384914	0.194056	-0.000553	-0.000339	0.002058	0.206299	-0.111084	-0.065674	89.456283	16.285083	-5.006444
55661		-2.795794	9.366402	0.178587	0.000831	-0.001826	0.001060	0.198486	-0.118652	-0.061523	89.458187	16.284763	-5.008119
55662		-2.809036	9.382738	0.205862	0.000168	0.001319	0.003646	0.211182	-0.114502	-0.064453	89.458163	16.284819	-5.008623
55663		-2.820791	9.375790	0.226061	-0.003543	0.003056	0.000672	0.208496	-0.111816	-0.063721	89.458377	16.284748	-5.007387
55664		-2.807204	9.359559	0.198676	0.005094	-0.003223	0.001976	0.210449	-0.107422	-0.058838	89.460415	16.285747	-5.010693
55665		-2.795022	9.366642	0.178064	0.007143	-0.001309	0.002829	0.206543	-0.109619	-0.064697	89.466025	16.284416	-5.012050
55666		-2.808312	9.382980	0.204714	0.007696	-0.000970	0.000771	0.205322	-0.106689	-0.062744	89.469946	16.286107	-5.013914
55667		-2.794743	9.366750	0.176773	0.006367	-0.001226	0.001505	0.201904	-0.110840	-0.065918	89.475123	16.285536	-5.015229
55668		-2.794583	9.366810	0.176132	0.008526	-0.002796	0.001831	0.201416	-0.115234	-0.068604	89.479215	16.286586	-5.018140
55669		-2.850387	9.387714	0.179079	0.007696	-0.000970	0.000771	0.205322	-0.111816	-0.059326	89.485195	16.286437	-5.019306
55670		-2.815599	9.369182	0.163179	0.003045	-0.005138	0.001124	0.204834	-0.109375	-0.062256	89.485756	16.287866	-5.023670
55671		-2.828925	9.385509	0.190270	0.005204	-0.006708	0.001450	0.200684	-0.110840	-0.053223	89.489349	16.287299	-5.028257
55672		-2.794060	9.366991	0.174798	-0.001716	-0.005821	0.002004	0.197021	-0.107178	-0.055420	89.487097	16.288217	-5.032902
55673		-2.827055	9.362337	0.183239	0.001716	-0.005394	0.001858	0.204834	-0.103516	-0.055908	89.488912	16.287423	-5.036703
55674		-2.797764	9.374133	0.234110	0.002382	-0.001993	0.003708	0.211426	-0.108154	-0.055176	89.489668	16.287376	-5.038955
55675		-2.815980	9.392803	0.170055	0.002327	-0.000251	0.003971	0.204346	-0.118652	-0.062500	89.492697	16.285397	-5.039674
55676		-2.827655	9.385895	0.190112	-0.000498	-0.002081	0.001795	0.197021	-0.107666	-0.055908	89.491770	16.286441	-5.042235
55677		-2.773176	9.388327	0.193670	-0.000940	0.005310	-0.000535	0.206543	-0.112793	-0.062256	89.493851	16.287073	-5.039659
55678		-2.826104	9.362629	0.182989	-0.001273	-0.001998	0.000472	0.210205	-0.107422	-0.068848	89.492497	16.288853	-5.042059
55679		-2.794259	9.390656	0.182125	-0.004150	0.004460	0.002993	0.211182	-0.116699	-0.064697	89.492602	16.287459	-5.039972
55680		-2.827388	9.385964	0.190656	-0.002935	0.001654	-0.001650	0.207764	-0.112793	-0.060303	89.490890	16.290480	-5.040422
55681		-2.815503	9.392929	0.170997	-0.006865	-0.000855	0.000291	0.202881	-0.112305	-0.060303	89.488546	16.290607	-5.041521
55682		-2.804631	9.360383	0.196190	-0.002657	-0.000511	0.001469	0.207031	-0.110107	-0.058594	89.486659	16.291809	-5.043099
55683		-2.837764	9.355690	0.204684	-0.002159	0.001570	-0.000326	0.210938	-0.104248	-0.061279	89.487415	16.292302	-5.042755
55684		-2.791080	9.344120	0.169354	-0.004871	0.002801	0.001406	0.203125	-0.113770	-0.064941	89.484823	16.293564	-5.042338
55685		-2.815221	9.392992	0.172198	-0.001328	-0.000256	0.000734	0.205566	-0.114502	-0.055664	89.485751	16.293440	-5.043078
55686		-2.813661	9.369729	0.165145	-0.001274	-0.001998	0.000471	0.210205	-0.110840	-0.059570	89.484415	16.295184	-5.045555
55687		-2.807342	9.407000	0.211782	-0.005701	0.004627	0.000346	0.203613	-0.106445	-0.063232	89.483656	16.295307	-5.043382
55688		-2.825540	9.362743	0.185830	-0.001274	-0.001998	0.000471	0.201416	-0.118896	-0.063477	89.482327	16.297053	-5.045840
55689		-2.801546	9.376763	0.145837	-0.002657	-0.000511	0.001469	0.209473	-0.110596	-0.053467	89.482453	16.296507	-5.046729
55690		-2.805538	9.383795	0.205413	-0.003985	-0.000767	0.002203	0.208008	-0.111816	-0.055420	89.479790	16.297248	-5.048458
55691		-2.825118	9.362851	0.186786	-0.004816	0.001059	0.001143	0.207764	-0.114990	-0.060303	89.478941	16.296897	-5.048411
55692		-2.791801	9.367584	0.179014	-0.006089	-0.000939	0.001614	0.194824	-0.106201	-0.056152	89.475050	16.297973	-5.050252
55693		-2.817039	9.376895	0.227013	-0.006144	0.000803	0.001878	0.198486	-0.108887	-0.057129	89.473398	16.297199	-5.050354
55694		-2.834015	9.372237	0.156385	-0.003433	-0.000428	0.000145	0.204346	-0.115234	-0.059082	89.471122	16.299094	-5.051688
55695		-2.800792	9.376948	0.148394	-0.003542	0.003057	0.000672	0.199463	-0.111572	-0.059082	89.471336	16.299023	-5.050451
55696		-2.847376	9.388524	0.184430	-0.006920	0.000887	0.000554	0.210693	-0.115234	-0.060791	89.467283	16.300688	-5.051170
55697		-2.800659	9.376972	0.149353	-0.004816	0.001058	0.001143	0.205322	-0.112305	-0.063477	89.466434	16.300337	-5.051123
55698		-2.812596	9.369962	0.170013	-0.007696	0.000970	-0.000770	0.211426	-0.114990	-0.060547	89.461951	16.302765	-5.051905
55699		-2.779346	9.374675	0.162338	-0.006199	0.002544	0.002141	0.206055	-0.113037	-0.063721	89.460560	16.301849	-5.050966
55700		-2.824319	9.363001	0.191326	-0.008303	0.002372	0.001552	0.209961	-0.109375	-0.061523	89.455978	16.302944	-5.050898
55701		-2.824281	9.362997	0.192063	-0.009964	0.006024	-0.000568	0.217529	-0.106934	-0.060059	89.453008	16.303600	-5.047896
55702		-2.802965	9.360705	0.204445	-0.004040	0.000974	0.002467	0.207520	-0.109375	-0.058838	89.450650	16.304173	-5.048629
55703		-2.815049	9.416613	0.187451	-0.006090	-0.000940	0.001613	0.204102	-0.107666	-0.053711	89.448737	16.303541	-5.049772
55704		-2.823851	9.363093	0.193725	-0.008358	0.004113	0.001815	0.203369	-0.112549	-0.062744	89.444443	16.304478	-5.048486
55705		-2.813185	9.393430	0.181346	-0.004095	0.002715	0.002731	0.207764	-0.106445	-0.060791	89.444287	16.303226	-5.047441
55706		-2.779435	9.335319	0.211128	-0.007473	0.000545	0.002611	0.208496	-0.112793	-0.066895	89.439896	16.303676	-5.048358
55707		-2.812752	9.393540	0.182376	-0.004871	0.002799	0.001407	0.196533	-0.112061	-0.058838	89.439308	16.303183	-5.047271
55708		-2.832406	9.372600	0.163648	-0.003488	0.001314	0.000409	0.211670	-0.108154	-0.054688	89.437325	16.304879	-5.047752
55709		-2.801708	9.361006	0.207872	-0.006643	-0.001282	0.003670	0.195313	-0.113281	-0.063477	89.435041	16.303067	-5.049087
55710		-2.777510	9.375117	0.168152	-0.001772	-0.004081	0.002263	0.205811	-0.109863	-0.064453	89.433158	16.303668	-5.052721
55711		-2.790828	9.391402	0.195711	-0.001274	-0.001998	0.000470	0.202148	-0.113770	-0.061523	89.433825	16.303685	-5.054502
55712		-2.822476	9.363440	0.196919	-0.001274	-0.001998	0.000470	0.202148	-0.109131	-0.057617	89.432570	16.305312	-5.056974
55713		-2.811938	9.393749	0.184136	0.000830	-0.001826	0.001059	0.199707	-0.114258	-0.065430	89.434472	16.304992	-5.058650
55714		-2.801006	9.361192	0.208945	-0.001772	-0.004081	0.002263	0.213867	-0.105713	-0.056152	89.432596	16.305566	-5.062294
55715		-2.811473	9.393882	0.184465	-0.001106	-0.000682	0.004116	0.209229	-0.112305	-0.060059	89.433585	16.303501	-5.063268
55716		-2.797814	9.377695	0.157113	0.002159	-0.001570	0.000325	0.212891	-0.120361	-0.063721	89.434396	16.305217	-5.065481
55717		-2.813643	9.377686	0.236274	0.004042	-0.005649	0.005826	0.208252	-0.099609	-0.068115	89.437506	16.302145	-5.069411
55718		-2.810647	9.394135	0.184156	0.000885	-0.003569	0.000795	0.204346	-0.116211	-0.072754	89.437236	16.303564	-5.072912
55719		-2.810295	9.394243	0.183988	0.003879	-0.000423	0.006619	0.205322	-0.113770	-0.065430	89.441129	16.300067	-5.073718
55720		-2.820444	9.364059	0.196617	0.002213	-0.003312	0.000061	0.200928	-0.105957	-0.063232	89.441659	16.301880	-5.077080
55721		-2.808422	9.371095	0.176426	0.000776	-0.000085	0.001324	0.200928	-0.105469	-0.056641	89.443823	16.301418	-5.077714
55722		-2.787039	9.368821	0.188265	-0.000498	-0.002083	0.001794	0.200928	-0.107666	-0.061279	89.443044	16.302246	-5.080055
55723		-2.797590	9.401485	0.163730	-0.001881	-0.000597	0.002792	0.208496	-0.107178	-0.063477	89.443602	16.300941	-5.080987
55724		-2.819796	9.364252	0.196709	0.000667	0.003399	0.001852	0.204834	-0.104004	-0.054932	89.444411	16.301758	-5.080165
55725		-2.795699	9.378333	0.156631	-0.003986	-0.000769	0.002203	0.201660	-0.110107	-0.060547	89.443733	16.300789	-5.081203
55726		-2.807493	9.371366	0.176856	0.003043	-0.005139	0.001120	0.202881	-0.112793	-0.059082	89.444488	16.301969	-5.085414
55727		-2.820597	9.387724	0.204103	-0.000438	0.002717	0.005968	0.203857	-0.104248	-0.062256	89.446433	16.298863	-5.084349
55728		-2.808341	9.394826	0.184075	-0.001274	-0.001998	0.000470	0.202148	-0.112793	-0.068359	89.445236	16.300423	-5.086751
55729		-2.816053	9.380916	0.144972	0.000776	-0.000085	0.001324	0.207764	-0.103027	-0.065186	89.447400	16.299962	-5.087385
55730		-2.783967	9.346014	0.181527	-0.001274	-0.001998	0.000470	0.204102	-0.108643	-0.063232	89.446201	16.301516	-5.089870
55731		-2.818457	9.364647	0.197126	0.000223	-0.000426	0.003382	0.203857	-0.110840	-0.057617	89.447994	16.299874	-5.090696
55732		-2.807905	9.394950	0.184374	-0.002934	0.001656	-0.001649	0.196777	-0.113770	-0.061279	89.446470	16.302651	-5.090939
55733		-2.806381	9.371689	0.177369	-0.001827	-0.002339	0.002528	0.204346	-0.111816	-0.055420	89.446766	16.301488	-5.092912
55734		-2.804788	9.348446	0.170495	-0.005592	0.001143	-0.000180	0.206299	-0.108887	-0.052979	89.443645	16.303404	-5.093424
55735		-2.806272	9.371707	0.178146	-0.003433	-0.000428	0.000145	0.209229	-0.116455	-0.062256	89.443338	16.303617	-5.094270
55736		-2.807764	9.394968	0.185633	-0.002159	0.001571	-0.000325	0.204346	-0.113525	-0.062012	89.442265	16.305625	-5.094592
55737		-2.819655	9.387968	0.205920	-0.002711	0.001229	0.001733	0.197266	-0.121338	-0.066406	89.442651	16.304936	-5.094440
55738		-2.792694	9.355483	0.151519	-0.003433	-0.000428	0.000145	0.201660	-0.110840	-0.058838	89.440499	16.306636	-5.096016
55739		-2.796791	9.362403	0.211152	-0.004816	0.001058	0.001143	0.197021	-0.106201	-0.057129	89.439649	16.306284	-5.095970
55740		-2.828752	9.397346	0.174949	-0.002159	0.001571	-0.000325	0.203369	-0.116211	-0.059570	89.438590	16.308266	-5.096149
55741		-2.784713	9.369444	0.191622	-0.003986	-0.000769	0.002203	0.204834	-0.117432	-0.056152	89.437911	16.307298	-5.097187
55742		-2.805890	9.371787	0.179956	0.001383	-0.001486	-0.000999	0.203369	-0.112793	-0.057129	89.438367	16.309639	-5.099347
55743		-2.805890	9.371787	0.179956	-0.001383	0.001486	0.000999	0.209717	-0.115234	-0.057129	89.439556	16.309373	-5.099046
55744		-2.828491	9.397414	0.175557	-0.002657	-0.000513	0.001468	0.200439	-0.112305	-0.062500	89.437876	16.310307	-5.100591
55745		-2.807203	9.395097	0.187588	-0.002159	0.001571	-0.000325	0.206543	-0.104004	-0.056641	89.438632	16.310799	-5.100247
55746		-2.805686	9.371835	0.180632	-0.004816	0.001058	0.001143	0.203613	-0.107422	-0.066162	89.435982	16.311922	-5.100786
55747		-2.805616	9.371849	0.180988	-0.003487	0.001314	0.000409	0.198486	-0.117676	-0.058105	89.435936	16.311993	-5.100591
55748		-2.805593	9.371852	0.181168	-0.002267	0.005054	0.000205	0.197754	-0.111572	-0.059570	89.435412	16.313657	-5.098815
55749		-2.805591	9.371848	0.181393	-0.003379	-0.002170	-0.000120	0.210938	-0.104980	-0.055664	89.434842	16.314011	-5.100702
55750		-2.819005	9.388094	0.209047	-0.003541	0.003056	0.000674	0.210449	-0.111572	-0.059570	89.433275	16.315401	-5.100034
55751		-2.805547	9.371848	0.182073	-0.005592	0.001143	-0.000180	0.202148	-0.107422	-0.055908	89.431993	16.315809	-5.099944
55752		-2.805476	9.371863	0.182429	-0.002712	0.001229	0.001733	0.207031	-0.115723	-0.051270	89.430599	16.316576	-5.100403
55753		-2.818748	9.388146	0.210160	-0.006145	0.000801	0.001877	0.212891	-0.106201	-0.061279	89.428947	16.315803	-5.100506
55754		-2.784005	9.369585	0.194993	-0.002159	0.001570	-0.000325	0.207520	-0.110352	-0.058594	89.427930	16.317749	-5.100811
55755		-2.817258	9.364871	0.203523	-0.004263	0.001399	-0.000915	0.203369	-0.108643	-0.066406	89.427451	16.318579	-5.100573
55756		-2.806647	9.395194	0.191006	-0.003265	0.000886	0.003791	0.207520	-0.109619	-0.064697	89.425681	16.318145	-5.101287
55757		-2.793065	9.378997	0.163735	0.001329	0.000257	-0.000734	0.203369	-0.111084	-0.061035	89.428215	16.318864	-5.101729
55758		-2.824906	9.351001	0.164876	-0.005093	0.003226	-0.001973	0.200928	-0.110107	-0.065186	89.425787	16.321735	-5.101093
55759		-2.805028	9.371960	0.184332	-0.004648	0.002371	0.004790	0.207764	-0.107178	-0.057617	89.425260	16.319303	-5.100240
55760		-2.826047	9.374352	0.172939	-0.005592	0.001142	-0.000181	0.202148	-0.114258	-0.061035	89.422212	16.321130	-5.100774
55761		-2.813980	9.381406	0.153272	-0.004041	0.000971	0.002467	0.204102	-0.116211	-0.054688	89.421795	16.320020	-5.100771
55762		-2.783373	9.369722	0.197429	-0.005592	0.001142	-0.000181	0.199951	-0.111572	-0.056641	89.418759	16.321830	-5.101312
55763		-2.804562	9.372065	0.186063	-0.004816	0.001057	0.001143	0.208740	-0.110840	-0.054443	89.417910	16.321479	-5.101266
55764		-2.804553	9.372060	0.186454	-0.004263	0.001399	-0.000915	0.204590	-0.113770	-0.065918	89.415692	16.323713	-5.101581
55765		-2.827188	9.397679	0.182191	-0.001828	-0.002341	0.002526	0.198975	-0.109131	-0.064453	89.415987	16.322549	-5.103555
55766		-2.824027	9.351209	0.168117	-0.008358	0.004111	0.001817	0.203857	-0.116211	-0.064697	89.411863	16.323217	-5.102376
55767		-2.804117	9.372163	0.187837	-0.006091	-0.000942	0.001611	0.201416	-0.103516	-0.062988	89.409948	16.322586	-5.103520
55768		-2.838598	9.390780	0.203841	-0.004041	0.000971	0.002467	0.196289	-0.112549	-0.060303	89.407784	16.322862	-5.104173
55769		-2.824955	9.374607	0.176941	-0.006145	0.000799	0.001877	0.207520	-0.117188	-0.052734	89.406131	16.322089	-5.104276
55770		-2.791552	9.379349	0.169299	-0.007474	0.000542	0.002610	0.202637	-0.110107	-0.057617	89.401950	16.322271	-5.105104
55771		-2.803306	9.372362	0.190003	-0.006145	0.000799	0.001877	0.201172	-0.114014	-0.058105	89.400297	16.321498	-5.105207
55772		-2.816721	9.388578	0.217895	-0.006421	0.002969	-0.001239	0.200684	-0.114990	-0.065674	89.397125	16.323896	-5.104597
55773		-2.803151	9.372387	0.191049	-0.004486	-0.002856	0.003993	0.206055	-0.112305	-0.060303	89.395813	16.321889	-5.106869
55774		-2.802897	9.372449	0.191712	-0.010516	0.005680	0.001494	0.206055	-0.110352	-0.063477	89.390742	16.322728	-5.104767
55775		-2.801225	9.349240	0.184945	-0.001882	-0.000600	0.002791	0.205322	-0.116211	-0.061768	89.391298	16.321423	-5.105700
55776		-2.790613	9.379570	0.172483	-0.005592	0.001142	-0.000181	0.208496	-0.118408	-0.065186	89.388292	16.323194	-5.106333
55777		-2.823714	9.374900	0.181184	-0.003987	-0.000772	0.002201	0.203613	-0.103516	-0.062012	89.387613	16.322226	-5.107372
55778		-2.823592	9.374930	0.181527	-0.003487	0.001313	0.000409	0.205078	-0.106445	-0.064453	89.385851	16.323657	-5.107885
55779		-2.802321	9.372583	0.193584	-0.001275	-0.001999	0.000468	0.198486	-0.115479	-0.064453	89.386516	16.323674	-5.109667
55780		-2.802241	9.372605	0.193694	-0.001437	0.003226	0.001266	0.194580	-0.112305	-0.057861	89.386253	16.324610	-5.108983
55781		-2.811397	9.382037	0.161798	0.000829	-0.001828	0.001058	0.205078	-0.112061	-0.053955	89.388154	16.324290	-5.110659
55782		-2.780867	9.370288	0.205724	-0.003326	-0.003912	-0.000389	0.217529	-0.113525	-0.060303	89.385642	16.326120	-5.114047
55783		-2.826017	9.358549	0.234361	-0.001275	-0.001999	0.000468	0.206299	-0.111816	-0.058594	89.386307	16.326137	-5.115829
55784		-2.811107	9.382114	0.162343	0.000998	-0.000516	0.004705	0.216553	-0.114746	-0.062500	89.386844	16.325090	-5.117429
55785		-2.789625	9.379829	0.174381	-0.004709	-0.002428	0.000611	0.201172	-0.118896	-0.058105	89.385470	16.325023	-5.119467
55786		-2.822693	9.375173	0.182926	-0.000553	-0.000344	0.002057	0.205322	-0.110840	-0.062256	89.385142	16.325468	-5.121010
55787		-2.801280	9.372868	0.194831	-0.000500	-0.002085	0.001791	0.205566	-0.110840	-0.063477	89.386240	16.324726	-5.122835
55788		-2.798369	9.389378	0.143054	-0.004095	0.002711	0.002733	0.202637	-0.111572	-0.060547	89.384400	16.324799	-5.122451
55789		-2.810018	9.382420	0.163539	-0.004487	-0.002857	0.003992	0.210938	-0.105469	-0.060059	89.383087	16.322792	-5.124724
55790		-2.820317	9.352169	0.176752	-0.003434	-0.000429	0.000143	0.207764	-0.110596	-0.065674	89.381118	16.324331	-5.126150
55791		-2.809700	9.382502	0.164300	-0.004041	0.000969	0.002467	0.209229	-0.107666	-0.057861	89.380700	16.323221	-5.126147
55792		-2.800216	9.373150	0.196575	-0.003987	-0.000772	0.002201	0.198730	-0.110840	-0.063232	89.378363	16.323575	-5.127833
55793		-2.812041	9.366132	0.217142	-0.006975	0.002626	0.000819	0.203125	-0.116211	-0.052002	89.376539	16.323419	-5.126852
55794		-2.787976	9.380260	0.177529	-0.006199	0.002539	0.002143	0.205322	-0.116455	-0.058105	89.373499	16.323796	-5.126417
55795		-2.810231	9.342954	0.211014	-0.007421	-0.001202	0.002344	0.206787	-0.114746	-0.060303	89.370780	16.322742	-5.127711
55796		-2.786187	9.357080	0.171446	-0.005646	0.002883	0.000086	0.202881	-0.113525	-0.064209	89.368110	16.324300	-5.127237
55797		-2.808601	9.382775	0.167480	-0.007253	0.000109	0.005991	0.205566	-0.106201	-0.054932	89.365714	16.321166	-5.127725
55798		-2.808239	9.382871	0.168153	-0.008357	0.004109	0.001819	0.200684	-0.115723	-0.060791	89.361712	16.321739	-5.126390
55799		-2.820065	9.375845	0.188941	-0.008250	0.000626	0.001286	0.202393	-0.108887	-0.064209	89.358823	16.321303	-5.126600
55800		-2.807811	9.382970	0.169785	-0.011462	-0.000235	0.004810	0.207520	-0.116211	-0.059570	89.352313	16.320115	-5.127908
55801		-2.798261	9.373604	0.202636	-0.010516	0.005678	0.001496	0.208008	-0.113281	-0.059570	89.348974	16.319592	-5.125100
55802		-2.795407	9.390126	0.151605	-0.011738	0.001937	0.001695	0.200684	-0.111084	-0.064453	89.342681	16.320209	-5.125195
55803		-2.797964	9.373650	0.204619	-0.011738	0.001937	0.001695	0.205566	-0.109619	-0.051514	89.338014	16.319547	-5.124619
55804		-2.806923	9.383161	0.173846	-0.013675	0.003074	0.004752	0.201172	-0.115967	-0.064941	89.330825	16.318412	-5.123820
55805		-2.827822	9.385619	0.163268	-0.015279	0.004989	0.002372	0.210693	-0.114990	-0.067871	89.324643	16.317383	-5.121418
55806		-2.839432	9.378631	0.184869	-0.020650	0.005696	0.005571	0.204834	-0.108154	-0.056396	89.313874	16.315781	-5.119398
55807		-2.805617	9.383466	0.178379	-0.018993	0.002038	0.007684	0.201172	-0.117432	-0.060303	89.305079	16.311690	-5.118719
55808		-2.759830	9.395374	0.152018	-0.024032	0.003523	0.005445	0.212891	-0.113281	-0.059814	89.292048	16.310146	-5.117679
55809		-2.819405	9.423117	0.217261	-0.026244	0.006832	0.005390	0.201904	-0.110596	-0.060791	89.279898	16.307404	-5.114153
55810		-2.825225	9.386226	0.173088	-0.027467	0.003089	0.005586	0.208740	-0.121094	-0.062988	89.264830	16.305781	-5.113479
55811		-2.813767	9.353669	0.200220	-0.029959	0.003874	0.010700	0.204346	-0.115723	-0.060547	89.250068	16.299976	-5.111676
55812		-2.790440	9.391282	0.170376	-0.033509	0.000395	0.006923	0.206299	-0.110107	-0.060547	89.231085	16.297544	-5.112735
55813		-2.792491	9.374812	0.225126	-0.028076	0.004475	0.007910	0.211914	-0.112305	-0.059570	89.217496	16.293343	-5.110594
55814		-2.811522	9.354166	0.208383	-0.025865	0.001162	0.007963	0.210938	-0.114746	-0.062256	89.203049	16.290341	-5.111039
55815		-2.812139	9.377589	0.218231	-0.028632	0.004121	0.009966	0.208496	-0.109863	-0.066895	89.189088	16.284960	-5.109088
55816		-2.809863	9.354556	0.213166	-0.022432	0.001589	0.007821	0.202393	-0.116943	-0.054443	89.176667	16.282034	-5.109433
55817		-2.777313	9.382654	0.214352	-0.021657	0.001498	0.009145	0.202637	-0.109131	-0.063477	89.166261	16.277102	-5.109053
55818		-2.799103	9.345363	0.248859	-0.017615	0.000537	0.006678	0.203125	-0.113281	-0.061035	89.156446	16.274797	-5.109750
55819		-2.809065	9.378330	0.225883	-0.014735	0.000618	0.008594	0.201172	-0.107178	-0.056885	89.149859	16.270175	-5.109899
55820		-2.818905	9.348161	0.239859	-0.014180	0.000967	0.006537	0.208496	-0.110107	-0.058594	89.142090	16.267956	-5.110282
55821		-2.786414	9.376244	0.240295	-0.012577	-0.000953	0.008915	0.207520	-0.108154	-0.062500	89.136477	16.263136	-5.111364
55822		-2.806831	9.378911	0.229479	-0.010075	0.004788	0.008262	0.206543	-0.117432	-0.062256	89.131704	16.259977	-5.109583
55823		-2.794092	9.386243	0.210334	-0.012233	0.006357	0.007940	0.205078	-0.110840	-0.069580	89.127508	16.255779	-5.106311
55824		-2.804004	9.356066	0.223786	-0.007258	0.000087	0.005986	0.208740	-0.109375	-0.059814	89.123535	16.253852	-5.107579
55825		-2.794243	9.409806	0.219414	-0.012181	0.004616	0.007669	0.209473	-0.110107	-0.061035	89.119076	16.249794	-5.105348
55826		-2.793409	9.346831	0.257564	-0.013511	0.004354	0.008401	0.202148	-0.116211	-0.064453	89.112277	16.246544	-5.103838
55827		-2.794020	9.370266	0.265939	-0.009248	0.002954	0.009315	0.204102	-0.111816	-0.068359	89.109226	16.241529	-5.102583
55828		-2.791938	9.347228	0.259101	-0.004650	0.002347	0.004793	0.197021	-0.120605	-0.059570	89.107124	16.240286	-5.102475
55829		-2.768738	9.384891	0.226949	-0.007970	0.004954	0.008854	0.196777	-0.112061	-0.054443	89.105138	16.235553	-5.100030
55830		-2.799803	9.357215	0.228309	-0.007415	0.005305	0.006798	0.203613	-0.120117	-0.059082	89.101989	16.233166	-5.097753
55831		-2.788654	9.387731	0.216037	-0.002597	0.004257	0.005656	0.199219	-0.106689	-0.059570	89.102956	16.230258	-5.095754
55832		-2.777528	9.355039	0.240698	-0.004703	0.004086	0.005063	0.199951	-0.115234	-0.057129	89.101156	16.228870	-5.094330
55833		-2.757211	9.375926	0.260054	-0.000544	0.006166	0.006520	0.200684	-0.110352	-0.068604	89.103620	16.225485	-5.091183
55834		-2.789902	9.371441	0.267770	0.007761	0.003808	0.004968	0.212158	-0.111816	-0.058838	89.108902	16.224137	-5.090018
55835		-2.754912	9.353010	0.251130	0.011753	0.004590	0.002774	0.205811	-0.110596	-0.058594	89.118138	16.222883	-5.087847
55836		-2.733538	9.350616	0.261499	0.015640	0.008850	0.001121	0.206787	-0.114014	-0.052002	89.128792	16.223814	-5.083692
55837		-2.787569	9.411791	0.219159	0.014799	0.005966	0.008341	0.209961	-0.118652	-0.064453	89.140017	16.219382	-5.080650
55838		-2.797504	9.381678	0.230265	0.013198	0.007886	0.005963	0.208252	-0.118408	-0.062744	89.149120	16.217502	-5.077111
55839		-2.795629	9.358630	0.221349	0.013701	0.009976	0.004178	0.207520	-0.123291	-0.063477	89.160374	16.215488	-5.071716
55840		-2.784713	9.389102	0.207084	0.017344	0.003445	0.002957	0.205811	-0.117432	-0.061279	89.171080	16.215266	-5.071110
55841		-2.817842	9.384540	0.213176	0.026257	-0.000307	-0.000918	0.202148	-0.114258	-0.065186	89.187802	16.216085	-5.071894
55842		-2.795294	9.358880	0.214930	0.031848	-0.001451	-0.000734	0.204102	-0.115967	-0.057861	89.206005	16.217937	-5.074052
55843		-2.771453	9.373093	0.171773	0.035943	-0.004156	-0.003469	0.202393	-0.105469	-0.052490	89.227628	16.220187	-5.077153
55844		-2.751905	9.393846	0.187848	0.033229	-0.002938	-0.001737	0.200439	-0.112793	-0.062256	89.246425	16.222621	-5.079786
55845		-2.774850	9.356395	0.217788	0.027470	-0.003099	-0.005571	0.205811	-0.109619	-0.057617	89.263366	16.226086	-5.082271
55846		-2.766161	9.346766	0.247166	0.027418	-0.001361	-0.005302	0.201172	-0.114014	-0.052734	89.279068	16.230560	-5.084184
55847		-2.787908	9.412209	0.195618	0.027521	-0.004844	-0.005840	0.209717	-0.112549	-0.060059	89.295747	16.234167	-5.087710
55848		-2.794916	9.375103	0.146817	0.022537	-0.005094	-0.008349	0.203613	-0.108154	-0.056152	89.308041	16.240359	-5.091837
55849		-2.807645	9.367852	0.164691	0.026745	-0.004758	-0.007165	0.204590	-0.110596	-0.057373	89.324287	16.244729	-5.095320
55850		-2.800555	9.381428	0.201591	0.026849	-0.008241	-0.007702	0.207275	-0.109619	-0.062256	89.338540	16.250534	-5.101224
55851		-2.799816	9.358024	0.192118	0.023362	-0.006930	-0.007294	0.209717	-0.111816	-0.060303	89.352485	16.254965	-5.106002
55852		-2.788392	9.364951	0.169936	0.026240	-0.006852	-0.005379	0.205078	-0.106689	-0.065918	89.366608	16.259452	-5.111339
55853		-2.790204	9.388121	0.175222	0.019989	-0.002574	-0.002971	0.206055	-0.110840	-0.060547	89.379356	16.261435	-5.113486
55854		-2.781226	9.378610	0.205550	0.015224	-0.003259	-0.002098	0.205322	-0.118408	-0.057129	89.387772	16.264054	-5.116630
55855		-2.778727	9.395072	0.151866	0.022596	-0.000321	-0.004170	0.207275	-0.118896	-0.065674	89.402388	16.266739	-5.117440
55856		-2.791198	9.387924	0.169834	0.024134	-0.007028	-0.005970	0.206787	-0.109375	-0.067383	89.415273	16.271519	-5.123025
55857		-2.802240	9.357531	0.180472	0.024856	-0.005377	-0.004380	0.197266	-0.111084	-0.063477	89.430338	16.274295	-5.126852
55858		-2.811830	9.366902	0.146290	0.026960	-0.005210	-0.003789	0.202881	-0.107666	-0.051514	89.445144	16.277842	-5.131213
55859		-2.780507	9.394685	0.142960	0.027567	-0.006609	-0.006113	0.204590	-0.110596	-0.060547	89.461554	16.281607	-5.135784
55860		-2.814232	9.389944	0.148774	0.028394	-0.008440	-0.005055	0.211670	-0.107910	-0.055664	89.476697	16.285880	-5.141721
55861		-2.793474	9.387447	0.158407	0.022750	-0.005554	-0.004973	0.202881	-0.107178	-0.052979	89.490524	16.288999	-5.145655
55862		-2.803017	9.396788	0.124720	0.019641	-0.009894	-0.001981	0.204834	-0.107422	-0.058350	89.500432	16.291522	-5.152412
55863		-2.794277	9.387264	0.155075	0.019200	-0.009034	-0.008743	0.204834	-0.110596	-0.063232	89.511638	16.296786	-5.158441
55864		-2.802738	9.373222	0.114142	0.025115	-0.014097	-0.005711	0.197266	-0.111084	-0.058350	89.523942	16.301398	-5.167974
55865		-2.806301	9.419572	0.126720	0.024946	-0.015411	-0.009358	0.203857	-0.107178	-0.067627	89.537370	16.306987	-5.177811
55866		-2.796370	9.386731	0.149479	0.024339	-0.014014	-0.007036	0.207031	-0.109863	-0.059082	89.549234	16.312338	-5.187313
55867		-2.804909	9.372641	0.108371	0.024840	-0.011933	-0.008829	0.201172	-0.114258	-0.058838	89.563184	16.317643	-5.195069
55868		-2.805731	9.372418	0.106343	0.027101	-0.016992	-0.009034	0.207031	-0.112793	-0.061035	89.576155	16.324133	-5.206328
55869		-2.798757	9.386111	0.143608	0.026035	-0.025960	-0.009622	0.202637	-0.120117	-0.060059	89.588433	16.329837	-5.222460
55870		-2.845120	9.437091	0.132924	0.020116	-0.020904	-0.012655	0.195313	-0.118408	-0.058105	89.596733	16.338369	-5.236252
55871		-2.831601	9.397139	0.097145	0.020931	-0.029277	-0.016034	0.207764	-0.111572	-0.067139	89.605518	16.347739	-5.254390
55872		-2.834732	9.419921	0.103095	0.026560	-0.038717	-0.020557	0.200928	-0.114258	-0.060791	89.614498	16.360720	-5.278832
55873		-2.811620	9.409945	0.054261	0.029360	-0.049990	-0.027256	0.204346	-0.107666	-0.056152	89.624607	16.376446	-5.309383
55874		-2.850817	9.450932	0.075688	0.032538	-0.062248	-0.039660	0.201660	-0.108398	-0.062012	89.633055	16.400311	-5.347690
55875		-2.853871	9.489228	0.029542	0.038254	-0.081749	-0.049149	0.207031	-0.110107	-0.064209	89.642852	16.428476	-5.397295
55876		-2.834658	9.541011	-0.057488	0.058993	-0.112424	-0.068850	0.202148	-0.115723	-0.074463	89.657894	16.468904	-5.465865
55877		-2.853521	9.571149	-0.085126	0.079420	-0.147545	-0.096117	0.205322	-0.104004	-0.067383	89.679998	16.523786	-5.554953
55878		-2.897749	9.665197	-0.164160	0.125404	-0.201379	-0.135407	0.207031	-0.116943	-0.065186	89.717728	16.602106	-5.677229
55879		-2.925865	9.692365	-0.197143	0.197597	-0.307030	-0.207602	0.204102	-0.107910	-0.072754	89.779866	16.720582	-5.861987
55880		-2.888144	9.779881	-0.258592	0.296638	-0.438867	-0.306232	0.208740	-0.110352	-0.068115	89.874068	16.896608	-6.126670
55881		-2.922657	9.852478	-0.219406	0.434760	-0.601529	-0.444664	0.206787	-0.106445	-0.071533	90.019290	17.151364	-6.487954
55882		-2.322789	11.228646	0.465602	0.513858	-0.732460	-0.636057	0.196289	-0.101563	-0.075684	90.183313	17.517860	-6.928309
55883		-0.741423	13.697163	1.098385	0.363024	-0.345504	-1.134333	0.202148	-0.087891	-0.078125	90.330242	18.168973	-7.133801
55884		-1.793712	13.957765	1.534946	0.132177	0.007740	-1.706440	0.213379	-0.073975	-0.081299	90.409819	19.147676	-7.123773
55885		-2.922842	14.782384	0.716457	-0.353554	0.081309	-1.810450	0.218750	-0.055908	-0.076660	90.227649	20.185019	-7.068773
55886		-2.084098	15.444083	1.367523	-0.989379	0.168212	-1.786817	0.217285	-0.046143	-0.080322	89.697022	21.209552	-6.967834
55887		-2.347561	15.010979	1.356070	-1.495562	0.361785	-1.774025	0.234375	-0.028564	-0.072754	88.919451	22.228711	-6.758550
55888		-2.535986	13.124686	1.458065	-1.716269	0.528328	-1.823050	0.234131	-0.000977	-0.077637	88.051322	23.281106	-6.461924
55889		-0.708504	10.583677	0.901357	-1.497929	0.672770	-1.819279	0.246582	0.014404	-0.071045	87.346174	24.338389	-6.087324
55890		-0.339736	11.172401	0.396701	-1.149473	0.700594	-1.653022	0.247314	0.032227	-0.070313	86.850560	25.304453	-5.700203
55891		0.683959	10.371032	0.944397	-0.919259	0.648286	-1.506507	0.251709	0.045166	-0.061035	86.480084	26.188033	-5.344916
55892		-0.671368	9.456197	0.881119	-0.638654	0.537344	-1.383836	0.248779	0.054688	-0.059082	86.242477	26.998128	-5.059467
55893		-0.238466	11.542667	1.172772	-0.312840	0.373118	-0.974061	0.267090	0.059570	-0.049316	86.155766	27.569433	-4.861740
55894		1.036085	11.000723	0.975853	-0.187153	0.332571	-0.550703	0.270020	0.066895	-0.049805	86.136957	27.895810	-4.672909
55895		1.837865	9.529750	0.593035	-0.109706	0.347611	-0.257416	0.268311	0.072021	-0.045166	86.175988	28.056583	-4.459753
55896		2.376182	8.930210	0.339368	-0.097955	0.445405	-0.134361	0.284180	0.068359	-0.038818	86.252722	28.148281	-4.178929
55897		2.480429	8.698690	0.143168	-0.171332	0.587180	-0.060611	0.287598	0.071777	-0.029541	86.334775	28.204950	-3.801280
55898		2.349076	8.415894	0.041265	-0.266999	0.760779	0.045071	0.296143	0.069824	-0.023682	86.415584	28.204045	-3.307933
55899		2.044362	7.849658	-0.100730	-0.308260	0.916043	0.197986	0.302246	0.067383	-0.015381	86.524751	28.123404	-2.706461
55900		1.528483	7.442650	-0.132809	-0.266107	1.014393	0.354383	0.305908	0.057861	0.001953	86.687292	27.951791	-2.037682
55901		1.047169	7.229520	0.041030	-0.217481	1.029035	0.510261	0.312988	0.054688	0.022705	86.883591	27.693223	-1.354190
55902		0.554071	7.160215	0.173866	-0.160986	0.965856	0.654766	0.321777	0.044434	0.034424	87.089160	27.343873	-0.711009
55903		0.212665	7.406131	0.370442	-0.108343	0.859004	0.798059	0.321777	0.027588	0.039551	87.292022	26.911563	-0.134136
55904		-0.127485	8.040626	0.608402	-0.084260	0.720139	0.975783	0.342529	0.017334	0.051025	87.462922	26.367770	0.353405
55905		-0.581455	8.528938	0.791483	-0.138798	0.560232	1.206085	0.347412	-0.003418	0.058594	87.556291	25.691610	0.743062
55906		-0.880305	8.447532	0.964060	-0.230527	0.389783	1.431774	0.354736	-0.020508	0.071777	87.545690	24.877048	1.026372
55907		-1.213670	7.947703	0.899052	-0.293908	0.213050	1.604657	0.366211	-0.048828	0.081055	87.452513	23.964127	1.203729
55908		-1.468572	7.502091	0.848770	-0.296645	0.035599	1.721390	0.364990	-0.078613	0.076660	87.310444	22.975054	1.272855
55909		-1.777001	7.247690	0.793636	-0.250015	-0.145498	1.786205	0.365479	-0.098389	0.093506	87.154851	21.949078	1.235593
55910		-1.946147	7.226019	0.726937	-0.158739	-0.306141	1.833181	0.356689	-0.134766	0.083740	87.015643	20.886309	1.102641
55911		-2.208967	7.378266	0.604644	-0.046223	-0.452737	1.871979	0.371094	-0.163086	0.092773	86.915841	19.801789	0.886306
55912		-2.494117	7.812735	0.528121	0.047576	-0.605567	1.906256	0.370850	-0.191406	0.085449	86.842500	18.687395	0.580277
55913		-2.923910	8.309366	0.617066	0.092488	-0.762946	1.939536	0.359619	-0.235107	0.086670	86.774610	17.553776	0.185533
55914		-3.462308	8.549627	0.715654	0.097374	-0.924080	1.969239	0.357666	-0.260986	0.083252	86.688421	16.392233	-0.301814
55915		-4.098609	8.342744	0.604010	0.085301	-1.105632	1.961513	0.339355	-0.302979	0.071533	86.578611	15.233367	-0.891078
55916		-4.736910	8.068004	0.420885	0.119020	-1.283943	1.862678	0.333496	-0.340332	0.065918	86.471311	14.118757	-1.585073
55917		-5.655528	8.578379	0.362190	0.198146	-1.451911	1.714049	0.322266	-0.365967	0.061523	86.400455	13.087114	-2.377087
55918		-6.660766	9.434171	0.456435	0.267933	-1.599238	1.625727	0.303223	-0.390869	0.054199	86.362924	12.095281	-3.255521
55919		-7.466365	9.667636	0.517289	0.312933	-1.705535	1.645866	0.281250	-0.427979	0.049316	86.356204	11.092368	-4.190521
55920		-11.438305	7.327718	2.612435	0.544818	-1.676130	1.160972	0.269775	-0.438477	0.042236	86.494911	10.364796	-5.125365
55921		-17.922053	-3.925844	-3.104526	0.977072	-0.172755	-0.758881	0.265869	-0.438965	0.051758	87.033480	10.793591	-5.251457
55922		-23.725282	-2.296817	-0.291551	1.076514	-0.082090	-1.862543	0.273682	-0.436279	0.069580	87.631326	11.855317	-5.351369
55923		-29.670759	-0.178250	2.048763	0.379136	0.440127	-3.880711	0.301758	-0.411621	0.072510	87.888372	14.087239	-5.182580
55924		-15.473489	23.238407	21.972223	0.163816	1.143892	-4.397748	0.322998	-0.375977	0.083496	88.138431	16.629263	-4.595132
55925		-17.967321	37.679076	-25.372910	1.386757	1.137058	0.489709	0.320068	-0.384033	0.117920	89.129588	16.364578	-3.909497
55926		2.029830	2.489270	3.364500	-0.021141	0.785523	0.747343	0.319580	-0.391357	0.113037	89.250186	15.944803	-3.435622
55927		-1.708524	8.735019	0.797764	-0.199959	0.176621	-0.371604	0.319336	-0.385986	0.117188	89.165616	16.159390	-3.333986
55928		-4.007924	12.042630	-1.635498	0.157044	0.227800	-0.087142	0.323242	-0.385254	0.114258	89.293656	16.212876	-3.199871
55929		-2.614153	8.444973	0.995235	-0.017883	0.138975	-0.023740	0.313232	-0.391113	0.122559	89.308254	16.227744	-3.117715
55930		-3.287740	9.769235	-0.137638	-0.044011	0.120692	-0.004760	0.314941	-0.389404	0.126221	89.303603	16.233143	-3.046778
55931		-2.625009	8.999543	0.551745	0.034836	0.134461	0.041876	0.323730	-0.388916	0.129883	89.347787	16.210353	-2.966848
55932		-2.955225	9.523721	-0.029161	0.061352	0.127282	0.040351	0.321777	-0.396973	0.120361	89.404651	16.189876	-2.891689
55933		-3.020711	9.629477	-0.137061	0.048694	0.117633	0.060097	0.322998	-0.393799	0.121826	89.453926	16.156413	-2.821752
55934		-2.861065	9.670532	-0.149570	-0.004886	0.102379	0.071584	0.320557	-0.395752	0.128662	89.468704	16.117811	-2.761308
55935		-2.780189	9.517860	0.023333	0.001446	0.085742	0.056965	0.318359	-0.387451	0.128174	89.485530	16.085919	-2.710460
55936		-2.823065	9.597805	-0.073088	0.006981	0.053397	0.040613	0.320068	-0.397949	0.126465	89.498933	16.064772	-2.679411
55937		-2.812362	9.435123	0.114276	-0.000376	0.041053	0.034117	0.322510	-0.395264	0.127197	89.507267	16.045726	-2.655351
55938		-2.756790	9.374558	0.155220	0.012391	0.032183	0.032934	0.330811	-0.392578	0.129883	89.520263	16.028858	-2.636992
55939		-2.729568	9.413112	0.121436	0.020013	0.032931	0.034146	0.318115	-0.394043	0.131592	89.538925	16.009748	-2.617787
55940		-2.752364	9.399605	0.157047	0.030242	0.032933	0.030302	0.322998	-0.401855	0.134277	89.562260	15.994369	-2.599007
55941		-2.721971	9.391749	0.106989	0.028175	0.035743	0.033585	0.321533	-0.395508	0.129395	89.586042	15.975578	-2.578147
55942		-2.761710	9.421222	0.085829	0.018542	0.036087	0.035380	0.321533	-0.403076	0.129883	89.603186	15.957279	-2.557479
55943		-2.782075	9.471307	0.086012	0.003462	0.037114	0.040248	0.320801	-0.392578	0.130859	89.613022	15.934663	-2.535791
55944		-2.765722	9.479493	0.066218	-0.015996	0.032307	0.032605	0.313965	-0.400635	0.139893	89.609750	15.917926	-2.517393
55945		-2.705305	9.435792	0.058520	-0.024618	0.020996	0.030462	0.318848	-0.396729	0.133789	89.600841	15.900855	-2.505350
55946		-2.741516	9.414991	0.118869	-0.030060	0.013995	0.025417	0.309082	-0.391602	0.134033	89.586518	15.888157	-2.497882
55947		-2.702137	9.460304	0.070836	-0.034270	0.010688	0.020210	0.318604	-0.400635	0.139648	89.570382	15.876921	-2.492018
55948		-2.732512	9.433089	0.073637	-0.047337	0.002946	0.013938	0.312988	-0.400146	0.131348	89.544355	15.870745	-2.491172
55949		-2.697967	9.437800	0.072010	-0.059974	0.000709	0.006437	0.323730	-0.403320	0.136963	89.511850	15.867358	-2.491309
55950		-2.762591	9.492415	0.055139	-0.070638	-0.012482	0.003366	0.320068	-0.400879	0.124268	89.469958	15.867151	-2.499694
55951		-2.723662	9.423288	0.124935	-0.085282	-0.021296	-0.009252	0.314697	-0.390137	0.130615	89.419345	15.872630	-2.513024
55952		-2.733938	9.456026	0.109610	-0.096983	-0.025823	-0.012311	0.316895	-0.396973	0.128906	89.360166	15.881300	-2.529448
55953		-2.705722	9.419453	0.157912	-0.118460	-0.037218	-0.025097	0.327148	-0.398682	0.129150	89.287909	15.895722	-2.552387
55954		-2.715532	9.337502	0.257842	-0.117781	-0.043303	-0.031628	0.316895	-0.397217	0.136719	89.213913	15.915279	-2.579393
55955		-2.731694	9.328899	0.289141	-0.111827	-0.044896	-0.040410	0.326172	-0.402832	0.123779	89.144138	15.938356	-2.607079
55956		-2.719376	9.375268	0.237745	-0.111177	-0.053944	-0.050885	0.321777	-0.398682	0.130127	89.072091	15.968776	-2.640661
55957		-2.731964	9.383737	0.217237	-0.104452	-0.052661	-0.054395	0.319092	-0.397217	0.123779	89.005184	15.999725	-2.673181
55958		-2.738518	9.405125	0.236453	-0.111641	-0.044992	-0.052890	0.324463	-0.400146	0.127441	88.934279	16.031297	-2.701534
55959		-2.751107	9.413668	0.215827	-0.105428	-0.042819	-0.050700	0.320801	-0.396240	0.123047	88.868389	16.060162	-2.728232
55960		-2.762442	9.330505	0.313186	-0.085327	-0.042319	-0.049313	0.323486	-0.398438	0.121094	88.812968	16.089645	-2.755027
55961		-2.778118	9.385302	0.305134	-0.068005	-0.043586	-0.050188	0.318604	-0.395264	0.117188	88.768350	16.118158	-2.782242
55962		-2.782714	9.383719	0.311852	-0.048526	-0.046386	-0.050709	0.322754	-0.395264	0.118896	88.733290	16.148342	-2.811537
55963		-2.792124	9.433292	0.241863	-0.040869	-0.050301	-0.053727	0.315430	-0.394531	0.121094	88.703052	16.178763	-2.842850
55964		-2.822814	9.416606	0.285469	-0.031986	-0.050506	-0.056882	0.326172	-0.391846	0.121826	88.676720	16.212391	-2.874728
55965		-2.749193	9.368176	0.292206	-0.022428	-0.054316	-0.046804	0.316650	-0.401855	0.117920	88.656362	16.238765	-2.908378
55966		-2.783552	9.403042	0.258725	-0.019447	-0.037180	-0.040649	0.322998	-0.395020	0.115967	88.639466	16.263243	-2.932111
55967		-2.820712	9.397078	0.268577	-0.024421	-0.032755	-0.039031	0.327393	-0.397461	0.124023	88.621568	16.285441	-2.952810
55968		-2.812937	9.426616	0.260291	-0.024049	-0.035428	-0.032559	0.319824	-0.396973	0.122314	88.602343	16.305287	-2.975400
55969		-2.834982	9.405328	0.243389	-0.029590	-0.036059	-0.033132	0.327393	-0.389404	0.114014	88.580934	16.324045	-2.998004
55970		-2.810896	9.414284	0.299758	-0.032158	-0.040054	-0.032300	0.328125	-0.389893	0.120117	88.556275	16.343653	-3.023368
55971		-2.794281	9.346534	0.351642	-0.025402	-0.035726	-0.031864	0.320557	-0.392822	0.119873	88.537307	16.361673	-3.045774
55972		-2.817706	9.348378	0.341835	-0.012946	-0.031241	-0.027481	0.320801	-0.393555	0.111572	88.525139	16.378625	-3.065820
55973		-2.797646	9.321812	0.347992	-0.002810	-0.024734	-0.026827	0.318848	-0.390869	0.116943	88.520972	16.393913	-3.081598
55974		-2.838440	9.367599	0.280250	0.000012	-0.019977	-0.020616	0.324951	-0.385498	0.114258	88.518143	16.407088	-3.094822
55975		-2.833993	9.379708	0.320394	0.004734	-0.017532	-0.021102	0.327637	-0.385254	0.106201	88.519531	16.419204	-3.106214
55976		-2.800730	9.360965	0.305881	0.001481	-0.023144	-0.021893	0.318359	-0.385742	0.114746	88.517001	16.433056	-3.121350
55977		-2.823489	9.363082	0.293690	0.004859	-0.020974	-0.021676	0.331299	-0.389160	0.110107	88.517871	16.445449	-3.134809
55978		-2.815396	9.329176	0.317942	0.001326	-0.015026	-0.017083	0.327637	-0.390381	0.106934	88.516643	16.456658	-3.145023
55979		-2.816870	9.328727	0.318056	0.003170	-0.007972	-0.015305	0.324219	-0.389648	0.109375	88.518768	16.465594	-3.150619
55980		-2.811713	9.341086	0.357391	0.009962	-0.000659	-0.010921	0.316895	-0.396484	0.119629	88.524946	16.473480	-3.152157
55981		-2.816424	9.369047	0.273092	0.011896	-0.000010	-0.013666	0.333008	-0.385742	0.109863	88.533426	16.481595	-3.152971
55982		-2.855712	9.345838	0.330235	0.011833	0.001709	-0.013381	0.329590	-0.393555	0.116943	88.541070	16.490916	-3.153131
55983		-2.810790	9.358056	0.302612	0.013866	0.003606	-0.012461	0.320801	-0.389648	0.106445	88.551297	16.498394	-3.151764
55984		-2.855380	9.386157	0.283720	0.022219	0.001351	-0.013877	0.325439	-0.389893	0.115234	88.564831	16.507987	-3.152142
55985		-2.837059	9.319102	0.329660	0.024281	-0.001441	-0.017194	0.329102	-0.383545	0.123047	88.580150	16.518104	-3.153857
55986		-2.815186	9.356949	0.295891	0.035129	0.002012	-0.019162	0.321289	-0.390381	0.113281	88.601175	16.530728	-3.153913
55987		-2.847922	9.392429	0.255806	0.040006	-0.003672	-0.024458	0.324463	-0.385010	0.121338	88.625096	16.544976	-3.157059
55988		-2.817875	9.332785	0.280683	0.045507	-0.006016	-0.027847	0.324219	-0.391846	0.114746	88.650673	16.562457	-3.162024
55989		-2.835277	9.347485	0.303383	0.054616	-0.000192	-0.035592	0.328613	-0.389648	0.111328	88.683516	16.583131	-3.163231
55990		-2.851291	9.339064	0.317048	0.070730	-0.005088	-0.036382	0.323730	-0.381592	0.115479	88.723674	16.605509	-3.167738
55991		-2.872803	9.381694	0.253872	0.082323	-0.001749	-0.037023	0.334473	-0.388672	0.113770	88.772128	16.626986	-3.169865
55992		-2.854060	9.355052	0.251004	0.081365	-0.004193	-0.045693	0.320801	-0.387207	0.119629	88.818509	16.654709	-3.173920
55993		-2.880386	9.443342	0.202645	0.087583	-0.009637	-0.051691	0.331299	-0.390137	0.115967	88.868581	16.684500	-3.180904
55994		-2.912463	9.495113	0.107001	0.081421	-0.029022	-0.070497	0.330322	-0.385498	0.121338	88.910657	16.726155	-3.200052
55995		-2.880856	9.447168	0.169300	0.078045	-0.046618	-0.087046	0.329834	-0.380859	0.111816	88.948777	16.775814	-3.229511
55996		-2.923101	9.439545	0.169664	0.094575	-0.058429	-0.101437	0.323730	-0.378906	0.118408	88.993202	16.834907	-3.266535
55997		-2.918653	9.421000	0.135283	0.098994	-0.075715	-0.113412	0.329834	-0.379883	0.116699	89.038152	16.899426	-3.313623
55998		-2.925642	9.435074	0.076971	0.096230	-0.090050	-0.128055	0.339355	-0.377686	0.110352	89.077881	16.973517	-3.369776
55999		-2.915193	9.424594	0.174249	0.099752	-0.103860	-0.140810	0.339600	-0.385010	0.115723	89.118159	17.053542	-3.433925
56000		-2.934994	9.407316	0.128055	0.106016	-0.111148	-0.147109	0.339111	-0.391846	0.116943	89.159605	17.138432	-3.502833
56001		-2.970015	9.405273	0.109238	0.101723	-0.117673	-0.156266	0.329834	-0.373779	0.111572	89.198363	17.227286	-3.575337
56002		-3.010602	9.493406	-0.028748	0.094281	-0.131588	-0.166438	0.329102	-0.378906	0.112305	89.229213	17.323164	-3.656619
56003		-3.070476	9.619207	-0.130722	0.093573	-0.178631	-0.200831	0.342041	-0.370361	0.109131	89.252033	17.437161	-3.766049
56004		-3.060481	9.744294	-0.215414	0.128706	-0.244651	-0.257935	0.341064	-0.375244	0.113770	89.281664	17.584692	-3.915958
56005		-2.754082	9.410855	0.311360	0.257025	-0.261844	-0.323873	0.338135	-0.358887	0.114990	89.382143	17.768793	-4.076276
56006		-2.675787	9.569205	0.114141	0.492079	-0.180106	-0.428684	0.339355	-0.365723	0.119141	89.630800	18.015036	-4.187887
56007		-2.536812	10.739364	0.205738	0.567001	-0.056794	-0.589155	0.342529	-0.357178	0.109131	89.946279	18.352775	-4.224047
56008		-2.938000	11.261995	-0.290018	0.390487	0.039780	-0.834655	0.341064	-0.354248	0.112305	90.178553	18.832417	-4.200430
56009		-3.315121	11.021591	-0.654557	0.150388	-0.016729	-1.037831	0.351807	-0.335938	0.115967	90.263890	19.427389	-4.208743
56010		-3.417848	10.726633	-0.567868	-0.026318	-0.074548	-1.158061	0.360352	-0.319824	0.109375	90.235242	20.092457	-4.252038
56011		-3.332032	10.399744	-0.118488	-0.162094	-0.114438	-1.276571	0.355713	-0.311523	0.108398	90.120437	20.824384	-4.320200
56012		-3.371199	10.068379	0.210761	-0.244914	-0.190664	-1.399417	0.368652	-0.299316	0.109131	89.938591	21.627552	-4.437948
56013		-3.419826	9.603404	0.455154	-0.225017	-0.182563	-1.503010	0.366699	-0.274414	0.104004	89.768049	22.488745	-4.553799
56014		-3.495551	9.502551	0.501017	-0.157589	-0.155450	-1.598729	0.376953	-0.263672	0.096924	89.638724	23.405516	-4.656732
56015		-3.701429	9.188236	0.468106	-0.095206	-0.123188	-1.670161	0.384521	-0.238281	0.099609	89.551569	24.362225	-4.741937
56016		-3.824212	9.133267	0.470446	-0.035318	-0.102062	-1.727498	0.386963	-0.222168	0.103760	89.501057	25.352675	-4.816545
56017		-4.047066	9.170036	0.428917	0.014177	-0.099069	-1.790040	0.389160	-0.206299	0.095215	89.478853	26.378044	-4.890402
56018		-4.213878	9.200059	0.269476	0.047603	-0.106703	-1.859073	0.394287	-0.183350	0.095947	89.470668	27.443744	-4.971136
56019		-4.353440	9.215979	0.243515	0.064059	-0.125327	-1.939481	0.401367	-0.164063	0.088379	89.465299	28.554568	-5.064787
56020		-4.519800	9.238790	0.244450	0.074008	-0.138889	-2.028997	0.406982	-0.130127	0.092041	89.457720	29.717375	-5.169700
56021		-4.725802	9.273534	0.241113	0.071326	-0.147188	-2.131436	0.411621	-0.112549	0.087646	89.443967	30.938032	-5.281617
56022		-4.930326	9.324235	0.258340	0.062509	-0.163724	-2.217094	0.418457	-0.083252	0.080078	89.414750	32.208341	-5.407958
56023		-5.141663	9.311495	0.282616	0.052139	-0.170625	-2.322377	0.416748	-0.059814	0.091064	89.373881	33.538155	-5.541774
56024		-5.440349	9.398350	0.301132	0.053009	-0.178186	-2.439549	0.423096	-0.039795	0.081787	89.324273	34.935584	-5.685964
56025		-5.815053	9.742804	0.262771	0.038048	-0.194548	-2.565609	0.418701	-0.003174	0.077148	89.254465	36.404372	-5.846303
56026		-6.299942	10.076869	0.262027	-0.032240	-0.214798	-2.672304	0.413086	0.020508	0.068359	89.126479	37.934415	-6.029506
56027		-7.014972	10.783620	0.323032	-0.137480	-0.233450	-2.762506	0.415527	0.052734	0.068115	88.920260	39.515001	-6.236236
56028		-7.712797	11.467199	0.381917	-0.315148	-0.267717	-2.809086	0.414063	0.084473	0.065186	88.579816	41.121441	-6.485191
56029		-8.090294	11.836049	0.506919	-0.509104	-0.295286	-2.844486	0.418213	0.119141	0.055664	88.095071	42.745906	-6.776845
56030		-7.570620	12.037979	0.841875	-0.715999	-0.288854	-2.870775	0.423828	0.151855	0.059814	87.466856	44.383579	-7.094935
56031		-7.314163	12.944609	1.577369	-1.059034	-0.258663	-2.914843	0.414063	0.180908	0.044678	86.625502	46.044077	-7.428011
56032		-7.432547	13.469883	1.753857	-1.435054	-0.141151	-2.885206	0.409668	0.218018	0.046143	85.597109	47.687973	-7.712274
56033		-8.142831	12.835765	1.941067	-1.738464	0.062951	-2.824829	0.399414	0.245117	0.038818	84.484687	49.303775	-7.870065
56034		-7.875522	12.156911	1.954330	-1.898424	0.273107	-2.790379	0.395508	0.284912	0.041016	83.380259	50.909708	-7.893619
56035		-6.735251	12.071718	2.011489	-2.007064	0.525625	-2.782427	0.385498	0.327393	0.052002	82.359274	52.529179	-7.731645
56036		-5.666230	11.646262	1.958663	-2.101029	0.844780	-2.841262	0.372070	0.345703	0.052734	81.491442	54.208027	-7.314838
56037		-5.015576	10.174687	1.788576	-2.010942	1.157387	-2.825550	0.363037	0.382080	0.066650	80.924027	55.909500	-6.603761
56038		-3.637403	7.292459	1.235512	-1.623359	1.361953	-2.632712	0.347900	0.403320	0.081055	80.801232	57.521280	-5.640024
56039		1.654696	4.676313	1.113910	-0.979135	1.404535	-2.123668	0.341797	0.427246	0.089355	81.215870	58.849136	-4.494164
56040		4.401616	5.368626	0.497788	-0.330173	1.356355	-1.136496	0.334961	0.440918	0.101563	82.158164	59.604011	-3.179337
56041		-1.513398	9.474095	0.973485	0.138108	1.318276	-0.172284	0.334717	0.441895	0.114014	83.499590	59.796483	-1.719544
56042		-2.213883	12.331121	1.674372	0.268062	1.136634	0.649976	0.325684	0.432373	0.117188	84.822061	59.489781	-0.367034
56043		0.287054	9.454979	1.834294	0.279274	1.178396	0.998721	0.330566	0.421875	0.137451	86.188866	58.972448	1.035217
56044		1.016895	7.089371	1.426468	0.247360	1.126994	1.175700	0.325195	0.404297	0.142578	87.448107	58.332419	2.341638
56045		0.775605	6.775233	1.412778	0.206783	1.040035	1.221114	0.331055	0.384766	0.151367	88.559391	57.654206	3.510151
56046		0.207336	7.053441	1.513312	0.132825	0.953162	1.186643	0.328613	0.380615	0.152100	89.501946	56.979865	4.537584
56047		0.106681	7.014266	1.442471	0.088844	0.833872	1.210366	0.326904	0.372559	0.158691	90.281400	56.287565	5.407632
56048		0.198891	7.070885	1.425646	0.094424	0.674363	1.347822	0.328613	0.350586	0.165283	90.891553	55.507149	6.077270
56049		0.048287	7.579923	1.367397	0.093055	0.496266	1.560274	0.325684	0.330811	0.169434	91.328063	54.608146	6.542407
56050		-0.178036	7.964612	1.348783	0.074497	0.310791	1.783109	0.316650	0.310059	0.170654	91.577807	53.577544	6.796267
56051		-0.216775	8.154372	1.321921	0.032872	0.135130	2.006961	0.324219	0.293457	0.169189	91.657428	52.426231	6.870003
56052		-0.282080	8.198166	1.210070	-0.022271	-0.024683	2.226277	0.333252	0.269043	0.165527	91.577981	51.146228	6.783460
56053		-0.420984	8.480521	1.085609	-0.081357	-0.170225	2.432259	0.325684	0.244141	0.161133	91.371075	49.755932	6.573145
56054		-0.665918	8.883733	0.990786	-0.143611	-0.290320	2.635685	0.312744	0.222412	0.144043	91.057840	48.243713	6.265569
56055		-0.990885	9.175792	0.833597	-0.203606	-0.387307	2.876150	0.321045	0.198975	0.130859	90.673853	46.599646	5.900002
56056		-1.130740	9.108417	0.721540	-0.228553	-0.459621	3.118076	0.321777	0.161133	0.126709	90.255626	44.808761	5.497164
56057		-1.342410	9.034130	0.609285	-0.206967	-0.523421	3.328355	0.313965	0.132324	0.115234	89.848536	42.902320	5.078097
56058		-1.542534	9.146964	0.557851	-0.172289	-0.564039	3.482154	0.309570	0.093262	0.107178	89.468364	40.898211	4.655239
56059		-1.877411	9.442415	0.569547	-0.157952	-0.586842	3.576683	0.309082	0.072754	0.091553	89.119503	38.845219	4.249352
56060		-2.224532	9.790864	0.712076	-0.162295	-0.593012	3.627266	0.299316	0.040527	0.078613	88.790615	36.753553	3.863086
56061		-2.892098	10.077943	0.970642	-0.155999	-0.602232	3.649400	0.292725	0.019043	0.059570	88.490417	34.655282	3.498687
56062		-3.615685	10.483017	1.292990	-0.123598	-0.639974	3.651507	0.288330	-0.012695	0.048340	88.214551	32.545541	3.126846
56063		-4.481616	10.851829	1.709039	-0.092785	-0.728892	3.655923	0.283447	-0.046875	0.039551	87.950142	30.438322	2.718909
56064		-5.461315	11.190133	1.938719	-0.077584	-0.881012	3.656809	0.274414	-0.067871	0.026367	87.665566	28.317233	2.228264
56065		-6.367038	11.208643	2.016167	-0.071746	-1.063439	3.618026	0.258789	-0.098633	0.003174	87.358630	26.220017	1.644040
56066		-7.739505	11.150166	2.142082	-0.068659	-1.256764	3.522440	0.254395	-0.126221	-0.009521	87.026420	24.160828	0.954962
56067		-9.927355	10.723864	1.980043	-0.049712	-1.412419	3.393213	0.235596	-0.155762	-0.023193	86.699278	22.175524	0.191170
56068		-12.781414	10.148770	1.760680	-0.017691	-1.527346	3.210157	0.232666	-0.164063	-0.050049	86.392041	20.279060	-0.630296
56069		-15.626241	9.122985	1.362234	-0.062549	-1.593197	2.940072	0.216797	-0.192383	-0.072266	86.075920	18.538432	-1.479320
56070		-18.129733	8.285932	1.097746	-0.203286	-1.572675	2.533702	0.215820	-0.205322	-0.084717	85.704013	17.019061	-2.316818
56071		-20.469421	7.623057	0.649871	-0.436164	-1.448260	1.974471	0.203125	-0.214844	-0.110352	85.238321	15.826021	-3.086676
56072		-22.205768	6.387309	0.154783	-0.729109	-1.236280	1.374401	0.204346	-0.226074	-0.127686	84.644976	14.973935	-3.749064
56073		-22.907798	4.470171	-0.291738	-0.940919	-0.956091	0.839048	0.201416	-0.227783	-0.141846	83.977022	14.441502	-4.263973
56074		-23.059764	2.333664	-0.355525	-0.974835	-0.606160	0.396628	0.202637	-0.232666	-0.150879	83.336679	14.174053	-4.596415
56075		-25.824721	-5.532000	-0.366617	-0.050307	0.274716	-0.836454	0.202637	-0.213623	-0.148926	83.335495	14.668565	-4.493034
56076		-23.268812	-15.161275	-1.605386	2.303307	0.796660	-1.714951	0.218750	-0.203613	-0.130615	84.750610	15.692387	-4.130041
56077		-33.615940	22.136622	6.297349	4.199036	2.014480	-0.597199	0.220947	-0.199951	-0.105713	87.479758	16.112215	-2.957460
56078		-14.248647	22.713257	-15.872936	2.280686	0.726691	-0.354153	0.220947	-0.213623	-0.085693	88.905381	16.330016	-2.532150
56079		-3.241337	10.369903	-2.225659	0.225313	1.431411	0.579861	0.224365	-0.215088	-0.073486	89.275524	16.011126	-1.673442
56080		-2.937410	12.160887	-2.927850	-0.561790	0.534917	-0.015965	0.220947	-0.216064	-0.084229	89.042296	16.027036	-1.355573
56081		-3.193893	10.137742	-0.262920	-0.370286	0.151036	-0.145823	0.223389	-0.216553	-0.075195	88.856347	16.112448	-1.267723
56082		-4.130081	10.361271	-0.452725	0.015186	-0.130336	-0.234079	0.227051	-0.208496	-0.072021	88.843506	16.247277	-1.348997
56083		-2.993402	10.037523	-0.452372	0.003888	-0.223291	-0.185582	0.237061	-0.209473	-0.078613	88.809420	16.351254	-1.485130
56084		-2.758757	9.019166	0.669711	0.017495	-0.263941	-0.209372	0.225342	-0.216797	-0.083008	88.775132	16.470276	-1.646069
56085		-2.988537	9.469284	0.053996	0.034744	-0.235424	-0.186420	0.226807	-0.203857	-0.087402	88.756074	16.574443	-1.789733
56086		-2.918949	9.674652	-0.071450	-0.128362	-0.225105	-0.153596	0.230469	-0.206787	-0.085693	88.644388	16.661766	-1.927080
56087		-2.863704	9.314374	0.320583	-0.212743	-0.191134	-0.115551	0.227295	-0.196289	-0.085205	88.490887	16.725500	-2.043703
56088		-2.673743	8.950067	0.829167	-0.179743	-0.097193	-0.066828	0.223877	-0.202637	-0.094971	88.371783	16.764502	-2.103627
56089		-2.663324	8.868559	0.848677	-0.062597	0.024966	-0.011783	0.228760	-0.208740	-0.092285	88.341886	16.771944	-2.089497
56090		-2.814263	9.143472	0.547890	-0.001676	0.107211	0.023790	0.225586	-0.207031	-0.085938	88.360435	16.762319	-2.025688
56091		-2.942926	9.352458	0.290732	-0.007419	0.128756	0.051194	0.226807	-0.203857	-0.084961	88.380346	16.735381	-1.948410
56092		-3.002014	9.566209	0.114428	-0.046907	0.107384	0.064030	0.225342	-0.200684	-0.089600	88.373144	16.702680	-1.883839
56093		-3.037819	9.666994	-0.024861	-0.096885	0.053975	0.046062	0.229492	-0.208008	-0.085449	88.328849	16.677472	-1.851376
56094		-3.019546	9.740500	-0.066310	-0.169114	-0.014375	0.025475	0.223877	-0.199707	-0.087891	88.230540	16.664861	-1.860224
56095		-2.947285	9.517273	0.160268	-0.218227	-0.064378	-0.003126	0.231201	-0.203857	-0.088379	88.096171	16.665751	-1.899370
56096		-2.833830	9.344796	0.471243	-0.211012	-0.072099	-0.004687	0.229004	-0.199951	-0.087891	87.963832	16.669232	-1.943259
56097		-2.795679	9.208768	0.585496	-0.179001	-0.038042	0.007867	0.229004	-0.199219	-0.087891	87.856519	16.664211	-1.966429
56098		-2.776860	9.163644	0.655519	-0.127629	0.005662	0.032644	0.226318	-0.204834	-0.093994	87.785510	16.647847	-1.963009
56099		-2.789844	9.209076	0.608027	-0.064151	0.056621	0.055584	0.224854	-0.199463	-0.080811	87.760527	16.617562	-1.928490
56100		-2.825460	9.216481	0.583790	-0.016903	0.094142	0.071145	0.224609	-0.207275	-0.092773	87.768299	16.581124	-1.871305
56101		-2.811618	9.302426	0.495822	0.018309	0.115680	0.076653	0.222168	-0.202148	-0.090576	87.800709	16.540078	-1.801042
56102		-2.844397	9.280724	0.545380	0.062931	0.128085	0.080998	0.230469	-0.199707	-0.080811	87.859947	16.498665	-1.723438
56103		-2.842307	9.366235	0.377281	0.094021	0.127642	0.076565	0.227783	-0.208252	-0.082031	87.937632	16.457787	-1.646149
56104		-2.800700	9.343911	0.441116	0.107091	0.130738	0.078817	0.228027	-0.206055	-0.087402	88.022457	16.417475	-1.567159
56105		-2.815508	9.379347	0.331006	0.121962	0.120986	0.074632	0.228516	-0.202393	-0.085938	88.114870	16.377355	-1.494041
56106		-2.862969	9.467297	0.282331	0.133416	0.107859	0.066500	0.226807	-0.200684	-0.077148	88.210721	16.343427	-1.429110
56107		-2.876925	9.566359	0.135910	0.147431	0.074777	0.041702	0.224121	-0.202148	-0.083496	88.309677	16.321128	-1.384331
56108		-2.799546	9.449453	0.249654	0.152749	0.049491	0.015725	0.234863	-0.213379	-0.081299	88.406507	16.315102	-1.355233
56109		-2.765956	9.361382	0.346702	0.132760	0.049489	0.021073	0.223877	-0.211670	-0.083496	88.492686	16.304085	-1.325959
56110		-2.777936	9.383936	0.268491	0.135877	0.059606	0.026180	0.233154	-0.202393	-0.081787	88.581574	16.292121	-1.290693
56111		-2.797990	9.410845	0.249964	0.113455	0.063845	0.024672	0.231689	-0.207764	-0.079590	88.659087	16.279156	-1.252839
56112		-2.773586	9.385919	0.242927	0.107911	0.063174	0.023997	0.230957	-0.206787	-0.080078	88.732520	16.268385	-1.215515
56113		-2.821295	9.426129	0.181183	0.097153	0.052164	0.017546	0.230225	-0.202393	-0.080322	88.798689	16.259266	-1.184761
56114		-2.812992	9.416147	0.202959	0.094815	0.040154	0.013504	0.225098	-0.209473	-0.074707	88.860725	16.254143	-1.161332
56115		-2.805214	9.406049	0.225503	0.086570	0.034817	0.006567	0.219238	-0.215332	-0.079834	88.917887	16.251058	-1.141079
56116		-2.802740	9.383415	0.208691	0.084267	0.024036	0.006204	0.222900	-0.215820	-0.072266	88.971163	16.249894	-1.127360
56117		-2.782082	9.380838	0.213903	0.073972	0.019755	0.002265	0.225098	-0.212402	-0.069824	89.018576	16.249085	-1.116146
56118		-2.793314	9.350419	0.217859	0.064298	0.020002	0.003914	0.228516	-0.211914	-0.065674	89.059732	16.249163	-1.104862
56119		-2.761294	9.378437	0.213780	0.060263	0.016245	0.001998	0.224121	-0.204346	-0.071045	89.098703	16.248460	-1.095746
56120		-2.777366	9.335462	0.178706	0.059002	0.015485	0.006055	0.228027	-0.211914	-0.069336	89.136076	16.247247	-1.087141
56121		-2.760413	9.378958	0.201956	0.055557	0.015031	0.006058	0.225342	-0.214355	-0.067139	89.172157	16.244196	-1.078714
56122		-2.787124	9.392442	0.150823	0.056184	0.015396	0.004026	0.222168	-0.215576	-0.070068	89.207895	16.244124	-1.070183
56123		-2.795747	9.426007	0.121306	0.045896	0.011131	0.000095	0.228027	-0.207031	-0.067627	89.237775	16.244449	-1.064136
56124		-2.776201	9.336185	0.157824	0.041165	0.008710	0.000497	0.228516	-0.208008	-0.071533	89.263790	16.246331	-1.059622
56125		-2.757998	9.356442	0.175267	0.032028	0.009826	-0.003267	0.226563	-0.208740	-0.062500	89.285499	16.248568	-1.054379
56126		-2.758566	9.356334	0.172070	0.031342	0.006992	-0.008563	0.219238	-0.215820	-0.065186	89.305582	16.255615	-1.050956
56127		-2.794602	9.374564	0.182749	0.021519	0.014831	0.001251	0.234375	-0.215576	-0.073975	89.322117	16.255295	-1.042691
56128		-2.755078	9.310212	0.151169	0.023576	0.013769	-0.001739	0.229248	-0.209961	-0.064453	89.338897	16.258466	-1.035173
56129		-2.796819	9.397631	0.185547	0.021491	0.013597	-0.002413	0.220459	-0.214111	-0.069580	89.355203	16.260231	-1.027671
56130		-2.781586	9.382116	0.156642	0.017489	0.011083	-0.000657	0.223389	-0.205078	-0.061279	89.368049	16.262752	-1.021748
56131		-2.797076	9.397631	0.181644	0.011823	0.013873	-0.000767	0.216309	-0.215332	-0.057373	89.378865	16.263573	-1.014069
56132		-2.777919	9.335992	0.137739	0.012243	0.019346	-0.001959	0.227539	-0.218262	-0.068848	89.390085	16.266880	-1.003224
56133		-2.764158	9.315420	0.200623	0.011147	0.016434	0.005205	0.230469	-0.215332	-0.068115	89.400954	16.264292	-0.993977
56134		-2.779279	9.359267	0.142618	0.002040	0.034465	0.005579	0.220703	-0.203613	-0.061523	89.408868	16.263357	-0.974063
56135		-2.814066	9.377852	0.155279	-0.009943	0.043839	0.014986	0.230225	-0.205078	-0.071777	89.412248	16.255325	-0.948402
56136		-2.763335	9.367542	0.123067	-0.018231	0.045614	0.019609	0.227539	-0.211426	-0.061768	89.410431	16.246408	-0.921749
56137		-2.799115	9.409451	0.144965	-0.026825	0.052959	0.021684	0.231445	-0.210449	-0.065430	89.405662	16.234593	-0.890607
56138		-2.781625	9.394521	0.119657	-0.035280	0.056899	0.023199	0.225830	-0.217041	-0.060791	89.395960	16.223684	-0.857196
56139		-2.788200	9.400288	0.180627	-0.041442	0.055906	0.024548	0.226807	-0.208984	-0.053955	89.383300	16.210256	-0.824278
56140		-2.777436	9.395705	0.123896	-0.038819	0.056905	0.019811	0.227783	-0.210693	-0.062744	89.371555	16.201293	-0.790884
56141		-2.775684	9.367925	0.209461	-0.039812	0.049351	0.022745	0.222900	-0.210449	-0.066406	89.358724	16.188870	-0.761886
56142		-2.735980	9.327120	0.190049	-0.028409	0.057724	0.023198	0.229004	-0.218262	-0.064209	89.353074	16.177975	-0.727980
56143		-2.773370	9.392167	0.219924	-0.027245	0.064302	0.027024	0.223633	-0.220947	-0.062744	89.349923	16.163204	-0.690035
56144		-2.751410	9.331344	0.178298	-0.028165	0.070707	0.030171	0.232422	-0.218018	-0.063477	89.346563	16.148394	-0.648343
56145		-2.770720	9.358075	0.173039	-0.022132	0.076286	0.033051	0.236328	-0.212891	-0.064453	89.348319	16.130252	-0.603214
56146		-2.749479	9.379129	0.193949	-0.014460	0.075343	0.034136	0.221191	-0.213623	-0.064209	89.353563	16.113191	-0.558738
56147		-2.828871	9.414677	0.146986	-0.009649	0.077252	0.037132	0.231689	-0.209961	-0.071289	89.362607	16.092708	-0.513017
56148		-2.818688	9.433609	0.094738	-0.006318	0.061284	0.029594	0.232422	-0.214600	-0.054932	89.370156	16.078144	-0.476966
56149		-2.791525	9.472289	0.063805	0.000999	0.044174	0.009339	0.229248	-0.212402	-0.061523	89.379765	16.073365	-0.451162
56150		-2.852212	9.480919	0.021710	0.017332	0.009552	-0.014647	0.229980	-0.206299	-0.065674	89.392248	16.083813	-0.446240
56151		-2.948497	9.709548	-0.146031	0.039407	-0.053002	-0.057865	0.229004	-0.213623	-0.056152	89.407688	16.116943	-0.478802
56152		-2.930358	9.721840	-0.185900	0.067051	-0.142609	-0.127091	0.226318	-0.215820	-0.059814	89.423243	16.190920	-0.565308
56153		-2.695094	9.396320	0.209225	0.128755	-0.177933	-0.167952	0.225098	-0.206299	-0.066895	89.468776	16.286456	-0.673051
56154		-2.726689	9.435576	0.139799	0.240820	-0.170068	-0.185466	0.235596	-0.216309	-0.058350	89.578954	16.393892	-0.776177
56155		-2.814219	9.701280	-0.169875	0.325680	-0.185191	-0.227062	0.235107	-0.203857	-0.067383	89.735702	16.523650	-0.888221
56156		-3.005928	9.874638	-0.401119	0.372643	-0.244746	-0.288218	0.218262	-0.222900	-0.062988	89.908262	16.690319	-1.035754
56157		-3.100790	9.984685	-0.581612	0.380454	-0.346746	-0.360724	0.222168	-0.205078	-0.071533	90.067995	16.897259	-1.243914
56158		-2.942852	9.996549	-0.552074	0.401579	-0.461586	-0.447193	0.231445	-0.197021	-0.073730	90.218351	17.156104	-1.520479
56159		-2.150127	11.134591	0.012716	0.415854	-0.401388	-0.624497	0.232910	-0.186035	-0.068115	90.387138	17.515429	-1.760010
56160		-2.155452	12.052225	0.303174	0.326331	-0.099551	-0.982541	0.236572	-0.188232	-0.065430	90.558361	18.080719	-1.815691
56161		-2.650709	11.610671	-0.095095	0.201939	0.020496	-1.414629	0.242432	-0.172119	-0.071777	90.682629	18.891375	-1.794650
56162		-3.194068	10.942718	-0.329437	0.115417	-0.039539	-1.629816	0.253662	-0.161621	-0.066895	90.745917	19.827144	-1.807036
56163		-3.291180	10.836373	-0.297070	0.026821	-0.092868	-1.781870	0.252686	-0.142822	-0.071289	90.748181	20.848996	-1.850183
56164		-3.359617	10.511665	-0.378226	-0.043637	-0.133974	-1.951759	0.262451	-0.123047	-0.074707	90.699636	21.969824	-1.918200
56165		-3.571543	10.359030	-0.184526	-0.101607	-0.201575	-2.100196	0.265137	-0.108643	-0.079346	90.600742	23.174689	-2.029089
56166		-3.673346	10.095314	-0.077916	-0.143835	-0.279162	-2.223568	0.275146	-0.094971	-0.076416	90.453902	24.451711	-2.191887
56167		-3.680553	9.741606	0.206165	-0.167779	-0.317003	-2.348717	0.277588	-0.072998	-0.085693	90.278245	25.798867	-2.383618
56168		-3.850337	9.595639	0.368999	-0.162527	-0.331829	-2.476796	0.275635	-0.041260	-0.088135	90.093501	27.220082	-2.591799
56169		-3.945360	9.646538	0.464932	-0.139874	-0.330355	-2.614837	0.289063	-0.015869	-0.092285	89.914483	28.718591	-2.806629
56170		-4.205959	9.727906	0.555985	-0.114901	-0.309485	-2.778006	0.292480	0.004150	-0.090820	89.746399	30.311141	-3.016785
56171		-4.710061	10.200024	0.587179	-0.094384	-0.297221	-2.932719	0.292480	0.033203	-0.097168	89.584997	31.990744	-3.227884
56172		-5.080189	10.244184	0.620400	-0.114951	-0.265768	-3.104991	0.296143	0.064453	-0.094482	89.411291	33.769645	-3.428878
56173		-5.834179	10.856021	0.530953	-0.108257	-0.239620	-3.256642	0.304688	0.094482	-0.092041	89.240477	35.634117	-3.623252
56174		-6.766308	11.864407	0.709660	-0.158335	-0.220655	-3.389429	0.306396	0.125732	-0.097168	89.034652	37.575128	-3.818433
56175		-8.025414	13.142672	0.777187	-0.280627	-0.223000	-3.431308	0.305420	0.157471	-0.099365	88.743063	39.538568	-4.031268
56176		-8.327557	13.922565	1.011226	-0.478663	-0.180483	-3.394281	0.300049	0.188477	-0.108154	88.338474	41.481032	-4.233892
56177		-7.455653	14.405409	1.486580	-0.809466	-0.120369	-3.325993	0.306885	0.220215	-0.100342	87.753585	43.383505	-4.416088
56178		-7.182295	13.954191	1.430854	-1.188277	0.016728	-3.224591	0.303467	0.264893	-0.108154	86.999579	45.230156	-4.522720
56179		-7.322928	12.139975	1.466137	-1.427026	0.219292	-3.120772	0.305420	0.292236	-0.108398	86.203377	47.022783	-4.495537
56180		-6.571447	11.112536	1.300404	-1.497030	0.411414	-3.043882	0.307861	0.323730	-0.096436	85.465393	48.779499	-4.336034
56181		-5.238788	10.668048	1.305478	-1.565675	0.629445	-3.007546	0.301025	0.344971	-0.091064	84.820748	50.527285	-4.007263
56182		-4.656819	10.258864	1.431135	-1.620511	0.885809	-3.053741	0.294678	0.396484	-0.081787	84.317587	52.316926	-3.465167
56183		-3.848230	9.305704	1.088226	-1.549530	1.071818	-3.046106	0.287354	0.417725	-0.063721	84.010604	54.115868	-2.742303
56184		-2.325629	6.344503	0.754170	-1.301273	1.232448	-2.814789	0.301758	0.443604	-0.055420	84.025923	55.792810	-1.814996
56185		-2.122803	3.459198	0.333340	-0.875162	1.300873	-2.363653	0.289795	0.467529	-0.042969	84.440464	57.215419	-0.718938
56186		6.593975	5.716307	1.265169	-0.303876	1.129474	-1.589064	0.278564	0.494385	-0.027344	85.154100	58.179989	0.329226
56187		-1.949778	9.907674	0.217871	0.044356	1.221803	-0.266871	0.289795	0.491211	-0.012207	86.291568	58.384949	1.634282
56188		-2.118246	11.753263	1.346798	0.190847	1.012994	0.777461	0.293701	0.482666	-0.010254	87.373214	57.970715	2.776385
56189		0.534227	9.095792	1.355941	0.299274	1.071386	1.113431	0.310059	0.470459	-0.009033	88.550565	57.355252	3.964620
56190		1.521229	6.223782	1.124052	0.383253	1.034962	1.198192	0.314941	0.462402	-0.001221	89.698464	56.675645	5.069050
56191		1.312801	5.908342	1.282449	0.431101	0.948160	1.204092	0.311768	0.449219	0.012939	90.757898	55.983875	6.042942
56192		0.613159	7.060834	1.542248	0.385319	0.865124	1.157972	0.332275	0.439697	0.019775	91.681374	55.307333	6.891900
56193		0.294101	7.624146	1.665500	0.248093	0.749619	1.165948	0.334473	0.434326	0.028564	92.402905	54.624723	7.597162
56194		0.361351	7.617610	1.711294	0.116952	0.601066	1.301707	0.335693	0.411133	0.016113	92.897848	53.860610	8.122335
56195		0.118062	7.834372	1.745770	0.051605	0.426268	1.526217	0.345947	0.401123	0.021240	93.194566	52.974737	8.452659
56196		-0.121145	8.056559	1.732420	0.019511	0.250923	1.788549	0.356934	0.383301	0.030762	93.314690	51.939782	8.587963
56197		-0.270842	8.048444	1.675016	0.010548	0.069604	2.050195	0.366455	0.361572	0.028809	93.287140	50.765092	8.542531
56198		-0.427527	8.106691	1.582771	0.005765	-0.096428	2.279338	0.367676	0.344482	0.017090	93.134715	49.460050	8.337565
56199		-0.680820	8.319890	1.550387	-0.001787	-0.241216	2.485329	0.379150	0.314941	0.020264	92.892179	48.045622	8.013859
56200		-1.003985	8.474908	1.437664	-0.036341	-0.358797	2.664443	0.386230	0.287354	0.020264	92.568035	46.525773	7.599104
56201		-1.244760	8.663057	1.338533	-0.064806	-0.449376	2.833651	0.402588	0.258301	0.006836	92.199156	44.914636	7.133139
56202		-1.645359	8.953753	1.270360	-0.085398	-0.523491	2.990721	0.400635	0.227051	-0.005859	91.800278	43.207317	6.628068
56203		-2.185753	9.253580	1.224969	-0.098363	-0.581425	3.134536	0.400391	0.185547	-0.007568	91.396497	41.421653	6.109254
56204		-2.851786	9.493313	1.218697	-0.130204	-0.665531	3.266896	0.411377	0.144287	-0.019531	90.961761	39.552372	5.552801
56205		-3.491208	9.608004	1.163372	-0.151453	-0.757516	3.354043	0.410645	0.111328	-0.027344	90.510295	37.636668	4.965249
56206		-4.211705	9.741584	1.171685	-0.138100	-0.860283	3.418206	0.414551	0.072754	-0.036865	90.055615	35.674552	4.334472
56207		-5.046502	9.887864	1.249775	-0.129917	-0.967223	3.435658	0.407227	0.035645	-0.054688	89.603103	33.704695	3.666963
56208		-5.912204	10.072605	1.168290	-0.112637	-1.081877	3.436713	0.403809	0.001221	-0.069580	89.152862	31.722695	2.951619
56209		-6.540603	10.300237	1.055724	-0.110754	-1.226243	3.414335	0.396729	-0.026367	-0.082764	88.695024	29.753830	2.176450
56210		-6.845926	10.394507	0.879277	-0.126345	-1.361489	3.358869	0.382080	-0.072998	-0.099854	88.221739	27.802710	1.342056
56211		-7.126119	10.209555	0.636678	-0.124412	-1.467165	3.258528	0.389893	-0.104004	-0.114502	87.759764	25.907625	0.473153
56212		-7.536986	9.908971	0.497975	-0.059335	-1.527535	3.107891	0.378906	-0.142090	-0.132324	87.352795	24.084987	-0.411345
56213		-8.422641	9.812255	0.498622	0.070873	-1.551699	2.924570	0.372803	-0.180176	-0.142334	87.049047	22.368150	-1.289218
56214		-9.619617	9.906381	0.564714	0.226183	-1.556983	2.731023	0.354736	-0.215820	-0.168213	86.859158	20.752228	-2.160845
56215		-11.077238	9.883814	0.604941	0.354133	-1.554147	2.543318	0.345703	-0.250732	-0.179688	86.769603	19.248020	-3.021413
56216		-12.666153	10.142347	0.900293	0.446438	-1.500847	2.358411	0.330566	-0.282715	-0.197021	86.762859	17.844982	-3.849473
56217		-14.373189	10.004856	1.021673	0.480011	-1.380283	2.158963	0.317871	-0.310059	-0.204346	86.816543	16.565888	-4.604145
56218		-15.600717	9.591904	1.088420	0.422732	-1.230812	1.970557	0.300537	-0.337402	-0.221191	86.875006	15.395238	-5.274524
56219		-16.350890	8.781877	1.028461	0.293618	-1.050454	1.797894	0.283936	-0.355469	-0.224121	86.900305	14.334220	-5.839042
56220		-16.833617	7.753134	0.876802	0.121777	-0.843100	1.627751	0.265381	-0.378174	-0.237305	86.863832	13.373376	-6.285809
56221		-18.964262	4.849245	2.730153	0.118566	-0.599755	1.086896	0.255615	-0.389404	-0.234863	86.861870	12.733022	-6.603644
56222		-19.464716	-2.281800	-3.669943	0.854612	0.205950	-0.380997	0.267822	-0.384521	-0.233643	87.376029	12.955128	-6.495910
56223		-21.782429	-0.000858	-0.385564	0.958976	0.384359	-1.015421	0.272705	-0.385498	-0.220215	87.973495	13.545650	-6.294701
56224		-25.124511	-0.490524	0.786119	0.078905	0.028346	-2.083629	0.282959	-0.364502	-0.222412	88.012586	14.739370	-6.322445
56225		-32.267606	14.388809	3.025527	0.986925	0.413095	-2.318571	0.295654	-0.349609	-0.213379	88.634297	16.074447	-6.117962
56226		-5.455073	19.222906	-14.929335	0.491196	1.552977	0.636420	0.298828	-0.359131	-0.196777	89.171378	15.729350	-5.186585
56227		-3.331792	8.137155	1.340296	-0.895579	0.953409	0.616848	0.292236	-0.365234	-0.193848	88.813764	15.385868	-4.613783
56228		-2.872663	10.679140	-0.574803	-0.477883	0.093508	-0.075014	0.296143	-0.356201	-0.204346	88.555373	15.432571	-4.559759
56229		-2.056804	9.395436	0.300973	0.142913	0.036499	-0.082197	0.299316	-0.367432	-0.192139	88.644449	15.480447	-4.539861
56230		-3.127072	10.334190	-0.743842	-0.010424	-0.159493	-0.247279	0.301514	-0.363525	-0.193604	88.613072	15.622364	-4.638709
56231		-2.862121	9.157495	0.550452	-0.067990	-0.194802	-0.189877	0.299072	-0.352539	-0.193604	88.543775	15.728637	-4.758001
56232		-2.732510	9.327411	0.296428	-0.023293	-0.257360	-0.224662	0.298584	-0.352539	-0.196045	88.488782	15.855968	-4.915138
56233		-3.012707	9.105772	0.514990	-0.040698	-0.215989	-0.196164	0.296631	-0.350098	-0.207764	88.431064	15.965277	-5.047516
56234		-2.899264	9.559719	0.115954	-0.135443	-0.101591	-0.087618	0.298096	-0.350342	-0.200439	88.337345	16.016292	-5.110008
56235		-2.714493	9.293710	0.481450	-0.171894	-0.043558	-0.042056	0.305908	-0.343506	-0.212891	88.233207	16.039912	-5.137315
56236		-2.652531	9.196749	0.556556	-0.076954	0.025390	-0.007456	0.301758	-0.348633	-0.209717	88.194222	16.047102	-5.122818
56237		-2.746825	9.305561	0.452670	-0.016705	0.072791	0.011657	0.292236	-0.350830	-0.202393	88.198423	16.042020	-5.079826
56238		-2.862669	9.528399	0.162467	0.001736	0.072206	0.018863	0.306641	-0.355469	-0.212891	88.212352	16.034970	-5.036951
56239		-2.913303	9.695993	0.043555	-0.022540	0.022632	-0.003319	0.306885	-0.352295	-0.205322	88.204869	16.037556	-5.024129
56240		-2.872830	9.625784	0.106436	-0.049332	-0.026244	-0.020403	0.304443	-0.349365	-0.202881	88.173150	16.051220	-5.040641
56241		-2.804118	9.477649	0.251600	-0.069695	-0.052219	-0.030559	0.302979	-0.345215	-0.201172	88.126170	16.068034	-5.072950
56242		-2.792339	9.374058	0.259750	-0.079211	-0.055432	-0.029189	0.301270	-0.342773	-0.205322	88.072467	16.086144	-5.107043
56243		-2.777520	9.439292	0.305580	-0.096694	-0.055619	-0.019242	0.297852	-0.344238	-0.209229	88.009491	16.096352	-5.141186
56244		-2.821037	9.444318	0.293670	-0.122658	-0.054791	-0.011423	0.307617	-0.346436	-0.206055	87.931085	16.104219	-5.174560
56245		-2.784179	9.378383	0.426011	-0.144766	-0.041520	-0.000323	0.299316	-0.346680	-0.213623	87.842997	16.103804	-5.199915
56246		-2.735271	9.280287	0.431358	-0.138950	-0.017445	0.021466	0.290039	-0.350098	-0.214600	87.761632	16.093561	-5.210299
56247		-2.765574	9.404235	0.382175	-0.134738	0.002288	0.023893	0.302002	-0.349609	-0.213135	87.686690	16.080210	-5.208974
56248		-2.793367	9.418090	0.351524	-0.139686	0.006686	0.025612	0.291016	-0.338135	-0.211914	87.608928	16.068125	-5.204844
56249		-2.785421	9.388924	0.446836	-0.127112	-0.003432	0.020392	0.304199	-0.339111	-0.204102	87.537397	16.056643	-5.206979
56250		-2.770593	9.373626	0.430376	-0.112228	-0.013684	0.006686	0.293457	-0.346191	-0.211426	87.471888	16.054886	-5.215434
56251		-2.771532	9.396220	0.448508	-0.088021	-0.020366	0.000705	0.292236	-0.349121	-0.211914	87.419828	16.054236	-5.228152
56252		-2.749073	9.369871	0.460053	-0.071002	-0.017568	-0.003235	0.306885	-0.338379	-0.214355	87.377229	16.058033	-5.239181
56253		-2.771834	9.395458	0.462389	-0.047949	-0.003844	-0.003532	0.305420	-0.346191	-0.219971	87.350818	16.060226	-5.242174
56254		-2.740450	9.358380	0.501270	-0.033281	0.000845	0.001320	0.299805	-0.341553	-0.217041	87.332901	16.061887	-5.242112
56255		-2.771384	9.395277	0.468712	-0.024308	0.016501	0.011180	0.299316	-0.336914	-0.218750	87.323500	16.056201	-5.232580
56256		-2.758154	9.403376	0.450759	-0.023734	0.023309	0.013723	0.294678	-0.342041	-0.215576	87.314849	16.051356	-5.218795
56257		-2.818280	9.454581	0.374520	-0.035306	0.024575	0.018756	0.303955	-0.342773	-0.216797	87.300533	16.041555	-5.204241
56258		-2.776288	9.407071	0.444105	-0.042826	0.018562	0.016736	0.301514	-0.337646	-0.212891	87.280191	16.034858	-5.193190
56259		-2.753614	9.404276	0.459662	-0.047712	0.021262	0.018173	0.299805	-0.338623	-0.213379	87.258215	16.025309	-5.180620
56260		-2.743153	9.393532	0.495418	-0.056253	0.024010	0.016350	0.299072	-0.345459	-0.211182	87.231076	16.018983	-5.166328
56261		-2.776353	9.411836	0.515503	-0.041643	0.024014	0.016931	0.302246	-0.341553	-0.207031	87.213018	16.010232	-5.152148
56262		-2.771336	9.343291	0.493367	-0.034299	0.015994	0.006090	0.299316	-0.344482	-0.214844	87.197059	16.009555	-5.142922
56263		-2.730784	9.295253	0.561464	-0.010221	0.014572	0.001041	0.297607	-0.346191	-0.212891	87.195326	16.009638	-5.134823
56264		-2.753318	9.321272	0.557195	0.016494	0.021860	-0.000536	0.297607	-0.350586	-0.217773	87.209378	16.012911	-5.122299
56265		-2.754593	9.344374	0.562401	0.036671	0.028911	0.005150	0.295654	-0.338135	-0.215576	87.236900	16.011038	-5.105544
56266		-2.782581	9.400524	0.472016	0.039339	0.023082	-0.000881	0.307861	-0.346191	-0.208984	87.264236	16.014525	-5.092303
56267		-2.772589	9.366810	0.490398	0.049879	0.017550	-0.002427	0.302002	-0.347412	-0.214111	87.297400	16.016664	-5.082529
56268		-2.748749	9.382651	0.446184	0.046891	0.014536	-0.008346	0.294434	-0.341309	-0.212402	87.327605	16.024175	-5.074584
56269		-2.763220	9.397645	0.469454	0.047137	0.005884	-0.009873	0.293457	-0.339600	-0.204102	87.357227	16.030254	-5.071959
56270		-2.783879	9.377736	0.445248	0.035555	0.000746	-0.009444	0.302490	-0.346436	-0.206543	87.378667	16.038016	-5.072249
56271		-2.776167	9.366633	0.473228	0.041723	-0.006356	-0.015879	0.300049	-0.348389	-0.214111	87.403129	16.047212	-5.077072
56272		-2.777869	9.366314	0.469541	0.043105	-0.014211	-0.021488	0.299072	-0.344727	-0.211426	87.426344	16.061474	-5.086589
56273		-2.809859	9.379857	0.422201	0.050146	-0.018484	-0.022617	0.299316	-0.347168	-0.207764	87.453583	16.074221	-5.098808
56274		-2.782076	9.365474	0.461324	0.053486	-0.020983	-0.026705	0.292725	-0.344238	-0.207764	87.481590	16.091302	-5.112486
56275		-2.772392	9.372795	0.436823	0.063152	-0.022960	-0.028968	0.305176	-0.337158	-0.213867	87.515493	16.107584	-5.127525
56276		-2.771940	9.390863	0.380214	0.066489	-0.025469	-0.033057	0.297607	-0.339600	-0.207520	87.550158	16.128198	-5.144024
56277		-2.781164	9.417397	0.442386	0.065405	-0.021411	-0.037156	0.302979	-0.342773	-0.208252	87.585546	16.149223	-5.158329
56278		-2.800936	9.415286	0.366105	0.053212	-0.025221	-0.034362	0.298584	-0.341553	-0.212158	87.612632	16.170600	-5.174694
56279		-2.796817	9.426583	0.402228	0.041275	-0.031091	-0.040956	0.300049	-0.346924	-0.209229	87.632555	16.193583	-5.194846
56280		-2.790249	9.327533	0.457732	0.034024	-0.032921	-0.035316	0.294434	-0.340332	-0.212646	87.647354	16.215328	-5.215813
56281		-2.774868	9.369743	0.483401	0.039578	-0.025866	-0.030252	0.296875	-0.337158	-0.213135	87.667236	16.232318	-5.232578
56282		-2.782084	9.311062	0.423495	0.051865	-0.012691	-0.024518	0.302246	-0.340576	-0.200195	87.695689	16.248357	-5.241213
56283		-2.778235	9.345812	0.466493	0.061424	-0.011209	-0.026190	0.312744	-0.342529	-0.202637	87.730557	16.263372	-5.249126
56284		-2.809565	9.335948	0.408928	0.070615	-0.004039	-0.030341	0.302734	-0.342529	-0.208740	87.771158	16.282942	-5.252724
56285		-2.801550	9.366157	0.390736	0.074317	-0.005822	-0.027385	0.303711	-0.343750	-0.213379	87.814308	16.298770	-5.257432
56286		-2.792235	9.373350	0.364111	0.073628	0.003808	-0.032647	0.303711	-0.339355	-0.209229	87.857941	16.319829	-5.256374
56287		-2.805564	9.342124	0.368420	0.078049	0.010089	-0.023506	0.305908	-0.340576	-0.208984	87.905926	16.333781	-5.251478
56288		-2.841086	9.401047	0.334133	0.066784	0.007553	-0.028157	0.310059	-0.338623	-0.207520	87.946306	16.352337	-5.248057
56289		-2.827117	9.402351	0.399696	0.051672	0.005416	-0.026973	0.306396	-0.339600	-0.206787	87.978381	16.368172	-5.246002
56290		-2.847717	9.358664	0.367009	0.045047	0.002265	-0.023663	0.309814	-0.348633	-0.206543	88.005454	16.384040	-5.245623
56291		-2.795425	9.360267	0.366788	0.042160	0.008625	-0.021042	0.302490	-0.348633	-0.215332	88.032659	16.396540	-5.241513
56292		-2.810950	9.375180	0.389801	0.053097	0.015093	-0.019184	0.297119	-0.340820	-0.207764	88.066537	16.410085	-5.233371
56293		-2.787359	9.303043	0.371109	0.071051	0.030274	-0.021808	0.309082	-0.336914	-0.203857	88.113950	16.423433	-5.216335
56294		-2.822391	9.362044	0.335398	0.083308	0.043454	-0.016128	0.307617	-0.337402	-0.212402	88.169953	16.435735	-5.191183
56295		-2.855919	9.398001	0.290525	0.089259	0.043195	-0.021361	0.305664	-0.346436	-0.208740	88.230000	16.449028	-5.166396
56296		-2.846559	9.469123	0.226247	0.081203	0.030415	-0.038299	0.298584	-0.345215	-0.202148	88.282501	16.473746	-5.149406
56297		-2.862944	9.396398	0.272700	0.089330	0.022145	-0.047757	0.310059	-0.333740	-0.206543	88.338917	16.501755	-5.137624
56298		-2.818328	9.402440	0.326171	0.111673	0.019534	-0.059144	0.302002	-0.344971	-0.201172	88.406967	16.538195	-5.127432
56299		-2.841140	9.398449	0.242627	0.138804	0.011174	-0.075906	0.308350	-0.337402	-0.205078	88.489766	16.582128	-5.122586
56300		-2.891584	9.529452	0.132660	0.169502	-0.006702	-0.097893	0.301025	-0.345703	-0.201172	88.586346	16.640341	-5.128559
56301		-2.938039	9.671321	-0.091723	0.218572	-0.040992	-0.150615	0.310791	-0.343994	-0.199951	88.705648	16.726346	-5.155801
56302		-2.917385	9.706614	-0.076101	0.318094	-0.104781	-0.227584	0.300537	-0.338135	-0.207275	88.870013	16.857677	-5.221841
56303		-2.818198	9.475673	0.121045	0.480818	-0.152854	-0.311856	0.318115	-0.337646	-0.198730	89.119579	17.035084	-5.317258
56304		-2.745148	9.558560	0.048219	0.699176	-0.161399	-0.392511	0.310303	-0.338135	-0.189453	89.491870	17.261062	-5.417340
56305		-2.500290	10.310788	-0.258309	0.914937	-0.112211	-0.544721	0.309082	-0.338379	-0.190918	89.997197	17.573172	-5.486777
56306		-2.286756	11.888142	0.039868	0.804647	0.092646	-0.846088	0.317871	-0.335205	-0.193848	90.477007	18.059897	-5.429381
56307		-2.788802	11.874092	-0.118970	0.624544	0.114350	-1.209435	0.318115	-0.321045	-0.189453	90.861044	18.752346	-5.352405
56308		-3.169685	11.367859	-0.335427	0.462994	0.068714	-1.472254	0.329102	-0.299805	-0.182861	91.146210	19.597124	-5.295602
56309		-3.209680	11.440450	-0.228253	0.392762	-0.015356	-1.715714	0.344238	-0.287842	-0.177734	91.377636	20.580424	-5.282516
56310		-3.030537	11.009148	-0.126216	0.348694	-0.016932	-1.969825	0.344727	-0.274414	-0.176270	91.586006	21.710900	-5.262181
56311		-3.263061	10.897814	-0.005371	0.329110	-0.031734	-2.190548	0.353516	-0.245605	-0.184082	91.783936	22.966301	-5.242537
56312		-3.331019	10.740696	0.090516	0.296972	-0.045635	-2.419439	0.365234	-0.224365	-0.170898	91.963486	24.354517	-5.222224
56313		-3.486300	10.637533	0.206839	0.263567	-0.059658	-2.652796	0.365234	-0.214355	-0.181641	92.125542	25.875030	-5.200681
56314		-3.780928	10.670280	0.265619	0.232118	-0.071033	-2.878299	0.377197	-0.175049	-0.177979	92.270785	27.526262	-5.176161
56315		-4.383510	10.522345	0.261369	0.200046	-0.081420	-3.076762	0.396729	-0.140625	-0.178711	92.400650	29.289878	-5.148107
56316		-4.873578	10.674380	0.148228	0.180819	-0.090875	-3.247256	0.398438	-0.106201	-0.188965	92.521240	31.152557	-5.116769
56317		-5.866005	11.208932	0.084098	0.137069	-0.089295	-3.375881	0.404541	-0.072266	-0.178467	92.623740	33.087467	-5.075269
56318		-6.722998	12.329556	0.006715	0.009739	-0.101382	-3.392235	0.414307	-0.043213	-0.182373	92.651155	35.033204	-5.038438
56319		-7.589052	13.225043	0.013988	-0.230546	-0.070941	-3.319133	0.412842	-0.005127	-0.182617	92.553756	36.935138	-4.982593
56320		-6.952812	12.252874	0.192208	-0.444947	-0.029587	-3.202792	0.419434	0.036133	-0.173096	92.347047	38.770621	-4.905963
56321		-5.926560	12.107473	0.364346	-0.685069	-0.001185	-3.126396	0.419678	0.062988	-0.173096	92.011856	40.560964	-4.819077
56322		-6.841297	12.159428	0.487857	-0.944436	0.107869	-2.990354	0.414307	0.102539	-0.184326	91.572697	42.272661	-4.666799
56323		-6.302255	10.802096	0.480983	-1.158969	0.215841	-2.937555	0.430908	0.141357	-0.176270	91.061954	43.952775	-4.445213
56324		-5.602557	10.437629	0.492537	-1.336911	0.332887	-2.924909	0.433350	0.180420	-0.177979	90.508033	45.626706	-4.145999
56325		-5.249926	9.504267	0.200757	-1.501325	0.453676	-2.889460	0.419678	0.207031	-0.167725	89.929207	47.281537	-3.760371
56326		-5.165274	7.708927	0.064908	-1.598252	0.553424	-2.787245	0.421631	0.243896	-0.163330	89.355286	48.881009	-3.302843
56327		-5.001579	6.142468	0.192164	-1.543495	0.629171	-2.626773	0.421143	0.272949	-0.145996	88.868736	50.391736	-2.783208
56328		-4.108154	5.398093	0.256786	-1.360285	0.679455	-2.424217	0.415039	0.309570	-0.145264	88.532108	51.789578	-2.216101
56329		-1.499946	5.858952	0.216180	-1.100545	0.718754	-2.077786	0.416992	0.334229	-0.135986	88.395623	52.990969	-1.594797
56330		0.328939	6.840714	0.068958	-0.820855	0.775541	-1.566922	0.410889	0.348877	-0.126465	88.490981	53.900669	-0.892556
56331		0.976806	7.548603	-0.200507	-0.559246	0.903482	-1.030915	0.417236	0.352295	-0.126465	88.870412	54.503404	-0.032033
56332		-4.175602	9.895725	-0.301555	-0.395358	0.972493	-0.408686	0.417236	0.361084	-0.107666	89.423059	54.745485	0.921486
56333		-1.862227	9.742731	0.426525	-0.317928	0.896858	0.198195	0.407715	0.365967	-0.096436	89.968323	54.634954	1.810574
56334		-0.537081	7.601706	0.486839	-0.230906	0.844119	0.636459	0.415771	0.353516	-0.089600	90.510084	54.267384	2.636853
56335		-0.737245	7.051854	0.467003	-0.097956	0.735537	0.975910	0.425537	0.338379	-0.083740	91.024462	53.702936	3.339820
56336		-0.934288	7.101478	0.591656	-0.013837	0.618794	1.190731	0.427490	0.329102	-0.073730	91.472396	53.011783	3.905700
56337		-0.960427	6.987405	0.635171	0.013698	0.508374	1.363063	0.435303	0.314941	-0.072998	91.832983	52.223042	4.347232
56338		-1.020485	7.074841	0.688714	0.008068	0.388594	1.527542	0.439209	0.299805	-0.060303	92.081476	51.338961	4.655333
56339		-1.309392	7.314006	0.620268	-0.026972	0.270838	1.679731	0.438965	0.275391	-0.065918	92.213434	50.371729	4.842963
56340		-1.571110	7.317952	0.524314	-0.055976	0.154581	1.811672	0.434814	0.249023	-0.069092	92.237713	49.328874	4.914353
56341		-1.793781	7.278785	0.465587	-0.046580	0.054102	1.922770	0.449707	0.230713	-0.061523	92.198958	48.227157	4.895802
56342		-1.935602	7.370915	0.337716	-0.032391	-0.036436	2.014793	0.440186	0.214844	-0.069824	92.109167	47.071790	4.797049
56343		-2.138030	7.625263	0.259718	-0.018625	-0.122811	2.083544	0.441406	0.181152	-0.074951	91.980895	45.881599	4.632267
56344		-2.310799	7.990681	0.200772	-0.039500	-0.180182	2.145766	0.444824	0.154053	-0.071777	91.812383	44.653315	4.424499
56345		-2.422296	8.518853	0.149765	-0.076242	-0.233546	2.206373	0.442871	0.131104	-0.073486	91.604344	43.394023	4.185300
56346		-2.742672	8.817592	0.095234	-0.130802	-0.277976	2.268388	0.444824	0.105469	-0.076660	91.350729	42.095559	3.919570
56347		-3.120357	8.866223	0.005670	-0.148648	-0.315630	2.357523	0.445557	0.076416	-0.087402	91.082114	40.749250	3.639467
56348		-3.396446	8.829833	-0.038324	-0.121083	-0.354888	2.447004	0.438721	0.044189	-0.093018	90.821867	39.347141	3.340238
56349		-3.558625	8.892171	-0.127277	-0.074634	-0.392461	2.516646	0.440430	0.019043	-0.099854	90.586695	37.908385	3.029018
56350		-3.658070	9.015606	-0.182801	-0.042616	-0.418532	2.547059	0.437256	-0.010742	-0.103516	90.370930	36.447168	2.709659
56351		-3.798237	9.147398	-0.135652	-0.031490	-0.426859	2.542771	0.427734	-0.046631	-0.116699	90.173512	34.991745	2.399205
56352		-4.207933	9.466016	-0.046830	-0.034400	-0.427786	2.523518	0.416016	-0.074707	-0.113525	89.985392	33.542091	2.097227
56353		-4.619389	9.778688	0.116273	-0.044812	-0.442405	2.520267	0.414551	-0.103271	-0.120605	89.799494	32.097906	1.798156
56354		-4.893855	9.906928	0.234551	-0.042342	-0.472524	2.534231	0.415283	-0.130859	-0.123047	89.614798	30.640268	1.486912
56355		-5.067195	10.006923	0.358190	-0.035879	-0.511548	2.556002	0.395020	-0.161865	-0.136230	89.434201	29.173696	1.162171
56356		-5.151327	10.067927	0.413235	-0.029678	-0.547105	2.553419	0.383301	-0.176270	-0.149170	89.256713	27.702879	0.821964
56357		-5.219997	10.120439	0.535555	-0.014052	-0.569745	2.549070	0.367432	-0.216309	-0.156982	89.094839	26.238111	0.478664
56358		-5.612646	10.147893	0.743733	-0.004852	-0.589738	2.538066	0.365479	-0.246826	-0.160400	88.943073	24.774003	0.129272
56359		-5.982704	10.166048	0.923749	0.004440	-0.619560	2.520958	0.349365	-0.271973	-0.174316	88.801547	23.323177	-0.228868
56360		-6.449668	10.036188	1.021974	0.030972	-0.659176	2.497371	0.332520	-0.295898	-0.181885	88.675612	21.880089	-0.606302
56361		-6.853543	10.051553	1.204877	0.060304	-0.715618	2.458054	0.322754	-0.315674	-0.186768	88.566196	20.462546	-1.010130
56362		-7.223454	9.947205	1.229789	0.075108	-0.775232	2.412059	0.302002	-0.337402	-0.207275	88.462999	19.065481	-1.446324
56363		-7.400543	9.660219	1.318004	0.087452	-0.834760	2.353420	0.285400	-0.367188	-0.212891	88.368283	17.704637	-1.911451
56364		-7.576936	9.363933	1.328204	0.106281	-0.885668	2.271569	0.271729	-0.385010	-0.230225	88.285791	16.385193	-2.404556
56365		-7.774366	9.116468	1.303493	0.134550	-0.937501	2.175824	0.257568	-0.400879	-0.228271	88.223851	15.123030	-2.923554
56366		-7.885286	8.789316	1.173650	0.171494	-0.966057	2.047425	0.241943	-0.417480	-0.253418	88.188777	13.929952	-3.459293
56367		-8.202844	8.495431	1.157762	0.227337	-0.981213	1.902197	0.213135	-0.430664	-0.263184	88.195335	12.823150	-4.002119
56368		-8.524361	8.455512	1.099498	0.262253	-0.982494	1.744395	0.207275	-0.447510	-0.263916	88.230114	11.803894	-4.548103
56369		-8.873291	8.282465	1.057950	0.278317	-0.961131	1.569220	0.200439	-0.465088	-0.273193	88.286385	10.888749	-5.082221
56370		-8.997380	8.047919	1.014328	0.267901	-0.916762	1.384716	0.175537	-0.472168	-0.288086	88.347586	10.078177	-5.594269
56371		-9.103935	7.814211	1.002900	0.242181	-0.834764	1.196294	0.174072	-0.484863	-0.299316	88.409489	9.379770	-6.060245
56372		-9.205883	7.624417	0.965411	0.186753	-0.718451	0.999280	0.166016	-0.489502	-0.305420	88.453724	8.794754	-6.462681
56373		-15.935775	8.757966	1.910291	-0.020466	-0.358206	-0.028096	0.171875	-0.488037	-0.308838	88.411966	8.805515	-6.671316
56374		-9.525521	-0.713611	-0.406671	0.026217	-0.315854	-0.736366	0.169678	-0.480957	-0.312744	88.396890	9.221820	-6.867711
56375		-15.347252	3.238213	0.813292	0.257204	-0.228440	-1.299307	0.173584	-0.473389	-0.311768	88.520552	9.962761	-7.021299
56376		-16.009539	3.784351	0.537412	0.237487	-0.326207	-1.749881	0.184814	-0.463379	-0.311279	88.617950	10.961094	-7.237813
56377		-17.988746	4.840859	0.724457	0.122556	-0.587607	-2.041089	0.187012	-0.444092	-0.312256	88.615441	12.122372	-7.610733
56378		-9.192332	6.166259	0.760357	0.272548	-0.953239	-2.290270	0.204590	-0.423828	-0.319092	88.641072	13.423299	-8.203512
56379		-4.421661	12.754185	-1.372077	0.606688	-0.424260	-2.279159	0.211182	-0.410156	-0.315430	88.922549	14.723984	-8.483271
56380		-7.295804	23.846629	-4.758945	0.329886	0.499278	-1.678283	0.215088	-0.387939	-0.307861	89.185382	15.692689	-8.203960
56381		-7.568807	20.929117	-12.133069	-0.713645	0.766577	0.277626	0.222412	-0.394775	-0.311035	88.901715	15.541263	-7.745813
56382		-1.680295	4.931711	3.956953	-1.378252	0.400573	0.168575	0.224854	-0.387939	-0.307373	88.177579	15.453203	-7.505340
56383		-2.654830	6.444894	4.121379	-0.160315	0.076162	-0.299651	0.218994	-0.393799	-0.310303	88.098028	15.626497	-7.466463
56384		-3.105268	11.213112	-1.326718	0.360093	0.133186	-0.064211	0.226074	-0.386230	-0.298340	88.326277	15.668326	-7.388800
56385		-2.626483	9.505571	-0.061817	-0.078098	-0.004295	-0.150349	0.231689	-0.385742	-0.312012	88.281845	15.754640	-7.394605
56386		-3.157365	9.506706	0.249888	-0.155178	-0.123781	-0.194714	0.229004	-0.388428	-0.316650	88.172871	15.866616	-7.472173
56387		-2.841245	9.494278	0.098678	-0.063810	-0.183220	-0.195242	0.220947	-0.380371	-0.317139	88.107068	15.975295	-7.585659
56388		-2.829499	9.237129	0.471039	-0.005391	-0.129628	-0.158921	0.229492	-0.385742	-0.310547	88.082787	16.066501	-7.666338
56389		-2.777694	9.614635	0.119114	0.042096	-0.060944	-0.122807	0.227539	-0.376465	-0.309082	88.097875	16.135941	-7.705706
56390		-2.888233	9.620552	0.152637	0.027690	-0.035629	-0.099529	0.228027	-0.380371	-0.309082	88.108270	16.194924	-7.729214
56391		-2.839894	9.492468	0.223532	0.047392	-0.016697	-0.077816	0.231445	-0.382324	-0.312500	88.133936	16.239450	-7.741299
56392		-2.923500	9.595799	0.127450	0.029228	-0.000936	-0.053732	0.232910	-0.375244	-0.319336	88.151241	16.272862	-7.743190
56393		-2.949239	9.614502	0.063896	-0.004736	-0.023004	-0.054734	0.232666	-0.380615	-0.315674	88.146100	16.304060	-7.758574
56394		-2.910304	9.584373	0.081232	-0.035844	-0.053312	-0.058683	0.231689	-0.375977	-0.317627	88.117330	16.339326	-7.791810
56395		-2.916590	9.483543	0.226717	-0.056978	-0.068249	-0.060885	0.232910	-0.377197	-0.330566	88.074591	16.373172	-7.834353
56396		-2.900208	9.479079	0.245527	-0.064626	-0.070419	-0.053017	0.230957	-0.383057	-0.313477	88.026442	16.404811	-7.877735
56397		-2.870641	9.459245	0.237467	-0.085633	-0.068781	-0.045565	0.222168	-0.376465	-0.319580	87.967221	16.429803	-7.920351
56398		-2.831312	9.394044	0.365541	-0.102814	-0.060628	-0.030392	0.229492	-0.370605	-0.312256	87.898935	16.448598	-7.957470
56399		-2.844867	9.385324	0.397299	-0.104423	-0.060051	-0.023926	0.231934	-0.372803	-0.322510	87.830515	16.461293	-7.994459
56400		-2.856260	9.412403	0.326507	-0.114941	-0.064100	-0.018217	0.235107	-0.376953	-0.321045	87.754739	16.472944	-8.033421
56401		-2.824442	9.375482	0.373368	-0.117249	-0.057308	-0.017604	0.222656	-0.371094	-0.322998	87.679452	16.481990	-8.068661
56402		-2.826543	9.356597	0.437051	-0.110646	-0.045885	-0.016227	0.231689	-0.364258	-0.318604	87.609218	16.492825	-8.096728
56403		-2.846942	9.312404	0.421073	-0.099424	-0.038079	-0.010956	0.223633	-0.367432	-0.327881	87.547433	16.498449	-8.120346
56404		-2.881770	9.388846	0.354086	-0.096832	-0.057258	-0.013688	0.220947	-0.369385	-0.325439	87.483188	16.507479	-8.155161
56405		-2.874619	9.423695	0.412502	-0.100579	-0.066940	-0.012936	0.225342	-0.369629	-0.325195	87.415820	16.513450	-8.196077
56406		-2.897989	9.466723	0.370628	-0.117906	-0.075889	-0.016530	0.222656	-0.365967	-0.325195	87.336304	16.523529	-8.242110
56407		-2.886702	9.409219	0.398996	-0.120583	-0.076916	-0.024135	0.228516	-0.370361	-0.330566	87.255672	16.535535	-8.289318
56408		-2.778643	9.311823	0.552561	-0.108798	-0.070479	-0.021221	0.222412	-0.370850	-0.333496	87.182235	16.548321	-8.332282
56409		-2.800713	9.290516	0.544079	-0.080872	-0.050989	-0.018785	0.224854	-0.364502	-0.332520	87.128781	16.557892	-8.363889
56410		-2.846925	9.318062	0.538102	-0.050851	-0.041334	-0.020982	0.224609	-0.365479	-0.328125	87.093476	16.571293	-8.389478
56411		-2.869983	9.338391	0.481101	-0.037223	-0.034155	-0.020871	0.224609	-0.360596	-0.333984	87.067863	16.582509	-8.411116
56412		-2.896338	9.386146	0.490801	-0.026811	-0.038376	-0.031488	0.225342	-0.364990	-0.332031	87.046727	16.601978	-8.435277
56413		-2.876293	9.359386	0.496684	-0.018398	-0.045927	-0.034174	0.229736	-0.359863	-0.327148	87.029757	16.620442	-8.464367
56414		-2.858113	9.337078	0.561270	-0.007999	-0.038328	-0.039291	0.228516	-0.372314	-0.340332	87.019318	16.644358	-8.488758
56415		-2.860270	9.294682	0.605488	0.005628	-0.028995	-0.029780	0.228516	-0.363770	-0.338135	87.019027	16.660803	-8.507612
56416		-2.875619	9.368845	0.539409	0.010925	-0.017771	-0.027598	0.222412	-0.365723	-0.327881	87.023032	16.678632	-8.519372
56417		-2.898389	9.347953	0.519985	0.006156	-0.006728	-0.021134	0.220459	-0.362793	-0.327637	87.026929	16.690794	-8.524658
56418		-2.857604	9.383372	0.498203	0.000892	-0.007897	-0.018115	0.223633	-0.365234	-0.338867	87.026959	16.703485	-8.530227
56419		-2.869091	9.352036	0.510379	-0.000096	-0.000760	-0.018199	0.222900	-0.356445	-0.334961	87.028323	16.714145	-8.531857
56420		-2.870693	9.351552	0.510248	0.002791	0.001089	-0.016036	0.230957	-0.355225	-0.329102	87.031004	16.725905	-8.531994
56421		-2.868639	9.263904	0.535975	0.015399	0.007518	-0.011813	0.232666	-0.367920	-0.338135	87.042727	16.733157	-8.528479
56422		-2.883778	9.343232	0.527269	0.026901	0.016680	-0.002857	0.227051	-0.362305	-0.332764	87.062022	16.737828	-8.518892
56423		-2.916632	9.356524	0.482560	0.022471	0.023331	-0.002739	0.225342	-0.367920	-0.327393	87.080600	16.740348	-8.505646
56424		-2.918063	9.379556	0.488087	0.023850	0.012181	0.000103	0.220459	-0.358398	-0.335205	87.097403	16.743183	-8.498656
56425		-2.895297	9.353948	0.488629	0.013368	0.005943	-0.003569	0.235352	-0.365723	-0.335938	87.107766	16.745669	-8.495824
56426		-2.862938	9.359048	0.477852	0.009121	0.005559	-0.004673	0.225830	-0.366943	-0.337646	87.114952	16.751038	-8.492934
56427		-2.894760	9.330893	0.478118	0.009283	0.010345	-0.000392	0.230469	-0.360596	-0.327881	87.123761	16.751832	-8.487374
56428		-2.907008	9.346068	0.505557	0.006560	0.013280	0.001726	0.230957	-0.362793	-0.329346	87.130869	16.753752	-8.479677
56429		-2.883688	9.338855	0.455758	0.005752	0.013379	0.000419	0.225098	-0.356934	-0.323975	87.138185	16.754167	-8.472279
56430		-2.874114	9.351370	0.494072	0.007413	0.011420	0.002728	0.223145	-0.363281	-0.325439	87.145473	16.755454	-8.465663
56431		-2.861795	9.336330	0.464276	0.012677	0.012584	-0.000290	0.226074	-0.364014	-0.332031	87.156614	16.756250	-8.458762
56432		-2.907014	9.328079	0.552079	0.013645	0.017270	0.005296	0.221436	-0.364990	-0.326172	87.168506	16.756222	-8.448574
56433		-2.893886	9.331565	0.470233	0.014223	0.025963	0.008122	0.229980	-0.363770	-0.329834	87.182909	16.752580	-8.433428
56434		-2.894423	9.354842	0.476549	0.009421	0.026946	0.009381	0.231689	-0.361328	-0.332031	87.194082	16.750477	-8.417340
56435		-2.892556	9.332142	0.466945	0.004368	0.026661	0.006968	0.220215	-0.360107	-0.332764	87.202947	16.747509	-8.401813
56436		-2.893271	9.355329	0.473971	0.004413	0.024900	0.006664	0.230957	-0.369141	-0.326660	87.210878	16.746893	-8.387028
56437		-2.894489	9.378370	0.480838	0.009224	0.021764	-0.003996	0.228516	-0.364014	-0.328369	87.221589	16.750059	-8.374747
56438		-2.883216	9.344799	0.501964	0.016704	0.019598	-0.007064	0.223633	-0.362549	-0.332520	87.235538	16.757141	-8.363528
56439		-2.892030	9.309272	0.452269	0.020576	0.014313	-0.004807	0.228271	-0.366943	-0.337158	87.251466	16.760560	-8.355722
56440		-2.928163	9.349918	0.475875	0.017862	0.015097	-0.012096	0.228027	-0.365234	-0.320557	87.265267	16.770387	-8.347335
56441		-2.853284	9.349425	0.485654	0.025436	0.009413	-0.015768	0.227783	-0.361572	-0.326904	87.283046	16.779941	-8.342766
56442		-2.887250	9.362220	0.440751	0.031507	0.010470	-0.017475	0.233643	-0.364502	-0.337646	87.303827	16.792710	-8.337293
56443		-2.876035	9.305380	0.451849	0.042984	0.007408	-0.023102	0.226074	-0.370605	-0.322510	87.331260	16.806405	-8.334120
56444		-2.902944	9.335307	0.503726	0.057913	0.014885	-0.023749	0.228027	-0.357422	-0.324951	87.367894	16.822870	-8.326169
56445		-2.883109	9.350498	0.456757	0.068226	0.016311	-0.024351	0.235352	-0.366455	-0.330078	87.411327	16.837509	-8.317689
56446		-2.895454	9.319300	0.461626	0.078241	0.018215	-0.028322	0.240234	-0.366943	-0.320313	87.460160	16.856658	-8.307847
56447		-2.899321	9.359890	0.409921	0.088861	0.016978	-0.034956	0.229004	-0.365479	-0.324951	87.515465	16.877370	-8.299218
56448		-2.925485	9.402824	0.346756	0.091335	0.012728	-0.040737	0.229736	-0.366211	-0.326172	87.570774	16.903468	-8.292943
56449		-2.885415	9.355666	0.403027	0.093101	0.005050	-0.048422	0.225586	-0.356201	-0.327393	87.626353	16.931586	-8.291745
56450		-2.923153	9.349368	0.402928	0.107567	0.008162	-0.056725	0.232422	-0.369629	-0.319092	87.690078	16.966710	-8.288540
56451		-2.963454	9.424732	0.315108	0.107212	0.000269	-0.064960	0.227539	-0.352783	-0.321777	87.752812	17.004185	-8.290535
56452		-2.948188	9.438263	0.264965	0.097475	-0.014876	-0.081267	0.219727	-0.368652	-0.327881	87.806579	17.052836	-8.301620
56453		-2.943679	9.344094	0.374868	0.097683	-0.024172	-0.091854	0.241455	-0.365234	-0.316895	87.859393	17.105183	-8.318787
56454		-2.921176	9.369957	0.363897	0.117737	-0.022193	-0.100120	0.238281	-0.362793	-0.325684	87.923367	17.164488	-8.334583
56455		-2.973939	9.389848	0.279755	0.126166	-0.021954	-0.107029	0.224854	-0.365479	-0.320801	87.992796	17.225606	-8.350637
56456		-2.973786	9.376829	0.299733	0.130261	-0.028706	-0.119587	0.232666	-0.358398	-0.328613	88.062677	17.295958	-8.370609
56457		-2.996229	9.383418	0.256713	0.142188	-0.039897	-0.132124	0.239014	-0.365723	-0.322754	88.137938	17.371143	-8.397779
56458		-2.965351	9.392595	0.214668	0.143814	-0.052561	-0.144041	0.230225	-0.364990	-0.315918	88.211163	17.455105	-8.432369
56459		-3.011991	9.383065	0.212546	0.141842	-0.060448	-0.154878	0.232178	-0.364258	-0.321533	88.282368	17.543027	-8.472120
56460		-3.060894	9.413586	0.167442	0.129994	-0.073773	-0.162282	0.233154	-0.360107	-0.322510	88.343682	17.637148	-8.519602
56461		-3.035984	9.467947	0.143993	0.109288	-0.091813	-0.170371	0.234131	-0.361572	-0.319824	88.390350	17.733511	-8.578321
56462		-3.028967	9.420343	0.191851	0.100338	-0.097202	-0.180199	0.238525	-0.355713	-0.322266	88.430166	17.837589	-8.640080
56463		-3.079400	9.426387	0.144005	0.088887	-0.109021	-0.198461	0.236328	-0.351074	-0.322754	88.461640	17.949850	-8.709544
56464		-3.103662	9.506749	0.110426	0.084166	-0.114062	-0.207196	0.239746	-0.353271	-0.320313	88.488706	18.069188	-8.781847
56465		-3.054777	9.605183	0.037277	0.078285	-0.125640	-0.248792	0.240723	-0.345459	-0.328125	88.510460	18.210089	-8.862107
56466		-2.904581	9.845190	0.100990	0.101204	-0.106081	-0.331072	0.234863	-0.351074	-0.326660	88.547854	18.400545	-8.931519
56467		-2.758546	10.215521	0.387452	0.123640	-0.036915	-0.473638	0.239502	-0.349854	-0.328613	88.611043	18.671600	-8.961524
56468		-2.747798	10.251153	0.628627	0.175716	0.067317	-0.662814	0.243652	-0.336182	-0.315186	88.722990	19.054491	-8.930420
56469		-3.064819	10.391178	0.284251	0.180067	0.110684	-0.836512	0.253662	-0.328369	-0.315918	88.846486	19.535304	-8.874624
56470		-3.309532	10.485889	-0.083289	0.129948	0.103133	-0.998016	0.256104	-0.330078	-0.322021	88.939339	20.110424	-8.823918
56471		-3.479359	10.400310	-0.200669	0.030118	0.038773	-1.126997	0.260010	-0.316650	-0.321533	88.962139	20.756737	-8.813448
56472		-3.676609	10.346166	-0.267985	-0.098385	-0.051903	-1.241449	0.276123	-0.311768	-0.327393	88.890240	21.469568	-8.859973
56473		-3.672726	10.162140	-0.089932	-0.205178	-0.134738	-1.333837	0.273682	-0.296631	-0.328125	88.737041	22.232329	-8.960797
56474		-3.642643	9.687884	0.198305	-0.258763	-0.168012	-1.415431	0.279785	-0.277832	-0.322266	88.541723	23.042966	-9.086307
56475		-3.714906	9.474473	0.427850	-0.258577	-0.172305	-1.487463	0.276855	-0.264404	-0.332275	88.342298	23.892508	-9.219782
56476		-3.770899	9.166227	0.623426	-0.215292	-0.155025	-1.557152	0.284424	-0.242676	-0.342285	88.167564	24.783689	-9.347467
56477		-3.932715	9.080482	0.627106	-0.145313	-0.133322	-1.623573	0.302734	-0.238770	-0.340820	88.035381	25.711171	-9.466588
56478		-4.059450	9.069218	0.647623	-0.071739	-0.125554	-1.674054	0.307373	-0.213135	-0.343750	87.943360	26.669289	-9.584701
56479		-4.211026	9.035501	0.702918	-0.007022	-0.117734	-1.747125	0.306152	-0.200928	-0.341064	87.887640	27.667484	-9.702050
56480		-4.360924	9.103627	0.602709	0.049836	-0.105002	-1.819125	0.315430	-0.183594	-0.343506	87.864187	28.708840	-9.814658
56481		-4.511066	9.163983	0.588180	0.093230	-0.096687	-1.907752	0.320313	-0.154297	-0.345947	87.865348	29.799361	-9.925452
56482		-4.669241	9.163515	0.575277	0.118896	-0.091481	-2.004692	0.324219	-0.142578	-0.341553	87.878620	30.947186	-10.036250
56483		-4.866278	9.243844	0.591576	0.128120	-0.089662	-2.110881	0.334473	-0.126465	-0.356689	87.894652	32.154197	-10.149509
56484		-5.121627	9.307327	0.586635	0.124005	-0.090226	-2.209661	0.339111	-0.099121	-0.349121	87.903289	33.419379	-10.266917
56485		-5.506387	9.386077	0.696194	0.099787	-0.077557	-2.316295	0.339355	-0.078125	-0.349609	87.899027	34.744283	-10.379916
56486		-5.785274	9.644360	0.694385	0.062276	-0.080776	-2.423932	0.348877	-0.062500	-0.355713	87.865931	36.132242	-10.500530
56487		-6.429519	10.331533	0.776422	-0.045274	-0.110051	-2.529280	0.355225	-0.027100	-0.351074	87.752682	37.578225	-10.649228
56488		-6.937743	11.537333	1.057797	-0.273527	-0.140607	-2.602974	0.358398	-0.001709	-0.358398	87.483872	39.066683	-10.831838
56489		-7.658899	12.863290	1.415958	-0.652144	-0.140459	-2.595268	0.369141	0.031738	-0.362793	86.984810	40.548322	-11.030629
56490		-7.938174	13.325924	1.577397	-1.096378	-0.075565	-2.529742	0.369873	0.055420	-0.376953	86.243881	41.994148	-11.203274
56491		-6.960921	13.099950	2.058691	-1.522511	0.019379	-2.422049	0.366943	0.071777	-0.366699	85.288563	43.379161	-11.328384
56492		-6.437042	12.746599	1.930229	-1.917669	0.155838	-2.333497	0.373779	0.123535	-0.373047	84.156929	44.719820	-11.377357
56493		-7.210640	12.287168	2.108120	-2.229796	0.355303	-2.290119	0.375488	0.154785	-0.371826	82.936116	46.046739	-11.300186
56494		-6.838945	11.072488	1.856549	-2.380032	0.578768	-2.286945	0.377930	0.186523	-0.365234	81.735702	47.390286	-11.077654
56495		-6.251962	10.414267	1.419861	-2.432137	0.830314	-2.306592	0.380859	0.222656	-0.356445	80.641457	48.769329	-10.677928
56496		-5.838308	9.508845	1.104299	-2.375538	1.027093	-2.311067	0.380371	0.262695	-0.344482	79.693787	50.174885	-10.135826
56497		-4.480598	8.115248	0.768633	-2.203892	1.157264	-2.167180	0.387695	0.297852	-0.332275	78.949807	51.518132	-9.469259
56498		-1.154283	6.671124	0.709579	-1.914491	1.311060	-1.781038	0.392334	0.322510	-0.314453	78.542895	52.665651	-8.596676
56499		1.084949	6.520786	0.112152	-1.524837	1.460572	-1.210317	0.395508	0.336426	-0.299316	78.579179	53.511517	-7.460991
56500		3.397575	7.491657	-0.212894	-1.039863	1.621157	-0.647486	0.403564	0.345947	-0.296387	79.129563	54.054715	-6.042463
56501		2.652519	8.296098	-0.975862	-0.604469	1.996725	-0.215356	0.409180	0.356445	-0.270752	80.315611	54.380474	-4.155910
56502		-1.141057	10.586082	-0.135170	-0.439484	2.097236	0.197309	0.417480	0.349365	-0.246094	81.747359	54.455105	-2.088270
56503		1.157116	9.408613	0.414467	-0.309307	2.123489	0.662931	0.425781	0.337158	-0.227051	83.321778	54.236765	0.065053
56504		1.203808	7.774921	0.699631	-0.173815	2.148052	0.968316	0.437988	0.330566	-0.203613	84.986570	53.808442	2.242690
56505		0.659898	7.252308	0.827807	-0.033784	2.096426	1.160949	0.451660	0.323486	-0.187744	86.654190	53.232757	4.338280
56506		0.104082	7.196549	1.083273	0.061893	1.995890	1.264533	0.458008	0.300293	-0.172119	88.242320	52.557580	6.282450
56507		-0.452431	7.352946	1.215578	0.087826	1.832523	1.340214	0.468750	0.291016	-0.150146	89.664515	51.809218	8.016570
56508		-0.918694	7.309454	1.486752	0.073338	1.616602	1.425337	0.473145	0.267334	-0.143066	90.861374	50.985638	9.491718
56509		-1.422587	7.324942	1.655513	0.052782	1.364026	1.511861	0.476807	0.250977	-0.126221	91.817545	50.101648	10.688439
56510		-1.924734	7.154675	1.795663	0.050678	1.075679	1.587775	0.489502	0.231689	-0.114990	92.529516	49.166190	11.582311
56511		-2.340719	6.907729	1.850018	0.080669	0.752410	1.633953	0.480957	0.223633	-0.118408	93.015418	48.210567	12.165135
56512		-2.871127	6.950098	1.907187	0.150509	0.433433	1.647561	0.495117	0.194580	-0.119629	93.315820	47.251026	12.452237
56513		-3.553109	7.398295	2.081127	0.198679	0.113947	1.647690	0.496582	0.174805	-0.127197	93.441109	46.305098	12.465361
56514		-4.361559	8.048664	2.027594	0.183995	-0.208039	1.656121	0.495850	0.151367	-0.133789	93.364568	45.361419	12.209507
56515		-5.154902	8.712677	2.083006	0.090325	-0.530630	1.697421	0.504883	0.131592	-0.151611	93.061031	44.407762	11.703381
56516		-5.760899	9.267240	1.853953	-0.073154	-0.848266	1.772175	0.496826	0.114746	-0.161865	92.502756	43.413354	10.956775
56517		-6.212634	9.759934	1.640933	-0.248364	-1.140550	1.891256	0.502197	0.084229	-0.193604	91.718217	42.354838	10.010314
56518		-6.520664	10.209142	1.158980	-0.400143	-1.395603	2.054369	0.494629	0.059814	-0.214600	90.750635	41.191169	8.900033
56519		-6.669091	10.251184	0.796805	-0.501955	-1.593321	2.294280	0.483154	0.028809	-0.238037	89.679467	39.880326	7.691629
56520		-6.777677	9.839818	0.429547	-0.528341	-1.737259	2.534733	0.468506	-0.002197	-0.260254	88.583225	38.408730	6.432595
56521		-6.811903	9.052666	0.158274	-0.444187	-1.842526	2.717423	0.466064	-0.029297	-0.284424	87.557548	36.817304	5.166145
56522		-6.896743	8.552838	-0.120873	-0.287658	-1.899458	2.803631	0.459473	-0.061768	-0.321777	86.661361	35.153587	3.919213
56523		-6.807654	8.262319	-0.352128	-0.110312	-1.910749	2.795145	0.435059	-0.093750	-0.347168	85.924470	33.484848	2.721138
56524		-6.582675	8.334303	-0.415264	0.063091	-1.861562	2.739725	0.420898	-0.130371	-0.377441	85.354994	31.834065	1.596281
56525		-6.349461	8.600305	-0.373236	0.201687	-1.757016	2.679242	0.403564	-0.156982	-0.394531	84.946739	30.219572	0.576478
56526		-6.099306	9.028692	-0.292585	0.279952	-1.592551	2.618535	0.384033	-0.190430	-0.422119	84.671102	28.638462	-0.314041
56527		-5.982221	9.339827	-0.102053	0.312538	-1.396135	2.571024	0.376465	-0.228760	-0.444092	84.504125	27.096712	-1.058349
56528		-6.081847	9.671704	0.068239	0.303156	-1.191646	2.530330	0.353760	-0.247314	-0.450195	84.411067	25.583476	-1.663157
56529		-6.231927	9.762225	0.267321	0.255642	-0.997472	2.488330	0.338867	-0.286621	-0.462891	84.360366	24.108930	-2.136881
56530		-6.440033	9.657464	0.533425	0.200626	-0.816796	2.434943	0.325439	-0.305420	-0.483887	84.333937	22.670345	-2.497110
56531		-6.652172	9.292342	0.746867	0.147072	-0.663529	2.359147	0.316406	-0.339355	-0.488281	84.321083	21.287936	-2.761636
56532		-7.092048	8.859217	0.943268	0.141502	-0.537579	2.252899	0.304443	-0.356689	-0.507080	84.335552	19.969087	-2.955205
56533		-7.636394	8.571661	1.190598	0.169056	-0.441134	2.109192	0.288574	-0.386963	-0.504883	84.387444	18.741865	-3.096584
56534		-8.147289	8.303530	1.383771	0.198297	-0.383859	1.930619	0.287109	-0.413818	-0.506348	84.465269	17.616044	-3.216115
56535		-8.729214	8.074388	1.562328	0.224742	-0.360007	1.741541	0.281006	-0.441650	-0.517090	84.561905	16.603308	-3.331750
56536		-9.403836	8.033178	1.625398	0.227673	-0.351707	1.552622	0.264648	-0.459473	-0.523926	84.659257	15.695733	-3.455675
56537		-9.963249	7.893831	1.581090	0.181686	-0.357508	1.347585	0.252686	-0.479980	-0.527344	84.728811	14.908235	-3.593723
56538		-10.379754	7.515087	1.427500	0.095154	-0.358623	1.130649	0.245850	-0.497314	-0.541504	84.746352	14.241991	-3.745597
56539		-10.536825	6.781267	1.107138	0.019834	-0.346595	0.894579	0.244629	-0.501221	-0.541992	84.721940	13.713618	-3.901515
56540		-10.645627	6.073161	0.867669	-0.009066	-0.324438	0.647776	0.237793	-0.523926	-0.552979	84.681245	13.325364	-4.058255
56541		-10.665744	5.536698	0.855354	0.002018	-0.303227	0.402046	0.230225	-0.527344	-0.560547	84.648590	13.080098	-4.214548
56542		-10.710429	5.368729	0.913440	0.042933	-0.293780	0.165930	0.237061	-0.543701	-0.562988	84.637241	12.969048	-4.378817
56543		-10.464354	5.373716	1.073045	0.065193	-0.291239	-0.063195	0.228027	-0.540039	-0.573486	84.637269	12.989747	-4.553396
56544		-10.191770	5.424647	1.193716	0.068261	-0.316330	-0.299966	0.234619	-0.547852	-0.574707	84.631507	13.144084	-4.756270
56545		-9.772746	5.573569	1.287091	0.042964	-0.352444	-0.537710	0.234863	-0.545410	-0.589600	84.603562	13.432113	-4.993153
56546		-10.773181	3.084527	-0.251589	0.040788	-0.393446	-0.787997	0.228271	-0.544434	-0.595215	84.562774	13.861260	-5.268888
56547		-9.968829	3.340564	1.971753	0.782675	-0.183545	-1.723217	0.244873	-0.532715	-0.587158	84.963117	14.835114	-5.470618
56548		-14.738473	-6.445759	1.436190	2.533478	0.331591	-1.826645	0.266846	-0.545898	-0.571533	86.445865	15.894792	-5.356173
56549		-16.800846	43.922697	-10.912904	2.737062	0.647966	-0.655880	0.274414	-0.557617	-0.546387	88.117647	16.288028	-4.989381
56550		-4.080393	10.081165	-1.696450	0.036495	1.328458	0.582040	0.275146	-0.564453	-0.541016	88.362812	15.980872	-4.186879
56551		-2.441349	6.718382	2.716750	-0.700812	0.985532	0.319383	0.289551	-0.560059	-0.531982	88.125346	15.815548	-3.594803
56552		-3.553391	10.699102	-0.770135	-0.250793	0.568811	0.167900	0.293701	-0.556641	-0.517090	88.075806	15.733074	-3.253136
56553		-2.433704	10.438735	-0.843048	-0.109124	0.327578	0.083626	0.292725	-0.567139	-0.520508	88.068229	15.691782	-3.057202
56554		-3.171293	10.025136	-0.259955	-0.164084	0.076283	-0.089163	0.285156	-0.554443	-0.530518	87.987389	15.747205	-3.013703
56555		-2.979642	9.558954	0.194212	-0.026632	-0.021977	-0.093182	0.289307	-0.560791	-0.527588	87.969765	15.800396	-3.029341
56556		-2.724935	9.645536	0.074830	-0.056810	-0.118931	-0.129436	0.290283	-0.554688	-0.525635	87.918552	15.874943	-3.102922
56557		-2.777005	9.221449	0.507799	-0.041215	-0.184451	-0.171445	0.287842	-0.558350	-0.537598	87.865498	15.969498	-3.217109
56558		-2.855932	9.344321	0.369832	-0.018240	-0.188559	-0.172320	0.296875	-0.549561	-0.532959	87.824391	16.066965	-3.333325
56559		-2.835317	9.432444	0.345458	-0.049527	-0.126304	-0.124020	0.290039	-0.550781	-0.527344	87.776070	16.135471	-3.412036
56560		-2.730955	9.356151	0.431738	-0.070780	-0.094112	-0.100141	0.286377	-0.547363	-0.544678	87.720642	16.193549	-3.470517
56561		-2.792731	9.351909	0.434243	-0.068042	-0.045983	-0.067373	0.294189	-0.548584	-0.534424	87.675268	16.231339	-3.500154
56562		-2.759155	9.301715	0.508576	-0.067191	-0.000238	-0.032160	0.293945	-0.553711	-0.541748	87.637899	16.252598	-3.501124
56563		-2.751927	9.266668	0.536887	-0.050914	0.024087	-0.015940	0.295410	-0.552734	-0.525146	87.614354	16.262570	-3.487762
56564		-2.765777	9.330800	0.434238	-0.029490	0.031393	-0.010596	0.292480	-0.552979	-0.533203	87.604005	16.272229	-3.469357
56565		-2.859222	9.465076	0.337612	-0.027271	0.028141	-0.010571	0.285889	-0.546143	-0.536133	87.594724	16.279232	-3.453447
56566		-2.885758	9.521287	0.253604	-0.033278	0.001520	-0.015119	0.291260	-0.543945	-0.535400	87.577185	16.290759	-3.452974
56567		-2.906750	9.588795	0.212157	-0.058069	-0.030127	-0.026107	0.296875	-0.542969	-0.538086	87.540401	16.305244	-3.472213
56568		-2.847452	9.490275	0.283203	-0.092166	-0.054360	-0.036104	0.295166	-0.549072	-0.542969	87.479619	16.327387	-3.505617
56569		-2.809304	9.409470	0.443363	-0.096644	-0.060828	-0.032934	0.293213	-0.546143	-0.541016	87.415510	16.344961	-3.543383
56570		-2.797593	9.393517	0.426516	-0.099475	-0.058035	-0.030932	0.284424	-0.542725	-0.544189	87.349930	16.363966	-3.578889
56571		-2.820857	9.395475	0.425113	-0.101434	-0.058785	-0.028215	0.296143	-0.544922	-0.542236	87.283421	16.378812	-3.615353
56572		-2.794398	9.379597	0.480672	-0.109066	-0.056773	-0.025465	0.295898	-0.541748	-0.540527	87.212569	16.394632	-3.649997
56573		-2.776876	9.310022	0.537662	-0.099463	-0.047760	-0.018648	0.299072	-0.540283	-0.545654	87.149096	16.404230	-3.679645
56574		-2.795760	9.354830	0.493323	-0.092140	-0.033781	-0.011520	0.286621	-0.544189	-0.545654	87.091906	16.412646	-3.700197
56575		-2.835074	9.403132	0.435914	-0.090347	-0.025063	-0.009299	0.289551	-0.539307	-0.548096	87.037549	16.417503	-3.716042
56576		-2.824604	9.433490	0.435937	-0.112019	-0.035683	-0.006210	0.291260	-0.536377	-0.550293	86.968689	16.422772	-3.737577
56577		-2.827936	9.390200	0.489716	-0.119531	-0.037113	-0.004087	0.295898	-0.540527	-0.549316	86.895620	16.424242	-3.760456
56578		-2.820167	9.377825	0.533580	-0.120118	-0.042175	-0.006394	0.292969	-0.545410	-0.547852	86.821020	16.429350	-3.785878
56579		-2.818859	9.354329	0.536792	-0.113405	-0.036105	-0.005544	0.292236	-0.534668	-0.546875	86.751613	16.431631	-3.808209
56580		-2.802790	9.330267	0.610479	-0.097575	-0.027697	-0.000458	0.296875	-0.538330	-0.558350	86.692424	16.433749	-3.824803
56581		-2.769058	9.334834	0.612591	-0.080037	-0.011695	0.003200	0.285889	-0.540283	-0.548828	86.646337	16.431797	-3.832279
56582		-2.789310	9.337851	0.607521	-0.071922	-0.002413	0.007386	0.297607	-0.536377	-0.550049	86.606184	16.430242	-3.833526
56583		-2.787034	9.315023	0.603905	-0.043996	0.010492	0.006569	0.290527	-0.532227	-0.555176	86.584524	16.427109	-3.827649
56584		-2.818806	9.375417	0.580964	-0.025951	0.008237	0.003314	0.292969	-0.533203	-0.546387	86.572462	16.428235	-3.822692
56585		-2.820630	9.397926	0.591535	-0.012974	0.004577	-0.006256	0.288330	-0.538574	-0.554443	86.567450	16.432237	-3.820799
56586		-2.829670	9.409409	0.560484	0.002806	0.002695	-0.013520	0.288818	-0.541748	-0.551758	86.570760	16.442792	-3.819751
56587		-2.808607	9.383049	0.562785	0.019383	0.003563	-0.015430	0.294678	-0.529053	-0.562256	86.584024	16.452005	-3.818789
56588		-2.823012	9.374265	0.579125	0.035737	0.006691	-0.020383	0.292725	-0.533447	-0.554199	86.606812	16.466612	-3.815599
56589		-2.812499	9.382285	0.556041	0.045180	0.008831	-0.025239	0.293213	-0.531738	-0.550049	86.635652	16.481614	-3.811834
56590		-2.845417	9.419590	0.516461	0.049448	0.007482	-0.024277	0.294678	-0.538330	-0.554443	86.666397	16.498461	-3.808298
56591		-2.825346	9.393155	0.514900	0.054431	0.003135	-0.025993	0.297363	-0.538330	-0.547852	86.699572	16.513702	-3.807939
56592		-2.818194	9.358280	0.531906	0.063461	-0.000298	-0.029790	0.299561	-0.542236	-0.551514	86.736983	16.533435	-3.809215
56593		-2.835322	9.372080	0.553803	0.065500	0.001586	-0.028827	0.293701	-0.533691	-0.554199	86.776216	16.550246	-3.809855
56594		-2.823518	9.357364	0.519650	0.064718	0.006285	-0.025834	0.293945	-0.530518	-0.551025	86.815512	16.567920	-3.807049
56595		-2.817650	9.345384	0.545090	0.059951	0.008359	-0.021081	0.299805	-0.538818	-0.552734	86.852798	16.580514	-3.803367
56596		-2.819436	9.345195	0.539066	0.061966	0.014843	-0.015788	0.300049	-0.538330	-0.542480	86.892077	16.592695	-3.795105
56597		-2.822967	9.367729	0.541326	0.067007	0.021723	-0.020978	0.297852	-0.537842	-0.546631	86.935693	16.605638	-3.783423
56598		-2.845653	9.370769	0.522090	0.068170	0.014203	-0.017552	0.291748	-0.532227	-0.549805	86.978409	16.618786	-3.775587
56599		-2.847324	9.370626	0.515513	0.063303	0.015109	-0.016491	0.295410	-0.539551	-0.542480	87.018824	16.628948	-3.767692
56600		-2.834560	9.356071	0.481401	0.061259	0.013198	-0.017456	0.297607	-0.543213	-0.542236	87.057417	16.641992	-3.760439
56601		-2.858681	9.381793	0.472019	0.053822	0.010078	-0.015641	0.298340	-0.534912	-0.547363	87.091554	16.651510	-3.755509
56602		-2.847519	9.389880	0.448168	0.041363	0.008417	-0.016132	0.303955	-0.541260	-0.547852	87.117950	16.663641	-3.751059
56603		-2.861554	9.381331	0.463722	0.029758	0.007824	-0.011597	0.295898	-0.540771	-0.547363	87.137951	16.670776	-3.747344
56604		-2.873742	9.350026	0.471687	0.017894	0.006586	-0.014119	0.298096	-0.541504	-0.544434	87.150611	16.681691	-3.743921
